# FOX Logger (IMU file)
# (c) HiKoB 2011-2012
#
# File created from file HIGPS00.RAW
#
# File format:
# id	t	dt	ax	ay	az	mx	my	mz	gx	gy	gz
#
# Units:
#	Time: s
#	Acceleration: m.s^-2
#	Magnetic field: gauss
#	Rotation speed: deg.s^-1
#
1	14.211060	14.211060	-9.417600	-1.765800	0.941760	0.653731	-0.234328	0.828333	-0.057421	-0.020769	0.001222
2	14.220184	0.009125	-9.417600	-1.883520	0.824040	0.652239	-0.247761	0.825000	-0.053756	-0.014661	0.000000
3	14.229279	0.009094	-9.535320	-1.765800	1.059480	0.655224	-0.231343	0.831667	-0.053756	-0.009774	-0.012217
4	14.238403	0.009125	-9.417600	-1.530360	0.706320	0.655224	-0.235821	0.831667	-0.041539	-0.012217	-0.001222
5	14.247528	0.009125	-9.299880	-1.883520	0.941760	0.653731	-0.232836	0.830000	-0.057421	-0.020769	-0.002443
6	14.256622	0.009094	-9.182160	-1.883520	0.941760	0.652239	-0.238806	0.826667	-0.052534	-0.013439	-0.001222
7	14.265747	0.009125	-9.299880	-1.765800	0.824040	0.650746	-0.229851	0.828333	-0.054978	-0.021991	-0.003665
8	14.274841	0.009094	-9.299880	-1.765800	0.706320	0.653731	-0.229851	0.826667	-0.047647	-0.003665	0.000000
9	14.283966	0.009125	-9.299880	-1.765800	0.824040	0.653731	-0.231343	0.828333	-0.050091	-0.018326	0.002443
10	14.293091	0.009125	-9.064440	-1.648080	1.059480	0.655224	-0.234328	0.830000	-0.043982	-0.012217	0.002443
11	14.302185	0.009094	-9.417600	-1.765800	0.824040	0.652239	-0.228358	0.828333	-0.047647	-0.006109	0.002443
12	14.311310	0.009125	-9.417600	-1.648080	0.824040	0.656716	-0.229851	0.826667	-0.047647	-0.008552	0.012217
13	14.320404	0.009094	-9.299880	-1.883520	0.941760	0.653731	-0.231343	0.828333	-0.043982	-0.020769	0.010996
14	14.329529	0.009125	-9.417600	-1.765800	1.294920	0.655224	-0.226866	0.830000	-0.043982	-0.006109	0.020769
15	14.338623	0.009094	-9.299880	-1.765800	0.824040	0.655224	-0.229851	0.828333	-0.047647	-0.014661	0.017104
16	14.347748	0.009125	-9.417600	-1.765800	0.824040	0.653731	-0.232836	0.830000	-0.048869	-0.002443	0.014661
17	14.356873	0.009125	-9.299880	-1.648080	0.941760	0.653731	-0.229851	0.826667	-0.045204	-0.002443	0.024435
18	14.365967	0.009094	-9.299880	-1.765800	0.588600	0.653731	-0.231343	0.830000	-0.051313	-0.009774	0.023213
19	14.375092	0.009125	-9.417600	-1.765800	0.941760	0.650746	-0.240299	0.823333	-0.048869	-0.007330	0.025656
20	14.384216	0.009125	-9.417600	-1.648080	0.941760	0.655224	-0.231343	0.831667	-0.048869	0.000000	0.032987
21	14.393311	0.009094	-9.299880	-1.765800	1.059480	0.653731	-0.228358	0.828333	-0.043982	-0.012217	0.019548
22	14.402435	0.009125	-9.182160	-1.765800	1.059480	0.656716	-0.234328	0.828333	-0.045204	-0.008552	0.019548
23	14.411530	0.009094	-9.417600	-1.765800	0.824040	0.653731	-0.231343	0.828333	-0.036652	-0.013439	0.017104
24	14.420654	0.009125	-9.417600	-1.648080	0.941760	0.658209	-0.237313	0.825000	-0.041539	-0.004887	0.015882
25	14.429779	0.009125	-9.535320	-1.765800	0.824040	0.653731	-0.234328	0.828333	-0.054978	-0.025656	0.023213
26	14.444580	0.014801	-9.417600	-1.765800	0.941760	0.649254	-0.232836	0.830000	-0.032987	-0.013439	0.029322
27	14.452545	0.007965	-9.182160	-1.765800	0.941760	0.653731	-0.228358	0.828333	-0.032987	-0.020769	0.037874
28	14.461639	0.009094	-9.299880	-1.765800	0.588600	0.653731	-0.228358	0.830000	-0.034208	-0.014661	0.032987
29	14.470764	0.009125	-9.182160	-1.883520	0.706320	0.653731	-0.229851	0.826667	-0.035430	-0.012217	0.047647
30	14.479889	0.009125	-9.299880	-1.765800	0.588600	0.653731	-0.231343	0.830000	-0.042761	-0.031765	0.041539
31	14.488983	0.009094	-9.299880	-1.765800	0.941760	0.653731	-0.231343	0.830000	-0.047647	-0.028100	0.051313
32	14.498108	0.009125	-9.299880	-1.648080	0.588600	0.655224	-0.235821	0.823333	-0.032987	-0.026878	0.058643
33	14.507202	0.009094	-9.299880	-1.530360	0.941760	0.655224	-0.232836	0.825000	-0.035430	-0.036652	0.053756
34	14.516327	0.009125	-9.299880	-1.765800	0.824040	0.653731	-0.237313	0.831667	-0.032987	-0.030543	0.062308
35	14.525452	0.009125	-9.299880	-1.765800	0.706320	0.656716	-0.238806	0.830000	-0.024435	-0.037874	0.062308
36	14.534546	0.009094	-9.299880	-1.648080	0.470880	0.653731	-0.231343	0.828333	-0.024435	-0.039095	0.056200
37	14.543671	0.009125	-9.299880	-1.883520	0.824040	0.653731	-0.234328	0.826667	-0.018326	-0.043982	0.065973
38	14.552795	0.009125	-9.299880	-1.765800	0.706320	0.652239	-0.247761	0.821667	-0.025656	-0.052534	0.075747
39	14.561890	0.009094	-9.299880	-1.648080	0.824040	0.655224	-0.234328	0.825000	-0.028100	-0.054978	0.069639
40	14.571014	0.009125	-9.299880	-1.530360	1.059480	0.652239	-0.232836	0.828333	-0.029322	-0.062308	0.078191
41	14.580139	0.009125	-9.299880	-1.412640	0.941760	0.650746	-0.240299	0.828333	-0.029322	-0.069639	0.069639
42	14.589233	0.009094	-9.182160	-1.530360	0.824040	0.652239	-0.235821	0.825000	-0.026878	-0.072082	0.061087
43	14.598358	0.009125	-9.417600	-1.412640	1.294920	0.653731	-0.232836	0.825000	-0.013439	-0.067195	0.057421
44	14.607452	0.009094	-9.417600	-1.177200	1.059480	0.653731	-0.235821	0.825000	-0.018326	-0.080634	0.047647
45	14.616577	0.009125	-9.417600	-1.177200	1.177200	0.655224	-0.235821	0.821667	-0.028100	-0.079412	0.039095
46	14.625671	0.009094	-9.417600	-1.294920	1.294920	0.653731	-0.237313	0.821667	-0.032987	-0.086743	0.031765
47	14.634796	0.009125	-9.417600	-1.177200	1.648080	0.652239	-0.237313	0.825000	-0.037874	-0.083078	0.013439
48	14.643921	0.009125	-9.417600	-1.412640	1.648080	0.653731	-0.235821	0.821667	-0.039095	-0.069639	0.018326
49	14.653015	0.009094	-9.417600	-1.412640	1.648080	0.655224	-0.235821	0.821667	-0.024435	-0.037874	0.002443
50	14.662140	0.009125	-9.417600	-1.530360	1.648080	0.655224	-0.243284	0.820000	-0.029322	-0.012217	-0.004887
51	14.671265	0.009125	-9.417600	-1.765800	1.648080	0.653731	-0.237313	0.823333	-0.019548	0.014661	-0.002443
52	14.680359	0.009094	-9.417600	-1.765800	1.530360	0.652239	-0.238806	0.825000	-0.023213	0.019548	-0.002443
53	14.689484	0.009125	-9.417600	-1.648080	1.530360	0.652239	-0.232836	0.820000	-0.034208	0.032987	-0.002443
54	14.698578	0.009094	-9.535320	-1.883520	1.530360	0.653731	-0.234328	0.821667	-0.032987	0.050091	0.006109
55	14.707703	0.009125	-9.417600	-1.765800	1.412640	0.652239	-0.234328	0.823333	-0.037874	0.062308	0.008552
56	14.716827	0.009125	-9.417600	-1.765800	1.648080	0.653731	-0.249254	0.821667	-0.056200	0.048869	0.024435
57	14.725922	0.009094	-9.299880	-1.765800	1.530360	0.653731	-0.234328	0.823333	-0.070860	0.040317	0.029322
58	14.735046	0.009125	-9.417600	-1.883520	1.530360	0.650746	-0.238806	0.825000	-0.072082	0.047647	0.034208
59	14.744141	0.009094	-9.653040	-1.765800	1.294920	0.650746	-0.234328	0.828333	-0.069639	0.059865	0.048869
60	14.753265	0.009125	-9.770760	-1.648080	0.941760	0.653731	-0.235821	0.825000	-0.072082	0.094073	0.054978
61	14.762360	0.009094	-9.653040	-1.530360	1.059480	0.653731	-0.237313	0.825000	-0.073304	0.119730	0.061087
62	14.771484	0.009125	-9.417600	-1.765800	1.177200	0.652239	-0.238806	0.828333	-0.086743	0.136834	0.061087
63	14.780609	0.009125	-9.417600	-1.294920	1.530360	0.652239	-0.238806	0.830000	-0.102625	0.135612	0.085521
64	14.789703	0.009094	-9.182160	-0.941760	1.648080	0.652239	-0.235821	0.833333	-0.097738	0.144164	0.095295
65	14.798828	0.009125	-9.182160	-0.824040	1.648080	0.650746	-0.240299	0.833333	-0.079412	0.136834	0.112399
66	14.807922	0.009094	-9.299880	-0.941760	1.412640	0.649254	-0.238806	0.833333	-0.054978	0.156382	0.112399
67	14.817047	0.009125	-9.299880	-0.941760	1.294920	0.649254	-0.249254	0.835000	-0.067195	0.157603	0.114843
68	14.826172	0.009125	-9.417600	-1.177200	1.059480	0.652239	-0.241791	0.838333	-0.064752	0.163712	0.119730
69	14.835266	0.009094	-9.535320	-1.294920	0.824040	0.650746	-0.246269	0.836667	-0.097738	0.152716	0.128282
70	14.844391	0.009125	-9.535320	-1.177200	0.824040	0.646269	-0.244776	0.836667	-0.107512	0.149051	0.151495
71	14.853485	0.009094	-9.417600	-1.059480	0.706320	0.647761	-0.247761	0.840000	-0.102625	0.144164	0.164934
72	14.862610	0.009125	-9.653040	-0.941760	0.588600	0.646269	-0.247761	0.841667	-0.092852	0.153938	0.190590
73	14.871735	0.009125	-9.417600	-0.941760	0.470880	0.647761	-0.249254	0.843333	-0.095295	0.141721	0.193033
74	14.880829	0.009094	-9.417600	-0.824040	0.235440	0.647761	-0.250746	0.841667	-0.109956	0.135612	0.210138
75	14.889954	0.009125	-9.299880	-0.824040	0.235440	0.644776	-0.264179	0.841667	-0.107512	0.139277	0.211359
76	14.899078	0.009125	-9.417600	-1.059480	0.117720	0.646269	-0.250746	0.848333	-0.118508	0.123395	0.206472
77	14.908173	0.009094	-9.299880	-0.941760	0.235440	0.644776	-0.256716	0.848333	-0.129503	0.107512	0.210138
78	14.917297	0.009125	-9.299880	-1.059480	0.235440	0.644776	-0.256716	0.848333	-0.122173	0.106291	0.206472
79	14.926422	0.009125	-9.182160	-1.059480	0.000000	0.644776	-0.258209	0.850000	-0.129503	0.101404	0.196699
80	14.935516	0.009094	-9.182160	-1.059480	0.117720	0.644776	-0.259701	0.850000	-0.122173	0.090408	0.194255
81	14.944641	0.009125	-9.299880	-1.294920	0.235440	0.644776	-0.259701	0.850000	-0.116064	0.085521	0.169821
82	14.953735	0.009094	-9.299880	-1.412640	0.000000	0.643284	-0.261194	0.850000	-0.113621	0.097738	0.160047
83	14.962860	0.009125	-9.535320	-1.294920	-0.235440	0.643284	-0.262687	0.853333	-0.120951	0.087965	0.140499
84	14.971985	0.009125	-9.653040	-1.059480	-0.117720	0.641791	-0.267164	0.851667	-0.119730	0.070860	0.128282
85	14.981079	0.009094	-9.417600	-0.941760	0.000000	0.640299	-0.270149	0.853333	-0.128282	0.074526	0.130725
86	14.990204	0.009125	-9.417600	-1.059480	0.000000	0.641791	-0.270149	0.855000	-0.118508	0.070860	0.123395
87	14.999298	0.009094	-9.535320	-0.941760	-0.117720	0.641791	-0.267164	0.851667	-0.105069	0.064752	0.124617
88	15.008423	0.009125	-9.299880	-1.177200	0.117720	0.638806	-0.271642	0.855000	-0.092852	0.059865	0.116064
89	15.017548	0.009125	-9.182160	-1.294920	0.000000	0.641791	-0.271642	0.851667	-0.085521	0.045204	0.111177
90	15.026642	0.009094	-9.064440	-1.294920	0.000000	0.640299	-0.270149	0.855000	-0.081856	0.024435	0.106291
91	15.035767	0.009125	-9.064440	-1.412640	0.235440	0.638806	-0.274627	0.853333	-0.083078	0.012217	0.109956
92	15.044891	0.009125	-8.946720	-1.530360	0.117720	0.640299	-0.271642	0.858333	-0.065973	-0.008552	0.083078
93	15.054352	0.009460	-9.064440	-1.883520	0.000000	0.638806	-0.283582	0.853333	-0.051313	-0.013439	0.054978
94	15.063110	0.008759	-8.946720	-1.883520	0.117720	0.641791	-0.292537	0.850000	-0.037874	-0.017104	0.036652
95	15.072235	0.009125	-9.182160	-2.118960	0.235440	0.641791	-0.271642	0.851667	-0.030543	-0.006109	0.001222
96	15.081360	0.009125	-9.299880	-2.354400	0.117720	0.640299	-0.274627	0.851667	-0.024435	-0.003665	-0.021991
97	15.090454	0.009094	-9.299880	-2.589840	0.000000	0.643284	-0.273134	0.855000	-0.029322	-0.002443	-0.067195
98	15.099579	0.009125	-9.417600	-2.354400	0.000000	0.641791	-0.274627	0.856667	-0.034208	0.002443	-0.046426
99	15.108704	0.009125	-9.653040	-1.177200	-0.117720	0.641791	-0.271642	0.853333	-0.020769	0.017104	0.000000
100	15.117798	0.009094	-9.653040	-0.588600	0.470880	0.641791	-0.273134	0.853333	-0.062308	-0.052534	0.006109
101	15.126923	0.009125	-9.770760	-0.588600	1.059480	0.640299	-0.276119	0.855000	-0.075747	-0.075747	-0.009774
102	15.136017	0.009094	-9.770760	-0.824040	0.706320	0.640299	-0.277612	0.851667	-0.031765	-0.053756	-0.036652
103	15.145142	0.009125	-9.535320	-0.941760	0.117720	0.641791	-0.274627	0.855000	-0.025656	-0.036652	-0.046426
104	15.154236	0.009094	-9.535320	-1.059480	0.353160	0.640299	-0.271642	0.851667	-0.014661	-0.010996	-0.040317
105	15.163361	0.009125	-9.299880	-1.177200	0.235440	0.643284	-0.268657	0.853333	-0.021991	-0.018326	-0.040317
106	15.172485	0.009125	-9.182160	-0.941760	0.117720	0.641791	-0.270149	0.855000	-0.023213	-0.010996	-0.035430
107	15.181580	0.009094	-9.182160	-1.059480	0.117720	0.640299	-0.273134	0.851667	-0.034208	-0.020769	-0.030543
108	15.190704	0.009125	-9.417600	-1.177200	0.353160	0.643284	-0.268657	0.853333	-0.053756	-0.037874	-0.037874
109	15.199829	0.009125	-9.299880	-1.294920	0.235440	0.646269	-0.271642	0.853333	-0.061087	-0.040317	-0.028100
110	15.208923	0.009094	-9.299880	-1.294920	0.353160	0.641791	-0.271642	0.850000	-0.062308	-0.040317	-0.025656
111	15.218048	0.009125	-9.535320	-1.412640	0.588600	0.643284	-0.268657	0.851667	-0.074526	-0.031765	-0.006109
112	15.227173	0.009125	-9.535320	-1.294920	0.941760	0.641791	-0.288060	0.848333	-0.087965	-0.036652	0.007330
113	15.236267	0.009094	-9.417600	-1.177200	0.706320	0.643284	-0.270149	0.850000	-0.057421	-0.014661	0.014661
114	15.245392	0.009125	-9.535320	-1.412640	0.706320	0.641791	-0.268657	0.851667	-0.058643	0.003665	0.014661
115	15.254517	0.009125	-9.535320	-1.530360	0.824040	0.641791	-0.262687	0.851667	-0.087965	0.015882	0.025656
116	15.263641	0.009125	-9.653040	-1.530360	1.059480	0.641791	-0.268657	0.853333	-0.109956	0.018326	0.065973
117	15.272736	0.009094	-9.535320	-1.765800	0.824040	0.643284	-0.271642	0.851667	-0.097738	0.019548	0.084299
118	15.281860	0.009125	-9.535320	-1.883520	0.588600	0.640299	-0.271642	0.851667	-0.090408	0.051313	0.119730
119	15.290985	0.009125	-9.417600	-1.530360	0.353160	0.644776	-0.273134	0.853333	-0.086743	0.050091	0.139277
120	15.300079	0.009094	-9.299880	-1.530360	0.235440	0.640299	-0.271642	0.855000	-0.089186	0.048869	0.164934
121	15.309204	0.009125	-9.299880	-1.530360	0.117720	0.640299	-0.273134	0.855000	-0.089186	0.046426	0.183260
122	15.318329	0.009125	-9.299880	-1.294920	0.117720	0.640299	-0.277612	0.853333	-0.094073	0.042761	0.196699
123	15.327423	0.009094	-9.299880	-1.177200	0.000000	0.641791	-0.276119	0.851667	-0.087965	0.041539	0.213803
124	15.336548	0.009125	-9.417600	-1.059480	0.117720	0.640299	-0.283582	0.856667	-0.090408	0.041539	0.230907
125	15.345673	0.009125	-9.535320	-1.059480	0.117720	0.638806	-0.279104	0.851667	-0.108734	0.021991	0.226020
126	15.354797	0.009125	-9.417600	-0.941760	0.117720	0.635821	-0.285075	0.855000	-0.120951	0.030543	0.227242
127	15.363892	0.009094	-9.417600	-1.177200	0.117720	0.641791	-0.286567	0.855000	-0.123395	0.006109	0.223577
128	15.373016	0.009125	-9.417600	-1.059480	-0.235440	0.638806	-0.289552	0.856667	-0.142942	0.008552	0.227242
129	15.382141	0.009125	-9.535320	-0.824040	-0.117720	0.635821	-0.291045	0.856667	-0.130725	0.010996	0.243124
130	15.391235	0.009094	-9.535320	-0.706320	0.000000	0.635821	-0.300000	0.855000	-0.124617	0.004887	0.246790
131	15.400360	0.009125	-9.417600	-0.706320	0.000000	0.638806	-0.291045	0.855000	-0.131947	0.000000	0.244346
132	15.409485	0.009125	-9.417600	-0.941760	0.117720	0.635821	-0.294030	0.853333	-0.119730	-0.003665	0.245568
133	15.418579	0.009094	-9.299880	-1.177200	0.000000	0.634328	-0.294030	0.855000	-0.114843	-0.015882	0.248011
134	15.427704	0.009125	-9.299880	-0.941760	-0.117720	0.635821	-0.297015	0.856667	-0.114843	-0.026878	0.268781
135	15.436829	0.009125	-9.417600	-0.941760	0.000000	0.635821	-0.297015	0.855000	-0.109956	-0.029322	0.287107
136	15.445923	0.009094	-9.535320	-0.824040	-0.117720	0.634328	-0.304478	0.855000	-0.094073	-0.036652	0.294437
137	15.455048	0.009125	-9.299880	-0.588600	0.000000	0.634328	-0.304478	0.853333	-0.087965	-0.037874	0.293215
138	15.464142	0.009094	-9.417600	-0.588600	0.000000	0.634328	-0.304478	0.853333	-0.103847	-0.043982	0.290772
139	15.473267	0.009125	-9.535320	-0.588600	0.117720	0.632836	-0.305970	0.855000	-0.120951	-0.050091	0.285885
140	15.482361	0.009094	-9.535320	-0.588600	0.117720	0.631343	-0.308955	0.855000	-0.140499	-0.052534	0.285885
141	15.491486	0.009125	-9.417600	-0.235440	0.117720	0.632836	-0.313433	0.853333	-0.135612	-0.035430	0.271224
142	15.500610	0.009125	-9.417600	0.000000	0.588600	0.631343	-0.316418	0.851667	-0.157603	-0.047647	0.266337
143	15.509705	0.009094	-9.417600	0.235440	0.235440	0.631343	-0.316418	0.853333	-0.135612	-0.028100	0.252898
144	15.518829	0.009125	-9.299880	0.353160	0.588600	0.629851	-0.316418	0.855000	-0.070860	-0.059865	0.250455
145	15.527924	0.009094	-9.417600	0.000000	0.470880	0.631343	-0.319403	0.851667	-0.125838	-0.048869	0.223577
146	15.537048	0.009125	-9.535320	0.588600	0.117720	0.629851	-0.325373	0.851667	-0.144164	-0.029322	0.217468
147	15.546173	0.009125	-9.417600	0.470880	-0.117720	0.631343	-0.322388	0.846667	-0.145386	-0.045204	0.199142
148	15.555267	0.009094	-9.535320	0.706320	0.000000	0.629851	-0.323881	0.848333	-0.136834	-0.047647	0.186925
149	15.564392	0.009125	-9.299880	0.941760	0.000000	0.628358	-0.340299	0.845000	-0.146608	-0.052534	0.173486
150	15.573517	0.009125	-9.299880	0.824040	0.000000	0.628358	-0.325373	0.848333	-0.167377	-0.084299	0.164934
151	15.582611	0.009094	-9.299880	0.706320	0.235440	0.628358	-0.323881	0.848333	-0.164934	-0.087965	0.155160
152	15.591736	0.009125	-9.417600	0.353160	0.353160	0.626866	-0.329851	0.848333	-0.169821	-0.089186	0.152716
153	15.600830	0.009094	-9.417600	0.824040	0.117720	0.629851	-0.328358	0.848333	-0.135612	-0.086743	0.142942
154	15.609955	0.009125	-9.417600	0.941760	0.117720	0.631343	-0.328358	0.843333	-0.140499	-0.095295	0.125838
155	15.619049	0.009094	-9.417600	0.941760	0.235440	0.628358	-0.326866	0.845000	-0.152716	-0.097738	0.129503
156	15.628174	0.009125	-9.417600	1.059480	0.588600	0.628358	-0.332836	0.840000	-0.162490	-0.103847	0.103847
157	15.637299	0.009125	-9.417600	0.941760	0.706320	0.629851	-0.331343	0.840000	-0.151495	-0.105069	0.090408
158	15.646393	0.009094	-9.653040	0.941760	0.470880	0.626866	-0.331343	0.841667	-0.133169	-0.101404	0.083078
159	15.655518	0.009125	-9.653040	1.059480	0.706320	0.629851	-0.334328	0.838333	-0.112399	-0.092852	0.070860
160	15.664612	0.009094	-9.535320	1.059480	0.470880	0.629851	-0.335821	0.836667	-0.089186	-0.090408	0.045204
161	15.673737	0.009125	-9.653040	0.941760	0.353160	0.626866	-0.334328	0.838333	-0.079412	-0.092852	0.035430
162	15.682861	0.009125	-9.417600	0.824040	0.353160	0.629851	-0.332836	0.836667	-0.075747	-0.095295	0.015882
163	15.691986	0.009125	-9.653040	0.941760	0.235440	0.629851	-0.331343	0.835000	-0.087965	-0.108734	-0.009774
164	15.701080	0.009094	-9.417600	1.059480	0.353160	0.631343	-0.334328	0.833333	-0.105069	-0.117286	-0.015882
165	15.710205	0.009125	-9.417600	1.059480	0.353160	0.629851	-0.332836	0.831667	-0.100182	-0.120951	-0.025656
166	15.719299	0.009094	-9.653040	0.941760	0.470880	0.632836	-0.337313	0.831667	-0.080634	-0.135612	-0.053756
167	15.728424	0.009125	-9.535320	0.941760	0.470880	0.632836	-0.334328	0.831667	-0.092852	-0.155160	-0.064752
168	15.737549	0.009125	-9.417600	1.059480	0.235440	0.629851	-0.346269	0.823333	-0.091630	-0.153938	-0.081856
169	15.746643	0.009094	-9.417600	0.824040	0.117720	0.632836	-0.334328	0.831667	-0.078191	-0.178373	-0.107512
170	15.755768	0.009125	-9.182160	0.824040	0.117720	0.632836	-0.332836	0.830000	-0.078191	-0.189368	-0.107512
171	15.764893	0.009125	-9.299880	0.824040	0.353160	0.632836	-0.328358	0.825000	-0.076969	-0.215025	-0.130725
172	15.774200	0.009308	-9.299880	0.824040	0.353160	0.632836	-0.326866	0.821667	-0.101404	-0.234572	-0.153938
173	15.783112	0.008911	-9.417600	0.824040	0.470880	0.637313	-0.328358	0.820000	-0.090408	-0.250455	-0.169821
174	15.792206	0.009094	-9.535320	0.941760	0.470880	0.637313	-0.329851	0.818333	-0.073304	-0.267559	-0.197920
175	15.801331	0.009125	-9.417600	0.824040	0.824040	0.637313	-0.323881	0.820000	-0.050091	-0.285885	-0.201586
176	15.810425	0.009094	-9.653040	1.059480	0.470880	0.637313	-0.323881	0.813333	-0.041539	-0.283441	-0.222355
177	15.819550	0.009125	-9.535320	0.824040	0.588600	0.637313	-0.322388	0.810000	-0.051313	-0.291994	-0.239459
178	15.828674	0.009125	-9.417600	0.824040	0.824040	0.638806	-0.319403	0.806667	-0.073304	-0.321315	-0.274889
179	15.837769	0.009094	-9.417600	0.941760	1.059480	0.641791	-0.317910	0.805000	-0.053756	-0.337198	-0.293215
180	15.846893	0.009125	-9.417600	1.059480	1.177200	0.641791	-0.314925	0.801667	-0.043982	-0.324980	-0.320093
181	15.856018	0.009125	-9.653040	1.059480	1.648080	0.644776	-0.313433	0.803333	-0.025656	-0.322537	-0.346971
182	15.865112	0.009094	-9.653040	1.059480	1.648080	0.644776	-0.311940	0.798333	-0.013439	-0.315206	-0.381180
183	15.874237	0.009125	-9.770760	1.059480	1.765800	0.644776	-0.308955	0.793333	-0.041539	-0.309098	-0.422719
184	15.883331	0.009094	-9.653040	0.941760	1.883520	0.646269	-0.304478	0.791667	-0.017104	-0.295659	-0.453262
185	15.897003	0.013672	-9.535320	0.353160	1.883520	0.649254	-0.298507	0.786667	-0.026878	-0.262672	-0.496023
186	15.906128	0.009125	-9.535320	0.235440	2.001240	0.647761	-0.304478	0.783333	-0.004887	-0.235794	-0.509462
187	15.915253	0.009125	-9.653040	-0.470880	2.001240	0.650746	-0.295522	0.783333	0.014661	-0.211359	-0.509462
188	15.924347	0.009094	-9.535320	-0.706320	2.001240	0.650746	-0.289552	0.783333	0.009774	-0.167377	-0.486249
189	15.934174	0.009827	-9.417600	-1.294920	2.001240	0.653731	-0.289552	0.780000	0.029322	-0.131947	-0.456927
190	15.942596	0.008423	-9.182160	-1.412640	2.001240	0.652239	-0.279104	0.780000	0.046426	-0.127060	-0.432493
191	15.951691	0.009094	-9.182160	-1.294920	2.118960	0.655224	-0.277612	0.781667	0.045204	-0.134390	-0.419054
192	15.960815	0.009125	-9.182160	-1.765800	2.001240	0.656716	-0.276119	0.776667	0.036652	-0.127060	-0.381180
193	15.969940	0.009125	-9.182160	-1.883520	2.001240	0.656716	-0.270149	0.775000	-0.007330	-0.125838	-0.367741
194	15.979065	0.009125	-9.182160	-2.236680	2.001240	0.658209	-0.271642	0.776667	-0.002443	-0.090408	-0.306654
195	15.988190	0.009125	-9.299880	-2.236680	1.765800	0.656716	-0.267164	0.773333	0.000000	-0.070860	-0.271224
196	15.997284	0.009094	-9.182160	-2.236680	1.530360	0.658209	-0.267164	0.775000	0.004887	-0.081856	-0.248011
197	16.006409	0.009125	-9.182160	-2.354400	1.648080	0.658209	-0.262687	0.773333	-0.019548	-0.101404	-0.213803
198	16.015503	0.009094	-9.299880	-2.118960	1.648080	0.656716	-0.261194	0.770000	-0.037874	-0.119730	-0.185703
199	16.024628	0.009125	-9.299880	-2.001240	1.412640	0.656716	-0.259701	0.771667	-0.079412	-0.157603	-0.149051
200	16.033752	0.009125	-9.417600	-2.001240	1.530360	0.662687	-0.259701	0.773333	-0.096517	-0.161268	-0.124617
201	16.042847	0.009094	-9.299880	-1.883520	1.765800	0.661194	-0.259701	0.770000	-0.111177	-0.149051	-0.108734
202	16.051971	0.009125	-9.182160	-2.118960	1.765800	0.661194	-0.258209	0.770000	-0.117286	-0.146608	-0.084299
203	16.061066	0.009094	-9.182160	-2.001240	1.883520	0.662687	-0.261194	0.768333	-0.120951	-0.145386	-0.069639
204	16.070190	0.009125	-9.064440	-1.765800	2.001240	0.659701	-0.256716	0.765000	-0.091630	-0.145386	-0.052534
205	16.079315	0.009125	-9.417600	-1.412640	2.001240	0.659701	-0.268657	0.760000	-0.079412	-0.136834	-0.041539
206	16.088440	0.009125	-9.417600	-1.412640	2.001240	0.659701	-0.252239	0.760000	-0.059865	-0.109956	-0.042761
207	16.097534	0.009094	-9.299880	-1.294920	1.883520	0.662687	-0.259701	0.763333	-0.051313	-0.095295	-0.039095
208	16.106659	0.009125	-9.417600	-1.294920	1.883520	0.659701	-0.252239	0.760000	-0.054978	-0.080634	-0.029322
209	16.115784	0.009125	-9.417600	-1.412640	1.883520	0.662687	-0.253731	0.760000	-0.096517	-0.074526	-0.032987
210	16.124878	0.009094	-9.417600	-1.648080	1.883520	0.662687	-0.253731	0.760000	-0.078191	-0.083078	-0.009774
211	16.134003	0.009125	-9.182160	-1.530360	1.765800	0.662687	-0.252239	0.760000	-0.040317	-0.076969	-0.026878
212	16.143127	0.009125	-9.299880	-1.648080	1.883520	0.662687	-0.252239	0.760000	-0.031765	-0.078191	-0.019548
213	16.152222	0.009094	-9.299880	-1.883520	2.001240	0.661194	-0.252239	0.756667	-0.046426	-0.089186	-0.007330
214	16.161346	0.009125	-9.417600	-1.883520	1.883520	0.662687	-0.252239	0.755000	-0.074526	-0.085521	0.019548
215	16.170471	0.009125	-9.417600	-1.883520	2.001240	0.661194	-0.250746	0.756667	-0.079412	-0.061087	0.024435
216	16.179596	0.009125	-9.299880	-1.883520	2.001240	0.662687	-0.249254	0.758333	-0.096517	-0.067195	0.041539
217	16.188690	0.009094	-9.182160	-1.765800	2.001240	0.664179	-0.255224	0.755000	-0.086743	-0.061087	0.050091
218	16.197815	0.009125	-9.182160	-1.765800	2.001240	0.661194	-0.252239	0.755000	-0.095295	-0.058643	0.063530
219	16.206940	0.009125	-9.299880	-1.648080	2.001240	0.661194	-0.250746	0.755000	-0.073304	-0.051313	0.065973
220	16.216034	0.009094	-9.299880	-1.412640	2.001240	0.662687	-0.252239	0.755000	-0.064752	-0.053756	0.063530
221	16.225159	0.009125	-9.417600	-1.412640	2.001240	0.662687	-0.255224	0.753333	-0.056200	-0.036652	0.063530
222	16.234253	0.009094	-9.417600	-1.294920	2.001240	0.661194	-0.256716	0.753333	-0.056200	-0.041539	0.063530
223	16.243378	0.009125	-9.299880	-1.412640	2.001240	0.664179	-0.268657	0.746667	-0.057421	-0.045204	0.058643
224	16.252502	0.009125	-9.182160	-1.177200	2.001240	0.661194	-0.253731	0.753333	-0.061087	-0.040317	0.054978
225	16.261597	0.009094	-9.299880	-1.294920	2.001240	0.659701	-0.255224	0.753333	-0.047647	-0.045204	0.052534
226	16.270721	0.009125	-9.299880	-1.294920	2.001240	0.662687	-0.252239	0.753333	-0.054978	-0.039095	0.046426
227	16.279846	0.009125	-9.299880	-1.294920	2.001240	0.664179	-0.258209	0.753333	-0.062308	-0.023213	0.053756
228	16.288940	0.009094	-9.182160	-1.294920	2.001240	0.664179	-0.258209	0.751667	-0.053756	-0.021991	0.048869
229	16.298065	0.009125	-9.182160	-1.412640	2.001240	0.661194	-0.252239	0.751667	-0.047647	-0.020769	0.045204
230	16.307159	0.009094	-9.299880	-1.294920	2.001240	0.662687	-0.258209	0.753333	-0.042761	-0.034208	0.043982
231	16.316284	0.009125	-9.299880	-1.412640	2.001240	0.664179	-0.256716	0.753333	-0.040317	-0.040317	0.037874
232	16.325409	0.009125	-9.182160	-1.177200	2.001240	0.664179	-0.256716	0.750000	-0.035430	-0.021991	0.036652
233	16.334503	0.009094	-9.182160	-1.294920	1.883520	0.661194	-0.258209	0.751667	-0.039095	-0.021991	0.039095
234	16.343628	0.009125	-9.182160	-1.294920	2.001240	0.662687	-0.255224	0.750000	-0.047647	-0.025656	0.034208
235	16.352722	0.009094	-9.299880	-1.294920	2.001240	0.661194	-0.256716	0.751667	-0.039095	-0.024435	0.024435
236	16.361847	0.009125	-9.535320	-1.177200	2.001240	0.664179	-0.256716	0.751667	-0.037874	-0.017104	0.025656
237	16.370941	0.009094	-9.417600	-1.294920	2.001240	0.661194	-0.256716	0.750000	-0.045204	-0.013439	0.024435
238	16.380066	0.009125	-9.417600	-1.294920	2.001240	0.662687	-0.255224	0.748333	-0.052534	-0.023213	0.014661
239	16.389191	0.009125	-9.417600	-1.294920	2.001240	0.662687	-0.255224	0.753333	-0.039095	-0.025656	0.018326
240	16.398285	0.009094	-9.182160	-1.294920	2.001240	0.662687	-0.256716	0.751667	-0.047647	-0.028100	0.008552
241	16.407410	0.009125	-9.182160	-1.412640	2.001240	0.661194	-0.256716	0.750000	-0.048869	-0.036652	0.014661
242	16.416504	0.009094	-9.417600	-1.530360	2.001240	0.664179	-0.279104	0.745000	-0.057421	-0.032987	0.017104
243	16.425629	0.009125	-9.417600	-1.530360	2.001240	0.664179	-0.256716	0.751667	-0.052534	-0.023213	0.015882
244	16.434753	0.009125	-9.417600	-1.294920	2.001240	0.662687	-0.256716	0.748333	-0.041539	-0.029322	0.015882
245	16.443848	0.009094	-9.299880	-1.177200	1.883520	0.662687	-0.255224	0.748333	-0.035430	-0.017104	0.019548
246	16.452972	0.009125	-9.182160	-1.530360	1.883520	0.662687	-0.255224	0.750000	-0.035430	-0.017104	0.010996
247	16.462097	0.009125	-9.299880	-1.412640	1.883520	0.664179	-0.256716	0.746667	-0.048869	-0.026878	0.014661
248	16.471191	0.009094	-9.182160	-1.530360	2.001240	0.662687	-0.256716	0.748333	-0.045204	-0.014661	0.015882
249	16.480316	0.009125	-9.299880	-1.412640	2.118960	0.662687	-0.256716	0.748333	-0.039095	-0.020769	0.014661
250	16.489410	0.009094	-9.182160	-1.648080	1.883520	0.662687	-0.255224	0.748333	-0.036652	-0.012217	0.018326
251	16.498535	0.009125	-9.417600	-1.412640	2.001240	0.664179	-0.255224	0.748333	-0.039095	-0.006109	0.017104
252	16.507660	0.009125	-9.417600	-1.412640	2.001240	0.664179	-0.255224	0.751667	-0.042761	-0.015882	0.014661
253	16.516754	0.009094	-9.299880	-1.412640	2.001240	0.662687	-0.258209	0.745000	-0.031765	-0.009774	0.010996
254	16.525879	0.009125	-9.299880	-1.059480	2.118960	0.661194	-0.256716	0.748333	-0.039095	-0.006109	0.003665
255	16.535004	0.009125	-9.299880	-1.294920	2.001240	0.662687	-0.255224	0.748333	-0.043982	-0.012217	0.006109
256	16.544098	0.009094	-9.299880	-1.294920	2.118960	0.664179	-0.258209	0.746667	-0.040317	-0.002443	0.002443
257	16.553223	0.009125	-9.299880	-1.294920	2.001240	0.664179	-0.255224	0.748333	-0.041539	-0.009774	-0.006109
258	16.562347	0.009125	-9.064440	-1.648080	2.001240	0.662687	-0.253731	0.748333	-0.037874	-0.012217	0.002443
259	16.571442	0.009094	-9.299880	-1.648080	2.001240	0.661194	-0.252239	0.748333	-0.035430	-0.002443	0.002443
260	16.580566	0.009125	-9.182160	-1.294920	2.001240	0.659701	-0.274627	0.750000	-0.032987	0.006109	0.008552
261	16.589691	0.009125	-9.182160	-1.530360	2.001240	0.664179	-0.267164	0.745000	-0.050091	-0.007330	0.013439
262	16.598785	0.009094	-9.299880	-1.530360	2.001240	0.664179	-0.255224	0.746667	-0.045204	0.002443	0.023213
263	16.607910	0.009125	-9.299880	-1.412640	1.883520	0.662687	-0.252239	0.746667	-0.047647	0.001222	0.014661
264	16.617035	0.009125	-9.182160	-1.530360	1.883520	0.664179	-0.258209	0.750000	-0.040317	-0.004887	0.013439
265	16.626129	0.009094	-9.182160	-1.294920	1.883520	0.664179	-0.255224	0.748333	-0.042761	-0.008552	0.008552
266	16.635254	0.009125	-9.182160	-1.294920	1.765800	0.661194	-0.253731	0.751667	-0.047647	0.000000	0.014661
267	16.644379	0.009125	-9.299880	-1.059480	1.883520	0.659701	-0.250746	0.750000	-0.040317	0.003665	0.013439
268	16.654053	0.009674	-9.299880	-1.412640	2.001240	0.661194	-0.253731	0.750000	-0.043982	0.006109	0.017104
269	16.662598	0.008545	-9.299880	-1.530360	2.001240	0.661194	-0.258209	0.748333	-0.040317	0.012217	0.015882
270	16.671722	0.009125	-9.299880	-1.530360	2.118960	0.659701	-0.258209	0.751667	-0.045204	0.000000	0.015882
271	16.680817	0.009094	-9.182160	-1.412640	2.118960	0.661194	-0.256716	0.751667	-0.035430	0.012217	0.019548
272	16.689941	0.009125	-9.182160	-1.294920	1.883520	0.664179	-0.258209	0.751667	-0.039095	0.008552	0.017104
273	16.699066	0.009125	-9.299880	-1.530360	1.883520	0.661194	-0.250746	0.750000	-0.045204	0.001222	0.020769
274	16.708160	0.009094	-9.182160	-1.648080	1.883520	0.662687	-0.256716	0.751667	-0.047647	0.013439	0.023213
275	16.717285	0.009125	-9.182160	-1.412640	2.001240	0.659701	-0.255224	0.750000	-0.064752	0.000000	0.030543
276	16.726410	0.009125	-9.182160	-1.530360	2.001240	0.664179	-0.256716	0.750000	-0.054978	0.008552	0.032987
277	16.735504	0.009094	-9.064440	-1.412640	2.001240	0.662687	-0.261194	0.753333	-0.042761	0.013439	0.037874
278	16.744629	0.009125	-9.299880	-1.177200	2.001240	0.664179	-0.262687	0.753333	-0.050091	0.009774	0.039095
279	16.753754	0.009125	-9.182160	-1.530360	2.001240	0.662687	-0.261194	0.751667	-0.057421	0.004887	0.040317
280	16.762848	0.009094	-9.299880	-1.412640	2.001240	0.661194	-0.259701	0.751667	-0.063530	0.010996	0.041539
281	16.771973	0.009125	-9.182160	-1.412640	1.883520	0.661194	-0.255224	0.751667	-0.052534	0.013439	0.042761
282	16.781097	0.009125	-9.299880	-1.412640	1.883520	0.662687	-0.255224	0.751667	-0.059865	0.013439	0.031765
283	16.790192	0.009094	-9.299880	-1.294920	2.118960	0.659701	-0.258209	0.753333	-0.061087	0.008552	0.025656
284	16.799316	0.009125	-9.417600	-1.059480	1.883520	0.661194	-0.256716	0.751667	-0.062308	0.015882	0.026878
285	16.808441	0.009125	-9.182160	-1.177200	1.883520	0.661194	-0.256716	0.753333	-0.062308	0.014661	0.024435
286	16.817535	0.009094	-9.182160	-1.177200	2.001240	0.661194	-0.262687	0.751667	-0.061087	0.009774	0.007330
287	16.826660	0.009125	-9.299880	-1.059480	2.001240	0.661194	-0.258209	0.751667	-0.056200	0.017104	0.004887
288	16.835785	0.009125	-9.299880	-1.177200	2.001240	0.661194	-0.258209	0.753333	-0.047647	0.017104	0.000000
289	16.844879	0.009094	-9.182160	-1.294920	2.001240	0.665672	-0.258209	0.753333	-0.056200	0.009774	-0.010996
290	16.854004	0.009125	-9.182160	-1.294920	2.001240	0.659701	-0.253731	0.753333	-0.057421	0.008552	-0.013439
291	16.863129	0.009125	-9.182160	-1.294920	1.883520	0.664179	-0.261194	0.753333	-0.052534	0.002443	-0.013439
292	16.872223	0.009094	-9.299880	-1.294920	2.118960	0.661194	-0.255224	0.753333	-0.059865	0.007330	-0.009774
293	16.881348	0.009125	-9.299880	-1.294920	2.001240	0.659701	-0.256716	0.753333	-0.056200	0.003665	-0.008552
294	16.890442	0.009094	-9.535320	-1.294920	2.118960	0.661194	-0.256716	0.753333	-0.047647	0.004887	-0.020769
295	16.899567	0.009125	-9.417600	-1.294920	2.236680	0.661194	-0.253731	0.753333	-0.047647	0.020769	-0.015882
296	16.908691	0.009125	-9.299880	-1.412640	2.001240	0.661194	-0.258209	0.755000	-0.036652	0.015882	-0.021991
297	16.917786	0.009094	-9.182160	-1.530360	2.001240	0.661194	-0.276119	0.748333	-0.043982	0.017104	-0.015882
298	16.926910	0.009125	-9.299880	-1.530360	1.883520	0.661194	-0.255224	0.755000	-0.043982	0.012217	-0.015882
299	16.936035	0.009125	-9.417600	-1.530360	1.883520	0.661194	-0.258209	0.755000	-0.036652	0.013439	-0.003665
300	16.945160	0.009125	-9.417600	-1.530360	1.883520	0.662687	-0.256716	0.755000	-0.040317	0.018326	-0.002443
301	16.954254	0.009094	-9.182160	-1.412640	1.765800	0.664179	-0.252239	0.756667	-0.036652	0.017104	0.003665
302	16.963379	0.009125	-9.417600	-1.765800	1.883520	0.662687	-0.258209	0.756667	-0.054978	0.004887	0.015882
303	16.972473	0.009094	-9.417600	-1.648080	1.883520	0.661194	-0.256716	0.755000	-0.063530	0.013439	0.009774
304	16.981598	0.009125	-9.417600	-1.648080	2.001240	0.662687	-0.262687	0.758333	-0.068417	0.007330	0.024435
305	16.990723	0.009125	-9.299880	-1.648080	2.001240	0.664179	-0.256716	0.755000	-0.054978	0.017104	0.034208
306	16.999847	0.009125	-9.417600	-1.648080	1.883520	0.664179	-0.256716	0.756667	-0.050091	0.018326	0.042761
307	17.008942	0.009094	-9.417600	-1.765800	1.883520	0.661194	-0.255224	0.755000	-0.062308	0.014661	0.050091
308	17.018066	0.009125	-9.299880	-1.294920	1.883520	0.661194	-0.252239	0.753333	-0.056200	0.012217	0.045204
309	17.027191	0.009125	-9.182160	-1.059480	1.883520	0.664179	-0.255224	0.758333	-0.047647	0.015882	0.039095
310	17.036316	0.009125	-9.299880	-1.059480	2.001240	0.662687	-0.258209	0.760000	-0.039095	0.009774	0.034208
311	17.045410	0.009094	-9.299880	-1.059480	2.001240	0.661194	-0.258209	0.756667	-0.029322	0.028100	0.028100
312	17.054535	0.009125	-9.535320	-1.177200	1.883520	0.664179	-0.262687	0.758333	-0.018326	0.026878	0.009774
313	17.063660	0.009125	-9.417600	-1.177200	1.883520	0.661194	-0.255224	0.755000	-0.021991	0.026878	0.004887
314	17.072754	0.009094	-9.299880	-1.177200	1.883520	0.664179	-0.256716	0.755000	-0.030543	0.026878	0.004887
315	17.081879	0.009125	-9.064440	-1.177200	2.001240	0.661194	-0.253731	0.758333	-0.035430	0.026878	0.000000
316	17.091003	0.009125	-9.182160	-1.412640	1.883520	0.661194	-0.267164	0.756667	-0.048869	0.025656	0.002443
317	17.100098	0.009094	-9.182160	-1.412640	1.883520	0.664179	-0.253731	0.758333	-0.061087	0.007330	0.003665
318	17.109222	0.009125	-9.299880	-1.648080	2.001240	0.661194	-0.255224	0.758333	-0.063530	0.008552	0.006109
319	17.118347	0.009125	-9.299880	-1.530360	2.001240	0.662687	-0.256716	0.758333	-0.056200	0.012217	0.006109
320	17.127472	0.009125	-9.299880	-1.412640	2.001240	0.664179	-0.256716	0.758333	-0.053756	0.010996	0.015882
321	17.136566	0.009094	-9.182160	-1.412640	2.001240	0.659701	-0.253731	0.756667	-0.035430	0.014661	0.002443
322	17.145691	0.009125	-9.299880	-1.294920	2.001240	0.659701	-0.255224	0.760000	-0.030543	0.023213	0.006109
323	17.154816	0.009125	-9.417600	-1.530360	2.001240	0.664179	-0.256716	0.760000	-0.020769	0.028100	0.000000
324	17.163910	0.009094	-9.299880	-1.530360	2.001240	0.662687	-0.256716	0.760000	-0.015882	0.028100	0.000000
325	17.173035	0.009125	-9.417600	-1.648080	2.001240	0.662687	-0.255224	0.760000	-0.017104	0.028100	-0.003665
326	17.182159	0.009125	-9.417600	-1.648080	1.883520	0.662687	-0.253731	0.760000	-0.029322	0.017104	0.000000
327	17.191284	0.009125	-9.417600	-1.530360	1.883520	0.661194	-0.256716	0.760000	-0.040317	0.029322	0.003665
328	17.200378	0.009094	-9.182160	-1.530360	1.883520	0.665672	-0.256716	0.760000	-0.029322	0.039095	0.012217
329	17.209503	0.009125	-9.182160	-1.530360	1.765800	0.661194	-0.253731	0.761667	-0.030543	0.030543	0.006109
330	17.218628	0.009125	-9.182160	-1.530360	1.883520	0.662687	-0.250746	0.763333	-0.039095	0.026878	0.008552
331	17.227753	0.009125	-9.299880	-1.294920	1.765800	0.659701	-0.253731	0.763333	-0.045204	0.024435	0.015882
332	17.236847	0.009094	-9.182160	-1.530360	1.883520	0.661194	-0.253731	0.761667	-0.043982	0.030543	0.024435
333	17.245972	0.009125	-9.299880	-1.412640	2.001240	0.661194	-0.255224	0.766667	-0.036652	0.034208	0.010996
334	17.255066	0.009094	-9.299880	-1.412640	2.001240	0.659701	-0.253731	0.765000	-0.046426	0.024435	0.014661
335	17.264191	0.009125	-9.417600	-1.294920	2.001240	0.661194	-0.270149	0.760000	-0.046426	0.025656	0.017104
336	17.273315	0.009125	-9.299880	-1.294920	2.001240	0.662687	-0.255224	0.763333	-0.052534	0.029322	0.017104
337	17.282440	0.009125	-9.535320	-1.294920	2.001240	0.662687	-0.255224	0.765000	-0.053756	0.024435	0.010996
338	17.291565	0.009125	-9.299880	-1.412640	2.001240	0.662687	-0.253731	0.763333	-0.052534	0.035430	0.013439
339	17.300659	0.009094	-9.417600	-1.294920	2.001240	0.661194	-0.252239	0.770000	-0.043982	0.028100	0.003665
340	17.309784	0.009125	-9.417600	-1.294920	1.883520	0.661194	-0.252239	0.765000	-0.037874	0.037874	0.008552
341	17.318909	0.009125	-9.299880	-1.294920	1.765800	0.661194	-0.255224	0.768333	-0.040317	0.024435	0.006109
342	17.328033	0.009125	-9.182160	-1.412640	1.883520	0.661194	-0.252239	0.766667	-0.037874	0.028100	0.009774
343	17.337158	0.009125	-9.417600	-1.648080	1.765800	0.662687	-0.252239	0.763333	-0.043982	0.025656	0.008552
344	17.346252	0.009094	-9.299880	-1.530360	1.883520	0.661194	-0.255224	0.766667	-0.043982	0.024435	0.013439
345	17.355377	0.009125	-9.064440	-1.530360	1.765800	0.661194	-0.253731	0.766667	-0.032987	0.030543	0.007330
346	17.364502	0.009125	-9.064440	-1.294920	1.883520	0.664179	-0.252239	0.770000	-0.040317	0.025656	0.013439
347	17.373962	0.009460	-9.182160	-1.412640	1.883520	0.659701	-0.249254	0.770000	-0.035430	0.029322	0.013439
348	17.382721	0.008759	-9.182160	-1.530360	1.765800	0.662687	-0.255224	0.770000	-0.036652	0.026878	0.008552
349	17.391846	0.009125	-9.417600	-1.530360	1.883520	0.658209	-0.252239	0.770000	-0.036652	0.020769	0.012217
350	17.400970	0.009125	-9.417600	-1.530360	1.883520	0.659701	-0.256716	0.770000	-0.030543	0.030543	0.012217
351	17.410095	0.009125	-9.299880	-1.294920	1.883520	0.661194	-0.252239	0.771667	-0.029322	0.025656	0.003665
352	17.419220	0.009125	-9.182160	-1.294920	1.765800	0.662687	-0.255224	0.770000	-0.029322	0.029322	0.002443
353	17.428314	0.009094	-9.417600	-1.177200	1.765800	0.659701	-0.267164	0.770000	-0.040317	0.010996	0.003665
354	17.437439	0.009125	-9.299880	-1.412640	1.883520	0.659701	-0.256716	0.770000	-0.042761	0.006109	0.001222
355	17.446564	0.009125	-9.299880	-1.412640	1.883520	0.659701	-0.250746	0.770000	-0.050091	0.013439	0.007330
356	17.455688	0.009125	-9.417600	-1.412640	2.001240	0.662687	-0.255224	0.770000	-0.057421	0.008552	0.006109
357	17.464783	0.009094	-9.535320	-1.530360	2.001240	0.659701	-0.253731	0.768333	-0.053756	0.010996	0.003665
358	17.473907	0.009125	-9.299880	-1.412640	2.001240	0.659701	-0.253731	0.771667	-0.059865	0.008552	0.009774
359	17.483032	0.009125	-9.417600	-1.294920	2.001240	0.662687	-0.253731	0.771667	-0.058643	0.017104	0.008552
360	17.492126	0.009094	-9.417600	-1.530360	2.001240	0.662687	-0.255224	0.773333	-0.052534	0.020769	0.008552
361	17.501251	0.009125	-9.299880	-1.648080	1.883520	0.662687	-0.255224	0.771667	-0.041539	0.024435	0.008552
362	17.510376	0.009125	-9.417600	-1.648080	1.883520	0.658209	-0.252239	0.775000	-0.026878	0.023213	0.000000
363	17.519501	0.009125	-9.299880	-1.530360	1.765800	0.661194	-0.255224	0.773333	-0.028100	0.023213	0.007330
364	17.528595	0.009094	-9.417600	-1.530360	1.765800	0.659701	-0.250746	0.775000	-0.025656	0.031765	0.002443
365	17.537720	0.009125	-9.182160	-1.530360	1.883520	0.659701	-0.252239	0.775000	-0.030543	0.023213	0.012217
366	17.546844	0.009125	-9.299880	-1.412640	1.765800	0.658209	-0.252239	0.773333	-0.035430	0.024435	0.004887
367	17.555939	0.009094	-9.299880	-1.648080	1.765800	0.659701	-0.253731	0.773333	-0.026878	0.029322	0.004887
368	17.565063	0.009125	-9.299880	-1.530360	1.765800	0.661194	-0.252239	0.775000	-0.028100	0.028100	0.017104
369	17.574188	0.009125	-9.299880	-1.530360	1.883520	0.659701	-0.252239	0.775000	-0.025656	0.026878	0.008552
370	17.583282	0.009094	-9.299880	-1.648080	1.765800	0.661194	-0.252239	0.773333	-0.036652	0.024435	0.012217
371	17.592407	0.009125	-9.182160	-1.530360	1.648080	0.661194	-0.253731	0.776667	-0.041539	0.020769	0.012217
372	17.601532	0.009125	-9.417600	-1.530360	1.765800	0.659701	-0.271642	0.773333	-0.036652	0.024435	0.013439
373	17.610657	0.009125	-9.299880	-1.530360	1.883520	0.658209	-0.252239	0.776667	-0.034208	0.021991	0.013439
374	17.619751	0.009094	-9.182160	-1.765800	1.765800	0.661194	-0.249254	0.776667	-0.029322	0.028100	0.015882
375	17.628876	0.009125	-9.417600	-1.412640	1.765800	0.659701	-0.252239	0.776667	-0.035430	0.031765	0.015882
376	17.638000	0.009125	-9.417600	-1.412640	1.648080	0.659701	-0.252239	0.773333	-0.043982	0.019548	0.014661
377	17.647095	0.009094	-9.417600	-1.530360	1.883520	0.659701	-0.252239	0.776667	-0.036652	0.017104	0.023213
378	17.656219	0.009125	-9.417600	-1.412640	1.765800	0.661194	-0.252239	0.780000	-0.042761	0.025656	0.018326
379	17.665344	0.009125	-9.417600	-1.412640	1.883520	0.656716	-0.253731	0.780000	-0.040317	0.019548	0.018326
380	17.674469	0.009125	-9.299880	-1.530360	1.883520	0.658209	-0.255224	0.776667	-0.042761	0.012217	0.019548
381	17.683563	0.009094	-9.299880	-1.648080	1.765800	0.662687	-0.253731	0.775000	-0.046426	0.021991	0.023213
382	17.692688	0.009125	-9.299880	-1.648080	1.883520	0.659701	-0.252239	0.775000	-0.042761	0.018326	0.024435
383	17.701813	0.009125	-9.064440	-1.648080	1.765800	0.658209	-0.259701	0.778333	-0.039095	0.017104	0.019548
384	17.710907	0.009094	-9.299880	-1.412640	1.883520	0.659701	-0.253731	0.780000	-0.036652	0.017104	0.024435
385	17.720032	0.009125	-9.417600	-1.412640	1.765800	0.659701	-0.253731	0.778333	-0.037874	0.020769	0.021991
386	17.729156	0.009125	-9.299880	-1.412640	1.883520	0.659701	-0.256716	0.780000	-0.045204	0.017104	0.025656
387	17.738251	0.009094	-9.417600	-1.412640	1.883520	0.656716	-0.253731	0.781667	-0.039095	0.017104	0.015882
388	17.747375	0.009125	-9.299880	-1.294920	2.001240	0.659701	-0.252239	0.783333	-0.041539	0.007330	0.021991
389	17.756500	0.009125	-9.064440	-1.412640	1.883520	0.659701	-0.252239	0.781667	-0.036652	0.015882	0.030543
390	17.765594	0.009094	-9.299880	-1.294920	1.648080	0.658209	-0.271642	0.776667	-0.046426	0.014661	0.028100
391	17.774719	0.009125	-9.417600	-1.648080	1.765800	0.658209	-0.253731	0.778333	-0.058643	0.003665	0.029322
392	17.783844	0.009125	-9.417600	-1.530360	1.765800	0.658209	-0.252239	0.780000	-0.047647	0.003665	0.020769
393	17.792969	0.009125	-9.299880	-1.177200	1.883520	0.659701	-0.253731	0.780000	-0.047647	0.010996	0.034208
394	17.802094	0.009125	-9.182160	-1.294920	1.883520	0.656716	-0.250746	0.781667	-0.051313	0.004887	0.030543
395	17.811188	0.009094	-9.182160	-1.412640	1.765800	0.656716	-0.258209	0.781667	-0.037874	-0.003665	0.023213
396	17.820312	0.009125	-9.299880	-1.530360	1.883520	0.661194	-0.255224	0.781667	-0.046426	-0.008552	0.021991
397	17.829437	0.009125	-9.182160	-1.294920	1.648080	0.659701	-0.256716	0.783333	-0.036652	0.003665	0.018326
398	17.838562	0.009125	-9.299880	-1.294920	1.765800	0.656716	-0.252239	0.783333	-0.043982	-0.002443	0.028100
399	17.847656	0.009094	-9.182160	-1.294920	1.765800	0.658209	-0.258209	0.783333	-0.053756	0.001222	0.028100
400	17.856781	0.009125	-9.299880	-1.294920	1.765800	0.659701	-0.255224	0.778333	-0.047647	0.000000	0.021991
401	17.865906	0.009125	-9.417600	-1.412640	1.883520	0.659701	-0.252239	0.783333	-0.040317	0.003665	0.032987
402	17.875000	0.009094	-9.417600	-1.530360	2.001240	0.661194	-0.250746	0.783333	-0.045204	-0.004887	0.020769
403	17.884125	0.009125	-9.299880	-1.412640	1.648080	0.655224	-0.253731	0.785000	-0.041539	0.010996	0.024435
404	17.893250	0.009125	-9.299880	-1.648080	1.883520	0.658209	-0.258209	0.781667	-0.036652	-0.003665	0.023213
405	17.902344	0.009094	-9.299880	-1.530360	1.648080	0.656716	-0.255224	0.783333	-0.039095	-0.006109	0.017104
406	17.911469	0.009125	-9.417600	-1.530360	1.765800	0.658209	-0.259701	0.783333	-0.053756	-0.012217	0.023213
407	17.920593	0.009125	-9.417600	-1.412640	1.648080	0.659701	-0.255224	0.781667	-0.043982	-0.007330	0.028100
408	17.929718	0.009125	-9.417600	-1.177200	1.648080	0.659701	-0.256716	0.783333	-0.043982	0.001222	0.025656
409	17.938812	0.009094	-9.417600	-1.530360	1.765800	0.659701	-0.267164	0.776667	-0.045204	-0.007330	0.014661
410	17.947937	0.009125	-9.417600	-1.530360	1.765800	0.658209	-0.259701	0.783333	-0.043982	-0.002443	0.026878
411	17.957031	0.009094	-9.417600	-1.412640	1.648080	0.659701	-0.255224	0.781667	-0.042761	0.000000	0.018326
412	17.966156	0.009125	-9.299880	-1.648080	1.883520	0.658209	-0.256716	0.783333	-0.054978	-0.012217	0.021991
413	17.975281	0.009125	-9.182160	-1.530360	1.883520	0.659701	-0.259701	0.783333	-0.051313	-0.006109	0.023213
414	17.984375	0.009094	-9.299880	-1.294920	1.765800	0.661194	-0.258209	0.785000	-0.052534	-0.009774	0.019548
415	17.993500	0.009125	-9.417600	-1.294920	1.765800	0.659701	-0.258209	0.785000	-0.050091	-0.017104	0.023213
416	18.002625	0.009125	-9.299880	-1.294920	1.765800	0.658209	-0.252239	0.780000	-0.048869	-0.009774	0.019548
417	18.011719	0.009094	-9.299880	-1.412640	1.883520	0.656716	-0.253731	0.780000	-0.057421	-0.009774	0.020769
418	18.020844	0.009125	-9.417600	-1.412640	1.883520	0.658209	-0.252239	0.780000	-0.051313	-0.012217	0.023213
419	18.029968	0.009125	-9.417600	-1.530360	1.765800	0.659701	-0.252239	0.783333	-0.053756	-0.015882	0.025656
420	18.039062	0.009094	-9.299880	-1.530360	1.648080	0.661194	-0.258209	0.783333	-0.046426	-0.012217	0.023213
421	18.048187	0.009125	-9.417600	-1.294920	1.648080	0.656716	-0.253731	0.783333	-0.047647	-0.019548	0.021991
422	18.057312	0.009125	-9.417600	-1.412640	1.648080	0.661194	-0.259701	0.781667	-0.059865	-0.019548	0.013439
423	18.066406	0.009094	-9.299880	-1.412640	1.765800	0.658209	-0.255224	0.781667	-0.056200	-0.014661	0.020769
424	18.075531	0.009125	-9.417600	-1.530360	1.883520	0.659701	-0.252239	0.778333	-0.059865	-0.025656	0.023213
425	18.084656	0.009125	-9.417600	-1.294920	1.765800	0.656716	-0.252239	0.783333	-0.063530	-0.014661	0.020769
426	18.093811	0.009155	-9.182160	-1.294920	1.883520	0.662687	-0.256716	0.781667	-0.059865	-0.014661	0.020769
427	18.102875	0.009064	-9.182160	-1.294920	1.765800	0.656716	-0.270149	0.778333	-0.057421	-0.020769	0.018326
428	18.112000	0.009125	-9.299880	-1.177200	1.883520	0.661194	-0.258209	0.781667	-0.050091	-0.008552	0.019548
429	18.121124	0.009125	-9.299880	-1.059480	1.765800	0.661194	-0.256716	0.783333	-0.059865	-0.012217	0.017104
430	18.130219	0.009094	-9.417600	-1.530360	1.765800	0.659701	-0.255224	0.781667	-0.042761	-0.014661	0.012217
431	18.139343	0.009125	-9.417600	-1.530360	1.765800	0.658209	-0.259701	0.781667	-0.050091	-0.014661	0.020769
432	18.148468	0.009125	-9.417600	-1.177200	1.648080	0.661194	-0.253731	0.780000	-0.054978	-0.020769	0.010996
433	18.157593	0.009125	-9.182160	-1.177200	1.765800	0.658209	-0.255224	0.783333	-0.050091	-0.009774	0.014661
434	18.166718	0.009125	-9.299880	-1.059480	1.765800	0.658209	-0.255224	0.780000	-0.061087	-0.012217	0.017104
435	18.175842	0.009125	-9.417600	-1.412640	1.765800	0.661194	-0.255224	0.780000	-0.053756	-0.018326	0.012217
436	18.184937	0.009094	-9.417600	-1.412640	1.883520	0.658209	-0.259701	0.783333	-0.054978	-0.017104	0.015882
437	18.194061	0.009125	-9.299880	-1.412640	1.765800	0.661194	-0.256716	0.780000	-0.050091	-0.013439	0.017104
438	18.203186	0.009125	-9.417600	-1.412640	1.765800	0.659701	-0.252239	0.778333	-0.061087	-0.020769	0.013439
439	18.212280	0.009094	-9.417600	-1.412640	1.883520	0.658209	-0.259701	0.781667	-0.050091	-0.015882	0.010996
440	18.221405	0.009125	-9.417600	-1.412640	1.648080	0.658209	-0.256716	0.781667	-0.051313	-0.024435	0.012217
441	18.230530	0.009125	-9.417600	-1.294920	1.765800	0.658209	-0.259701	0.781667	-0.051313	-0.014661	0.020769
442	18.239624	0.009094	-9.299880	-1.412640	1.765800	0.661194	-0.259701	0.778333	-0.048869	-0.019548	0.012217
443	18.248749	0.009125	-9.417600	-1.294920	1.765800	0.658209	-0.255224	0.778333	-0.054978	-0.021991	0.003665
444	18.257874	0.009125	-9.417600	-1.530360	1.883520	0.655224	-0.261194	0.780000	-0.051313	-0.017104	0.003665
445	18.266968	0.009094	-9.182160	-1.294920	1.765800	0.658209	-0.258209	0.780000	-0.056200	-0.014661	0.015882
446	18.276093	0.009125	-9.417600	-1.530360	1.883520	0.662687	-0.270149	0.775000	-0.064752	-0.017104	0.018326
447	18.285217	0.009125	-9.299880	-1.412640	1.883520	0.659701	-0.258209	0.781667	-0.048869	-0.012217	0.004887
448	18.294312	0.009094	-9.299880	-1.648080	1.883520	0.659701	-0.256716	0.781667	-0.059865	-0.017104	0.012217
449	18.303436	0.009125	-9.417600	-1.530360	1.883520	0.659701	-0.258209	0.780000	-0.047647	-0.013439	0.007330
450	18.312531	0.009094	-9.417600	-1.412640	2.001240	0.658209	-0.253731	0.780000	-0.047647	-0.012217	0.015882
451	18.321655	0.009125	-9.299880	-1.177200	1.883520	0.658209	-0.256716	0.778333	-0.052534	-0.014661	0.017104
452	18.330780	0.009125	-9.535320	-1.412640	1.648080	0.659701	-0.258209	0.780000	-0.053756	-0.019548	0.002443
453	18.339874	0.009094	-9.535320	-1.530360	1.765800	0.656716	-0.264179	0.780000	-0.057421	-0.014661	0.015882
454	18.348999	0.009125	-9.417600	-1.412640	1.648080	0.662687	-0.256716	0.781667	-0.061087	-0.007330	0.018326
455	18.358124	0.009125	-9.417600	-1.530360	1.883520	0.658209	-0.256716	0.778333	-0.048869	-0.015882	0.013439
456	18.367218	0.009094	-9.417600	-1.294920	1.765800	0.659701	-0.252239	0.778333	-0.062308	-0.018326	0.012217
457	18.376343	0.009125	-9.299880	-1.294920	1.883520	0.659701	-0.258209	0.778333	-0.053756	-0.010996	0.017104
458	18.385468	0.009125	-9.299880	-1.412640	1.883520	0.656716	-0.255224	0.780000	-0.053756	-0.010996	0.009774
459	18.394592	0.009125	-9.182160	-1.412640	1.765800	0.661194	-0.255224	0.778333	-0.039095	-0.010996	0.008552
460	18.403687	0.009094	-9.299880	-1.412640	1.883520	0.658209	-0.255224	0.781667	-0.046426	-0.019548	0.010996
461	18.413757	0.010071	-9.299880	-1.530360	1.883520	0.659701	-0.252239	0.776667	-0.042761	-0.013439	0.012217
462	18.421906	0.008148	-9.299880	-1.530360	1.883520	0.658209	-0.262687	0.775000	-0.034208	-0.014661	0.012217
463	18.431030	0.009125	-9.299880	-1.177200	1.765800	0.661194	-0.256716	0.778333	-0.051313	-0.013439	0.002443
464	18.440155	0.009125	-9.299880	-1.530360	1.883520	0.658209	-0.274627	0.775000	-0.057421	-0.009774	0.010996
465	18.449249	0.009094	-9.299880	-1.765800	1.765800	0.662687	-0.255224	0.776667	-0.043982	-0.004887	0.015882
466	18.458374	0.009125	-9.299880	-1.294920	1.883520	0.658209	-0.253731	0.778333	-0.046426	-0.004887	0.012217
467	18.467468	0.009094	-9.299880	-1.294920	2.001240	0.659701	-0.253731	0.780000	-0.047647	-0.012217	0.012217
468	18.476593	0.009125	-9.182160	-1.648080	1.530360	0.661194	-0.255224	0.776667	-0.045204	0.145386	0.004887
469	18.485718	0.009125	-9.299880	-1.294920	1.648080	0.658209	-0.253731	0.781667	-0.035430	-0.003665	0.014661
470	18.494812	0.009094	-9.299880	-1.530360	1.648080	0.658209	-0.256716	0.775000	-0.036652	-0.004887	0.006109
471	18.503937	0.009125	-9.299880	-1.294920	1.883520	0.659701	-0.256716	0.778333	-0.047647	-0.021991	0.014661
472	18.513031	0.009094	-9.182160	-1.530360	1.883520	0.659701	-0.253731	0.780000	-0.041539	-0.006109	0.015882
473	18.522156	0.009125	-9.299880	-1.530360	1.765800	0.659701	-0.256716	0.780000	-0.042761	-0.009774	0.013439
474	18.531281	0.009125	-9.182160	-1.530360	1.765800	0.659701	-0.253731	0.778333	-0.052534	-0.015882	0.013439
475	18.540375	0.009094	-9.299880	-1.412640	1.765800	0.661194	-0.256716	0.780000	-0.053756	-0.017104	0.010996
476	18.549500	0.009125	-9.417600	-1.412640	1.765800	0.661194	-0.252239	0.778333	-0.047647	-0.025656	0.012217
477	18.558624	0.009125	-9.417600	-1.412640	1.765800	0.661194	-0.255224	0.775000	-0.201586	-0.004887	0.014661
478	18.567719	0.009094	-9.299880	-1.294920	1.648080	0.661194	-0.253731	0.776667	-0.058643	-0.012217	0.008552
479	18.576813	0.009094	-9.417600	-1.177200	1.648080	0.658209	-0.256716	0.776667	-0.052534	-0.010996	0.015882
480	18.585938	0.009125	-9.182160	-1.294920	1.883520	0.658209	-0.255224	0.783333	-0.052534	-0.008552	-0.001222
481	18.595062	0.009125	-9.299880	-1.412640	1.648080	0.659701	-0.258209	0.781667	-0.048869	-0.014661	0.012217
482	18.604156	0.009094	-9.535320	-1.530360	1.765800	0.659701	-0.255224	0.781667	-0.047647	-0.009774	0.015882
483	18.613281	0.009125	-9.417600	-1.412640	1.883520	0.659701	-0.270149	0.775000	-0.043982	-0.006109	0.010996
484	18.622406	0.009125	-9.299880	-1.294920	1.765800	0.656716	-0.253731	0.776667	-0.051313	-0.017104	0.018326
485	18.631500	0.009094	-9.182160	-1.412640	1.883520	0.661194	-0.253731	0.778333	-0.043982	-0.003665	0.013439
486	18.640625	0.009125	-9.182160	-1.530360	1.883520	0.658209	-0.256716	0.778333	-0.050091	-0.007330	0.010996
487	18.649750	0.009125	-9.299880	-1.412640	2.001240	0.661194	-0.255224	0.778333	-0.050091	-0.015882	0.017104
488	18.658844	0.009094	-9.299880	-1.530360	1.883520	0.664179	-0.247761	0.776667	-0.048869	-0.003665	0.013439
489	18.667969	0.009125	-9.299880	-1.648080	1.765800	0.659701	-0.256716	0.778333	-0.054978	-0.008552	0.023213
490	18.677063	0.009094	-9.299880	-1.648080	1.648080	0.659701	-0.255224	0.780000	-0.051313	-0.012217	0.004887
491	18.686188	0.009125	-9.299880	-1.530360	1.765800	0.658209	-0.253731	0.778333	-0.043982	-0.003665	0.010996
492	18.695312	0.009125	-9.182160	-1.530360	1.765800	0.659701	-0.256716	0.780000	-0.050091	-0.015882	0.019548
493	18.704407	0.009094	-9.182160	-1.412640	1.765800	0.655224	-0.253731	0.778333	-0.035430	-0.008552	0.015882
494	18.713531	0.009125	-9.417600	-1.294920	1.883520	0.658209	-0.252239	0.781667	-0.052534	-0.001222	0.019548
495	18.722626	0.009094	-9.417600	-1.177200	1.883520	0.661194	-0.255224	0.776667	-0.045204	-0.004887	0.024435
496	18.731750	0.009125	-9.417600	-1.412640	1.883520	0.658209	-0.255224	0.776667	-0.037874	-0.007330	0.015882
497	18.740875	0.009125	-9.182160	-1.530360	1.765800	0.656716	-0.259701	0.776667	-0.051313	-0.012217	0.009774
498	18.750000	0.009125	-9.417600	-1.294920	1.883520	0.658209	-0.258209	0.780000	-0.057421	-0.021991	0.014661
499	18.759094	0.009094	-9.182160	-1.530360	1.765800	0.659701	-0.258209	0.775000	-0.053756	-0.013439	0.020769
500	18.768219	0.009125	-9.299880	-1.412640	1.765800	0.659701	-0.255224	0.775000	-0.056200	-0.010996	0.014661
501	18.777344	0.009125	-9.417600	-1.412640	2.001240	0.658209	-0.258209	0.780000	-0.053756	-0.009774	0.018326
502	18.786438	0.009094	-9.182160	-1.412640	1.883520	0.658209	-0.267164	0.775000	-0.058643	-0.017104	0.029322
503	18.795563	0.009125	-9.299880	-1.412640	1.765800	0.658209	-0.256716	0.776667	-0.047647	0.000000	0.017104
504	18.804688	0.009125	-9.299880	-1.530360	1.765800	0.659701	-0.255224	0.780000	-0.050091	-0.012217	0.018326
505	18.813812	0.009125	-9.299880	-1.294920	1.648080	0.655224	-0.258209	0.775000	-0.048869	-0.157603	0.017104
506	18.822906	0.009094	-9.299880	-1.530360	1.883520	0.659701	-0.255224	0.778333	-0.047647	-0.002443	0.017104
507	18.832031	0.009125	-9.299880	-1.530360	1.765800	0.659701	-0.253731	0.780000	-0.045204	-0.010996	0.019548
508	18.841125	0.009094	-9.299880	-1.412640	1.648080	0.662687	-0.253731	0.780000	-0.040317	0.000000	0.018326
509	18.850250	0.009125	-9.417600	-1.412640	1.765800	0.661194	-0.255224	0.775000	-0.051313	-0.006109	0.017104
510	18.859375	0.009125	-9.299880	-1.412640	1.648080	0.661194	-0.253731	0.781667	-0.048869	-0.019548	0.015882
511	18.868469	0.009094	-9.417600	-1.294920	1.765800	0.661194	-0.255224	0.778333	-0.053756	-0.001222	0.018326
512	18.877594	0.009125	-9.417600	-1.530360	1.765800	0.662687	-0.253731	0.776667	-0.046426	-0.013439	0.017104
513	18.886688	0.009094	-9.299880	-1.648080	1.883520	0.661194	-0.258209	0.778333	-0.050091	-0.008552	0.024435
514	18.895813	0.009125	-9.182160	-1.294920	1.765800	0.658209	-0.255224	0.780000	0.106291	-0.001222	0.018326
515	18.904907	0.009094	-9.182160	-1.530360	1.765800	0.659701	-0.256716	0.776667	-0.051313	-0.019548	0.020769
516	18.914032	0.009125	-9.299880	-1.530360	1.883520	0.661194	-0.253731	0.776667	-0.041539	-0.003665	0.020769
517	18.923126	0.009094	-9.299880	-1.530360	1.648080	0.661194	-0.255224	0.775000	-0.046426	-0.009774	0.018326
518	18.932251	0.009125	-9.299880	-1.412640	1.765800	0.659701	-0.253731	0.776667	-0.052534	-0.013439	0.021991
519	18.941345	0.009094	-9.417600	-1.294920	1.883520	0.661194	-0.253731	0.776667	-0.054978	-0.012217	0.008552
520	18.950470	0.009125	-9.417600	-1.412640	1.765800	0.656716	-0.268657	0.771667	-0.057421	-0.009774	0.025656
521	18.959564	0.009094	-9.182160	-1.648080	1.765800	0.661194	-0.252239	0.780000	-0.051313	-0.010996	0.017104
522	18.968689	0.009125	-9.182160	-1.294920	1.883520	0.656716	-0.256716	0.776667	-0.047647	-0.006109	0.015882
523	18.977814	0.009125	-9.064440	-1.530360	1.765800	0.662687	-0.252239	0.778333	-0.043982	-0.009774	0.015882
524	18.986908	0.009094	-9.417600	-1.530360	1.883520	0.658209	-0.256716	0.778333	-0.050091	-0.013439	0.008552
525	18.996033	0.009125	-9.417600	-1.412640	1.648080	0.658209	-0.258209	0.776667	-0.051313	-0.003665	0.021991
526	19.005127	0.009094	-9.299880	-1.294920	1.883520	0.661194	-0.255224	0.775000	-0.047647	-0.018326	0.020769
527	19.014252	0.009125	-9.182160	-1.412640	1.648080	0.661194	-0.256716	0.778333	-0.045204	-0.004887	0.015882
528	19.023346	0.009094	-9.417600	-1.530360	1.765800	0.659701	-0.255224	0.776667	-0.041539	-0.163712	0.021991
529	19.032471	0.009125	-9.299880	-1.294920	1.765800	0.659701	-0.256716	0.780000	-0.051313	-0.013439	0.021991
530	19.041595	0.009125	-9.299880	-1.412640	1.530360	0.661194	-0.258209	0.775000	-0.050091	-0.010996	0.015882
531	19.050690	0.009094	-9.299880	-1.294920	1.765800	0.658209	-0.255224	0.776667	-0.043982	-0.002443	0.024435
532	19.059784	0.009094	-9.299880	-1.648080	1.883520	0.658209	-0.253731	0.780000	-0.051313	-0.019548	0.014661
533	19.068909	0.009125	-9.182160	-1.412640	1.883520	0.659701	-0.256716	0.781667	-0.048869	-0.003665	0.031765
534	19.078033	0.009125	-9.299880	-1.177200	1.765800	0.659701	-0.258209	0.775000	-0.042761	-0.004887	0.018326
535	19.087128	0.009094	-9.299880	-1.412640	2.001240	0.659701	-0.253731	0.778333	-0.058643	-0.012217	0.015882
536	19.096252	0.009125	-9.299880	-1.412640	2.001240	0.658209	-0.255224	0.776667	-0.047647	-0.012217	0.026878
537	19.105377	0.009125	-9.535320	-1.294920	1.648080	0.661194	-0.253731	0.776667	-0.045204	-0.007330	0.019548
538	19.114471	0.009094	-9.417600	-1.294920	1.765800	0.659701	-0.256716	0.781667	-0.056200	-0.008552	0.024435
539	19.123596	0.009125	-9.299880	-1.412640	1.883520	0.662687	-0.268657	0.775000	-0.039095	-0.012217	0.020769
540	19.133636	0.010040	-9.299880	-1.530360	1.765800	0.661194	-0.252239	0.778333	-0.043982	-0.009774	0.010996
541	19.141815	0.008179	-9.417600	-1.412640	1.765800	0.658209	-0.253731	0.780000	-0.041539	-0.003665	0.019548
542	19.150909	0.009094	-9.299880	-1.294920	1.648080	0.662687	-0.253731	0.778333	-0.050091	-0.015882	0.014661
543	19.160034	0.009125	-9.417600	-1.530360	1.765800	0.659701	-0.253731	0.778333	-0.046426	-0.006109	0.019548
544	19.169128	0.009094	-9.299880	-1.412640	1.765800	0.659701	-0.256716	0.775000	-0.048869	-0.009774	0.013439
545	19.178253	0.009125	-9.182160	-1.412640	1.765800	0.659701	-0.255224	0.776667	-0.051313	-0.019548	0.015882
546	19.187347	0.009094	-9.299880	-1.412640	1.883520	0.659701	-0.256716	0.775000	-0.058643	-0.009774	0.018326
547	19.196472	0.009125	-9.299880	-1.412640	1.883520	0.659701	-0.258209	0.780000	-0.051313	-0.012217	0.025656
548	19.205597	0.009125	-9.182160	-1.412640	1.765800	0.659701	-0.256716	0.778333	-0.054978	-0.015882	0.010996
549	19.214691	0.009094	-9.299880	-1.412640	1.765800	0.662687	-0.256716	0.776667	-0.047647	-0.004887	0.012217
550	19.223816	0.009125	-9.417600	-1.530360	1.765800	0.658209	-0.261194	0.776667	-0.045204	-0.008552	0.018326
551	19.232910	0.009094	-9.299880	-1.294920	1.765800	0.659701	-0.255224	0.775000	-0.050091	-0.004887	0.021991
552	19.242035	0.009125	-9.182160	-1.412640	1.765800	0.659701	-0.252239	0.776667	-0.047647	-0.009774	0.012217
553	19.251129	0.009094	-9.299880	-1.530360	1.883520	0.659701	-0.255224	0.775000	-0.045204	-0.009774	0.014661
554	19.260254	0.009125	-9.182160	-1.177200	1.765800	0.658209	-0.256716	0.780000	-0.047647	-0.003665	0.013439
555	19.269379	0.009125	-9.299880	-1.412640	1.883520	0.659701	-0.256716	0.775000	-0.048869	-0.013439	0.018326
556	19.278473	0.009094	-9.299880	-1.294920	1.765800	0.658209	-0.259701	0.776667	-0.050091	-0.012217	0.017104
557	19.287598	0.009125	-9.182160	-1.412640	1.883520	0.661194	-0.265672	0.773333	-0.054978	-0.012217	0.013439
558	19.296692	0.009094	-9.299880	-1.412640	1.765800	0.658209	-0.262687	0.776667	-0.057421	-0.009774	0.020769
559	19.305817	0.009125	-9.417600	-1.294920	1.765800	0.659701	-0.256716	0.775000	-0.056200	-0.017104	0.010996
560	19.314911	0.009094	-9.417600	-1.412640	1.883520	0.661194	-0.253731	0.776667	-0.050091	-0.003665	0.023213
561	19.324036	0.009125	-9.299880	-1.530360	1.765800	0.659701	-0.253731	0.776667	-0.043982	-0.015882	0.013439
562	19.333130	0.009094	-9.417600	-1.294920	1.765800	0.659701	-0.256716	0.776667	-0.050091	0.000000	0.017104
563	19.342255	0.009125	-9.299880	-1.294920	1.530360	0.658209	-0.256716	0.776667	-0.040317	-0.003665	0.018326
564	19.351349	0.009094	-9.299880	-1.177200	1.765800	0.659701	-0.255224	0.780000	-0.042761	0.004887	0.019548
565	19.360474	0.009125	-9.182160	-1.177200	1.883520	0.662687	-0.255224	0.780000	-0.041539	-0.007330	0.018326
566	19.369568	0.009094	-9.299880	-1.412640	1.765800	0.659701	-0.258209	0.776667	-0.053756	-0.012217	0.026878
567	19.378693	0.009125	-9.299880	-1.177200	1.765800	0.659701	-0.255224	0.773333	-0.054978	-0.010996	0.013439
568	19.387817	0.009125	-9.299880	-1.177200	1.765800	0.659701	-0.255224	0.778333	-0.047647	-0.012217	0.019548
569	19.396912	0.009094	-9.417600	-1.412640	1.883520	0.661194	-0.256716	0.776667	-0.040317	-0.003665	0.018326
570	19.406036	0.009125	-9.299880	-1.412640	1.648080	0.658209	-0.255224	0.775000	-0.056200	-0.009774	0.014661
571	19.415161	0.009125	-9.417600	-1.177200	1.765800	0.658209	-0.256716	0.776667	-0.056200	-0.007330	0.020769
572	19.424255	0.009094	-9.299880	-1.530360	1.765800	0.658209	-0.259701	0.775000	-0.057421	-0.009774	0.023213
573	19.433380	0.009125	-9.299880	-1.412640	1.765800	0.659701	-0.256716	0.778333	-0.052534	-0.008552	0.023213
574	19.442505	0.009125	-9.182160	-1.648080	1.765800	0.658209	-0.259701	0.776667	-0.041539	-0.162490	0.015882
575	19.451599	0.009094	-9.417600	-1.294920	1.883520	0.656716	-0.258209	0.778333	-0.050091	-0.010996	0.013439
576	19.460724	0.009125	-9.299880	-1.177200	1.765800	0.661194	-0.279104	0.778333	-0.058643	-0.001222	0.018326
577	19.469849	0.009125	-9.182160	-1.294920	1.883520	0.659701	-0.262687	0.778333	-0.047647	-0.002443	0.024435
578	19.478943	0.009094	-9.299880	-1.530360	1.883520	0.658209	-0.256716	0.776667	-0.051313	-0.008552	0.017104
579	19.488068	0.009125	-9.182160	-1.294920	1.765800	0.658209	-0.258209	0.780000	-0.057421	-0.004887	0.014661
580	19.497192	0.009125	-9.417600	-1.294920	1.765800	0.659701	-0.259701	0.776667	-0.047647	-0.002443	0.021991
581	19.506317	0.009125	-9.299880	-1.294920	1.883520	0.658209	-0.259701	0.778333	-0.046426	0.000000	0.023213
582	19.515411	0.009094	-9.535320	-1.294920	1.765800	0.659701	-0.258209	0.776667	-0.052534	-0.010996	0.013439
583	19.524536	0.009125	-9.535320	-1.530360	1.765800	0.661194	-0.253731	0.778333	-0.051313	-0.009774	0.008552
584	19.533661	0.009125	-9.299880	-1.530360	1.883520	0.661194	-0.258209	0.780000	-0.056200	-0.007330	0.020769
585	19.542755	0.009094	-9.299880	-1.294920	1.765800	0.659701	-0.259701	0.776667	-0.052534	-0.001222	0.017104
586	19.551880	0.009125	-9.417600	-1.294920	1.765800	0.656716	-0.258209	0.775000	-0.054978	-0.010996	0.023213
587	19.561005	0.009125	-9.299880	-1.412640	1.648080	0.661194	-0.258209	0.775000	-0.039095	-0.004887	0.013439
588	19.570099	0.009094	-9.182160	-1.412640	1.883520	0.659701	-0.259701	0.776667	-0.042761	-0.162490	0.004887
589	19.579224	0.009125	-9.417600	-1.294920	1.765800	0.659701	-0.256716	0.780000	-0.058643	-0.019548	0.014661
590	19.588318	0.009094	-9.417600	-1.530360	1.765800	0.658209	-0.258209	0.778333	-0.041539	0.002443	0.015882
591	19.597443	0.009125	-9.417600	-1.294920	1.765800	0.659701	-0.255224	0.776667	-0.043982	-0.008552	0.012217
592	19.606567	0.009125	-9.299880	-1.294920	1.883520	0.659701	-0.258209	0.776667	-0.043982	-0.002443	0.014661
593	19.615662	0.009094	-9.417600	-1.177200	1.883520	0.658209	-0.264179	0.773333	-0.052534	-0.002443	0.013439
594	19.624786	0.009125	-9.417600	-1.412640	1.765800	0.656716	-0.267164	0.773333	-0.035430	-0.002443	0.008552
595	19.633881	0.009094	-9.299880	-1.177200	1.765800	0.655224	-0.259701	0.775000	-0.048869	-0.007330	0.018326
596	19.643005	0.009125	-9.299880	-1.294920	1.883520	0.661194	-0.256716	0.776667	-0.050091	-0.012217	0.004887
597	19.652130	0.009125	-9.182160	-1.648080	1.765800	0.661194	-0.255224	0.776667	-0.045204	-0.015882	0.013439
598	19.661255	0.009125	-9.299880	-1.412640	1.765800	0.659701	-0.256716	0.778333	-0.052534	-0.006109	0.017104
599	19.670349	0.009094	-9.417600	-1.530360	1.765800	0.661194	-0.258209	0.781667	-0.045204	0.001222	0.017104
600	19.679474	0.009125	-9.417600	-1.177200	1.883520	0.662687	-0.255224	0.780000	-0.037874	-0.009774	0.020769
601	19.688568	0.009094	-9.299880	-1.294920	1.883520	0.661194	-0.253731	0.780000	-0.050091	-0.002443	0.019548
602	19.697693	0.009125	-9.299880	-1.412640	1.765800	0.661194	-0.258209	0.778333	-0.051313	-0.013439	0.009774
603	19.706818	0.009125	-9.299880	-1.530360	1.883520	0.659701	-0.258209	0.776667	-0.054978	-0.013439	0.018326
604	19.715942	0.009125	-9.299880	-1.530360	1.765800	0.656716	-0.259701	0.775000	-0.047647	-0.010996	0.006109
605	19.725037	0.009094	-9.417600	-1.530360	1.883520	0.659701	-0.256716	0.780000	-0.042761	-0.001222	0.018326
606	19.734161	0.009125	-9.417600	-1.530360	1.765800	0.661194	-0.258209	0.776667	-0.045204	-0.008552	0.019548
607	19.743256	0.009094	-9.417600	-1.412640	1.883520	0.659701	-0.255224	0.781667	-0.052534	-0.018326	0.010996
608	19.752380	0.009125	-9.417600	-1.177200	1.883520	0.656716	-0.258209	0.778333	-0.051313	-0.002443	0.026878
609	19.761505	0.009125	-9.417600	-1.294920	1.765800	0.658209	-0.259701	0.775000	-0.051313	-0.015882	0.018326
610	19.770599	0.009094	-9.417600	-1.412640	1.765800	0.656716	-0.255224	0.776667	-0.054978	-0.010996	0.010996
611	19.779724	0.009125	-9.182160	-1.412640	1.765800	0.658209	-0.258209	0.776667	-0.040317	-0.010996	0.017104
612	19.788818	0.009094	-9.299880	-1.530360	1.765800	0.658209	-0.256716	0.778333	-0.045204	-0.008552	0.020769
613	19.797943	0.009125	-9.299880	-1.412640	1.883520	0.658209	-0.265672	0.771667	-0.048869	-0.003665	0.023213
614	19.807068	0.009125	-9.299880	-1.530360	1.883520	0.659701	-0.256716	0.778333	-0.046426	-0.014661	0.025656
615	19.816162	0.009094	-9.417600	-1.412640	1.883520	0.659701	-0.253731	0.780000	-0.051313	-0.006109	0.020769
616	19.825287	0.009125	-9.417600	-1.648080	1.648080	0.658209	-0.259701	0.776667	-0.056200	-0.018326	0.013439
617	19.834412	0.009125	-9.299880	-1.177200	1.765800	0.659701	-0.255224	0.776667	-0.042761	-0.009774	0.014661
618	19.843506	0.009094	-9.299880	-1.294920	1.765800	0.658209	-0.256716	0.778333	-0.054978	-0.013439	0.015882
619	19.853516	0.010010	-9.182160	-1.412640	1.765800	0.661194	-0.256716	0.776667	-0.052534	0.000000	0.017104
620	19.861755	0.008240	-9.182160	-1.412640	1.883520	0.661194	-0.259701	0.776667	-0.046426	-0.018326	0.015882
621	19.870880	0.009125	-9.417600	-1.530360	1.648080	0.659701	-0.258209	0.778333	-0.046426	-0.002443	0.012217
622	19.879974	0.009094	-9.417600	-1.294920	1.648080	0.656716	-0.261194	0.775000	-0.051313	-0.009774	0.017104
623	19.889099	0.009125	-9.299880	-1.412640	1.765800	0.661194	-0.253731	0.776667	-0.045204	-0.001222	0.021991
624	19.898224	0.009125	-9.182160	-1.412640	1.765800	0.662687	-0.255224	0.781667	-0.041539	-0.001222	0.010996
625	19.907318	0.009094	-9.299880	-1.412640	1.883520	0.656716	-0.264179	0.775000	-0.054978	-0.012217	0.014661
626	19.916443	0.009125	-9.417600	-1.294920	1.883520	0.658209	-0.256716	0.775000	-0.052534	-0.012217	0.007330
627	19.925537	0.009094	-9.417600	-1.294920	1.883520	0.658209	-0.259701	0.776667	-0.053756	-0.014661	0.007330
628	19.934662	0.009125	-9.299880	-1.294920	1.883520	0.656716	-0.265672	0.776667	-0.059865	-0.014661	0.013439
629	19.943787	0.009125	-9.417600	-1.177200	1.765800	0.658209	-0.259701	0.778333	-0.052534	-0.009774	0.008552
630	19.952881	0.009094	-9.417600	-1.530360	1.883520	0.661194	-0.258209	0.776667	-0.048869	-0.018326	0.006109
631	19.962006	0.009125	-9.417600	-1.294920	1.883520	0.658209	-0.276119	0.775000	-0.050091	-0.017104	0.008552
632	19.971100	0.009094	-9.299880	-1.412640	1.765800	0.658209	-0.258209	0.776667	-0.047647	-0.004887	0.010996
633	19.980225	0.009125	-9.417600	-1.294920	1.648080	0.658209	-0.256716	0.778333	-0.048869	-0.002443	0.010996
634	19.989349	0.009125	-9.417600	-1.294920	1.883520	0.659701	-0.256716	0.776667	-0.058643	-0.010996	0.014661
635	19.998444	0.009094	-9.299880	-1.530360	1.765800	0.661194	-0.256716	0.778333	-0.042761	-0.003665	0.017104
636	20.007568	0.009125	-9.417600	-1.294920	1.883520	0.656716	-0.255224	0.776667	-0.046426	-0.007330	0.015882
637	20.016693	0.009125	-9.417600	-1.412640	1.765800	0.661194	-0.264179	0.778333	-0.043982	-0.007330	0.010996
638	20.025787	0.009094	-9.417600	-1.412640	1.883520	0.661194	-0.256716	0.773333	-0.053756	-0.007330	0.012217
639	20.034912	0.009125	-9.417600	-1.412640	1.883520	0.661194	-0.253731	0.776667	-0.053756	-0.013439	0.009774
640	20.044037	0.009125	-9.535320	-1.294920	1.765800	0.658209	-0.258209	0.775000	-0.054978	-0.015882	0.007330
641	20.053162	0.009125	-9.417600	-1.412640	1.765800	0.658209	-0.258209	0.775000	-0.052534	-0.007330	0.015882
642	20.062256	0.009094	-9.417600	-1.412640	1.883520	0.659701	-0.255224	0.781667	-0.046426	-0.002443	0.017104
643	20.071381	0.009125	-9.299880	-1.177200	1.765800	0.661194	-0.252239	0.780000	-0.043982	-0.010996	0.007330
644	20.080505	0.009125	-9.299880	-1.530360	1.765800	0.661194	-0.256716	0.776667	-0.047647	-0.023213	0.007330
645	20.089600	0.009094	-9.417600	-1.294920	1.883520	0.658209	-0.255224	0.778333	-0.052534	-0.004887	0.017104
646	20.098724	0.009125	-9.535320	-1.412640	1.883520	0.656716	-0.262687	0.775000	-0.040317	-0.004887	0.017104
647	20.107819	0.009094	-9.299880	-1.412640	1.883520	0.658209	-0.258209	0.773333	-0.050091	-0.009774	0.009774
648	20.116943	0.009125	-9.299880	-1.294920	1.765800	0.659701	-0.255224	0.776667	-0.047647	-0.002443	0.013439
649	20.126068	0.009125	-9.299880	-1.294920	1.765800	0.658209	-0.256716	0.776667	-0.050091	-0.002443	0.004887
650	20.135193	0.009125	-9.299880	-1.530360	1.765800	0.661194	-0.273134	0.775000	-0.053756	-0.012217	0.001222
651	20.144287	0.009094	-9.299880	-1.530360	1.765800	0.658209	-0.256716	0.776667	-0.052534	-0.014661	0.009774
652	20.153412	0.009125	-9.299880	-1.294920	1.883520	0.659701	-0.255224	0.775000	-0.045204	-0.004887	0.012217
653	20.162537	0.009125	-9.417600	-1.530360	1.765800	0.661194	-0.252239	0.776667	-0.052534	-0.003665	0.007330
654	20.171631	0.009094	-9.299880	-1.059480	1.765800	0.659701	-0.259701	0.775000	-0.046426	-0.002443	0.006109
655	20.180756	0.009125	-9.299880	-1.412640	1.883520	0.658209	-0.262687	0.775000	-0.050091	-0.015882	0.007330
656	20.189880	0.009125	-9.182160	-1.530360	1.765800	0.661194	-0.255224	0.778333	-0.050091	-0.002443	0.008552
657	20.199005	0.009125	-9.299880	-1.412640	1.765800	0.659701	-0.258209	0.776667	-0.045204	-0.001222	0.014661
658	20.208099	0.009094	-9.417600	-1.412640	1.883520	0.659701	-0.252239	0.776667	-0.048869	-0.013439	0.010996
659	20.217224	0.009125	-9.417600	-1.294920	1.883520	0.661194	-0.255224	0.780000	-0.051313	-0.012217	-0.001222
660	20.226349	0.009125	-9.299880	-1.530360	1.883520	0.661194	-0.255224	0.775000	-0.043982	-0.006109	0.002443
661	20.235443	0.009094	-9.417600	-1.530360	1.765800	0.659701	-0.256716	0.776667	-0.048869	-0.004887	0.007330
662	20.244568	0.009125	-9.417600	-1.412640	1.765800	0.659701	-0.255224	0.778333	-0.050091	-0.160047	0.002443
663	20.253693	0.009125	-9.299880	-1.294920	1.765800	0.659701	-0.250746	0.778333	-0.042761	-0.007330	0.009774
664	20.262787	0.009094	-9.417600	-1.412640	1.648080	0.661194	-0.256716	0.776667	-0.042761	0.004887	0.013439
665	20.271912	0.009125	-9.417600	-1.412640	1.883520	0.659701	-0.252239	0.778333	-0.050091	0.000000	0.017104
666	20.281006	0.009094	-9.417600	-1.530360	1.883520	0.661194	-0.258209	0.781667	-0.043982	0.000000	0.013439
667	20.290131	0.009125	-9.417600	-1.412640	1.765800	0.659701	-0.255224	0.780000	-0.036652	0.001222	0.009774
668	20.299255	0.009125	-9.417600	-1.177200	1.765800	0.662687	-0.256716	0.776667	-0.039095	0.000000	0.001222
669	20.308350	0.009094	-9.299880	-1.294920	1.883520	0.659701	-0.268657	0.771667	-0.051313	-0.006109	0.009774
670	20.317474	0.009125	-9.299880	-1.412640	1.765800	0.656716	-0.259701	0.775000	-0.047647	-0.001222	0.007330
671	20.326599	0.009125	-9.299880	-1.530360	1.765800	0.659701	-0.252239	0.775000	-0.202807	-0.001222	0.004887
672	20.335693	0.009094	-9.417600	-1.412640	1.765800	0.659701	-0.259701	0.780000	-0.047647	0.001222	0.013439
673	20.344818	0.009125	-9.299880	-1.294920	1.648080	0.656716	-0.255224	0.781667	-0.043982	0.004887	0.002443
674	20.353912	0.009094	-9.299880	-1.412640	1.883520	0.658209	-0.255224	0.775000	-0.050091	-0.004887	0.004887
675	20.363037	0.009125	-9.182160	-1.294920	1.883520	0.662687	-0.253731	0.778333	-0.039095	0.001222	0.006109
676	20.372162	0.009125	-9.299880	-1.294920	2.001240	0.659701	-0.253731	0.780000	-0.042761	0.009774	0.002443
677	20.381256	0.009094	-9.182160	-1.412640	1.883520	0.659701	-0.255224	0.778333	-0.042761	0.012217	0.010996
678	20.390381	0.009125	-9.299880	-1.294920	1.765800	0.658209	-0.253731	0.778333	-0.036652	0.009774	0.008552
679	20.399475	0.009094	-9.299880	-1.177200	1.765800	0.658209	-0.253731	0.780000	-0.048869	-0.003665	0.007330
680	20.408600	0.009125	-9.417600	-1.412640	1.883520	0.659701	-0.252239	0.780000	-0.043982	0.006109	0.003665
681	20.417725	0.009125	-9.299880	-1.530360	1.765800	0.659701	-0.249254	0.778333	-0.053756	0.002443	0.003665
682	20.426819	0.009094	-9.182160	-1.530360	1.765800	0.661194	-0.249254	0.780000	-0.047647	0.010996	0.018326
683	20.435944	0.009125	-9.182160	-1.530360	1.765800	0.658209	-0.255224	0.780000	-0.045204	0.002443	0.007330
684	20.445068	0.009125	-9.299880	-1.412640	1.765800	0.659701	-0.252239	0.781667	-0.052534	0.002443	0.006109
685	20.454163	0.009094	-9.299880	-1.294920	1.765800	0.661194	-0.250746	0.781667	-0.057421	0.004887	0.014661
686	20.463287	0.009125	-9.417600	-1.294920	1.765800	0.656716	-0.252239	0.781667	-0.056200	-0.001222	0.012217
687	20.472412	0.009125	-9.417600	-1.412640	1.883520	0.658209	-0.271642	0.773333	-0.052534	0.008552	0.018326
688	20.481506	0.009094	-9.417600	-1.177200	1.765800	0.661194	-0.253731	0.775000	-0.054978	0.000000	0.019548
689	20.490631	0.009125	-9.182160	-1.412640	1.883520	0.662687	-0.250746	0.781667	-0.046426	0.007330	0.013439
690	20.499725	0.009094	-9.182160	-1.412640	1.883520	0.659701	-0.258209	0.781667	-0.051313	0.010996	0.021991
691	20.508850	0.009125	-9.299880	-1.294920	1.765800	0.658209	-0.258209	0.783333	-0.048869	0.003665	0.017104
692	20.517944	0.009094	-9.299880	-1.530360	1.765800	0.659701	-0.255224	0.776667	-0.056200	0.000000	0.013439
693	20.527069	0.009125	-9.299880	-1.294920	1.765800	0.658209	-0.253731	0.778333	-0.057421	0.010996	0.014661
694	20.536194	0.009125	-9.299880	-1.412640	1.765800	0.659701	-0.255224	0.780000	-0.056200	0.017104	0.017104
695	20.545319	0.009125	-9.535320	-1.294920	1.765800	0.664179	-0.247761	0.781667	-0.064752	0.014661	0.012217
696	20.554413	0.009094	-9.299880	-1.294920	1.765800	0.661194	-0.250746	0.781667	-0.063530	0.009774	0.012217
697	20.563538	0.009125	-9.182160	-1.294920	1.765800	0.662687	-0.249254	0.780000	-0.048869	0.018326	0.012217
698	20.573395	0.009857	-9.182160	-1.412640	1.883520	0.656716	-0.259701	0.783333	-0.047647	0.020769	0.014661
699	20.581757	0.008362	-9.535320	-1.412640	1.883520	0.658209	-0.247761	0.783333	-0.050091	0.019548	0.014661
700	20.590881	0.009125	-9.299880	-1.294920	1.883520	0.659701	-0.253731	0.781667	-0.047647	0.017104	0.019548
701	20.599976	0.009094	-9.299880	-1.177200	1.883520	0.658209	-0.253731	0.783333	-0.056200	0.014661	0.013439
702	20.609100	0.009125	-9.299880	-1.412640	1.648080	0.658209	-0.256716	0.783333	-0.050091	0.017104	0.021991
703	20.618195	0.009094	-9.299880	-1.412640	1.765800	0.664179	-0.249254	0.781667	-0.051313	0.019548	0.020769
704	20.627319	0.009125	-9.299880	-1.294920	1.765800	0.661194	-0.252239	0.783333	-0.048869	0.019548	0.029322
705	20.636444	0.009125	-9.182160	-1.294920	1.765800	0.659701	-0.250746	0.785000	-0.047647	0.024435	0.031765
706	20.645569	0.009125	-9.299880	-1.412640	1.883520	0.656716	-0.273134	0.778333	-0.053756	0.018326	0.019548
707	20.654663	0.009094	-9.299880	-1.648080	1.765800	0.661194	-0.265672	0.785000	-0.045204	0.018326	0.017104
708	20.663788	0.009125	-9.182160	-1.412640	1.648080	0.659701	-0.253731	0.783333	0.107512	0.020769	0.019548
709	20.672913	0.009125	-9.182160	-1.530360	1.530360	0.656716	-0.253731	0.785000	-0.050091	0.018326	0.024435
710	20.682037	0.009125	-9.299880	-1.412640	1.648080	0.656716	-0.252239	0.783333	-0.043982	0.009774	0.019548
711	20.691132	0.009094	-9.299880	-1.412640	1.648080	0.656716	-0.253731	0.783333	-0.046426	0.007330	0.014661
712	20.700256	0.009125	-9.299880	-1.177200	1.648080	0.659701	-0.249254	0.786667	-0.043982	0.017104	0.020769
713	20.709381	0.009125	-9.299880	-1.294920	1.765800	0.655224	-0.256716	0.785000	-0.053756	0.009774	0.023213
714	20.718475	0.009094	-9.299880	-1.412640	1.765800	0.658209	-0.252239	0.785000	-0.041539	0.019548	0.023213
715	20.727600	0.009125	-9.299880	-1.530360	1.648080	0.661194	-0.252239	0.785000	-0.039095	0.014661	0.021991
716	20.736725	0.009125	-9.299880	-1.412640	1.648080	0.659701	-0.255224	0.785000	-0.059865	0.004887	0.013439
717	20.745819	0.009094	-9.299880	-1.530360	1.648080	0.659701	-0.253731	0.786667	-0.047647	0.002443	0.020769
718	20.754944	0.009125	-9.417600	-1.648080	1.648080	0.661194	-0.252239	0.785000	-0.050091	0.001222	0.024435
719	20.764069	0.009125	-9.417600	-1.412640	1.530360	0.659701	-0.256716	0.786667	-0.046426	0.004887	0.018326
720	20.773163	0.009094	-9.299880	-1.412640	1.648080	0.656716	-0.255224	0.785000	-0.047647	0.002443	0.020769
721	20.782288	0.009125	-9.299880	-1.412640	1.648080	0.661194	-0.249254	0.785000	-0.045204	0.008552	0.026878
722	20.791412	0.009125	-9.299880	-1.412640	1.648080	0.658209	-0.255224	0.786667	-0.045204	0.006109	0.018326
723	20.800537	0.009125	-9.417600	-1.412640	1.765800	0.661194	-0.252239	0.785000	-0.048869	0.006109	0.023213
724	20.809631	0.009094	-9.417600	-1.530360	1.765800	0.656716	-0.265672	0.783333	-0.046426	0.001222	0.018326
725	20.818756	0.009125	-9.299880	-1.412640	1.648080	0.658209	-0.259701	0.790000	-0.063530	0.000000	0.020769
726	20.827881	0.009125	-9.417600	-1.177200	1.648080	0.659701	-0.256716	0.786667	-0.042761	0.004887	0.017104
727	20.836975	0.009094	-9.299880	-1.294920	1.648080	0.658209	-0.255224	0.788333	-0.045204	-0.004887	0.020769
728	20.846100	0.009125	-9.182160	-1.412640	1.883520	0.661194	-0.250746	0.790000	-0.054978	0.003665	0.023213
729	20.855225	0.009125	-9.417600	-1.412640	1.648080	0.661194	-0.255224	0.785000	-0.052534	0.000000	0.018326
730	20.864319	0.009094	-9.299880	-1.294920	1.765800	0.656716	-0.255224	0.788333	-0.051313	0.000000	0.019548
731	20.873444	0.009125	-9.417600	-1.294920	1.648080	0.659701	-0.252239	0.788333	-0.045204	-0.001222	0.023213
732	20.882568	0.009125	-9.299880	-1.294920	1.648080	0.655224	-0.258209	0.786667	-0.047647	0.007330	0.029322
733	20.891663	0.009094	-9.299880	-1.177200	1.765800	0.658209	-0.256716	0.788333	-0.048869	-0.003665	0.013439
734	20.900787	0.009125	-9.299880	-1.177200	1.648080	0.655224	-0.258209	0.790000	-0.058643	-0.009774	0.015882
735	20.909912	0.009125	-9.417600	-1.294920	1.530360	0.656716	-0.258209	0.785000	-0.051313	-0.001222	0.028100
736	20.919006	0.009094	-9.299880	-1.412640	1.648080	0.661194	-0.252239	0.788333	-0.045204	0.001222	0.020769
737	20.928131	0.009125	-9.417600	-1.412640	1.765800	0.656716	-0.258209	0.786667	-0.039095	0.003665	0.018326
738	20.937256	0.009125	-9.535320	-1.530360	1.765800	0.659701	-0.252239	0.786667	-0.050091	-0.003665	0.020769
739	20.946350	0.009094	-9.417600	-1.412640	1.648080	0.656716	-0.253731	0.785000	-0.052534	0.000000	0.020769
740	20.955475	0.009125	-9.299880	-1.530360	1.883520	0.659701	-0.252239	0.788333	-0.050091	-0.006109	0.012217
741	20.964600	0.009125	-9.299880	-1.177200	1.765800	0.656716	-0.258209	0.786667	-0.043982	-0.014661	0.019548
742	20.973694	0.009094	-9.299880	-1.412640	1.765800	0.655224	-0.261194	0.790000	-0.056200	-0.007330	0.012217
743	20.982819	0.009125	-9.299880	-1.412640	1.648080	0.655224	-0.270149	0.785000	-0.050091	-0.009774	0.013439
744	20.991943	0.009125	-9.417600	-1.648080	1.765800	0.655224	-0.258209	0.788333	-0.046426	-0.001222	0.013439
745	21.001068	0.009125	-9.417600	-1.412640	1.530360	0.656716	-0.253731	0.786667	-0.040317	-0.001222	0.009774
746	21.010162	0.009094	-9.299880	-1.412640	1.530360	0.656716	-0.252239	0.788333	-0.047647	-0.009774	0.014661
747	21.019287	0.009125	-9.417600	-1.412640	1.765800	0.656716	-0.253731	0.788333	-0.054978	-0.008552	0.024435
748	21.028412	0.009125	-9.535320	-1.530360	1.648080	0.658209	-0.253731	0.786667	-0.064752	-0.002443	0.008552
749	21.037537	0.009125	-9.299880	-1.294920	1.530360	0.659701	-0.253731	0.790000	-0.050091	0.000000	0.018326
750	21.046661	0.009125	-9.182160	-1.412640	1.765800	0.658209	-0.255224	0.785000	-0.054978	-0.003665	0.014661
751	21.055786	0.009125	-9.299880	-1.177200	1.765800	0.656716	-0.258209	0.786667	-0.050091	-0.004887	0.020769
752	21.064911	0.009125	-9.299880	-1.412640	1.648080	0.653731	-0.256716	0.790000	-0.054978	-0.008552	0.020769
753	21.074005	0.009094	-9.299880	-1.412640	1.765800	0.656716	-0.255224	0.788333	-0.051313	-0.014661	0.019548
754	21.083130	0.009125	-9.299880	-1.412640	1.648080	0.656716	-0.258209	0.786667	-0.054978	-0.008552	0.019548
755	21.092224	0.009094	-9.417600	-1.530360	1.765800	0.659701	-0.252239	0.786667	-0.052534	-0.006109	0.023213
756	21.101349	0.009125	-9.417600	-1.294920	1.765800	0.655224	-0.258209	0.788333	-0.042761	-0.003665	0.025656
757	21.110443	0.009094	-9.299880	-1.412640	1.765800	0.658209	-0.258209	0.788333	-0.048869	-0.007330	0.014661
758	21.119568	0.009125	-9.064440	-1.412640	1.765800	0.658209	-0.256716	0.788333	-0.037874	-0.013439	0.012217
759	21.128693	0.009125	-9.299880	-1.412640	1.883520	0.655224	-0.256716	0.788333	-0.045204	-0.015882	0.013439
760	21.137787	0.009094	-9.299880	-1.294920	1.530360	0.661194	-0.255224	0.788333	-0.047647	-0.018326	0.018326
761	21.146912	0.009125	-9.417600	-1.412640	1.530360	0.658209	-0.270149	0.785000	-0.041539	-0.010996	0.017104
762	21.156006	0.009094	-9.299880	-1.412640	1.648080	0.656716	-0.255224	0.786667	-0.045204	-0.007330	0.017104
763	21.165131	0.009125	-9.182160	-1.530360	1.765800	0.661194	-0.250746	0.790000	-0.043982	-0.003665	0.017104
764	21.174255	0.009125	-9.299880	-1.530360	1.648080	0.658209	-0.252239	0.788333	-0.041539	-0.017104	0.014661
765	21.183380	0.009125	-9.417600	-1.412640	1.648080	0.659701	-0.253731	0.786667	-0.045204	-0.002443	0.019548
766	21.192474	0.009094	-9.417600	-1.530360	1.648080	0.653731	-0.258209	0.786667	-0.048869	-0.006109	0.009774
767	21.201599	0.009125	-9.417600	-1.294920	1.648080	0.656716	-0.256716	0.788333	-0.042761	-0.009774	0.021991
768	21.210724	0.009125	-9.417600	-1.530360	1.648080	0.656716	-0.255224	0.790000	-0.048869	-0.019548	0.013439
769	21.219818	0.009094	-9.299880	-1.177200	1.765800	0.656716	-0.256716	0.790000	-0.046426	-0.015882	0.018326
770	21.228943	0.009125	-9.299880	-1.530360	1.765800	0.656716	-0.256716	0.788333	-0.040317	-0.008552	0.023213
771	21.238037	0.009094	-9.417600	-1.294920	1.765800	0.656716	-0.255224	0.785000	-0.046426	-0.013439	0.020769
772	21.247162	0.009125	-9.417600	-1.412640	1.765800	0.658209	-0.258209	0.788333	-0.041539	-0.019548	0.015882
773	21.256256	0.009094	-9.417600	-1.648080	1.648080	0.656716	-0.255224	0.785000	-0.039095	-0.023213	0.010996
774	21.265381	0.009125	-9.535320	-1.294920	1.648080	0.656716	-0.256716	0.786667	-0.043982	-0.006109	0.012217
775	21.274506	0.009125	-9.299880	-1.412640	1.765800	0.655224	-0.259701	0.788333	-0.036652	-0.008552	0.014661
776	21.283600	0.009094	-9.299880	-1.530360	1.765800	0.659701	-0.255224	0.786667	-0.042761	-0.020769	0.008552
777	21.293274	0.009674	-9.299880	-1.530360	1.765800	0.658209	-0.255224	0.790000	-0.051313	-0.018326	0.012217
778	21.301819	0.008545	-9.299880	-1.648080	1.765800	0.655224	-0.256716	0.788333	-0.050091	-0.028100	0.008552
779	21.310944	0.009125	-9.299880	-1.412640	1.883520	0.656716	-0.255224	0.786667	-0.056200	-0.017104	0.019548
780	21.320068	0.009125	-9.182160	-1.412640	1.765800	0.653731	-0.264179	0.783333	-0.051313	-0.017104	0.010996
781	21.329163	0.009094	-9.299880	-1.530360	1.765800	0.658209	-0.255224	0.786667	-0.054978	-0.020769	0.012217
782	21.338287	0.009125	-9.064440	-1.648080	1.765800	0.656716	-0.256716	0.788333	-0.047647	-0.023213	0.003665
783	21.347382	0.009094	-9.299880	-1.530360	1.648080	0.658209	-0.258209	0.785000	-0.046426	-0.012217	0.021991
784	21.356506	0.009125	-9.299880	-1.412640	1.648080	0.658209	-0.255224	0.788333	-0.042761	-0.013439	0.013439
785	21.365601	0.009094	-9.417600	-1.294920	1.530360	0.656716	-0.256716	0.786667	-0.045204	-0.015882	0.013439
786	21.374725	0.009125	-9.417600	-1.294920	1.765800	0.655224	-0.256716	0.788333	-0.043982	-0.020769	0.003665
787	21.383820	0.009094	-9.417600	-1.530360	1.883520	0.656716	-0.258209	0.783333	-0.047647	-0.010996	0.013439
788	21.392944	0.009125	-9.417600	-1.294920	1.883520	0.656716	-0.253731	0.785000	-0.062308	-0.029322	0.020769
789	21.402039	0.009094	-9.299880	-1.530360	1.765800	0.656716	-0.253731	0.785000	-0.051313	-0.013439	0.017104
790	21.411163	0.009125	-9.299880	-1.530360	1.765800	0.658209	-0.255224	0.786667	-0.057421	-0.019548	0.019548
791	21.420258	0.009094	-9.417600	-1.530360	1.765800	0.655224	-0.256716	0.786667	-0.053756	-0.021991	0.017104
792	21.429382	0.009125	-9.417600	-1.412640	1.648080	0.656716	-0.253731	0.786667	-0.043982	-0.017104	0.020769
793	21.438477	0.009094	-9.417600	-1.294920	1.765800	0.658209	-0.255224	0.786667	-0.052534	-0.015882	0.020769
794	21.447601	0.009125	-9.299880	-1.412640	1.883520	0.658209	-0.256716	0.786667	-0.037874	-0.015882	0.020769
795	21.456726	0.009125	-9.417600	-1.412640	1.765800	0.659701	-0.256716	0.788333	-0.054978	-0.018326	0.018326
796	21.465820	0.009094	-9.299880	-1.294920	1.765800	0.656716	-0.255224	0.785000	-0.051313	-0.019548	0.013439
797	21.474945	0.009125	-9.299880	-1.294920	1.883520	0.656716	-0.256716	0.785000	-0.051313	-0.021991	0.014661
798	21.484039	0.009094	-9.299880	-1.412640	1.648080	0.655224	-0.267164	0.783333	-0.056200	-0.012217	0.014661
799	21.493164	0.009125	-9.299880	-1.294920	1.530360	0.656716	-0.255224	0.785000	-0.054978	-0.021991	0.021991
800	21.502258	0.009094	-9.417600	-1.294920	1.765800	0.655224	-0.256716	0.786667	-0.056200	-0.017104	0.023213
801	21.511383	0.009125	-9.417600	-1.412640	1.765800	0.656716	-0.259701	0.786667	-0.050091	-0.018326	0.020769
802	21.520508	0.009125	-9.299880	-1.412640	1.648080	0.658209	-0.255224	0.785000	-0.046426	-0.023213	0.018326
803	21.529602	0.009094	-9.299880	-1.294920	1.530360	0.658209	-0.256716	0.786667	-0.057421	-0.018326	0.020769
804	21.538727	0.009125	-9.182160	-1.530360	1.765800	0.658209	-0.265672	0.783333	-0.052534	-0.017104	0.021991
805	21.547852	0.009125	-9.417600	-1.412640	1.765800	0.659701	-0.252239	0.785000	-0.050091	-0.017104	0.017104
806	21.556976	0.009125	-9.299880	-1.530360	1.648080	0.658209	-0.253731	0.785000	-0.048869	-0.014661	0.023213
807	21.566071	0.009094	-9.299880	-1.412640	1.648080	0.658209	-0.255224	0.785000	-0.053756	-0.018326	0.018326
808	21.575195	0.009125	-9.299880	-1.412640	1.648080	0.658209	-0.259701	0.785000	-0.047647	-0.010996	0.023213
809	21.584320	0.009125	-9.417600	-1.294920	1.765800	0.658209	-0.255224	0.786667	-0.058643	-0.025656	0.020769
810	21.593414	0.009094	-9.535320	-1.412640	1.765800	0.658209	-0.258209	0.788333	-0.056200	-0.020769	0.026878
811	21.602539	0.009125	-9.535320	-1.530360	1.648080	0.656716	-0.256716	0.785000	-0.051313	-0.019548	0.028100
812	21.611664	0.009125	-9.417600	-1.530360	1.883520	0.656716	-0.255224	0.785000	-0.046426	-0.007330	0.021991
813	21.620758	0.009094	-9.417600	-1.530360	1.765800	0.658209	-0.261194	0.785000	-0.043982	-0.017104	0.021991
814	21.629883	0.009125	-9.299880	-1.059480	1.765800	0.658209	-0.255224	0.783333	-0.050091	-0.017104	0.024435
815	21.639008	0.009125	-9.417600	-1.294920	1.765800	0.659701	-0.253731	0.783333	-0.059865	-0.009774	0.023213
816	21.648132	0.009125	-9.299880	-1.294920	1.765800	0.658209	-0.253731	0.783333	-0.056200	-0.019548	0.021991
817	21.657257	0.009125	-9.417600	-1.294920	1.765800	0.653731	-0.274627	0.781667	-0.054978	-0.013439	0.029322
818	21.666351	0.009094	-9.417600	-1.294920	1.765800	0.658209	-0.256716	0.783333	-0.047647	-0.012217	0.023213
819	21.675476	0.009125	-9.299880	-1.412640	1.765800	0.658209	-0.256716	0.783333	-0.058643	-0.020769	0.025656
820	21.684601	0.009125	-9.417600	-1.294920	1.883520	0.658209	-0.256716	0.786667	-0.054978	-0.010996	0.024435
821	21.693695	0.009094	-9.417600	-1.412640	1.648080	0.661194	-0.255224	0.781667	-0.061087	-0.018326	0.029322
822	21.702820	0.009125	-9.299880	-1.530360	1.648080	0.656716	-0.255224	0.783333	-0.051313	-0.023213	0.024435
823	21.711945	0.009125	-9.299880	-1.412640	1.765800	0.656716	-0.256716	0.783333	-0.045204	-0.018326	0.029322
824	21.721069	0.009125	-9.299880	-1.412640	1.765800	0.656716	-0.256716	0.781667	-0.050091	-0.018326	0.014661
825	21.730164	0.009094	-9.299880	-1.412640	1.648080	0.658209	-0.256716	0.781667	-0.046426	-0.015882	0.017104
826	21.739288	0.009125	-9.299880	-1.177200	1.765800	0.661194	-0.258209	0.783333	-0.047647	-0.020769	0.004887
827	21.748413	0.009125	-9.299880	-1.294920	1.648080	0.658209	-0.258209	0.783333	-0.042761	-0.009774	0.014661
828	21.757507	0.009094	-9.299880	-1.177200	1.648080	0.659701	-0.256716	0.785000	-0.053756	-0.021991	0.009774
829	21.766632	0.009125	-9.535320	-1.412640	1.648080	0.658209	-0.256716	0.783333	-0.048869	-0.018326	0.018326
830	21.775757	0.009125	-9.653040	-1.294920	1.765800	0.655224	-0.259701	0.780000	-0.052534	-0.024435	0.006109
831	21.784851	0.009094	-9.417600	-1.530360	1.765800	0.655224	-0.258209	0.781667	-0.051313	-0.021991	0.006109
832	21.793976	0.009125	-9.417600	-1.648080	1.765800	0.658209	-0.258209	0.783333	-0.041539	-0.018326	0.008552
833	21.803101	0.009125	-9.299880	-1.530360	1.765800	0.658209	-0.256716	0.785000	-0.050091	-0.020769	0.000000
834	21.812195	0.009094	-9.299880	-1.412640	1.765800	0.659701	-0.255224	0.783333	-0.037874	-0.014661	0.010996
835	21.821320	0.009125	-9.299880	-1.412640	1.883520	0.656716	-0.255224	0.785000	-0.032987	-0.007330	0.003665
836	21.830414	0.009094	-9.417600	-1.177200	1.765800	0.655224	-0.262687	0.780000	-0.043982	-0.004887	-0.007330
837	21.839539	0.009125	-9.417600	-1.294920	1.648080	0.658209	-0.256716	0.783333	-0.045204	-0.014661	-0.001222
838	21.848663	0.009125	-9.417600	-1.294920	1.765800	0.658209	-0.256716	0.785000	-0.037874	-0.006109	-0.004887
839	21.857758	0.009094	-9.417600	-1.294920	1.883520	0.658209	-0.256716	0.788333	-0.040317	-0.010996	0.000000
840	21.866882	0.009125	-9.299880	-1.412640	1.765800	0.659701	-0.253731	0.781667	-0.034208	-0.002443	0.004887
841	21.876007	0.009125	-9.535320	-1.412640	1.765800	0.659701	-0.255224	0.783333	-0.032987	-0.004887	-0.009774
842	21.885101	0.009094	-9.417600	-1.177200	1.530360	0.659701	-0.255224	0.781667	-0.045204	-0.008552	-0.008552
843	21.894226	0.009125	-9.299880	-1.530360	1.765800	0.658209	-0.255224	0.783333	-0.039095	-0.010996	-0.001222
844	21.903351	0.009125	-9.299880	-1.412640	1.765800	0.658209	-0.253731	0.783333	-0.042761	-0.018326	-0.013439
845	21.912476	0.009125	-9.299880	-1.412640	1.883520	0.659701	-0.256716	0.781667	-0.035430	-0.014661	-0.002443
846	21.921570	0.009094	-9.299880	-1.294920	1.765800	0.658209	-0.253731	0.781667	-0.041539	-0.008552	0.004887
847	21.930695	0.009125	-9.299880	-1.412640	1.765800	0.659701	-0.255224	0.783333	-0.048869	-0.017104	-0.007330
848	21.939819	0.009125	-9.299880	-1.412640	1.883520	0.661194	-0.261194	0.781667	-0.043982	-0.004887	-0.007330
849	21.948914	0.009094	-9.417600	-1.648080	1.883520	0.659701	-0.253731	0.783333	-0.040317	-0.006109	0.006109
850	21.958038	0.009125	-9.417600	-1.530360	1.765800	0.661194	-0.250746	0.781667	-0.036652	-0.009774	0.000000
851	21.967163	0.009125	-9.417600	-1.765800	1.765800	0.658209	-0.256716	0.783333	-0.048869	-0.012217	0.003665
852	21.976288	0.009125	-9.417600	-1.412640	1.765800	0.658209	-0.253731	0.781667	-0.042761	-0.013439	0.008552
853	21.985382	0.009094	-9.182160	-1.648080	1.883520	0.656716	-0.256716	0.780000	-0.053756	-0.012217	0.014661
854	21.994507	0.009125	-9.299880	-1.648080	1.765800	0.656716	-0.261194	0.778333	-0.050091	-0.014661	0.013439
855	22.003632	0.009125	-9.182160	-1.294920	1.765800	0.658209	-0.253731	0.783333	-0.052534	-0.019548	0.015882
856	22.013184	0.009552	-9.417600	-1.530360	1.765800	0.659701	-0.250746	0.781667	-0.045204	-0.013439	0.017104
857	22.021851	0.008667	-9.417600	-1.412640	1.883520	0.659701	-0.253731	0.781667	-0.047647	-0.010996	0.020769
858	22.030945	0.009094	-9.417600	-1.412640	1.530360	0.658209	-0.252239	0.778333	-0.045204	-0.010996	0.019548
859	22.040070	0.009125	-9.535320	-1.059480	1.883520	0.659701	-0.253731	0.781667	-0.059865	-0.008552	0.017104
860	22.049194	0.009125	-9.535320	-1.412640	1.765800	0.659701	-0.255224	0.783333	-0.047647	-0.014661	0.020769
861	22.058289	0.009094	-9.535320	-1.412640	1.765800	0.658209	-0.256716	0.783333	-0.052534	-0.023213	0.023213
862	22.067413	0.009125	-9.417600	-1.412640	1.648080	0.656716	-0.256716	0.778333	-0.070860	-0.021991	0.018326
863	22.076538	0.009125	-9.299880	-1.530360	1.765800	0.659701	-0.256716	0.783333	-0.058643	-0.026878	0.020769
864	22.085632	0.009094	-9.417600	-1.412640	1.883520	0.659701	-0.256716	0.780000	-0.062308	-0.026878	0.014661
865	22.094757	0.009125	-9.417600	-1.059480	1.765800	0.659701	-0.255224	0.780000	-0.054978	-0.019548	0.018326
866	22.103882	0.009125	-9.417600	-1.294920	1.765800	0.658209	-0.255224	0.781667	-0.052534	-0.030543	0.021991
867	22.112976	0.009094	-9.417600	-1.294920	1.883520	0.656716	-0.253731	0.781667	-0.059865	-0.029322	0.018326
868	22.122101	0.009125	-9.417600	-1.412640	1.883520	0.659701	-0.255224	0.783333	-0.062308	-0.012217	0.023213
869	22.131226	0.009125	-9.299880	-1.648080	1.765800	0.658209	-0.253731	0.781667	-0.058643	-0.013439	0.029322
870	22.140350	0.009125	-9.417600	-1.412640	1.765800	0.659701	-0.255224	0.780000	-0.053756	-0.013439	0.017104
871	22.149445	0.009094	-9.417600	-1.530360	1.765800	0.656716	-0.256716	0.783333	-0.052534	-0.010996	0.028100
872	22.158569	0.009125	-9.417600	-1.412640	1.765800	0.658209	-0.253731	0.780000	-0.061087	-0.013439	0.030543
873	22.167664	0.009094	-9.417600	-1.530360	1.883520	0.658209	-0.262687	0.778333	-0.051313	-0.012217	0.025656
874	22.176788	0.009125	-9.417600	-1.530360	1.765800	0.658209	-0.250746	0.778333	-0.057421	-0.012217	0.030543
875	22.185913	0.009125	-9.417600	-1.294920	1.883520	0.658209	-0.256716	0.778333	-0.058643	-0.013439	0.035430
876	22.195007	0.009094	-9.535320	-1.294920	1.648080	0.658209	-0.256716	0.783333	-0.058643	-0.002443	0.030543
877	22.204132	0.009125	-9.417600	-1.294920	1.765800	0.659701	-0.258209	0.780000	-0.061087	-0.014661	0.031765
878	22.213257	0.009125	-9.417600	-1.294920	1.765800	0.659701	-0.258209	0.780000	-0.059865	-0.009774	0.037874
879	22.222351	0.009094	-9.299880	-1.294920	1.765800	0.658209	-0.255224	0.778333	-0.056200	-0.008552	0.030543
880	22.231476	0.009125	-9.182160	-1.177200	1.883520	0.658209	-0.255224	0.780000	-0.042761	-0.004887	0.026878
881	22.240601	0.009125	-9.299880	-1.412640	1.765800	0.658209	-0.255224	0.776667	-0.059865	-0.009774	0.025656
882	22.249695	0.009094	-9.299880	-1.294920	1.765800	0.659701	-0.255224	0.781667	-0.052534	0.001222	0.024435
883	22.258820	0.009125	-9.299880	-1.294920	1.765800	0.658209	-0.261194	0.783333	-0.043982	-0.003665	0.020769
884	22.267944	0.009125	-9.417600	-1.530360	1.765800	0.659701	-0.256716	0.781667	-0.051313	-0.003665	0.028100
885	22.277039	0.009094	-9.417600	-1.412640	1.765800	0.659701	-0.258209	0.781667	-0.051313	-0.008552	0.020769
886	22.286163	0.009125	-9.417600	-1.412640	1.765800	0.661194	-0.255224	0.780000	-0.052534	-0.014661	0.020769
887	22.295258	0.009094	-9.182160	-1.412640	1.765800	0.659701	-0.253731	0.783333	-0.050091	-0.001222	0.021991
888	22.304382	0.009125	-9.299880	-1.294920	1.765800	0.659701	-0.256716	0.778333	-0.042761	0.010996	0.023213
889	22.313507	0.009125	-9.299880	-1.412640	1.765800	0.658209	-0.255224	0.781667	-0.040317	0.001222	0.020769
890	22.322601	0.009094	-9.417600	-1.294920	1.765800	0.658209	-0.253731	0.781667	-0.040317	-0.004887	0.008552
891	22.331726	0.009125	-9.417600	-1.294920	1.765800	0.658209	-0.268657	0.778333	-0.041539	0.003665	0.018326
892	22.340851	0.009125	-9.417600	-1.294920	1.765800	0.659701	-0.253731	0.781667	-0.039095	-0.002443	0.015882
893	22.349945	0.009094	-9.182160	-1.294920	1.765800	0.659701	-0.256716	0.783333	0.103847	0.000000	0.020769
894	22.359070	0.009125	-9.417600	-1.530360	1.765800	0.656716	-0.258209	0.780000	-0.039095	-0.003665	0.012217
895	22.368195	0.009125	-9.299880	-1.412640	1.765800	0.658209	-0.253731	0.781667	-0.037874	-0.007330	0.015882
896	22.377289	0.009094	-9.299880	-1.530360	2.001240	0.658209	-0.256716	0.776667	-0.039095	0.000000	0.012217
897	22.386414	0.009125	-9.299880	-1.412640	1.883520	0.655224	-0.256716	0.781667	-0.036652	-0.003665	0.017104
898	22.395508	0.009094	-9.417600	-1.412640	1.765800	0.659701	-0.255224	0.781667	-0.052534	-0.008552	0.018326
899	22.404633	0.009125	-9.417600	-1.412640	1.530360	0.658209	-0.256716	0.780000	-0.040317	0.002443	0.017104
900	22.413727	0.009094	-9.299880	-1.530360	1.765800	0.661194	-0.252239	0.781667	-0.048869	-0.009774	0.019548
901	22.422852	0.009125	-9.417600	-1.294920	1.765800	0.658209	-0.258209	0.780000	-0.045204	-0.001222	0.019548
902	22.431976	0.009125	-9.417600	-1.412640	1.765800	0.659701	-0.255224	0.780000	-0.056200	-0.008552	0.019548
903	22.441071	0.009094	-9.417600	-1.412640	1.765800	0.658209	-0.256716	0.780000	-0.053756	-0.013439	0.021991
904	22.450195	0.009125	-9.417600	-1.294920	1.765800	0.656716	-0.261194	0.780000	-0.053756	-0.013439	0.009774
905	22.459290	0.009094	-9.535320	-1.294920	1.765800	0.656716	-0.258209	0.781667	-0.047647	-0.003665	0.026878
906	22.468414	0.009125	-9.417600	-1.412640	1.883520	0.658209	-0.256716	0.778333	-0.047647	-0.010996	0.021991
907	22.477509	0.009094	-9.417600	-1.412640	1.883520	0.659701	-0.258209	0.781667	-0.056200	-0.013439	0.021991
908	22.486633	0.009125	-9.417600	-1.294920	1.765800	0.658209	-0.256716	0.780000	-0.048869	-0.012217	0.023213
909	22.495758	0.009125	-9.417600	-1.294920	1.765800	0.659701	-0.264179	0.780000	-0.048869	-0.010996	0.013439
910	22.504852	0.009094	-9.535320	-1.177200	1.765800	0.659701	-0.264179	0.776667	-0.050091	-0.001222	0.017104
911	22.513977	0.009125	-9.417600	-1.177200	1.765800	0.659701	-0.258209	0.781667	-0.051313	-0.018326	0.021991
912	22.523102	0.009125	-9.417600	-1.177200	1.765800	0.658209	-0.258209	0.778333	-0.062308	-0.010996	0.017104
913	22.532196	0.009094	-9.299880	-1.412640	1.883520	0.658209	-0.259701	0.783333	-0.047647	-0.010996	0.023213
914	22.541321	0.009125	-9.417600	-1.530360	1.765800	0.659701	-0.259701	0.783333	-0.054978	-0.014661	0.017104
915	22.550415	0.009094	-9.299880	-1.648080	1.765800	0.658209	-0.255224	0.781667	-0.053756	-0.010996	0.020769
916	22.559540	0.009125	-9.182160	-1.412640	1.765800	0.656716	-0.256716	0.781667	-0.042761	-0.008552	0.018326
917	22.568665	0.009125	-9.299880	-1.294920	1.765800	0.658209	-0.253731	0.781667	-0.051313	-0.018326	0.015882
918	22.577759	0.009094	-9.299880	-1.412640	1.765800	0.656716	-0.261194	0.780000	-0.054978	-0.017104	0.013439
919	22.586884	0.009125	-9.299880	-1.412640	1.765800	0.659701	-0.256716	0.780000	-0.043982	-0.009774	0.023213
920	22.596008	0.009125	-9.417600	-1.530360	1.883520	0.658209	-0.256716	0.780000	-0.042761	-0.014661	0.017104
921	22.605103	0.009094	-9.417600	-1.412640	1.648080	0.658209	-0.259701	0.783333	-0.047647	-0.009774	0.013439
922	22.614227	0.009125	-9.299880	-1.177200	1.883520	0.656716	-0.259701	0.776667	-0.037874	-0.006109	0.020769
923	22.623352	0.009125	-9.417600	-1.412640	1.765800	0.656716	-0.256716	0.783333	-0.029322	-0.003665	0.010996
924	22.632446	0.009094	-9.299880	-1.412640	1.765800	0.658209	-0.258209	0.778333	-0.045204	-0.006109	0.013439
925	22.641571	0.009125	-9.299880	-1.294920	1.765800	0.656716	-0.255224	0.783333	-0.047647	-0.004887	0.015882
926	22.650696	0.009125	-9.299880	-1.294920	1.765800	0.656716	-0.256716	0.785000	-0.037874	-0.001222	0.010996
927	22.659790	0.009094	-9.299880	-1.294920	1.765800	0.655224	-0.261194	0.780000	-0.046426	-0.009774	0.010996
928	22.668915	0.009125	-9.417600	-1.177200	1.765800	0.656716	-0.270149	0.775000	-0.046426	-0.013439	0.019548
929	22.678040	0.009125	-9.299880	-1.294920	1.765800	0.659701	-0.253731	0.785000	-0.056200	-0.017104	0.004887
930	22.687134	0.009094	-9.417600	-1.412640	1.765800	0.653731	-0.261194	0.780000	-0.204029	-0.017104	0.017104
931	22.696259	0.009125	-9.417600	-1.530360	1.765800	0.658209	-0.256716	0.783333	-0.052534	-0.019548	0.024435
932	22.705353	0.009094	-9.417600	-1.412640	1.765800	0.658209	-0.255224	0.778333	-0.051313	-0.014661	0.008552
933	22.714478	0.009125	-9.417600	-1.294920	1.883520	0.659701	-0.255224	0.780000	-0.042761	-0.006109	0.021991
934	22.723602	0.009125	-9.417600	-1.412640	1.883520	0.656716	-0.256716	0.780000	-0.035430	-0.013439	0.014661
935	22.733032	0.009430	-9.417600	-1.530360	1.765800	0.655224	-0.255224	0.775000	-0.052534	-0.009774	0.009774
936	22.741821	0.008789	-9.417600	-1.530360	1.530360	0.656716	-0.261194	0.780000	-0.048869	-0.014661	0.018326
937	22.750916	0.009094	-9.417600	-1.412640	1.648080	0.661194	-0.252239	0.780000	-0.043982	-0.017104	0.009774
938	22.760040	0.009125	-9.417600	-1.412640	1.765800	0.658209	-0.256716	0.780000	-0.045204	-0.009774	0.019548
939	22.769135	0.009094	-9.299880	-1.412640	1.883520	0.656716	-0.259701	0.776667	-0.036652	-0.018326	0.012217
940	22.778259	0.009125	-9.299880	-1.530360	1.765800	0.658209	-0.255224	0.778333	-0.056200	-0.018326	0.013439
941	22.787384	0.009125	-9.417600	-1.412640	1.883520	0.658209	-0.253731	0.781667	-0.041539	-0.002443	0.020769
942	22.796478	0.009094	-9.417600	-1.177200	1.883520	0.658209	-0.255224	0.778333	-0.042761	-0.018326	0.021991
943	22.805603	0.009125	-9.299880	-1.412640	1.765800	0.656716	-0.256716	0.775000	-0.052534	-0.010996	0.023213
944	22.814697	0.009094	-9.299880	-1.530360	1.765800	0.656716	-0.256716	0.778333	-0.048869	-0.019548	0.013439
945	22.823822	0.009125	-9.299880	-1.530360	1.765800	0.659701	-0.258209	0.778333	-0.046426	-0.025656	0.007330
946	22.832947	0.009125	-9.182160	-1.294920	1.765800	0.658209	-0.256716	0.776667	-0.048869	-0.014661	0.019548
947	22.842072	0.009125	-9.417600	-1.294920	1.765800	0.661194	-0.276119	0.775000	-0.046426	-0.015882	0.020769
948	22.851166	0.009094	-9.417600	-1.294920	1.765800	0.658209	-0.258209	0.778333	-0.048869	-0.019548	0.013439
949	22.860291	0.009125	-9.417600	-1.294920	1.648080	0.658209	-0.255224	0.776667	-0.051313	-0.020769	0.013439
950	22.869385	0.009094	-9.417600	-1.412640	1.883520	0.659701	-0.255224	0.778333	-0.042761	-0.019548	0.018326
951	22.878510	0.009125	-9.299880	-1.530360	1.765800	0.656716	-0.258209	0.778333	-0.046426	-0.014661	0.010996
952	22.887604	0.009094	-9.299880	-1.294920	1.765800	0.658209	-0.258209	0.776667	-0.042761	-0.014661	0.010996
953	22.896729	0.009125	-9.417600	-1.412640	1.883520	0.656716	-0.259701	0.778333	-0.048869	-0.017104	0.009774
954	22.905823	0.009094	-9.299880	-1.412640	1.765800	0.658209	-0.256716	0.783333	-0.052534	-0.006109	0.010996
955	22.914948	0.009125	-9.299880	-1.294920	1.883520	0.656716	-0.259701	0.778333	-0.053756	-0.018326	0.012217
956	22.924072	0.009125	-9.299880	-1.412640	1.883520	0.656716	-0.259701	0.778333	-0.047647	-0.014661	0.021991
957	22.933167	0.009094	-9.299880	-1.412640	1.883520	0.658209	-0.256716	0.776667	-0.045204	-0.009774	0.012217
958	22.942291	0.009125	-9.417600	-1.412640	2.001240	0.658209	-0.256716	0.776667	-0.040317	-0.009774	0.019548
959	22.951385	0.009094	-9.299880	-1.412640	1.765800	0.658209	-0.253731	0.778333	-0.047647	-0.021991	0.007330
960	22.960510	0.009125	-9.299880	-1.412640	1.765800	0.659701	-0.256716	0.778333	-0.058643	-0.013439	0.014661
961	22.969635	0.009125	-9.299880	-1.177200	1.765800	0.658209	-0.258209	0.775000	-0.042761	-0.007330	0.020769
962	22.978729	0.009094	-9.299880	-1.294920	1.765800	0.656716	-0.259701	0.776667	-0.057421	-0.017104	0.013439
963	22.987854	0.009125	-9.299880	-1.294920	1.765800	0.658209	-0.255224	0.780000	-0.051313	-0.018326	0.014661
964	22.996979	0.009125	-9.417600	-1.294920	1.765800	0.658209	-0.258209	0.775000	-0.048869	-0.014661	0.017104
965	23.006073	0.009094	-9.299880	-1.294920	1.765800	0.659701	-0.271642	0.773333	-0.040317	-0.006109	0.009774
966	23.015198	0.009125	-9.299880	-1.648080	1.765800	0.655224	-0.259701	0.775000	-0.048869	-0.017104	0.006109
967	23.024323	0.009125	-9.417600	-1.530360	1.765800	0.658209	-0.255224	0.775000	-0.046426	-0.018326	0.009774
968	23.033447	0.009125	-9.299880	-1.412640	1.883520	0.658209	-0.255224	0.775000	-0.053756	-0.018326	0.012217
969	23.042542	0.009094	-9.417600	-1.412640	1.765800	0.659701	-0.255224	0.775000	-0.043982	-0.004887	0.013439
970	23.051666	0.009125	-9.299880	-1.412640	1.883520	0.658209	-0.253731	0.780000	-0.047647	-0.015882	0.010996
971	23.060760	0.009094	-9.417600	-1.177200	1.648080	0.659701	-0.250746	0.780000	-0.050091	-0.014661	0.003665
972	23.069885	0.009125	-9.417600	-1.412640	1.883520	0.659701	-0.256716	0.775000	-0.043982	-0.013439	0.009774
973	23.078979	0.009094	-9.535320	-1.412640	1.765800	0.658209	-0.253731	0.776667	-0.051313	-0.015882	0.014661
974	23.088104	0.009125	-9.299880	-1.294920	1.765800	0.658209	-0.255224	0.776667	-0.046426	-0.017104	-0.001222
975	23.097229	0.009125	-9.417600	-1.530360	1.765800	0.661194	-0.255224	0.778333	-0.043982	-0.012217	0.008552
976	23.106323	0.009094	-9.417600	-1.412640	1.765800	0.656716	-0.253731	0.780000	-0.045204	-0.017104	0.007330
977	23.115448	0.009125	-9.417600	-1.294920	1.765800	0.659701	-0.256716	0.775000	-0.042761	-0.009774	0.003665
978	23.124573	0.009125	-9.182160	-1.294920	1.765800	0.658209	-0.253731	0.775000	-0.045204	-0.017104	0.003665
979	23.133667	0.009094	-9.299880	-1.294920	1.765800	0.658209	-0.258209	0.776667	-0.052534	-0.014661	0.012217
980	23.142792	0.009125	-9.299880	-1.412640	1.765800	0.659701	-0.258209	0.776667	-0.040317	-0.013439	-0.002443
981	23.151917	0.009125	-9.299880	-1.294920	1.883520	0.659701	-0.258209	0.778333	-0.050091	-0.017104	0.003665
982	23.161011	0.009094	-9.299880	-1.412640	1.765800	0.658209	-0.253731	0.773333	-0.050091	-0.018326	0.004887
983	23.170135	0.009125	-9.417600	-1.648080	1.883520	0.659701	-0.252239	0.775000	-0.037874	-0.018326	-0.008552
984	23.179230	0.009094	-9.299880	-1.530360	1.883520	0.658209	-0.262687	0.775000	-0.036652	-0.015882	0.001222
985	23.188354	0.009125	-9.299880	-1.530360	1.765800	0.658209	-0.253731	0.775000	-0.034208	-0.006109	0.004887
986	23.197479	0.009125	-9.417600	-1.530360	1.883520	0.661194	-0.255224	0.776667	-0.026878	-0.004887	0.003665
987	23.206573	0.009094	-9.299880	-1.412640	2.001240	0.658209	-0.256716	0.776667	-0.034208	-0.024435	0.000000
988	23.215698	0.009125	-9.299880	-1.412640	1.765800	0.661194	-0.270149	0.775000	-0.047647	-0.010996	0.000000
989	23.224823	0.009125	-9.182160	-1.412640	1.765800	0.656716	-0.258209	0.778333	-0.032987	-0.012217	0.010996
990	23.233948	0.009125	-9.299880	-1.412640	1.765800	0.661194	-0.253731	0.775000	-0.037874	-0.014661	0.006109
991	23.243042	0.009094	-9.182160	-1.294920	1.765800	0.658209	-0.253731	0.775000	-0.047647	-0.007330	0.000000
992	23.252167	0.009125	-9.299880	-1.412640	1.530360	0.659701	-0.252239	0.775000	-0.040317	-0.013439	0.014661
993	23.261292	0.009125	-9.299880	-1.412640	1.765800	0.661194	-0.252239	0.780000	-0.030543	-0.002443	0.008552
994	23.270386	0.009094	-9.182160	-1.412640	1.765800	0.661194	-0.252239	0.776667	-0.039095	-0.012217	0.010996
995	23.279510	0.009125	-9.299880	-1.412640	1.765800	0.661194	-0.255224	0.775000	-0.031765	-0.013439	0.006109
996	23.288635	0.009125	-9.417600	-1.294920	1.765800	0.661194	-0.255224	0.773333	-0.036652	-0.013439	0.002443
997	23.297729	0.009094	-9.417600	-1.530360	1.765800	0.659701	-0.258209	0.778333	-0.050091	-0.013439	0.002443
998	23.306854	0.009125	-9.299880	-1.530360	1.765800	0.656716	-0.255224	0.775000	-0.039095	-0.017104	0.001222
999	23.315979	0.009125	-9.299880	-1.530360	1.765800	0.659701	-0.250746	0.778333	-0.037874	-0.013439	0.001222
1000	23.325073	0.009094	-9.182160	-1.412640	1.648080	0.659701	-0.252239	0.775000	-0.041539	-0.010996	0.006109
1001	23.334198	0.009125	-9.299880	-1.530360	1.883520	0.658209	-0.249254	0.778333	-0.039095	-0.012217	0.013439
1002	23.343323	0.009125	-9.299880	-1.412640	1.883520	0.659701	-0.250746	0.776667	-0.042761	-0.013439	0.008552
1003	23.352448	0.009125	-9.299880	-1.412640	1.765800	0.658209	-0.265672	0.773333	-0.053756	-0.018326	0.003665
1004	23.361572	0.009125	-9.417600	-1.530360	1.648080	0.658209	-0.249254	0.776667	-0.052534	-0.017104	0.002443
1005	23.370667	0.009094	-9.417600	-1.412640	1.765800	0.659701	-0.253731	0.776667	-0.053756	-0.017104	0.001222
1006	23.379791	0.009125	-9.417600	-1.530360	1.765800	0.662687	-0.259701	0.776667	-0.054978	-0.008552	0.008552
1007	23.388916	0.009125	-9.417600	-1.530360	1.765800	0.661194	-0.250746	0.780000	-0.053756	-0.020769	0.013439
1008	23.398010	0.009094	-9.417600	-1.530360	1.765800	0.659701	-0.250746	0.775000	-0.047647	-0.013439	0.009774
1009	23.407135	0.009125	-9.417600	-1.412640	2.001240	0.659701	-0.249254	0.776667	-0.051313	-0.015882	0.006109
1010	23.416260	0.009125	-9.417600	-1.177200	1.765800	0.661194	-0.250746	0.773333	-0.040317	-0.017104	0.000000
1011	23.425354	0.009094	-9.299880	-1.412640	1.648080	0.659701	-0.252239	0.775000	-0.050091	-0.019548	0.003665
1012	23.434479	0.009125	-9.299880	-1.530360	1.765800	0.658209	-0.256716	0.773333	-0.052534	-0.015882	-0.002443
1013	23.443604	0.009125	-9.299880	-1.294920	1.765800	0.661194	-0.252239	0.780000	-0.041539	-0.013439	0.007330
1014	23.452911	0.009308	-9.299880	-1.530360	1.765800	0.656716	-0.255224	0.775000	-0.062308	-0.019548	0.010996
1015	23.461823	0.008911	-9.299880	-1.530360	1.765800	0.662687	-0.252239	0.773333	-0.043982	-0.019548	0.002443
1016	23.470917	0.009094	-9.535320	-1.412640	1.765800	0.659701	-0.253731	0.773333	-0.048869	-0.023213	0.003665
1017	23.480042	0.009125	-9.417600	-1.530360	1.765800	0.658209	-0.249254	0.775000	-0.050091	-0.009774	0.004887
1018	23.489166	0.009125	-9.417600	-1.530360	1.765800	0.661194	-0.252239	0.773333	-0.051313	-0.017104	0.004887
1019	23.498260	0.009094	-9.417600	-1.412640	1.648080	0.659701	-0.249254	0.773333	-0.052534	-0.007330	0.010996
1020	23.507385	0.009125	-9.299880	-1.412640	1.765800	0.659701	-0.253731	0.773333	-0.053756	-0.002443	0.000000
1021	23.516510	0.009125	-9.299880	-1.412640	1.648080	0.656716	-0.265672	0.775000	-0.047647	-0.018326	0.003665
1022	23.525604	0.009094	-9.417600	-1.412640	1.765800	0.658209	-0.255224	0.778333	-0.048869	-0.012217	0.004887
1023	23.534729	0.009125	-9.182160	-1.294920	1.883520	0.661194	-0.252239	0.775000	-0.053756	-0.015882	0.004887
1024	23.543854	0.009125	-9.299880	-1.412640	1.765800	0.658209	-0.250746	0.775000	-0.051313	-0.014661	0.002443
1025	23.552948	0.009094	-9.417600	-1.412640	1.883520	0.661194	-0.253731	0.775000	-0.053756	-0.015882	0.003665
1026	23.562073	0.009125	-9.417600	-1.412640	1.883520	0.659701	-0.252239	0.773333	-0.056200	-0.012217	0.009774
1027	23.571198	0.009125	-9.653040	-1.530360	1.883520	0.658209	-0.252239	0.775000	-0.050091	-0.019548	0.009774
1028	23.580292	0.009094	-9.299880	-1.412640	1.883520	0.662687	-0.250746	0.775000	-0.051313	-0.018326	0.002443
1029	23.589417	0.009125	-9.299880	-1.177200	1.648080	0.661194	-0.250746	0.775000	-0.050091	-0.008552	0.007330
1030	23.598541	0.009125	-9.417600	-1.294920	1.765800	0.658209	-0.253731	0.775000	-0.050091	-0.013439	0.012217
1031	23.607635	0.009094	-9.417600	-1.648080	1.883520	0.659701	-0.252239	0.773333	-0.043982	-0.008552	0.007330
1032	23.616760	0.009125	-9.299880	-1.648080	1.883520	0.659701	-0.247761	0.776667	-0.035430	0.002443	0.008552
1033	23.625885	0.009125	-9.299880	-1.412640	1.883520	0.659701	-0.252239	0.773333	-0.046426	-0.015882	0.008552
1034	23.634979	0.009094	-9.182160	-1.412640	1.765800	0.659701	-0.255224	0.773333	-0.043982	0.000000	0.007330
1035	23.644104	0.009125	-9.299880	-1.530360	1.883520	0.661194	-0.247761	0.773333	-0.041539	-0.009774	0.000000
1036	23.653229	0.009125	-9.299880	-1.412640	1.765800	0.659701	-0.252239	0.773333	-0.043982	-0.009774	0.006109
1037	23.662323	0.009094	-9.535320	-1.412640	2.001240	0.658209	-0.255224	0.773333	-0.042761	0.002443	0.013439
1038	23.671448	0.009125	-9.299880	-1.530360	1.765800	0.656716	-0.253731	0.775000	-0.037874	-0.004887	0.006109
1039	23.680573	0.009125	-9.299880	-1.412640	1.765800	0.659701	-0.256716	0.775000	-0.045204	-0.007330	0.013439
1040	23.689667	0.009094	-9.299880	-1.648080	1.765800	0.661194	-0.259701	0.770000	-0.054978	-0.010996	0.008552
1041	23.698792	0.009125	-9.182160	-1.530360	1.883520	0.656716	-0.250746	0.773333	-0.047647	-0.009774	0.010996
1042	23.707916	0.009125	-9.299880	-1.294920	1.883520	0.659701	-0.250746	0.776667	-0.051313	-0.012217	0.007330
1043	23.717010	0.009094	-9.299880	-1.530360	1.765800	0.661194	-0.250746	0.773333	-0.045204	-0.007330	0.009774
1044	23.726135	0.009125	-9.299880	-1.530360	1.883520	0.659701	-0.252239	0.773333	-0.046426	-0.008552	0.017104
1045	23.735260	0.009125	-9.417600	-1.530360	1.765800	0.659701	-0.252239	0.773333	-0.030543	-0.004887	0.008552
1046	23.744385	0.009125	-9.299880	-1.530360	1.765800	0.659701	-0.249254	0.775000	-0.051313	-0.006109	0.007330
1047	23.753479	0.009094	-9.417600	-1.412640	1.765800	0.659701	-0.250746	0.776667	-0.047647	-0.003665	0.010996
1048	23.762604	0.009125	-9.299880	-1.412640	1.883520	0.661194	-0.246269	0.776667	-0.047647	-0.004887	0.010996
1049	23.771790	0.009186	-9.182160	-1.530360	1.648080	0.659701	-0.252239	0.773333	-0.053756	-0.003665	0.007330
1050	23.780853	0.009064	-9.182160	-1.412640	1.883520	0.658209	-0.247761	0.773333	-0.040317	0.001222	0.017104
1051	23.789948	0.009094	-9.417600	-1.294920	1.765800	0.661194	-0.246269	0.775000	-0.035430	0.000000	0.009774
1052	23.799072	0.009125	-9.299880	-1.412640	1.765800	0.661194	-0.249254	0.778333	-0.043982	-0.002443	0.007330
1053	23.808197	0.009125	-9.182160	-1.412640	1.765800	0.661194	-0.249254	0.775000	-0.054978	-0.010996	0.013439
1054	23.817322	0.009125	-9.299880	-1.530360	1.883520	0.659701	-0.249254	0.778333	-0.046426	-0.003665	0.010996
1055	23.826416	0.009094	-9.417600	-1.648080	1.765800	0.659701	-0.253731	0.776667	-0.045204	0.001222	0.001222
1056	23.835541	0.009125	-9.417600	-1.648080	1.765800	0.661194	-0.252239	0.775000	-0.032987	0.000000	0.000000
1057	23.844666	0.009125	-9.535320	-1.530360	2.001240	0.658209	-0.253731	0.776667	-0.040317	0.000000	0.006109
1058	23.853760	0.009094	-9.417600	-1.530360	1.883520	0.656716	-0.262687	0.768333	-0.036652	0.000000	0.004887
1059	23.862885	0.009125	-9.299880	-1.530360	1.883520	0.658209	-0.249254	0.775000	-0.043982	-0.003665	0.012217
1060	23.872009	0.009125	-9.299880	-1.530360	1.883520	0.659701	-0.247761	0.775000	-0.048869	0.000000	0.012217
1061	23.881104	0.009094	-9.182160	-1.412640	1.765800	0.658209	-0.250746	0.773333	-0.041539	0.002443	0.009774
1062	23.890228	0.009125	-9.299880	-1.412640	1.765800	0.659701	-0.247761	0.776667	-0.043982	0.004887	0.006109
1063	23.905060	0.014832	-9.299880	-1.530360	1.883520	0.658209	-0.256716	0.775000	-0.043982	-0.003665	0.008552
1064	23.913025	0.007965	-9.417600	-1.294920	1.883520	0.658209	-0.250746	0.776667	-0.040317	0.000000	0.010996
1065	23.922119	0.009094	-9.417600	-1.530360	1.883520	0.661194	-0.252239	0.775000	-0.042761	-0.001222	0.014661
1066	23.931244	0.009125	-9.417600	-1.648080	1.883520	0.658209	-0.249254	0.776667	-0.046426	-0.009774	0.012217
1067	23.940369	0.009125	-9.299880	-1.648080	1.765800	0.661194	-0.250746	0.775000	-0.041539	0.004887	0.008552
1068	23.949463	0.009094	-9.299880	-1.530360	1.883520	0.661194	-0.246269	0.775000	-0.047647	-0.010996	0.004887
1069	23.958588	0.009125	-9.417600	-1.765800	1.883520	0.661194	-0.246269	0.776667	-0.051313	-0.008552	0.015882
1070	23.967712	0.009125	-9.299880	-1.648080	1.765800	0.658209	-0.253731	0.775000	-0.048869	0.003665	0.019548
1071	23.976807	0.009094	-9.417600	-1.648080	2.001240	0.658209	-0.250746	0.775000	-0.056200	-0.002443	0.009774
1072	23.985931	0.009125	-9.299880	-1.648080	1.883520	0.659701	-0.249254	0.776667	-0.046426	0.002443	0.019548
1073	23.995056	0.009125	-9.417600	-1.648080	1.765800	0.662687	-0.249254	0.775000	-0.052534	-0.007330	0.014661
1074	24.004150	0.009094	-9.299880	-1.412640	1.765800	0.659701	-0.247761	0.775000	-0.050091	-0.001222	0.015882
1075	24.013275	0.009125	-9.299880	-1.530360	1.765800	0.661194	-0.250746	0.773333	-0.046426	-0.004887	0.012217
1076	24.022400	0.009125	-9.417600	-1.648080	1.765800	0.661194	-0.247761	0.776667	-0.057421	-0.008552	0.017104
1077	24.031525	0.009125	-9.299880	-1.530360	1.883520	0.658209	-0.265672	0.773333	-0.046426	0.000000	0.015882
1078	24.040619	0.009094	-9.417600	-1.412640	1.883520	0.656716	-0.252239	0.780000	-0.048869	-0.012217	0.019548
1079	24.049744	0.009125	-9.299880	-1.294920	1.883520	0.658209	-0.252239	0.776667	-0.058643	-0.001222	0.024435
1080	24.058868	0.009125	-9.299880	-1.412640	1.883520	0.655224	-0.249254	0.778333	-0.050091	-0.004887	0.023213
1081	24.067993	0.009125	-9.417600	-1.412640	1.765800	0.658209	-0.250746	0.778333	-0.053756	-0.001222	0.023213
1082	24.077087	0.009094	-9.417600	-1.530360	1.883520	0.658209	-0.247761	0.778333	-0.053756	0.001222	0.029322
1083	24.086212	0.009125	-9.417600	-1.530360	1.883520	0.655224	-0.253731	0.775000	-0.056200	0.007330	0.026878
1084	24.095337	0.009125	-9.299880	-1.530360	1.883520	0.659701	-0.255224	0.776667	-0.057421	0.003665	0.029322
1085	24.104431	0.009094	-9.299880	-1.530360	1.648080	0.659701	-0.247761	0.776667	-0.057421	-0.004887	0.015882
1086	24.113556	0.009125	-9.182160	-1.530360	1.648080	0.655224	-0.252239	0.776667	-0.050091	-0.003665	0.020769
1087	24.122681	0.009125	-9.417600	-1.530360	1.765800	0.662687	-0.249254	0.775000	-0.051313	0.000000	0.019548
1088	24.131805	0.009125	-9.417600	-1.530360	1.765800	0.656716	-0.253731	0.778333	-0.050091	0.006109	0.019548
1089	24.140900	0.009094	-9.417600	-1.412640	1.883520	0.661194	-0.247761	0.778333	-0.051313	0.000000	0.015882
1090	24.150024	0.009125	-9.417600	-1.530360	1.883520	0.659701	-0.252239	0.776667	-0.057421	-0.006109	0.020769
1091	24.159149	0.009125	-9.182160	-1.294920	1.765800	0.661194	-0.250746	0.775000	-0.053756	-0.009774	0.020769
