# FOX Logger (IMU file)
# (c) INRIA 2011-2014
# File created from file sensbiotk output
#
# File format:
# id	t	dt	ax	ay	az	mx	my	mz	gx	gy	gz
#
# Units:
#	Time: s
#	Acceleration: m.s^-2
#	Magneto: gauss
#	Gyrometer: rad/s
#
1	0.044922	0.044922	9.378360	-0.313920	-3.335400	-1.225373	-0.347761	1.335000	0.009053	-0.002274	-0.007145
2	0.049922	0.005000	9.299880	-0.349273	-3.256920	-1.225044	-0.346774	1.334388	-0.001815	-0.001514	-0.015217
3	0.054922	0.005000	9.323387	-0.376667	-3.296160	-1.224715	-0.345787	1.333776	0.010321	0.000488	-0.013681
4	0.059922	0.005000	9.313200	-0.405000	-3.151800	-1.224386	-0.344800	1.333163	-0.003084	-0.008328	-0.005461
5	0.064922	0.005000	9.383836	-0.325175	-3.105739	-1.224057	-0.343813	1.332551	0.003259	-0.002838	-0.005793
6	0.069922	0.005000	9.308852	-0.313920	-3.196384	-1.223728	-0.342826	1.331939	0.013555	-0.007731	-0.011674
7	0.074922	0.005000	9.353007	-0.399343	-3.210737	-1.223399	-0.341839	1.331327	0.009533	-0.000019	-0.019078
8	0.079922	0.005000	9.392226	-0.392400	-3.178440	-1.223070	-0.340852	1.330714	0.005051	-0.008115	-0.009122
9	0.084922	0.005000	9.375713	-0.387105	-3.178440	-1.222742	-0.339866	1.330102	0.005625	-0.002728	-0.001470
10	0.089922	0.005000	9.339380	-0.352900	-3.217420	-1.222413	-0.338879	1.329490	0.010595	-0.014765	0.000460
11	0.094922	0.005000	9.415482	-0.351042	-3.252684	-1.222084	-0.337892	1.328878	0.012368	-0.004962	-0.006720
12	0.099922	0.005000	9.374272	-0.278768	-3.269183	-1.221755	-0.336905	1.328265	0.011306	-0.005708	-0.013555
13	0.104922	0.005000	9.450411	-0.353160	-3.289731	-1.221426	-0.335918	1.327653	0.010152	-0.009659	0.003696
14	0.109922	0.005000	9.409152	-0.392400	-3.217680	-1.221097	-0.334931	1.327041	0.003274	-0.006808	-0.006559
15	0.114922	0.005000	9.349845	-0.403125	-3.285435	-1.220811	-0.334413	1.327048	0.024809	-0.012840	-0.013367
16	0.119922	0.005000	9.312679	-0.392400	-3.308959	-1.220591	-0.334633	1.328028	0.016299	-0.016885	-0.001527
17	0.124922	0.005000	9.260640	-0.305105	-3.256920	-1.220372	-0.334852	1.329007	0.010108	-0.009507	-0.005587
18	0.129922	0.005000	9.260640	-0.296509	-3.300577	-1.220152	-0.335071	1.329987	0.000724	-0.003671	0.009661
19	0.134922	0.005000	9.378605	-0.353160	-3.335522	-1.219933	-0.335291	1.330967	0.007209	-0.000899	-0.000149
20	0.139922	0.005000	9.405030	-0.431640	-3.283590	-1.219714	-0.335510	1.331946	0.026538	-0.005130	-0.002131
21	0.144922	0.005000	9.266827	-0.455738	-3.178440	-1.219494	-0.335729	1.332926	0.010015	-0.005911	-0.003501
22	0.149922	0.005000	9.312797	-0.353160	-3.217190	-1.219275	-0.335949	1.333905	0.006476	-0.006305	-0.000673
23	0.154922	0.005000	9.349966	-0.381554	-3.285314	-1.219056	-0.336168	1.334885	0.006991	-0.008416	0.003043
24	0.159922	0.005000	9.456840	-0.283238	-3.217680	-1.218836	-0.336387	1.335865	0.003956	-0.009774	0.000793
25	0.164922	0.005000	9.462992	-0.380095	-3.244615	-1.218617	-0.336606	1.336844	0.023418	-0.010577	0.002246
26	0.169922	0.005000	9.346591	-0.321391	-3.182176	-1.218397	-0.336826	1.337824	0.014278	-0.006476	-0.001450
27	0.174922	0.005000	9.453257	-0.431640	-3.221263	-1.218178	-0.337045	1.338803	0.015060	-0.009907	-0.001015
28	0.179922	0.005000	9.455630	-0.354370	-3.296160	-1.217959	-0.337264	1.339783	-0.000217	-0.009042	0.000422
29	0.184922	0.005000	9.346790	-0.358274	-3.293603	-1.218166	-0.337484	1.339332	-0.002805	0.000311	-0.006843
30	0.189922	0.005000	9.260640	-0.421692	-3.227628	-1.218495	-0.337703	1.338475	0.001754	-0.009345	0.001850
31	0.194922	0.005000	9.403765	-0.463962	-3.296160	-1.218825	-0.337923	1.337617	0.001702	-0.003409	-0.000931
32	0.199922	0.005000	9.279288	-0.332568	-3.314808	-1.219154	-0.338142	1.336760	0.005219	-0.011352	-0.006765
33	0.204922	0.005000	9.355185	-0.376335	-3.173962	-1.219483	-0.338362	1.335902	0.010071	-0.005327	-0.000525
34	0.209922	0.005000	9.339120	-0.351384	-3.164768	-1.219812	-0.338581	1.335045	0.014917	-0.006750	-0.006074
35	0.214922	0.005000	9.346563	-0.470880	-3.099960	-1.220141	-0.338801	1.334187	0.002141	-0.006921	0.008951
36	0.219922	0.005000	9.335937	-0.413612	-3.199652	-1.220470	-0.339020	1.333330	0.003578	-0.002980	0.001143
37	0.224922	0.005000	9.417600	-0.410295	-3.274815	-1.220799	-0.339240	1.332472	0.014552	-0.003737	0.002503
38	0.229922	0.005000	9.322263	-0.392400	-3.296160	-1.221129	-0.339459	1.331614	0.001276	0.000431	0.001222
39	0.234922	0.005000	9.324673	-0.470880	-3.281713	-1.221458	-0.339679	1.330757	0.009234	-0.001940	-0.003943
40	0.239922	0.005000	9.326761	-0.355323	-3.205321	-1.221787	-0.339898	1.329899	0.013369	-0.008629	-0.001408
41	0.244922	0.005000	9.368271	-0.274680	-3.275981	-1.222116	-0.340118	1.329042	0.015533	-0.003956	0.000192
42	0.249922	0.005000	9.260640	-0.266171	-3.256920	-1.222750	-0.340470	1.328652	0.001449	-0.009078	0.011344
43	0.254922	0.005000	9.339120	-0.392400	-3.268398	-1.224833	-0.341457	1.330489	0.000521	-0.007549	0.002057
44	0.259922	0.005000	9.375038	-0.428318	-3.142522	-1.226917	-0.342444	1.332325	0.015617	-0.013446	-0.004262
45	0.264922	0.005000	9.224123	-0.355883	-3.179801	-1.229000	-0.343431	1.334162	0.009567	-0.007796	-0.000398
46	0.269922	0.005000	9.299880	-0.393426	-3.217680	-1.231084	-0.344418	1.335999	0.003022	-0.007659	0.004873
47	0.274922	0.005000	9.407435	-0.349772	-3.250143	-1.233167	-0.345405	1.337836	0.016472	-0.007658	0.004909
48	0.279922	0.005000	9.446092	-0.392400	-3.280038	-1.235251	-0.346391	1.339673	0.013537	-0.005057	0.001554
49	0.284922	0.005000	9.472981	-0.407800	-3.413880	-1.237334	-0.347378	1.341509	0.016742	-0.009748	0.003386
50	0.289922	0.005000	9.309307	-0.412173	-3.296160	-1.239418	-0.348365	1.343346	0.001319	-0.002581	0.003846
51	0.294922	0.005000	9.311876	-0.341164	-3.308156	-1.241501	-0.349352	1.345183	0.025762	-0.001880	0.008309
52	0.299922	0.005000	9.325035	-0.353160	-3.206611	-1.243585	-0.350339	1.347020	0.010539	-0.010723	0.008616
53	0.304922	0.005000	9.434098	-0.291178	-3.110214	-1.245668	-0.351326	1.348856	0.005590	-0.007945	0.005538
54	0.309922	0.005000	9.417600	-0.315796	-3.099960	-1.247752	-0.352313	1.350693	0.012111	-0.011487	0.010624
55	0.314922	0.005000	9.396748	-0.297997	-3.199292	-1.249835	-0.353300	1.352530	0.007429	-0.012460	0.009360
56	0.319922	0.005000	9.339120	-0.422947	-3.240942	-1.249820	-0.353175	1.352575	0.042283	-0.016035	0.007979
57	0.324922	0.005000	9.364488	-0.353160	-3.268417	-1.248174	-0.352188	1.351227	0.006180	-0.013285	0.010020
58	0.329922	0.005000	9.299880	-0.404020	-3.222059	-1.246529	-0.351201	1.349880	0.017139	-0.006440	-0.000580
59	0.334922	0.005000	9.378360	-0.313920	-3.168880	-1.244883	-0.350213	1.348532	0.014384	-0.009209	-0.001861
60	0.339922	0.005000	9.435023	-0.360432	-3.163895	-1.243237	-0.349226	1.347184	0.009334	-0.010136	0.001561
61	0.344922	0.005000	9.412733	-0.392400	-3.286427	-1.241592	-0.348239	1.345837	0.019274	-0.015150	0.008785
62	0.349922	0.005000	9.305726	-0.350237	-3.293237	-1.239946	-0.347252	1.344489	0.003088	-0.009918	0.001472
63	0.354922	0.005000	9.339120	-0.273670	-3.177430	-1.238301	-0.346264	1.343142	0.009413	-0.015464	-0.000928
64	0.359922	0.005000	9.339120	-0.234001	-3.099960	-1.236655	-0.345277	1.341794	0.013793	-0.008234	0.008515
65	0.364922	0.005000	9.335323	-0.388603	-3.139200	-1.235009	-0.344290	1.340447	0.010415	-0.013561	0.004714
66	0.369922	0.005000	9.366786	-0.331282	-3.256920	-1.233364	-0.343302	1.339099	0.015246	-0.011640	0.003634
67	0.374922	0.005000	9.417600	-0.313920	-3.248812	-1.231718	-0.342315	1.337752	0.001012	-0.002074	0.006995
68	0.379922	0.005000	9.349267	-0.421493	-3.217680	-1.230073	-0.341328	1.336404	0.011861	-0.008978	0.005624
69	0.384922	0.005000	9.284172	-0.367291	-3.164309	-1.228427	-0.340340	1.335057	0.020801	-0.006595	0.012125
70	0.389922	0.005000	9.324621	-0.406899	-3.198925	-1.228148	-0.340509	1.334648	0.016988	-0.009989	0.006191
71	0.394922	0.005000	9.255222	-0.386982	-3.256920	-1.227929	-0.340728	1.334281	0.011252	-0.011625	0.006475
72	0.399922	0.005000	9.299880	-0.373309	-3.138141	-1.227709	-0.340948	1.333913	0.003902	-0.001259	0.005955
73	0.404922	0.005000	9.360386	-0.392400	-3.235654	-1.227490	-0.341167	1.333546	0.005732	-0.017449	0.000124
74	0.409922	0.005000	9.417600	-0.376836	-3.202116	-1.227271	-0.341386	1.333179	0.006434	-0.007922	-0.004779
75	0.414922	0.005000	9.352583	-0.313920	-3.244606	-1.227051	-0.341606	1.332811	0.013071	-0.008428	0.010016
76	0.419922	0.005000	9.339120	-0.381182	-3.228898	-1.226832	-0.341825	1.332444	0.003429	-0.009731	0.005509
77	0.424922	0.005000	9.269807	-0.383233	-3.305327	-1.226613	-0.342044	1.332077	0.008291	-0.007224	0.007858
78	0.429922	0.005000	9.221400	-0.399259	-3.178440	-1.226393	-0.342264	1.331709	0.018909	-0.012416	0.008202
79	0.434922	0.005000	9.309592	-0.387544	-3.183296	-1.226174	-0.342483	1.331342	0.011324	-0.007911	0.003987
80	0.439922	0.005000	9.299880	-0.355670	-3.220190	-1.225955	-0.342702	1.330975	0.011153	-0.010294	-0.001302
81	0.444922	0.005000	9.378360	-0.392400	-3.178256	-1.225735	-0.342922	1.330607	0.000092	-0.006169	0.002840
82	0.449922	0.005000	9.303584	-0.355012	-3.174736	-1.225516	-0.343141	1.330240	0.002115	-0.011386	0.007446
83	0.454922	0.005000	9.190571	-0.318125	-3.178440	-1.225259	-0.343094	1.329915	-0.013782	-0.012388	0.002156
84	0.459922	0.005000	9.312281	-0.334558	-3.184641	-1.224930	-0.342545	1.329670	0.003644	-0.004969	-0.004466
85	0.464922	0.005000	9.339120	-0.257447	-3.169824	-1.224601	-0.341997	1.329425	0.013746	-0.014069	0.007421
86	0.469922	0.005000	9.349680	-0.264120	-3.149760	-1.224272	-0.341449	1.329180	-0.005132	-0.004503	0.002537
87	0.474922	0.005000	9.365392	-0.326888	-3.126232	-1.223943	-0.340900	1.328935	0.015009	-0.007324	0.000718
88	0.479922	0.005000	9.348536	-0.313920	-3.275752	-1.223614	-0.340352	1.328691	0.002995	-0.017792	0.010421
89	0.484922	0.005000	9.434916	-0.379693	-3.283453	-1.223285	-0.339804	1.328446	0.004623	-0.009186	0.011319
90	0.489922	0.005000	9.378118	-0.431882	-3.296160	-1.222956	-0.339255	1.328201	0.008685	-0.011890	0.013876
91	0.494922	0.005000	9.317449	-0.439843	-3.256920	-1.222627	-0.338707	1.327956	-0.000751	-0.005771	0.004066
92	0.499922	0.005000	9.378360	-0.401326	-3.265846	-1.222298	-0.338159	1.327711	0.010650	-0.008158	0.002307
93	0.504922	0.005000	9.365147	-0.313920	-3.165625	-1.221969	-0.337610	1.327466	0.004981	-0.000509	0.008066
94	0.509922	0.005000	9.428405	-0.285485	-3.246115	-1.221641	-0.337062	1.327221	-0.001039	-0.008088	0.000712
95	0.514922	0.005000	9.360843	-0.344401	-3.156717	-1.221312	-0.336514	1.326976	-0.000305	-0.009661	0.005249
96	0.519922	0.005000	9.299880	-0.425194	-3.263366	-1.220983	-0.335966	1.326732	0.002226	-0.011214	0.003178
97	0.524922	0.005000	9.413099	-0.387899	-3.169438	-1.221058	-0.335983	1.326757	0.034254	-0.001657	0.009477
98	0.529922	0.005000	9.382553	-0.392400	-3.217680	-1.221277	-0.336202	1.326880	0.008815	-0.004311	0.004130
99	0.534922	0.005000	9.378209	-0.353009	-3.334946	-1.221496	-0.336421	1.327002	0.022297	-0.004808	0.005476
100	0.539922	0.005000	9.376095	-0.350895	-3.254655	-1.221715	-0.336640	1.327124	0.009616	-0.007214	-0.002193
101	0.544922	0.005000	9.277475	-0.423223	-3.244294	-1.221935	-0.336860	1.327247	0.012327	-0.008678	-0.014271
102	0.549922	0.005000	9.378360	-0.399014	-3.289546	-1.222154	-0.337079	1.327369	0.008482	-0.016118	-0.000800
103	0.554922	0.005000	9.487170	-0.453060	-3.208770	-1.222373	-0.337298	1.327492	0.009270	0.001692	-0.007547
104	0.559922	0.005000	9.378360	-0.364122	-3.139200	-1.222593	-0.337518	1.327614	0.011711	-0.007283	0.006380
105	0.564922	0.005000	9.365562	-0.353160	-3.151998	-1.222812	-0.337737	1.327736	-0.009382	-0.003995	0.004501
106	0.569922	0.005000	9.291279	-0.337840	-3.139200	-1.223031	-0.337956	1.327859	-0.001021	-0.012112	0.005219
107	0.574922	0.005000	9.282363	-0.370677	-3.221885	-1.223251	-0.338176	1.327981	0.012905	-0.009566	0.002326
108	0.579922	0.005000	9.299987	-0.372834	-3.237354	-1.223470	-0.338395	1.328104	0.007088	-0.002824	-0.005126
109	0.584922	0.005000	9.344048	-0.296764	-3.195596	-1.223689	-0.338614	1.328226	0.017673	-0.012606	0.001139
110	0.589922	0.005000	9.384757	-0.265865	-3.202468	-1.223922	-0.338847	1.328348	0.002002	-0.004419	-0.003475
111	0.594922	0.005000	9.365561	-0.339519	-3.099960	-1.224251	-0.339176	1.328471	0.017418	-0.012519	0.002001
112	0.599922	0.005000	9.328395	-0.410190	-3.099960	-1.224580	-0.339505	1.328593	0.005868	-0.006601	0.001180
113	0.604922	0.005000	9.299880	-0.361608	-3.209232	-1.224909	-0.339834	1.328716	0.014245	-0.004125	-0.003144
114	0.609922	0.005000	9.372328	-0.404464	-3.238823	-1.225238	-0.340163	1.328838	0.011877	-0.013228	0.003089
115	0.614922	0.005000	9.339120	-0.431640	-3.217680	-1.225567	-0.340492	1.328961	0.005031	0.000624	0.000775
116	0.619922	0.005000	9.339120	-0.392400	-3.175072	-1.225896	-0.340821	1.329083	0.014138	-0.007867	0.004410
117	0.624922	0.005000	9.378100	-0.392400	-3.138940	-1.226225	-0.341150	1.329206	0.004342	-0.014512	0.004789
118	0.629922	0.005000	9.454208	-0.316552	-3.178440	-1.226554	-0.341479	1.329328	0.005790	-0.008911	0.011070
119	0.634922	0.005000	9.408383	-0.313920	-3.104568	-1.226883	-0.341808	1.329451	0.011341	-0.001705	0.000501
120	0.639922	0.005000	9.339120	-0.353160	-3.053777	-1.227212	-0.342137	1.329573	0.014532	-0.007450	-0.002152
121	0.644922	0.005000	9.369392	-0.422672	-3.356703	-1.227540	-0.342466	1.329696	0.015002	-0.012415	0.006307
122	0.649922	0.005000	9.334006	-0.325295	-3.251806	-1.227869	-0.342795	1.329818	-0.003365	-0.003130	0.003688
123	0.654922	0.005000	9.325800	-0.456841	-3.243600	-1.228198	-0.343124	1.329941	0.017410	-0.008364	-0.002582
124	0.659922	0.005000	9.401867	-0.384625	-3.209905	-1.228189	-0.343115	1.329937	0.012030	-0.009257	0.001911
125	0.664922	0.005000	9.435276	-0.392400	-3.156876	-1.227860	-0.342786	1.329814	0.007728	-0.004995	0.004512
126	0.669922	0.005000	9.358273	-0.393334	-3.255986	-1.227531	-0.342457	1.329692	0.012771	-0.009163	0.007611
127	0.674922	0.005000	9.378360	-0.257677	-3.369406	-1.227202	-0.342128	1.329570	0.006410	-0.010830	0.001854
128	0.679922	0.005000	9.496080	-0.328719	-3.296160	-1.226873	-0.341799	1.329447	0.018433	-0.009113	0.012246
129	0.684922	0.005000	9.432546	-0.379693	-3.309986	-1.226544	-0.341470	1.329325	0.002294	-0.005126	0.005455
130	0.689922	0.005000	9.349562	-0.402842	-3.099960	-1.226215	-0.341141	1.329202	0.016549	-0.001981	0.008273
131	0.694922	0.005000	9.386398	-0.439678	-3.107998	-1.225886	-0.340812	1.329080	0.016600	-0.010795	0.003836
132	0.699922	0.005000	9.372267	-0.464787	-3.145293	-1.225557	-0.340483	1.328957	0.006887	-0.004938	-0.002803
133	0.704922	0.005000	9.421288	-0.356848	-3.153953	-1.225228	-0.340154	1.328835	0.011733	-0.001695	0.010776
134	0.709922	0.005000	9.378360	-0.390675	-3.372915	-1.224899	-0.339825	1.328712	0.003705	-0.005214	0.001693
135	0.714922	0.005000	9.378360	-0.468860	-3.219700	-1.224571	-0.339496	1.328590	0.015090	-0.011251	0.004957
136	0.719922	0.005000	9.333886	-0.353160	-3.183674	-1.224242	-0.339167	1.328467	0.010516	-0.018197	0.002252
137	0.724922	0.005000	9.349163	-0.421597	-3.212658	-1.223913	-0.338838	1.328345	0.012815	-0.007563	-0.005986
138	0.729922	0.005000	9.361175	-0.360512	-3.374640	-1.223683	-0.338806	1.328776	0.017359	-0.005661	0.006733
139	0.734922	0.005000	9.359597	-0.313920	-3.256920	-1.223463	-0.338806	1.329266	0.006943	-0.011062	0.005366
140	0.739922	0.005000	9.405952	-0.396696	-3.284512	-1.223244	-0.338806	1.329756	0.016618	-0.011901	0.006034
141	0.744922	0.005000	9.339120	-0.378667	-3.270653	-1.223024	-0.338806	1.330246	0.008011	-0.007317	0.001616
142	0.749922	0.005000	9.378360	-0.306972	-3.249972	-1.222805	-0.338806	1.330736	0.020900	-0.010581	-0.002413
143	0.754922	0.005000	9.260640	-0.277741	-3.241891	-1.222586	-0.338806	1.331226	0.000866	-0.005585	0.004484
144	0.759922	0.005000	9.337359	-0.390639	-3.198940	-1.222366	-0.338806	1.331716	0.005508	-0.011512	0.000211
145	0.764922	0.005000	9.316490	-0.431640	-3.195050	-1.222147	-0.338806	1.332206	0.012536	-0.017132	0.009260
146	0.769922	0.005000	9.417600	-0.378008	-3.217680	-1.221927	-0.338806	1.332696	0.016039	-0.012452	0.013222
147	0.774922	0.005000	9.393003	-0.365458	-3.271563	-1.221708	-0.338806	1.333186	0.017453	-0.006218	0.013374
148	0.779922	0.005000	9.359199	-0.293841	-3.197601	-1.221489	-0.338806	1.333676	0.010866	-0.008858	0.014915
149	0.784922	0.005000	9.307504	-0.392400	-3.170816	-1.221269	-0.338806	1.334166	0.012307	-0.005080	0.007920
150	0.789922	0.005000	9.417600	-0.482104	-3.195277	-1.221050	-0.338806	1.334656	0.021776	-0.011631	0.006804
151	0.794922	0.005000	9.381635	-0.431640	-3.328850	-1.220863	-0.338839	1.334707	-0.010559	-0.007655	0.003020
152	0.799922	0.005000	9.493448	-0.430324	-3.216364	-1.220754	-0.338948	1.333728	0.006277	-0.005356	0.006064
153	0.804922	0.005000	9.341293	-0.468707	-3.216593	-1.220644	-0.339058	1.332749	-0.003204	-0.004842	0.006390
154	0.809922	0.005000	9.335671	-0.281578	-3.217680	-1.220534	-0.339168	1.331770	-0.001349	-0.017069	0.024285
155	0.814922	0.005000	9.237705	-0.313920	-3.251485	-1.220425	-0.339277	1.330791	0.017666	-0.011400	0.017729
156	0.819922	0.005000	9.292029	-0.478716	-3.209829	-1.220315	-0.339387	1.329811	0.013530	-0.007196	0.001295
157	0.824922	0.005000	9.289745	-0.431640	-3.267055	-1.220205	-0.339497	1.328832	0.014225	-0.013997	0.010751
158	0.829922	0.005000	9.390562	-0.377564	-3.256920	-1.220096	-0.339606	1.327853	0.008359	-0.009936	0.013134
159	0.834922	0.005000	9.353726	-0.363188	-3.232286	-1.219986	-0.339716	1.326874	0.014829	-0.018597	0.011980
160	0.839922	0.005000	9.339120	-0.415090	-3.296160	-1.219876	-0.339826	1.325895	0.006465	-0.017100	0.003365
161	0.844922	0.005000	9.320158	-0.372122	-3.296160	-1.219767	-0.339935	1.324916	0.008489	-0.007088	0.002951
162	0.849922	0.005000	9.299880	-0.392400	-3.293165	-1.219657	-0.340045	1.323936	0.018305	-0.015034	0.009800
163	0.854922	0.005000	9.339120	-0.337237	-3.351323	-1.219547	-0.340155	1.322957	0.004901	-0.010061	0.005413
164	0.859922	0.005000	9.350738	-0.406211	-3.374640	-1.219438	-0.340264	1.321978	0.017669	-0.009002	0.016421
165	0.864922	0.005000	9.327550	-0.392400	-3.300690	-1.219553	-0.340075	1.322168	0.027360	-0.007089	0.002124
166	0.869922	0.005000	9.200471	-0.392400	-3.296160	-1.219772	-0.339746	1.322903	0.021214	-0.008460	0.004452
167	0.874922	0.005000	9.260640	-0.353160	-3.320978	-1.219991	-0.339417	1.323638	0.015284	-0.011700	0.016003
168	0.879922	0.005000	9.260640	-0.422029	-3.247309	-1.220211	-0.339088	1.324372	0.010253	-0.006981	0.010823
169	0.884922	0.005000	9.271955	-0.355989	-3.147686	-1.220430	-0.338759	1.325107	0.013526	-0.008286	0.014569
170	0.889922	0.005000	9.417156	-0.353160	-3.296160	-1.220649	-0.338430	1.325842	-0.005524	-0.009425	0.015911
171	0.894922	0.005000	9.340620	-0.315420	-3.220680	-1.220868	-0.338101	1.326576	0.012119	-0.013206	0.012217
172	0.899922	0.005000	9.303784	-0.435544	-3.374640	-1.221088	-0.337772	1.327311	0.014706	-0.005741	0.015040
173	0.904922	0.005000	9.339120	-0.359006	-3.274459	-1.221307	-0.337443	1.328046	0.011747	-0.005820	0.006236
174	0.909922	0.005000	9.392843	-0.369664	-3.248668	-1.221526	-0.337114	1.328781	0.019016	-0.006554	0.010163
175	0.914922	0.005000	9.407056	-0.324464	-3.324856	-1.221746	-0.336785	1.329515	0.012575	-0.010509	0.005099
176	0.919922	0.005000	9.285861	-0.353160	-3.310179	-1.221965	-0.336456	1.330250	0.027501	-0.007601	0.009727
177	0.924922	0.005000	9.260640	-0.368179	-3.335400	-1.222184	-0.336127	1.330985	0.013982	-0.010726	0.008293
178	0.929922	0.005000	9.265953	-0.476193	-3.239956	-1.222372	-0.335813	1.331650	0.003917	-0.006073	0.001878
179	0.934922	0.005000	9.378360	-0.392400	-3.276295	-1.222153	-0.335703	1.331405	0.013509	-0.011536	0.011850
180	0.939922	0.005000	9.382172	-0.392400	-3.239206	-1.221934	-0.335594	1.331160	-0.001442	-0.006893	-0.003006
181	0.944922	0.005000	9.330898	-0.400622	-3.225902	-1.221714	-0.335484	1.330915	0.009302	-0.008691	0.002780
182	0.949922	0.005000	9.378360	-0.326355	-3.178440	-1.221495	-0.335374	1.330670	0.009560	-0.006069	-0.000293
183	0.954922	0.005000	9.327963	-0.296994	-3.178440	-1.221276	-0.335265	1.330425	0.009295	-0.005470	-0.003905
184	0.959922	0.005000	9.400116	-0.283422	-3.217680	-1.221056	-0.335155	1.330180	0.003970	-0.006630	-0.000863
185	0.964922	0.005000	9.260640	-0.366593	-3.171724	-1.220837	-0.335045	1.329935	0.007536	-0.007223	0.003348
186	0.969922	0.005000	9.304274	-0.322708	-3.243738	-1.220618	-0.334936	1.329690	0.021818	-0.011691	0.001938
187	0.974922	0.005000	9.336700	-0.463619	-3.144041	-1.220399	-0.334826	1.329445	0.004148	0.004103	0.002368
188	0.979922	0.005000	9.339074	-0.353160	-3.296252	-1.220179	-0.334716	1.329200	0.013673	-0.004429	0.006253
189	0.984922	0.005000	9.262985	-0.316265	-3.263954	-1.219960	-0.334607	1.328955	0.006730	-0.010680	0.003630
190	0.989922	0.005000	9.334804	-0.427324	-3.248288	-1.219741	-0.334497	1.328710	0.012036	0.002603	0.005386
191	0.994922	0.005000	9.339120	-0.385679	-3.282718	-1.219521	-0.334387	1.328465	0.008479	0.003721	0.001041
192	0.999922	0.005000	9.290849	-0.401431	-3.196502	-1.220312	-0.335237	1.328728	0.031535	-0.003420	-0.001001
193	1.004922	0.005000	9.406520	-0.364240	-3.122120	-1.222286	-0.337211	1.329585	0.019377	-0.007298	0.004987
194	1.009922	0.005000	9.352608	-0.288168	-3.204192	-1.224260	-0.339185	1.330442	0.007687	0.002180	0.004929
195	1.014922	0.005000	9.315313	-0.353160	-3.139200	-1.226233	-0.341158	1.331299	0.004148	-0.005820	0.005114
196	1.019922	0.005000	9.356965	-0.374555	-3.260471	-1.228207	-0.343132	1.332156	0.012503	-0.006328	0.000017
197	1.024922	0.005000	9.319107	-0.411627	-3.159213	-1.230181	-0.345106	1.333014	0.007683	-0.003174	0.002322
198	1.029922	0.005000	9.322080	-0.409440	-3.161400	-1.232155	-0.347080	1.333871	0.010986	-0.010070	0.008187
199	1.034922	0.005000	9.329142	-0.377769	-3.217680	-1.234129	-0.349054	1.334728	0.004785	-0.002732	-0.004260
200	1.039922	0.005000	9.379524	-0.472044	-3.349256	-1.236103	-0.351028	1.335585	0.011178	-0.009343	-0.002446
201	1.044922	0.005000	9.281209	-0.382116	-3.248533	-1.238077	-0.353002	1.336442	-0.000579	-0.002511	-0.001948
202	1.049922	0.005000	9.394849	-0.400644	-3.374640	-1.240051	-0.354976	1.337300	0.004431	-0.003904	-0.003046
203	1.054922	0.005000	9.529395	-0.353160	-3.368715	-1.242024	-0.356949	1.338157	0.012893	-0.007437	0.002749
204	1.059922	0.005000	9.449800	-0.395920	-3.185480	-1.243998	-0.358923	1.339014	0.000584	-0.006105	-0.007206
205	1.064922	0.005000	9.301456	-0.428487	-3.140776	-1.245972	-0.360897	1.339871	0.015194	-0.012408	0.000788
206	1.069922	0.005000	9.377528	-0.276344	-3.178440	-1.245151	-0.359797	1.339376	-0.000152	-0.007863	-0.013931
207	1.074922	0.005000	9.339120	-0.465309	-3.105531	-1.243835	-0.358152	1.338641	0.026593	-0.016681	-0.008129
208	1.079922	0.005000	9.378360	-0.426450	-3.290970	-1.242519	-0.356507	1.337906	0.020509	-0.006179	-0.001383
209	1.084922	0.005000	9.417600	-0.431640	-3.193476	-1.241203	-0.354862	1.337172	0.020523	-0.003704	-0.001319
210	1.089922	0.005000	9.318980	-0.411500	-3.187990	-1.239887	-0.353217	1.336437	0.017727	-0.010360	0.001185
211	1.094922	0.005000	9.260640	-0.431640	-3.260717	-1.238571	-0.351572	1.335702	0.008871	-0.004892	-0.002476
212	1.099922	0.005000	9.235302	-0.341723	-3.282258	-1.237255	-0.349927	1.334968	0.012955	-0.010141	0.002138
213	1.104922	0.005000	9.313103	-0.330234	-3.233994	-1.235939	-0.348282	1.334233	0.009513	-0.005399	0.008543
214	1.109922	0.005000	9.380599	-0.274680	-3.238419	-1.234623	-0.346638	1.333498	0.008793	-0.003384	0.006349
215	1.114922	0.005000	9.438261	-0.293259	-3.159861	-1.233308	-0.344993	1.332763	0.015996	-0.005685	0.007859
216	1.119922	0.005000	9.316323	-0.336717	-3.145553	-1.231992	-0.343348	1.332029	0.014255	-0.001145	-0.004559
217	1.124922	0.005000	9.303309	-0.328143	-3.217680	-1.230676	-0.341703	1.331294	0.009330	-0.003113	0.001868
218	1.129922	0.005000	9.366545	-0.298310	-3.253125	-1.229360	-0.340058	1.330559	0.006203	-0.009234	0.001291
219	1.134922	0.005000	9.378605	-0.392400	-3.256920	-1.228253	-0.338780	1.330175	0.006021	-0.010696	0.005235
220	1.139922	0.005000	9.370904	-0.424184	-3.232592	-1.227815	-0.338670	1.330910	0.002158	-0.007655	-0.005991
221	1.144922	0.005000	9.310772	-0.403292	-3.363748	-1.227376	-0.338560	1.331645	0.008538	-0.004681	0.000133
222	1.149922	0.005000	9.345334	-0.425426	-3.296160	-1.226937	-0.338451	1.332380	0.017049	-0.004941	0.000639
223	1.154922	0.005000	9.261329	-0.315298	-3.294782	-1.226499	-0.338341	1.333114	0.005233	-0.001181	0.002356
224	1.159922	0.005000	9.375850	-0.392400	-3.369620	-1.226060	-0.338231	1.333849	0.011483	-0.006651	0.007262
225	1.164922	0.005000	9.292562	-0.353160	-3.299819	-1.225622	-0.338122	1.334584	-0.005862	-0.012994	0.010932
226	1.169922	0.005000	9.372756	-0.426036	-3.296160	-1.225183	-0.338012	1.335318	0.009698	-0.016050	0.002092
227	1.174922	0.005000	9.378360	-0.329959	-3.350582	-1.224744	-0.337902	1.336053	0.007321	-0.011687	0.003234
228	1.179922	0.005000	9.388662	-0.324222	-3.277523	-1.224306	-0.337793	1.336788	-0.001675	-0.009337	0.009955
229	1.184922	0.005000	9.496080	-0.419269	-3.281661	-1.223867	-0.337683	1.337523	0.006655	-0.017615	0.002986
230	1.189922	0.005000	9.363586	-0.456106	-3.168749	-1.223428	-0.337573	1.338257	0.005499	-0.005682	-0.001465
231	1.194922	0.005000	9.412336	-0.414652	-3.156188	-1.222990	-0.337463	1.338992	0.014365	-0.007312	0.005390
232	1.199922	0.005000	9.418579	-0.431640	-3.277030	-1.222551	-0.337354	1.339727	0.018813	-0.004181	0.006281
233	1.204922	0.005000	9.425286	-0.392400	-3.313859	-1.222388	-0.337382	1.339385	0.020229	0.000815	0.005770
234	1.209922	0.005000	9.347143	-0.400132	-3.225412	-1.222388	-0.337492	1.338405	0.014153	-0.002474	0.003749
235	1.214922	0.005000	9.299880	-0.366505	-3.099960	-1.222388	-0.337601	1.337426	0.012224	-0.009684	-0.000971
236	1.219922	0.005000	9.322420	-0.448340	-3.161740	-1.222388	-0.337711	1.336446	0.018398	-0.019507	0.008869
237	1.224922	0.005000	9.308867	-0.431640	-3.169453	-1.222388	-0.337821	1.335466	0.014464	-0.006248	0.004818
238	1.229922	0.005000	9.267221	-0.418723	-3.067301	-1.222388	-0.337930	1.334487	0.008665	-0.002612	0.007727
239	1.234922	0.005000	9.230567	-0.466296	-3.079054	-1.222388	-0.338040	1.333507	-0.001041	-0.010401	0.015287
240	1.239922	0.005000	9.413160	-0.505680	-3.219900	-1.222388	-0.338150	1.332528	0.017368	0.002987	0.005109
241	1.244922	0.005000	9.261003	-0.353523	-3.217862	-1.222388	-0.338259	1.331548	0.016117	-0.011336	0.008552
242	1.249922	0.005000	9.262768	-0.313920	-3.182696	-1.222388	-0.338369	1.330569	0.003914	-0.006932	0.000304
243	1.254922	0.005000	9.251549	-0.239985	-3.178440	-1.222388	-0.338479	1.329589	0.009640	-0.010639	-0.000988
244	1.259922	0.005000	9.273592	-0.392400	-3.217680	-1.222388	-0.338589	1.328609	0.007352	-0.006222	0.005892
245	1.264922	0.005000	9.299880	-0.449423	-3.187332	-1.222388	-0.338698	1.327630	0.016374	-0.007312	0.004563
246	1.269922	0.005000	9.311044	-0.364324	-3.245756	-1.222386	-0.338806	1.326673	0.011825	-0.005418	0.004070
247	1.274922	0.005000	9.313434	-0.313920	-3.347532	-1.222276	-0.338806	1.327041	-0.006217	-0.009215	0.000657
248	1.279922	0.005000	9.378360	-0.431640	-3.374640	-1.222167	-0.338806	1.327408	0.011102	-0.019688	0.001052
249	1.284922	0.005000	9.414060	-0.410250	-3.292620	-1.222057	-0.338806	1.327775	0.000512	-0.007264	0.008350
250	1.289922	0.005000	9.300661	-0.430859	-3.296941	-1.221948	-0.338806	1.328143	0.010970	-0.009730	-0.001789
251	1.294922	0.005000	9.266257	-0.398001	-3.262521	-1.221838	-0.338806	1.328510	0.012044	-0.010780	0.002718
252	1.299922	0.005000	9.417600	-0.328624	-3.202976	-1.221728	-0.338806	1.328877	0.007109	-0.008582	-0.003449
253	1.304922	0.005000	9.312194	-0.313920	-3.266934	-1.221619	-0.338806	1.329245	0.013900	-0.012853	0.008508
254	1.309922	0.005000	9.280003	-0.411763	-3.295646	-1.221509	-0.338806	1.329612	0.007850	-0.007597	-0.002943
255	1.314922	0.005000	9.346760	-0.400040	-3.170800	-1.221400	-0.338806	1.329979	0.021920	-0.014403	-0.001575
256	1.319922	0.005000	9.478994	-0.420249	-3.184135	-1.221290	-0.338806	1.330347	0.016474	-0.004599	0.004437
257	1.324922	0.005000	9.381650	-0.392400	-3.250339	-1.221180	-0.338806	1.330714	0.009942	-0.013704	-0.003011
258	1.329922	0.005000	9.260640	-0.433385	-3.140945	-1.221071	-0.338806	1.331082	0.009741	-0.013426	0.018019
259	1.334922	0.005000	9.337007	-0.471936	-3.217680	-1.220961	-0.338806	1.331449	0.014770	-0.005560	0.014152
260	1.339922	0.005000	9.414166	-0.324222	-3.210812	-1.220762	-0.338851	1.331568	0.030006	-0.012656	0.006405
261	1.344922	0.005000	9.344538	-0.386982	-3.296160	-1.220433	-0.338960	1.331323	0.011173	-0.008444	0.004730
262	1.349922	0.005000	9.331296	-0.400224	-3.256920	-1.220104	-0.339070	1.331078	0.015396	-0.005981	0.002042
263	1.354922	0.005000	9.368240	-0.421520	-3.256920	-1.219775	-0.339180	1.330833	0.016787	-0.013265	0.000805
264	1.359922	0.005000	9.429782	-0.377524	-3.178440	-1.219446	-0.339289	1.330588	0.007764	-0.007710	0.005003
265	1.364922	0.005000	9.304412	-0.328511	-3.099960	-1.219117	-0.339399	1.330343	0.021528	-0.012894	0.004559
266	1.369922	0.005000	9.367181	-0.398027	-3.256920	-1.218788	-0.339509	1.330098	0.012599	-0.006724	-0.000329
267	1.374922	0.005000	9.455493	-0.332867	-3.198733	-1.218459	-0.339618	1.329853	0.014173	-0.011091	-0.001387
268	1.379922	0.005000	9.399718	-0.335278	-3.239038	-1.218130	-0.339728	1.329608	0.023128	-0.007153	0.000447
269	1.384922	0.005000	9.244893	-0.345415	-3.272667	-1.217801	-0.339838	1.329363	0.011771	-0.022770	0.003582
270	1.389922	0.005000	9.248458	-0.430293	-3.296160	-1.217472	-0.339947	1.329118	0.004103	-0.010330	0.001789
271	1.394922	0.005000	9.395370	-0.448650	-3.285045	-1.217143	-0.340057	1.328873	0.008739	-0.008991	-0.001510
272	1.399922	0.005000	9.318222	-0.383229	-3.326229	-1.216814	-0.340167	1.328628	0.014161	-0.013198	-0.005132
273	1.404922	0.005000	9.332353	-0.418106	-3.289393	-1.216485	-0.340277	1.328383	0.001075	-0.010557	0.004677
274	1.409922	0.005000	9.270170	-0.353160	-3.252155	-1.216767	-0.340299	1.328430	0.007577	-0.000601	0.000062
275	1.414922	0.005000	9.412764	-0.277098	-3.330564	-1.217206	-0.340299	1.328553	0.005208	-0.009373	0.000788
276	1.419922	0.005000	9.417600	-0.470880	-3.256920	-1.217645	-0.340299	1.328676	0.003273	-0.014105	-0.010165
277	1.424922	0.005000	9.336745	-0.394775	-3.102335	-1.218083	-0.340299	1.328798	0.011792	-0.005698	-0.001887
278	1.429922	0.005000	9.404556	-0.466532	-3.099960	-1.218522	-0.340299	1.328921	0.009591	-0.002779	-0.004153
279	1.434922	0.005000	9.371674	-0.438326	-3.178440	-1.218961	-0.340299	1.329043	0.014232	-0.011814	0.000334
280	1.439922	0.005000	9.299880	-0.370576	-3.235096	-1.219400	-0.340299	1.329166	0.001656	-0.006621	0.002221
281	1.444922	0.005000	9.378360	-0.448650	-3.139200	-1.219839	-0.340299	1.329288	0.005641	-0.007597	-0.004362
282	1.449922	0.005000	9.339120	-0.405772	-3.243548	-1.220278	-0.340299	1.329411	0.018295	-0.001212	0.005152
283	1.454922	0.005000	9.441367	-0.416167	-3.265215	-1.220716	-0.340299	1.329533	0.014406	-0.003068	-0.002890
284	1.459922	0.005000	9.442433	-0.328327	-3.235562	-1.221155	-0.340299	1.329656	0.009622	-0.008533	-0.000136
285	1.464922	0.005000	9.516139	-0.392400	-3.236861	-1.221594	-0.340299	1.329778	0.016666	-0.003788	-0.000383
286	1.469922	0.005000	9.439837	-0.392400	-3.234683	-1.222033	-0.340299	1.329901	0.014946	-0.013714	-0.014071
287	1.474922	0.005000	9.363475	-0.446525	-3.232565	-1.222388	-0.340320	1.329930	-0.004514	-0.010657	0.005533
288	1.479922	0.005000	9.364433	-0.497463	-3.139200	-1.222388	-0.340430	1.329563	0.006860	-0.005311	-0.011822
289	1.484922	0.005000	9.398845	-0.460637	-3.287648	-1.222388	-0.340539	1.329195	0.017453	-0.013788	-0.000197
290	1.489922	0.005000	9.417600	-0.384201	-3.296160	-1.222388	-0.340649	1.328828	0.006775	-0.005438	-0.000034
291	1.494922	0.005000	9.390144	-0.347268	-3.251028	-1.222388	-0.340758	1.328461	0.009448	-0.015250	-0.007414
292	1.499922	0.005000	9.485654	-0.313920	-3.253445	-1.222388	-0.340868	1.328093	0.017949	-0.004300	0.004369
293	1.504922	0.005000	9.379873	-0.351647	-3.296160	-1.222388	-0.340978	1.327726	0.008648	-0.012008	-0.002356
294	1.509922	0.005000	9.340865	-0.313920	-3.334527	-1.222388	-0.341087	1.327358	0.012827	-0.014548	0.001245
295	1.514922	0.005000	9.368603	-0.356412	-3.191449	-1.222388	-0.341197	1.326991	0.008082	-0.015171	-0.001268
296	1.519922	0.005000	9.373126	-0.313920	-3.207212	-1.222388	-0.341306	1.326624	0.014693	-0.016549	0.007926
297	1.524922	0.005000	9.480800	-0.329200	-3.154480	-1.222388	-0.341416	1.326256	0.015313	-0.015613	0.012663
298	1.529922	0.005000	9.358997	-0.274680	-3.237043	-1.222388	-0.341526	1.325889	0.030927	-0.014355	0.001025
299	1.534922	0.005000	9.342364	-0.301921	-3.205681	-1.222388	-0.341635	1.325522	0.015044	-0.022648	0.011534
300	1.539922	0.005000	9.299880	-0.353160	-3.281753	-1.222388	-0.341745	1.325154	0.015678	-0.019722	0.005506
301	1.544922	0.005000	9.378360	-0.437630	-3.250930	-1.222134	-0.341664	1.325213	0.050464	-0.029059	0.010709
302	1.549922	0.005000	9.378360	-0.330945	-3.236435	-1.221695	-0.341444	1.325581	0.017102	-0.030945	0.000296
303	1.554922	0.005000	9.363377	-0.313920	-3.253829	-1.221256	-0.341225	1.325948	0.020679	-0.027416	0.007344
304	1.559922	0.005000	9.363656	-0.337216	-3.296160	-1.220817	-0.341006	1.326316	0.016062	-0.026126	0.001932
305	1.564922	0.005000	9.339120	-0.366714	-3.361086	-1.220378	-0.340786	1.326683	0.011599	-0.024356	0.006217
306	1.569922	0.005000	9.339120	-0.353160	-3.234300	-1.219939	-0.340567	1.327051	0.012320	-0.027024	0.009215
307	1.574922	0.005000	9.326566	-0.313920	-3.178440	-1.219501	-0.340347	1.327418	0.013268	-0.028944	0.009230
308	1.579922	0.005000	9.313616	-0.392400	-3.178440	-1.219062	-0.340128	1.327786	0.018438	-0.038528	0.018364
309	1.584922	0.005000	9.378360	-0.422549	-3.213135	-1.218623	-0.339908	1.328153	0.016769	-0.027190	0.005323
310	1.589922	0.005000	9.336992	-0.388144	-3.221936	-1.218184	-0.339689	1.328521	0.029201	-0.029149	0.009481
311	1.594922	0.005000	9.417600	-0.392582	-3.217498	-1.217745	-0.339470	1.328888	0.013121	-0.026811	0.001529
312	1.599922	0.005000	9.417600	-0.357600	-3.215460	-1.217307	-0.339250	1.329256	0.027902	-0.023451	0.012035
313	1.604922	0.005000	9.373776	-0.383233	-3.351722	-1.216868	-0.339031	1.329623	0.025227	-0.021776	0.006802
314	1.609922	0.005000	9.449881	-0.507609	-3.030950	-1.216429	-0.338811	1.329991	0.010887	-0.024039	0.003933
315	1.614922	0.005000	9.326841	-0.470880	-3.199706	-1.216953	-0.338592	1.330000	0.019726	-0.027291	0.012519
316	1.619922	0.005000	9.361660	-0.398239	-3.256920	-1.217501	-0.338373	1.330000	0.017477	-0.027467	0.007860
317	1.624922	0.005000	9.443505	-0.444210	-3.178440	-1.218049	-0.338154	1.330000	0.013713	-0.029896	0.000588
318	1.629922	0.005000	9.480332	-0.392400	-3.209936	-1.218598	-0.337934	1.330000	0.017087	-0.024031	0.002412
319	1.634922	0.005000	9.360419	-0.313920	-3.196381	-1.219146	-0.337715	1.330000	0.016895	-0.024612	0.004895
320	1.639922	0.005000	9.319018	-0.450778	-3.236818	-1.219694	-0.337496	1.330000	0.013394	-0.036197	0.012572
321	1.644922	0.005000	9.265904	-0.363689	-3.229404	-1.220243	-0.337276	1.330000	0.014860	-0.027220	0.005518
322	1.649922	0.005000	9.329448	-0.338376	-3.262032	-1.220791	-0.337057	1.330000	0.017625	-0.034741	-0.003209
323	1.654922	0.005000	9.351491	-0.444011	-3.352027	-1.221339	-0.336838	1.330000	0.015138	-0.025710	0.010166
324	1.659922	0.005000	9.299880	-0.313920	-3.223176	-1.221887	-0.336618	1.330000	0.015350	-0.032695	-0.004687
325	1.664922	0.005000	9.331101	-0.321939	-3.155239	-1.222436	-0.336399	1.330000	0.019390	-0.024845	0.000718
326	1.669922	0.005000	9.393297	-0.419488	-3.178440	-1.222984	-0.336180	1.330000	0.018031	-0.021650	0.006715
327	1.674922	0.005000	9.374701	-0.328557	-3.157496	-1.223532	-0.335960	1.330000	0.015802	-0.033999	-0.003197
328	1.679922	0.005000	9.337426	-0.464103	-3.371252	-1.223881	-0.335901	1.329955	0.000987	-0.031784	-0.000152
329	1.684922	0.005000	9.299880	-0.275369	-3.527466	-1.223881	-0.336120	1.329833	0.001832	-0.022016	0.003444
330	1.689922	0.005000	9.425500	-0.316553	-3.335400	-1.223881	-0.336339	1.329710	0.001337	-0.034666	0.015156
331	1.694922	0.005000	9.388434	-0.250551	-3.256920	-1.223881	-0.336559	1.329588	0.009267	-0.040786	0.001811
332	1.699922	0.005000	9.306861	-0.325234	-3.021480	-1.223881	-0.336778	1.329465	0.019846	-0.044788	0.009510
333	1.704922	0.005000	9.329723	-0.510120	-3.079514	-1.223881	-0.336997	1.329343	0.010636	-0.043277	0.003994
334	1.709922	0.005000	9.382611	-0.463468	-3.241006	-1.223881	-0.337217	1.329221	0.011606	-0.048081	0.016546
335	1.714922	0.005000	9.299880	-0.484629	-3.464863	-1.223881	-0.337436	1.329098	0.018424	-0.043927	0.020033
336	1.719922	0.005000	9.322959	-0.369321	-3.370049	-1.223881	-0.337655	1.328976	0.013278	-0.045872	0.010049
337	1.724922	0.005000	9.317985	-0.434670	-3.278055	-1.223881	-0.337875	1.328853	0.028571	-0.044745	0.014444
338	1.729922	0.005000	9.320396	-0.431640	-3.419254	-1.223881	-0.338094	1.328731	0.016267	-0.041440	0.015220
339	1.734922	0.005000	9.294200	-0.369940	-3.150560	-1.223881	-0.338313	1.328608	0.024758	-0.043691	0.016757
340	1.739922	0.005000	9.217528	-0.378029	-3.328773	-1.223881	-0.338533	1.328486	0.012623	-0.035608	0.016634
341	1.744922	0.005000	9.287597	-0.392400	-3.563337	-1.223881	-0.338752	1.328363	0.018670	-0.040376	0.014302
342	1.749922	0.005000	9.280666	-0.421627	-3.452309	-1.224872	-0.339384	1.330086	0.032354	-0.050282	0.019967
343	1.754922	0.005000	9.260640	-0.478852	-3.374640	-1.226188	-0.340152	1.332412	-0.001043	-0.023930	0.013229
344	1.759922	0.005000	9.316461	-0.420310	-3.223345	-1.227504	-0.340920	1.334739	0.018404	-0.031879	0.008977
345	1.764922	0.005000	9.299880	-0.395660	-3.364861	-1.228820	-0.341687	1.337066	0.010540	-0.030316	0.016692
346	1.769922	0.005000	9.301196	-0.432956	-3.330135	-1.230136	-0.342455	1.339392	0.017740	-0.023295	0.006327
347	1.774922	0.005000	9.339120	-0.432729	-3.216591	-1.231452	-0.343222	1.341719	0.023760	-0.030294	0.020403
348	1.779922	0.005000	9.227491	-0.431640	-3.317127	-1.232768	-0.343990	1.344046	0.003907	-0.027055	-0.002221
349	1.784922	0.005000	9.333670	-0.566798	-3.515249	-1.234083	-0.344758	1.346372	0.007196	-0.023881	0.001861
350	1.789922	0.005000	9.236951	-0.384262	-3.413880	-1.235399	-0.345525	1.348699	0.004793	-0.013381	-0.004162
351	1.794922	0.005000	9.260640	-0.392400	-3.384450	-1.236715	-0.346293	1.351025	0.009481	-0.016835	-0.003739
352	1.799922	0.005000	9.209182	-0.353160	-3.416467	-1.238031	-0.347061	1.353352	0.012838	-0.017590	0.006976
353	1.804922	0.005000	9.260640	-0.356406	-3.281998	-1.239347	-0.347828	1.355679	0.009089	-0.008774	-0.006605
354	1.809922	0.005000	9.351302	-0.336586	-3.234254	-1.240663	-0.348596	1.358005	0.004044	-0.009086	0.000761
355	1.814922	0.005000	9.357878	-0.469155	-3.376365	-1.241650	-0.349145	1.359738	-0.015225	-0.005733	0.001527
356	1.819922	0.005000	9.341738	-0.392400	-3.413880	-1.240664	-0.348377	1.357902	0.003471	-0.007096	0.004126
357	1.824922	0.005000	9.268078	-0.478318	-3.326937	-1.239677	-0.347610	1.356066	-0.007012	0.004730	-0.002859
358	1.829922	0.005000	9.271954	-0.325234	-3.282197	-1.238691	-0.346843	1.354230	0.010719	0.003882	-0.001893
359	1.834922	0.005000	9.339120	-0.337029	-3.268475	-1.237704	-0.346075	1.352394	-0.003737	0.002821	0.008598
360	1.839922	0.005000	9.358120	-0.411400	-3.374640	-1.236718	-0.345308	1.350558	-0.006163	0.005379	0.001752
361	1.844922	0.005000	9.228596	-0.345964	-3.438728	-1.235731	-0.344541	1.348723	0.002392	0.015030	-0.000234
362	1.849922	0.005000	9.226190	-0.466090	-3.330610	-1.234745	-0.343774	1.346887	-0.006271	0.017032	0.000773
363	1.854922	0.005000	9.372733	-0.392400	-3.371826	-1.233758	-0.343006	1.345051	0.001216	0.011922	-0.006931
364	1.859922	0.005000	9.221829	-0.393257	-3.373783	-1.232772	-0.342239	1.343215	0.005025	0.015688	-0.000222
365	1.864922	0.005000	9.260640	-0.545457	-3.296160	-1.231785	-0.341472	1.341379	-0.003766	0.020579	-0.006156
366	1.869922	0.005000	9.366602	-0.435559	-3.331481	-1.230799	-0.340705	1.339543	0.002330	0.008481	-0.003807
367	1.874922	0.005000	9.345383	-0.392400	-3.205155	-1.229812	-0.339937	1.337707	0.000393	0.018624	-0.011095
368	1.879922	0.005000	9.330840	-0.408959	-3.178440	-1.228826	-0.339170	1.335871	0.003048	0.022056	-0.005615
369	1.884922	0.005000	9.331940	-0.442327	-3.171260	-1.228070	-0.338691	1.334743	0.031804	0.022564	0.000573
370	1.889922	0.005000	9.325778	-0.497171	-3.178440	-1.227522	-0.338471	1.334253	0.010385	0.024105	-0.007726
371	1.894922	0.005000	9.354164	-0.500968	-3.241876	-1.226973	-0.338252	1.333763	0.003945	0.013483	-0.009969
372	1.899922	0.005000	9.395814	-0.492666	-3.283039	-1.226425	-0.338033	1.333273	-0.007890	0.020240	-0.002272
373	1.904922	0.005000	9.378360	-0.470880	-3.217680	-1.225877	-0.337813	1.332783	0.003094	0.009607	-0.012672
374	1.909922	0.005000	9.317318	-0.414202	-3.352838	-1.225329	-0.337594	1.332293	0.003048	0.013468	-0.002874
375	1.914922	0.005000	9.267326	-0.446949	-3.350709	-1.224780	-0.337375	1.331804	0.001559	0.017182	-0.006377
376	1.919922	0.005000	9.339120	-0.405485	-3.322315	-1.224232	-0.337156	1.331314	-0.006629	0.007277	0.005889
377	1.924922	0.005000	9.328449	-0.324591	-3.274818	-1.223684	-0.336936	1.330824	-0.007538	0.013351	-0.002738
378	1.929922	0.005000	9.339120	-0.274680	-3.256920	-1.223136	-0.336717	1.330334	0.009958	0.007031	0.000145
379	1.934922	0.005000	9.293559	-0.392400	-3.308801	-1.222587	-0.336498	1.329844	-0.003105	0.016865	-0.002237
380	1.939922	0.005000	9.233112	-0.349256	-3.327592	-1.222039	-0.336278	1.329354	0.009049	0.011705	-0.006446
381	1.944922	0.005000	9.303753	-0.390464	-3.294224	-1.221491	-0.336059	1.328865	0.014472	0.011344	-0.000119
382	1.949922	0.005000	9.378360	-0.275568	-3.295716	-1.220943	-0.335840	1.328375	-0.005036	0.012535	0.001291
383	1.954922	0.005000	9.339120	-0.311532	-3.259308	-1.220796	-0.336222	1.328445	0.000577	0.011832	0.005521
384	1.959922	0.005000	9.270251	-0.274680	-3.291354	-1.220686	-0.336661	1.328568	0.001691	0.019707	0.002096
385	1.964922	0.005000	9.356985	-0.253305	-3.139200	-1.220576	-0.337099	1.328690	-0.006868	0.008715	0.009355
386	1.969922	0.005000	9.387515	-0.283835	-3.247765	-1.220467	-0.337538	1.328812	0.003038	0.015064	0.010248
387	1.974922	0.005000	9.456840	-0.353160	-3.284601	-1.220357	-0.337977	1.328935	0.004920	0.016539	0.002985
388	1.979922	0.005000	9.379631	-0.301687	-3.297431	-1.220247	-0.338415	1.329057	0.001035	0.014156	0.006825
389	1.984922	0.005000	9.378360	-0.383891	-3.201764	-1.220137	-0.338854	1.329180	-0.002165	0.017268	-0.003715
390	1.989922	0.005000	9.278747	-0.371267	-3.202598	-1.220028	-0.339293	1.329302	-0.006643	0.020043	0.007904
391	1.994922	0.005000	9.340421	-0.410068	-3.317732	-1.219918	-0.339731	1.329425	-0.006121	0.028349	0.008439
392	1.999922	0.005000	9.333523	-0.397997	-3.296160	-1.219808	-0.340170	1.329547	0.011555	0.016636	-0.001571
393	2.004922	0.005000	9.363744	-0.323133	-3.281544	-1.219699	-0.340608	1.329670	0.000111	0.019585	0.008933
394	2.009922	0.005000	9.339120	-0.392400	-3.178440	-1.219589	-0.341047	1.329792	-0.000781	0.010579	-0.007292
395	2.014922	0.005000	9.407342	-0.392400	-3.238196	-1.219479	-0.341486	1.329915	-0.002409	0.005432	0.000316
396	2.019922	0.005000	9.299880	-0.392400	-3.374640	-1.219436	-0.341724	1.330037	-0.000575	0.018135	-0.009824
397	2.024922	0.005000	9.315764	-0.380722	-3.166762	-1.219546	-0.341505	1.330160	0.006222	0.020593	-0.000530
398	2.029922	0.005000	9.260640	-0.353160	-3.256920	-1.219656	-0.341285	1.330282	0.004290	0.024041	-0.000239
399	2.034922	0.005000	9.300967	-0.313920	-3.217680	-1.219766	-0.341066	1.330405	-0.000979	0.017185	0.000602
400	2.039922	0.005000	9.262355	-0.352303	-3.217680	-1.219875	-0.340847	1.330527	-0.002886	0.016556	0.001578
401	2.044922	0.005000	9.296619	-0.359682	-3.364857	-1.219985	-0.340627	1.330650	-0.002396	0.021709	-0.005827
402	2.049922	0.005000	9.305492	-0.347548	-3.341012	-1.220095	-0.340408	1.330772	0.008159	0.018213	-0.007303
403	2.054922	0.005000	9.284637	-0.329163	-3.374640	-1.220205	-0.340188	1.330895	0.012884	0.021770	-0.006074
404	2.059922	0.005000	9.319936	-0.450824	-3.433064	-1.220314	-0.339969	1.331017	0.006690	0.010544	-0.003846
405	2.064922	0.005000	9.299880	-0.522418	-3.399237	-1.220424	-0.339750	1.331140	0.010049	0.029939	-0.002488
406	2.069922	0.005000	9.320816	-0.489184	-3.321014	-1.220534	-0.339530	1.331263	-0.006223	0.031680	-0.001730
407	2.074922	0.005000	9.400805	-0.414845	-3.234475	-1.220644	-0.339311	1.331385	0.001621	0.014555	0.002667
408	2.079922	0.005000	9.356834	-0.451895	-3.256920	-1.220753	-0.339091	1.331508	-0.000879	0.024397	-0.004581
409	2.084922	0.005000	9.493019	-0.316981	-3.199590	-1.220863	-0.338872	1.331630	0.007759	0.015693	-0.001823
410	2.089922	0.005000	9.535320	-0.408359	-3.155159	-1.220743	-0.338729	1.331667	0.005279	0.022602	0.004451
411	2.094922	0.005000	9.456840	-0.392400	-3.125467	-1.220523	-0.338620	1.331667	-0.006027	0.017880	-0.004188
412	2.099922	0.005000	9.406275	-0.470880	-3.161850	-1.220304	-0.338510	1.331667	0.001272	0.016849	0.002875
413	2.104922	0.005000	9.339120	-0.383127	-3.185565	-1.220084	-0.338400	1.331667	0.005196	0.014162	-0.007214
414	2.109922	0.005000	9.306846	-0.353160	-3.303126	-1.219865	-0.338290	1.331667	0.010227	0.013222	-0.002341
415	2.114922	0.005000	9.343681	-0.348599	-3.287039	-1.219645	-0.338181	1.331667	0.001203	0.016026	-0.000881
416	2.119922	0.005000	9.412364	-0.321774	-3.293542	-1.219426	-0.338071	1.331667	0.000757	0.008870	-0.003696
417	2.124922	0.005000	9.339120	-0.431426	-3.218323	-1.219206	-0.337961	1.331667	0.006232	0.005661	-0.005374
418	2.129922	0.005000	9.414140	-0.429910	-3.297890	-1.218987	-0.337851	1.331667	-0.001727	0.004366	-0.008752
419	2.134922	0.005000	9.308175	-0.396547	-3.252773	-1.218767	-0.337742	1.331667	0.012472	-0.003466	0.000365
420	2.139922	0.005000	9.267114	-0.457931	-3.269869	-1.218548	-0.337632	1.331667	-0.000748	0.020271	-0.004848
421	2.144922	0.005000	9.339120	-0.440137	-3.318406	-1.218328	-0.337522	1.331667	0.020417	0.010740	-0.001581
422	2.149922	0.005000	9.378360	-0.335744	-3.246008	-1.218109	-0.337412	1.331667	0.007278	0.007809	-0.007768
423	2.154922	0.005000	9.391889	-0.366689	-3.244064	-1.217962	-0.337334	1.331574	0.011777	0.004997	-0.004130
424	2.159922	0.005000	9.369649	-0.398953	-3.344111	-1.218510	-0.337553	1.330595	0.008764	0.011377	-0.005521
425	2.164922	0.005000	9.339120	-0.436463	-3.318191	-1.219058	-0.337773	1.329615	0.001853	0.013561	-0.005621
426	2.169922	0.005000	9.280260	-0.510120	-3.296160	-1.219607	-0.337992	1.328635	0.013606	0.005161	0.002893
427	2.174922	0.005000	9.317352	-0.435936	-3.396408	-1.220155	-0.338211	1.327656	0.005818	0.005216	-0.002090
428	2.179922	0.005000	9.363096	-0.431640	-3.289607	-1.220703	-0.338431	1.326676	0.019697	0.000419	-0.009682
429	2.184922	0.005000	9.339120	-0.405256	-3.217680	-1.221252	-0.338650	1.325696	0.008914	0.009944	-0.000673
430	2.189922	0.005000	9.317288	-0.459964	-3.167524	-1.221800	-0.338869	1.324717	0.004595	0.002030	0.000091
431	2.194922	0.005000	9.322102	-0.400909	-3.335400	-1.222348	-0.339089	1.323737	0.013123	-0.000785	0.000854
432	2.199922	0.005000	9.299880	-0.326899	-3.289670	-1.222897	-0.339308	1.322757	-0.003497	0.007720	-0.002342
433	2.204922	0.005000	9.264789	-0.388251	-3.331251	-1.223445	-0.339528	1.321778	0.011061	0.007578	0.001600
434	2.209922	0.005000	9.378360	-0.317409	-3.292671	-1.223993	-0.339747	1.320798	0.007067	0.009674	0.002871
435	2.214922	0.005000	9.378360	-0.353359	-3.217680	-1.224542	-0.339966	1.319819	0.014170	0.003114	-0.002728
436	2.219922	0.005000	9.268491	-0.277297	-3.251686	-1.225090	-0.340186	1.318839	0.016549	-0.000724	0.002166
437	2.224922	0.005000	9.294918	-0.426678	-3.134238	-1.225267	-0.340193	1.318748	-0.004040	-0.005346	-0.001642
438	2.229922	0.005000	9.424566	-0.399366	-3.099960	-1.225047	-0.339973	1.319605	0.018448	-0.003790	0.004012
439	2.234922	0.005000	9.387741	-0.392400	-3.099960	-1.224828	-0.339754	1.320463	0.009860	0.002331	-0.004289
440	2.239922	0.005000	9.362416	-0.565304	-3.178440	-1.224609	-0.339534	1.321320	0.024563	-0.008135	0.004054
441	2.244922	0.005000	9.297920	-0.459106	-3.205906	-1.224389	-0.339315	1.322178	0.016123	0.003530	0.009709
442	2.249922	0.005000	9.346068	-0.385452	-3.076866	-1.224170	-0.339095	1.323036	0.016925	-0.004010	0.004402
443	2.254922	0.005000	9.453779	-0.292770	-3.139200	-1.223950	-0.338876	1.323893	0.017302	-0.001033	0.008337
444	2.259922	0.005000	9.397100	-0.330899	-3.098199	-1.223731	-0.338656	1.324751	0.015882	-0.009769	-0.004942
445	2.264922	0.005000	9.316490	-0.476901	-3.234290	-1.223512	-0.338437	1.325608	0.019063	-0.013381	0.008379
446	2.269922	0.005000	9.378360	-0.353160	-3.192832	-1.223292	-0.338217	1.326466	0.015441	-0.010848	0.009462
447	2.274922	0.005000	9.405617	-0.365143	-3.151183	-1.223073	-0.337998	1.327324	0.018750	-0.006109	0.010204
448	2.279922	0.005000	9.339574	-0.412247	-3.159047	-1.222853	-0.337779	1.328181	0.011177	-0.008446	0.005352
449	2.284922	0.005000	9.520071	-0.384776	-3.249296	-1.222634	-0.337559	1.329039	0.014485	-0.009720	-0.006961
450	2.289922	0.005000	9.383579	-0.353160	-3.222899	-1.222415	-0.337340	1.329896	0.020669	-0.016215	0.004940
451	2.294922	0.005000	9.407888	-0.434877	-3.178440	-1.222773	-0.337698	1.329785	0.022085	-0.010048	0.004292
452	2.299922	0.005000	9.299023	-0.468308	-3.219395	-1.223212	-0.338137	1.329540	0.006374	-0.009349	0.005219
453	2.304922	0.005000	9.222928	-0.315448	-3.296160	-1.223650	-0.338575	1.329295	0.006242	-0.003625	-0.004009
454	2.309922	0.005000	9.296389	-0.378437	-3.324928	-1.224089	-0.339014	1.329051	0.009190	-0.011863	0.000868
455	2.314922	0.005000	9.372521	-0.431640	-3.156717	-1.224527	-0.339452	1.328806	0.017318	-0.010125	0.005627
456	2.319922	0.005000	9.401898	-0.376698	-3.068571	-1.224965	-0.339891	1.328561	0.018178	-0.012472	-0.005112
457	2.324922	0.005000	9.320396	-0.402658	-3.188698	-1.225404	-0.340329	1.328316	0.007554	-0.006906	0.017467
458	2.329922	0.005000	9.287678	-0.377564	-3.141833	-1.225842	-0.340768	1.328071	0.000428	-0.006511	0.007418
459	2.334922	0.005000	9.299880	-0.299314	-3.153806	-1.226281	-0.341206	1.327827	0.009435	-0.008616	0.002748
460	2.339922	0.005000	9.316701	-0.330741	-3.172843	-1.226719	-0.341645	1.327582	0.019654	-0.009468	0.003070
461	2.344922	0.005000	9.298564	-0.294958	-3.259552	-1.227158	-0.342083	1.327337	0.002368	-0.016063	0.006814
462	2.349922	0.005000	9.275001	-0.353160	-3.392507	-1.227596	-0.342522	1.327092	0.011490	-0.010678	0.008842
463	2.354922	0.005000	9.362628	-0.447372	-3.311892	-1.228034	-0.342960	1.326848	0.012265	-0.009006	0.003422
464	2.359922	0.005000	9.378360	-0.404613	-3.101261	-1.228128	-0.343255	1.326635	0.003713	-0.015958	0.005317
465	2.364922	0.005000	9.305820	-0.381300	-3.172500	-1.227250	-0.343146	1.326512	0.006654	-0.003965	0.005803
466	2.369922	0.005000	9.260640	-0.322966	-3.169394	-1.226373	-0.343036	1.326390	0.017376	-0.009451	0.007211
467	2.374922	0.005000	9.287637	-0.385651	-3.171691	-1.225495	-0.342926	1.326267	0.008525	-0.011253	0.006729
468	2.379922	0.005000	9.378360	-0.435973	-3.152198	-1.224618	-0.342816	1.326145	0.001074	-0.015469	0.009129
469	2.384922	0.005000	9.373640	-0.468520	-3.298520	-1.223740	-0.342707	1.326022	0.012087	-0.011008	0.009051
470	2.389922	0.005000	9.260655	-0.392415	-3.217726	-1.222862	-0.342597	1.325900	0.011236	-0.007313	-0.000899
471	2.394922	0.005000	9.456840	-0.242656	-3.252110	-1.221985	-0.342487	1.325777	0.013553	-0.018186	0.004422
472	2.399922	0.005000	9.421977	-0.309543	-3.139200	-1.221107	-0.342377	1.325655	0.015715	-0.009412	-0.003870
473	2.404922	0.005000	9.364795	-0.359942	-3.198787	-1.220229	-0.342268	1.325532	0.013712	-0.013075	-0.009085
474	2.409922	0.005000	9.347843	-0.383677	-3.217680	-1.219352	-0.342158	1.325410	0.017022	-0.010130	0.004362
475	2.414922	0.005000	9.406469	-0.403531	-3.211832	-1.218474	-0.342048	1.325287	0.010632	-0.011141	0.002889
476	2.419922	0.005000	9.364972	-0.405788	-3.308625	-1.217596	-0.341938	1.325165	0.020325	-0.013134	0.008796
477	2.424922	0.005000	9.393848	-0.376912	-3.303384	-1.216719	-0.341829	1.325042	0.008338	-0.007290	0.011514
478	2.429922	0.005000	9.342565	-0.335262	-3.278262	-1.216634	-0.341575	1.325161	-0.005853	-0.018485	-0.003381
479	2.434922	0.005000	9.397526	-0.411566	-3.316234	-1.216963	-0.341246	1.325406	0.013146	-0.011301	0.001742
480	2.439922	0.005000	9.361372	-0.336172	-3.228209	-1.217292	-0.340917	1.325651	0.007755	-0.008216	0.002050
481	2.444922	0.005000	9.339120	-0.367735	-3.227769	-1.217621	-0.340588	1.325896	0.017427	-0.011808	0.004605
482	2.449922	0.005000	9.273271	-0.444271	-3.087329	-1.217950	-0.340259	1.326140	0.001946	-0.006407	0.001681
483	2.454922	0.005000	9.308450	-0.412846	-3.258573	-1.218279	-0.339930	1.326385	0.017006	-0.012671	0.004952
484	2.459922	0.005000	9.260640	-0.431640	-3.327592	-1.218608	-0.339601	1.326630	0.009368	-0.012355	0.008372
485	2.464922	0.005000	9.227194	-0.431640	-3.296160	-1.218937	-0.339272	1.326875	0.012300	-0.018038	-0.000145
486	2.469922	0.005000	9.352955	-0.353160	-3.364264	-1.219266	-0.338943	1.327120	0.016562	-0.017905	0.012198
487	2.474922	0.005000	9.416559	-0.392400	-3.373599	-1.219595	-0.338614	1.327365	0.021442	-0.006079	0.002264
488	2.479922	0.005000	9.378360	-0.392400	-3.220344	-1.219924	-0.338285	1.327610	0.024928	-0.011371	0.006047
489	2.484922	0.005000	9.414333	-0.395667	-3.139200	-1.220253	-0.337956	1.327855	0.003808	-0.012009	0.007105
490	2.489922	0.005000	9.339120	-0.494372	-3.110459	-1.220582	-0.337627	1.328099	0.014819	-0.010014	-0.001811
491	2.494922	0.005000	9.402290	-0.368470	-3.217680	-1.220952	-0.337354	1.328447	0.009163	-0.013034	0.003470
492	2.499922	0.005000	9.329166	-0.490213	-3.188394	-1.222158	-0.338231	1.330896	0.018964	-0.004263	0.000405
493	2.504922	0.005000	9.351134	-0.498106	-3.232892	-1.223364	-0.339108	1.333345	0.020701	-0.018599	0.007988
494	2.509922	0.005000	9.289484	-0.406822	-3.271342	-1.224570	-0.339986	1.335794	0.005632	-0.011729	0.002993
495	2.514922	0.005000	9.305840	-0.425680	-3.155840	-1.225777	-0.340863	1.338243	0.028090	-0.001201	0.000753
496	2.519922	0.005000	9.439745	-0.371938	-3.137517	-1.226983	-0.341740	1.340692	0.014759	-0.006879	0.010478
497	2.524922	0.005000	9.339120	-0.392400	-3.157504	-1.228189	-0.342618	1.343141	0.016138	-0.011484	0.003121
498	2.529922	0.005000	9.299880	-0.408506	-3.208601	-1.229395	-0.343495	1.345590	0.012910	-0.011815	0.004763
499	2.534922	0.005000	9.221400	-0.417943	-3.192137	-1.230601	-0.344372	1.348039	0.015304	-0.006567	0.001283
500	2.539922	0.005000	9.311498	-0.404018	-3.296160	-1.231808	-0.345250	1.350488	0.009201	-0.010013	0.001420
501	2.544922	0.005000	9.290541	-0.371838	-3.296160	-1.233014	-0.346127	1.352937	-0.003191	-0.011131	-0.000633
502	2.549922	0.005000	9.253704	-0.360096	-3.321529	-1.234220	-0.347004	1.355387	0.019837	-0.008986	-0.012522
503	2.554922	0.005000	9.407618	-0.505129	-3.193413	-1.235426	-0.347882	1.357836	0.021322	-0.003842	0.001274
504	2.559922	0.005000	9.422773	-0.465707	-3.296160	-1.236632	-0.348759	1.360285	0.015873	-0.009597	0.005626
505	2.564922	0.005000	9.454299	-0.392400	-3.335400	-1.237122	-0.349254	1.360973	0.002689	-0.018156	0.008366
506	2.569922	0.005000	9.262415	-0.467329	-3.297935	-1.236683	-0.349254	1.359381	0.006195	-0.001651	-0.000726
507	2.574922	0.005000	9.331682	-0.435359	-3.299879	-1.236244	-0.349254	1.357788	0.027502	-0.011171	-0.004132
508	2.579922	0.005000	9.260640	-0.359284	-3.133076	-1.235805	-0.349254	1.356195	0.008907	-0.008014	0.003183
509	2.584922	0.005000	9.322238	-0.400841	-3.192357	-1.235367	-0.349254	1.354603	0.014680	-0.006383	-0.001358
510	2.589922	0.005000	9.357393	-0.374127	-3.228163	-1.234928	-0.349254	1.353010	0.020887	-0.015485	-0.002278
511	2.594922	0.005000	9.286422	-0.379509	-3.256920	-1.234489	-0.349254	1.351418	0.007970	-0.003927	0.003360
512	2.599922	0.005000	9.323993	-0.494993	-3.232807	-1.234050	-0.349254	1.349825	0.017372	-0.018503	0.000511
513	2.604922	0.005000	9.221400	-0.466136	-3.200432	-1.233611	-0.349254	1.348232	0.009880	-0.005879	-0.003487
514	2.609922	0.005000	9.319385	-0.353160	-3.276425	-1.233173	-0.349254	1.346640	0.021644	-0.000336	-0.011849
515	2.614922	0.005000	9.382747	-0.348773	-3.195867	-1.232734	-0.349254	1.345047	0.019555	-0.011795	-0.005551
516	2.619922	0.005000	9.245406	-0.407634	-3.163206	-1.232295	-0.349254	1.343455	-0.002652	-0.003358	-0.011812
517	2.624922	0.005000	9.391490	-0.392400	-3.217529	-1.231856	-0.349254	1.341862	0.013502	-0.001334	-0.004999
518	2.629922	0.005000	9.339120	-0.464284	-3.167559	-1.231417	-0.349254	1.340269	0.010823	-0.003944	-0.002693
519	2.634922	0.005000	9.364520	-0.487813	-3.284601	-1.230888	-0.348434	1.339695	-0.009361	-0.008027	-0.002443
520	2.639922	0.005000	9.378360	-0.464436	-3.577859	-1.230339	-0.347447	1.339327	0.009925	-0.003355	-0.008161
521	2.644922	0.005000	9.330886	-0.353160	-3.331283	-1.229791	-0.346460	1.338960	0.008694	-0.008928	-0.012147
522	2.649922	0.005000	9.188604	-0.320364	-3.294012	-1.229243	-0.345473	1.338593	0.006340	-0.009348	0.000542
523	2.654922	0.005000	9.338875	-0.392645	-3.178930	-1.228695	-0.344486	1.338225	-0.000994	0.001590	-0.011893
524	2.659922	0.005000	9.482995	-0.392400	-3.073805	-1.228146	-0.343499	1.337858	0.018535	-0.007487	-0.012824
525	2.664922	0.005000	9.339120	-0.387807	-3.226866	-1.227598	-0.342512	1.337491	-0.006719	0.000677	0.006114
526	2.669922	0.005000	9.385369	-0.399409	-3.192459	-1.227050	-0.341525	1.337123	0.000619	-0.005843	-0.002146
527	2.674922	0.005000	9.348073	-0.392400	-3.256920	-1.226502	-0.340539	1.336756	0.012372	-0.007395	-0.006591
528	2.679922	0.005000	9.316400	-0.325280	-3.289959	-1.225953	-0.339552	1.336389	0.017205	-0.002339	-0.002678
529	2.684922	0.005000	9.315098	-0.378786	-3.217680	-1.225405	-0.338565	1.336021	0.013300	-0.006169	-0.000590
530	2.689922	0.005000	9.315588	-0.376692	-3.201972	-1.224857	-0.337578	1.335654	-0.009077	-0.003994	-0.007002
531	2.694922	0.005000	9.435720	-0.335040	-3.181440	-1.224309	-0.336591	1.335287	0.015779	0.000768	-0.006649
532	2.699922	0.005000	9.398646	-0.353160	-3.135206	-1.223881	-0.336062	1.334946	0.019834	-0.004483	0.004749
533	2.704922	0.005000	9.333409	-0.313920	-3.262631	-1.223881	-0.337159	1.334701	0.022327	-0.002480	-0.011613
534	2.709922	0.005000	9.378360	-0.421111	-3.256920	-1.223881	-0.338255	1.334456	0.016005	-0.004477	0.002419
535	2.714922	0.005000	9.353824	-0.470880	-3.163736	-1.223881	-0.339352	1.334211	0.009491	0.005397	0.001767
536	2.719922	0.005000	9.369113	-0.539362	-3.159945	-1.223881	-0.340448	1.333967	0.010652	-0.003969	0.007933
537	2.724922	0.005000	9.378360	-0.376486	-3.272289	-1.223881	-0.341545	1.333722	0.002558	-0.000517	0.005613
538	2.729922	0.005000	9.473491	-0.325215	-3.116902	-1.223881	-0.342642	1.333477	0.014538	-0.006579	-0.004350
539	2.734922	0.005000	9.378360	-0.382709	-3.184901	-1.223881	-0.343738	1.333232	0.004253	-0.004208	0.005644
540	2.739922	0.005000	9.339120	-0.275951	-3.178440	-1.223881	-0.344835	1.332987	0.008724	-0.003834	-0.002413
541	2.744922	0.005000	9.377242	-0.275798	-3.216562	-1.223881	-0.345931	1.332742	0.010566	-0.017088	0.004887
542	2.749922	0.005000	9.456840	-0.346171	-3.071203	-1.223881	-0.347028	1.332497	-0.001711	-0.008585	0.002665
543	2.754922	0.005000	9.412121	-0.392400	-3.143791	-1.223881	-0.348124	1.332252	0.015905	-0.014204	0.008533
544	2.759922	0.005000	9.339120	-0.321805	-3.084191	-1.223881	-0.349221	1.332008	0.003221	-0.013371	0.004650
545	2.764922	0.005000	9.310045	-0.508698	-3.033067	-1.223881	-0.350317	1.331763	0.012739	-0.013683	0.005908
546	2.769922	0.005000	9.299880	-0.497887	-3.166207	-1.223948	-0.350345	1.331667	0.007301	-0.018158	0.012542
547	2.774922	0.005000	9.349407	-0.353160	-3.285873	-1.224057	-0.349687	1.331667	0.012405	-0.013040	0.014002
548	2.779922	0.005000	9.394950	-0.359220	-3.178440	-1.224167	-0.349029	1.331667	0.015070	-0.015814	0.011301
549	2.784922	0.005000	9.358120	-0.354400	-3.237920	-1.224277	-0.348370	1.331667	0.003853	-0.015163	0.009175
550	2.789922	0.005000	9.339120	-0.389314	-3.178440	-1.224386	-0.347712	1.331667	0.019103	-0.018387	0.006109
551	2.794922	0.005000	9.307348	-0.431640	-3.296160	-1.224496	-0.347054	1.331667	0.022946	-0.023998	0.012384
552	2.799922	0.005000	9.352901	-0.498442	-3.347078	-1.224606	-0.346396	1.331667	0.012601	-0.014966	0.011027
553	2.804922	0.005000	9.244457	-0.470880	-3.261574	-1.224715	-0.345737	1.331667	0.021761	-0.020763	0.009476
554	2.809922	0.005000	9.299880	-0.461759	-3.277917	-1.224825	-0.345079	1.331667	0.012239	-0.020327	0.001148
555	2.814922	0.005000	9.267735	-0.295964	-3.139200	-1.224935	-0.344421	1.331667	0.019636	-0.017537	0.008202
556	2.819922	0.005000	9.290357	-0.348399	-3.231964	-1.225044	-0.343763	1.331667	0.014447	-0.015258	0.011662
557	2.824922	0.005000	9.258283	-0.360231	-3.289089	-1.225154	-0.343105	1.331667	0.016091	-0.008938	0.003247
558	2.829922	0.005000	9.299880	-0.432048	-3.218088	-1.225264	-0.342446	1.331667	0.012226	-0.016235	0.003924
559	2.834922	0.005000	9.337130	-0.470880	-3.182421	-1.225371	-0.341790	1.331670	0.011816	-0.007822	0.001806
560	2.839922	0.005000	9.443770	-0.357517	-3.165370	-1.224822	-0.341571	1.332282	0.018412	-0.011301	0.001294
561	2.844922	0.005000	9.450489	-0.326622	-3.263271	-1.224274	-0.341351	1.332894	0.015241	-0.018036	-0.000705
562	2.849922	0.005000	9.456840	-0.431640	-3.344157	-1.223726	-0.341132	1.333506	0.009005	-0.013281	-0.000397
563	2.854922	0.005000	9.456840	-0.470880	-3.267963	-1.223177	-0.340913	1.334119	0.011196	-0.003143	-0.002065
564	2.859922	0.005000	9.339120	-0.510120	-3.348409	-1.222629	-0.340693	1.334731	0.002729	-0.009847	-0.000113
565	2.864922	0.005000	9.245115	-0.360494	-3.264254	-1.222081	-0.340474	1.335343	0.017176	-0.020943	0.000643
566	2.869922	0.005000	9.360891	-0.392400	-3.156669	-1.221532	-0.340255	1.335955	0.003191	-0.015964	-0.006746
567	2.874922	0.005000	9.300400	-0.412280	-3.080600	-1.220984	-0.340036	1.336568	0.016616	-0.010348	-0.001833
568	2.879922	0.005000	9.299880	-0.453665	-3.144010	-1.220436	-0.339816	1.337180	0.015386	-0.019034	0.002346
569	2.884922	0.005000	9.378360	-0.416636	-3.129968	-1.219887	-0.339597	1.337792	0.014183	-0.020698	0.001628
570	2.889922	0.005000	9.390955	-0.313920	-3.191035	-1.219339	-0.339378	1.338404	0.020682	-0.021064	0.008247
571	2.894922	0.005000	9.453966	-0.392400	-3.296160	-1.218791	-0.339158	1.339017	0.008546	-0.012542	0.008128
572	2.899922	0.005000	9.299880	-0.408874	-3.335400	-1.218242	-0.338939	1.339629	0.023922	-0.020629	0.005530
573	2.904922	0.005000	9.299880	-0.419974	-3.301993	-1.217910	-0.338720	1.339614	0.029208	-0.012451	0.003454
574	2.909922	0.005000	9.260640	-0.313920	-3.253031	-1.217910	-0.338500	1.338635	0.016206	-0.019476	-0.001147
575	2.914922	0.005000	9.225854	-0.393885	-3.181409	-1.217910	-0.338281	1.337655	0.017854	-0.015740	0.008331
576	2.919922	0.005000	9.339120	-0.431640	-3.373262	-1.217910	-0.338062	1.336676	0.010682	-0.017331	0.010401
577	2.924922	0.005000	9.378360	-0.431640	-3.254043	-1.217910	-0.337842	1.335696	0.019927	-0.018269	0.009133
578	2.929922	0.005000	9.524882	-0.353160	-3.246482	-1.217910	-0.337623	1.334716	0.005822	-0.009870	0.004988
579	2.934922	0.005000	9.488854	-0.417187	-3.249694	-1.217910	-0.337404	1.333737	0.017892	-0.016519	-0.000986
580	2.939922	0.005000	9.466370	-0.412580	-3.168910	-1.217910	-0.337185	1.332757	0.023033	-0.012383	0.005897
581	2.944922	0.005000	9.362291	-0.498535	-3.123131	-1.217910	-0.336965	1.331778	0.014408	-0.011978	0.004050
582	2.949922	0.005000	9.299880	-0.459627	-3.189693	-1.217910	-0.336746	1.330798	0.005915	-0.014798	0.006101
583	2.954922	0.005000	9.237616	-0.336944	-3.201464	-1.217910	-0.336527	1.329819	0.008502	-0.015744	0.005514
584	2.959922	0.005000	9.322586	-0.392400	-3.157791	-1.217910	-0.336307	1.328839	0.023627	-0.014632	0.004850
585	2.964922	0.005000	9.320641	-0.450119	-3.159961	-1.217910	-0.336088	1.327859	0.008745	-0.014930	0.001966
586	2.969922	0.005000	9.369392	-0.447709	-3.342501	-1.217910	-0.335869	1.326880	0.008468	-0.012771	-0.003541
587	2.974922	0.005000	9.325158	-0.456918	-3.310122	-1.218511	-0.335993	1.326763	-0.002357	-0.005807	0.006405
588	2.979922	0.005000	9.350843	-0.392400	-3.284437	-1.219279	-0.336212	1.326885	0.007805	0.002357	0.002622
589	2.984922	0.005000	9.311194	-0.431640	-3.307474	-1.220046	-0.336431	1.327008	0.020596	-0.013981	0.008829
590	2.989922	0.005000	9.299880	-0.488291	-3.288884	-1.220814	-0.336651	1.327130	0.011695	-0.012018	0.007400
591	2.994922	0.005000	9.304839	-0.358119	-3.217680	-1.221581	-0.336870	1.327252	0.016300	-0.014374	-0.004159
592	2.999922	0.005000	9.412517	-0.394941	-3.217680	-1.222349	-0.337089	1.327375	0.006822	-0.012864	0.010321
593	3.004922	0.005000	9.339710	-0.430460	-3.216500	-1.223117	-0.337309	1.327497	-0.001265	-0.012363	0.005732
594	3.009922	0.005000	9.453227	-0.353160	-3.214067	-1.223884	-0.337528	1.327620	0.018301	-0.010933	0.016479
595	3.014922	0.005000	9.382111	-0.435391	-3.327898	-1.224652	-0.337747	1.327742	0.006834	-0.017150	0.004093
596	3.019922	0.005000	9.318383	-0.398568	-3.374640	-1.225420	-0.337966	1.327864	0.020864	-0.012210	0.010387
597	3.024922	0.005000	9.308351	-0.487822	-3.273862	-1.226187	-0.338186	1.327987	0.012668	-0.011040	0.004894
598	3.029922	0.005000	9.292194	-0.481398	-3.188958	-1.226955	-0.338405	1.328109	0.027480	-0.013231	-0.000939
599	3.034922	0.005000	9.299880	-0.535984	-3.178440	-1.227722	-0.338624	1.328232	0.007171	-0.013723	0.020931
600	3.039922	0.005000	9.372128	-0.392400	-3.154357	-1.228283	-0.338749	1.328291	0.006325	-0.012878	0.009191
601	3.044922	0.005000	9.426939	-0.431640	-3.222350	-1.227844	-0.338421	1.328046	0.019741	-0.014982	0.011603
602	3.049922	0.005000	9.377724	-0.490659	-3.197583	-1.227406	-0.338092	1.327801	0.008539	-0.012893	0.019502
603	3.054922	0.005000	9.309434	-0.414033	-3.213653	-1.226967	-0.337763	1.327557	0.015597	-0.018621	0.013301
604	3.059922	0.005000	9.387206	-0.392400	-3.250569	-1.226529	-0.337434	1.327312	0.011434	-0.015156	0.013574
605	3.064922	0.005000	9.299819	-0.510120	-3.165400	-1.226090	-0.337105	1.327067	0.012406	-0.017975	0.012203
606	3.069922	0.005000	9.203839	-0.435758	-3.246080	-1.225652	-0.336776	1.326822	0.007644	-0.018197	0.026621
607	3.074922	0.005000	9.291447	-0.462447	-3.164498	-1.225214	-0.336447	1.326578	0.003053	-0.009294	0.013686
608	3.079922	0.005000	9.287052	-0.346746	-3.152028	-1.224775	-0.336119	1.326333	0.013470	-0.023121	0.012268
609	3.084922	0.005000	9.260640	-0.357233	-3.186585	-1.224337	-0.335790	1.326088	0.015798	-0.009728	0.003838
610	3.089922	0.005000	9.298212	-0.354828	-3.251916	-1.223898	-0.335461	1.325843	0.015882	-0.016294	0.006741
611	3.094922	0.005000	9.338569	-0.431364	-3.217129	-1.223460	-0.335132	1.325598	0.014311	-0.015544	0.008546
612	3.099922	0.005000	9.260640	-0.353160	-3.183827	-1.223022	-0.334803	1.325354	0.010636	-0.010640	0.014342
613	3.104922	0.005000	9.334483	-0.431640	-3.139200	-1.222583	-0.334474	1.325109	0.017450	-0.016158	0.011751
614	3.109922	0.005000	9.339120	-0.431640	-3.235792	-1.222327	-0.334389	1.325068	-0.011359	-0.016970	0.006421
615	3.114922	0.005000	9.269989	-0.383051	-3.266269	-1.222218	-0.334499	1.325190	0.011648	-0.017533	0.006529
616	3.119922	0.005000	9.299880	-0.420238	-3.217680	-1.222108	-0.334608	1.325313	0.015822	-0.012230	0.012869
617	3.124922	0.005000	9.235204	-0.445444	-3.203876	-1.221998	-0.334718	1.325435	0.009278	-0.004252	0.005177
618	3.129922	0.005000	9.307081	-0.385199	-3.240900	-1.221889	-0.334828	1.325558	0.006135	-0.010947	0.016929
619	3.134922	0.005000	9.417600	-0.374242	-3.259844	-1.221779	-0.334937	1.325680	0.006369	-0.011267	0.013603
620	3.139922	0.005000	9.438169	-0.371831	-3.178440	-1.221669	-0.335047	1.325803	0.016879	-0.012716	0.006029
621	3.144922	0.005000	9.378360	-0.431640	-3.267282	-1.221560	-0.335157	1.325925	0.006244	-0.006770	0.003841
622	3.149922	0.005000	9.364045	-0.435345	-3.178440	-1.221450	-0.335266	1.326048	0.009432	-0.014512	0.006641
623	3.154922	0.005000	9.296360	-0.470880	-3.139200	-1.221341	-0.335376	1.326170	0.016343	-0.019034	0.002144
624	3.159922	0.005000	9.456840	-0.480728	-3.168743	-1.221231	-0.335486	1.326293	0.019403	-0.008616	0.003182
625	3.164922	0.005000	9.385908	-0.368256	-3.311256	-1.221121	-0.335595	1.326415	0.019386	-0.017679	0.008963
626	3.169922	0.005000	9.445767	-0.431640	-3.290623	-1.221012	-0.335705	1.326538	0.015249	-0.014143	0.008141
627	3.174922	0.005000	9.303079	-0.428441	-3.374640	-1.220902	-0.335815	1.326660	0.029016	-0.014947	0.005300
628	3.179922	0.005000	9.262982	-0.353941	-3.216118	-1.220896	-0.336235	1.326551	0.014654	-0.020777	0.006109
629	3.184922	0.005000	9.302206	-0.354323	-3.215354	-1.220896	-0.336674	1.326429	0.009477	-0.022650	0.006073
630	3.189922	0.005000	9.421167	-0.353160	-3.260487	-1.220896	-0.337112	1.326306	0.020036	-0.026629	0.002871
631	3.194922	0.005000	9.411698	-0.353160	-3.268724	-1.220896	-0.337551	1.326184	0.009167	-0.031189	0.007234
632	3.199922	0.005000	9.354951	-0.502205	-3.249005	-1.220896	-0.337990	1.326061	0.030279	-0.041386	0.000209
633	3.204922	0.005000	9.281062	-0.520331	-3.246709	-1.220896	-0.338428	1.325939	0.015361	-0.044024	0.001966
634	3.209922	0.005000	9.275332	-0.458606	-3.256920	-1.220896	-0.338867	1.325817	0.026471	-0.045041	-0.007716
635	3.214922	0.005000	9.260640	-0.524802	-3.242238	-1.220896	-0.339305	1.325694	0.017612	-0.045742	-0.006127
636	3.219922	0.005000	9.277537	-0.448537	-3.256920	-1.220896	-0.339744	1.325572	0.008628	-0.042104	-0.011782
637	3.224922	0.005000	9.221400	-0.508957	-3.297323	-1.220896	-0.340183	1.325449	0.024989	-0.048091	-0.006021
638	3.229922	0.005000	9.296221	-0.435299	-3.296160	-1.220896	-0.340621	1.325327	0.014089	-0.044043	-0.007087
639	3.234922	0.005000	9.339120	-0.408057	-3.398223	-1.220896	-0.341060	1.325204	0.009542	-0.042060	-0.014234
640	3.239922	0.005000	9.364923	-0.366597	-3.244554	-1.220896	-0.341499	1.325082	0.010066	-0.041539	-0.012302
641	3.244922	0.005000	9.389721	-0.381039	-3.296160	-1.221152	-0.341864	1.325816	0.015987	-0.048681	-0.015569
642	3.249922	0.005000	9.378360	-0.470880	-3.229683	-1.221920	-0.342084	1.328267	0.007328	-0.055889	-0.005797
643	3.254922	0.005000	9.352465	-0.424967	-3.270265	-1.222688	-0.342303	1.330717	0.001566	-0.057346	-0.006088
644	3.259922	0.005000	9.367166	-0.362509	-3.203657	-1.223456	-0.342522	1.333167	0.014591	-0.064388	-0.009774
645	3.264922	0.005000	9.456840	-0.466256	-3.102272	-1.224223	-0.342742	1.335617	0.014229	-0.068895	-0.007164
646	3.269922	0.005000	9.457218	-0.392400	-3.257298	-1.224991	-0.342961	1.338067	0.022511	-0.083165	-0.006105
647	3.274922	0.005000	9.347262	-0.355195	-3.221751	-1.225759	-0.343181	1.340517	0.016984	-0.096784	-0.001470
648	3.279922	0.005000	9.395666	-0.418479	-3.213293	-1.226527	-0.343400	1.342967	0.005677	-0.096898	-0.000972
649	3.284922	0.005000	9.489696	-0.326689	-3.256920	-1.227295	-0.343619	1.345417	0.033891	-0.098375	0.005149
650	3.289922	0.005000	9.539360	-0.453280	-3.256920	-1.228063	-0.343839	1.347868	0.017589	-0.103176	0.006959
651	3.294922	0.005000	9.456840	-0.374647	-3.217680	-1.228831	-0.344058	1.350318	0.024857	-0.111295	0.009003
652	3.299922	0.005000	9.482929	-0.353160	-3.230831	-1.229599	-0.344278	1.352768	0.019346	-0.116606	0.016275
653	3.304922	0.005000	9.441456	-0.361631	-3.320016	-1.230367	-0.344497	1.355218	0.016901	-0.127763	0.016910
654	3.309922	0.005000	9.535320	-0.348936	-3.291936	-1.231135	-0.344716	1.357668	0.015135	-0.141371	0.022536
655	3.314922	0.005000	9.475564	-0.294599	-3.218277	-1.231263	-0.344296	1.357887	-0.001673	-0.141432	0.020080
656	3.319922	0.005000	9.439671	-0.326188	-3.210313	-1.231153	-0.343638	1.357274	0.022291	-0.162478	0.032444
657	3.324922	0.005000	9.363392	-0.274680	-3.144863	-1.231044	-0.342980	1.356662	0.022823	-0.157547	0.051526
658	3.329922	0.005000	9.456840	-0.328051	-3.322846	-1.230934	-0.342322	1.356049	0.033113	-0.168164	0.047353
659	3.334922	0.005000	9.449049	-0.285163	-3.322224	-1.230824	-0.341664	1.355437	0.040774	-0.176081	0.065423
660	3.339922	0.005000	9.386566	-0.336747	-3.217680	-1.230715	-0.341005	1.354824	0.051117	-0.178277	0.073541
661	3.344922	0.005000	9.484479	-0.325521	-3.246681	-1.230605	-0.340347	1.354212	0.064883	-0.186285	0.085250
662	3.349922	0.005000	9.468276	-0.313920	-3.370828	-1.230495	-0.339689	1.353599	0.043542	-0.190399	0.095368
663	3.354922	0.005000	9.416161	-0.276119	-3.373201	-1.230386	-0.339031	1.352987	0.052277	-0.215472	0.095077
664	3.359922	0.005000	9.494565	-0.275185	-3.180460	-1.230276	-0.338372	1.352374	0.055242	-0.204427	0.113009
665	3.364922	0.005000	9.369633	-0.501393	-3.402244	-1.230166	-0.337714	1.351762	0.062529	-0.208601	0.118084
666	3.369922	0.005000	9.315673	-0.402929	-3.756027	-1.230057	-0.337056	1.351149	0.073238	-0.215698	0.120462
667	3.374922	0.005000	9.086249	-0.524659	-3.627511	-1.229947	-0.336398	1.350537	0.062930	-0.202660	0.110725
668	3.379922	0.005000	9.162272	-0.540220	-3.521388	-1.229702	-0.335767	1.349879	0.059953	-0.206095	0.114730
669	3.384922	0.005000	9.142920	-0.733609	-3.398541	-1.228495	-0.335328	1.348899	0.059606	-0.176894	0.116020
670	3.389922	0.005000	9.056130	-0.624978	-3.621528	-1.227289	-0.334889	1.347920	0.060661	-0.177100	0.100271
671	3.394922	0.005000	8.953074	-0.722763	-3.607462	-1.226083	-0.334451	1.346940	0.066728	-0.166529	0.100438
672	3.399922	0.005000	8.882944	-0.724957	-3.475690	-1.224877	-0.334012	1.345960	0.048461	-0.151368	0.074562
673	3.404922	0.005000	8.884325	-0.768715	-3.566126	-1.223670	-0.333574	1.344981	0.043351	-0.139578	0.067638
674	3.409922	0.005000	8.932359	-0.724019	-3.519413	-1.222464	-0.333135	1.344001	0.024569	-0.112839	0.054278
675	3.414922	0.005000	8.870796	-0.692388	-3.932819	-1.221258	-0.332696	1.343022	0.034888	-0.107365	0.032307
676	3.419922	0.005000	8.942525	-0.498438	-3.646028	-1.220052	-0.332258	1.342042	0.018068	-0.088219	0.028592
677	3.424922	0.005000	9.014823	-0.618219	-3.541977	-1.218845	-0.331819	1.341062	0.024071	-0.079591	0.025594
678	3.429922	0.005000	9.093763	-0.463549	-3.607922	-1.217639	-0.331380	1.340083	0.018594	-0.072214	0.021142
679	3.434922	0.005000	9.069355	-0.407144	-3.477693	-1.216433	-0.330942	1.339103	0.005181	-0.061243	0.011907
680	3.439922	0.005000	9.176220	-0.398340	-3.770010	-1.215227	-0.330503	1.338124	0.021027	-0.056938	0.009036
681	3.444922	0.005000	9.183293	-0.586335	-3.649886	-1.214020	-0.330065	1.337144	0.020597	-0.033024	-0.001868
682	3.449922	0.005000	9.260640	-0.545226	-3.612836	-1.213714	-0.329738	1.337609	0.044624	-0.024948	0.009319
683	3.454922	0.005000	9.406214	-0.549360	-3.436653	-1.214263	-0.329519	1.339446	0.024612	-0.024750	0.003710
684	3.459922	0.005000	9.320518	-0.536959	-3.605916	-1.214811	-0.329300	1.341283	0.011880	-0.021739	0.012708
685	3.464922	0.005000	9.229545	-0.400545	-3.750750	-1.215359	-0.329081	1.343120	0.022249	-0.024057	0.015505
686	3.469922	0.005000	9.328560	-0.353160	-3.560280	-1.215908	-0.328861	1.344956	0.006599	-0.004652	0.029226
687	3.474922	0.005000	9.260640	-0.353160	-3.505974	-1.216456	-0.328642	1.346793	0.018583	-0.003142	0.038892
688	3.479922	0.005000	9.221400	-0.338248	-3.462536	-1.217004	-0.328423	1.348630	0.009744	-0.002527	0.032065
689	3.484922	0.005000	9.216792	-0.400499	-3.716210	-1.217552	-0.328203	1.350467	0.022517	-0.004740	0.042871
690	3.489922	0.005000	9.260640	-0.372659	-3.492844	-1.218101	-0.327984	1.352303	0.022901	0.008058	0.063100
691	3.494922	0.005000	9.404132	-0.374831	-3.466588	-1.218649	-0.327765	1.354140	0.019352	0.013068	0.072333
692	3.499922	0.005000	9.268990	-0.321015	-3.413880	-1.219197	-0.327545	1.355977	0.038405	0.004866	0.069227
693	3.504922	0.005000	9.286269	-0.392002	-3.466333	-1.219746	-0.327326	1.357814	0.029677	0.008796	0.078416
694	3.509922	0.005000	9.114485	-0.531730	-3.638515	-1.220294	-0.327107	1.359651	0.032508	0.010042	0.088518
695	3.514922	0.005000	9.212641	-0.588600	-3.727800	-1.220842	-0.326887	1.361487	0.036085	0.020099	0.096748
696	3.519922	0.005000	9.077898	-0.679971	-3.734246	-1.220698	-0.326866	1.360010	0.012390	0.010071	0.085053
697	3.524922	0.005000	8.934599	-0.663040	-4.068839	-1.220479	-0.326866	1.358173	0.020919	0.020966	0.096143
698	3.529922	0.005000	8.911625	-0.636130	-3.806280	-1.220259	-0.326866	1.356336	0.015148	0.045037	0.079256
699	3.534922	0.005000	9.024879	-0.745881	-3.806280	-1.220040	-0.326866	1.354500	0.008846	0.059874	0.066582
700	3.539922	0.005000	9.064440	-0.706320	-3.653850	-1.219821	-0.326866	1.352663	-0.004443	0.090410	0.069375
701	3.544922	0.005000	9.133581	-0.710990	-3.575510	-1.219601	-0.326866	1.350826	-0.007338	0.103409	0.062348
702	3.549922	0.005000	9.175156	-0.653072	-3.667548	-1.219382	-0.326866	1.348989	-0.004028	0.100061	0.061696
703	3.554922	0.005000	9.221400	-0.636858	-3.474325	-1.219162	-0.326866	1.347153	-0.009953	0.113777	0.044264
704	3.559922	0.005000	9.204760	-0.762200	-3.436480	-1.218943	-0.326866	1.345316	-0.012112	0.105880	0.037705
705	3.564922	0.005000	9.221400	-0.654592	-3.348776	-1.218724	-0.326866	1.343479	-0.008389	0.101937	0.031017
706	3.569922	0.005000	9.299880	-0.604385	-3.296160	-1.218504	-0.326866	1.341642	-0.006027	0.094230	0.026581
707	3.574922	0.005000	9.296098	-0.588600	-3.292378	-1.218285	-0.326866	1.339806	-0.008491	0.086779	0.034196
708	3.579922	0.005000	9.260640	-0.608740	-3.316300	-1.218065	-0.326866	1.337969	-0.007453	0.087660	0.020953
709	3.584922	0.005000	9.327487	-0.627840	-3.318442	-1.218038	-0.326898	1.336524	0.001601	0.080546	0.011484
710	3.589922	0.005000	9.294889	-0.681824	-3.413880	-1.218477	-0.327008	1.336034	-0.012331	0.077435	0.000903
711	3.594922	0.005000	9.258406	-0.654745	-3.465455	-1.218916	-0.327117	1.335544	-0.010010	0.073593	0.015195
712	3.599922	0.005000	9.299880	-0.607297	-3.473663	-1.219354	-0.327227	1.335054	-0.017736	0.067237	0.015505
713	3.604922	0.005000	9.371026	-0.635817	-3.381974	-1.219793	-0.327337	1.334564	-0.020375	0.082161	0.005485
714	3.609922	0.005000	9.344691	-0.583029	-3.913103	-1.220232	-0.327446	1.334074	-0.024797	0.066821	0.007151
715	3.614922	0.005000	9.424854	-0.442521	-3.517092	-1.220671	-0.327556	1.333584	-0.016280	0.067229	0.004784
716	3.619922	0.005000	9.379570	-0.550570	-3.341448	-1.221110	-0.327666	1.333094	-0.004998	0.066547	0.017889
717	3.624922	0.005000	9.302039	-0.588600	-3.493080	-1.221549	-0.327775	1.332604	-0.022243	0.070763	0.025808
718	3.629922	0.005000	9.227675	-0.444189	-3.426429	-1.221988	-0.327885	1.332114	-0.022602	0.062857	0.013115
719	3.634922	0.005000	9.249688	-0.381448	-3.447644	-1.222427	-0.327995	1.331624	-0.003351	0.073541	0.039414
720	3.639922	0.005000	9.236373	-0.502633	-3.634347	-1.222866	-0.328104	1.331134	-0.007754	0.097182	0.037874
721	3.644922	0.005000	9.152822	-0.578698	-3.659222	-1.223305	-0.328214	1.330644	-0.002843	0.086115	0.045156
722	3.649922	0.005000	9.103680	-0.419478	-3.583002	-1.223743	-0.328324	1.330154	-0.007539	0.107039	0.049824
723	3.654922	0.005000	8.978749	-0.613586	-3.841999	-1.223655	-0.328433	1.330252	0.022187	0.126597	0.057553
724	3.659922	0.005000	9.084801	-0.667080	-3.585831	-1.223326	-0.328543	1.330620	-0.013091	0.146080	0.055469
725	3.664922	0.005000	9.064440	-0.625820	-3.488320	-1.222997	-0.328653	1.330987	-0.004668	0.148755	0.047463
726	3.669922	0.005000	9.257838	-0.706320	-3.377442	-1.222668	-0.328763	1.331355	0.005127	0.155675	0.041968
727	3.674922	0.005000	9.276720	-0.722400	-3.269158	-1.222338	-0.328872	1.331722	-0.022529	0.160825	0.039360
728	3.679922	0.005000	9.352986	-0.669437	-3.282294	-1.222009	-0.328982	1.332090	-0.016838	0.158300	0.030416
729	3.684922	0.005000	9.378360	-0.706320	-3.323948	-1.221680	-0.329092	1.332457	-0.023486	0.151671	0.024290
730	3.689922	0.005000	9.251132	-0.775292	-3.227188	-1.221351	-0.329202	1.332825	-0.038725	0.145625	0.029431
731	3.694922	0.005000	9.150024	-0.667080	-3.306984	-1.221022	-0.329311	1.333192	-0.035994	0.144323	0.030491
732	3.699922	0.005000	9.221400	-0.559556	-3.306356	-1.220693	-0.329421	1.333560	-0.041273	0.161739	0.015772
733	3.704922	0.005000	9.268904	-0.779290	-3.256920	-1.220364	-0.329531	1.333928	-0.015413	0.156193	0.023824
734	3.709922	0.005000	9.416926	-0.705983	-3.178440	-1.220034	-0.329640	1.334295	-0.042775	0.169334	0.018957
735	3.714922	0.005000	9.376753	-0.629447	-2.990275	-1.219705	-0.329750	1.334663	-0.042484	0.166233	0.013119
736	3.719922	0.005000	9.452829	-0.659057	-3.198496	-1.219439	-0.329887	1.334940	-0.058770	0.166417	0.007156
737	3.724922	0.005000	9.483373	-0.594953	-2.955707	-1.219877	-0.330325	1.334206	-0.054581	0.156774	0.017051
738	3.729922	0.005000	9.566189	-0.689577	-2.928874	-1.220316	-0.330764	1.333471	-0.044809	0.132915	0.017299
739	3.734922	0.005000	9.456840	-0.656302	-3.049942	-1.220754	-0.331202	1.332737	-0.039804	0.135950	0.006567
740	3.739922	0.005000	9.470001	-0.497080	-2.798596	-1.221193	-0.331641	1.332002	-0.032618	0.110487	0.007726
741	3.744922	0.005000	9.565592	-0.455744	-2.994009	-1.221631	-0.332079	1.331268	-0.042049	0.106883	-0.006810
742	3.749922	0.005000	9.539888	-0.505552	-3.104528	-1.222069	-0.332517	1.330534	-0.025588	0.092035	-0.020202
743	3.754922	0.005000	9.457100	-0.510380	-3.001470	-1.222508	-0.332956	1.329799	-0.012336	0.084264	-0.006335
744	3.759922	0.005000	9.535320	-0.483659	-2.960340	-1.222946	-0.333394	1.329065	-0.021102	0.074691	-0.008331
745	3.764922	0.005000	9.465644	-0.549360	-3.108764	-1.223385	-0.333833	1.328331	-0.002696	0.057097	-0.013331
746	3.769922	0.005000	9.457100	-0.536367	-3.112953	-1.223823	-0.334271	1.327596	-0.016574	0.056393	-0.002653
747	3.774922	0.005000	9.456840	-0.431640	-3.071299	-1.224262	-0.334710	1.326862	-0.016970	0.055498	-0.003128
748	3.779922	0.005000	9.378360	-0.409464	-3.147732	-1.224700	-0.335148	1.326127	-0.016158	0.041296	0.004830
749	3.784922	0.005000	9.240086	-0.464651	-3.341629	-1.225138	-0.335586	1.325393	-0.012763	0.051306	0.005309
750	3.789922	0.005000	9.361418	-0.431640	-3.583547	-1.225424	-0.335770	1.324886	-0.003000	0.053761	0.009882
751	3.794922	0.005000	9.146656	-0.429772	-3.860478	-1.225534	-0.335660	1.324641	-0.016060	0.062610	0.018495
752	3.799922	0.005000	9.221400	-0.547242	-3.374640	-1.225643	-0.335551	1.324396	0.006179	0.081984	0.014115
753	3.804922	0.005000	9.299880	-0.593560	-3.261880	-1.225753	-0.335441	1.324151	0.002908	0.097655	0.020969
754	3.809922	0.005000	9.358483	-0.451003	-3.664871	-1.225863	-0.335331	1.323906	0.007555	0.091512	0.039230
755	3.814922	0.005000	9.253799	-0.523802	-3.386516	-1.225973	-0.335221	1.323661	0.001520	0.075166	0.036326
756	3.819922	0.005000	9.260640	-0.581603	-3.367643	-1.226082	-0.335112	1.323416	0.006937	0.094689	0.034091
757	3.824922	0.005000	9.343779	-0.600127	-3.229207	-1.226192	-0.335002	1.323171	0.013390	0.091146	0.036204
758	3.829922	0.005000	9.405571	-0.510120	-3.229709	-1.226302	-0.334892	1.322926	-0.007370	0.084951	0.035454
759	3.834922	0.005000	9.417600	-0.501317	-3.178440	-1.226412	-0.334782	1.322681	0.010690	0.077475	0.036017
760	3.839922	0.005000	9.339120	-0.546516	-3.121002	-1.226521	-0.334673	1.322436	0.005518	0.079542	0.025007
761	3.844922	0.005000	9.342090	-0.658169	-3.392032	-1.226631	-0.334563	1.322191	0.004221	0.071898	0.034577
762	3.849922	0.005000	9.208789	-0.634145	-3.403718	-1.226741	-0.334453	1.321946	0.019179	0.077807	0.034900
763	3.854922	0.005000	9.328927	-0.623509	-3.174109	-1.226851	-0.334343	1.321701	0.008796	0.072697	0.023795
764	3.859922	0.005000	9.375451	-0.480081	-3.051519	-1.227055	-0.334234	1.321456	0.030586	0.075537	0.029606
765	3.864922	0.005000	9.397268	-0.520286	-3.118868	-1.227274	-0.334124	1.321211	0.006832	0.070108	0.030736
766	3.869922	0.005000	9.323158	-0.588600	-3.036998	-1.227493	-0.334014	1.320966	0.015423	0.067869	0.024362
767	3.874922	0.005000	9.350617	-0.543612	-3.072217	-1.227713	-0.333905	1.320721	0.008172	0.060833	0.025011
768	3.879922	0.005000	9.414201	-0.706320	-3.207483	-1.227932	-0.333795	1.320476	0.003464	0.063438	0.026962
769	3.884922	0.005000	9.341110	-0.626845	-3.021480	-1.228151	-0.333686	1.320232	0.028044	0.052719	0.016983
770	3.889922	0.005000	9.455891	-0.626891	-3.059771	-1.228370	-0.333576	1.319987	0.009610	0.051562	0.014952
771	3.894922	0.005000	9.410866	-0.709687	-3.103327	-1.228590	-0.333466	1.319742	0.014355	0.044375	0.005187
772	3.899922	0.005000	9.350526	-0.667080	-3.172737	-1.228809	-0.333357	1.319497	0.002126	0.037302	0.006510
773	3.904922	0.005000	9.331404	-0.698604	-3.068436	-1.229028	-0.333247	1.319252	-0.003016	0.043326	0.001745
774	3.909922	0.005000	9.378360	-0.677200	-3.031600	-1.229248	-0.333138	1.319007	0.015005	0.037911	0.005660
775	3.914922	0.005000	9.481618	-0.613378	-2.930611	-1.229467	-0.333028	1.318762	0.009779	0.039706	-0.003272
776	3.919922	0.005000	9.452647	-0.613362	-2.996718	-1.229686	-0.332918	1.318517	0.011850	0.030617	-0.000073
777	3.924922	0.005000	9.456840	-0.521541	-3.144666	-1.229660	-0.332863	1.318486	0.001781	0.031824	0.010987
778	3.929922	0.005000	9.417600	-0.530528	-3.178440	-1.228892	-0.332973	1.319098	0.008918	0.032327	0.001589
779	3.934922	0.005000	9.399602	-0.570602	-3.163687	-1.228124	-0.333083	1.319711	0.018927	0.031511	0.004936
780	3.939922	0.005000	9.307383	-0.533492	-3.140062	-1.227356	-0.333192	1.320323	0.008288	0.043383	0.000916
781	3.944922	0.005000	9.235041	-0.537403	-3.190397	-1.226588	-0.333302	1.320936	0.016909	0.040169	0.009375
782	3.949922	0.005000	9.204627	-0.583060	-3.155973	-1.225820	-0.333412	1.321549	0.005349	0.046853	0.007436
783	3.954922	0.005000	9.288187	-0.667080	-3.130018	-1.225052	-0.333521	1.322161	0.015187	0.053737	-0.000749
784	3.959922	0.005000	9.286131	-0.634714	-2.989114	-1.224284	-0.333631	1.322774	0.014843	0.054661	0.013919
785	3.964922	0.005000	9.308818	-0.662611	-3.056251	-1.223516	-0.333741	1.323386	0.007459	0.063220	0.015543
786	3.969922	0.005000	9.341616	-0.677064	-2.984736	-1.222748	-0.333850	1.323999	0.021938	0.051371	0.012610
787	3.974922	0.005000	9.417493	-0.784371	-2.982454	-1.221980	-0.333960	1.324612	0.013426	0.051405	0.009448
788	3.979922	0.005000	9.303553	-0.740050	-3.135527	-1.221212	-0.334070	1.325224	0.018640	0.051563	0.005387
789	3.984922	0.005000	9.343359	-0.702081	-2.986479	-1.220444	-0.334179	1.325837	0.023007	0.059396	0.005325
790	3.989922	0.005000	9.299880	-0.738995	-2.910325	-1.219676	-0.334289	1.326449	0.013309	0.050243	0.006494
791	3.994922	0.005000	9.146625	-0.692847	-3.415059	-1.220817	-0.334611	1.327456	-0.011524	0.029340	-0.004919
792	3.999922	0.005000	9.406596	-0.667080	-3.156433	-1.223010	-0.335049	1.328681	0.000575	0.030335	-0.001987
793	4.004922	0.005000	9.430851	-0.693069	-3.047469	-1.225203	-0.335488	1.329905	0.010456	0.030322	-0.001722
794	4.009922	0.005000	9.424428	-0.689264	-2.936172	-1.227396	-0.335927	1.331130	0.015871	0.035996	0.007380
795	4.014922	0.005000	9.374245	-0.571037	-2.982240	-1.229589	-0.336366	1.332354	0.018406	0.017157	0.000305
796	4.019922	0.005000	9.359015	-0.588416	-2.982056	-1.231783	-0.336804	1.333579	0.016610	0.015832	-0.004596
797	4.024922	0.005000	9.417600	-0.617827	-2.903760	-1.233976	-0.337243	1.334803	0.008277	0.008292	-0.005518
798	4.029922	0.005000	9.354292	-0.558255	-3.042930	-1.236169	-0.337682	1.336028	0.010795	0.002250	-0.000861
799	4.034922	0.005000	9.339120	-0.496407	-3.138251	-1.238362	-0.338120	1.337252	0.002932	0.011934	-0.004453
800	4.039922	0.005000	9.331965	-0.617145	-3.110655	-1.240555	-0.338559	1.338477	0.018820	0.023728	0.002295
801	4.044922	0.005000	9.260640	-0.597005	-3.021480	-1.242749	-0.338998	1.339701	0.016734	0.028060	0.004165
802	4.049922	0.005000	9.390359	-0.588600	-3.093961	-1.244942	-0.339436	1.340925	0.009575	0.030472	-0.001686
803	4.054922	0.005000	9.417600	-0.647036	-3.076755	-1.247135	-0.339875	1.342150	0.022880	0.021412	0.003942
804	4.059922	0.005000	9.378360	-0.474186	-2.946306	-1.249224	-0.340303	1.343333	0.017936	0.016857	0.008247
805	4.064922	0.005000	9.378360	-0.626327	-2.982996	-1.248347	-0.340412	1.343333	0.020133	0.018788	0.001404
806	4.069922	0.005000	9.378360	-0.554778	-2.974113	-1.247470	-0.340522	1.343333	0.000227	0.024435	-0.000555
807	4.074922	0.005000	9.373246	-0.651739	-2.987354	-1.246592	-0.340632	1.343333	0.014572	0.012868	-0.009340
808	4.079922	0.005000	9.242574	-0.627840	-2.950058	-1.245715	-0.340741	1.343333	0.008920	0.015279	-0.003930
809	4.084922	0.005000	9.378360	-0.579127	-3.189260	-1.244838	-0.340851	1.343333	0.009047	0.021526	-0.007159
810	4.089922	0.005000	9.386075	-0.627840	-2.797779	-1.243961	-0.340960	1.343333	0.003287	0.006861	-0.008945
811	4.094922	0.005000	9.364535	-0.614015	-2.917585	-1.243083	-0.341070	1.343333	-0.003431	0.009635	-0.013253
812	4.099922	0.005000	9.503220	-0.674220	-3.099960	-1.242206	-0.341180	1.343333	0.011069	0.001442	-0.007906
813	4.104922	0.005000	9.453963	-0.624963	-2.898006	-1.241329	-0.341289	1.343333	0.015340	-0.002761	-0.011468
814	4.109922	0.005000	9.421489	-0.611137	-2.740967	-1.240451	-0.341399	1.343333	0.005945	-0.018046	-0.011862
815	4.114922	0.005000	9.417600	-0.717190	-2.953870	-1.239574	-0.341508	1.343333	0.006703	-0.029404	-0.017957
816	4.119922	0.005000	9.442546	-0.770506	-3.046426	-1.238697	-0.341618	1.343333	0.006073	-0.047079	-0.013004
817	4.124922	0.005000	9.496080	-0.654872	-2.972649	-1.237819	-0.341728	1.343333	0.011985	-0.067562	-0.012165
818	4.129922	0.005000	9.417600	-0.627289	-2.755095	-1.236988	-0.341698	1.342815	-0.005679	-0.083503	-0.017826
819	4.134922	0.005000	9.315703	-0.549360	-2.566741	-1.236220	-0.341479	1.341590	0.004281	-0.099271	-0.028103
820	4.139922	0.005000	9.339120	-0.599776	-2.886873	-1.235453	-0.341259	1.340365	0.010303	-0.100745	-0.028723
821	4.144922	0.005000	9.342303	-0.624657	-2.982240	-1.234685	-0.341040	1.339140	0.014991	-0.091161	-0.028102
822	4.149922	0.005000	9.418825	-0.548135	-2.987141	-1.233917	-0.340821	1.337915	0.011580	-0.101831	-0.021535
823	4.154922	0.005000	9.456840	-0.624305	-3.139200	-1.233149	-0.340601	1.336690	-0.005982	-0.100382	-0.024768
824	4.159922	0.005000	9.263762	-0.522608	-3.253798	-1.232381	-0.340382	1.335465	0.008016	-0.101103	-0.028561
825	4.164922	0.005000	9.266167	-0.538306	-3.178440	-1.231613	-0.340162	1.334240	0.004142	-0.089432	-0.012565
826	4.169922	0.005000	9.197862	-0.580749	-3.280458	-1.230845	-0.339943	1.333015	0.003125	-0.075230	-0.015413
827	4.174922	0.005000	9.142920	-0.441527	-3.452814	-1.230077	-0.339724	1.331790	0.009655	-0.070741	-0.012729
828	4.179922	0.005000	9.167508	-0.392400	-3.428532	-1.229309	-0.339504	1.330565	0.005393	-0.051199	0.003281
829	4.184922	0.005000	9.274878	-0.495882	-3.349638	-1.228541	-0.339285	1.329340	0.020003	-0.039411	-0.001075
830	4.189922	0.005000	9.266578	-0.561236	-3.323524	-1.227774	-0.339065	1.328115	0.007862	-0.021157	0.008518
831	4.194922	0.005000	9.296734	-0.629413	-3.294587	-1.227006	-0.338846	1.326890	0.009654	-0.011811	-0.000482
832	4.199922	0.005000	9.182160	-0.567603	-3.238677	-1.226776	-0.338447	1.326567	0.005527	-0.009540	0.013906
833	4.204922	0.005000	9.223472	-0.643950	-3.247829	-1.226666	-0.338008	1.326444	0.015400	0.003674	0.008348
834	4.209922	0.005000	9.302299	-0.535474	-3.099960	-1.226557	-0.337569	1.326322	0.016609	0.013565	0.023475
835	4.214922	0.005000	9.272439	-0.478837	-3.154842	-1.226447	-0.337131	1.326199	0.013359	0.026307	0.006626
836	4.219922	0.005000	9.299880	-0.588600	-3.158269	-1.226337	-0.336692	1.326077	0.012987	0.023516	0.010477
837	4.224922	0.005000	9.378360	-0.634959	-3.185559	-1.226228	-0.336253	1.325954	0.011508	0.024573	0.013153
838	4.229922	0.005000	9.432939	-0.667080	-3.134087	-1.226118	-0.335814	1.325832	0.012879	0.018814	0.010508
839	4.234922	0.005000	9.681200	-0.585830	-2.982240	-1.226008	-0.335375	1.325709	0.016191	0.012829	0.019543
840	4.239922	0.005000	9.575377	-0.587783	-3.019029	-1.225898	-0.334936	1.325587	0.011867	-0.007417	0.013089
841	4.244922	0.005000	9.613800	-0.549360	-2.941408	-1.225789	-0.334498	1.325464	0.019971	-0.023651	0.023170
842	4.249922	0.005000	9.590353	-0.659184	-2.793936	-1.225679	-0.334059	1.325341	0.011378	-0.040007	0.017343
843	4.254922	0.005000	9.668519	-0.761039	-2.843101	-1.225569	-0.333620	1.325219	0.010016	-0.058347	0.018489
844	4.259922	0.005000	9.582819	-0.551417	-3.283756	-1.225459	-0.333181	1.325096	0.001646	-0.073205	0.016336
845	4.264922	0.005000	9.440091	-0.547446	-3.199017	-1.225420	-0.332813	1.325000	0.008379	-0.096881	0.006245
846	4.269922	0.005000	9.431435	-0.601302	-3.126498	-1.225639	-0.332703	1.325000	0.027116	-0.091310	0.009527
847	4.274922	0.005000	9.402489	-0.564471	-3.090942	-1.225859	-0.332593	1.325000	0.004684	-0.095193	0.017511
848	4.279922	0.005000	9.468767	-0.610784	-2.954927	-1.226078	-0.332483	1.325000	0.011551	-0.097062	0.012457
849	4.284922	0.005000	9.359118	-0.627084	-3.021480	-1.226297	-0.332374	1.325000	0.018780	-0.095245	0.001780
850	4.289922	0.005000	9.342701	-0.527949	-3.139200	-1.226517	-0.332264	1.325000	0.014434	-0.091522	0.001143
851	4.294922	0.005000	9.269045	-0.699308	-3.248515	-1.226736	-0.332154	1.325000	0.021380	-0.086743	0.006414
852	4.299922	0.005000	9.313192	-0.562672	-3.348712	-1.226956	-0.332044	1.325000	0.022920	-0.081113	0.000399
853	4.304922	0.005000	9.288815	-0.560425	-3.234790	-1.227175	-0.331935	1.325000	0.030164	-0.079652	0.001804
854	4.309922	0.005000	9.191176	-0.676096	-3.226696	-1.227394	-0.331825	1.325000	0.012143	-0.065437	0.006794
855	4.314922	0.005000	9.274052	-0.699614	-3.282748	-1.227614	-0.331715	1.325000	0.017614	-0.062006	0.005197
856	4.319922	0.005000	9.247739	-0.662780	-3.016644	-1.227833	-0.331605	1.325000	0.014563	-0.065625	-0.002181
857	4.324922	0.005000	9.260640	-0.630197	-3.185511	-1.228053	-0.331496	1.325000	0.013292	-0.056503	-0.003515
858	4.329922	0.005000	9.221461	-0.667080	-3.217801	-1.228272	-0.331386	1.325000	0.029806	-0.051097	0.009522
859	4.334922	0.005000	9.264621	-0.553341	-3.254930	-1.228291	-0.331476	1.325075	0.036240	-0.030543	0.000098
860	4.339922	0.005000	9.256232	-0.732337	-3.213272	-1.228182	-0.331696	1.325197	0.029256	-0.036346	-0.002789
861	4.344922	0.005000	9.228132	-0.660348	-3.191903	-1.228072	-0.331915	1.325319	0.019183	-0.021962	0.000886
862	4.349922	0.005000	9.352088	-0.518877	-3.178440	-1.227962	-0.332134	1.325442	0.022639	-0.022281	-0.001013
863	4.354922	0.005000	9.361464	-0.571704	-3.139200	-1.227853	-0.332354	1.325564	0.023513	-0.029614	-0.007327
864	4.359922	0.005000	9.312996	-0.575591	-3.126084	-1.227743	-0.332573	1.325687	0.014955	-0.013015	-0.000408
865	4.364922	0.005000	9.441315	-0.651555	-3.154725	-1.227634	-0.332792	1.325809	0.026302	-0.013489	0.009974
866	4.369922	0.005000	9.396089	-0.631622	-3.086013	-1.227524	-0.333012	1.325932	0.022978	-0.009622	0.000836
867	4.374922	0.005000	9.476200	-0.609001	-3.139200	-1.227414	-0.333231	1.326054	0.020155	-0.018737	-0.001823
868	4.379922	0.005000	9.505701	-0.627840	-3.217680	-1.227305	-0.333450	1.326177	0.012394	-0.019321	0.006606
869	4.384922	0.005000	9.423372	-0.657848	-3.139200	-1.227195	-0.333670	1.326299	0.016184	-0.017578	-0.002437
870	4.389922	0.005000	9.367219	-0.654485	-3.137746	-1.227085	-0.333889	1.326422	0.011379	-0.028961	0.012840
871	4.394922	0.005000	9.339120	-0.614437	-3.139200	-1.226976	-0.334108	1.326544	0.017928	-0.023922	0.007309
872	4.399922	0.005000	9.401126	-0.479117	-3.186677	-1.226866	-0.334328	1.326667	0.021348	-0.029788	0.001458
873	4.404922	0.005000	9.365895	-0.621608	-3.275617	-1.226647	-0.334219	1.326178	0.012251	-0.022991	-0.002248
874	4.409922	0.005000	9.331342	-0.698542	-3.292271	-1.226428	-0.334109	1.325689	0.024886	-0.028453	0.002055
875	4.414922	0.005000	9.337635	-0.741106	-3.175471	-1.226209	-0.334000	1.325199	0.035109	-0.031754	0.010058
876	4.419922	0.005000	9.338661	-0.511498	-3.099960	-1.225990	-0.333890	1.324710	0.022669	-0.027699	-0.001677
877	4.424922	0.005000	9.445331	-0.585723	-2.744963	-1.225770	-0.333780	1.324220	0.036875	-0.032890	0.012501
878	4.429922	0.005000	9.383854	-0.574138	-2.854878	-1.225551	-0.333671	1.323730	0.020073	-0.028024	0.016652
879	4.434922	0.005000	9.267866	-0.563813	-3.245575	-1.225332	-0.333561	1.323241	0.040623	-0.036840	0.014874
880	4.439922	0.005000	9.369949	-0.529180	-3.198620	-1.225113	-0.333452	1.322751	0.033344	-0.014270	0.029552
881	4.444922	0.005000	9.276709	-0.477981	-3.143684	-1.224894	-0.333342	1.322262	0.036004	-0.011568	0.019545
882	4.449922	0.005000	9.288293	-0.510120	-3.307747	-1.224674	-0.333233	1.321772	0.037775	-0.025810	0.026597
883	4.454922	0.005000	9.182160	-0.494182	-3.256920	-1.224455	-0.333123	1.321282	0.041539	-0.005682	0.018220
884	4.459922	0.005000	9.258100	-0.609490	-3.238570	-1.224236	-0.333013	1.320793	0.043907	-0.004811	0.030870
885	4.464922	0.005000	9.277582	-0.586815	-3.238193	-1.224017	-0.332904	1.320303	0.040311	0.004810	0.033662
886	4.469922	0.005000	9.306050	-0.600940	-3.250750	-1.223881	-0.332794	1.320466	0.064904	-0.000992	0.029423
887	4.474922	0.005000	9.232377	-0.681211	-3.239635	-1.223881	-0.332685	1.321691	0.039105	-0.002714	0.033584
888	4.479922	0.005000	9.221400	-0.784800	-3.377319	-1.223881	-0.332575	1.322915	0.026973	0.022287	0.022473
889	4.484922	0.005000	9.240959	-0.706442	-3.237239	-1.223881	-0.332465	1.324140	0.040273	0.020481	0.033915
890	4.489922	0.005000	9.339059	-0.455147	-3.296160	-1.223881	-0.332355	1.325364	0.031918	0.014050	0.027259
891	4.494922	0.005000	9.276899	-0.627840	-3.296160	-1.223881	-0.332246	1.326589	0.038812	0.015889	0.025180
892	4.499922	0.005000	9.313616	-0.735258	-3.253486	-1.223881	-0.332136	1.327814	0.038541	0.016723	0.027638
893	4.504922	0.005000	9.455769	-0.744489	-3.366070	-1.223881	-0.332026	1.329038	0.019835	0.021831	0.025057
894	4.509922	0.005000	9.264131	-0.783055	-3.290924	-1.223881	-0.331917	1.330263	0.028022	0.016364	0.022731
895	4.514922	0.005000	9.692035	-0.895939	-2.681726	-1.223881	-0.331807	1.331487	0.027088	0.019034	0.024032
896	4.519922	0.005000	9.417449	-0.655825	-3.016004	-1.223881	-0.331697	1.332712	0.018950	-0.001837	0.021153
897	4.524922	0.005000	9.275920	-0.706320	-3.279839	-1.223881	-0.331588	1.333936	0.026747	0.012077	0.030591
898	4.529922	0.005000	9.329065	-0.608710	-3.129145	-1.223881	-0.331478	1.335161	0.031967	0.021632	0.019724
899	4.534922	0.005000	9.402357	-0.612597	-3.166441	-1.223881	-0.331368	1.336385	0.022573	-0.003345	0.025967
900	4.539922	0.005000	9.318268	-0.677506	-3.124793	-1.223965	-0.331259	1.336195	0.022449	-0.000474	0.013881
901	4.544922	0.005000	9.227390	-0.762185	-3.066710	-1.224075	-0.331149	1.335583	0.040842	-0.004021	0.014780
902	4.549922	0.005000	9.301610	-0.646595	-3.159685	-1.224185	-0.331039	1.334970	0.020379	-0.010073	0.011533
903	4.554922	0.005000	9.354103	-0.742469	-3.036463	-1.224294	-0.330930	1.334358	0.019123	-0.011375	0.009960
904	4.559922	0.005000	9.315824	-0.697728	-3.123256	-1.224404	-0.330820	1.333745	0.009108	-0.010367	0.016027
905	4.564922	0.005000	9.364642	-0.639644	-3.074438	-1.224514	-0.330710	1.333132	0.014493	-0.022896	0.016189
906	4.569922	0.005000	9.322500	-0.588600	-3.234300	-1.224623	-0.330601	1.332520	0.019283	-0.028296	0.013185
907	4.574922	0.005000	9.369102	-0.627840	-3.189906	-1.224733	-0.330491	1.331907	0.010594	-0.028612	0.009672
908	4.579922	0.005000	9.339120	-0.620889	-3.263871	-1.224843	-0.330381	1.331295	0.012350	-0.032082	0.016476
909	4.584922	0.005000	9.339120	-0.584055	-3.204044	-1.224952	-0.330272	1.330682	0.010800	-0.024444	0.016393
910	4.589922	0.005000	9.336548	-0.586028	-3.181012	-1.225062	-0.330162	1.330069	0.025696	-0.020263	0.004801
911	4.594922	0.005000	9.417049	-0.627473	-2.983710	-1.225172	-0.330052	1.329457	0.017847	-0.028410	-0.001801
912	4.599922	0.005000	9.485113	-0.919826	-3.036834	-1.225281	-0.329943	1.328844	0.018426	-0.025817	0.007602
913	4.604922	0.005000	9.497841	-0.706320	-3.451359	-1.225373	-0.329851	1.328252	0.008361	-0.025155	0.010857
914	4.609922	0.005000	9.299880	-0.732398	-3.433622	-1.225373	-0.329851	1.327762	0.002704	-0.016403	0.000013
915	4.614922	0.005000	9.321361	-0.715200	-3.235439	-1.225373	-0.329851	1.327272	0.017426	-0.009659	0.003962
916	4.619922	0.005000	9.328189	-0.695389	-3.235057	-1.225373	-0.329851	1.326783	0.016309	-0.007500	0.007093
917	4.624922	0.005000	9.456840	-0.562695	-3.256154	-1.225373	-0.329851	1.326293	0.018473	-0.005040	0.003057
918	4.629922	0.005000	9.370252	-0.596708	-3.272486	-1.225373	-0.329851	1.325803	0.023892	-0.009350	0.009705
919	4.634922	0.005000	9.296023	-0.606292	-3.160748	-1.225373	-0.329851	1.325313	0.010709	-0.003073	0.006555
920	4.639922	0.005000	9.339120	-0.587635	-3.159302	-1.225373	-0.329851	1.324824	0.017638	-0.010131	0.001118
921	4.644922	0.005000	9.361167	-0.684273	-3.195633	-1.225373	-0.329851	1.324334	0.008961	-0.011061	0.009830
922	4.649922	0.005000	9.236184	-0.637512	-3.340512	-1.225373	-0.329851	1.323844	0.025328	-0.000156	-0.012592
923	4.654922	0.005000	9.351812	-0.641697	-3.217680	-1.225373	-0.329851	1.323354	-0.001072	-0.010666	0.004177
924	4.659922	0.005000	9.299880	-0.687932	-3.269811	-1.225373	-0.329851	1.322865	-0.000085	0.005253	-0.009456
925	4.664922	0.005000	9.339120	-0.714339	-3.296160	-1.225373	-0.329851	1.322375	0.010538	-0.000764	-0.008297
926	4.669922	0.005000	9.293874	-0.655069	-3.199663	-1.225373	-0.329851	1.321885	0.018013	0.003776	-0.000483
927	4.674922	0.005000	9.253322	-0.699002	-3.142859	-1.225495	-0.329912	1.321871	0.026940	0.005087	0.000333
928	4.679922	0.005000	9.183415	-0.667080	-3.256920	-1.225714	-0.330021	1.322238	0.012975	0.014903	0.004056
929	4.684922	0.005000	9.337053	-0.667080	-3.141267	-1.225933	-0.330131	1.322606	0.009773	0.015728	-0.010842
930	4.689922	0.005000	9.263747	-0.670187	-3.293053	-1.226153	-0.330241	1.322973	0.008310	0.002124	-0.005626
931	4.694922	0.005000	9.339120	-0.638732	-3.273257	-1.226372	-0.330350	1.323341	-0.000545	0.017955	-0.006136
932	4.699922	0.005000	9.363454	-0.573694	-3.225133	-1.226592	-0.330460	1.323708	0.010533	0.008793	-0.006513
933	4.704922	0.005000	9.280124	-0.686836	-3.315916	-1.226811	-0.330570	1.324076	0.009835	0.018470	0.004528
934	4.709922	0.005000	9.511712	-0.627840	-3.229484	-1.227031	-0.330679	1.324443	0.006659	0.024632	-0.003802
935	4.714922	0.005000	9.428405	-0.592013	-3.103373	-1.227250	-0.330789	1.324811	0.019250	0.014371	0.010627
936	4.719922	0.005000	9.401172	-0.673464	-3.122772	-1.227469	-0.330899	1.325178	0.003194	0.013398	0.010566
937	4.724922	0.005000	9.378360	-0.726989	-3.102057	-1.227689	-0.331008	1.325546	0.009917	-0.002993	0.008600
938	4.729922	0.005000	9.438582	-0.612306	-3.238662	-1.227908	-0.331118	1.325914	0.007194	0.016609	0.002226
939	4.734922	0.005000	9.414509	-0.552451	-3.247217	-1.228128	-0.331228	1.326281	0.010957	0.011010	0.006753
940	4.739922	0.005000	9.389797	-0.655643	-3.203778	-1.228347	-0.331337	1.326649	0.019004	0.011488	-0.003337
941	4.744922	0.005000	9.339120	-0.733746	-3.088146	-1.228046	-0.331239	1.326667	0.016654	0.023827	0.000580
942	4.749922	0.005000	9.408050	-0.745560	-3.098919	-1.227717	-0.331129	1.326667	0.012276	0.023129	0.006490
943	4.754922	0.005000	9.378360	-0.801485	-3.178440	-1.227388	-0.331020	1.326667	0.009051	0.022701	0.004836
944	4.759922	0.005000	9.388740	-0.701130	-3.162870	-1.227059	-0.330910	1.326667	0.019475	0.011098	0.005839
945	4.764922	0.005000	9.414378	-0.732672	-2.880630	-1.226730	-0.330800	1.326667	0.007132	0.010080	0.003407
946	4.769922	0.005000	9.377518	-0.666238	-3.252710	-1.226401	-0.330691	1.326667	0.021015	0.005194	-0.002140
947	4.774922	0.005000	9.339120	-0.552446	-3.136114	-1.226072	-0.330581	1.326667	0.014079	-0.010364	-0.007600
948	4.779922	0.005000	9.407082	-0.656562	-3.171428	-1.225743	-0.330472	1.326667	0.005113	0.004486	-0.005242
949	4.784922	0.005000	9.372437	-0.627840	-3.223603	-1.225414	-0.330362	1.326667	0.017377	0.000033	-0.001800
950	4.789922	0.005000	9.378360	-0.612107	-3.084319	-1.225085	-0.330252	1.326667	0.007739	0.002165	-0.001850
951	4.794922	0.005000	9.388633	-0.588600	-3.110233	-1.224756	-0.330143	1.326667	0.019831	-0.006579	-0.002071
952	4.799922	0.005000	9.417600	-0.640380	-3.087420	-1.224427	-0.330033	1.326667	0.005847	-0.008545	0.008341
953	4.804922	0.005000	9.349098	-0.730929	-3.139200	-1.224098	-0.329923	1.326667	0.017086	-0.006676	0.000337
954	4.809922	0.005000	9.385081	-0.605640	-2.871241	-1.224178	-0.329814	1.327290	-0.002361	-0.025225	0.006192
955	4.814922	0.005000	9.260640	-0.492406	-3.001225	-1.225056	-0.329704	1.329127	-0.002433	-0.036222	0.003242
956	4.819922	0.005000	9.339120	-0.627840	-3.231974	-1.225934	-0.329594	1.330965	0.024771	-0.028847	0.006109
957	4.824922	0.005000	9.291968	-0.541554	-3.217680	-1.226811	-0.329485	1.332802	-0.009194	-0.030616	0.006235
958	4.829922	0.005000	9.326857	-0.627840	-3.098735	-1.227689	-0.329375	1.334640	0.024752	-0.027129	0.001023
959	4.834922	0.005000	9.433998	-0.565758	-2.903760	-1.228567	-0.329265	1.336478	0.025052	-0.038487	0.012186
960	4.839922	0.005000	9.348260	-0.576781	-3.021480	-1.229444	-0.329155	1.338315	0.025809	-0.050353	0.007352
961	4.844922	0.005000	9.450106	-0.725358	-2.949734	-1.230322	-0.329046	1.340153	0.022365	-0.071234	-0.000784
962	4.849922	0.005000	9.398439	-0.701530	-3.055930	-1.231200	-0.328936	1.341990	0.016297	-0.057785	0.000082
963	4.854922	0.005000	9.221400	-0.593346	-3.143946	-1.232077	-0.328826	1.343828	0.017626	-0.071955	0.004762
964	4.859922	0.005000	9.417176	-0.706320	-2.906725	-1.232955	-0.328716	1.345666	0.018143	-0.074497	0.003470
965	4.864922	0.005000	9.415625	-0.780850	-3.066645	-1.233832	-0.328607	1.347503	0.012790	-0.086022	-0.008224
966	4.869922	0.005000	9.303799	-0.698481	-3.366801	-1.234710	-0.328497	1.349341	0.033154	-0.076225	-0.003605
967	4.874922	0.005000	9.240408	-0.726552	-3.184776	-1.235588	-0.328387	1.351179	0.022764	-0.073130	0.002326
968	4.879922	0.005000	9.392761	-0.675360	-3.075121	-1.235257	-0.328761	1.351038	0.036634	-0.074063	-0.003202
969	4.884922	0.005000	9.299880	-0.510120	-3.206993	-1.234490	-0.329309	1.350180	0.023700	-0.072114	-0.002031
970	4.889922	0.005000	9.312829	-0.614891	-3.204338	-1.233722	-0.329857	1.349323	0.018610	-0.069251	-0.011279
971	4.894922	0.005000	9.169748	-0.697168	-3.175808	-1.232955	-0.330406	1.348466	0.021075	-0.068727	-0.001848
972	4.899922	0.005000	9.226150	-0.632590	-3.205185	-1.232187	-0.330954	1.347609	0.013766	-0.065020	-0.009865
973	4.904922	0.005000	9.299421	-0.803272	-2.980403	-1.231419	-0.331502	1.346752	0.021668	-0.068962	-0.011574
974	4.909922	0.005000	9.364503	-0.759417	-2.970713	-1.230652	-0.332050	1.345895	-0.009471	-0.054640	-0.017995
975	4.914922	0.005000	9.346362	-0.816798	-3.146442	-1.229884	-0.332599	1.345037	0.006473	-0.060299	-0.025143
976	4.919922	0.005000	9.260625	-0.797885	-3.256935	-1.229116	-0.333147	1.344180	-0.002701	-0.062473	-0.024201
977	4.924922	0.005000	9.131289	-0.695179	-3.217680	-1.228349	-0.333695	1.343323	-0.011726	-0.061102	-0.030754
978	4.929922	0.005000	9.182160	-0.745560	-3.348521	-1.227581	-0.334244	1.342466	-0.005230	-0.062356	-0.024015
979	4.934922	0.005000	9.332419	-0.725456	-3.282757	-1.226814	-0.334792	1.341609	-0.025757	-0.046673	-0.027379
980	4.939922	0.005000	9.339120	-0.540606	-3.287406	-1.226046	-0.335340	1.340751	-0.032805	-0.043702	-0.022341
981	4.944922	0.005000	9.407801	-0.390440	-3.260839	-1.225373	-0.335767	1.339909	-0.010167	-0.029433	-0.021996
982	4.949922	0.005000	9.221400	-0.431655	-3.296145	-1.225373	-0.335328	1.339175	-0.007397	-0.029152	-0.017546
983	4.954922	0.005000	9.147640	-0.470880	-3.330680	-1.225373	-0.334890	1.338440	0.000598	-0.010669	-0.002495
984	4.959922	0.005000	9.251974	-0.654082	-3.405214	-1.225373	-0.334451	1.337705	-0.008400	0.001118	-0.004379
985	4.964922	0.005000	9.358113	-0.680578	-3.634567	-1.225373	-0.334012	1.336971	0.003222	0.005235	-0.000311
986	4.969922	0.005000	9.317266	-0.488266	-3.422573	-1.225373	-0.333574	1.336236	-0.015378	0.016252	-0.006312
987	4.974922	0.005000	9.243591	-0.510120	-3.369498	-1.225373	-0.333135	1.335501	-0.011148	0.020994	-0.018568
988	4.979922	0.005000	9.168818	-0.588600	-3.335400	-1.225373	-0.332697	1.334766	-0.017570	0.024718	-0.002950
989	4.984922	0.005000	9.277328	-0.651632	-3.311608	-1.225373	-0.332258	1.334032	-0.018025	0.041256	-0.005768
990	4.989922	0.005000	9.382293	-0.627840	-3.353053	-1.225373	-0.331819	1.333297	-0.007522	0.045159	-0.005968
991	4.994922	0.005000	9.241571	-0.686516	-3.217680	-1.225373	-0.331381	1.332562	-0.013378	0.049423	-0.012095
992	4.999922	0.005000	9.204375	-0.745560	-3.222870	-1.225373	-0.330942	1.331828	-0.009267	0.037739	-0.005083
993	5.004922	0.005000	9.290801	-0.597679	-3.193521	-1.225373	-0.330503	1.331093	-0.001037	0.043146	-0.007903
994	5.009922	0.005000	9.235296	-0.484776	-3.255696	-1.225373	-0.330065	1.330358	0.000305	0.055751	-0.017185
995	5.014922	0.005000	9.192764	-0.520724	-3.371463	-1.225261	-0.330020	1.329812	-0.021865	0.060789	-0.013114
996	5.019922	0.005000	9.244013	-0.644467	-3.256920	-1.225041	-0.330349	1.329444	-0.011567	0.078608	-0.016933
997	5.024922	0.005000	9.142920	-0.660787	-3.302453	-1.224822	-0.330678	1.329077	0.004899	0.089468	-0.010666
998	5.029922	0.005000	9.182160	-0.639731	-3.405952	-1.224602	-0.331007	1.328709	-0.001230	0.101589	-0.010328
999	5.034922	0.005000	9.182160	-0.739375	-3.412334	-1.224383	-0.331336	1.328342	0.000012	0.113648	-0.003360
1000	5.039922	0.005000	9.104476	-0.627442	-3.374640	-1.224164	-0.331665	1.327974	-0.002217	0.132602	-0.005667
1001	5.044922	0.005000	9.103680	-0.742758	-3.265325	-1.223944	-0.331994	1.327607	-0.003994	0.146893	-0.011614
1002	5.049922	0.005000	9.148063	-0.588600	-3.188727	-1.223725	-0.332323	1.327239	0.000855	0.164185	-0.002695
1003	5.054922	0.005000	9.167860	-0.581450	-3.239130	-1.223505	-0.332652	1.326871	-0.000435	0.178643	-0.012467
1004	5.059922	0.005000	9.211945	-0.558815	-3.277251	-1.223286	-0.332981	1.326504	-0.002014	0.187208	-0.011878
1005	5.064922	0.005000	9.316102	-0.588600	-3.240698	-1.223066	-0.333310	1.326136	-0.013006	0.201648	-0.008858
1006	5.069922	0.005000	9.417600	-0.546849	-3.192357	-1.222847	-0.333639	1.325769	-0.010467	0.199994	-0.017440
1007	5.074922	0.005000	9.385877	-0.581083	-3.115821	-1.222628	-0.333969	1.325401	-0.008559	0.193673	-0.011264
1008	5.079922	0.005000	9.456840	-0.648807	-3.037060	-1.222408	-0.334298	1.325034	-0.014920	0.193585	-0.016402
1009	5.084922	0.005000	9.497714	-0.528923	-3.139200	-1.222587	-0.334726	1.324555	-0.009528	0.189860	-0.014418
1010	5.089922	0.005000	9.456840	-0.588600	-3.116572	-1.222806	-0.335165	1.324066	-0.005891	0.190314	-0.007971
1011	5.094922	0.005000	9.363868	-0.549360	-2.978004	-1.223026	-0.335604	1.323576	-0.016166	0.193600	-0.017333
1012	5.099922	0.005000	9.312139	-0.483139	-2.886573	-1.223245	-0.336042	1.323086	-0.014131	0.178653	-0.006676
1013	5.104922	0.005000	9.299880	-0.549360	-3.021618	-1.223464	-0.336481	1.322596	-0.009518	0.178012	-0.020123
1014	5.109922	0.005000	9.386260	-0.588600	-3.099960	-1.223684	-0.336920	1.322106	-0.005515	0.164401	-0.009564
1015	5.114922	0.005000	9.389353	-0.583104	-3.128207	-1.223903	-0.337358	1.321616	-0.003981	0.170285	-0.017074
1016	5.119922	0.005000	9.453330	-0.667080	-2.982240	-1.224122	-0.337797	1.321127	-0.008335	0.162293	-0.016247
1017	5.124922	0.005000	9.377212	-0.667080	-2.944148	-1.224342	-0.338236	1.320637	-0.004820	0.159874	-0.010996
1018	5.129922	0.005000	9.453073	-0.629096	-2.906271	-1.224561	-0.338674	1.320147	-0.008702	0.154131	-0.021365
1019	5.134922	0.005000	9.414386	-0.696678	-2.834922	-1.224780	-0.339113	1.319657	-0.007766	0.145739	-0.019877
1020	5.139922	0.005000	9.529701	-0.689463	-2.864520	-1.224999	-0.339552	1.319167	-0.021737	0.148654	-0.007532
1021	5.144922	0.005000	9.645477	-0.698757	-2.959550	-1.225219	-0.339991	1.318677	-0.007726	0.134095	-0.012959
1022	5.149922	0.005000	9.564582	-0.637818	-2.952978	-1.225503	-0.340201	1.318224	0.000656	0.133169	-0.009167
1023	5.154922	0.005000	9.427312	-0.760324	-2.918524	-1.225942	-0.339872	1.317856	0.004050	0.129463	-0.014709
1024	5.159922	0.005000	9.585139	-0.667080	-2.903760	-1.226381	-0.339543	1.317489	-0.009983	0.116717	-0.012731
1025	5.164922	0.005000	9.462594	-0.571857	-2.903760	-1.226820	-0.339214	1.317121	-0.011198	0.109157	-0.012114
1026	5.169922	0.005000	9.477861	-0.587666	-2.982240	-1.227259	-0.338885	1.316754	0.000252	0.098620	-0.002656
1027	5.174922	0.005000	9.478154	-0.549360	-2.960926	-1.227697	-0.338556	1.316386	-0.004963	0.096087	-0.008895
1028	5.179922	0.005000	9.449065	-0.557135	-2.927267	-1.228136	-0.338226	1.316019	-0.000131	0.096291	-0.014592
1029	5.184922	0.005000	9.547920	-0.576000	-2.825280	-1.228575	-0.337897	1.315651	0.000122	0.093758	-0.011265
1030	5.189922	0.005000	9.551787	-0.627840	-2.915146	-1.229014	-0.337568	1.315284	0.002749	0.091038	-0.009666
1031	5.194922	0.005000	9.447868	-0.736588	-2.746800	-1.229453	-0.337239	1.314916	-0.006054	0.070324	0.006658
1032	5.199922	0.005000	9.396770	-0.692433	-2.767630	-1.229891	-0.336910	1.314549	-0.012591	0.073442	-0.011202
1033	5.204922	0.005000	9.348364	-0.514742	-2.859898	-1.230330	-0.336581	1.314181	-0.003127	0.063701	-0.004307
1034	5.209922	0.005000	9.463454	-0.553769	-2.899351	-1.230769	-0.336251	1.313814	-0.009156	0.065765	-0.004927
1035	5.214922	0.005000	9.574300	-0.588860	-2.747841	-1.231208	-0.335922	1.313446	-0.010106	0.061239	0.000611
1036	5.219922	0.005000	9.349709	-0.627840	-2.903760	-1.231495	-0.335745	1.313503	-0.024717	0.053395	-0.005859
1037	5.224922	0.005000	9.405337	-0.514208	-2.895584	-1.231714	-0.335635	1.313748	-0.007910	0.051814	-0.005854
1038	5.229922	0.005000	9.456840	-0.497111	-2.943000	-1.231933	-0.335526	1.313992	-0.005761	0.045688	-0.004449
1039	5.234922	0.005000	9.526516	-0.597404	-2.973436	-1.232153	-0.335416	1.314237	-0.006720	0.045379	-0.004771
1040	5.239922	0.005000	9.478550	-0.656225	-3.095780	-1.232372	-0.335306	1.314482	-0.003450	0.043936	0.005675
1041	5.244922	0.005000	9.404331	-0.575331	-2.995509	-1.232591	-0.335197	1.314727	-0.003942	0.049369	0.010220
1042	5.249922	0.005000	9.441628	-0.540545	-2.973425	-1.232811	-0.335087	1.314972	0.006566	0.039086	0.011021
1043	5.254922	0.005000	9.378360	-0.592596	-2.960622	-1.233030	-0.334977	1.315217	0.001309	0.031205	0.017081
1044	5.259922	0.005000	9.476294	-0.589266	-2.943000	-1.233249	-0.334868	1.315462	-0.001802	0.040252	0.008381
1045	5.264922	0.005000	9.417600	-0.610570	-2.847250	-1.233469	-0.334758	1.315707	0.005109	0.035968	0.017269
1046	5.269922	0.005000	9.393502	-0.486022	-2.864520	-1.233688	-0.334648	1.315952	-0.002589	0.030704	0.019562
1047	5.274922	0.005000	9.456840	-0.562277	-2.864520	-1.233907	-0.334538	1.316197	0.007317	0.026045	0.019762
1048	5.279922	0.005000	9.389206	-0.616994	-2.943000	-1.234127	-0.334429	1.316442	-0.008370	0.030619	0.019034
1049	5.284922	0.005000	9.347678	-0.588600	-2.990798	-1.234319	-0.334364	1.316687	0.006850	0.031468	0.027175
1050	5.289922	0.005000	9.372208	-0.582448	-2.903760	-1.234209	-0.334802	1.316932	0.004538	0.032158	0.030107
1051	5.294922	0.005000	9.308200	-0.650440	-2.947160	-1.234100	-0.335241	1.317177	-0.001551	0.036064	0.023647
1052	5.299922	0.005000	9.415809	-0.590391	-2.901969	-1.233990	-0.335680	1.317422	0.002438	0.022886	0.026294
1053	5.304922	0.005000	9.339273	-0.706014	-2.903607	-1.233881	-0.336118	1.317666	0.002189	0.043656	0.033177
1054	5.309922	0.005000	9.415043	-0.630397	-2.830394	-1.233771	-0.336557	1.317911	0.009461	0.031278	0.028451
1055	5.314922	0.005000	9.417600	-0.593516	-2.786040	-1.233661	-0.336996	1.318156	0.011360	0.033588	0.024711
1056	5.319922	0.005000	9.352955	-0.627840	-2.786040	-1.233552	-0.337435	1.318401	0.012462	0.017246	0.029851
1057	5.324922	0.005000	9.496080	-0.510120	-2.806632	-1.233442	-0.337873	1.318646	0.011020	0.001077	0.032257
1058	5.329922	0.005000	9.461318	-0.627840	-2.809215	-1.233333	-0.338312	1.318891	0.001838	0.011028	0.031048
1059	5.334922	0.005000	9.480632	-0.667080	-2.825280	-1.233223	-0.338751	1.319136	0.014616	-0.003926	0.022550
1060	5.339922	0.005000	9.463911	-0.676094	-2.802125	-1.233113	-0.339189	1.319381	0.007328	-0.004271	0.020770
1061	5.344922	0.005000	9.535320	-0.669773	-2.765074	-1.233004	-0.339628	1.319625	0.011861	-0.007368	0.020192
1062	5.349922	0.005000	9.497718	-0.687519	-2.767239	-1.232894	-0.340067	1.319870	0.014669	-0.010326	0.018449
1063	5.354922	0.005000	9.585285	-0.728905	-2.825280	-1.232836	-0.340093	1.320173	0.013744	-0.012892	0.017716
1064	5.359922	0.005000	9.589007	-0.784800	-2.825280	-1.232836	-0.339654	1.320540	0.014335	-0.024292	0.022561
1065	5.364922	0.005000	9.484046	-0.757594	-2.828419	-1.232836	-0.339215	1.320908	-0.006340	-0.031839	0.017135
1066	5.369922	0.005000	9.535320	-0.667080	-2.825280	-1.232836	-0.338777	1.321275	-0.001425	-0.042065	0.014297
1067	5.374922	0.005000	9.590752	-0.627840	-2.817597	-1.232836	-0.338338	1.321642	-0.009643	-0.038867	0.014187
1068	5.379922	0.005000	9.569293	-0.643640	-2.796573	-1.232836	-0.337899	1.322010	0.002017	-0.038118	0.003482
1069	5.384922	0.005000	9.525472	-0.716168	-2.936435	-1.232836	-0.337460	1.322377	0.004413	-0.047719	0.012429
1070	5.389922	0.005000	9.380197	-0.784800	-2.784203	-1.232836	-0.337022	1.322744	0.005729	-0.036017	0.010494
1071	5.394922	0.005000	9.456840	-0.784800	-2.858590	-1.232836	-0.336583	1.323112	-0.002458	-0.051395	0.012078
1072	5.399922	0.005000	9.456840	-0.631269	-3.011192	-1.232836	-0.336144	1.323479	-0.001043	-0.053206	0.018510
1073	5.404922	0.005000	9.557021	-0.672926	-2.897914	-1.232836	-0.335706	1.323846	0.006046	-0.057265	0.012163
1074	5.409922	0.005000	9.481301	-0.596754	-2.872674	-1.232836	-0.335267	1.324214	-0.004596	-0.055790	0.013724
1075	5.414922	0.005000	9.408950	-0.588600	-2.855870	-1.232836	-0.334828	1.324581	0.002645	-0.046464	0.013241
1076	5.419922	0.005000	9.456840	-0.615229	-2.889741	-1.232836	-0.334390	1.324948	0.004581	-0.052051	0.016617
1077	5.424922	0.005000	9.456840	-0.627840	-2.849501	-1.232647	-0.334328	1.324263	0.002474	-0.039702	0.011717
1078	5.429922	0.005000	9.434830	-0.610610	-2.943000	-1.232428	-0.334328	1.323405	0.013392	-0.052621	0.015682
1079	5.434922	0.005000	9.319745	-0.588600	-2.923625	-1.232209	-0.334328	1.322548	0.010159	-0.058523	0.019859
1080	5.439922	0.005000	9.395814	-0.549360	-2.999694	-1.231989	-0.334328	1.321690	-0.010144	-0.042429	0.004671
1081	5.444922	0.005000	9.432924	-0.534036	-3.036804	-1.231770	-0.334328	1.320833	0.010784	-0.040223	0.021668
1082	5.449922	0.005000	9.443740	-0.483980	-3.112999	-1.231550	-0.334328	1.319975	0.018798	-0.039101	0.022670
1083	5.454922	0.005000	9.428287	-0.520807	-3.003613	-1.231331	-0.334328	1.319117	0.023021	-0.045531	0.022179
1084	5.459922	0.005000	9.408962	-0.588600	-2.973602	-1.231112	-0.334328	1.318260	0.020223	-0.037251	0.027115
1085	5.464922	0.005000	9.436608	-0.522792	-2.936664	-1.230892	-0.334328	1.317402	0.022478	-0.042456	0.013337
1086	5.469922	0.005000	9.395726	-0.510120	-2.899418	-1.230673	-0.334328	1.316545	0.023273	-0.054062	0.022424
