# FOX Logger (IMU file)
# (c) INRIA 2011-2014
# File created from file sensbiotk output
#
# File format:
# id	t	dt	ax	ay	az	mx	my	mz	gx	gy	gz
#
# Units:
#	Time: s
#	Acceleration: m.s^-2
#	Magneto: gauss
#	Gyrometer: rad/s
#
1	0.065155	0.065155	9.731520	-0.118643	-0.328230	-0.120896	-0.462687	-0.723333	0.032129	-0.003919	0.018940
2	0.070155	0.005000	9.731520	-0.039240	-0.212162	-0.120214	-0.462687	-0.723587	0.029300	0.006352	0.016582
3	0.075155	0.005000	9.692280	0.020626	-0.138346	-0.119532	-0.462687	-0.723841	0.043399	-0.001855	0.018637
4	0.080155	0.005000	9.713730	-0.078480	-0.292470	-0.118849	-0.462687	-0.724095	0.044386	0.011308	0.028270
5	0.085155	0.005000	9.677159	-0.087479	-0.205199	-0.118167	-0.462687	-0.724349	0.049328	-0.000928	0.022228
6	0.090155	0.005000	9.704836	-0.065924	-0.222884	-0.117485	-0.462687	-0.724603	0.049484	0.001935	0.036433
7	0.095155	0.005000	9.712097	-0.068768	-0.156960	-0.116803	-0.462687	-0.724857	0.053867	0.005347	0.038036
8	0.100155	0.005000	9.731520	-0.085348	-0.209936	-0.116121	-0.462687	-0.725111	0.047147	0.004561	0.038368
9	0.105155	0.005000	9.774833	-0.047385	-0.239513	-0.115439	-0.462687	-0.725365	0.047921	0.000327	0.042255
10	0.110155	0.005000	9.810000	-0.114422	-0.233791	-0.114756	-0.462687	-0.725619	0.055722	0.002962	0.038378
11	0.115155	0.005000	9.771955	-0.153375	-0.234245	-0.114074	-0.462687	-0.725872	0.051514	-0.004929	0.047387
12	0.120155	0.005000	9.774799	-0.165038	-0.165038	-0.113392	-0.462687	-0.726126	0.053325	-0.005112	0.037239
13	0.125155	0.005000	9.756994	-0.099129	-0.189317	-0.112710	-0.462687	-0.726380	0.053795	-0.010782	0.053343
14	0.130155	0.005000	9.780141	-0.106624	-0.166341	-0.112028	-0.462687	-0.726634	0.038471	0.006396	0.047492
15	0.135155	0.005000	9.755754	-0.078480	-0.117720	-0.111544	-0.461597	-0.727884	0.049328	-0.007850	0.036650
16	0.140155	0.005000	9.731520	-0.171921	-0.205518	-0.111089	-0.460346	-0.729281	0.044787	-0.000647	0.033755
17	0.145155	0.005000	9.710085	-0.196200	-0.253245	-0.110634	-0.459095	-0.730679	0.045971	-0.002770	0.035591
18	0.150155	0.005000	9.731520	-0.155352	-0.098904	-0.110179	-0.457843	-0.732076	0.047866	-0.002964	0.047297
19	0.155155	0.005000	9.708496	-0.156960	-0.235440	-0.109724	-0.456592	-0.733473	0.055646	-0.003837	0.046540
20	0.160155	0.005000	9.744892	-0.169455	-0.222068	-0.109269	-0.455341	-0.734870	0.049295	-0.000025	0.040110
21	0.165155	0.005000	9.781289	-0.206729	-0.185671	-0.108814	-0.454090	-0.736267	0.048534	-0.000789	0.034190
22	0.170155	0.005000	9.778898	-0.313920	-0.165098	-0.108359	-0.452839	-0.737664	0.050462	-0.001805	0.030912
23	0.175155	0.005000	9.804705	-0.387105	-0.196200	-0.107904	-0.451588	-0.739061	0.060235	-0.002598	0.028542
24	0.180155	0.005000	9.770760	-0.274680	-0.277131	-0.107449	-0.450337	-0.740458	0.052699	0.004482	0.014059
25	0.185155	0.005000	9.731913	-0.313527	-0.236227	-0.106994	-0.449086	-0.741855	0.047057	-0.005222	0.015681
26	0.190155	0.005000	9.731520	-0.202674	-0.310683	-0.106539	-0.447834	-0.743252	0.046979	0.009831	0.025795
27	0.195155	0.005000	9.665202	-0.301758	-0.353160	-0.106084	-0.446583	-0.744649	0.062579	0.008897	0.005572
28	0.200155	0.005000	9.832328	-0.291592	-0.313920	-0.105459	-0.446269	-0.745000	0.048964	0.010259	0.011203
29	0.205155	0.005000	9.754120	-0.207500	-0.341860	-0.104776	-0.446269	-0.745000	0.052170	0.010378	-0.001208
30	0.210155	0.005000	9.770760	-0.260536	-0.224488	-0.104093	-0.446269	-0.745000	0.044330	0.006224	-0.003948
31	0.215155	0.005000	9.770760	-0.252428	-0.206729	-0.103411	-0.446269	-0.745000	0.057869	0.012674	-0.009598
32	0.220155	0.005000	9.810484	-0.156960	-0.216062	-0.102728	-0.446269	-0.745000	0.059170	0.016683	-0.006246
33	0.225155	0.005000	9.770760	-0.156960	-0.201404	-0.102045	-0.446269	-0.745000	0.066364	0.017065	-0.003206
34	0.230155	0.005000	9.770760	-0.210374	-0.156960	-0.101362	-0.446269	-0.745000	0.056977	0.016493	-0.007941
35	0.235155	0.005000	9.731520	-0.140381	-0.168290	-0.100680	-0.446269	-0.745000	0.052274	0.013400	0.004118
36	0.240155	0.005000	9.692280	-0.196200	-0.204686	-0.099997	-0.446269	-0.745000	0.032343	0.018154	-0.018279
37	0.245155	0.005000	9.731520	-0.117720	-0.163071	-0.099314	-0.446269	-0.745000	0.039685	0.010312	-0.002982
38	0.250155	0.005000	9.659575	-0.120987	-0.094817	-0.098631	-0.446269	-0.745000	0.039529	0.020769	-0.019065
39	0.255155	0.005000	9.770760	-0.117720	-0.195353	-0.097949	-0.446269	-0.745000	0.030780	0.014724	-0.013877
40	0.260155	0.005000	9.807580	-0.191359	-0.154540	-0.097266	-0.446269	-0.745000	0.044687	0.025258	-0.002226
41	0.265155	0.005000	9.731520	-0.162224	-0.269416	-0.096727	-0.446269	-0.745241	0.057443	0.025196	-0.002013
42	0.270155	0.005000	9.692280	-0.156960	-0.282319	-0.096272	-0.446269	-0.745622	0.072684	0.024763	-0.003091
43	0.275155	0.005000	9.702763	-0.060206	-0.292954	-0.095817	-0.446269	-0.746003	0.076358	0.020337	-0.000583
44	0.280155	0.005000	9.665626	-0.104393	-0.313920	-0.095362	-0.446269	-0.746384	0.067296	0.022198	0.000368
45	0.285155	0.005000	9.770760	-0.094651	-0.228542	-0.094908	-0.446269	-0.746765	0.063017	0.022802	0.004275
46	0.290155	0.005000	9.789321	-0.196200	-0.214761	-0.094453	-0.446269	-0.747146	0.059885	0.025585	0.003396
47	0.295155	0.005000	9.713685	-0.085620	-0.156960	-0.093998	-0.446269	-0.747527	0.053658	0.021728	0.007034
48	0.300155	0.005000	9.795009	-0.117720	-0.220449	-0.093543	-0.446269	-0.747908	0.067837	0.027029	-0.010875
49	0.305155	0.005000	9.758144	-0.183584	-0.248056	-0.093088	-0.446269	-0.748289	0.071781	0.007362	0.011290
50	0.310155	0.005000	9.721748	-0.205972	-0.156960	-0.092633	-0.446269	-0.748670	0.074309	0.022240	-0.001557
51	0.315155	0.005000	9.763832	-0.300063	-0.110792	-0.092178	-0.446269	-0.749051	0.063619	0.013621	-0.001241
52	0.320155	0.005000	9.735652	-0.270548	-0.196200	-0.091723	-0.446269	-0.749432	0.067068	0.021032	0.007526
53	0.325155	0.005000	9.729826	-0.232052	-0.153572	-0.091268	-0.446269	-0.749813	0.056658	0.019902	-0.001921
54	0.330155	0.005000	9.768461	-0.195050	-0.116570	-0.091509	-0.446153	-0.750065	0.045126	0.014272	-0.001787
55	0.335155	0.005000	9.770760	-0.196200	-0.200194	-0.092418	-0.445926	-0.750192	0.058464	0.014334	0.001495
56	0.340155	0.005000	9.842402	-0.235440	-0.189362	-0.093328	-0.445698	-0.750319	0.052624	0.015921	-0.002692
57	0.345155	0.005000	9.829363	-0.196200	-0.117720	-0.094237	-0.445471	-0.750446	0.050222	0.022151	-0.006060
58	0.350155	0.005000	9.758704	-0.223384	-0.226454	-0.095146	-0.445244	-0.750573	0.061504	0.016863	-0.019769
59	0.355155	0.005000	9.716620	-0.196200	-0.196200	-0.096056	-0.445016	-0.750700	0.048125	0.008639	-0.003402
60	0.360155	0.005000	9.710024	-0.174704	-0.217696	-0.096965	-0.444789	-0.750827	0.042640	0.016962	-0.012045
61	0.365155	0.005000	9.770760	-0.136372	-0.237376	-0.097875	-0.444562	-0.750954	0.042612	0.012060	-0.002212
62	0.370155	0.005000	9.786753	-0.133713	-0.251433	-0.098784	-0.444334	-0.751081	0.034422	0.022027	-0.014840
63	0.375155	0.005000	9.810000	-0.078480	-0.196200	-0.099694	-0.444107	-0.751207	0.044005	0.009390	-0.005192
64	0.380155	0.005000	9.749612	-0.010574	-0.193144	-0.100603	-0.443879	-0.751334	0.042712	0.010136	-0.014136
65	0.385155	0.005000	9.786220	-0.046970	-0.054700	-0.101513	-0.443652	-0.751461	0.047955	0.014624	-0.011670
66	0.390155	0.005000	9.810000	-0.152015	-0.152015	-0.102422	-0.443425	-0.751588	0.058776	0.008843	-0.006720
67	0.395155	0.005000	9.849240	-0.080991	-0.201222	-0.102855	-0.443284	-0.751619	0.054600	0.012195	-0.010142
68	0.400155	0.005000	9.849240	-0.156627	-0.196866	-0.102514	-0.443284	-0.751492	0.060372	0.008056	-0.007608
69	0.405155	0.005000	9.770760	-0.235440	-0.159701	-0.102172	-0.443284	-0.751365	0.060468	0.015505	-0.003689
70	0.410155	0.005000	9.770760	-0.123272	-0.185097	-0.101831	-0.443284	-0.751237	0.050935	0.016498	-0.009225
71	0.415155	0.005000	9.669831	-0.134511	-0.117720	-0.101490	-0.443284	-0.751110	0.063388	0.012395	0.004893
72	0.420155	0.005000	9.731520	-0.128960	-0.168200	-0.101149	-0.443284	-0.750983	0.048850	0.015327	-0.009320
73	0.425155	0.005000	9.717731	-0.170749	-0.064691	-0.100807	-0.443284	-0.750856	0.047363	0.002051	0.001694
74	0.430155	0.005000	9.737813	-0.124013	-0.124013	-0.100466	-0.443284	-0.750729	0.023997	0.005498	-0.007591
75	0.435155	0.005000	9.692280	-0.137643	-0.235440	-0.100125	-0.443284	-0.750602	0.031021	0.001424	0.007294
76	0.440155	0.005000	9.613800	-0.087819	-0.218155	-0.099784	-0.443284	-0.750475	0.039659	0.008341	0.008153
77	0.445155	0.005000	9.721687	-0.147127	-0.201071	-0.099442	-0.443284	-0.750348	0.047278	0.003132	0.005945
78	0.450155	0.005000	9.849240	-0.184340	-0.239101	-0.099101	-0.443284	-0.750221	0.053760	0.003847	0.003181
79	0.455155	0.005000	9.800984	-0.235440	-0.196200	-0.098760	-0.443284	-0.750094	0.053828	0.010179	0.004321
80	0.460155	0.005000	9.737692	-0.138444	-0.111548	-0.098448	-0.443313	-0.750033	0.047220	0.003558	0.006094
81	0.465155	0.005000	9.774127	-0.117720	-0.124454	-0.098221	-0.443427	-0.750160	0.045477	0.002716	0.005754
82	0.470155	0.005000	9.729644	-0.081294	-0.116782	-0.097993	-0.443541	-0.750287	0.039312	0.007761	0.000414
83	0.475155	0.005000	9.727708	-0.196200	-0.115814	-0.097766	-0.443654	-0.750414	0.040707	0.002582	0.016991
84	0.480155	0.005000	9.731520	-0.156960	-0.156960	-0.097538	-0.443768	-0.750541	0.034861	0.004273	0.010692
85	0.485155	0.005000	9.699874	-0.164554	-0.282274	-0.097311	-0.443882	-0.750668	0.046351	0.005040	0.012653
86	0.490155	0.005000	9.673916	-0.175324	-0.303482	-0.097083	-0.443996	-0.750795	0.025322	0.002061	0.006263
87	0.495155	0.005000	9.718552	-0.209505	-0.222135	-0.096856	-0.444109	-0.750922	0.038410	0.002083	0.010498
88	0.500155	0.005000	9.810000	-0.188273	-0.204127	-0.096628	-0.444223	-0.751049	0.038278	0.003371	0.011086
89	0.505155	0.005000	9.752259	-0.138459	-0.235440	-0.096401	-0.444337	-0.751176	0.041598	0.011511	0.003848
90	0.510155	0.005000	9.813449	-0.174855	-0.192751	-0.096173	-0.444450	-0.751303	0.039084	0.005955	0.005961
91	0.515155	0.005000	9.849240	-0.181148	-0.328972	-0.095946	-0.444564	-0.751430	0.027920	0.005834	0.010510
92	0.520155	0.005000	9.770760	-0.129928	-0.235440	-0.095719	-0.444678	-0.751557	0.039760	0.005282	0.012577
93	0.525155	0.005000	9.800527	-0.108247	-0.255733	-0.095537	-0.444761	-0.751650	0.048532	0.009316	0.010063
94	0.530155	0.005000	9.731520	-0.117720	-0.131667	-0.095651	-0.444647	-0.751523	0.034923	0.005621	0.013305
95	0.535155	0.005000	9.770760	-0.117720	-0.200330	-0.095765	-0.444533	-0.751396	0.033815	0.002591	0.024455
96	0.540155	0.005000	9.772046	-0.156960	-0.232868	-0.095879	-0.444419	-0.751269	0.039380	0.010058	0.018000
97	0.545155	0.005000	9.734636	-0.156960	-0.194642	-0.095993	-0.444306	-0.751142	0.045409	0.002075	0.016928
98	0.550155	0.005000	9.621666	-0.266814	-0.200133	-0.096106	-0.444192	-0.751015	0.049209	0.000139	0.014683
99	0.555155	0.005000	9.750429	-0.131274	-0.156960	-0.096220	-0.444078	-0.750888	0.046447	0.004302	0.025522
100	0.560155	0.005000	9.672282	-0.216198	-0.225819	-0.096334	-0.443965	-0.750760	0.041826	0.002391	0.027727
101	0.565155	0.005000	9.628110	-0.235440	-0.274680	-0.096448	-0.443851	-0.750633	0.035916	0.004454	0.018863
102	0.570155	0.005000	9.668349	-0.220131	-0.196200	-0.096561	-0.443737	-0.750506	0.044573	-0.004526	0.018883
103	0.575155	0.005000	9.635356	-0.131531	-0.178516	-0.096675	-0.443624	-0.750379	0.037042	0.012974	0.017342
104	0.580155	0.005000	9.731520	-0.177488	-0.177488	-0.096789	-0.443510	-0.750252	0.048736	0.005853	0.027217
105	0.585155	0.005000	9.668908	-0.164463	-0.196200	-0.096903	-0.443396	-0.750125	0.039160	0.011826	0.025392
106	0.590155	0.005000	9.757735	-0.170151	-0.248465	-0.097015	-0.443281	-0.750002	0.044214	0.003435	0.027945
107	0.595155	0.005000	9.682099	-0.156960	-0.264499	-0.097015	-0.443054	-0.750129	0.049191	0.008409	0.033540
108	0.600155	0.005000	9.731520	-0.211781	-0.345369	-0.097015	-0.442826	-0.750256	0.045383	0.002934	0.019823
109	0.605155	0.005000	9.702173	-0.201147	-0.308973	-0.097015	-0.442599	-0.750383	0.048374	0.003435	0.020808
110	0.610155	0.005000	9.772863	-0.196200	-0.274680	-0.097015	-0.442371	-0.750510	0.037486	0.016771	0.016835
111	0.615155	0.005000	9.810000	-0.157701	-0.197682	-0.097015	-0.442144	-0.750637	0.045845	0.011484	0.011882
112	0.620155	0.005000	9.738690	-0.160545	-0.167715	-0.097015	-0.441917	-0.750764	0.051163	0.010449	0.026215
113	0.625155	0.005000	9.777189	-0.156960	-0.274680	-0.097015	-0.441689	-0.750891	0.051007	0.007330	0.017614
114	0.630155	0.005000	9.770760	-0.169468	-0.244351	-0.097015	-0.441462	-0.751017	0.044694	0.009097	0.013269
115	0.635155	0.005000	9.754816	-0.212144	-0.223792	-0.097015	-0.441235	-0.751144	0.051833	0.014550	0.005851
116	0.640155	0.005000	9.706772	-0.249932	-0.167216	-0.097015	-0.441007	-0.751271	0.059140	0.007906	0.011146
117	0.645155	0.005000	9.670376	-0.130487	-0.135056	-0.097015	-0.440780	-0.751398	0.050734	0.011456	0.010189
118	0.650155	0.005000	9.691161	-0.076241	-0.156960	-0.097015	-0.440553	-0.751525	0.043616	0.014506	0.016807
119	0.655155	0.005000	9.754544	-0.078480	-0.235440	-0.097015	-0.440325	-0.751652	0.043118	0.011551	0.017791
120	0.660155	0.005000	9.759173	-0.170786	-0.182374	-0.096914	-0.440500	-0.751667	0.040826	0.016508	0.012090
121	0.665155	0.005000	9.720538	-0.207182	-0.224458	-0.096801	-0.440728	-0.751667	0.052775	0.007281	0.025408
122	0.670155	0.005000	9.746345	-0.179923	-0.181375	-0.096687	-0.440955	-0.751667	0.049188	0.014482	0.010114
123	0.675155	0.005000	9.624389	-0.162255	-0.235440	-0.096573	-0.441183	-0.751667	0.041351	0.010346	0.009785
124	0.680155	0.005000	9.733971	-0.188848	-0.235440	-0.096459	-0.441410	-0.751667	0.048771	0.014329	0.010553
125	0.685155	0.005000	9.770760	-0.039316	-0.156960	-0.096345	-0.441638	-0.751667	0.049648	0.006401	0.011583
126	0.690155	0.005000	9.770760	-0.187895	-0.084017	-0.096232	-0.441865	-0.751667	0.050544	0.006615	0.013238
127	0.695155	0.005000	9.776372	-0.162572	-0.151348	-0.096118	-0.442093	-0.751667	0.046124	0.009472	0.010992
128	0.700155	0.005000	9.739976	-0.165416	-0.173872	-0.096004	-0.442320	-0.751667	0.042301	0.007098	0.012682
129	0.705155	0.005000	9.692280	-0.117720	-0.235440	-0.095890	-0.442547	-0.751667	0.047953	0.007636	0.017104
130	0.710155	0.005000	9.653040	-0.182510	-0.170650	-0.095777	-0.442775	-0.751667	0.050702	0.006959	0.012416
131	0.715155	0.005000	9.636506	-0.156960	-0.196200	-0.095663	-0.443002	-0.751667	0.051279	0.010384	0.016488
132	0.720155	0.005000	9.672418	-0.136614	-0.196200	-0.095549	-0.443230	-0.751667	0.040784	0.015747	0.019246
133	0.725155	0.005000	9.635553	-0.152694	-0.135207	-0.095522	-0.443371	-0.751667	0.050840	0.005816	0.022673
134	0.730155	0.005000	9.702234	-0.289323	-0.250083	-0.095522	-0.443484	-0.751667	0.050233	0.011817	0.008378
135	0.735155	0.005000	9.704079	-0.239282	-0.184401	-0.095522	-0.443598	-0.751667	0.060788	0.006677	0.012942
136	0.740155	0.005000	9.722565	-0.174871	-0.156960	-0.095522	-0.443712	-0.751667	0.054377	0.013069	0.018006
137	0.745155	0.005000	9.724940	-0.222279	-0.209361	-0.095522	-0.443825	-0.751667	0.044152	0.010945	0.005270
138	0.750155	0.005000	9.735256	-0.149487	-0.388664	-0.095522	-0.443939	-0.751667	0.049233	0.009854	0.004276
139	0.755155	0.005000	9.808215	-0.079373	-0.314813	-0.095522	-0.444053	-0.751667	0.047823	0.020154	0.001698
140	0.760155	0.005000	9.731520	-0.080431	-0.353160	-0.095522	-0.444167	-0.751667	0.039931	0.017200	0.016514
141	0.765155	0.005000	9.727178	0.000000	-0.353160	-0.095522	-0.444280	-0.751667	0.034923	0.009604	0.009878
142	0.770155	0.005000	9.692280	-0.064109	-0.306735	-0.095522	-0.444394	-0.751667	0.047242	0.014790	0.008541
143	0.775155	0.005000	9.682251	0.019181	-0.313920	-0.095522	-0.444508	-0.751667	0.041772	0.011391	0.022252
144	0.780155	0.005000	9.797596	0.000000	-0.208604	-0.095522	-0.444621	-0.751667	0.056104	0.014971	0.026628
145	0.785155	0.005000	9.770760	-0.039240	-0.250688	-0.095522	-0.444735	-0.751667	0.064749	0.011316	0.027431
146	0.790155	0.005000	9.755724	-0.096572	-0.093516	-0.095740	-0.444631	-0.751423	0.081998	0.025209	0.028733
147	0.795155	0.005000	9.734152	-0.151696	-0.115088	-0.096082	-0.444403	-0.751042	0.066579	0.014277	0.024780
148	0.800155	0.005000	9.731520	-0.298006	-0.039240	-0.096423	-0.444176	-0.750661	0.056810	0.008435	0.019453
149	0.805155	0.005000	9.731520	-0.261610	-0.026170	-0.096764	-0.443948	-0.750280	0.060829	0.011606	0.016876
150	0.810155	0.005000	9.780986	-0.196200	-0.068254	-0.097105	-0.443721	-0.749899	0.059500	0.014196	0.023937
151	0.815155	0.005000	9.731520	-0.218346	-0.132484	-0.097446	-0.443493	-0.749518	0.045822	0.013126	0.017135
152	0.820155	0.005000	9.696873	-0.230847	-0.217068	-0.097788	-0.443266	-0.749137	0.043566	0.003903	0.016790
153	0.825155	0.005000	9.690117	-0.233277	-0.152634	-0.098129	-0.443038	-0.748756	0.037876	0.004994	0.013388
154	0.830155	0.005000	9.691599	-0.119081	-0.155599	-0.098470	-0.442811	-0.748375	0.036354	0.012600	0.021159
155	0.835155	0.005000	9.688755	-0.231915	-0.199725	-0.098811	-0.442583	-0.747994	0.047715	0.007791	0.033647
156	0.840155	0.005000	9.804016	-0.274680	-0.262712	-0.099153	-0.442356	-0.747613	0.047158	0.008474	0.028711
157	0.845155	0.005000	9.701039	-0.148201	-0.174477	-0.099494	-0.442128	-0.747232	0.062326	0.002958	0.036504
158	0.850155	0.005000	9.719917	-0.184597	-0.133755	-0.099835	-0.441901	-0.746851	0.053089	0.011754	0.032676
159	0.855155	0.005000	9.702627	-0.206547	-0.280928	-0.099647	-0.441732	-0.746798	0.037639	0.013568	0.017720
160	0.860155	0.005000	9.687621	-0.174250	-0.257390	-0.098965	-0.441619	-0.747052	0.038983	0.018054	0.025973
161	0.865155	0.005000	9.672615	-0.176625	-0.255105	-0.098282	-0.441505	-0.747306	0.036920	0.011823	0.030657
162	0.870155	0.005000	9.731520	-0.100989	-0.280459	-0.097600	-0.441391	-0.747560	0.041288	0.011119	0.038745
163	0.875155	0.005000	9.666927	-0.196200	-0.260793	-0.096918	-0.441277	-0.747814	0.033473	0.020417	0.028823
164	0.880155	0.005000	9.759588	-0.224268	-0.364332	-0.096235	-0.441164	-0.748068	0.061613	0.017005	0.032245
165	0.885155	0.005000	9.722867	-0.174266	-0.266027	-0.095553	-0.441050	-0.748322	0.062891	0.020683	0.031152
166	0.890155	0.005000	9.714093	-0.202009	-0.241249	-0.094870	-0.440936	-0.748576	0.070509	0.021090	0.025068
167	0.895155	0.005000	9.734500	-0.238420	-0.353160	-0.094188	-0.440823	-0.748830	0.064440	0.020284	0.026715
168	0.900155	0.005000	9.769580	-0.274680	-0.274090	-0.093505	-0.440709	-0.749084	0.053248	0.021470	0.014411
169	0.905155	0.005000	9.729266	-0.311666	-0.235440	-0.092823	-0.440595	-0.749338	0.051218	0.014150	0.027889
170	0.910155	0.005000	9.731520	-0.313920	-0.206396	-0.092141	-0.440482	-0.749592	0.041477	0.018430	0.025031
171	0.915155	0.005000	9.653040	-0.282622	-0.063065	-0.091458	-0.440368	-0.749846	0.061738	0.009292	0.024041
172	0.920155	0.005000	9.642723	-0.274680	-0.049557	-0.091269	-0.440299	-0.750000	0.054402	0.016103	0.010615
173	0.925155	0.005000	9.639879	-0.274680	-0.156718	-0.091838	-0.440299	-0.750000	0.056187	0.017058	0.007194
174	0.930155	0.005000	9.770760	-0.353160	-0.132182	-0.092406	-0.440299	-0.750000	0.055464	0.017363	0.008085
175	0.935155	0.005000	9.789609	-0.332769	-0.174266	-0.092974	-0.440299	-0.750000	0.049144	0.016420	0.002418
176	0.940155	0.005000	9.709828	-0.318065	-0.117720	-0.093543	-0.440299	-0.750000	0.037487	0.005084	0.014336
177	0.945155	0.005000	9.716816	-0.210904	-0.186367	-0.094111	-0.440299	-0.750000	0.022183	0.016115	0.001121
178	0.950155	0.005000	9.743519	-0.274680	-0.247439	-0.094679	-0.440299	-0.750000	0.027981	0.016721	-0.004771
179	0.955155	0.005000	9.722050	-0.235440	-0.244910	-0.095248	-0.440299	-0.750000	0.044027	0.014619	-0.005404
180	0.960155	0.005000	9.698906	-0.182949	-0.222189	-0.095816	-0.440299	-0.750000	0.037383	0.021456	-0.006888
181	0.965155	0.005000	9.723956	-0.074698	-0.160742	-0.096385	-0.440299	-0.750000	0.053794	0.007530	0.001479
182	0.970155	0.005000	9.613800	0.034551	-0.195262	-0.096953	-0.440299	-0.750000	0.047935	0.016556	-0.002600
183	0.975155	0.005000	9.725802	-0.156960	-0.119626	-0.097521	-0.440299	-0.750000	0.049049	0.018559	-0.000370
184	0.980155	0.005000	9.618081	-0.156960	-0.340317	-0.098090	-0.440299	-0.750000	0.039372	0.023682	0.005149
185	0.985155	0.005000	9.653040	-0.267555	-0.299670	-0.098507	-0.440390	-0.749933	0.049140	0.026849	0.000426
186	0.990155	0.005000	9.750822	-0.166929	-0.216138	-0.098507	-0.440731	-0.749679	0.049618	0.016985	0.004490
187	0.995155	0.005000	9.770760	-0.194471	-0.156960	-0.098507	-0.441072	-0.749425	0.031173	0.013855	-0.000222
188	1.000155	0.005000	9.716317	-0.165794	-0.117720	-0.098507	-0.441413	-0.749171	0.047983	0.019895	0.000035
189	1.005155	0.005000	9.791953	-0.214247	-0.160106	-0.098507	-0.441754	-0.748917	0.038536	0.018571	0.007565
190	1.010155	0.005000	9.789109	-0.253789	-0.214549	-0.098507	-0.442095	-0.748663	0.045437	0.021147	-0.000363
191	1.015155	0.005000	9.699571	-0.251414	-0.164251	-0.098507	-0.442436	-0.748409	0.046734	0.020974	0.007630
192	1.020155	0.005000	9.692280	-0.169939	-0.183221	-0.098507	-0.442777	-0.748155	0.047885	0.018905	-0.006634
193	1.025155	0.005000	9.741807	-0.088767	-0.175627	-0.098507	-0.443118	-0.747902	0.053729	0.006323	-0.002232
194	1.030155	0.005000	9.731520	-0.132605	-0.117720	-0.098507	-0.443459	-0.747648	0.047777	0.016463	-0.002782
195	1.035155	0.005000	9.731520	-0.156960	-0.083079	-0.098507	-0.443800	-0.747394	0.056618	0.014433	-0.001766
196	1.040155	0.005000	9.801166	-0.156960	-0.156960	-0.098507	-0.444141	-0.747140	0.054297	0.013552	-0.000820
197	1.045155	0.005000	9.730249	-0.195565	-0.272774	-0.098507	-0.444482	-0.746886	0.049824	0.007262	0.009703
198	1.050155	0.005000	9.731520	-0.196200	-0.203159	-0.098460	-0.444776	-0.746667	0.033206	0.006971	0.001803
199	1.055155	0.005000	9.797354	-0.084803	-0.202523	-0.098119	-0.444776	-0.746667	0.038628	0.019251	-0.007709
200	1.060155	0.005000	9.779563	-0.056847	-0.274680	-0.097778	-0.444776	-0.746667	0.057704	0.023395	0.005388
201	1.065155	0.005000	9.759218	-0.106178	-0.062324	-0.097437	-0.444776	-0.746667	0.046815	0.015878	0.009552
202	1.070155	0.005000	9.731520	-0.092866	-0.156960	-0.097096	-0.444776	-0.746667	0.048418	0.008847	0.009546
203	1.075155	0.005000	9.753530	-0.095710	-0.117720	-0.096754	-0.444776	-0.746667	0.051404	0.011158	0.021550
204	1.080155	0.005000	9.750686	-0.058406	-0.098554	-0.096413	-0.444776	-0.746667	0.050777	0.016819	0.010841
205	1.085155	0.005000	9.787551	-0.134511	-0.011134	-0.096072	-0.444776	-0.746667	0.039249	0.005453	0.015821
206	1.090155	0.005000	9.784707	-0.198802	-0.092427	-0.095731	-0.444776	-0.746667	0.038868	0.011447	0.008998
207	1.095155	0.005000	9.776690	-0.196200	-0.185097	-0.095390	-0.444776	-0.746667	0.048714	0.005498	0.014664
208	1.100155	0.005000	9.708799	-0.243699	-0.134239	-0.095049	-0.444776	-0.746667	0.044761	0.008217	0.012749
209	1.105155	0.005000	9.776629	-0.223701	-0.156960	-0.094707	-0.444776	-0.746667	0.060681	0.003864	0.006008
210	1.110155	0.005000	9.810000	-0.238465	-0.153935	-0.094366	-0.444776	-0.746667	0.058683	0.010264	0.005699
211	1.115155	0.005000	9.848877	-0.235622	-0.156778	-0.094037	-0.444779	-0.746673	0.056431	0.012790	0.004107
212	1.120155	0.005000	9.734182	-0.164947	-0.190875	-0.094491	-0.445007	-0.747053	0.031764	0.019198	0.007817
213	1.125155	0.005000	9.731520	-0.263667	-0.156960	-0.094946	-0.445234	-0.747434	0.036033	0.015510	0.000594
214	1.130155	0.005000	9.692280	-0.212900	-0.126070	-0.095401	-0.445461	-0.747815	0.035491	0.008887	0.004034
215	1.135155	0.005000	9.760035	-0.128445	-0.078480	-0.095856	-0.445689	-0.748196	0.040179	-0.000285	0.013023
216	1.140155	0.005000	9.717951	-0.182631	-0.209769	-0.096310	-0.445916	-0.748577	0.045291	0.007895	0.002230
217	1.145155	0.005000	9.793587	-0.084894	-0.196200	-0.096765	-0.446144	-0.748958	0.053569	0.006424	0.011385
218	1.150155	0.005000	9.770760	-0.137703	-0.097737	-0.097220	-0.446371	-0.749338	0.051062	0.011042	0.010704
219	1.155155	0.005000	9.748659	-0.161922	-0.117720	-0.097674	-0.446598	-0.749719	0.052844	0.015138	0.016322
220	1.160155	0.005000	9.745982	-0.171422	-0.231293	-0.098129	-0.446826	-0.750100	0.050047	0.011934	0.015206
221	1.165155	0.005000	9.786190	-0.235440	-0.168865	-0.098584	-0.447053	-0.750481	0.047396	0.011558	0.007798
222	1.170155	0.005000	9.731520	-0.274680	-0.247496	-0.099039	-0.447280	-0.750862	0.033430	0.014747	0.010196
223	1.175155	0.005000	9.653040	-0.183765	-0.202417	-0.099493	-0.447508	-0.751243	0.030543	0.011061	0.008288
224	1.180155	0.005000	9.621485	-0.043082	-0.220071	-0.099948	-0.447735	-0.751624	0.048840	0.008847	0.011053
225	1.185155	0.005000	9.730522	-0.117720	-0.197198	-0.099295	-0.448366	-0.751329	0.037494	0.009579	0.016213
226	1.190155	0.005000	9.729674	-0.155114	-0.198046	-0.098498	-0.449048	-0.750948	0.049670	0.007145	0.005351
227	1.195155	0.005000	9.736209	-0.156960	-0.131788	-0.097702	-0.449730	-0.750567	0.048245	0.014213	0.006414
228	1.200155	0.005000	9.667365	-0.171285	-0.124882	-0.096906	-0.450413	-0.750186	0.048330	0.003293	0.008414
229	1.205155	0.005000	9.692280	-0.225517	-0.088403	-0.096110	-0.451095	-0.749805	0.052534	0.009600	0.012704
230	1.210155	0.005000	9.744287	-0.221735	-0.104953	-0.095314	-0.451778	-0.749424	0.045378	0.007961	0.003830
231	1.215155	0.005000	9.684263	-0.227423	-0.204217	-0.094517	-0.452460	-0.749043	0.043962	0.009570	0.012698
232	1.220155	0.005000	9.674294	-0.171679	-0.295934	-0.093721	-0.453142	-0.748662	0.038515	0.010843	0.015434
233	1.225155	0.005000	9.713110	-0.156960	-0.316340	-0.092925	-0.453825	-0.748281	0.034356	0.001356	0.014233
234	1.230155	0.005000	9.715954	-0.290246	-0.329486	-0.092129	-0.454507	-0.747900	0.035975	0.004097	0.008924
235	1.235155	0.005000	9.783482	-0.248162	-0.156960	-0.091333	-0.455190	-0.747519	0.038797	0.005796	0.005910
236	1.240155	0.005000	9.780366	-0.245318	-0.166838	-0.090537	-0.455872	-0.747138	0.054178	0.005492	0.011874
237	1.245155	0.005000	9.699783	-0.196200	-0.212931	-0.089740	-0.456555	-0.746757	0.059199	0.012668	0.011463
238	1.250155	0.005000	9.696939	-0.200859	-0.083139	-0.089639	-0.456021	-0.746958	0.034628	0.006460	0.007943
239	1.255155	0.005000	9.770760	-0.235440	-0.156960	-0.089753	-0.455112	-0.747339	0.048874	0.000066	0.008482
240	1.260155	0.005000	9.770760	-0.159017	-0.195171	-0.089866	-0.454202	-0.747720	0.044022	0.004484	0.012677
241	1.265155	0.005000	9.770760	-0.196200	-0.192327	-0.089980	-0.453292	-0.748101	0.043250	0.008796	0.003238
242	1.270155	0.005000	9.731520	-0.156960	-0.268417	-0.090094	-0.452382	-0.748482	0.039789	0.012630	0.005275
243	1.275155	0.005000	9.683173	-0.235440	-0.135933	-0.090208	-0.451472	-0.748863	0.052058	0.007836	0.012132
244	1.280155	0.005000	9.770760	-0.180861	-0.180861	-0.090321	-0.450562	-0.749244	0.051113	0.005303	0.016817
245	1.285155	0.005000	9.731520	-0.117720	-0.171459	-0.090435	-0.449652	-0.749625	0.042601	0.009386	0.013143
246	1.290155	0.005000	9.714351	-0.100551	-0.218271	-0.090549	-0.448742	-0.750006	0.043978	0.003731	0.014318
247	1.295155	0.005000	9.672267	-0.097707	-0.138520	-0.090663	-0.447832	-0.750387	0.042587	0.001364	0.014842
248	1.300155	0.005000	9.787143	-0.111246	-0.140577	-0.090777	-0.446923	-0.750768	0.052532	0.000664	0.023493
249	1.305155	0.005000	9.666737	-0.208045	-0.237292	-0.090890	-0.446013	-0.751149	0.043000	0.012812	0.014520
250	1.310155	0.005000	9.793058	-0.196200	-0.241234	-0.091004	-0.445103	-0.751530	0.051503	0.010368	0.018778
251	1.315155	0.005000	9.745845	-0.126025	-0.258070	-0.091409	-0.444703	-0.751260	0.073673	0.004370	0.012570
252	1.320155	0.005000	9.726059	-0.156960	-0.229979	-0.091978	-0.444589	-0.750625	0.056805	0.005988	0.013895
253	1.325155	0.005000	9.694897	-0.193583	-0.081097	-0.092547	-0.444476	-0.749990	0.044702	0.010560	0.020024
254	1.330155	0.005000	9.692507	-0.234986	-0.156733	-0.093115	-0.444362	-0.749355	0.037310	0.006029	0.030222
255	1.335155	0.005000	9.655642	-0.120322	-0.230236	-0.093684	-0.444248	-0.748720	0.039156	0.006717	0.018875
256	1.340155	0.005000	9.726074	-0.179863	-0.280126	-0.094253	-0.444135	-0.748085	0.047569	0.003552	0.018397
257	1.345155	0.005000	9.700570	-0.266390	-0.212779	-0.094821	-0.444021	-0.747449	0.049530	0.001336	0.012009
258	1.350155	0.005000	9.703414	-0.246574	-0.246574	-0.095390	-0.443907	-0.746814	0.061259	0.010301	0.022034
259	1.355155	0.005000	9.731520	-0.313920	-0.170642	-0.095959	-0.443794	-0.746179	0.049682	0.009992	0.004968
260	1.360155	0.005000	9.770760	-0.268175	-0.219072	-0.096527	-0.443680	-0.745544	0.043760	0.007136	0.019742
261	1.365155	0.005000	9.712308	-0.215412	-0.216228	-0.097096	-0.443566	-0.744909	0.031167	0.014858	0.012707
262	1.370155	0.005000	9.753575	-0.274680	-0.223126	-0.097664	-0.443452	-0.744274	0.041451	0.010690	0.017104
263	1.375155	0.005000	9.692280	-0.171770	-0.166581	-0.098233	-0.443339	-0.743639	0.034487	0.014306	0.015167
264	1.380155	0.005000	9.692280	-0.156960	-0.102411	-0.099333	-0.443874	-0.742740	0.038781	0.011357	0.012269
265	1.385155	0.005000	9.692280	-0.187078	-0.117720	-0.100926	-0.445012	-0.741597	0.055015	0.003760	0.024086
266	1.390155	0.005000	9.686002	-0.196200	-0.097313	-0.102519	-0.446150	-0.740453	0.047148	0.006483	0.016110
267	1.395155	0.005000	9.581511	-0.192725	-0.160435	-0.104112	-0.447287	-0.739309	0.044248	0.009543	0.010728
268	1.400155	0.005000	9.616977	-0.079539	-0.154842	-0.105705	-0.448425	-0.738166	0.045610	0.009619	0.017096
269	1.405155	0.005000	9.694065	-0.042810	-0.115935	-0.107298	-0.449563	-0.737022	0.037699	0.004609	0.013083
270	1.410155	0.005000	9.731520	-0.122349	-0.196200	-0.108891	-0.450701	-0.735879	0.039423	0.000868	0.024435
271	1.415155	0.005000	9.692280	-0.164433	-0.171906	-0.110485	-0.451839	-0.734735	0.033779	0.016369	0.013258
272	1.420155	0.005000	9.770760	-0.176243	-0.166938	-0.112078	-0.452977	-0.733591	0.043131	0.010533	0.024789
273	1.425155	0.005000	9.770760	-0.210026	-0.261973	-0.113671	-0.454115	-0.732448	0.045058	0.010867	0.018344
274	1.430155	0.005000	9.801862	-0.141409	-0.259129	-0.115264	-0.455253	-0.731304	0.045435	0.006495	0.013461
275	1.435155	0.005000	9.789155	-0.115269	-0.212144	-0.116857	-0.456390	-0.730161	0.044297	0.010834	0.018700
276	1.440155	0.005000	9.791530	-0.138490	-0.138490	-0.118450	-0.457528	-0.729017	0.043809	0.004624	0.017619
277	1.445155	0.005000	9.692280	-0.188213	-0.133346	-0.118992	-0.458072	-0.728741	0.033846	0.003016	0.025998
278	1.450155	0.005000	9.730627	-0.170635	-0.104938	-0.117968	-0.457731	-0.729757	0.047170	0.004541	0.026145
279	1.455155	0.005000	9.810000	-0.127659	-0.117206	-0.116944	-0.457389	-0.730773	0.039741	-0.001024	0.020141
280	1.460155	0.005000	9.763582	-0.124898	-0.142605	-0.115921	-0.457048	-0.731790	0.054187	0.006333	0.025522
281	1.465155	0.005000	9.736225	-0.117720	-0.087889	-0.114897	-0.456707	-0.732806	0.046068	0.003022	0.029787
282	1.470155	0.005000	9.731520	-0.156960	-0.235440	-0.113873	-0.456366	-0.733822	0.046459	-0.004212	0.041290
283	1.475155	0.005000	9.693263	-0.156960	-0.311953	-0.112850	-0.456024	-0.734838	0.039427	0.008841	0.034204
284	1.480155	0.005000	9.656867	-0.192373	-0.235440	-0.111826	-0.455683	-0.735854	0.041804	-0.003248	0.043393
285	1.485155	0.005000	9.718966	-0.202477	-0.156960	-0.110802	-0.455342	-0.736870	0.024440	0.002575	0.043225
286	1.490155	0.005000	9.701326	-0.108674	-0.178108	-0.109779	-0.455001	-0.737886	0.027767	-0.009447	0.051194
287	1.495155	0.005000	9.704170	-0.078480	-0.129610	-0.108755	-0.454659	-0.738902	0.028624	-0.004995	0.059764
288	1.500155	0.005000	9.731520	-0.113618	-0.068134	-0.107732	-0.454318	-0.739918	0.036099	-0.011465	0.065477
289	1.505155	0.005000	9.814992	0.009984	-0.044232	-0.106708	-0.453977	-0.740935	0.040960	-0.004893	0.069031
290	1.510155	0.005000	9.849936	0.039240	-0.118416	-0.105748	-0.453541	-0.741667	0.042332	-0.006479	0.077075
291	1.515155	0.005000	9.849240	0.062052	-0.101292	-0.104952	-0.452858	-0.741667	0.051065	-0.004802	0.083425
292	1.520155	0.005000	9.770760	0.131469	-0.168703	-0.104156	-0.452176	-0.741667	0.047299	-0.016698	0.091526
293	1.525155	0.005000	9.770760	0.084077	-0.151348	-0.103360	-0.451494	-0.741667	0.039447	-0.015380	0.090706
294	1.530155	0.005000	9.801635	0.109355	-0.243805	-0.102565	-0.450812	-0.741667	0.038022	-0.014504	0.104186
295	1.535155	0.005000	9.731520	0.123306	-0.302748	-0.101769	-0.450130	-0.741667	0.035583	-0.007434	0.116164
296	1.540155	0.005000	9.695411	0.072217	-0.277811	-0.100973	-0.449448	-0.741667	0.061546	-0.012342	0.123176
297	1.545155	0.005000	9.730915	0.000000	-0.235137	-0.100177	-0.448766	-0.741667	0.065397	-0.006232	0.119641
298	1.550155	0.005000	9.763136	0.036699	-0.232899	-0.099381	-0.448084	-0.741667	0.076654	-0.008546	0.128338
299	1.555155	0.005000	9.760782	-0.044229	-0.382422	-0.098585	-0.447402	-0.741667	0.084749	-0.005146	0.127146
300	1.560155	0.005000	9.731520	-0.102169	-0.282455	-0.097790	-0.446720	-0.741667	0.092381	-0.012726	0.130054
301	1.565155	0.005000	9.663659	-0.153723	-0.196200	-0.096994	-0.446037	-0.741667	0.109615	-0.010737	0.136834
302	1.570155	0.005000	9.718057	-0.221977	-0.234290	-0.096198	-0.445355	-0.741667	0.112317	-0.001368	0.140278
303	1.575155	0.005000	9.653040	-0.320546	-0.297613	-0.095813	-0.444862	-0.741533	0.107367	-0.008800	0.136740
304	1.580155	0.005000	9.712612	-0.373492	-0.235440	-0.097747	-0.445430	-0.740644	0.105266	-0.010620	0.139412
305	1.585155	0.005000	9.756858	-0.445542	-0.274680	-0.099680	-0.445999	-0.739755	0.104153	-0.013762	0.136346
306	1.590155	0.005000	9.667910	-0.456010	-0.313920	-0.101614	-0.446568	-0.738866	0.092770	-0.012699	0.142070
307	1.595155	0.005000	9.782786	-0.353160	-0.356322	-0.103548	-0.447137	-0.737977	0.070073	-0.003195	0.136893
308	1.600155	0.005000	9.731520	-0.333192	-0.185868	-0.105481	-0.447705	-0.737088	0.058797	-0.010768	0.131642
309	1.605155	0.005000	9.705864	-0.457296	-0.247512	-0.107415	-0.448274	-0.736199	0.039495	-0.005351	0.135278
310	1.610155	0.005000	9.692280	-0.419795	-0.160908	-0.109348	-0.448843	-0.735310	0.048071	-0.002963	0.121552
311	1.615155	0.005000	9.692280	-0.353160	-0.192887	-0.111282	-0.449411	-0.734420	0.045580	-0.004747	0.120105
312	1.620155	0.005000	9.768188	-0.315206	-0.040526	-0.113216	-0.449980	-0.733531	0.035963	-0.011005	0.125919
313	1.625155	0.005000	9.805885	-0.278795	-0.039240	-0.115149	-0.450549	-0.732642	0.023951	-0.001978	0.130292
314	1.630155	0.005000	9.706197	-0.281639	-0.260763	-0.117083	-0.451117	-0.731753	0.040231	-0.003421	0.132924
315	1.635155	0.005000	9.751844	-0.196200	-0.215116	-0.119017	-0.451686	-0.730864	0.029704	0.003833	0.137394
316	1.640155	0.005000	9.692280	-0.262487	-0.196200	-0.120855	-0.452204	-0.730021	0.046508	-0.002705	0.137853
317	1.645155	0.005000	9.755724	-0.147793	-0.298884	-0.119376	-0.450953	-0.730783	0.039325	-0.016295	0.143041
318	1.650155	0.005000	9.792120	-0.117720	-0.253320	-0.117897	-0.449702	-0.731545	0.049229	-0.009841	0.151189
319	1.655155	0.005000	9.654311	-0.136705	-0.254425	-0.116419	-0.448451	-0.732308	0.050497	-0.010947	0.149682
320	1.660155	0.005000	9.629941	-0.117720	-0.235440	-0.114940	-0.447199	-0.733070	0.058514	-0.007702	0.160139
321	1.665155	0.005000	9.705577	-0.170257	-0.313920	-0.113462	-0.445948	-0.733832	0.051458	-0.009745	0.159305
322	1.670155	0.005000	9.692280	-0.224987	-0.285133	-0.111983	-0.444697	-0.734594	0.061590	-0.018466	0.178836
323	1.675155	0.005000	9.613800	-0.196200	-0.227377	-0.110504	-0.443446	-0.735356	0.057785	0.001045	0.180758
324	1.680155	0.005000	9.530101	-0.240659	-0.251097	-0.109026	-0.442195	-0.736118	0.065346	-0.006242	0.183993
325	1.685155	0.005000	9.579310	-0.115345	-0.394775	-0.107547	-0.440944	-0.736880	0.056778	0.007315	0.198258
326	1.690155	0.005000	9.653040	-0.039240	-0.353160	-0.106068	-0.439693	-0.737642	0.066403	0.018461	0.197437
327	1.695155	0.005000	9.647352	0.067104	-0.395244	-0.104590	-0.438441	-0.738404	0.061087	0.023428	0.212233
328	1.700155	0.005000	9.737208	-0.022176	-0.190512	-0.103111	-0.437190	-0.739166	0.039559	0.028397	0.213168
329	1.705155	0.005000	9.740052	-0.209845	-0.375336	-0.101633	-0.435939	-0.739928	0.028280	0.019087	0.191832
330	1.710155	0.005000	9.748683	-0.387485	-0.274680	-0.101390	-0.435409	-0.740690	0.045541	0.034843	0.179890
331	1.715155	0.005000	9.784511	-0.547348	-0.300169	-0.101276	-0.434954	-0.741451	0.065479	0.031733	0.178960
332	1.720155	0.005000	9.849240	-0.578056	-0.313920	-0.101163	-0.434500	-0.742213	0.084496	0.020191	0.192939
333	1.725155	0.005000	9.810000	-0.667080	-0.333127	-0.101049	-0.434045	-0.742975	0.098730	0.037211	0.181842
334	1.730155	0.005000	9.674869	-0.688909	-0.257269	-0.100935	-0.433590	-0.743737	0.124069	0.022209	0.175494
335	1.735155	0.005000	9.756192	-0.760128	-0.235440	-0.100821	-0.433136	-0.744498	0.110130	0.020283	0.162859
336	1.740155	0.005000	9.774829	-0.937691	-0.117720	-0.100708	-0.432681	-0.745260	0.103781	0.014219	0.149198
337	1.745155	0.005000	9.653040	-1.059480	-0.178441	-0.100594	-0.432226	-0.746022	0.081460	0.033269	0.143625
338	1.750155	0.005000	9.633314	-0.896015	-0.006505	-0.100480	-0.431771	-0.746783	0.044573	0.044481	0.129807
339	1.755155	0.005000	9.649379	-0.874262	-0.160621	-0.100367	-0.431317	-0.747545	0.011872	0.037759	0.116421
340	1.760155	0.005000	9.576194	-1.058663	-0.273863	-0.100253	-0.430862	-0.748307	-0.006029	0.043941	0.110302
341	1.765155	0.005000	9.653040	-1.020240	-0.272653	-0.100139	-0.430407	-0.749068	-0.037806	0.048564	0.101947
342	1.770155	0.005000	9.627206	-0.832978	-0.122189	-0.100025	-0.429952	-0.749830	-0.024538	0.050194	0.090616
343	1.775155	0.005000	9.638518	-0.853084	-0.252897	-0.099823	-0.429674	-0.750000	-0.033348	0.060297	0.067736
344	1.780155	0.005000	9.663145	-0.794905	-0.274680	-0.099596	-0.429447	-0.750000	-0.026011	0.055477	0.055589
345	1.785155	0.005000	9.678938	-0.771851	-0.366502	-0.099368	-0.429219	-0.750000	-0.037245	0.063358	0.046272
346	1.790155	0.005000	9.583152	-0.745560	-0.353160	-0.099140	-0.428991	-0.750000	-0.028900	0.054094	0.038019
347	1.795155	0.005000	9.634872	-0.661271	-0.334992	-0.098913	-0.428764	-0.750000	-0.033450	0.065747	0.037639
348	1.800155	0.005000	9.574560	-0.646068	-0.295692	-0.098685	-0.428536	-0.750000	-0.031456	0.062423	0.021808
349	1.805155	0.005000	9.644569	-0.651696	-0.296978	-0.098458	-0.428309	-0.750000	-0.020542	0.067803	0.022602
350	1.810155	0.005000	9.758023	-0.588600	-0.366411	-0.098230	-0.428081	-0.750000	-0.022039	0.077308	0.011411
351	1.815155	0.005000	9.692280	-0.539210	-0.274680	-0.098003	-0.427854	-0.750000	-0.029245	0.080572	0.015242
352	1.820155	0.005000	9.684974	-0.549360	-0.360466	-0.097775	-0.427626	-0.750000	-0.027895	0.078093	0.001056
353	1.825155	0.005000	9.648577	-0.510120	-0.387937	-0.097547	-0.427398	-0.750000	-0.015982	0.090919	-0.000706
354	1.830155	0.005000	9.615438	-0.586962	-0.426725	-0.097320	-0.427171	-0.750000	-0.006895	0.076805	0.008010
355	1.835155	0.005000	9.614556	-0.587844	-0.390887	-0.097092	-0.426943	-0.750000	-0.011558	0.089272	-0.011602
356	1.840155	0.005000	9.613800	-0.691919	-0.317520	-0.097315	-0.426941	-0.750084	0.007627	0.088674	-0.007151
357	1.845155	0.005000	9.613800	-0.588600	-0.301032	-0.097770	-0.427055	-0.750211	0.017908	0.096916	-0.015324
358	1.850155	0.005000	9.644102	-0.588600	-0.392400	-0.098225	-0.427168	-0.750338	0.035812	0.089848	-0.026579
359	1.855155	0.005000	9.602122	-0.592805	-0.419962	-0.098680	-0.427282	-0.750465	0.031793	0.098932	-0.026163
360	1.860155	0.005000	9.716998	-0.603122	-0.303724	-0.099134	-0.427396	-0.750592	0.035908	0.097527	-0.021709
361	1.865155	0.005000	9.731520	-0.549360	-0.239978	-0.099589	-0.427509	-0.750719	0.038926	0.101224	-0.024483
362	1.870155	0.005000	9.692280	-0.608572	-0.156960	-0.100044	-0.427623	-0.750846	0.020446	0.095455	-0.036684
363	1.875155	0.005000	9.754105	-0.588600	-0.235440	-0.100498	-0.427737	-0.750973	0.023553	0.098763	-0.037100
364	1.880155	0.005000	9.745331	-0.588600	-0.078480	-0.100953	-0.427850	-0.751100	0.025491	0.099349	-0.047705
365	1.885155	0.005000	9.748826	-0.588600	0.000000	-0.101408	-0.427964	-0.751227	0.011003	0.098039	-0.060485
366	1.890155	0.005000	9.683688	-0.597192	-0.165552	-0.101863	-0.428078	-0.751354	0.009799	0.090332	-0.056378
367	1.895155	0.005000	9.619548	-0.616343	-0.223943	-0.102317	-0.428191	-0.751481	0.012621	0.101296	-0.061782
368	1.900155	0.005000	9.695184	-0.624936	-0.109007	-0.102772	-0.428305	-0.751608	0.016799	0.094842	-0.059627
369	1.905155	0.005000	9.731520	-0.549421	0.000000	-0.102985	-0.428298	-0.751802	-0.003277	0.092449	-0.058429
370	1.910155	0.005000	9.731520	-0.514834	0.000000	-0.102985	-0.428184	-0.752056	-0.012221	0.090736	-0.060882
371	1.915155	0.005000	9.736694	-0.436814	-0.107373	-0.102985	-0.428070	-0.752310	-0.035493	0.092729	-0.060801
372	1.920155	0.005000	9.653040	-0.400417	-0.078480	-0.102985	-0.427956	-0.752564	-0.046105	0.105319	-0.063795
373	1.925155	0.005000	9.721002	-0.392400	-0.203886	-0.102985	-0.427843	-0.752818	-0.035364	0.103119	-0.060753
374	1.930155	0.005000	9.666276	-0.353160	-0.222673	-0.102985	-0.427729	-0.753072	-0.039167	0.107684	-0.068944
375	1.935155	0.005000	9.669120	-0.392400	-0.313920	-0.102985	-0.427615	-0.753326	-0.035866	0.110891	-0.062125
376	1.940155	0.005000	9.673356	-0.393792	-0.194808	-0.102985	-0.427502	-0.753580	-0.007575	0.105354	-0.067620
377	1.945155	0.005000	9.714048	-0.449112	-0.183024	-0.102985	-0.427388	-0.753834	0.002706	0.104849	-0.069419
378	1.950155	0.005000	9.746319	-0.446439	-0.117720	-0.102985	-0.427274	-0.754088	0.006390	0.097723	-0.055984
379	1.955155	0.005000	9.770760	-0.470880	-0.181436	-0.102985	-0.427161	-0.754342	0.007955	0.108463	-0.060895
380	1.960155	0.005000	9.770760	-0.470880	-0.196200	-0.102985	-0.427047	-0.754596	0.020715	0.099320	-0.063479
381	1.965155	0.005000	9.751110	-0.418540	-0.026140	-0.102985	-0.426933	-0.754850	0.008225	0.100531	-0.060933
382	1.970155	0.005000	9.621212	-0.356866	-0.085892	-0.102938	-0.427145	-0.755104	0.009538	0.106360	-0.054413
383	1.975155	0.005000	9.728858	-0.430309	-0.113726	-0.102825	-0.427828	-0.755358	0.012467	0.103383	-0.056997
384	1.980155	0.005000	9.728495	-0.392400	0.037727	-0.102711	-0.428510	-0.755612	0.016647	0.101189	-0.068157
385	1.985155	0.005000	9.910293	-0.427283	0.104650	-0.102597	-0.429192	-0.755866	0.017117	0.106244	-0.069662
386	1.990155	0.005000	9.785161	-0.399601	-0.135358	-0.102484	-0.429875	-0.756120	-0.000416	0.105478	-0.070515
387	1.995155	0.005000	9.898948	-0.530179	-0.068012	-0.102370	-0.430557	-0.756374	0.017331	0.100756	-0.079564
388	2.000155	0.005000	9.756389	-0.534989	-0.119656	-0.102256	-0.431240	-0.756628	0.012740	0.103573	-0.076889
389	2.005155	0.005000	9.764165	-0.542765	-0.187517	-0.102143	-0.431922	-0.756882	0.004464	0.089083	-0.091596
390	2.010155	0.005000	9.749642	-0.470880	-0.138838	-0.102029	-0.432605	-0.757136	-0.003169	0.091326	-0.084148
391	2.015155	0.005000	9.712777	-0.450383	-0.156960	-0.101915	-0.433287	-0.757390	-0.011573	0.102000	-0.090778
392	2.020155	0.005000	9.692280	-0.463437	-0.171845	-0.101802	-0.433969	-0.757644	-0.000316	0.084832	-0.083722
393	2.025155	0.005000	9.809924	-0.418585	-0.065425	-0.101688	-0.434652	-0.757898	-0.000514	0.092572	-0.092983
394	2.030155	0.005000	9.859574	-0.431640	0.018571	-0.101574	-0.435334	-0.758152	0.003017	0.084785	-0.090912
395	2.035155	0.005000	9.849240	-0.392400	-0.015732	-0.101493	-0.435951	-0.758442	0.016983	0.093321	-0.101277
396	2.040155	0.005000	9.770760	-0.421656	-0.122712	-0.101493	-0.436406	-0.758823	0.036369	0.083623	-0.106509
397	2.045155	0.005000	9.805704	-0.394548	-0.078480	-0.101493	-0.436861	-0.759204	0.048258	0.088245	-0.104809
398	2.050155	0.005000	9.692525	-0.509630	-0.078480	-0.101493	-0.437316	-0.759585	0.052661	0.092170	-0.118763
399	2.055155	0.005000	9.731520	-0.467794	0.069222	-0.101493	-0.437771	-0.759966	0.062559	0.085105	-0.109375
400	2.060155	0.005000	9.837380	-0.661150	0.066620	-0.101493	-0.438226	-0.760347	0.047335	0.089058	-0.122514
401	2.065155	0.005000	9.849240	-0.627840	0.069706	-0.101493	-0.438681	-0.760728	0.023854	0.082615	-0.122912
402	2.070155	0.005000	9.782044	-0.532687	0.184916	-0.101493	-0.439136	-0.761109	0.001291	0.075932	-0.119314
403	2.075155	0.005000	9.745513	-0.445633	0.170953	-0.101493	-0.439591	-0.761490	-0.035907	0.078546	-0.131547
404	2.080155	0.005000	9.653040	-0.353160	0.140123	-0.101493	-0.440046	-0.761871	-0.037211	0.069719	-0.114410
405	2.085155	0.005000	9.771097	-0.274343	0.117720	-0.101493	-0.440501	-0.762252	-0.035120	0.073329	-0.126103
406	2.090155	0.005000	9.866409	-0.291849	0.139791	-0.101493	-0.440956	-0.762633	-0.032898	0.061849	-0.122486
407	2.095155	0.005000	9.781349	-0.196200	0.132045	-0.101493	-0.441411	-0.763014	-0.008659	0.072256	-0.116317
408	2.100155	0.005000	9.641558	-0.302438	0.089962	-0.101512	-0.441810	-0.763375	0.009362	0.064261	-0.118398
409	2.105155	0.005000	9.709764	-0.135204	0.156960	-0.101625	-0.441923	-0.763629	0.032947	0.044974	-0.114843
410	2.110155	0.005000	9.849240	-0.241703	0.196200	-0.101739	-0.442037	-0.763883	0.035902	0.051787	-0.118901
411	2.115155	0.005000	9.842402	-0.267842	0.075061	-0.101853	-0.442151	-0.764137	0.032096	0.040801	-0.118661
412	2.120155	0.005000	9.808971	-0.195171	0.039240	-0.101966	-0.442265	-0.764391	0.016190	0.052219	-0.118508
413	2.125155	0.005000	9.733335	-0.231809	0.076665	-0.102080	-0.442379	-0.764645	0.012661	0.046732	-0.110761
414	2.130155	0.005000	9.791363	-0.200859	0.078480	-0.102194	-0.442492	-0.764899	0.020671	0.043098	-0.104862
415	2.135155	0.005000	9.880977	-0.156960	0.110217	-0.102308	-0.442606	-0.765153	0.035201	0.044884	-0.115165
416	2.140155	0.005000	9.859118	-0.264802	0.068602	-0.102421	-0.442720	-0.765407	0.057378	0.033690	-0.100293
417	2.145155	0.005000	9.849240	-0.182404	0.078480	-0.102535	-0.442834	-0.765661	0.061416	0.037858	-0.094645
418	2.150155	0.005000	9.786326	-0.180634	0.196200	-0.102649	-0.442947	-0.765915	0.063322	0.021347	-0.089346
419	2.155155	0.005000	9.803344	-0.174916	0.171588	-0.102762	-0.443061	-0.766169	0.079801	0.031110	-0.094760
420	2.160155	0.005000	9.713080	-0.175400	0.138520	-0.102876	-0.443175	-0.766423	0.067315	0.027749	-0.093912
421	2.165155	0.005000	9.762712	-0.180604	0.172556	-0.102966	-0.443298	-0.766667	0.060611	0.025247	-0.078217
422	2.170155	0.005000	9.705032	-0.118703	0.144208	-0.102511	-0.443639	-0.766667	0.058168	0.029886	-0.083299
423	2.175155	0.005000	9.702657	-0.039240	0.117720	-0.102057	-0.443980	-0.766667	0.051504	0.020176	-0.070102
424	2.180155	0.005000	9.770760	-0.078480	0.102653	-0.101602	-0.444321	-0.766667	0.055115	0.024804	-0.070828
425	2.185155	0.005000	9.810000	-0.117720	0.078480	-0.101147	-0.444662	-0.766667	0.081910	0.024219	-0.077724
426	2.190155	0.005000	9.729206	-0.046183	0.076166	-0.100693	-0.445003	-0.766667	0.079281	0.019693	-0.066584
427	2.195155	0.005000	9.653569	-0.156960	0.039240	-0.100238	-0.445344	-0.766667	0.076239	0.023103	-0.067405
428	2.200155	0.005000	9.659787	-0.078480	0.153587	-0.099783	-0.445685	-0.766667	0.089449	0.013441	-0.057492
429	2.205155	0.005000	9.725303	-0.078480	0.144525	-0.099328	-0.446026	-0.766667	0.090952	0.015787	-0.050420
430	2.210155	0.005000	9.832025	-0.078480	0.148353	-0.098874	-0.446367	-0.766667	0.091514	0.013744	-0.057071
431	2.215155	0.005000	9.703731	-0.106269	0.129171	-0.098419	-0.446708	-0.766667	0.094533	0.011296	-0.048465
432	2.220155	0.005000	9.667335	-0.117720	0.146310	-0.097964	-0.447049	-0.766667	0.086265	0.002921	-0.042962
433	2.225155	0.005000	9.708950	-0.078480	0.095150	-0.097509	-0.447390	-0.766667	0.094940	0.001397	-0.028916
434	2.230155	0.005000	9.770548	-0.078692	0.156748	-0.097055	-0.447731	-0.766667	0.082071	0.004077	-0.031548
435	2.235155	0.005000	9.726044	-0.156960	0.134602	-0.097015	-0.447657	-0.766203	0.085555	-0.000239	-0.023551
436	2.240155	0.005000	9.770760	-0.053442	0.246275	-0.097015	-0.447544	-0.765695	0.076736	0.008010	-0.018464
437	2.245155	0.005000	9.731520	-0.090128	0.133664	-0.097015	-0.447430	-0.765187	0.095956	0.004148	-0.019245
438	2.250155	0.005000	9.801196	-0.069676	0.026412	-0.097015	-0.447316	-0.764679	0.082713	0.007176	-0.004842
439	2.255155	0.005000	9.770760	-0.162920	0.000000	-0.097015	-0.447202	-0.764171	0.089203	0.007173	-0.003858
440	2.260155	0.005000	9.770760	-0.232286	0.048702	-0.097015	-0.447089	-0.763663	0.090468	-0.002872	-0.000970
441	2.265155	0.005000	9.770760	-0.157701	0.079221	-0.097015	-0.446975	-0.763155	0.105978	0.001391	-0.001799
442	2.270155	0.005000	9.770760	-0.233337	0.006308	-0.097015	-0.446861	-0.762647	0.113088	-0.004319	0.002955
443	2.275155	0.005000	9.667880	-0.230493	0.073533	-0.097015	-0.446748	-0.762139	0.098947	0.000369	0.004004
444	2.280155	0.005000	9.770760	-0.345737	0.125143	-0.097015	-0.446634	-0.761631	0.088967	-0.000006	0.001516
445	2.285155	0.005000	9.712641	-0.313920	0.098841	-0.097015	-0.446520	-0.761123	0.086395	-0.001310	0.006842
446	2.290155	0.005000	9.810000	-0.274680	0.117720	-0.097015	-0.446407	-0.760615	0.063226	0.007246	0.006746
447	2.295155	0.005000	9.810000	-0.250840	0.093880	-0.097015	-0.446293	-0.760107	0.073308	-0.009425	0.003984
448	2.300155	0.005000	9.752517	-0.256437	0.075727	-0.097105	-0.445999	-0.760100	0.042622	0.001652	-0.004871
449	2.305155	0.005000	9.791847	-0.235440	0.057393	-0.097218	-0.445658	-0.760227	0.053527	-0.007128	0.004681
450	2.310155	0.005000	9.794237	-0.188152	0.094243	-0.097332	-0.445317	-0.760354	0.041913	-0.000193	0.007365
451	2.315155	0.005000	9.784163	-0.117720	0.025837	-0.097446	-0.444976	-0.760481	0.055079	-0.006821	-0.000102
452	2.320155	0.005000	9.711371	-0.156960	0.186125	-0.097559	-0.444635	-0.760608	0.053917	-0.009082	0.005273
453	2.325155	0.005000	9.660271	-0.178652	0.196200	-0.097673	-0.444294	-0.760735	0.054336	-0.003981	0.002792
454	2.330155	0.005000	9.697136	-0.240296	0.191344	-0.097787	-0.443953	-0.760862	0.063026	-0.007014	0.013064
455	2.335155	0.005000	9.843204	-0.235440	0.152936	-0.097900	-0.443612	-0.760989	0.070432	-0.010901	0.011523
456	2.340155	0.005000	9.693112	-0.235440	0.078480	-0.098014	-0.443271	-0.761116	0.062541	-0.015883	0.013482
457	2.345155	0.005000	9.617046	-0.235440	-0.035994	-0.098128	-0.442930	-0.761243	0.060245	-0.018594	0.009497
458	2.350155	0.005000	9.758658	-0.229389	-0.033189	-0.098241	-0.442589	-0.761370	0.045568	-0.015843	0.001942
459	2.355155	0.005000	9.661935	-0.205095	0.021450	-0.098355	-0.442248	-0.761497	0.050291	-0.025784	0.007577
460	2.360155	0.005000	9.704019	-0.156960	0.172723	-0.098469	-0.441906	-0.761624	0.040630	-0.009708	0.006903
461	2.365155	0.005000	9.756177	-0.284755	0.132303	-0.098357	-0.441791	-0.761667	0.052765	-0.021173	0.014446
462	2.370155	0.005000	9.792829	-0.291851	0.083377	-0.098129	-0.441791	-0.761667	0.058948	-0.007820	0.012407
463	2.375155	0.005000	9.770760	-0.196200	0.019817	-0.097902	-0.441791	-0.761667	0.055712	-0.011741	0.011558
464	2.380155	0.005000	9.714941	-0.212779	-0.039240	-0.097674	-0.441791	-0.761667	0.063366	-0.015016	0.018221
465	2.385155	0.005000	9.784496	-0.196200	0.064744	-0.097447	-0.441791	-0.761667	0.054681	-0.020017	0.013180
466	2.390155	0.005000	9.703303	-0.179007	0.023363	-0.097219	-0.441791	-0.761667	0.062945	-0.020041	0.023234
467	2.395155	0.005000	9.692280	-0.187683	-0.022207	-0.096992	-0.441791	-0.761667	0.058970	-0.013744	0.018133
468	2.400155	0.005000	9.697953	-0.235440	-0.022222	-0.096764	-0.441791	-0.761667	0.055977	-0.020123	0.018725
469	2.405155	0.005000	9.658698	-0.235440	0.042069	-0.096537	-0.441791	-0.761667	0.055932	-0.018289	0.029703
470	2.410155	0.005000	9.770745	-0.274665	0.117705	-0.096309	-0.441791	-0.761667	0.060522	-0.018090	0.015213
471	2.415155	0.005000	9.736387	-0.274680	0.076047	-0.096082	-0.441791	-0.761667	0.070140	-0.021027	0.028814
472	2.420155	0.005000	9.726271	-0.274680	0.054987	-0.095854	-0.441791	-0.761667	0.038608	-0.006215	0.019314
473	2.425155	0.005000	9.739613	-0.305827	-0.031147	-0.095627	-0.441791	-0.761667	0.043644	-0.012352	0.026129
474	2.430155	0.005000	9.759823	-0.207137	-0.039240	-0.095706	-0.442404	-0.761325	0.047225	-0.007333	0.027746
475	2.435155	0.005000	9.810000	-0.170741	0.025459	-0.096047	-0.443541	-0.760690	0.055129	-0.014078	0.017174
476	2.440155	0.005000	9.770760	-0.180044	-0.032312	-0.096388	-0.444679	-0.760055	0.039401	-0.012429	0.023788
477	2.445155	0.005000	9.750520	-0.197440	0.078480	-0.096730	-0.445816	-0.759419	0.053652	-0.013677	0.021958
478	2.450155	0.005000	9.591956	-0.252836	0.017396	-0.097071	-0.446953	-0.758784	0.037947	-0.020085	0.021813
479	2.455155	0.005000	9.653040	-0.274680	-0.024234	-0.097412	-0.448091	-0.758149	0.049179	-0.010879	0.013266
480	2.460155	0.005000	9.625962	-0.196200	-0.039240	-0.097753	-0.449228	-0.757514	0.040341	-0.019681	0.005904
481	2.465155	0.005000	9.710917	-0.235440	-0.039240	-0.098095	-0.450365	-0.756879	0.049114	-0.022785	0.014478
482	2.470155	0.005000	9.764207	-0.235440	-0.058822	-0.098436	-0.451503	-0.756244	0.043137	-0.009189	0.011617
483	2.475155	0.005000	9.762561	-0.231341	0.078480	-0.098777	-0.452640	-0.755609	0.045282	-0.024944	0.011482
484	2.480155	0.005000	9.732776	-0.237951	0.035473	-0.099118	-0.453778	-0.754974	0.045214	-0.023234	0.018986
485	2.485155	0.005000	9.770760	-0.276268	-0.116132	-0.099460	-0.454915	-0.754339	0.050775	-0.022675	0.018821
486	2.490155	0.005000	9.770760	-0.305055	-0.126585	-0.099801	-0.456052	-0.753704	0.054559	-0.017289	0.013226
487	2.495155	0.005000	9.699087	-0.177382	-0.085287	-0.099905	-0.456242	-0.753492	0.055556	-0.023135	0.013451
488	2.500155	0.005000	9.653040	-0.108069	-0.009651	-0.099678	-0.455105	-0.753873	0.047346	-0.018778	0.018630
489	2.505155	0.005000	9.733275	-0.287175	-0.037485	-0.099450	-0.453968	-0.754254	0.071092	-0.016089	0.021459
490	2.510155	0.005000	9.740082	-0.274680	-0.071703	-0.099223	-0.452830	-0.754635	0.076665	-0.021181	0.016292
491	2.515155	0.005000	9.831303	-0.256743	0.063910	-0.098995	-0.451693	-0.755016	0.067623	-0.020609	0.018679
492	2.520155	0.005000	9.830573	-0.235440	0.059813	-0.098768	-0.450556	-0.755397	0.065994	-0.018791	0.011627
493	2.525155	0.005000	9.810000	-0.274680	0.015823	-0.098540	-0.449418	-0.755778	0.066710	-0.024241	0.015393
494	2.530155	0.005000	9.770760	-0.261701	0.091459	-0.098313	-0.448281	-0.756159	0.056453	-0.022064	0.015663
495	2.535155	0.005000	9.760156	-0.206804	0.049844	-0.098085	-0.447143	-0.756540	0.057173	-0.029099	0.021563
496	2.540155	0.005000	9.739280	-0.180679	0.031480	-0.097858	-0.446006	-0.756921	0.052812	-0.018523	0.020894
497	2.545155	0.005000	9.765844	-0.073564	-0.029407	-0.097631	-0.444869	-0.757302	0.067817	-0.020445	0.022161
498	2.550155	0.005000	9.731520	-0.159486	-0.039240	-0.097403	-0.443731	-0.757683	0.046658	-0.022823	0.025336
499	2.555155	0.005000	9.731520	-0.235122	-0.039240	-0.097176	-0.442594	-0.758064	0.052803	-0.018972	0.022358
500	2.560155	0.005000	9.692280	-0.307597	-0.036078	-0.097082	-0.441858	-0.758370	0.055276	-0.029532	0.028184
501	2.565155	0.005000	9.725514	-0.168971	0.078480	-0.097309	-0.442085	-0.758497	0.068553	-0.027184	0.028652
502	2.570155	0.005000	9.622180	-0.218679	0.047620	-0.097537	-0.442313	-0.758624	0.070555	-0.029618	0.025411
503	2.575155	0.005000	9.669831	-0.246664	-0.112062	-0.097764	-0.442540	-0.758751	0.052802	-0.024046	0.023004
504	2.580155	0.005000	9.731520	-0.299852	-0.053308	-0.097992	-0.442768	-0.758878	0.066492	-0.031044	0.017510
505	2.585155	0.005000	9.675822	-0.291138	-0.062022	-0.098219	-0.442995	-0.759006	0.055945	-0.034350	0.022119
506	2.590155	0.005000	9.711582	-0.293982	-0.137022	-0.098447	-0.443223	-0.759133	0.062181	-0.023292	0.020122
507	2.595155	0.005000	9.765708	-0.274680	0.056334	-0.098674	-0.443450	-0.759260	0.068492	-0.031787	0.019039
508	2.600155	0.005000	9.731520	-0.274680	0.049636	-0.098902	-0.443678	-0.759387	0.064859	-0.031369	0.009225
509	2.605155	0.005000	9.762501	-0.325795	0.105845	-0.099129	-0.443905	-0.759514	0.068962	-0.033180	0.012476
510	2.610155	0.005000	9.631862	-0.322951	0.108689	-0.099357	-0.444133	-0.759641	0.067008	-0.033408	0.004572
511	2.615155	0.005000	9.725333	-0.346973	0.039240	-0.099584	-0.444360	-0.759768	0.049531	-0.036158	-0.009065
512	2.620155	0.005000	9.656837	-0.317717	-0.011391	-0.099812	-0.444588	-0.759895	0.036857	-0.040433	-0.001799
513	2.625155	0.005000	9.770760	-0.353160	-0.077527	-0.100039	-0.444796	-0.759869	0.036691	-0.028904	-0.018915
514	2.630155	0.005000	9.733411	-0.353160	-0.076589	-0.100266	-0.444909	-0.759107	0.037581	-0.036639	-0.015471
515	2.635155	0.005000	9.770760	-0.348425	-0.004735	-0.100494	-0.445023	-0.758345	0.038673	-0.030224	-0.013684
516	2.640155	0.005000	9.802804	-0.313920	-0.024848	-0.100721	-0.445137	-0.757583	0.048081	-0.027555	-0.025535
517	2.645155	0.005000	9.731520	-0.303966	-0.019907	-0.100949	-0.445251	-0.756821	0.051001	-0.030886	-0.035702
518	2.650155	0.005000	9.679482	-0.365958	-0.052885	-0.101176	-0.445364	-0.756059	0.038750	-0.027228	-0.041130
519	2.655155	0.005000	9.794358	-0.266723	-0.039240	-0.101404	-0.445478	-0.755297	0.050046	-0.034690	-0.039356
520	2.660155	0.005000	9.810000	-0.353160	-0.117720	-0.101631	-0.445592	-0.754535	0.044945	-0.030280	-0.042475
521	2.665155	0.005000	9.770760	-0.293060	0.000000	-0.101859	-0.445706	-0.753773	0.039542	-0.045580	-0.039360
522	2.670155	0.005000	9.739689	-0.306553	-0.046607	-0.102086	-0.445819	-0.753011	0.030360	-0.033468	-0.042216
523	2.675155	0.005000	9.613800	-0.183360	-0.170520	-0.102314	-0.445933	-0.752249	0.013322	-0.026150	-0.052205
524	2.680155	0.005000	9.642738	-0.264378	-0.216803	-0.102541	-0.446047	-0.751487	0.026475	-0.017490	-0.050742
525	2.685155	0.005000	9.753893	-0.196200	-0.299005	-0.102769	-0.446161	-0.750725	0.028279	-0.009186	-0.047953
526	2.690155	0.005000	9.805386	-0.156960	-0.196200	-0.103052	-0.446369	-0.749944	0.050601	-0.026236	-0.032124
527	2.695155	0.005000	9.694071	-0.155169	-0.155169	-0.104417	-0.448416	-0.748801	0.045379	-0.028151	-0.045950
528	2.700155	0.005000	9.692885	-0.079085	-0.040450	-0.105781	-0.450463	-0.747658	0.055489	-0.026457	-0.030626
529	2.705155	0.005000	9.659938	-0.146613	-0.114271	-0.107146	-0.452511	-0.746515	0.054401	-0.020496	-0.037836
530	2.710155	0.005000	9.758174	-0.202493	-0.032947	-0.108511	-0.454558	-0.745372	0.054485	-0.017340	-0.044862
531	2.715155	0.005000	9.770760	-0.117720	-0.078480	-0.109876	-0.456605	-0.744229	0.064028	-0.023922	-0.036243
532	2.720155	0.005000	9.731520	-0.133636	0.015916	-0.111241	-0.458652	-0.743086	0.052211	-0.020394	-0.030710
533	2.725155	0.005000	9.638669	-0.092851	-0.010498	-0.112606	-0.460700	-0.741943	0.058373	-0.021251	-0.024086
534	2.730155	0.005000	9.736330	-0.039240	-0.017215	-0.113971	-0.462747	-0.740800	0.047793	-0.017421	-0.019939
535	2.735155	0.005000	9.731520	-0.000877	0.059299	-0.115336	-0.464794	-0.739657	0.028603	-0.012482	-0.029709
536	2.740155	0.005000	9.708617	-0.009772	-0.032675	-0.116701	-0.466841	-0.738514	0.026633	-0.011667	-0.017103
537	2.745155	0.005000	9.745482	-0.011315	-0.117720	-0.118065	-0.468888	-0.737370	0.025448	-0.012246	-0.021064
538	2.750155	0.005000	9.781879	-0.022237	-0.156960	-0.119430	-0.470936	-0.736227	0.040992	-0.013299	-0.010180
539	2.755155	0.005000	9.638624	-0.022691	-0.156960	-0.120795	-0.472983	-0.735084	0.049082	-0.012434	-0.005058
540	2.760155	0.005000	9.692280	0.072986	-0.016483	-0.120685	-0.472607	-0.735706	0.056955	-0.024417	0.010021
541	2.765155	0.005000	9.767719	0.075439	0.033159	-0.120458	-0.472039	-0.736468	0.067935	-0.025849	0.010416
542	2.770155	0.005000	9.809803	0.038847	-0.117130	-0.120230	-0.471470	-0.737230	0.047037	-0.013479	0.015173
543	2.775155	0.005000	9.807353	0.033945	-0.036593	-0.120003	-0.470901	-0.737992	0.043177	-0.014859	0.028147
544	2.780155	0.005000	9.804978	0.034218	-0.039240	-0.119775	-0.470333	-0.738754	0.035686	-0.013708	0.032400
545	2.785155	0.005000	9.731520	0.039240	-0.094122	-0.119547	-0.469764	-0.739516	0.050132	-0.021553	0.037090
546	2.790155	0.005000	9.749340	0.057060	-0.124830	-0.119320	-0.469195	-0.740278	0.056623	-0.013272	0.044479
547	2.795155	0.005000	9.770760	-0.051372	-0.117720	-0.119092	-0.468627	-0.741040	0.074321	-0.016304	0.039401
548	2.800155	0.005000	9.840675	-0.180265	-0.203570	-0.118865	-0.468058	-0.741802	0.070092	-0.021594	0.047250
549	2.805155	0.005000	9.731520	-0.197894	-0.235440	-0.118637	-0.467490	-0.742564	0.081618	-0.019442	0.052745
550	2.810155	0.005000	9.713897	-0.221810	-0.178577	-0.118410	-0.466921	-0.743326	0.077837	-0.015706	0.053853
551	2.815155	0.005000	9.667992	-0.220488	-0.078480	-0.118182	-0.466352	-0.744088	0.068312	-0.016045	0.057232
552	2.820155	0.005000	9.704669	-0.313920	-0.262291	-0.117955	-0.465784	-0.744850	0.067831	-0.026123	0.057789
553	2.825155	0.005000	9.662585	-0.285284	-0.217408	-0.116722	-0.464301	-0.745102	0.058682	-0.021380	0.067418
554	2.830155	0.005000	9.692280	-0.202901	-0.078480	-0.115243	-0.462595	-0.745229	0.051104	-0.024566	0.064034
555	2.835155	0.005000	9.692280	-0.302208	-0.007808	-0.113764	-0.460889	-0.745356	0.068699	-0.029439	0.048638
556	2.840155	0.005000	9.693762	-0.274680	-0.117720	-0.112286	-0.459182	-0.745483	0.057179	-0.017902	0.047249
557	2.845155	0.005000	9.655763	-0.198923	-0.117720	-0.110807	-0.457476	-0.745610	0.063072	-0.025951	0.044789
558	2.850155	0.005000	9.696485	-0.204611	-0.078480	-0.109329	-0.455770	-0.745737	0.044425	-0.028209	0.060400
559	2.855155	0.005000	9.731520	-0.242113	-0.117720	-0.107850	-0.454064	-0.745864	0.042751	-0.025985	0.052145
560	2.860155	0.005000	9.671919	-0.215079	-0.167882	-0.106371	-0.452358	-0.745991	0.038280	-0.023767	0.056461
561	2.865155	0.005000	9.653040	-0.196200	-0.051523	-0.104893	-0.450652	-0.746118	0.041055	-0.019772	0.054177
562	2.870155	0.005000	9.686138	-0.163102	-0.156960	-0.103414	-0.448946	-0.746245	0.045611	-0.027456	0.049859
563	2.875155	0.005000	9.774058	-0.196200	-0.174931	-0.101936	-0.447240	-0.746372	0.043647	-0.022177	0.041451
564	2.880155	0.005000	9.712626	-0.196200	-0.138066	-0.100457	-0.445534	-0.746499	0.050719	-0.028941	0.055137
565	2.885155	0.005000	9.738660	-0.133770	-0.164100	-0.098978	-0.443828	-0.746627	0.054513	-0.023598	0.050965
566	2.890155	0.005000	9.640212	-0.130926	-0.169788	-0.098585	-0.443516	-0.746840	0.065212	-0.019680	0.044221
567	2.895155	0.005000	9.770760	-0.156960	-0.099204	-0.098698	-0.443858	-0.747094	0.059148	-0.018515	0.053606
568	2.900155	0.005000	9.778732	-0.188228	-0.156960	-0.098812	-0.444199	-0.747348	0.058232	-0.010890	0.054670
569	2.905155	0.005000	9.794616	-0.235440	-0.191072	-0.098926	-0.444540	-0.747602	0.068289	-0.022770	0.053096
570	2.910155	0.005000	9.694564	-0.274680	-0.198484	-0.099040	-0.444881	-0.747856	0.062921	-0.008094	0.048563
571	2.915155	0.005000	9.731520	-0.197319	-0.351481	-0.099153	-0.445222	-0.748110	0.065318	-0.018460	0.050688
572	2.920155	0.005000	9.731520	-0.268811	-0.350225	-0.099267	-0.445563	-0.748364	0.076612	-0.019434	0.054978
573	2.925155	0.005000	9.709616	-0.302363	-0.174296	-0.099381	-0.445905	-0.748618	0.081906	-0.013031	0.040847
574	2.930155	0.005000	9.753515	-0.313920	-0.248812	-0.099495	-0.446246	-0.748872	0.071961	-0.019314	0.052289
575	2.935155	0.005000	9.810000	-0.341694	-0.140653	-0.099608	-0.446587	-0.749126	0.078484	-0.008901	0.042318
576	2.940155	0.005000	9.784617	-0.353160	-0.156960	-0.099722	-0.446928	-0.749380	0.084326	-0.012851	0.038264
577	2.945155	0.005000	9.787460	-0.336460	-0.140260	-0.099836	-0.447269	-0.749634	0.067756	-0.013538	0.039194
578	2.950155	0.005000	9.750913	-0.353160	-0.235440	-0.099950	-0.447610	-0.749888	0.061341	-0.012287	0.030592
579	2.955155	0.005000	9.787816	-0.336104	-0.156960	-0.100064	-0.447316	-0.750000	0.041737	-0.013132	0.029600
580	2.960155	0.005000	9.756283	-0.274680	-0.107433	-0.100177	-0.446520	-0.750000	0.042565	-0.012758	0.029744
581	2.965155	0.005000	9.692280	-0.263047	-0.207833	-0.100291	-0.445724	-0.750000	0.046151	-0.008397	0.033903
582	2.970155	0.005000	9.701175	-0.274680	-0.126615	-0.100405	-0.444928	-0.750000	0.054849	-0.007845	0.031396
583	2.975155	0.005000	9.777174	-0.189786	-0.169788	-0.100519	-0.444132	-0.750000	0.044273	-0.008449	0.025212
584	2.980155	0.005000	9.760050	-0.160530	-0.235440	-0.100632	-0.443335	-0.750000	0.044936	-0.011237	0.029536
585	2.985155	0.005000	9.653775	-0.234705	-0.193262	-0.100746	-0.442539	-0.750000	0.038697	-0.009230	0.029655
586	2.990155	0.005000	9.692280	-0.121048	-0.039240	-0.100860	-0.441743	-0.750000	0.051108	-0.015750	0.028159
587	2.995155	0.005000	9.740536	-0.182676	-0.117720	-0.100974	-0.440947	-0.750000	0.066097	-0.008162	0.023518
588	3.000155	0.005000	9.692280	-0.156960	-0.046592	-0.101088	-0.440151	-0.750000	0.077917	-0.011876	0.019635
589	3.005155	0.005000	9.731520	-0.167156	-0.107524	-0.101201	-0.439354	-0.750000	0.061998	0.000271	0.032528
590	3.010155	0.005000	9.758189	-0.103621	-0.091051	-0.101315	-0.438558	-0.750000	0.044630	0.001046	0.036994
591	3.015155	0.005000	9.818411	-0.117720	-0.189196	-0.101429	-0.437762	-0.750000	0.051531	0.003269	0.032566
592	3.020155	0.005000	9.789019	-0.177941	-0.193477	-0.101443	-0.437412	-0.750000	0.049457	-0.003936	0.029034
593	3.025155	0.005000	9.807460	-0.232900	-0.196200	-0.101330	-0.437640	-0.750000	0.058252	-0.002330	0.033853
594	3.030155	0.005000	9.770760	-0.164705	-0.101973	-0.101216	-0.437867	-0.750000	0.039663	0.007629	0.030888
595	3.035155	0.005000	9.770760	-0.274680	-0.038711	-0.101102	-0.438095	-0.750000	0.035297	0.007416	0.032438
596	3.040155	0.005000	9.692280	-0.186140	-0.177079	-0.100988	-0.438322	-0.750000	0.046960	0.000955	0.035984
597	3.045155	0.005000	9.628406	-0.196200	-0.213531	-0.100875	-0.438550	-0.750000	0.043677	0.006923	0.027150
598	3.050155	0.005000	9.731520	-0.201041	-0.191359	-0.100761	-0.438777	-0.750000	0.052289	-0.001635	0.035496
599	3.055155	0.005000	9.657034	-0.268690	-0.082474	-0.100647	-0.439005	-0.750000	0.035319	0.016007	0.037516
600	3.060155	0.005000	9.731520	-0.156960	-0.080174	-0.100533	-0.439233	-0.750000	0.049473	0.005152	0.044646
601	3.065155	0.005000	9.653040	-0.125102	-0.153269	-0.100419	-0.439460	-0.750000	0.049404	0.011756	0.044613
602	3.070155	0.005000	9.836935	-0.078480	-0.235440	-0.100306	-0.439688	-0.750000	0.051215	0.009799	0.050166
603	3.075155	0.005000	9.749370	-0.139110	-0.196200	-0.100192	-0.439915	-0.750000	0.059126	0.006224	0.058665
604	3.080155	0.005000	9.755058	-0.184431	-0.117720	-0.100078	-0.440143	-0.750000	0.058175	0.008163	0.062549
605	3.085155	0.005000	9.643026	-0.260067	-0.136932	-0.099893	-0.440299	-0.750159	0.060876	0.001112	0.060025
606	3.090155	0.005000	9.675087	-0.257487	-0.039240	-0.099552	-0.440299	-0.750667	0.059559	0.010465	0.067632
607	3.095155	0.005000	9.653464	-0.235440	-0.078480	-0.099211	-0.440299	-0.751175	0.050053	0.006318	0.060452
608	3.100155	0.005000	9.708844	-0.297356	-0.274680	-0.098869	-0.440299	-0.751683	0.050396	0.007792	0.060170
609	3.105155	0.005000	9.611879	-0.313920	-0.249160	-0.098528	-0.440299	-0.752191	0.038697	0.008039	0.057169
610	3.110155	0.005000	9.613800	-0.291259	-0.212779	-0.098187	-0.440299	-0.752700	0.044979	0.005479	0.067993
611	3.115155	0.005000	9.661526	-0.235440	-0.100747	-0.097846	-0.440299	-0.753208	0.017756	0.018901	0.057143
612	3.120155	0.005000	9.742835	-0.235440	-0.072822	-0.097504	-0.440299	-0.753716	0.033066	0.007190	0.063202
613	3.125155	0.005000	9.767946	-0.274680	-0.229813	-0.097163	-0.440299	-0.754224	0.025034	0.007177	0.069641
614	3.130155	0.005000	9.731944	-0.274680	-0.194506	-0.096822	-0.440299	-0.754732	0.028178	0.002281	0.065474
615	3.135155	0.005000	9.733940	-0.274680	-0.112879	-0.096481	-0.440299	-0.755240	0.049645	0.004878	0.070223
616	3.140155	0.005000	9.692280	-0.269416	-0.180407	-0.096139	-0.440299	-0.755748	0.046852	0.006109	0.062952
617	3.145155	0.005000	9.755297	-0.266948	-0.117720	-0.095798	-0.440299	-0.756256	0.059481	0.005486	0.060487
618	3.150155	0.005000	9.770760	-0.313920	0.002693	-0.095609	-0.440234	-0.756521	0.042890	0.002932	0.067806
619	3.155155	0.005000	9.718934	-0.392400	-0.104393	-0.096064	-0.439893	-0.755759	0.043796	0.003716	0.070645
620	3.160155	0.005000	9.715619	-0.329821	-0.094381	-0.096519	-0.439551	-0.754997	0.048084	0.004555	0.073217
621	3.165155	0.005000	9.772878	-0.295359	-0.078480	-0.096974	-0.439210	-0.754235	0.023813	0.001742	0.073041
622	3.170155	0.005000	9.770760	-0.335325	-0.174795	-0.097429	-0.438869	-0.753473	0.035817	-0.011469	0.072422
623	3.175155	0.005000	9.834249	-0.259689	-0.063489	-0.097884	-0.438528	-0.752711	0.027348	0.004971	0.077065
624	3.180155	0.005000	9.797384	-0.210208	-0.051856	-0.098339	-0.438186	-0.751949	0.031676	-0.016546	0.083995
625	3.185155	0.005000	9.829696	-0.117720	-0.098176	-0.098794	-0.437845	-0.751187	0.036949	0.001646	0.092521
626	3.190155	0.005000	9.777688	0.053097	-0.018455	-0.099249	-0.437504	-0.750425	0.026612	-0.008778	0.099030
627	3.195155	0.005000	9.684016	0.125984	0.109456	-0.099704	-0.437163	-0.749663	0.020099	-0.013857	0.114746
628	3.200155	0.005000	9.572866	0.197894	-0.040934	-0.100159	-0.436821	-0.748901	0.014609	-0.009537	0.133204
629	3.205155	0.005000	9.535320	0.273530	-0.154661	-0.100614	-0.436480	-0.748139	0.037333	-0.006038	0.142096
630	3.210155	0.005000	9.653040	0.160954	-0.223459	-0.101069	-0.436139	-0.747377	0.052605	-0.001071	0.165923
631	3.215155	0.005000	9.646671	0.229071	-0.261943	-0.101485	-0.435759	-0.746693	0.072432	-0.000516	0.181817
632	3.220155	0.005000	9.683068	0.126932	-0.283892	-0.101371	-0.434849	-0.747074	0.089245	-0.009225	0.208721
633	3.225155	0.005000	9.653040	0.168698	-0.219677	-0.101258	-0.433939	-0.747455	0.103245	-0.016176	0.228207
634	3.230155	0.005000	9.702627	0.156960	-0.146613	-0.101144	-0.433029	-0.747836	0.104449	-0.019350	0.243781
635	3.235155	0.005000	9.657699	0.235440	-0.051871	-0.101030	-0.432119	-0.748217	0.086766	-0.022831	0.268744
636	3.240155	0.005000	9.731520	0.216334	-0.136826	-0.100916	-0.431209	-0.748598	0.083771	-0.023090	0.302499
637	3.245155	0.005000	9.692280	0.235440	-0.173691	-0.100803	-0.430299	-0.748979	0.057222	-0.028685	0.327510
638	3.250155	0.005000	9.666927	0.223974	-0.050706	-0.100689	-0.429390	-0.749360	0.031481	-0.019691	0.346795
639	3.255155	0.005000	9.675126	0.313920	0.117720	-0.100575	-0.428480	-0.749741	0.012069	-0.030280	0.379578
640	3.260155	0.005000	9.779055	0.361455	0.140370	-0.100461	-0.427570	-0.750122	0.012634	-0.027462	0.417904
641	3.265155	0.005000	9.764951	0.398209	0.111911	-0.100347	-0.426660	-0.750503	-0.002458	-0.036460	0.456326
642	3.270155	0.005000	9.731520	0.389420	-0.002980	-0.100234	-0.425750	-0.750884	0.005498	-0.029130	0.489438
643	3.275155	0.005000	9.692555	0.392538	-0.000275	-0.100120	-0.424840	-0.751265	0.006020	-0.044830	0.522714
644	3.280155	0.005000	9.733774	0.357668	-0.041494	-0.100006	-0.423930	-0.751646	0.010092	-0.046271	0.552884
645	3.285155	0.005000	9.760564	0.133014	-0.141666	-0.100323	-0.422590	-0.751307	0.016887	-0.055010	0.586832
646	3.290155	0.005000	9.786175	0.023825	-0.133604	-0.100664	-0.421225	-0.750926	0.008881	-0.062310	0.615418
647	3.295155	0.005000	9.674611	0.000000	-0.117720	-0.101005	-0.419860	-0.750545	0.010458	-0.057072	0.642990
648	3.300155	0.005000	9.653040	-0.025920	-0.078480	-0.101346	-0.418495	-0.750164	0.005766	-0.058557	0.671879
649	3.305155	0.005000	9.629805	0.087254	-0.242671	-0.101688	-0.417130	-0.749783	-0.007390	-0.053158	0.696035
650	3.310155	0.005000	9.653040	0.020391	-0.196200	-0.102029	-0.415766	-0.749402	-0.041203	-0.037173	0.729810
651	3.315155	0.005000	9.713767	0.117720	-0.192466	-0.102370	-0.414401	-0.749020	-0.093987	-0.036722	0.772971
652	3.320155	0.005000	9.746677	0.235440	-0.196200	-0.102711	-0.413036	-0.748639	-0.130827	-0.019991	0.801787
653	3.325155	0.005000	9.743834	0.313920	-0.247754	-0.103053	-0.411671	-0.748258	-0.158756	-0.004122	0.832196
654	3.330155	0.005000	9.770760	0.382816	-0.342673	-0.103394	-0.410306	-0.747877	-0.177977	0.029606	0.860727
655	3.335155	0.005000	9.678091	0.353160	-0.424545	-0.103735	-0.408941	-0.747496	-0.183552	0.025915	0.874573
656	3.340155	0.005000	9.613800	0.226939	-0.340408	-0.104076	-0.407576	-0.747115	-0.175195	0.027825	0.883653
657	3.345155	0.005000	9.651617	-0.082750	-0.353160	-0.104418	-0.406211	-0.746734	-0.153229	0.049335	0.874400
658	3.350155	0.005000	9.613800	-0.349227	-0.314903	-0.104853	-0.404940	-0.747085	-0.103971	0.068677	0.873727
659	3.355155	0.005000	9.539147	-0.498638	-0.274680	-0.105307	-0.403689	-0.747593	0.002070	0.083562	0.876748
660	3.360155	0.005000	9.587902	-0.751444	-0.333147	-0.105762	-0.402438	-0.748101	0.096104	0.091123	0.861159
661	3.365155	0.005000	9.571942	-1.122267	-0.265525	-0.106217	-0.401187	-0.748609	0.182093	0.106878	0.855484
662	3.370155	0.005000	9.441380	-1.627870	-0.407860	-0.106672	-0.399936	-0.749117	0.234953	0.116544	0.820716
663	3.375155	0.005000	9.481346	-2.020784	-0.573866	-0.107127	-0.398684	-0.749625	0.296872	0.124548	0.791993
664	3.380155	0.005000	9.456840	-2.463978	-0.492796	-0.107582	-0.397433	-0.750133	0.343541	0.124823	0.742777
665	3.385155	0.005000	9.319152	-2.686896	-0.393096	-0.108037	-0.396182	-0.750641	0.365603	0.096555	0.720384
666	3.390155	0.005000	9.188544	-3.008713	-0.274680	-0.108492	-0.394931	-0.751149	0.359891	0.102839	0.673113
667	3.395155	0.005000	9.050387	-3.380479	-0.353160	-0.108947	-0.393680	-0.751657	0.338290	0.098127	0.628747
668	3.400155	0.005000	9.058828	-3.699769	-0.330741	-0.109402	-0.392429	-0.752165	0.305543	0.109806	0.585089
669	3.405155	0.005000	9.173795	-3.736165	-0.283045	-0.109857	-0.391178	-0.752673	0.253722	0.118179	0.517853
670	3.410155	0.005000	9.030786	-3.879174	-0.269094	-0.110312	-0.389927	-0.753181	0.208683	0.124929	0.472342
671	3.415155	0.005000	9.142920	-3.672903	-0.350029	-0.109970	-0.388834	-0.753511	0.132733	0.142829	0.446448
672	3.420155	0.005000	9.182463	-3.373732	-0.314525	-0.109287	-0.387810	-0.753765	0.078671	0.144254	0.405358
673	3.425155	0.005000	9.258099	-3.110125	-0.429099	-0.108604	-0.386786	-0.754019	0.005964	0.144776	0.378214
674	3.430155	0.005000	9.442046	-2.879314	-0.392400	-0.107921	-0.385762	-0.754274	-0.058728	0.160469	0.341054
675	3.435155	0.005000	9.448702	-2.393277	-0.470880	-0.107239	-0.384738	-0.754528	-0.092418	0.160421	0.322900
676	3.440155	0.005000	9.514081	-2.161437	-0.470880	-0.106556	-0.383714	-0.754782	-0.083227	0.171344	0.284992
677	3.445155	0.005000	9.496080	-2.002390	-0.537046	-0.105873	-0.382690	-0.755036	-0.058039	0.171892	0.272173
678	3.450155	0.005000	9.472678	-1.758236	-0.612002	-0.105191	-0.381666	-0.755290	-0.036716	0.180675	0.272749
679	3.455155	0.005000	9.456840	-1.547166	-0.648398	-0.104508	-0.380641	-0.755545	-0.004490	0.181292	0.261023
680	3.460155	0.005000	9.574560	-1.612652	-0.627840	-0.103825	-0.379617	-0.755799	0.020503	0.195616	0.250837
681	3.465155	0.005000	9.559236	-1.381992	-0.603924	-0.103142	-0.378593	-0.756053	0.047619	0.206653	0.221433
682	3.470155	0.005000	9.521040	-1.450080	-0.615360	-0.102460	-0.377569	-0.756307	0.073319	0.216799	0.220482
683	3.475155	0.005000	9.545652	-1.559268	-0.490848	-0.101777	-0.376545	-0.756561	0.112362	0.228738	0.189986
684	3.480155	0.005000	9.581821	-1.748343	-0.385139	-0.101958	-0.375920	-0.757112	0.148247	0.244635	0.171982
685	3.485155	0.005000	9.609383	-1.883520	-0.418389	-0.102754	-0.375579	-0.757874	0.182019	0.269481	0.166506
686	3.490155	0.005000	9.613800	-1.836414	-0.312347	-0.103550	-0.375237	-0.758636	0.241673	0.280402	0.145652
687	3.495155	0.005000	9.651769	-1.686049	-0.426557	-0.104346	-0.374896	-0.759398	0.303551	0.294862	0.129581
688	3.500155	0.005000	9.688619	-1.648080	-0.239101	-0.105143	-0.374555	-0.760160	0.361610	0.305710	0.099692
689	3.505155	0.005000	9.554834	-1.720055	-0.248449	-0.105939	-0.374214	-0.760922	0.418529	0.307263	0.062742
690	3.510155	0.005000	9.475537	-2.042326	-0.334463	-0.106735	-0.373873	-0.761684	0.456337	0.332285	0.028871
691	3.515155	0.005000	9.311604	-2.385986	-0.278749	-0.107531	-0.373532	-0.762446	0.479707	0.342022	-0.011993
692	3.520155	0.005000	9.235968	-2.678425	-0.470880	-0.108327	-0.373190	-0.763209	0.462826	0.349520	-0.032940
693	3.525155	0.005000	9.216472	-2.891532	-0.554288	-0.109123	-0.372849	-0.763971	0.412178	0.357947	-0.066312
694	3.530155	0.005000	9.280078	-3.080158	-0.530285	-0.109919	-0.372508	-0.764733	0.325246	0.358080	-0.078276
695	3.535155	0.005000	9.339120	-3.099960	-0.398451	-0.110715	-0.372167	-0.765495	0.209857	0.375271	-0.110390
696	3.540155	0.005000	9.260640	-2.848092	-0.143043	-0.111511	-0.371826	-0.766257	0.102133	0.385457	-0.116130
697	3.545155	0.005000	9.316369	-2.431730	0.117720	-0.112045	-0.371694	-0.767195	0.004805	0.407321	-0.137961
698	3.550155	0.005000	9.221400	-2.202553	0.143315	-0.112272	-0.371808	-0.768338	-0.069894	0.422180	-0.142026
699	3.555155	0.005000	9.176406	-1.866257	0.156960	-0.112500	-0.371922	-0.769481	-0.092701	0.423340	-0.142826
700	3.560155	0.005000	9.270533	-1.605542	0.196200	-0.112727	-0.372036	-0.770624	-0.096666	0.425823	-0.143496
701	3.565155	0.005000	9.496534	-1.450065	0.236348	-0.112955	-0.372149	-0.771767	-0.048045	0.425891	-0.137513
702	3.570155	0.005000	9.645912	-1.184328	0.350784	-0.113182	-0.372263	-0.772910	0.001299	0.410765	-0.119533
703	3.575155	0.005000	9.618621	-1.069122	0.500478	-0.113410	-0.372377	-0.774053	0.071284	0.389823	-0.111486
704	3.580155	0.005000	9.677062	-1.161982	0.691102	-0.113637	-0.372490	-0.775196	0.134293	0.366037	-0.095615
705	3.585155	0.005000	9.624253	-1.334160	0.667080	-0.113865	-0.372604	-0.776339	0.148078	0.356644	-0.086521
706	3.590155	0.005000	9.574560	-1.347457	0.705670	-0.114092	-0.372718	-0.777482	0.157437	0.342817	-0.067857
707	3.595155	0.005000	9.566785	-1.546153	0.698424	-0.114320	-0.372831	-0.778625	0.134280	0.351708	-0.065983
708	3.600155	0.005000	9.611591	-1.648080	0.607116	-0.114547	-0.372945	-0.779769	0.126496	0.331708	-0.051907
709	3.605155	0.005000	9.538799	-1.551720	0.470880	-0.114775	-0.373059	-0.780912	0.093499	0.339913	-0.050281
710	3.610155	0.005000	9.504895	-1.421455	0.588600	-0.114964	-0.373327	-0.781796	0.057497	0.338720	-0.040632
711	3.615155	0.005000	9.312526	-1.373400	0.379754	-0.115077	-0.373896	-0.782177	0.011042	0.336350	-0.035703
712	3.620155	0.005000	9.476445	-1.393005	0.284482	-0.115191	-0.374464	-0.782558	-0.016398	0.358093	-0.049058
713	3.625155	0.005000	9.560643	-1.366441	0.189241	-0.115305	-0.375033	-0.782939	-0.033189	0.364916	-0.047931
714	3.630155	0.005000	9.551977	-1.338324	0.070151	-0.115419	-0.375602	-0.783320	-0.034915	0.382181	-0.059034
715	3.635155	0.005000	9.728041	-1.259159	0.001740	-0.115532	-0.376170	-0.783701	-0.008723	0.390541	-0.075743
716	3.640155	0.005000	9.691176	-1.410431	0.039240	-0.115646	-0.376739	-0.784082	0.028147	0.392787	-0.066853
717	3.645155	0.005000	9.653040	-1.412640	0.121668	-0.115760	-0.377308	-0.784463	0.043514	0.396654	-0.069218
718	3.650155	0.005000	9.653040	-1.484782	0.012677	-0.115874	-0.377877	-0.784844	0.064796	0.386810	-0.070644
719	3.655155	0.005000	9.502751	-1.708196	-0.009182	-0.115988	-0.378445	-0.785225	0.041895	0.383567	-0.057962
720	3.660155	0.005000	9.484054	-1.817066	0.160122	-0.116101	-0.379014	-0.785606	0.048692	0.382642	-0.062598
721	3.665155	0.005000	9.496080	-1.873431	0.480969	-0.116215	-0.379583	-0.785987	0.036123	0.379145	-0.058089
722	3.670155	0.005000	9.430095	-2.010740	0.693825	-0.116329	-0.380151	-0.786369	0.054155	0.368943	-0.080874
723	3.675155	0.005000	9.358271	-2.100747	0.784800	-0.116443	-0.380646	-0.786914	0.083769	0.367864	-0.090751
724	3.680155	0.005000	9.394667	-2.190814	0.784800	-0.116556	-0.380874	-0.788057	0.078504	0.373881	-0.105190
725	3.685155	0.005000	9.484081	-2.195818	0.759181	-0.116670	-0.381101	-0.789200	0.061950	0.368530	-0.123925
726	3.690155	0.005000	9.496080	-2.118960	0.762654	-0.116784	-0.381328	-0.790342	0.006886	0.379453	-0.139557
727	3.695155	0.005000	9.487851	-2.110731	0.698091	-0.116897	-0.381556	-0.791485	-0.058145	0.376237	-0.160241
728	3.700155	0.005000	9.496080	-1.956615	0.711705	-0.117011	-0.381783	-0.792627	-0.138835	0.377512	-0.162139
729	3.705155	0.005000	9.616372	-1.831419	0.876141	-0.117124	-0.382010	-0.793770	-0.180678	0.369610	-0.162367
730	3.710155	0.005000	9.692446	-1.646915	1.216440	-0.117238	-0.382238	-0.794912	-0.198343	0.346247	-0.150301
731	3.715155	0.005000	9.621833	-1.300275	1.216440	-0.117352	-0.382465	-0.796055	-0.180917	0.334713	-0.152737
732	3.720155	0.005000	9.574560	-0.963846	1.328639	-0.117465	-0.382693	-0.797197	-0.076833	0.320293	-0.153225
733	3.725155	0.005000	9.582552	-0.792792	1.278936	-0.117579	-0.382920	-0.798340	0.040016	0.305926	-0.144949
734	3.730155	0.005000	9.546060	-0.802559	1.341179	-0.117693	-0.383147	-0.799482	0.155999	0.284561	-0.156223
735	3.735155	0.005000	9.613800	-1.006656	1.438296	-0.117806	-0.383375	-0.800625	0.216813	0.255681	-0.160175
736	3.740155	0.005000	9.574560	-1.157111	1.474692	-0.117950	-0.383602	-0.801700	0.224747	0.241787	-0.151783
737	3.745155	0.005000	9.594528	-1.256376	1.550328	-0.118405	-0.383830	-0.802082	0.215606	0.229190	-0.148440
738	3.750155	0.005000	9.731520	-1.312498	1.434302	-0.118860	-0.384057	-0.802463	0.178783	0.228296	-0.133861
739	3.755155	0.005000	9.623572	-1.334160	1.388134	-0.119316	-0.384285	-0.802844	0.131094	0.230828	-0.131294
740	3.760155	0.005000	9.704170	-1.243790	1.361510	-0.119771	-0.384512	-0.803225	0.103348	0.223476	-0.122914
741	3.765155	0.005000	9.634729	-1.207285	1.255680	-0.120226	-0.384740	-0.803606	0.073470	0.226492	-0.127704
742	3.770155	0.005000	9.502751	-1.196427	1.026124	-0.120681	-0.384967	-0.803988	0.078654	0.220620	-0.126797
743	3.775155	0.005000	9.613800	-1.165718	0.820213	-0.121137	-0.385195	-0.804369	0.099250	0.229928	-0.123677
744	3.780155	0.005000	9.654023	-1.097737	0.667080	-0.121592	-0.385423	-0.804750	0.133898	0.230846	-0.131823
745	3.785155	0.005000	9.692280	-1.059480	0.554942	-0.122047	-0.385650	-0.805131	0.145988	0.234489	-0.125449
746	3.790155	0.005000	9.692280	-1.133255	0.544655	-0.122502	-0.385878	-0.805512	0.138351	0.226565	-0.123764
747	3.795155	0.005000	9.770760	-1.241491	0.488836	-0.122958	-0.386105	-0.805894	0.130677	0.230648	-0.115546
748	3.800155	0.005000	9.770760	-1.314797	0.696381	-0.123413	-0.386333	-0.806275	0.101046	0.231674	-0.112588
749	3.805155	0.005000	9.678605	-1.282138	0.654298	-0.123868	-0.386560	-0.806656	0.077268	0.231168	-0.097840
750	3.810155	0.005000	9.637414	-1.090733	0.761534	-0.123550	-0.386567	-0.807284	0.073267	0.233314	-0.078531
751	3.815155	0.005000	9.577362	-0.996417	0.923541	-0.123208	-0.386567	-0.807919	0.082970	0.236134	-0.081799
752	3.820155	0.005000	9.574560	-1.153904	0.902520	-0.122867	-0.386567	-0.808554	0.100022	0.230139	-0.056244
753	3.825155	0.005000	9.559009	-1.302332	0.933622	-0.122526	-0.386567	-0.809189	0.134911	0.231212	-0.071067
754	3.830155	0.005000	9.626507	-1.401053	1.032947	-0.122185	-0.386567	-0.809824	0.158860	0.214717	-0.067367
755	3.835155	0.005000	9.681963	-1.373400	1.127643	-0.121843	-0.386567	-0.810459	0.159096	0.217747	-0.060076
756	3.840155	0.005000	9.645567	-1.278099	1.302393	-0.121502	-0.386567	-0.811094	0.144300	0.196117	-0.067993
757	3.845155	0.005000	9.648411	-1.334160	1.285662	-0.121161	-0.386567	-0.811729	0.098931	0.203600	-0.071410
758	3.850155	0.005000	9.538890	-1.255680	1.216440	-0.120820	-0.386567	-0.812364	0.038487	0.201519	-0.061971
759	3.855155	0.005000	9.690162	-1.293861	1.330983	-0.120478	-0.386567	-0.812999	-0.013094	0.192313	-0.047172
760	3.860155	0.005000	9.699148	-1.112456	1.255680	-0.120137	-0.386567	-0.813634	-0.042832	0.196766	-0.043568
761	3.865155	0.005000	9.620078	-0.987278	1.216440	-0.119796	-0.386567	-0.814269	-0.043631	0.192184	-0.039048
762	3.870155	0.005000	9.613800	-0.902520	1.306795	-0.119455	-0.386567	-0.814904	-0.016853	0.192701	-0.027611
763	3.875155	0.005000	9.598491	-0.863280	1.228406	-0.119500	-0.386857	-0.815323	0.011707	0.177341	-0.026005
764	3.880155	0.005000	9.545849	-0.956116	1.251853	-0.119613	-0.387198	-0.815704	0.042746	0.154816	-0.007597
765	3.885155	0.005000	9.635840	-1.081520	1.189559	-0.119727	-0.387539	-0.816085	0.062762	0.155996	-0.010581
766	3.890155	0.005000	9.612983	-1.195595	1.293286	-0.119841	-0.387880	-0.816467	0.072446	0.133925	0.005761
767	3.895155	0.005000	9.552141	-1.289323	1.367803	-0.119955	-0.388222	-0.816848	0.069951	0.129770	-0.007536
768	3.900155	0.005000	9.546605	-1.451880	1.449187	-0.120068	-0.388563	-0.817229	0.067985	0.121457	0.001981
769	3.905155	0.005000	9.574560	-1.412640	1.379239	-0.120182	-0.388904	-0.817610	0.044491	0.127199	0.005056
770	3.910155	0.005000	9.566170	-1.334160	1.264070	-0.120296	-0.389245	-0.817991	0.019374	0.130347	0.009002
771	3.915155	0.005000	9.547149	-1.289005	1.294920	-0.120410	-0.389587	-0.818372	-0.019466	0.129100	0.010793
772	3.920155	0.005000	9.616871	-1.053338	1.174129	-0.120524	-0.389928	-0.818753	-0.047829	0.130114	0.005145
773	3.925155	0.005000	9.574333	-1.020240	0.941760	-0.120637	-0.390269	-0.819134	-0.048518	0.127403	0.022413
774	3.930155	0.005000	9.609423	-1.057291	0.941760	-0.120751	-0.390610	-0.819515	-0.035396	0.128349	0.019036
775	3.935155	0.005000	9.648033	-1.020240	0.926739	-0.120865	-0.390952	-0.819896	0.006309	0.123005	0.010150
776	3.940155	0.005000	9.660891	-0.996702	0.871131	-0.120979	-0.390715	-0.820000	0.039729	0.120225	0.022224
777	3.945155	0.005000	9.545546	-1.117508	0.882068	-0.121092	-0.390260	-0.820000	0.067908	0.115375	0.011128
778	3.950155	0.005000	9.522250	-1.098720	0.928690	-0.121206	-0.389805	-0.820000	0.093830	0.112230	0.025645
779	3.955155	0.005000	9.535320	-1.224941	1.004326	-0.121320	-0.389350	-0.820000	0.096929	0.112616	0.016152
780	3.960155	0.005000	9.533116	-1.315642	1.080202	-0.121433	-0.388895	-0.820000	0.096752	0.114896	0.025815
781	3.965155	0.005000	9.514172	-1.276828	1.291864	-0.121547	-0.388440	-0.820000	0.095545	0.113929	0.027316
782	3.970155	0.005000	9.668288	-1.249175	1.334160	-0.121661	-0.387985	-0.820000	0.112678	0.110926	0.022457
783	3.975155	0.005000	9.588691	-1.203886	1.293343	-0.121774	-0.387530	-0.820000	0.127510	0.105535	0.027701
784	3.980155	0.005000	9.456840	-1.128808	1.471061	-0.121888	-0.387075	-0.820000	0.155917	0.102791	0.021754
785	3.985155	0.005000	9.560189	-1.230811	1.405455	-0.122002	-0.386620	-0.820000	0.164216	0.090556	0.028299
786	3.990155	0.005000	9.421992	-1.294920	1.260072	-0.122116	-0.386165	-0.820000	0.158793	0.097230	0.027560
787	3.995155	0.005000	9.533369	-1.212537	1.224246	-0.122229	-0.385710	-0.820000	0.138578	0.097145	0.033070
788	4.000155	0.005000	9.534427	-1.099613	1.450095	-0.122343	-0.385255	-0.820000	0.113214	0.089144	0.044081
789	4.005155	0.005000	9.535320	-1.027713	1.487384	-0.123075	-0.386242	-0.818773	0.089703	0.086120	0.036845
790	4.010155	0.005000	9.469211	-1.026425	1.334160	-0.124212	-0.388176	-0.816741	0.080268	0.088120	0.036462
791	4.015155	0.005000	9.447885	-1.020240	1.294920	-0.125349	-0.390110	-0.814709	0.107505	0.096975	0.050886
792	4.020155	0.005000	9.429399	-1.169243	1.283121	-0.126487	-0.392043	-0.812677	0.131241	0.085123	0.055191
793	4.025155	0.005000	9.517139	-1.166671	1.170497	-0.127624	-0.393977	-0.810644	0.162791	0.091676	0.057831
794	4.030155	0.005000	9.675247	-1.209754	0.936586	-0.128761	-0.395910	-0.808612	0.174420	0.082767	0.050520
795	4.035155	0.005000	9.692280	-1.255680	1.098720	-0.129899	-0.397844	-0.806580	0.189275	0.077500	0.048703
796	4.040155	0.005000	9.619972	-1.278386	1.193734	-0.131036	-0.399777	-0.804548	0.189345	0.079114	0.049025
797	4.045155	0.005000	9.547180	-1.334160	1.281230	-0.132174	-0.401711	-0.802516	0.175711	0.072421	0.049088
798	4.050155	0.005000	9.591200	-1.407300	1.261020	-0.133311	-0.403644	-0.800484	0.153088	0.086918	0.035937
799	4.055155	0.005000	9.453799	-1.491120	1.207984	-0.134448	-0.405578	-0.798452	0.154314	0.080226	0.041590
800	4.060155	0.005000	9.356160	-1.519000	1.294920	-0.135586	-0.407511	-0.796419	0.129981	0.094378	0.033642
801	4.065155	0.005000	9.427312	-1.455117	1.288446	-0.136723	-0.409445	-0.794387	0.118883	0.082584	0.034772
802	4.070155	0.005000	9.613013	-1.373007	1.255287	-0.137587	-0.410393	-0.793516	0.129163	0.084570	0.031233
803	4.075155	0.005000	9.461741	-1.370949	1.326808	-0.138155	-0.410279	-0.793897	0.136903	0.088458	0.024423
804	4.080155	0.005000	9.496080	-1.294920	1.362811	-0.138724	-0.410166	-0.794278	0.150183	0.081037	0.013104
805	4.085155	0.005000	9.425375	-1.247905	1.263455	-0.139293	-0.410052	-0.794659	0.156246	0.079435	0.020905
806	4.090155	0.005000	9.417600	-1.362871	1.226969	-0.139862	-0.409938	-0.795040	0.149318	0.087793	0.019729
807	4.095155	0.005000	9.521948	-1.425135	1.228935	-0.140430	-0.409824	-0.795421	0.157262	0.082233	0.016664
808	4.100155	0.005000	9.558344	-1.265089	1.468096	-0.140999	-0.409711	-0.795802	0.150576	0.081661	0.003424
809	4.105155	0.005000	9.553911	-1.251565	1.528303	-0.141568	-0.409597	-0.796184	0.174008	0.071082	0.006548
810	4.110155	0.005000	9.496080	-0.970456	1.569600	-0.142136	-0.409483	-0.796565	0.179597	0.071154	0.003670
811	4.115155	0.005000	9.466158	-0.990318	1.521042	-0.142705	-0.409369	-0.796946	0.202045	0.076373	0.009909
812	4.120155	0.005000	9.481074	-1.056591	1.530360	-0.143274	-0.409256	-0.797327	0.229679	0.073373	0.020112
813	4.125155	0.005000	9.583941	-1.098720	1.500501	-0.143843	-0.409142	-0.797708	0.252029	0.068391	0.026412
814	4.130155	0.005000	9.463344	-1.098720	1.602336	-0.144411	-0.409028	-0.798089	0.269169	0.058262	0.027420
815	4.135155	0.005000	9.492041	-1.114876	1.534399	-0.144776	-0.408588	-0.798652	0.271005	0.052763	0.025920
816	4.140155	0.005000	9.493690	-1.220025	1.610035	-0.144776	-0.407564	-0.799541	0.253827	0.049688	0.032804
817	4.145155	0.005000	9.530373	-1.334160	1.648080	-0.144776	-0.406541	-0.800430	0.218006	0.063287	0.042396
818	4.150155	0.005000	9.492056	-1.298944	1.530360	-0.144776	-0.405517	-0.801319	0.183852	0.056557	0.044878
819	4.155155	0.005000	9.600064	-1.385169	1.530360	-0.144776	-0.404493	-0.802208	0.177207	0.057090	0.043060
820	4.160155	0.005000	9.682568	-1.481408	1.412247	-0.144776	-0.403470	-0.803097	0.196112	0.057862	0.036822
821	4.165155	0.005000	9.810000	-1.557044	1.068889	-0.144776	-0.402446	-0.803986	0.230383	0.058137	0.029379
822	4.170155	0.005000	9.843118	-1.632959	0.742683	-0.144776	-0.401422	-0.804875	0.236601	0.058746	0.015558
823	4.175155	0.005000	9.831450	-1.648080	0.684870	-0.144776	-0.400399	-0.805764	0.224532	0.049288	0.025423
824	4.180155	0.005000	9.735574	-1.555048	0.745560	-0.144776	-0.399375	-0.806654	0.161002	0.053129	0.012208
825	4.185155	0.005000	9.558607	-1.366066	0.831374	-0.144776	-0.398351	-0.807543	0.090242	0.062819	0.015814
826	4.190155	0.005000	9.613800	-1.280610	0.902520	-0.144776	-0.397328	-0.808432	0.044385	0.073152	0.026079
827	4.195155	0.005000	9.474993	-1.106329	0.991544	-0.144776	-0.396304	-0.809321	0.016561	0.092343	0.032101
828	4.200155	0.005000	9.472240	-1.067180	0.950201	-0.144534	-0.395361	-0.810300	0.011027	0.103138	0.038028
829	4.205155	0.005000	9.608475	-1.104045	0.936435	-0.143510	-0.394678	-0.811571	0.029013	0.110056	0.046291
830	4.210155	0.005000	9.498561	-1.140441	0.988443	-0.142486	-0.393995	-0.812841	0.057126	0.108173	0.046446
831	4.215155	0.005000	9.574197	-1.293831	1.137597	-0.141462	-0.393313	-0.814112	0.081149	0.088715	0.036934
832	4.220155	0.005000	9.643419	-1.330953	1.321332	-0.140438	-0.392630	-0.815383	0.104796	0.085260	0.042177
833	4.225155	0.005000	9.540917	-1.339757	1.558406	-0.139414	-0.391947	-0.816653	0.108553	0.061154	0.040205
834	4.230155	0.005000	9.504521	-1.443439	1.718119	-0.138389	-0.391264	-0.817924	0.134083	0.056431	0.015795
835	4.235155	0.005000	9.271925	-1.294920	1.754515	-0.137365	-0.390582	-0.819195	0.179536	0.066237	0.020075
836	4.240155	0.005000	9.390280	-1.190860	1.842540	-0.136341	-0.389899	-0.820465	0.210536	0.064364	0.008807
837	4.245155	0.005000	9.434104	-1.160696	1.912489	-0.135317	-0.389216	-0.821736	0.219237	0.043284	0.005640
838	4.250155	0.005000	9.339120	-1.039588	1.865261	-0.134293	-0.388534	-0.823007	0.238643	0.032465	-0.003620
839	4.255155	0.005000	9.282832	-0.912807	1.927903	-0.133269	-0.387851	-0.824278	0.255340	0.027379	0.001295
840	4.260155	0.005000	9.210901	-0.623968	1.951501	-0.132245	-0.387168	-0.825548	0.316963	0.025671	-0.003993
841	4.265155	0.005000	9.370766	-0.655266	1.820651	-0.131316	-0.386526	-0.826667	0.379316	0.031989	-0.003038
842	4.270155	0.005000	9.426570	-0.733231	1.412640	-0.131088	-0.386185	-0.826667	0.462522	0.021221	-0.000322
843	4.275155	0.005000	9.502207	-0.908647	1.294920	-0.130861	-0.385844	-0.826667	0.540467	0.003751	0.020435
844	4.280155	0.005000	9.646395	-0.945082	1.327515	-0.130633	-0.385503	-0.826667	0.575924	-0.008613	0.017563
845	4.285155	0.005000	9.615615	-1.023871	1.258403	-0.130406	-0.385162	-0.826667	0.584056	-0.034336	0.033505
846	4.290155	0.005000	9.654976	-1.363719	1.336096	-0.130178	-0.384820	-0.826667	0.530956	-0.033611	0.032897
847	4.295155	0.005000	9.682720	-1.628959	1.260460	-0.129951	-0.384479	-0.826667	0.481394	-0.032840	0.039486
848	4.300155	0.005000	9.653040	-1.624088	1.255680	-0.129724	-0.384138	-0.826667	0.393309	-0.022800	0.039982
849	4.305155	0.005000	9.613800	-1.550388	1.373400	-0.129496	-0.383797	-0.826667	0.324786	-0.007635	0.046834
850	4.310155	0.005000	9.548178	-1.516836	1.359876	-0.129269	-0.383456	-0.826667	0.249301	0.002941	0.046694
851	4.315155	0.005000	9.543156	-1.404804	1.412640	-0.129041	-0.383115	-0.826667	0.206625	0.019242	0.040928
852	4.320155	0.005000	9.576708	-1.292772	1.272078	-0.128814	-0.382773	-0.826667	0.173098	0.030399	0.032980
853	4.325155	0.005000	9.613800	-1.292318	1.297522	-0.128586	-0.382432	-0.826667	0.143101	0.033117	0.051023
854	4.330155	0.005000	9.692280	-1.263970	1.192675	-0.128359	-0.382091	-0.826667	0.156889	0.034736	0.044823
855	4.335155	0.005000	9.653040	-1.177200	1.229071	-0.128018	-0.382657	-0.826160	0.165973	0.027122	0.056993
856	4.340155	0.005000	9.584801	-1.245439	1.098720	-0.127677	-0.383226	-0.825652	0.175778	0.022342	0.052960
857	4.345155	0.005000	9.638246	-1.115768	1.240886	-0.127336	-0.383794	-0.825144	0.197839	0.006960	0.066862
858	4.350155	0.005000	9.609247	-1.142513	1.260233	-0.126994	-0.384363	-0.824636	0.203755	-0.004671	0.057145
859	4.355155	0.005000	9.572830	-1.100450	1.376860	-0.126653	-0.384932	-0.824128	0.198041	-0.009391	0.065640
860	4.360155	0.005000	9.612469	-0.983662	1.490454	-0.126312	-0.385500	-0.823620	0.180065	-0.003858	0.072416
861	4.365155	0.005000	9.538830	-1.280882	1.487610	-0.125971	-0.386069	-0.823112	0.166783	-0.001977	0.066474
862	4.370155	0.005000	9.574560	-1.301273	1.530360	-0.125630	-0.386637	-0.822604	0.136125	0.004925	0.080463
863	4.375155	0.005000	9.544154	-1.251776	1.539194	-0.125288	-0.387206	-0.822096	0.127929	0.016913	0.078543
864	4.380155	0.005000	9.519225	-1.283348	1.608840	-0.124947	-0.387775	-0.821588	0.098742	0.014163	0.081080
865	4.385155	0.005000	9.520904	-1.241264	1.580008	-0.124606	-0.388343	-0.821080	0.084620	0.023709	0.090547
866	4.390155	0.005000	9.574560	-1.177200	1.412640	-0.124265	-0.388912	-0.820572	0.077104	0.023606	0.087841
867	4.395155	0.005000	9.554970	-1.177200	1.432290	-0.123924	-0.389481	-0.820064	0.064202	0.027141	0.096863
868	4.400155	0.005000	9.686532	-1.166203	1.507866	-0.123582	-0.388557	-0.820778	0.075677	0.030206	0.103149
869	4.405155	0.005000	9.613800	-1.087284	1.541796	-0.123241	-0.387419	-0.821667	0.071483	0.017859	0.114064
870	4.410155	0.005000	9.669226	-1.149487	1.401113	-0.122900	-0.386281	-0.822557	0.061357	0.029589	0.102171
871	4.415155	0.005000	9.644357	-1.155326	1.299428	-0.122558	-0.385143	-0.823446	0.072017	0.023219	0.114700
872	4.420155	0.005000	9.574560	-1.092881	1.249841	-0.122217	-0.384005	-0.824336	0.078890	0.024646	0.120466
873	4.425155	0.005000	9.456840	-1.044504	1.228421	-0.121875	-0.382867	-0.825225	0.091644	0.018516	0.120802
874	4.430155	0.005000	9.378360	-1.058270	1.178410	-0.121534	-0.381730	-0.826115	0.087875	0.020975	0.128582
875	4.435155	0.005000	9.378360	-1.203007	1.107675	-0.121193	-0.380592	-0.827004	0.092285	0.029389	0.129532
876	4.440155	0.005000	9.564395	-1.294920	1.098720	-0.120851	-0.379454	-0.827894	0.117955	0.037445	0.146867
877	4.445155	0.005000	9.621348	-1.199844	1.020240	-0.120510	-0.378316	-0.828783	0.126121	0.045506	0.159510
878	4.450155	0.005000	9.613800	-1.255680	1.009938	-0.120168	-0.377178	-0.829673	0.123819	0.049717	0.150670
879	4.455155	0.005000	9.613800	-1.229586	1.111669	-0.119827	-0.376040	-0.830562	0.089837	0.047319	0.146588
880	4.460155	0.005000	9.544048	-1.169939	1.232429	-0.119486	-0.374902	-0.831452	0.048923	0.046387	0.161108
881	4.465155	0.005000	9.514460	-1.237300	1.336641	-0.119748	-0.374110	-0.831378	0.030841	0.057582	0.160251
882	4.470155	0.005000	9.396377	-1.355383	1.412640	-0.120203	-0.373427	-0.830997	0.006468	0.062555	0.147975
883	4.475155	0.005000	9.456840	-1.467053	1.460775	-0.120658	-0.372745	-0.830616	0.010225	0.067395	0.144248
884	4.480155	0.005000	9.508409	-1.491120	1.437297	-0.121113	-0.372063	-0.830235	0.021199	0.060328	0.156366
885	4.485155	0.005000	9.505679	-1.549559	1.530360	-0.121568	-0.371380	-0.829854	0.033430	0.055400	0.150128
886	4.490155	0.005000	9.581670	-1.594620	1.530360	-0.122023	-0.370698	-0.829473	0.048080	0.053442	0.149047
887	4.495155	0.005000	9.578826	-1.486854	1.482588	-0.122477	-0.370015	-0.829092	0.039398	0.056635	0.148179
888	4.500155	0.005000	9.531054	-1.331316	1.489698	-0.122932	-0.369333	-0.828711	0.040712	0.043566	0.155007
889	4.505155	0.005000	9.341079	-1.332201	1.490141	-0.123387	-0.368650	-0.828330	0.024269	0.035714	0.149083
890	4.510155	0.005000	9.260640	-1.436692	1.644283	-0.123842	-0.367968	-0.827949	0.008704	0.038182	0.146654
891	4.515155	0.005000	9.385001	-1.275603	1.562959	-0.124297	-0.367286	-0.827568	0.017615	0.034358	0.151164
892	4.520155	0.005000	9.535320	-1.304405	1.519574	-0.124752	-0.366603	-0.827187	0.034252	0.053433	0.132287
893	4.525155	0.005000	9.454586	-1.414894	1.557271	-0.125207	-0.365921	-0.826806	0.047089	0.045678	0.143131
894	4.530155	0.005000	9.407798	-1.348879	1.471515	-0.125662	-0.365383	-0.826828	0.055065	0.049938	0.143250
895	4.535155	0.005000	9.335005	-1.355837	1.351723	-0.126117	-0.364928	-0.827083	0.055694	0.040594	0.158627
896	4.540155	0.005000	9.281047	-1.371827	1.469140	-0.126573	-0.364472	-0.827337	0.034912	0.035136	0.171451
897	4.545155	0.005000	9.372037	-1.491120	1.524037	-0.127028	-0.364017	-0.827591	0.023716	0.037868	0.161203
898	4.550155	0.005000	9.405589	-1.595226	1.608840	-0.127483	-0.363562	-0.827845	0.039550	0.035907	0.152635
899	4.555155	0.005000	9.496080	-1.698091	1.598069	-0.127938	-0.363107	-0.828099	0.048434	0.036345	0.140692
900	4.560155	0.005000	9.433453	-1.742413	1.616767	-0.128393	-0.362651	-0.828353	0.044821	0.039872	0.142435
901	4.565155	0.005000	9.461982	-1.828853	1.682178	-0.128848	-0.362196	-0.828607	0.050451	0.044203	0.130147
902	4.570155	0.005000	9.297187	-1.729253	1.493813	-0.129303	-0.361741	-0.828861	0.043495	0.045898	0.117290
903	4.575155	0.005000	9.182463	-1.687623	1.452183	-0.129759	-0.361286	-0.829115	0.037754	0.041776	0.117066
904	4.580155	0.005000	9.408614	-1.759810	1.457870	-0.130214	-0.360830	-0.829370	0.026333	0.048479	0.112893
905	4.585155	0.005000	9.529481	-1.726560	1.518682	-0.130669	-0.360375	-0.829624	0.038899	0.035420	0.103252
906	4.590155	0.005000	9.504393	-1.709933	1.406654	-0.131124	-0.359920	-0.829878	0.019631	0.047163	0.100019
907	4.595155	0.005000	9.450774	-1.613832	1.451880	-0.131107	-0.360114	-0.829472	0.025212	0.044932	0.100805
908	4.600155	0.005000	9.378360	-1.456811	1.389768	-0.130652	-0.360911	-0.828456	0.021507	0.050238	0.100805
909	4.605155	0.005000	9.456840	-1.513877	1.294920	-0.130196	-0.361708	-0.827439	0.018821	0.049786	0.092789
910	4.610155	0.005000	9.455872	-1.590672	1.332224	-0.129741	-0.362504	-0.826423	0.032642	0.048282	0.092005
911	4.615155	0.005000	9.530600	-1.539799	1.356140	-0.129286	-0.363301	-0.825406	0.052038	0.052040	0.091168
912	4.620155	0.005000	9.549911	-1.451880	1.495652	-0.128831	-0.364097	-0.824390	0.080855	0.041773	0.098504
913	4.625155	0.005000	9.484039	-1.424681	1.467037	-0.128376	-0.364894	-0.823373	0.090539	0.035186	0.086149
914	4.630155	0.005000	9.318275	-1.597192	1.361752	-0.127921	-0.365690	-0.822357	0.113961	0.031347	0.075569
915	4.635155	0.005000	9.411172	-1.667363	1.484692	-0.127466	-0.366487	-0.821340	0.097904	0.029217	0.067885
916	4.640155	0.005000	9.386287	-1.738450	1.416603	-0.127010	-0.367283	-0.820324	0.097888	0.037900	0.060192
917	4.645155	0.005000	9.493841	-1.727679	1.607721	-0.126555	-0.368080	-0.819307	0.083743	0.023096	0.060781
918	4.650155	0.005000	9.417600	-1.840831	1.569600	-0.126100	-0.368877	-0.818291	0.052707	0.025759	0.063325
919	4.655155	0.005000	9.299880	-1.913623	1.569600	-0.125645	-0.369673	-0.817274	0.040138	0.034772	0.057604
920	4.660155	0.005000	9.410657	-1.872054	1.479654	-0.125281	-0.370012	-0.817229	0.014000	0.052212	0.048816
921	4.665155	0.005000	9.417600	-1.922760	1.363522	-0.125054	-0.369670	-0.818627	-0.013129	0.051618	0.048178
922	4.670155	0.005000	9.496080	-1.791062	1.479835	-0.124826	-0.369329	-0.820024	-0.037857	0.053132	0.051098
923	4.675155	0.005000	9.425890	-1.750325	1.404350	-0.124599	-0.368988	-0.821421	-0.057417	0.060698	0.048475
924	4.680155	0.005000	9.357186	-1.681104	1.373400	-0.124372	-0.368647	-0.822818	-0.072185	0.060824	0.055837
925	4.685155	0.005000	9.454692	-1.588146	1.435482	-0.124144	-0.368306	-0.824215	-0.082010	0.072383	0.045572
926	4.690155	0.005000	9.456840	-1.593138	1.334160	-0.123917	-0.367965	-0.825612	-0.074659	0.063633	0.047733
927	4.695155	0.005000	9.443831	-1.608840	1.373614	-0.123689	-0.367623	-0.827009	-0.080305	0.072065	0.052525
928	4.700155	0.005000	9.506548	-1.619308	1.287084	-0.123462	-0.367282	-0.828406	-0.073997	0.073149	0.040367
929	4.705155	0.005000	9.606176	-1.679696	1.560856	-0.123234	-0.366941	-0.829803	-0.086023	0.068281	0.042772
930	4.710155	0.005000	9.452060	-1.540919	1.781139	-0.123007	-0.366600	-0.831200	-0.095228	0.063539	0.039258
931	4.715155	0.005000	9.292664	-1.250870	1.687320	-0.122779	-0.366259	-0.832597	-0.056966	0.051417	0.029737
932	4.720155	0.005000	9.220961	-1.216001	1.570916	-0.122552	-0.365918	-0.833994	0.027629	0.053989	0.026162
933	4.725155	0.005000	9.371795	-1.291637	1.373400	-0.122611	-0.365576	-0.834893	0.103597	0.048680	0.022474
934	4.730155	0.005000	9.411473	-1.418767	1.313300	-0.123408	-0.365235	-0.834512	0.159957	0.029361	0.021945
935	4.735155	0.005000	9.426117	-1.692494	1.224957	-0.124204	-0.364894	-0.834131	0.187494	0.021567	0.016245
936	4.740155	0.005000	9.428961	-1.860799	1.356881	-0.125001	-0.364552	-0.833750	0.187261	0.019068	0.020648
937	4.745155	0.005000	9.406163	-1.855717	1.516458	-0.125797	-0.364211	-0.833368	0.155682	0.035040	0.023051
938	4.750155	0.005000	9.378360	-1.697818	1.614921	-0.126594	-0.363869	-0.832987	0.107424	0.044153	0.025098
939	4.755155	0.005000	9.397783	-1.549783	1.667503	-0.127390	-0.363528	-0.832606	0.068988	0.058657	0.039566
940	4.760155	0.005000	9.456840	-1.339057	1.630909	-0.128187	-0.363187	-0.832225	0.083497	0.057174	0.019423
941	4.765155	0.005000	9.403017	-1.255680	1.544943	-0.128984	-0.362845	-0.831844	0.118045	0.054770	0.020042
942	4.770155	0.005000	9.354883	-1.298944	1.506883	-0.129780	-0.362504	-0.831462	0.176278	0.038852	0.026464
943	4.775155	0.005000	9.287324	-1.286025	1.412640	-0.130577	-0.362162	-0.831081	0.246707	0.030537	0.029023
944	4.780155	0.005000	9.417600	-1.406120	1.425680	-0.131373	-0.361821	-0.830700	0.297122	0.020803	0.027589
945	4.785155	0.005000	9.417600	-1.573276	1.448204	-0.132170	-0.361480	-0.830319	0.310501	0.012056	0.007550
946	4.790155	0.005000	9.417600	-1.649763	1.453563	-0.132743	-0.361138	-0.830042	0.293855	0.006001	0.021605
947	4.795155	0.005000	9.379918	-1.726560	1.454996	-0.132174	-0.360797	-0.830296	0.245466	0.026606	0.015335
948	4.800155	0.005000	9.413198	-1.656884	1.634874	-0.131606	-0.360456	-0.830550	0.206706	0.025721	0.022379
949	4.805155	0.005000	9.260640	-1.520104	1.694566	-0.131037	-0.360114	-0.830804	0.166597	0.036005	0.032735
950	4.810155	0.005000	9.152657	-1.147697	1.825096	-0.130468	-0.359773	-0.831058	0.173106	0.039869	0.019322
951	4.815155	0.005000	9.182160	-1.373400	1.751490	-0.129899	-0.359432	-0.831311	0.208041	0.054919	0.017033
952	4.820155	0.005000	9.371674	-1.475811	1.648080	-0.129331	-0.359091	-0.831565	0.279643	0.059818	0.020621
953	4.825155	0.005000	9.378360	-1.451880	1.548513	-0.128762	-0.358749	-0.831819	0.318600	0.049474	0.028595
954	4.830155	0.005000	9.396824	-1.451880	1.588064	-0.128193	-0.358408	-0.832073	0.365440	0.034287	0.019685
955	4.835155	0.005000	9.307383	-1.350028	1.640577	-0.127625	-0.358067	-0.832327	0.377068	0.013820	0.018865
956	4.840155	0.005000	9.156111	-1.229631	1.687320	-0.127056	-0.357726	-0.832581	0.384324	0.000989	0.018954
957	4.845155	0.005000	9.192341	-1.187381	1.728042	-0.126487	-0.357384	-0.832835	0.375537	-0.005228	0.021816
958	4.850155	0.005000	9.252849	-1.232021	1.914969	-0.125918	-0.357043	-0.833089	0.385977	-0.004645	0.021426
959	4.855155	0.005000	9.339120	-1.289973	1.907920	-0.125373	-0.356711	-0.833343	0.380347	0.017105	0.017159
960	4.860155	0.005000	9.308291	-1.332057	1.726560	-0.125373	-0.356598	-0.833597	0.395615	0.020464	0.026290
961	4.865155	0.005000	9.534769	-1.372849	1.609667	-0.125373	-0.356484	-0.833852	0.369361	0.031812	0.030244
962	4.870155	0.005000	9.529088	-1.472423	1.388981	-0.125373	-0.356370	-0.834106	0.373633	0.052696	0.031662
963	4.875155	0.005000	9.547240	-1.563640	1.379360	-0.125373	-0.356257	-0.834360	0.364110	0.042083	0.043305
964	4.880155	0.005000	9.387164	-1.617644	1.395032	-0.125373	-0.356143	-0.834614	0.352947	0.045244	0.051832
965	4.885155	0.005000	9.322530	-1.569600	1.401315	-0.125373	-0.356029	-0.834868	0.336642	0.043315	0.050401
966	4.890155	0.005000	9.260640	-1.577890	1.311832	-0.125373	-0.355915	-0.835122	0.318773	0.046964	0.040963
967	4.895155	0.005000	9.277522	-1.591958	1.300396	-0.125373	-0.355802	-0.835376	0.335636	0.035796	0.036128
968	4.900155	0.005000	9.280366	-1.431731	1.529936	-0.125373	-0.355688	-0.835630	0.355045	0.040294	0.014240
969	4.905155	0.005000	9.255678	-1.699497	1.434741	-0.125373	-0.355574	-0.835884	0.392921	0.040095	-0.010128
970	4.910155	0.005000	9.299880	-1.769446	1.505415	-0.125373	-0.355461	-0.836138	0.412842	0.025455	-0.012322
971	4.915155	0.005000	9.260640	-1.827943	1.576165	-0.125373	-0.355347	-0.836392	0.410506	0.030022	-0.015051
972	4.920155	0.005000	9.330059	-1.971061	1.795979	-0.125373	-0.355233	-0.836646	0.405408	0.024928	0.004596
973	4.925155	0.005000	9.417600	-2.019892	1.784452	-0.125373	-0.355537	-0.836784	0.359401	0.009236	0.002155
974	4.930155	0.005000	9.339120	-2.115587	1.876773	-0.125373	-0.355878	-0.836911	0.323379	0.019273	0.002440
975	4.935155	0.005000	9.533732	-2.001769	1.647021	-0.125373	-0.356220	-0.837038	0.291782	0.033768	-0.000641
976	4.940155	0.005000	9.417600	-2.188182	1.458823	-0.125373	-0.356561	-0.837164	0.242609	0.053972	-0.012449
977	4.945155	0.005000	9.496080	-1.936828	1.373400	-0.125373	-0.356902	-0.837291	0.206764	0.066537	-0.006575
978	4.950155	0.005000	9.598733	-1.844280	1.444347	-0.125373	-0.357243	-0.837418	0.152607	0.081185	-0.022412
979	4.955155	0.005000	9.584937	-2.137445	1.551115	-0.125373	-0.357584	-0.837545	0.099964	0.078825	-0.045474
980	4.960155	0.005000	9.627206	-2.354890	1.517443	-0.125373	-0.357925	-0.837672	0.048727	0.091537	-0.042288
981	4.965155	0.005000	9.653040	-2.149759	1.483103	-0.125373	-0.358267	-0.837799	0.021221	0.109843	-0.049190
982	4.970155	0.005000	9.611470	-1.897316	1.472665	-0.125373	-0.358608	-0.837926	0.006934	0.127819	-0.064381
983	4.975155	0.005000	9.670988	-1.880176	1.566256	-0.125373	-0.358949	-0.838053	-0.029733	0.126132	-0.081962
984	4.980155	0.005000	9.661148	-1.844280	1.781366	-0.125373	-0.359290	-0.838180	-0.038269	0.098043	-0.092416
985	4.985155	0.005000	9.653040	-1.857002	1.896242	-0.125373	-0.359631	-0.838307	-0.046679	0.103761	-0.093462
986	4.990155	0.005000	9.682402	-1.932638	1.824252	-0.125192	-0.360063	-0.838131	-0.071941	0.110130	-0.100266
987	4.995155	0.005000	9.574560	-2.016246	1.726560	-0.124964	-0.360519	-0.837877	-0.076228	0.108282	-0.105406
988	5.000155	0.005000	9.565242	-2.206758	1.613499	-0.124737	-0.360974	-0.837623	-0.095866	0.112156	-0.122349
989	5.005155	0.005000	9.576375	-2.086981	1.646265	-0.124509	-0.361429	-0.837368	-0.122757	0.103731	-0.113698
990	5.010155	0.005000	9.652011	-2.160257	1.685263	-0.124282	-0.361884	-0.837114	-0.171390	0.109777	-0.148765
991	5.015155	0.005000	9.545696	-2.311701	1.794664	-0.124054	-0.362339	-0.836860	-0.233116	0.114908	-0.145089
992	5.020155	0.005000	9.634252	-2.426617	1.706108	-0.123826	-0.362795	-0.836606	-0.333928	0.142502	-0.158120
993	5.025155	0.005000	9.653040	-2.532387	1.726560	-0.123599	-0.363250	-0.836352	-0.450402	0.172268	-0.173774
994	5.030155	0.005000	9.641089	-2.507972	1.660031	-0.123371	-0.363705	-0.836098	-0.576469	0.203988	-0.172417
995	5.035155	0.005000	9.520995	-2.343811	1.516035	-0.123144	-0.364160	-0.835844	-0.705342	0.244550	-0.195830
996	5.040155	0.005000	9.491179	-2.248948	1.643179	-0.122916	-0.364616	-0.835590	-0.867422	0.253408	-0.189490
997	5.045155	0.005000	9.455267	-2.179000	1.492693	-0.122689	-0.365071	-0.835336	-0.970897	0.285894	-0.205747
998	5.050155	0.005000	9.574560	-2.046954	1.455314	-0.122461	-0.365526	-0.835081	-1.039742	0.285492	-0.225808
999	5.055155	0.005000	9.557829	-1.989985	1.513629	-0.122697	-0.366367	-0.835604	-1.079524	0.265285	-0.235491
1000	5.060155	0.005000	9.490286	-2.051629	1.463029	-0.123152	-0.367391	-0.836493	-1.036654	0.236041	-0.252708
1001	5.065155	0.005000	9.527015	-2.046501	1.538665	-0.123607	-0.368415	-0.837382	-0.986215	0.203859	-0.254944
1002	5.070155	0.005000	9.507134	-1.782932	1.580654	-0.124062	-0.369438	-0.838271	-0.891223	0.172881	-0.260776
1003	5.075155	0.005000	9.532234	-1.599582	1.729646	-0.124517	-0.370462	-0.839160	-0.807500	0.133676	-0.251738
1004	5.080155	0.005000	9.417358	-1.373884	1.765800	-0.124972	-0.371485	-0.840049	-0.711636	0.106688	-0.255953
1005	5.085155	0.005000	9.451636	-1.305328	1.802438	-0.125427	-0.372509	-0.840938	-0.632003	0.076970	-0.250592
1006	5.090155	0.005000	9.417600	-1.221432	1.810032	-0.125882	-0.373532	-0.841828	-0.558869	0.062017	-0.253798
1007	5.095155	0.005000	9.378360	-1.153632	1.914924	-0.126337	-0.374556	-0.842717	-0.529677	0.072226	-0.287372
1008	5.100155	0.005000	9.456840	-1.137960	2.008441	-0.126792	-0.375580	-0.843606	-0.501014	0.063725	-0.278628
1009	5.105155	0.005000	9.352175	-1.033295	2.001240	-0.127246	-0.376603	-0.844495	-0.467988	0.077251	-0.288309
1010	5.110155	0.005000	9.299880	-0.981000	1.899419	-0.127701	-0.377627	-0.845384	-0.449497	0.058821	-0.288613
1011	5.115155	0.005000	9.257130	-0.861525	1.941503	-0.128156	-0.378650	-0.846273	-0.419403	0.056112	-0.264287
1012	5.120155	0.005000	9.263665	-0.866305	1.943893	-0.128358	-0.379548	-0.846525	-0.379358	0.056623	-0.260385
1013	5.125155	0.005000	9.284617	-0.730297	1.907497	-0.128358	-0.380344	-0.846271	-0.334322	0.046427	-0.246792
1014	5.130155	0.005000	9.208965	-0.627840	1.844280	-0.128358	-0.381141	-0.846017	-0.280270	0.046507	-0.259013
1015	5.135155	0.005000	9.260640	-0.638308	1.902701	-0.128358	-0.381937	-0.845763	-0.214196	0.029359	-0.254043
1016	5.140155	0.005000	9.267841	-0.674281	1.969201	-0.128358	-0.382734	-0.845509	-0.168841	0.030817	-0.251638
1017	5.145155	0.005000	9.256283	-0.749917	1.844280	-0.128358	-0.383530	-0.845255	-0.153947	0.022458	-0.244481
1018	5.150155	0.005000	9.222913	-0.827065	2.115935	-0.128358	-0.384327	-0.845000	-0.131376	0.026404	-0.229211
1019	5.155155	0.005000	9.222731	-0.864611	2.116298	-0.128358	-0.385123	-0.844746	-0.134236	0.032326	-0.225419
1020	5.160155	0.005000	9.182160	-0.898814	1.976825	-0.128358	-0.385920	-0.844492	-0.118924	0.034858	-0.220783
1021	5.165155	0.005000	9.201810	-0.856730	1.850830	-0.128358	-0.386717	-0.844238	-0.104742	0.055817	-0.198247
1022	5.170155	0.005000	9.389418	-0.842828	1.823828	-0.128358	-0.387513	-0.843984	-0.073536	0.044410	-0.193339
1023	5.175155	0.005000	9.407888	-0.824040	1.817278	-0.128358	-0.388310	-0.843729	-0.059307	0.029090	-0.186865
1024	5.180155	0.005000	9.447198	-0.789958	1.859079	-0.128358	-0.389106	-0.843475	-0.048263	0.041947	-0.191776
1025	5.185155	0.005000	9.256344	-0.767328	1.848576	-0.128358	-0.389602	-0.843333	-0.051889	0.020397	-0.162229
1026	5.190155	0.005000	9.321588	-0.860497	1.902444	-0.128358	-0.389716	-0.843333	-0.076824	0.021804	-0.156185
1027	5.195155	0.005000	9.339120	-0.988080	1.860360	-0.128358	-0.389830	-0.843333	-0.065451	0.024667	-0.143212
1028	5.200155	0.005000	9.325884	-0.981000	1.975236	-0.128358	-0.389943	-0.843333	-0.052954	0.022443	-0.144665
1029	5.205155	0.005000	9.417600	-0.930899	2.029619	-0.128358	-0.390057	-0.843333	-0.018319	0.021876	-0.149258
1030	5.210155	0.005000	9.488063	-0.863280	1.993223	-0.128358	-0.390171	-0.843333	0.010881	0.021332	-0.136095
1031	5.215155	0.005000	9.422774	-0.902520	1.810214	-0.128358	-0.390285	-0.843333	0.029561	0.024581	-0.133973
1032	5.220155	0.005000	9.461499	-0.944090	1.724230	-0.128358	-0.390399	-0.843333	0.020523	0.022158	-0.137537
1033	5.225155	0.005000	9.496141	-0.981000	1.844035	-0.128358	-0.390512	-0.843333	0.003355	0.012955	-0.126800
1034	5.230155	0.005000	9.381264	-0.941760	1.841376	-0.128358	-0.390626	-0.843333	-0.058095	0.003530	-0.117421
1035	5.235155	0.005000	9.557315	-0.930263	1.895017	-0.128358	-0.390740	-0.843333	-0.092121	0.009386	-0.104264
1036	5.240155	0.005000	9.613800	-0.981000	1.743745	-0.128358	-0.390854	-0.843333	-0.115423	0.017012	-0.103053
1037	5.245155	0.005000	9.546287	-0.817702	1.574229	-0.128358	-0.390967	-0.843333	-0.114650	0.020133	-0.075567
1038	5.250155	0.005000	9.470651	-0.796418	1.541978	-0.128250	-0.391370	-0.843494	-0.111699	0.030538	-0.072157
1039	5.255155	0.005000	9.535320	-0.745560	1.569600	-0.127908	-0.392394	-0.844003	-0.091764	0.014421	-0.059560
1040	5.260155	0.005000	9.516756	-0.844012	1.608136	-0.127567	-0.393418	-0.844511	-0.062332	0.013678	-0.055350
1041	5.265155	0.005000	9.535320	-0.924409	1.586951	-0.127226	-0.394441	-0.845019	-0.058497	0.004874	-0.056550
1042	5.270155	0.005000	9.595012	-0.999788	1.776026	-0.126885	-0.395465	-0.845527	-0.056682	0.007283	-0.051208
1043	5.275155	0.005000	9.625463	-1.036154	1.652331	-0.126544	-0.396489	-0.846035	-0.044128	0.012795	-0.041016
1044	5.280155	0.005000	9.535320	-1.038816	1.657368	-0.126203	-0.397512	-0.846543	-0.061392	0.003165	-0.037023
1045	5.285155	0.005000	9.483192	-1.065924	1.641636	-0.125861	-0.398536	-0.847051	-0.053843	0.016532	-0.033579
1046	5.290155	0.005000	9.339120	-1.169999	1.773001	-0.125520	-0.399560	-0.847559	-0.071897	0.020716	-0.033682
1047	5.295155	0.005000	9.378360	-1.097189	1.801212	-0.125179	-0.400583	-0.848067	-0.088744	0.014448	-0.022635
1048	5.300155	0.005000	9.415981	-0.982619	1.759326	-0.124838	-0.401607	-0.848575	-0.138524	0.018051	-0.015544
1049	5.305155	0.005000	9.391748	-0.872205	1.800577	-0.124497	-0.402631	-0.849083	-0.141123	0.009664	0.008995
1050	5.310155	0.005000	9.424906	-0.792106	1.940081	-0.124156	-0.403654	-0.849591	-0.147115	0.016671	0.011282
1051	5.315155	0.005000	9.437220	-0.882900	1.873710	-0.123970	-0.404367	-0.849901	-0.133354	0.002981	0.030254
1052	5.320155	0.005000	9.324961	-0.784800	1.870980	-0.124425	-0.403798	-0.849393	-0.118383	0.015151	0.044597
1053	5.325155	0.005000	9.339120	-0.800364	1.899084	-0.124880	-0.403229	-0.848885	-0.088797	0.003165	0.039375
1054	5.330155	0.005000	9.498863	-0.863280	1.865292	-0.125335	-0.402661	-0.848377	-0.075442	0.005325	0.038339
1055	5.335155	0.005000	9.417600	-0.918443	1.881055	-0.125790	-0.402092	-0.847869	-0.055879	0.001946	0.039677
1056	5.340155	0.005000	9.362567	-1.004931	1.930414	-0.126245	-0.401523	-0.847360	-0.043268	-0.002129	0.055400
1057	5.345155	0.005000	9.286144	-1.072036	1.883127	-0.126700	-0.400955	-0.846852	-0.039342	-0.002170	0.071747
1058	5.350155	0.005000	9.329015	-1.039270	1.893625	-0.127154	-0.400386	-0.846344	-0.045999	-0.000837	0.068576
1059	5.355155	0.005000	9.409885	-0.894805	1.962000	-0.127609	-0.399817	-0.845836	-0.035627	-0.012609	0.084162
1060	5.360155	0.005000	9.339120	-0.985871	2.040480	-0.128064	-0.399248	-0.845328	-0.019832	-0.010963	0.081267
1061	5.365155	0.005000	9.305961	-1.063534	2.079720	-0.128519	-0.398680	-0.844820	-0.016188	-0.019331	0.099359
1062	5.370155	0.005000	9.379177	-1.099537	2.002874	-0.128974	-0.398111	-0.844312	-0.016477	-0.016337	0.102863
1063	5.375155	0.005000	9.528859	-1.101950	1.929221	-0.129429	-0.397542	-0.843804	-0.017645	-0.027700	0.101165
1064	5.380155	0.005000	9.529284	-1.367364	1.783907	-0.129892	-0.397098	-0.843185	-0.044042	-0.023935	0.097023
1065	5.385155	0.005000	9.565680	-1.203839	1.617720	-0.130461	-0.398235	-0.841153	-0.045036	-0.033238	0.095427
1066	5.390155	0.005000	9.306247	-1.137960	1.782237	-0.131030	-0.399373	-0.839121	-0.076075	-0.034982	0.105640
1067	5.395155	0.005000	9.325006	-1.084606	1.833267	-0.131598	-0.400510	-0.837089	-0.110313	-0.026587	0.109580
1068	5.400155	0.005000	9.322162	-1.115678	1.844280	-0.132167	-0.401647	-0.835057	-0.134903	-0.033876	0.123960
1069	5.405155	0.005000	9.358922	-1.000802	1.687683	-0.132736	-0.402785	-0.833025	-0.148088	-0.028374	0.130563
1070	5.410155	0.005000	9.412487	-0.924696	1.518409	-0.133304	-0.403922	-0.830993	-0.146703	-0.023338	0.142929
1071	5.415155	0.005000	9.549540	-0.834841	1.462681	-0.133873	-0.405059	-0.828961	-0.114124	-0.023613	0.155349
1072	5.420155	0.005000	9.574560	-0.722809	1.518984	-0.134441	-0.406197	-0.826929	-0.088304	-0.023254	0.166994
1073	5.425155	0.005000	9.482435	-0.801864	1.438235	-0.135010	-0.407334	-0.824896	-0.043158	-0.045721	0.171042
1074	5.430155	0.005000	9.547603	-0.981000	1.720418	-0.135579	-0.408471	-0.822864	-0.016534	-0.039135	0.167357
1075	5.435155	0.005000	9.649742	-1.134662	1.759205	-0.136147	-0.409609	-0.820832	0.004630	-0.041820	0.179866
1076	5.440155	0.005000	9.535774	-1.215986	1.607479	-0.136716	-0.410746	-0.818800	0.015171	-0.040020	0.200419
1077	5.445155	0.005000	9.611424	-1.287792	1.454256	-0.137285	-0.411883	-0.816768	0.023213	-0.038756	0.193653
1078	5.450155	0.005000	9.574560	-1.177200	1.491120	-0.137746	-0.411399	-0.816908	-0.005338	-0.041795	0.199460
1079	5.455155	0.005000	9.621409	-1.350573	1.664493	-0.138201	-0.410831	-0.817163	-0.019832	-0.063527	0.203074
1080	5.460155	0.005000	9.506533	-1.402187	1.880948	-0.138656	-0.410262	-0.817417	-0.062602	-0.064497	0.205167
1081	5.465155	0.005000	9.417600	-1.491120	1.935743	-0.139111	-0.409693	-0.817671	-0.094519	-0.069944	0.204468
1082	5.470155	0.005000	9.339120	-1.506792	1.836384	-0.139566	-0.409124	-0.817925	-0.109496	-0.060286	0.214931
1083	5.475155	0.005000	9.419809	-1.391916	1.865004	-0.140022	-0.408555	-0.818179	-0.078977	-0.051975	0.216523
1084	5.480155	0.005000	9.456840	-1.216440	2.015641	-0.140477	-0.407986	-0.818433	-0.034272	-0.059023	0.208604
1085	5.485155	0.005000	9.378360	-1.310410	2.095210	-0.140932	-0.407417	-0.818687	0.044908	-0.068708	0.204051
1086	5.490155	0.005000	9.312526	-1.335461	1.924061	-0.141387	-0.406848	-0.818941	0.109470	-0.065706	0.198426
