# FOX Logger (IMU file)
# (c) INRIA 2011-2014
# File created from file sensbiotk output
#
# File format:
# id	t	dt	ax	ay	az	mx	my	mz	gx	gy	gz
#
# Units:
#	Time: s
#\Acceleration: m.s^-2
#\Magneto: gauss
#\Gyrometer: rad/s
#
1	0.014587	0.014587	0.332390	0.196200	-9.417600	-0.235821	0.271642	0.423333	0.084884	0.005259	-0.015086
2	0.019587	0.005000	0.331634	0.217726	-9.439126	-0.235821	0.272085	0.423333	0.076009	-0.002654	-0.001254
3	0.024587	0.005000	0.289293	0.156960	-9.530721	-0.235821	0.272528	0.423333	0.071830	0.003946	-0.001189
4	0.029587	0.005000	0.286449	0.133422	-9.480378	-0.235821	0.272972	0.423333	0.069135	0.000454	0.011763
5	0.034587	0.005000	0.274680	0.086951	-9.509906	-0.235821	0.273415	0.423333	0.047128	0.014162	0.001812
6	0.039587	0.005000	0.269119	0.168082	-9.428722	-0.235821	0.273858	0.423333	0.051264	0.007161	0.015739
7	0.044587	0.005000	0.198514	0.156960	-9.459154	-0.235821	0.274301	0.423333	0.035806	0.017515	0.019892
8	0.049587	0.005000	0.235440	0.079539	-9.418659	-0.235821	0.274744	0.423333	0.033009	0.022126	0.026171
9	0.054587	0.005000	0.239267	0.078480	-9.499907	-0.235821	0.275187	0.423333	0.019580	0.021882	0.021553
10	0.059587	0.005000	0.235440	0.156960	-9.424271	-0.235821	0.275631	0.423333	0.009491	0.021473	0.022908
11	0.064587	0.005000	0.196200	0.117720	-9.456840	-0.235821	0.276074	0.423333	-0.001623	0.013734	0.018582
12	0.069587	0.005000	0.222612	0.117720	-9.456840	-0.235821	0.276517	0.423333	-0.012481	0.018799	0.018372
13	0.074587	0.005000	0.196200	0.156960	-9.463829	-0.235821	0.276960	0.423333	-0.016945	0.006241	0.021173
14	0.079587	0.005000	0.236741	0.116419	-9.574560	-0.235821	0.277403	0.423333	-0.006413	0.013239	0.019748
15	0.084587	0.005000	0.274680	0.173918	-9.462165	-0.235880	0.277495	0.423268	-0.004477	0.007282	0.007834
16	0.089587	0.005000	0.339046	0.210314	-9.350133	-0.235990	0.277273	0.423144	0.013892	-0.001189	0.026104
17	0.094587	0.005000	0.303104	0.246256	-9.389176	-0.236101	0.277051	0.423020	0.019189	0.009723	0.010711
18	0.099587	0.005000	0.235440	0.290004	-9.456840	-0.236212	0.276830	0.422896	0.029150	-0.010530	0.010948
19	0.104587	0.005000	0.225305	0.191132	-9.412532	-0.236323	0.276608	0.422773	0.031809	0.000727	0.007916
20	0.109587	0.005000	0.199831	0.158775	-9.381991	-0.236433	0.276387	0.422649	0.049845	-0.007123	0.009685
21	0.114587	0.005000	0.236906	0.196200	-9.456840	-0.236544	0.276165	0.422525	0.055395	-0.012987	0.000834
22	0.119587	0.005000	0.196200	0.122046	-9.565907	-0.236655	0.275944	0.422402	0.059196	-0.005895	0.004083
23	0.124587	0.005000	0.203370	0.228270	-9.488910	-0.236766	0.275722	0.422278	0.065348	-0.007226	0.005542
24	0.129587	0.005000	0.264321	0.128079	-9.485721	-0.236876	0.275500	0.422154	0.059994	-0.005006	0.001289
25	0.134587	0.005000	0.183614	0.065894	-9.509407	-0.236987	0.275279	0.422031	0.058910	-0.007147	0.005070
26	0.139587	0.005000	0.274680	0.101285	-9.456840	-0.237098	0.275057	0.421907	0.061881	-0.015397	0.005140
27	0.144587	0.005000	0.196200	0.157263	-9.515549	-0.237209	0.274836	0.421783	0.054210	-0.013000	0.001981
28	0.149587	0.005000	0.235440	0.162745	-9.541105	-0.237306	0.274614	0.421660	0.053628	-0.018262	0.005337
29	0.154587	0.005000	0.221826	0.170574	-9.535320	-0.237196	0.274392	0.421536	0.038963	-0.006816	-0.002398
30	0.159587	0.005000	0.235440	0.156960	-9.514025	-0.237085	0.274171	0.421412	0.046348	-0.010169	0.003007
31	0.164587	0.005000	0.156960	0.061659	-9.481134	-0.236974	0.273949	0.421288	0.041922	-0.001378	0.015421
32	0.169587	0.005000	0.161534	0.078480	-9.491506	-0.236863	0.273728	0.421165	0.048201	-0.006538	0.015709
33	0.174587	0.005000	0.197516	0.078480	-9.494764	-0.236753	0.273506	0.421041	0.044957	-0.005771	0.024408
34	0.179587	0.005000	0.123597	0.153042	-9.456840	-0.236642	0.273284	0.420917	0.034589	-0.005487	0.010883
35	0.184587	0.005000	0.225789	0.147309	-9.427251	-0.236531	0.273063	0.420793	0.047087	-0.004611	0.005686
36	0.189587	0.005000	0.204242	0.204242	-9.527278	-0.236420	0.272841	0.420670	0.049181	-0.003056	0.003531
37	0.194587	0.005000	0.235440	0.128691	-9.585531	-0.236310	0.272620	0.420546	0.056646	-0.005848	0.007821
38	0.199587	0.005000	0.299640	0.103440	-9.485400	-0.236199	0.272398	0.420422	0.059698	-0.004506	0.008469
39	0.204587	0.005000	0.257295	0.178815	-9.456840	-0.236088	0.272176	0.420298	0.060210	-0.009527	0.004418
40	0.209587	0.005000	0.295117	0.177397	-9.478911	-0.235977	0.271955	0.420175	0.067924	-0.025110	0.003012
41	0.214587	0.005000	0.306251	0.211986	-9.456840	-0.235867	0.271733	0.420051	0.051967	-0.024056	-0.001593
42	0.219587	0.005000	0.340499	0.169621	-9.430261	-0.235886	0.271968	0.420000	0.072570	-0.028335	0.006195
43	0.224587	0.005000	0.226088	0.186848	-9.535320	-0.235997	0.272522	0.420000	0.056645	-0.025840	0.003543
44	0.229587	0.005000	0.287720	0.085000	-9.502600	-0.236108	0.273076	0.420000	0.053491	-0.029901	-0.000180
45	0.234587	0.005000	0.381502	0.089378	-9.528055	-0.236218	0.273630	0.420000	0.042142	-0.037816	0.002699
46	0.239587	0.005000	0.313194	0.156234	-9.495717	-0.236329	0.274184	0.420000	0.041376	-0.029660	0.004776
47	0.244587	0.005000	0.198681	0.115239	-9.456840	-0.236440	0.274738	0.420000	0.045548	-0.029947	0.009998
48	0.249587	0.005000	0.224790	0.078480	-9.485430	-0.236551	0.275292	0.420000	0.028287	-0.025887	-0.001624
49	0.254587	0.005000	0.156960	0.039240	-9.605177	-0.236662	0.275846	0.420000	0.033246	-0.027461	-0.004952
50	0.259587	0.005000	0.223974	0.094787	-9.574560	-0.236772	0.276400	0.420000	0.015363	-0.027274	0.005750
51	0.264587	0.005000	0.323601	0.078480	-9.525639	-0.236883	0.276954	0.420000	0.015884	-0.011931	-0.001034
52	0.269587	0.005000	0.235440	0.000000	-9.535320	-0.236994	0.277508	0.420000	0.023336	-0.012041	0.010985
53	0.274587	0.005000	0.232838	0.018319	-9.535320	-0.237105	0.278061	0.420000	0.011732	-0.005435	0.003655
54	0.279587	0.005000	0.321105	0.117720	-9.511555	-0.237215	0.278615	0.420000	0.031244	-0.013320	0.010220
55	0.284587	0.005000	0.301758	0.051402	-9.523158	-0.237326	0.279039	0.419985	0.013458	-0.014517	0.016583
56	0.289587	0.005000	0.196200	0.117720	-9.456840	-0.237437	0.278484	0.419862	0.021709	-0.011693	0.020336
57	0.294587	0.005000	0.247481	0.084501	-9.568539	-0.237548	0.277930	0.419738	0.023491	-0.018163	0.010731
58	0.299587	0.005000	0.153821	0.196200	-9.489802	-0.237659	0.277376	0.419614	0.030982	-0.014661	0.001634
59	0.304587	0.005000	0.117720	0.117992	-9.456704	-0.237770	0.276822	0.419490	0.044134	-0.021765	0.006258
60	0.309587	0.005000	0.232460	0.229480	-9.420580	-0.237881	0.276268	0.419366	0.037667	-0.023239	0.004941
61	0.314587	0.005000	0.229162	0.091036	-9.489802	-0.237991	0.275713	0.419243	0.046934	-0.032481	-0.010260
62	0.319587	0.005000	0.235440	0.087957	-9.475795	-0.238102	0.275159	0.419119	0.050987	-0.033383	-0.010749
63	0.324587	0.005000	0.262245	0.156960	-9.522885	-0.238213	0.274605	0.418995	0.054280	-0.045506	-0.013714
64	0.329587	0.005000	0.250992	0.133272	-9.559008	-0.238324	0.274051	0.418871	0.056619	-0.049043	-0.014080
65	0.334587	0.005000	0.351072	0.057816	-9.613800	-0.238435	0.273496	0.418747	0.054419	-0.049320	-0.015036
66	0.339587	0.005000	0.271080	0.082080	-9.592380	-0.238546	0.272942	0.418623	0.064172	-0.055635	-0.000051
67	0.344587	0.005000	0.225798	0.132519	-9.653040	-0.238657	0.272388	0.418500	0.055604	-0.037719	0.003569
68	0.349587	0.005000	0.302257	0.078480	-9.562897	-0.238768	0.271834	0.418376	0.062493	-0.026494	-0.005666
69	0.354587	0.005000	0.313920	0.017437	-9.565842	-0.238661	0.271859	0.418252	0.067797	-0.021376	-0.001532
70	0.359587	0.005000	0.269159	0.196200	-9.524277	-0.238440	0.272192	0.418128	0.067935	-0.021283	-0.011537
71	0.364587	0.005000	0.311711	0.228814	-9.426434	-0.238218	0.272524	0.418005	0.066885	-0.038033	0.007176
72	0.369587	0.005000	0.274680	0.117720	-9.535955	-0.237996	0.272856	0.417881	0.067923	-0.025725	0.004925
73	0.374587	0.005000	0.239373	0.043173	-9.492147	-0.237775	0.273189	0.417757	0.063422	-0.033782	-0.004216
74	0.379587	0.005000	0.356598	0.092801	-9.496080	-0.237553	0.273521	0.417634	0.064809	-0.031677	0.006475
75	0.384587	0.005000	0.324010	0.176020	-9.506170	-0.237332	0.273853	0.417510	0.048869	-0.029890	-0.001062
76	0.389587	0.005000	0.222669	0.091715	-9.522085	-0.237110	0.274186	0.417386	0.041567	-0.028844	-0.001604
77	0.394587	0.005000	0.150726	0.061977	-9.518817	-0.236888	0.274518	0.417263	0.034312	-0.038398	-0.008655
78	0.399587	0.005000	0.137264	0.098024	-9.555016	-0.236667	0.274850	0.417139	0.044761	-0.033234	-0.006080
79	0.404587	0.005000	0.251838	0.039240	-9.581004	-0.236445	0.275183	0.417015	0.036708	-0.020214	-0.008488
80	0.409587	0.005000	0.274680	0.051372	-9.509634	-0.236224	0.275515	0.416892	0.033354	-0.017263	-0.009957
81	0.414587	0.005000	0.274680	0.000000	-9.545904	-0.236002	0.275848	0.416768	0.016146	-0.018100	-0.008732
82	0.419587	0.005000	0.228043	0.007397	-9.527923	-0.235801	0.276099	0.416712	0.015924	-0.004936	-0.013940
83	0.424587	0.005000	0.209704	0.073979	-9.570059	-0.235690	0.275988	0.416960	0.020388	-0.010098	-0.005630
84	0.429587	0.005000	0.234184	0.073458	-9.456840	-0.235579	0.275877	0.417207	0.019703	-0.007739	-0.012838
85	0.434587	0.005000	0.196200	0.034475	-9.456840	-0.235468	0.275766	0.417455	0.009084	-0.004682	-0.011485
86	0.439587	0.005000	0.230539	0.044141	-9.525518	-0.235357	0.275655	0.417703	0.004919	-0.017447	-0.002486
87	0.444587	0.005000	0.227695	0.023750	-9.543065	-0.235246	0.275545	0.417950	-0.011041	-0.007022	-0.010287
88	0.449587	0.005000	0.156960	0.000000	-9.563643	-0.235135	0.275434	0.418198	-0.009906	-0.020402	-0.002783
89	0.454587	0.005000	0.196200	-0.036820	-9.599913	-0.235024	0.275323	0.418445	-0.023428	-0.007834	-0.001577
90	0.459587	0.005000	0.257683	-0.050990	-9.591557	-0.234914	0.275212	0.418693	-0.024621	-0.005853	-0.001539
91	0.464587	0.005000	0.254636	-0.058436	-9.594604	-0.234803	0.275101	0.418940	-0.024939	-0.016485	0.003158
92	0.469587	0.005000	0.290846	0.000000	-9.613800	-0.234692	0.274991	0.419188	-0.020515	-0.020731	-0.007757
93	0.474587	0.005000	0.274680	0.000000	-9.653116	-0.234581	0.274880	0.419435	-0.006043	-0.026825	0.003083
94	0.479587	0.005000	0.264590	0.030271	-9.525230	-0.234470	0.274769	0.419683	-0.003176	-0.026909	-0.012462
95	0.484587	0.005000	0.267782	0.124618	-9.567662	-0.234359	0.274658	0.419930	0.008616	-0.045552	-0.008407
96	0.489587	0.005000	0.282695	0.117720	-9.609792	-0.234726	0.274468	0.419822	0.014558	-0.033354	-0.018253
97	0.494587	0.005000	0.276193	0.116964	-9.613800	-0.235280	0.274246	0.419575	0.022096	-0.041368	-0.012076
98	0.499587	0.005000	0.353160	0.078480	-9.650952	-0.235834	0.274024	0.419327	0.038702	-0.045529	-0.010718
99	0.504587	0.005000	0.319320	0.151560	-9.613800	-0.236388	0.273803	0.419080	0.034283	-0.036909	-0.019863
100	0.509587	0.005000	0.384156	0.179711	-9.591049	-0.236942	0.273581	0.418832	0.043505	-0.030795	-0.012510
101	0.514587	0.005000	0.380858	0.191586	-9.535320	-0.237496	0.273360	0.418585	0.048494	-0.025574	-0.012474
102	0.519587	0.005000	0.317838	0.092866	-9.624268	-0.238050	0.273138	0.418338	0.055584	-0.027794	-0.017861
103	0.524587	0.005000	0.335670	0.178710	-9.596310	-0.238604	0.272917	0.418090	0.045838	-0.027503	-0.013630
104	0.529587	0.005000	0.353160	0.117720	-9.634343	-0.239159	0.272695	0.417843	0.045469	-0.015500	-0.021832
105	0.534587	0.005000	0.322361	0.054640	-9.622241	-0.239713	0.272473	0.417595	0.041963	-0.017090	-0.010118
106	0.539587	0.005000	0.235440	0.078480	-9.549449	-0.240267	0.272252	0.417348	0.025231	-0.011120	-0.014596
107	0.544587	0.005000	0.283923	0.039240	-9.544563	-0.240821	0.272030	0.417100	0.035686	-0.007094	-0.016928
108	0.549587	0.005000	0.326718	0.059284	-9.521675	-0.241375	0.271809	0.416853	0.030406	-0.007758	-0.009322
109	0.554587	0.005000	0.310819	0.039240	-9.649939	-0.241736	0.271670	0.416698	0.021644	-0.005076	-0.010922
110	0.559587	0.005000	0.275188	0.000000	-9.535828	-0.241514	0.271780	0.416821	0.019836	-0.006050	-0.009435
111	0.564587	0.005000	0.353160	-0.072369	-9.649984	-0.241293	0.271891	0.416945	0.008775	-0.002888	-0.012108
112	0.569587	0.005000	0.241340	-0.117720	-9.664839	-0.241071	0.272002	0.417069	0.008288	-0.003196	-0.012551
113	0.574587	0.005000	0.274680	-0.147763	-9.613800	-0.240849	0.272113	0.417193	-0.011723	-0.002060	-0.001369
114	0.579587	0.005000	0.286721	-0.156960	-9.547361	-0.240627	0.272224	0.417316	-0.009677	0.001388	-0.016257
115	0.584587	0.005000	0.242262	0.000000	-9.496080	-0.240406	0.272334	0.417440	-0.024832	-0.001198	-0.002934
116	0.589587	0.005000	0.295722	0.039240	-9.456840	-0.240184	0.272445	0.417564	-0.043633	0.003227	-0.015330
117	0.594587	0.005000	0.253184	-0.035488	-9.456840	-0.239962	0.272556	0.417688	-0.046134	-0.004419	-0.021432
118	0.599587	0.005000	0.353160	-0.078480	-9.510980	-0.239741	0.272667	0.417811	-0.071591	0.003221	-0.016535
119	0.604587	0.005000	0.325507	-0.050827	-9.456840	-0.239519	0.272778	0.417935	-0.076751	0.012349	-0.009073
120	0.609587	0.005000	0.370647	-0.030496	-9.456840	-0.239297	0.272888	0.418059	-0.076365	0.018559	-0.009206
121	0.614587	0.005000	0.392400	0.005446	-9.490634	-0.239076	0.272999	0.418183	-0.088273	0.033417	-0.027637
122	0.619587	0.005000	0.196200	0.036638	-9.417600	-0.238854	0.273110	0.418306	-0.087417	0.020540	-0.013197
123	0.624587	0.005000	0.273275	0.000000	-9.456137	-0.238458	0.273395	0.418527	-0.085249	0.031096	-0.019375
124	0.629587	0.005000	0.242550	0.000000	-9.456840	-0.238015	0.273727	0.418775	-0.070905	0.028048	-0.007984
125	0.634587	0.005000	0.313920	-0.032387	-9.378360	-0.237572	0.274060	0.419022	-0.058616	0.032829	-0.002451
126	0.639587	0.005000	0.343463	-0.088630	-9.476687	-0.237128	0.274393	0.419270	-0.051324	0.032789	-0.001589
127	0.644587	0.005000	0.405928	-0.065624	-9.496080	-0.236685	0.274725	0.419518	-0.035229	0.021321	0.010958
128	0.649587	0.005000	0.376547	-0.046773	-9.496080	-0.236241	0.275058	0.419765	-0.024382	0.025834	-0.007109
129	0.654587	0.005000	0.312982	-0.097631	-9.475053	-0.235798	0.275390	0.420013	-0.015112	0.023244	0.000222
130	0.659587	0.005000	0.213445	-0.100475	-9.518075	-0.235355	0.275723	0.420260	-0.012410	0.025656	0.002789
131	0.664587	0.005000	0.286056	-0.039240	-9.406224	-0.234911	0.276055	0.420508	-0.002811	0.009487	0.012290
132	0.669587	0.005000	0.235440	-0.084455	-9.428688	-0.234468	0.276388	0.420756	-0.019851	-0.011981	0.013134
133	0.674587	0.005000	0.243231	-0.031449	-9.433181	-0.234024	0.276721	0.421003	-0.022909	-0.030527	0.021690
134	0.679587	0.005000	0.308973	-0.073533	-9.505973	-0.233581	0.277053	0.421251	-0.019572	-0.050201	0.042958
135	0.684587	0.005000	0.351526	-0.001634	-9.572926	-0.233138	0.277386	0.421499	-0.021087	-0.072303	0.043973
136	0.689587	0.005000	0.389980	-0.001210	-9.497290	-0.232765	0.276832	0.421350	-0.009156	-0.094453	0.068473
137	0.694587	0.005000	0.353160	-0.004456	-9.644127	-0.232544	0.274395	0.420361	-0.004877	-0.092055	0.089099
138	0.699587	0.005000	0.328624	-0.031888	-9.692280	-0.232322	0.271957	0.419371	0.011606	-0.079631	0.115768
139	0.704587	0.005000	0.246105	0.010665	-9.642375	-0.232100	0.269520	0.418381	0.035696	-0.065244	0.142635
140	0.709587	0.005000	0.289474	-0.051463	-9.731520	-0.231879	0.267082	0.417391	0.041328	-0.049302	0.159598
141	0.714587	0.005000	0.319547	-0.100914	-9.832434	-0.231657	0.264644	0.416401	0.063791	-0.049056	0.179768
142	0.719587	0.005000	0.412282	-0.059122	-9.830405	-0.231436	0.262207	0.415411	0.062710	-0.032913	0.182172
143	0.724587	0.005000	0.353160	-0.085166	-9.738206	-0.231214	0.259769	0.414421	0.052823	-0.039195	0.184955
144	0.729587	0.005000	0.392400	-0.013433	-9.627233	-0.230992	0.257332	0.413432	0.042219	-0.034956	0.175813
145	0.734587	0.005000	0.284815	-0.010135	-9.574560	-0.230771	0.254894	0.412442	0.014691	-0.028997	0.161277
146	0.739587	0.005000	0.431640	-0.032035	-9.535320	-0.230549	0.252456	0.411452	-0.005241	-0.050186	0.170124
147	0.744587	0.005000	0.435618	0.000000	-9.539298	-0.230328	0.250019	0.410462	-0.033577	-0.061119	0.168990
148	0.749587	0.005000	0.313920	-0.035875	-9.731520	-0.230106	0.247581	0.409472	-0.060027	-0.085145	0.171152
149	0.754587	0.005000	0.276843	0.004326	-9.657366	-0.229884	0.245144	0.408482	-0.110979	-0.098652	0.177618
150	0.759587	0.005000	0.416619	-0.078480	-9.628821	-0.229474	0.246188	0.409805	-0.150571	-0.093004	0.190598
151	0.764587	0.005000	0.439960	-0.024960	-9.599520	-0.229031	0.247851	0.411538	-0.208431	-0.110433	0.223496
152	0.769587	0.005000	0.442804	0.028076	-9.535320	-0.228588	0.249514	0.413271	-0.256662	-0.106529	0.238877
153	0.774587	0.005000	0.446102	0.117720	-9.417600	-0.228144	0.251176	0.415004	-0.282547	-0.118621	0.264655
154	0.779587	0.005000	0.579257	0.135285	-9.539431	-0.227701	0.252839	0.416737	-0.310589	-0.128057	0.293440
155	0.784587	0.005000	0.685702	0.136342	-9.535320	-0.227257	0.254502	0.418470	-0.335586	-0.172055	0.310228
156	0.789587	0.005000	0.690723	0.188155	-9.519723	-0.226814	0.256165	0.420203	-0.351317	-0.195032	0.321484
157	0.794587	0.005000	0.538680	0.301440	-9.522840	-0.226371	0.257827	0.421936	-0.393992	-0.221508	0.330527
158	0.799587	0.005000	0.491786	0.235440	-9.456840	-0.225927	0.259490	0.423669	-0.418606	-0.261639	0.363899
159	0.804587	0.005000	0.458378	0.359411	-9.372109	-0.225484	0.261153	0.425402	-0.445916	-0.286730	0.380400
160	0.809587	0.005000	0.241491	0.458778	-9.487004	-0.225040	0.262816	0.427135	-0.438764	-0.300688	0.406217
161	0.814587	0.005000	0.313741	0.392041	-9.417241	-0.224597	0.264479	0.428868	-0.461124	-0.280079	0.447574
162	0.819587	0.005000	0.419115	0.241703	-9.303011	-0.224154	0.266141	0.430601	-0.507763	-0.273941	0.478250
163	0.824587	0.005000	0.582625	0.362524	-9.091729	-0.223582	0.266737	0.431810	-0.587926	-0.305795	0.494573
164	0.829587	0.005000	0.468732	0.461607	-9.251367	-0.222807	0.265629	0.432181	-0.606509	-0.338169	0.477318
165	0.834587	0.005000	0.193311	0.537243	-9.221400	-0.222031	0.264521	0.432552	-0.622286	-0.332474	0.485647
166	0.839587	0.005000	0.022479	0.573170	-9.253591	-0.221256	0.263414	0.432923	-0.641976	-0.319051	0.482118
167	0.844587	0.005000	0.020966	0.604181	-9.257947	-0.220480	0.262306	0.433295	-0.636099	-0.313350	0.502730
168	0.849587	0.005000	0.000000	0.663177	-9.313646	-0.219704	0.261198	0.433666	-0.629781	-0.286708	0.511627
169	0.854587	0.005000	-0.156960	0.520061	-9.490848	-0.218929	0.260090	0.434037	-0.639053	-0.258224	0.502128
170	0.859587	0.005000	-0.399207	0.313920	-9.496080	-0.218153	0.258982	0.434408	-0.638310	-0.233717	0.484142
171	0.864587	0.005000	-0.605738	0.274680	-9.453236	-0.217377	0.257874	0.434779	-0.695678	-0.146789	0.433262
172	0.869587	0.005000	-0.483269	0.549360	-9.125161	-0.216602	0.256766	0.435151	-0.699323	-0.033263	0.395036
173	0.874587	0.005000	-0.151967	0.370635	-9.179664	-0.215826	0.255658	0.435522	-0.674717	0.061697	0.329573
174	0.879587	0.005000	-0.040027	0.781654	-9.258280	-0.215051	0.254550	0.435893	-0.671832	0.086161	0.232243
175	0.884587	0.005000	-0.185308	0.973739	-9.378360	-0.214275	0.253442	0.436264	-0.666433	0.058878	0.155554
176	0.889587	0.005000	-0.489335	0.923305	-9.339120	-0.213499	0.252334	0.436635	-0.661609	0.032261	0.094249
177	0.894587	0.005000	-0.491120	0.883520	-9.153040	-0.212419	0.251023	0.437572	-0.652442	-0.031310	0.057746
178	0.899587	0.005000	-0.327005	0.954815	-9.273710	-0.211311	0.249692	0.438563	-0.656992	-0.135102	0.030429
179	0.904587	0.005000	-0.212395	0.974151	-9.401405	-0.210202	0.248362	0.439553	-0.617397	-0.210327	0.026617
180	0.909587	0.005000	-0.116933	0.920960	-9.438400	-0.209094	0.247032	0.440543	-0.545647	-0.278146	0.056521
181	0.914587	0.005000	0.000000	0.829347	-9.546980	-0.207985	0.245702	0.441534	-0.492233	-0.333946	0.086898
182	0.919587	0.005000	0.288537	0.824040	-9.666897	-0.206876	0.244371	0.442524	-0.452665	-0.382333	0.147111
183	0.924587	0.005000	0.360724	0.692766	-9.553442	-0.205768	0.243041	0.443514	-0.484680	-0.384350	0.178484
184	0.929587	0.005000	0.156960	0.470880	-9.362930	-0.204659	0.241711	0.444504	-0.526391	-0.372628	0.194735
185	0.934587	0.005000	0.112907	0.647094	-9.304693	-0.203551	0.240380	0.445495	-0.554845	-0.375962	0.264802
186	0.939587	0.005000	0.156960	1.023356	-9.417600	-0.202442	0.239050	0.446485	-0.534193	-0.391418	0.337447
187	0.944587	0.005000	0.232868	1.098720	-9.455554	-0.201334	0.237720	0.447475	-0.508951	-0.403320	0.397221
188	0.949587	0.005000	0.270096	1.216440	-9.486913	-0.200225	0.236390	0.448465	-0.469195	-0.388527	0.411929
189	0.954587	0.005000	0.204003	1.405061	-9.660843	-0.199116	0.235059	0.449456	-0.422474	-0.398685	0.409478
190	0.959587	0.005000	-0.007019	1.626599	-9.592319	-0.198058	0.234577	0.450056	-0.354467	-0.409004	0.391101
191	0.964587	0.005000	-0.103842	1.648080	-9.602315	-0.197061	0.235131	0.450179	-0.269776	-0.410925	0.384359
192	0.969587	0.005000	-0.162436	1.664962	-9.692280	-0.196064	0.235685	0.450303	-0.189996	-0.447213	0.401328
193	0.974587	0.005000	-0.313920	1.589114	-9.750822	-0.195067	0.236239	0.450427	-0.108161	-0.459858	0.423405
194	0.979587	0.005000	-0.290881	1.458718	-9.904681	-0.194070	0.236794	0.450551	-0.027391	-0.462638	0.449513
195	0.984587	0.005000	-0.313920	1.411808	-9.966960	-0.193072	0.237348	0.450674	0.024314	-0.462206	0.477460
196	0.989587	0.005000	-0.186140	1.157081	-10.084680	-0.192075	0.237902	0.450798	0.070176	-0.452930	0.488458
197	0.994587	0.005000	-0.164090	1.055937	-9.984809	-0.191078	0.238456	0.450922	0.118808	-0.428894	0.503353
198	0.999587	0.005000	-0.223732	0.757268	-9.853143	-0.190081	0.239010	0.451046	0.168665	-0.390399	0.488456
199	1.004587	0.005000	-0.156960	0.784800	-10.128107	-0.189084	0.239564	0.451169	0.207616	-0.356574	0.500809
200	1.009587	0.005000	-0.193961	0.710798	-10.428885	-0.188087	0.240118	0.451293	0.221958	-0.317188	0.494199
201	1.014587	0.005000	-0.264515	0.672163	-10.403683	-0.187090	0.240672	0.451417	0.207694	-0.291077	0.494801
202	1.019587	0.005000	-0.243836	0.714716	-10.367756	-0.186092	0.241226	0.451541	0.151175	-0.277958	0.472826
203	1.024587	0.005000	-0.168653	0.611987	-10.253333	-0.185095	0.241780	0.451664	0.104452	-0.260405	0.439727
204	1.029587	0.005000	-0.156960	0.652543	-10.177697	-0.184749	0.240814	0.451909	0.050421	-0.258945	0.411367
205	1.034587	0.005000	-0.017850	0.631380	-10.006200	-0.184417	0.239817	0.452157	-0.023157	-0.251210	0.380540
206	1.039587	0.005000	0.037092	0.759810	-9.909174	-0.184084	0.238820	0.452404	-0.116379	-0.268554	0.347329
207	1.044587	0.005000	0.008195	0.800323	-9.841912	-0.183752	0.237822	0.452652	-0.212816	-0.269778	0.318177
208	1.049587	0.005000	-0.090884	0.784800	-9.677849	-0.183420	0.236825	0.452899	-0.309596	-0.267320	0.292568
209	1.054587	0.005000	-0.175143	0.657989	-9.586526	-0.183087	0.235828	0.453147	-0.415418	-0.249917	0.297987
210	1.059587	0.005000	-0.274680	0.770550	-9.450592	-0.182755	0.234831	0.453394	-0.497215	-0.224955	0.304706
211	1.064587	0.005000	-0.205942	0.971258	-9.363611	-0.182422	0.233834	0.453641	-0.523901	-0.192547	0.307578
212	1.069587	0.005000	0.117614	1.098720	-9.496186	-0.182090	0.232836	0.453889	-0.537206	-0.133345	0.300609
213	1.074587	0.005000	-0.323042	0.843206	-9.535320	-0.181757	0.231839	0.454136	-0.547275	-0.101632	0.286449
214	1.079587	0.005000	-0.395516	1.852903	-9.417600	-0.181425	0.230842	0.454384	-0.551665	-0.014375	0.314725
215	1.084587	0.005000	1.174777	0.733896	-9.489111	-0.181093	0.229845	0.454631	-0.395558	0.029632	0.246250
216	1.089587	0.005000	0.423653	1.592442	-9.278157	-0.180760	0.228847	0.454879	-0.391763	0.006278	0.204566
217	1.094587	0.005000	-0.196200	1.993964	-9.826458	-0.180541	0.229318	0.454811	-0.270696	0.043320	0.161546
218	1.099587	0.005000	-0.177851	2.599446	-9.870131	-0.180430	0.231202	0.454440	-0.177880	0.085638	0.132495
219	1.104587	0.005000	-0.082534	2.876682	-9.943936	-0.180319	0.233086	0.454068	-0.040457	0.121931	0.078710
220	1.109587	0.005000	0.668201	2.216499	-10.071226	-0.180208	0.234971	0.453697	0.143684	0.152547	0.001768
221	1.114587	0.005000	0.060539	2.524581	-9.061082	-0.180097	0.236855	0.453326	0.317707	0.156920	-0.008462
222	1.119587	0.005000	-0.086974	2.135948	-9.639282	-0.179986	0.238740	0.452954	0.451456	0.133708	0.009459
223	1.124587	0.005000	0.005295	2.220796	-9.788822	-0.179875	0.240624	0.452583	0.536916	0.090769	0.045120
224	1.129587	0.005000	-0.186292	1.652437	-9.513915	-0.179764	0.242509	0.452211	0.650495	0.036257	0.071631
225	1.134587	0.005000	-0.153511	1.934832	-9.964373	-0.179653	0.244393	0.451840	0.709688	0.056103	0.065788
226	1.139587	0.005000	-0.183863	1.778137	-9.801775	-0.179543	0.246278	0.451469	0.860903	0.055167	0.064267
227	1.144587	0.005000	-0.246664	1.712552	-9.634812	-0.179432	0.248162	0.451097	0.886742	0.019919	0.040489
228	1.149587	0.005000	-0.185883	1.815357	-9.409310	-0.179321	0.250047	0.450726	0.910984	-0.029307	0.048153
229	1.154587	0.005000	-0.196200	1.478443	-9.260640	-0.179210	0.251931	0.450355	0.922642	-0.043504	0.025018
230	1.159587	0.005000	-0.196200	1.164554	-9.332797	-0.179089	0.253791	0.449956	0.933866	-0.042269	0.012354
231	1.164587	0.005000	-0.314084	0.921893	-9.339284	-0.178757	0.255120	0.448966	0.881946	-0.040347	-0.000023
232	1.169587	0.005000	-0.313920	0.701676	-9.339120	-0.178424	0.256450	0.447976	0.824915	-0.066633	0.004294
233	1.174587	0.005000	-0.129713	0.576607	-9.335860	-0.178092	0.257780	0.446986	0.729315	-0.096305	0.014399
234	1.179587	0.005000	-0.256406	0.693144	-9.370569	-0.177760	0.259109	0.445996	0.657283	-0.145430	0.001654
235	1.184587	0.005000	-0.274680	0.235440	-9.284782	-0.177427	0.260439	0.445007	0.643980	-0.153819	-0.011664
236	1.189587	0.005000	-0.357486	0.348834	-9.408645	-0.177095	0.261769	0.444017	0.570510	-0.173383	-0.018239
237	1.194587	0.005000	-0.434571	0.113323	-9.631386	-0.176763	0.263098	0.443027	0.575934	-0.196742	-0.031565
238	1.199587	0.005000	-0.510120	0.411672	-9.934981	-0.176430	0.264428	0.442037	0.500923	-0.216172	-0.032167
239	1.204587	0.005000	-0.641742	0.358228	-9.101213	-0.176098	0.265757	0.441047	0.544609	-0.240387	-0.068514
240	1.209587	0.005000	-0.439612	0.141016	-9.479516	-0.175766	0.267087	0.440058	0.620727	-0.179848	-0.071321
241	1.214587	0.005000	-0.263539	0.207341	-9.675322	-0.175433	0.268417	0.439068	0.640377	-0.153011	-0.109639
242	1.219587	0.005000	-0.613726	0.339046	-9.577661	-0.175101	0.269746	0.438078	0.674543	-0.199385	-0.127794
243	1.224587	0.005000	-0.684507	0.287720	-9.435027	-0.174768	0.271076	0.437088	0.678695	-0.204657	-0.139035
244	1.229587	0.005000	-0.646810	0.274680	-9.475810	-0.174754	0.272342	0.436454	0.721350	-0.224550	-0.147230
245	1.234587	0.005000	-0.690648	0.227544	-9.511752	-0.174976	0.273562	0.436082	0.755295	-0.236889	-0.162952
246	1.239587	0.005000	-0.587844	0.261852	-9.613044	-0.175198	0.274781	0.435711	0.775904	-0.249788	-0.177969
247	1.244587	0.005000	-0.411430	0.235440	-9.584075	-0.175419	0.276000	0.435340	0.809166	-0.261287	-0.210221
248	1.249587	0.005000	-0.470880	0.202871	-9.483524	-0.175641	0.277220	0.434968	0.800957	-0.259024	-0.245152
249	1.254587	0.005000	-0.395773	0.235440	-9.535320	-0.175863	0.278439	0.434597	0.812982	-0.247872	-0.260811
250	1.259587	0.005000	-0.391354	0.154344	-9.534274	-0.176085	0.279659	0.434226	0.798288	-0.228435	-0.280313
251	1.264587	0.005000	-0.241007	0.033673	-9.420383	-0.176306	0.280878	0.433854	0.771911	-0.186443	-0.330918
252	1.269587	0.005000	-0.409243	0.269066	-9.383974	-0.176528	0.282097	0.433483	0.724866	-0.149770	-0.332916
253	1.274587	0.005000	-0.244365	0.296070	-9.535320	-0.176750	0.283317	0.433112	0.713388	-0.087582	-0.334060
254	1.279587	0.005000	-0.141258	0.207969	-9.570627	-0.176971	0.284536	0.432740	0.700295	-0.052120	-0.337009
255	1.284587	0.005000	-0.172033	0.211273	-9.399410	-0.177193	0.285755	0.432369	0.645602	-0.000180	-0.346601
256	1.289587	0.005000	-0.260188	0.192781	-9.303299	-0.177415	0.286975	0.431998	0.587803	0.037111	-0.348753
257	1.294587	0.005000	-0.292697	0.003207	-9.303087	-0.177624	0.288011	0.431667	0.531496	0.055976	-0.333098
258	1.299587	0.005000	-0.355777	-0.078480	-9.175882	-0.177735	0.287568	0.431667	0.453144	0.070487	-0.302803
259	1.304587	0.005000	-0.223565	-0.129595	-9.131045	-0.177846	0.287125	0.431667	0.340181	0.064244	-0.281968
260	1.309587	0.005000	-0.253502	-0.244471	-9.076587	-0.177956	0.286682	0.431667	0.229374	0.051962	-0.270006
261	1.314587	0.005000	-0.224004	-0.196200	-8.923848	-0.178067	0.286238	0.431667	0.116033	0.017515	-0.287695
262	1.319587	0.005000	-0.229692	-0.156960	-8.901732	-0.178178	0.285795	0.431667	0.020933	-0.018366	-0.297096
263	1.324587	0.005000	-0.312245	-0.118139	-8.712536	-0.178289	0.285352	0.431667	-0.083460	-0.043497	-0.334185
264	1.329587	0.005000	-0.467613	-0.078480	-8.639335	-0.178400	0.284909	0.431667	-0.170268	-0.096733	-0.343994
265	1.334587	0.005000	-0.510120	0.085207	-8.704777	-0.178510	0.284466	0.431667	-0.269226	-0.118472	-0.387074
266	1.339587	0.005000	-0.180604	-0.045412	-8.323675	-0.178621	0.284023	0.431667	-0.362581	-0.150080	-0.403807
267	1.344587	0.005000	-0.685172	0.228088	-8.633708	-0.178732	0.283579	0.431667	-0.496465	-0.230275	-0.432544
268	1.349587	0.005000	-0.957326	0.259765	-8.861433	-0.178843	0.283136	0.431667	-0.497313	-0.168317	-0.497925
269	1.354587	0.005000	-0.604514	0.533446	-8.714245	-0.178953	0.282693	0.431667	-0.481936	-0.049764	-0.548484
270	1.359587	0.005000	-0.714425	0.436246	-8.854422	-0.179064	0.282250	0.431667	-0.574991	-0.053465	-0.622542
271	1.364587	0.005000	-0.970199	0.445860	-9.064440	-0.180026	0.281381	0.431905	-0.599992	-0.028729	-0.681632
272	1.369587	0.005000	-0.972226	0.547227	-8.957506	-0.181467	0.280272	0.432276	-0.621326	0.036460	-0.734907
273	1.374587	0.005000	-0.834251	0.902520	-8.877377	-0.182908	0.279164	0.432647	-0.618187	0.069957	-0.791248
274	1.379587	0.005000	-1.206910	0.833570	-9.397420	-0.184349	0.278055	0.433019	-0.575592	0.120822	-0.813287
275	1.384587	0.005000	-0.973315	0.935997	-9.701886	-0.185790	0.276947	0.433390	-0.499452	0.170612	-0.844754
276	1.389587	0.005000	-0.824040	0.634716	-10.191398	-0.187231	0.275838	0.433761	-0.383941	0.217735	-0.850340
277	1.394587	0.005000	-0.780564	0.487822	-10.289351	-0.188672	0.274730	0.434133	-0.290688	0.285025	-0.864390
278	1.399587	0.005000	-0.368054	0.280123	-10.107022	-0.190113	0.273621	0.434504	-0.178558	0.321244	-0.875778
279	1.404587	0.005000	-0.957976	0.293165	-10.388223	-0.191554	0.272513	0.434875	-0.097793	0.337607	-0.899125
280	1.409587	0.005000	-1.722524	0.313920	-10.540686	-0.192995	0.271404	0.435247	-0.042790	0.370763	-0.920485
281	1.414587	0.005000	-2.187078	0.251974	-10.539026	-0.194436	0.270295	0.435618	-0.026878	0.389265	-0.906610
282	1.419587	0.005000	-2.059995	0.196170	-10.280850	-0.195877	0.269187	0.435989	-0.025348	0.390376	-0.887390
283	1.424587	0.005000	-1.526018	-0.183977	-10.218964	-0.197318	0.268078	0.436361	-0.073405	0.355491	-0.856118
284	1.429587	0.005000	-1.399082	-0.605028	-10.268757	-0.198662	0.266873	0.436754	-0.193478	0.312978	-0.833701
285	1.434587	0.005000	-1.472695	-1.041055	-10.202400	-0.199549	0.265211	0.437249	-0.352540	0.267556	-0.828170
286	1.439587	0.005000	-1.556500	-1.022094	-10.116443	-0.200435	0.263549	0.437743	-0.500987	0.226042	-0.787647
287	1.444587	0.005000	-0.510967	-0.672193	-9.622332	-0.201322	0.261887	0.438238	-0.637399	0.217791	-0.758765
288	1.449587	0.005000	-0.301378	-0.144314	-9.665686	-0.202208	0.260225	0.438733	-0.693383	0.145423	-0.757905
289	1.454587	0.005000	-1.281684	0.233549	-9.968851	-0.203095	0.258563	0.439228	-0.717998	0.108398	-0.788665
290	1.459587	0.005000	-1.043914	0.343690	-9.844505	-0.203981	0.256901	0.439723	-0.691129	0.134875	-0.775555
291	1.464587	0.005000	-0.704974	0.297416	-10.187243	-0.204868	0.255239	0.440218	-0.626848	0.120811	-0.792000
292	1.469587	0.005000	-0.717196	0.274680	-10.348484	-0.205754	0.253577	0.440713	-0.568881	0.147378	-0.842703
293	1.474587	0.005000	-0.394321	0.313920	-10.412320	-0.206640	0.251915	0.441207	-0.535644	0.159857	-0.843921
294	1.479587	0.005000	-0.312407	0.240614	-10.548874	-0.207527	0.250253	0.441702	-0.450905	0.160162	-0.870618
295	1.484587	0.005000	-0.529261	0.315834	-10.478037	-0.208413	0.248591	0.442197	-0.411860	0.177867	-0.888669
296	1.489587	0.005000	-0.510120	0.344205	-10.368315	-0.209300	0.246929	0.442692	-0.346179	0.191567	-0.878179
297	1.494587	0.005000	-0.418419	0.339939	-10.594376	-0.210186	0.245267	0.443187	-0.320389	0.205313	-0.886024
298	1.499587	0.005000	-0.392400	0.176383	-10.447748	-0.211385	0.244073	0.443333	-0.303071	0.224635	-0.878743
299	1.504587	0.005000	-0.231118	0.092447	-10.297509	-0.212715	0.243076	0.443333	-0.295281	0.256405	-0.889106
300	1.509587	0.005000	-0.392400	0.442940	-10.465780	-0.214044	0.242079	0.443333	-0.287805	0.261071	-0.907528
301	1.514587	0.005000	-0.507384	0.472704	-10.237081	-0.215374	0.241082	0.443333	-0.287446	0.305794	-0.938820
302	1.519587	0.005000	-0.576649	0.401960	-10.229689	-0.216703	0.240084	0.443333	-0.225593	0.322539	-0.950720
303	1.524587	0.005000	-0.403646	0.566228	-10.146411	-0.218033	0.239087	0.443333	-0.205993	0.362704	-0.957097
304	1.529587	0.005000	-0.462348	0.557892	-10.093212	-0.219362	0.238090	0.443333	-0.159403	0.390372	-0.980928
305	1.534587	0.005000	-0.399979	0.514246	-9.935299	-0.220692	0.237093	0.443333	-0.096195	0.393641	-0.997973
306	1.539587	0.005000	-0.338471	0.416951	-10.084680	-0.222022	0.236095	0.443333	-0.052743	0.391365	-1.011736
307	1.544587	0.005000	-0.296139	0.328022	-9.984741	-0.223351	0.235098	0.443333	-0.030032	0.404714	-1.012289
308	1.549587	0.005000	-0.274680	0.313920	-9.930140	-0.224681	0.234101	0.443333	0.006812	0.404723	-0.981202
309	1.554587	0.005000	-0.298538	0.235440	-9.866192	-0.226010	0.233104	0.443333	0.021817	0.412413	-0.970914
310	1.559587	0.005000	-0.250174	0.247693	-9.719267	-0.227340	0.232107	0.443333	0.040981	0.394804	-0.931688
311	1.564587	0.005000	-0.057151	0.534868	-9.531901	-0.228721	0.231213	0.443246	0.046124	0.388709	-0.908455
312	1.569587	0.005000	-0.117720	0.419417	-9.713186	-0.230273	0.230659	0.442875	0.041338	0.358863	-0.886494
313	1.574587	0.005000	-0.120519	0.229843	-9.535320	-0.231825	0.230105	0.442503	0.024865	0.369051	-0.865018
314	1.579587	0.005000	-0.235349	0.156960	-9.456931	-0.233377	0.229551	0.442132	0.013982	0.359359	-0.846488
315	1.584587	0.005000	-0.192895	0.228830	-9.342425	-0.234929	0.228996	0.441761	-0.001278	0.355954	-0.845257
316	1.589587	0.005000	-0.196200	0.241627	-9.405226	-0.236481	0.228442	0.441389	0.001513	0.359381	-0.863228
317	1.594587	0.005000	-0.363900	0.304420	-9.447340	-0.238033	0.227888	0.441018	-0.005569	0.360414	-0.889216
318	1.599587	0.005000	-0.326718	0.274680	-9.417600	-0.239585	0.227334	0.440647	0.000601	0.381407	-0.920108
319	1.604587	0.005000	-0.431640	0.313920	-9.378360	-0.241137	0.226780	0.440275	0.012330	0.389257	-0.949729
320	1.609587	0.005000	-0.372114	0.332874	-9.359406	-0.242689	0.226225	0.439904	-0.009730	0.393110	-0.982797
321	1.614587	0.005000	-0.279037	0.279037	-9.299880	-0.244241	0.225671	0.439532	-0.019504	0.390202	-1.028578
322	1.619587	0.005000	-0.142816	0.317112	-9.350072	-0.245793	0.225117	0.439161	-0.031493	0.376193	-1.062241
323	1.624587	0.005000	-0.078480	0.403567	-9.232567	-0.247345	0.224563	0.438790	-0.054303	0.379082	-1.090233
324	1.629587	0.005000	-0.023962	0.337882	-9.229387	-0.248897	0.224008	0.438418	-0.070969	0.359982	-1.071530
325	1.634587	0.005000	-0.029861	0.422261	-9.304569	-0.249851	0.222003	0.437666	-0.084781	0.355632	-1.053118
326	1.639587	0.005000	0.082127	0.551184	-9.337296	-0.250627	0.219564	0.436799	-0.067641	0.358946	-1.012593
327	1.644587	0.005000	0.270278	0.815236	-9.262107	-0.251403	0.217126	0.435933	-0.057829	0.349992	-0.938125
328	1.649587	0.005000	0.427329	0.680014	-9.408977	-0.252179	0.214687	0.435067	-0.036993	0.374978	-0.874197
329	1.654587	0.005000	0.448053	0.792409	-9.385969	-0.252955	0.212248	0.434200	0.005587	0.377020	-0.770314
330	1.659587	0.005000	0.556221	0.959414	-9.367567	-0.253731	0.209810	0.433334	0.034396	0.377412	-0.668471
331	1.664587	0.005000	0.614074	0.916286	-9.405892	-0.254507	0.207371	0.432467	0.045694	0.357888	-0.574445
332	1.669587	0.005000	0.588600	0.941760	-9.277704	-0.255283	0.204932	0.431601	0.043532	0.364150	-0.489373
333	1.674587	0.005000	0.511845	0.922427	-9.163977	-0.256059	0.202493	0.430734	0.052831	0.342411	-0.408120
334	1.679587	0.005000	-1.073881	0.517321	-8.980378	-0.256835	0.200055	0.429868	0.053445	0.328085	-0.338400
335	1.684587	0.005000	-0.561961	-0.300744	-9.246602	-0.257610	0.197616	0.429002	0.040003	0.261958	-0.334347
336	1.689587	0.005000	0.110736	0.427886	-9.062825	-0.258386	0.195177	0.428135	0.152853	0.191947	-0.428087
337	1.694587	0.005000	1.069479	1.340090	-8.754589	-0.259162	0.192738	0.427269	0.281917	0.227310	-0.526406
338	1.699587	0.005000	0.605512	2.294526	-9.150363	-0.260073	0.191519	0.426629	0.360209	0.304012	-0.609828
339	1.704587	0.005000	0.429008	2.191298	-9.220523	-0.261292	0.193070	0.426505	0.352831	0.480754	-0.633301
340	1.709587	0.005000	0.535004	1.701676	-9.255855	-0.262511	0.194621	0.426382	0.328701	0.591817	-0.626770
341	1.714587	0.005000	0.735031	1.122651	-9.430519	-0.263730	0.196173	0.426258	0.291488	0.658876	-0.593342
342	1.719587	0.005000	0.894044	0.630979	-9.653040	-0.264949	0.197724	0.426134	0.196334	0.691893	-0.573029
343	1.724587	0.005000	0.701343	0.655659	-9.491103	-0.266168	0.199275	0.426010	0.155078	0.670572	-0.554355
344	1.729587	0.005000	0.990802	0.461078	-9.245921	-0.267386	0.200826	0.425887	0.127165	0.619489	-0.502172
345	1.734587	0.005000	0.615496	0.818821	-9.295765	-0.268605	0.202377	0.425763	0.121441	0.551674	-0.463851
346	1.739587	0.005000	0.418298	0.934227	-8.990982	-0.269824	0.203928	0.425639	0.136914	0.506848	-0.388522
347	1.744587	0.005000	0.791244	1.348803	-8.618157	-0.271043	0.205480	0.425515	0.172455	0.449606	-0.302065
348	1.749587	0.005000	0.956554	1.397846	-8.718360	-0.272262	0.207031	0.425392	0.204882	0.393118	-0.236220
349	1.754587	0.005000	0.844744	1.431176	-8.886776	-0.273480	0.208582	0.425268	0.150199	0.327902	-0.194365
350	1.759587	0.005000	0.633906	1.497186	-8.856108	-0.274699	0.210133	0.425144	0.075034	0.286570	-0.166709
351	1.764587	0.005000	0.879390	1.644858	-8.949942	-0.275918	0.211684	0.425020	-0.024934	0.223816	-0.126029
352	1.769587	0.005000	1.098645	1.491344	-8.907630	-0.277045	0.211199	0.424897	-0.146458	0.190071	-0.111877
353	1.774587	0.005000	1.216440	1.228118	-8.940881	-0.278153	0.210313	0.424773	-0.238589	0.179963	-0.108896
354	1.779587	0.005000	1.111038	1.315684	-8.985960	-0.279262	0.209426	0.424649	-0.312803	0.204145	-0.112762
355	1.784587	0.005000	1.168124	1.198287	-8.985960	-0.280371	0.208539	0.424525	-0.328160	0.253108	-0.106949
356	1.789587	0.005000	1.086487	1.135418	-9.103680	-0.281479	0.207652	0.424401	-0.329097	0.319846	-0.093110
357	1.794587	0.005000	1.065894	0.908934	-9.230204	-0.282588	0.206765	0.424278	-0.305410	0.382531	-0.081403
358	1.799587	0.005000	0.923448	1.140576	-9.119376	-0.283696	0.205879	0.424154	-0.287782	0.428254	-0.040051
359	1.804587	0.005000	0.649215	1.230796	-9.139410	-0.284805	0.204992	0.424030	-0.264320	0.462088	0.003266
360	1.809587	0.005000	0.539819	1.319310	-9.069749	-0.285913	0.204105	0.423906	-0.239040	0.457273	0.054422
361	1.814587	0.005000	0.792454	1.361676	-9.119473	-0.287022	0.203218	0.423782	-0.212530	0.415108	0.112053
362	1.819587	0.005000	0.998550	1.417274	-8.994735	-0.288130	0.202332	0.423659	-0.223992	0.354590	0.136864
363	1.824587	0.005000	1.087586	1.535927	-8.974826	-0.289239	0.201445	0.423535	-0.287983	0.284479	0.152899
364	1.829587	0.005000	0.894445	1.328776	-8.910172	-0.290347	0.200558	0.423411	-0.368018	0.236214	0.134937
365	1.834587	0.005000	0.591474	1.217015	-8.985385	-0.291127	0.199959	0.423287	-0.418748	0.195217	0.162385
366	1.839587	0.005000	0.513962	1.067164	-9.327595	-0.291349	0.199848	0.423163	-0.486890	0.182499	0.188619
367	1.844587	0.005000	0.503388	0.642453	-9.306612	-0.291570	0.199737	0.423040	-0.503018	0.177623	0.212342
368	1.849587	0.005000	0.549360	0.402315	-9.495661	-0.291792	0.199626	0.422916	-0.476550	0.220940	0.236244
369	1.854587	0.005000	0.496627	0.470880	-9.876227	-0.292014	0.199516	0.422792	-0.420745	0.266820	0.226512
370	1.859587	0.005000	0.345910	0.447635	-9.693775	-0.292235	0.199405	0.422669	-0.368607	0.267827	0.190267
371	1.864587	0.005000	0.155780	0.411430	-9.416420	-0.292457	0.199294	0.422545	-0.289902	0.303237	0.122974
372	1.869587	0.005000	0.089977	0.892355	-9.153751	-0.292678	0.199183	0.422421	-0.230543	0.347946	0.086369
373	1.874587	0.005000	0.333918	1.572565	-8.960788	-0.292900	0.199072	0.422298	-0.153282	0.412043	0.055784
374	1.879587	0.005000	0.867062	1.626569	-8.975205	-0.293122	0.198961	0.422174	-0.106353	0.444193	-0.007044
375	1.884587	0.005000	1.051886	1.601246	-8.867605	-0.293343	0.198851	0.422050	-0.097028	0.408370	-0.085725
376	1.889587	0.005000	1.098720	1.945829	-8.505852	-0.293565	0.198740	0.421927	-0.130813	0.350979	-0.173360
377	1.894587	0.005000	1.141500	2.240220	-8.392050	-0.293786	0.198629	0.421803	-0.155469	0.257366	-0.224927
378	1.899587	0.005000	1.442731	2.352875	-8.241925	-0.294008	0.198518	0.421679	-0.217183	0.167398	-0.260731
379	1.904587	0.005000	1.456267	2.245454	-8.083440	-0.293830	0.198307	0.422447	-0.275632	0.064018	-0.291525
380	1.909587	0.005000	1.507570	2.291114	-8.178370	-0.293609	0.198086	0.423313	-0.312432	-0.009900	-0.293764
381	1.914587	0.005000	1.559071	2.257737	-8.376303	-0.293387	0.197864	0.424179	-0.338960	-0.077771	-0.291794
382	1.919587	0.005000	1.712719	1.885804	-8.669756	-0.293166	0.197643	0.425045	-0.348442	-0.131817	-0.274265
383	1.924587	0.005000	1.698136	1.613787	-8.727965	-0.292944	0.197421	0.425911	-0.331627	-0.155929	-0.264228
384	1.929587	0.005000	1.511829	1.414092	-8.788308	-0.292723	0.197200	0.426777	-0.257926	-0.175664	-0.259272
385	1.934587	0.005000	1.396421	1.112323	-9.041419	-0.292501	0.196978	0.427643	-0.157777	-0.193665	-0.239164
386	1.939587	0.005000	1.268720	1.072701	-9.051340	-0.292279	0.196756	0.428509	-0.100771	-0.198202	-0.219674
387	1.944587	0.005000	1.088581	1.522853	-8.956859	-0.292058	0.196535	0.429375	-0.025325	-0.242078	-0.157473
388	1.949587	0.005000	1.084803	1.673403	-9.138473	-0.291836	0.196313	0.430241	0.042612	-0.265797	-0.091827
389	1.954587	0.005000	1.095074	1.512132	-9.464131	-0.291615	0.196092	0.431107	0.084861	-0.317389	-0.019511
390	1.959587	0.005000	0.899350	1.092379	-9.536905	-0.291393	0.195870	0.431973	0.039098	-0.342597	0.004936
391	1.964587	0.005000	0.708816	0.527592	-9.760776	-0.291171	0.195648	0.432839	0.004581	-0.353080	0.035716
392	1.969587	0.005000	0.813360	0.112380	-9.697620	-0.290902	0.195570	0.433120	-0.030020	-0.352400	0.080793
393	1.974587	0.005000	0.396424	0.266027	-9.639758	-0.290569	0.195681	0.432625	-0.044674	-0.354822	0.133013
394	1.979587	0.005000	0.302106	0.341346	-9.798186	-0.290237	0.195791	0.432130	-0.023170	-0.312009	0.212288
395	1.984587	0.005000	0.362811	0.495326	-9.903274	-0.289904	0.195902	0.431635	-0.019030	-0.239782	0.267875
396	1.989587	0.005000	0.631293	0.506667	-10.130826	-0.289572	0.196013	0.431140	-0.016071	-0.159853	0.278062
397	1.994587	0.005000	0.597842	0.621679	-10.452839	-0.289239	0.196124	0.430645	-0.039336	-0.100617	0.253453
398	1.999587	0.005000	0.317445	0.938235	-10.624782	-0.288907	0.196235	0.430150	-0.028170	-0.054554	0.166423
399	2.004587	0.005000	0.117720	1.342935	-10.724524	-0.288574	0.196346	0.429655	0.032676	-0.021192	0.072473
400	2.009587	0.005000	0.039240	1.552960	-10.952891	-0.288241	0.196457	0.429160	0.157092	0.019763	-0.079592
401	2.014587	0.005000	0.173570	1.855353	-11.323266	-0.287909	0.196568	0.428664	0.313119	0.054321	-0.252801
402	2.019587	0.005000	0.437025	1.990469	-11.452695	-0.287576	0.196679	0.428169	0.457637	0.055639	-0.424537
403	2.024587	0.005000	0.510120	1.767026	-11.147837	-0.287244	0.196789	0.427674	0.530528	0.017341	-0.605875
404	2.029587	0.005000	0.656688	1.651544	-10.801392	-0.286911	0.196900	0.427179	0.547796	-0.062793	-0.740506
405	2.034587	0.005000	0.699635	1.458565	-10.418654	-0.286579	0.197011	0.426684	0.550069	-0.131230	-0.811182
406	2.039587	0.005000	1.001845	1.245257	-10.251246	-0.287637	0.196587	0.426069	0.516724	-0.200672	-0.814247
407	2.044587	0.005000	1.230781	1.057589	-9.965069	-0.288746	0.196144	0.425450	0.455413	-0.237726	-0.772044
408	2.049587	0.005000	1.428070	0.816325	-9.919672	-0.289854	0.195700	0.424831	0.387009	-0.244193	-0.703117
409	2.054587	0.005000	1.450325	0.605887	-9.965405	-0.290963	0.195257	0.424213	0.293715	-0.230219	-0.614869
410	2.059587	0.005000	1.373400	0.401537	-9.949624	-0.292071	0.194813	0.423594	0.157687	-0.184676	-0.540749
411	2.064587	0.005000	1.359377	0.249463	-9.672599	-0.293180	0.194370	0.422975	0.004669	-0.134897	-0.453388
412	2.069587	0.005000	1.233322	0.263501	-9.003069	-0.294289	0.193927	0.422356	-0.144973	-0.024866	-0.409343
413	2.074587	0.005000	1.059480	0.455284	-8.483555	-0.295397	0.193483	0.421737	-0.281595	0.111027	-0.363072
414	2.079587	0.005000	1.103757	0.603712	-8.427584	-0.296506	0.193040	0.421118	-0.403546	0.317311	-0.368331
415	2.084587	0.005000	1.134511	0.663631	-8.882036	-0.297614	0.192596	0.420499	-0.452301	0.528365	-0.389729
416	2.089587	0.005000	0.868877	0.588600	-9.487125	-0.298723	0.192153	0.419880	-0.438645	0.691198	-0.451912
417	2.094587	0.005000	0.710283	0.431640	-9.833387	-0.299831	0.191710	0.419261	-0.430513	0.796251	-0.536365
418	2.099587	0.005000	0.453174	0.431640	-10.095208	-0.300940	0.191266	0.418642	-0.438155	0.818883	-0.573726
419	2.104587	0.005000	0.265755	0.372190	-10.299910	-0.301993	0.190601	0.418209	-0.494260	0.777092	-0.607350
420	2.109587	0.005000	0.352084	0.327179	-10.385879	-0.302990	0.189714	0.417962	-0.528953	0.706853	-0.623061
421	2.114587	0.005000	0.719753	0.297658	-10.117204	-0.303987	0.188828	0.417714	-0.504023	0.645353	-0.611294
422	2.119587	0.005000	0.942123	0.313920	-9.829438	-0.304984	0.187941	0.417467	-0.462068	0.596941	-0.611053
423	2.124587	0.005000	1.092756	0.448278	-9.619764	-0.305981	0.187055	0.417219	-0.392109	0.562285	-0.582370
424	2.129587	0.005000	1.217771	0.629171	-9.496080	-0.306978	0.186168	0.416972	-0.315610	0.569625	-0.551729
425	2.134587	0.005000	1.362720	0.806160	-9.535320	-0.307976	0.185282	0.416724	-0.226440	0.571071	-0.495851
426	2.139587	0.005000	1.389401	0.981000	-9.503826	-0.308973	0.184396	0.416477	-0.162634	0.564116	-0.454576
427	2.144587	0.005000	1.294920	0.985538	-9.500618	-0.309970	0.183509	0.416230	-0.056487	0.547940	-0.415546
428	2.149587	0.005000	1.294920	0.942985	-9.616251	-0.310967	0.182623	0.415982	0.010326	0.499920	-0.360145
429	2.154587	0.005000	1.257299	1.018621	-9.654659	-0.311964	0.181736	0.415735	0.084388	0.433736	-0.311220
430	2.159587	0.005000	1.211524	1.015324	-9.662873	-0.312961	0.180850	0.415487	0.155165	0.357139	-0.269659
431	2.164587	0.005000	1.106480	0.886561	-9.660800	-0.313958	0.179963	0.415240	0.211937	0.282013	-0.229822
432	2.169587	0.005000	1.020240	1.037334	-9.574560	-0.314932	0.179104	0.414989	0.252987	0.207447	-0.188389
433	2.174587	0.005000	1.059480	1.073687	-9.599593	-0.315153	0.179104	0.414617	0.295170	0.149434	-0.152340
434	2.179587	0.005000	1.037455	1.137960	-9.591775	-0.315375	0.179104	0.414246	0.342826	0.120097	-0.136924
435	2.184587	0.005000	0.883565	1.313875	-9.574560	-0.315597	0.179104	0.413875	0.403886	0.089592	-0.114348
436	2.189587	0.005000	0.729692	1.152966	-9.661405	-0.315819	0.179104	0.413503	0.430804	0.076644	-0.113029
437	2.194587	0.005000	0.758436	0.981000	-9.927720	-0.316040	0.179104	0.413132	0.468358	0.060956	-0.107618
438	2.199587	0.005000	0.853553	0.892793	-9.869026	-0.316262	0.179104	0.412761	0.433189	0.063531	-0.106596
439	2.204587	0.005000	0.870082	0.692717	-9.796397	-0.316484	0.179104	0.412389	0.412614	0.088303	-0.112008
440	2.209587	0.005000	0.945330	0.791940	-9.649470	-0.316705	0.179104	0.412018	0.379056	0.120770	-0.140390
441	2.214587	0.005000	0.902520	0.981817	-9.534503	-0.316927	0.179104	0.411646	0.339814	0.152599	-0.161854
442	2.219587	0.005000	0.975857	1.172057	-9.454268	-0.317149	0.179104	0.411275	0.320176	0.185819	-0.178538
443	2.224587	0.005000	1.047850	1.456230	-9.311510	-0.317370	0.179104	0.410904	0.288435	0.235468	-0.187218
444	2.229587	0.005000	1.307975	1.822421	-9.081897	-0.317592	0.179104	0.410532	0.271823	0.284000	-0.238520
445	2.234587	0.005000	1.506308	2.106934	-9.001148	-0.317814	0.179104	0.410161	0.246699	0.328114	-0.286625
446	2.239587	0.005000	1.251550	2.388270	-9.000830	-0.318161	0.179230	0.409790	0.235979	0.360671	-0.365148
447	2.244587	0.005000	1.074145	2.429576	-9.110287	-0.318605	0.179451	0.409418	0.230739	0.349795	-0.416489
448	2.249587	0.005000	1.038453	2.242307	-9.221400	-0.319048	0.179673	0.409047	0.229938	0.311247	-0.466794
449	2.254587	0.005000	1.123045	1.956494	-9.299880	-0.319492	0.179895	0.408676	0.242803	0.241013	-0.503791
450	2.259587	0.005000	1.044383	1.663177	-9.308926	-0.319935	0.180117	0.408304	0.245885	0.153304	-0.510468
451	2.264587	0.005000	1.216440	1.395123	-9.448081	-0.320379	0.180338	0.407933	0.242649	0.078883	-0.511183
452	2.269587	0.005000	1.261595	1.192781	-9.450925	-0.320822	0.180560	0.407562	0.230742	0.016252	-0.514892
453	2.274587	0.005000	1.294920	0.965298	-9.331269	-0.321265	0.180782	0.407190	0.214179	-0.026126	-0.492344
454	2.279587	0.005000	1.138868	0.745560	-9.143374	-0.321709	0.181004	0.406819	0.206297	-0.044415	-0.461249
455	2.284587	0.005000	1.137960	0.748631	-8.913622	-0.322152	0.181226	0.406448	0.214780	-0.037939	-0.446318
456	2.289587	0.005000	1.092336	0.961849	-9.012433	-0.322596	0.181447	0.406076	0.240894	-0.009905	-0.422748
457	2.294587	0.005000	1.128732	1.158745	-9.172932	-0.323039	0.181669	0.405705	0.244989	0.018815	-0.382577
458	2.299587	0.005000	1.203915	1.150485	-9.246451	-0.323483	0.181891	0.405333	0.252471	0.043147	-0.363383
459	2.304587	0.005000	1.255680	1.185701	-9.299880	-0.323892	0.181886	0.405038	0.251941	0.050611	-0.337017
460	2.309587	0.005000	1.274362	1.177200	-9.355926	-0.324003	0.179891	0.405409	0.218020	0.051246	-0.330391
461	2.314587	0.005000	1.167110	1.255680	-9.313782	-0.324114	0.177896	0.405781	0.201190	0.028180	-0.311601
462	2.319587	0.005000	0.927344	1.280504	-9.378360	-0.324225	0.175900	0.406152	0.162346	0.002410	-0.309304
463	2.324587	0.005000	0.847185	1.306492	-9.249068	-0.324336	0.173905	0.406523	0.137791	-0.024388	-0.307784
464	2.329587	0.005000	0.941760	1.320796	-9.226139	-0.324446	0.171910	0.406895	0.090485	-0.049595	-0.300713
465	2.334587	0.005000	0.879527	1.346322	-9.171329	-0.324557	0.169914	0.407266	0.058684	-0.082106	-0.303258
466	2.339587	0.005000	0.989574	1.098720	-9.099393	-0.324668	0.167919	0.407637	0.026376	-0.104399	-0.296192
467	2.344587	0.005000	1.292050	0.983153	-9.102245	-0.324779	0.165924	0.408009	-0.018547	-0.134431	-0.273619
468	2.349587	0.005000	1.223580	1.023810	-9.057300	-0.324890	0.163928	0.408380	-0.045174	-0.142215	-0.266119
469	2.354587	0.005000	1.112323	1.078315	-9.083275	-0.325000	0.161933	0.408751	-0.064302	-0.167377	-0.259378
470	2.359587	0.005000	1.118537	1.089008	-9.172448	-0.325111	0.159938	0.409123	-0.094534	-0.163616	-0.272825
471	2.364587	0.005000	1.190391	1.085695	-9.221400	-0.325222	0.157942	0.409494	-0.103570	-0.177652	-0.249014
472	2.369587	0.005000	1.356669	1.114588	-9.165429	-0.325333	0.155947	0.409865	-0.116678	-0.171781	-0.262031
473	2.374587	0.005000	1.392566	1.572323	-8.285086	-0.325091	0.155506	0.410315	-0.095400	-0.191835	-0.269086
474	2.379587	0.005000	1.076506	1.311946	-8.968934	-0.324648	0.155949	0.410810	-0.106295	-0.205482	-0.256687
475	2.384587	0.005000	0.927843	1.421535	-9.101169	-0.324205	0.156392	0.411305	-0.102477	-0.216623	-0.248163
476	2.389587	0.005000	0.970381	1.252443	-9.182160	-0.323762	0.156835	0.411800	-0.093604	-0.246245	-0.230829
477	2.394587	0.005000	0.956373	1.241067	-9.214094	-0.323319	0.157278	0.412294	-0.110885	-0.272640	-0.218683
478	2.399587	0.005000	0.906930	1.103130	-9.186570	-0.322876	0.157721	0.412789	-0.125344	-0.295056	-0.204874
479	2.404587	0.005000	1.020240	1.216440	-9.259475	-0.322433	0.158164	0.413284	-0.151704	-0.323922	-0.190353
480	2.409587	0.005000	1.020240	1.141318	-9.221400	-0.321990	0.158607	0.413778	-0.187774	-0.338356	-0.199877
481	2.414587	0.005000	0.946752	1.250688	-9.299880	-0.321547	0.159050	0.414273	-0.208092	-0.367118	-0.194830
482	2.419587	0.005000	0.848625	1.146155	-9.401210	-0.321104	0.159493	0.414768	-0.228681	-0.371444	-0.199106
483	2.424587	0.005000	0.846307	1.166066	-9.456840	-0.320661	0.159936	0.415263	-0.257364	-0.399293	-0.183015
484	2.429587	0.005000	0.849004	1.070168	-9.378360	-0.320218	0.160379	0.415757	-0.263871	-0.409015	-0.185691
485	2.434587	0.005000	0.824040	1.059480	-9.400310	-0.319775	0.160822	0.416252	-0.271831	-0.418751	-0.181732
486	2.439587	0.005000	0.824040	1.136024	-9.438188	-0.319296	0.161248	0.416667	-0.265512	-0.403750	-0.165161
487	2.444587	0.005000	0.777176	1.310541	-9.448843	-0.318631	0.161580	0.416667	-0.242326	-0.385037	-0.149441
488	2.449587	0.005000	0.667080	1.425135	-9.510330	-0.317966	0.161912	0.416667	-0.226375	-0.376120	-0.145215
489	2.454587	0.005000	0.637381	1.412640	-9.496080	-0.317302	0.162245	0.416667	-0.192077	-0.333983	-0.132393
490	2.459587	0.005000	0.654373	1.516534	-9.489727	-0.316637	0.162577	0.416667	-0.150855	-0.315650	-0.117428
491	2.464587	0.005000	0.549360	1.730028	-9.453372	-0.315972	0.162910	0.416667	-0.126421	-0.284590	-0.095038
492	2.469587	0.005000	0.588797	1.648473	-9.378163	-0.315307	0.163242	0.416667	-0.103877	-0.234833	-0.105121
493	2.474587	0.005000	0.627840	1.618037	-9.375294	-0.314642	0.163575	0.416667	-0.060439	-0.182187	-0.086104
494	2.479587	0.005000	0.778855	1.614785	-9.345065	-0.313978	0.163907	0.416667	-0.041604	-0.128518	-0.098428
495	2.484587	0.005000	0.814891	1.488474	-9.456840	-0.313313	0.164239	0.416667	-0.027548	-0.092607	-0.097864
496	2.489587	0.005000	1.062415	1.213505	-9.444738	-0.312648	0.164572	0.416667	-0.018806	-0.065496	-0.097121
497	2.494587	0.005000	1.171603	1.113666	-9.529723	-0.311983	0.164904	0.416667	-0.027551	-0.062740	-0.109772
498	2.499587	0.005000	1.258433	0.960003	-9.634797	-0.311318	0.165237	0.416667	-0.044977	-0.073913	-0.121735
499	2.504587	0.005000	1.412640	0.923607	-9.831087	-0.310654	0.165569	0.416667	-0.066145	-0.104861	-0.143357
500	2.509587	0.005000	1.132681	0.986279	-9.927720	-0.310218	0.164983	0.417265	-0.076845	-0.144094	-0.167635
501	2.514587	0.005000	0.894325	1.216440	-9.864763	-0.309886	0.163986	0.418131	-0.125466	-0.184925	-0.172341
502	2.519587	0.005000	0.688924	1.277524	-9.766509	-0.309554	0.162989	0.418997	-0.156302	-0.242501	-0.148864
503	2.524587	0.005000	0.588600	1.261465	-9.602230	-0.309221	0.161992	0.419863	-0.159348	-0.290237	-0.114593
504	2.529587	0.005000	0.549360	1.255680	-9.490997	-0.308889	0.160994	0.420729	-0.187082	-0.324655	-0.094654
505	2.534587	0.005000	0.588297	1.255680	-9.456537	-0.308556	0.159997	0.421595	-0.184424	-0.354545	-0.056742
506	2.539587	0.005000	0.916558	1.227241	-9.706318	-0.308224	0.159000	0.422461	-0.177262	-0.336837	-0.069581
507	2.544587	0.005000	1.339243	1.137960	-9.745183	-0.307891	0.158003	0.423327	-0.189208	-0.332450	-0.085459
508	2.549587	0.005000	1.481363	1.088751	-9.898237	-0.307559	0.157006	0.424193	-0.198582	-0.330546	-0.138078
509	2.554587	0.005000	1.505158	1.060917	-9.968397	-0.307227	0.156008	0.425060	-0.220964	-0.347205	-0.199298
510	2.559587	0.005000	1.295934	1.043581	-10.092123	-0.306894	0.155011	0.425926	-0.259569	-0.366450	-0.231300
511	2.564587	0.005000	1.054216	1.038983	-10.122165	-0.306562	0.154014	0.426792	-0.314456	-0.383680	-0.279126
512	2.569587	0.005000	1.002795	0.941760	-9.875385	-0.306229	0.153017	0.427658	-0.364628	-0.412933	-0.301024
513	2.574587	0.005000	0.973436	0.852721	-9.785101	-0.305824	0.151604	0.428251	-0.367866	-0.425657	-0.304919
514	2.579587	0.005000	0.784800	0.969503	-9.759263	-0.305158	0.148722	0.427880	-0.384003	-0.422555	-0.298295
515	2.584587	0.005000	0.683478	0.933561	-9.675882	-0.304493	0.145840	0.427509	-0.368544	-0.421736	-0.278509
516	2.589587	0.005000	0.661725	0.981000	-9.608445	-0.303828	0.142958	0.427137	-0.350402	-0.390702	-0.291562
517	2.594587	0.005000	0.672102	1.015218	-9.611289	-0.303163	0.140076	0.426766	-0.316734	-0.361633	-0.283951
518	2.599587	0.005000	0.860903	0.941760	-9.574560	-0.302498	0.137194	0.426394	-0.293960	-0.303204	-0.295864
519	2.604587	0.005000	0.709966	1.012949	-9.578206	-0.301833	0.134312	0.426023	-0.257733	-0.249745	-0.293592
520	2.609587	0.005000	0.483859	1.151242	-9.469819	-0.301168	0.131430	0.425652	-0.218395	-0.207371	-0.291799
521	2.614587	0.005000	0.510120	1.147838	-9.407722	-0.300503	0.128547	0.425280	-0.189330	-0.188199	-0.283620
522	2.619587	0.005000	0.326551	1.203809	-9.404969	-0.299838	0.125665	0.424909	-0.173749	-0.175450	-0.251380
523	2.624587	0.005000	0.313920	1.161256	-9.433544	-0.299173	0.122783	0.424538	-0.153104	-0.168516	-0.242731
524	2.629587	0.005000	0.255892	1.216440	-9.475628	-0.298508	0.119901	0.424166	-0.141831	-0.192002	-0.214412
525	2.634587	0.005000	0.358091	1.233594	-9.473994	-0.297843	0.117019	0.423795	-0.137457	-0.223973	-0.203672
526	2.639587	0.005000	0.381781	1.259371	-9.560250	-0.297177	0.114137	0.423424	-0.148463	-0.271612	-0.194963
527	2.644587	0.005000	0.403731	1.300167	-9.507411	-0.296261	0.114690	0.424175	-0.159296	-0.299781	-0.194196
528	2.649587	0.005000	0.526427	1.271987	-9.448686	-0.295263	0.116352	0.425289	-0.153626	-0.321480	-0.216610
529	2.654587	0.005000	0.588600	1.433636	-9.333871	-0.294266	0.118015	0.426403	-0.152649	-0.337547	-0.212002
530	2.659587	0.005000	0.659032	1.567588	-9.178136	-0.293268	0.119678	0.427517	-0.147310	-0.351954	-0.239543
531	2.664587	0.005000	0.510120	1.530360	-9.141634	-0.292270	0.121341	0.428631	-0.134924	-0.378194	-0.266281
532	2.669587	0.005000	0.361450	1.631501	-9.138775	-0.291273	0.123003	0.429745	-0.098008	-0.397957	-0.274199
533	2.674587	0.005000	0.274680	1.673342	-9.232685	-0.290275	0.124666	0.430859	-0.064953	-0.417343	-0.273309
534	2.679587	0.005000	0.108987	1.687320	-9.347853	-0.289277	0.126329	0.431973	-0.043042	-0.445732	-0.265515
535	2.684587	0.005000	-0.039240	1.726560	-9.522038	-0.288280	0.127992	0.433087	-0.035300	-0.464864	-0.259974
536	2.689587	0.005000	-0.203491	1.789066	-9.762077	-0.287282	0.129655	0.434201	-0.048113	-0.494145	-0.220049
537	2.694587	0.005000	-0.373778	1.962666	-9.887814	-0.286284	0.131317	0.435315	-0.085452	-0.504290	-0.200556
538	2.699587	0.005000	-0.482967	2.084742	-10.011222	-0.285287	0.132980	0.436430	-0.131610	-0.506549	-0.158010
539	2.704587	0.005000	-0.537742	2.107342	-9.847047	-0.284289	0.134643	0.437544	-0.160563	-0.497806	-0.098015
540	2.709587	0.005000	-0.527426	2.169167	-9.664007	-0.283356	0.135530	0.438513	-0.174923	-0.516706	-0.054946
541	2.714587	0.005000	-0.446510	2.236680	-9.589430	-0.282580	0.134533	0.439132	-0.195920	-0.526240	0.011189
542	2.719587	0.005000	-0.191390	2.192630	-9.486459	-0.281804	0.133535	0.439751	-0.179904	-0.524230	0.037470
543	2.724587	0.005000	-0.113787	2.201373	-9.409734	-0.281028	0.132537	0.440370	-0.161231	-0.510071	0.053047
544	2.729587	0.005000	-0.039240	2.162148	-9.260640	-0.280252	0.131540	0.440989	-0.160419	-0.483052	0.026832
545	2.734587	0.005000	-0.047590	2.350225	-9.225575	-0.279476	0.130542	0.441608	-0.127712	-0.466181	0.002544
546	2.739587	0.005000	-0.078480	2.347381	-9.092516	-0.278700	0.129544	0.442227	-0.107186	-0.457853	-0.015559
547	2.744587	0.005000	-0.233352	2.422548	-9.151164	-0.277924	0.128547	0.442846	-0.081208	-0.436282	-0.031647
548	2.749587	0.005000	-0.523008	2.589553	-9.195048	-0.277148	0.127549	0.443465	-0.059842	-0.437688	-0.025983
549	2.754587	0.005000	-0.712990	2.573555	-9.025200	-0.276372	0.126551	0.444084	-0.050130	-0.434397	0.010963
550	2.759587	0.005000	-0.745560	2.708165	-9.103680	-0.275596	0.125554	0.444703	-0.041301	-0.432602	0.047983
551	2.764587	0.005000	-0.818957	2.741717	-9.137837	-0.274820	0.124556	0.445322	-0.032673	-0.448043	0.097292
552	2.769587	0.005000	-0.731794	2.864520	-9.209692	-0.274044	0.123558	0.445941	-0.035628	-0.448334	0.147603
553	2.774587	0.005000	-0.645236	2.807884	-9.206031	-0.273268	0.122561	0.446560	-0.034026	-0.460679	0.192292
554	2.779587	0.005000	-0.454724	2.958006	-9.088674	-0.272401	0.122846	0.446974	-0.043733	-0.469235	0.219289
555	2.784587	0.005000	-0.342692	2.854052	-9.048738	-0.271514	0.123401	0.447345	-0.016701	-0.491607	0.246029
556	2.789587	0.005000	-0.233077	2.822917	-8.912206	-0.270627	0.123955	0.447717	-0.021852	-0.499143	0.246792
557	2.794587	0.005000	-0.119535	2.862705	-8.985960	-0.269740	0.124509	0.448088	-0.000369	-0.530600	0.253331
558	2.799587	0.005000	-0.078480	2.900008	-9.245634	-0.268853	0.125064	0.448460	-0.002105	-0.540288	0.237406
559	2.804587	0.005000	-0.110656	2.975176	-9.371296	-0.267967	0.125618	0.448831	-0.009738	-0.534233	0.212076
560	2.809587	0.005000	-0.137143	2.992148	-9.417600	-0.267080	0.126172	0.449202	-0.025431	-0.550670	0.206322
561	2.814587	0.005000	-0.418660	3.021480	-9.574635	-0.266193	0.126726	0.449574	-0.042512	-0.553189	0.199670
562	2.819587	0.005000	-0.424500	3.116010	-9.620940	-0.265306	0.127281	0.449945	-0.075293	-0.550198	0.196844
563	2.824587	0.005000	-0.608706	3.138228	-9.654012	-0.264419	0.127835	0.450316	-0.096693	-0.560620	0.223213
564	2.829587	0.005000	-0.735213	3.122167	-9.562700	-0.263533	0.128389	0.450688	-0.125670	-0.544765	0.253232
565	2.834587	0.005000	-0.919388	3.021480	-9.538161	-0.262646	0.128944	0.451059	-0.126306	-0.534476	0.301551
566	2.839587	0.005000	-1.020240	3.078177	-9.592017	-0.261759	0.129498	0.451430	-0.127136	-0.523546	0.338827
567	2.844587	0.005000	-1.059480	3.021480	-9.574560	-0.260913	0.129972	0.451847	-0.129004	-0.527209	0.382534
568	2.849587	0.005000	-0.985735	3.007276	-9.510284	-0.260137	0.130304	0.452341	-0.120158	-0.505481	0.423104
569	2.854587	0.005000	-0.975327	2.784149	-9.572669	-0.259361	0.130636	0.452836	-0.109003	-0.484114	0.461122
570	2.859587	0.005000	-0.671845	2.670226	-9.497033	-0.258586	0.130969	0.453331	-0.083276	-0.448895	0.495637
571	2.864587	0.005000	-0.566169	2.559004	-9.535320	-0.257810	0.131301	0.453826	-0.064334	-0.418587	0.495217
572	2.869587	0.005000	-0.367349	2.550600	-9.560371	-0.257035	0.131633	0.454321	-0.023303	-0.383144	0.475206
573	2.874587	0.005000	-0.342875	2.432880	-9.574560	-0.256259	0.131966	0.454816	-0.006872	-0.336652	0.431382
574	2.879587	0.005000	-0.353160	2.498109	-9.496080	-0.255483	0.132298	0.455311	0.020881	-0.298514	0.403961
575	2.884587	0.005000	-0.631040	2.651960	-9.597440	-0.254708	0.132630	0.455805	0.042038	-0.258142	0.383651
576	2.889587	0.005000	-0.804193	2.551054	-9.632739	-0.253932	0.132963	0.456300	0.051808	-0.230769	0.387064
577	2.894587	0.005000	-0.930489	2.494558	-9.568924	-0.253156	0.133295	0.456795	0.071098	-0.229965	0.407703
578	2.899587	0.005000	-1.112410	2.444740	-9.613800	-0.252381	0.133627	0.457290	0.072678	-0.224310	0.426603
579	2.904587	0.005000	-1.066553	2.461398	-9.674484	-0.251605	0.133960	0.457785	0.081551	-0.232849	0.450575
580	2.909587	0.005000	-0.808943	2.401188	-9.761714	-0.250830	0.134292	0.458280	0.083040	-0.235062	0.491817
581	2.914587	0.005000	-0.754858	2.404986	-9.985556	-0.250054	0.134822	0.458443	0.079557	-0.253522	0.497995
582	2.919587	0.005000	-0.859105	2.274528	-10.087463	-0.249278	0.135376	0.458567	0.083630	-0.254247	0.518887
583	2.924587	0.005000	-0.745560	2.047741	-10.087584	-0.248503	0.135930	0.458691	0.045348	-0.233701	0.511645
584	2.929587	0.005000	-0.485130	2.070220	-10.079930	-0.247727	0.136484	0.458815	0.047541	-0.214010	0.514965
585	2.934587	0.005000	-0.454422	1.968323	-9.974554	-0.246952	0.137038	0.458938	0.020519	-0.193394	0.510153
586	2.939587	0.005000	-0.556266	1.911982	-9.803094	-0.246176	0.137592	0.459062	0.017056	-0.183421	0.502688
587	2.944587	0.005000	-0.551372	1.897271	-9.576572	-0.245401	0.138146	0.459186	0.012852	-0.166016	0.501520
588	2.949587	0.005000	-0.610987	1.805040	-9.412067	-0.244625	0.138701	0.459310	0.037180	-0.153304	0.505403
589	2.954587	0.005000	-0.726212	1.805040	-9.319772	-0.243850	0.139255	0.459433	0.070711	-0.153447	0.513470
590	2.959587	0.005000	-0.755247	1.870276	-9.378360	-0.243074	0.139809	0.459557	0.113167	-0.155892	0.525962
591	2.964587	0.005000	-0.824040	1.870329	-9.404742	-0.242299	0.140363	0.459681	0.152991	-0.148791	0.545823
592	2.969587	0.005000	-0.794360	1.834387	-9.535320	-0.241523	0.140917	0.459805	0.185271	-0.126211	0.575377
593	2.974587	0.005000	-0.599643	1.669228	-9.556468	-0.240747	0.141471	0.459928	0.184348	-0.098779	0.585280
594	2.979587	0.005000	-0.340544	1.678909	-9.661451	-0.240252	0.142258	0.460000	0.203308	-0.094426	0.599165
595	2.984587	0.005000	-0.116375	1.607495	-9.770760	-0.240141	0.143366	0.460000	0.190996	-0.046487	0.580264
596	2.989587	0.005000	-0.003903	1.457734	-9.845337	-0.240031	0.144474	0.460000	0.191803	-0.027343	0.547976
597	2.994587	0.005000	-0.083275	1.417435	-9.731520	-0.239920	0.145582	0.460000	0.169849	-0.014379	0.515960
598	2.999587	0.005000	-0.008093	1.255680	-9.661133	-0.239809	0.146690	0.460000	0.169525	-0.011588	0.484099
599	3.004587	0.005000	-0.067543	1.148897	-9.568131	-0.239698	0.147798	0.460000	0.157122	-0.022601	0.466914
600	3.009587	0.005000	-0.103470	1.230690	-9.421110	-0.239587	0.148906	0.460000	0.146472	-0.021594	0.430111
601	3.014587	0.005000	-0.144919	1.255680	-9.211295	-0.239476	0.150014	0.460000	0.164768	-0.035013	0.403859
602	3.019587	0.005000	-0.235440	1.197591	-9.182160	-0.239366	0.151122	0.460000	0.175670	-0.049938	0.400794
603	3.024587	0.005000	-0.329925	1.161195	-9.253409	-0.239255	0.152230	0.460000	0.186381	-0.072564	0.392383
604	3.029587	0.005000	-0.301228	1.032932	-9.377195	-0.239144	0.153338	0.460000	0.200188	-0.079356	0.407991
605	3.034587	0.005000	-0.186465	0.961530	-9.926823	-0.239033	0.154446	0.460000	0.172890	-0.081068	0.404518
606	3.039587	0.005000	0.065440	0.640880	-10.993932	-0.238922	0.155554	0.460000	0.099895	-0.052074	0.400668
607	3.044587	0.005000	0.444589	0.389163	-11.941909	-0.238811	0.156662	0.460000	-0.066033	0.030191	0.364142
608	3.049587	0.005000	0.667080	0.473633	-11.689587	-0.238911	0.156189	0.459765	-0.178192	0.084471	0.304118
609	3.054587	0.005000	0.776186	0.927404	-10.973801	-0.239022	0.155635	0.459517	-0.226188	0.099571	0.260623
610	3.059587	0.005000	0.625463	0.730895	-10.257695	-0.239133	0.155081	0.459270	-0.249060	0.074138	0.221112
611	3.064587	0.005000	0.310925	0.597661	-9.598748	-0.239244	0.154527	0.459022	-0.239051	0.025452	0.215517
612	3.069587	0.005000	0.142438	0.667080	-9.312239	-0.239355	0.153973	0.458775	-0.178046	-0.023087	0.207906
613	3.074587	0.005000	0.039240	0.832874	-9.212566	-0.239466	0.153419	0.458527	-0.115702	-0.072861	0.189120
614	3.079587	0.005000	-0.020724	0.881796	-9.163644	-0.239576	0.152865	0.458280	-0.048354	-0.088810	0.174577
615	3.084587	0.005000	-0.035352	0.973224	-9.409824	-0.239687	0.152311	0.458033	0.016525	-0.098061	0.161697
616	3.089587	0.005000	-0.029165	1.113303	-9.510663	-0.239798	0.151757	0.457785	0.085002	-0.102770	0.173053
617	3.094587	0.005000	-0.011270	1.278220	-9.765329	-0.239909	0.151203	0.457538	0.099840	-0.097957	0.177377
618	3.099587	0.005000	-0.016852	1.390252	-10.014626	-0.240020	0.150650	0.457290	0.091665	-0.075212	0.181710
619	3.104587	0.005000	-0.088736	1.381871	-9.876439	-0.240131	0.150096	0.457043	0.061165	-0.007464	0.160061
620	3.109587	0.005000	-0.165989	1.048194	-8.676031	-0.240241	0.149542	0.456795	0.063308	0.043928	0.147769
621	3.114587	0.005000	-0.543188	1.092548	-6.232837	-0.240352	0.149840	0.456489	0.188030	0.101658	0.133780
622	3.119587	0.005000	-0.968169	1.556769	-5.938818	-0.240463	0.151059	0.456117	0.424089	0.182142	0.164044
623	3.124587	0.005000	-0.688591	1.362841	-7.016396	-0.240574	0.152278	0.455746	0.633489	0.282351	0.210584
624	3.129587	0.005000	-0.395093	1.205957	-7.277674	-0.240685	0.153496	0.455375	0.700612	0.377801	0.216652
625	3.134587	0.005000	0.100837	1.085097	-7.969563	-0.240795	0.154715	0.455004	0.799741	0.408528	0.201098
626	3.139587	0.005000	0.212825	1.187834	-9.122997	-0.240906	0.155934	0.454633	0.778066	0.423260	0.146673
627	3.144587	0.005000	0.215902	1.020076	-9.339613	-0.241017	0.157153	0.454261	0.701405	0.437225	0.107561
628	3.149587	0.005000	0.101262	0.820228	-8.916314	-0.241128	0.158372	0.453890	0.611775	0.392530	0.064134
629	3.154587	0.005000	-0.013459	0.588600	-8.763979	-0.241238	0.159591	0.453519	0.548120	0.288798	0.015120
630	3.159587	0.005000	-0.068285	0.607450	-8.692430	-0.241349	0.160809	0.453148	0.452827	0.149102	-0.032722
631	3.164587	0.005000	-0.046164	0.521665	-8.711280	-0.241460	0.162028	0.452777	0.370370	0.014122	-0.055123
632	3.169587	0.005000	0.011119	0.439052	-9.068146	-0.241571	0.163247	0.452406	0.289305	-0.119863	-0.101944
633	3.174587	0.005000	0.279792	0.470028	-9.223956	-0.241681	0.164466	0.452034	0.206576	-0.232391	-0.144251
634	3.179587	0.005000	0.546909	0.542008	-9.412699	-0.241785	0.165671	0.451672	0.123329	-0.293953	-0.225620
635	3.184587	0.005000	0.779117	0.594283	-9.311245	-0.241231	0.165560	0.452167	0.075870	-0.360475	-0.289939
636	3.189587	0.005000	0.776208	0.798263	-9.229992	-0.240677	0.165449	0.452662	0.027454	-0.407941	-0.360250
637	3.194587	0.005000	0.306871	0.929855	-9.233305	-0.240123	0.165338	0.453157	0.010822	-0.476084	-0.391484
638	3.199587	0.005000	-0.279415	0.975993	-9.309622	-0.239569	0.165228	0.453652	-0.007334	-0.504298	-0.412256
639	3.204587	0.005000	-0.577878	1.123679	-9.606637	-0.239015	0.165117	0.454146	0.047588	-0.555125	-0.384925
640	3.209587	0.005000	-0.743019	1.467688	-9.959336	-0.238461	0.165006	0.454641	0.048140	-0.607013	-0.342541
641	3.214587	0.005000	-0.793395	1.591649	-10.272285	-0.237907	0.164895	0.455136	0.027130	-0.598065	-0.286341
642	3.219587	0.005000	-0.826702	1.726560	-10.374215	-0.237353	0.164784	0.455631	-0.007241	-0.544640	-0.217774
643	3.224587	0.005000	-0.775558	1.608840	-10.368602	-0.236799	0.164673	0.456126	-0.016209	-0.459824	-0.175995
644	3.229587	0.005000	-0.401386	1.669167	-10.404651	-0.236245	0.164562	0.456621	-0.013800	-0.346036	-0.155027
645	3.234587	0.005000	-0.109506	1.488382	-10.477080	-0.235691	0.164452	0.457116	0.011292	-0.221499	-0.116641
646	3.239587	0.005000	0.078268	1.412746	-10.555348	-0.235137	0.164341	0.457611	0.042567	-0.089244	-0.124231
647	3.244587	0.005000	0.232036	1.259084	-10.594800	-0.234583	0.164230	0.458105	0.076528	0.006579	-0.126107
648	3.249587	0.005000	0.262185	1.288672	-10.483328	-0.234747	0.164777	0.458199	0.083808	0.113525	-0.148016
649	3.254587	0.005000	0.047802	1.334160	-10.378481	-0.235522	0.165885	0.457952	0.127952	0.167349	-0.167455
650	3.259587	0.005000	-0.117720	1.334160	-10.175866	-0.236298	0.166993	0.457705	0.148942	0.211112	-0.177347
651	3.264587	0.005000	-0.078480	1.436178	-10.131756	-0.237074	0.168101	0.457457	0.204689	0.237816	-0.176652
652	3.269587	0.005000	-0.197410	1.549375	-10.004990	-0.237849	0.169209	0.457210	0.241503	0.236679	-0.178036
653	3.274587	0.005000	-0.309045	1.552418	-9.927720	-0.238625	0.170317	0.456962	0.264282	0.233423	-0.179317
654	3.279587	0.005000	-0.299837	1.477037	-9.784843	-0.239401	0.171425	0.456715	0.279017	0.232904	-0.174493
655	3.284587	0.005000	-0.185093	1.401533	-9.726333	-0.240176	0.172533	0.456467	0.287693	0.232574	-0.169123
656	3.289587	0.005000	-0.109778	1.302393	-9.660982	-0.240952	0.173641	0.456220	0.295081	0.239898	-0.184054
657	3.294587	0.005000	-0.108462	1.089462	-9.648411	-0.241727	0.174749	0.455973	0.298467	0.251378	-0.201874
658	3.299587	0.005000	0.041004	1.018476	-9.661860	-0.242503	0.175857	0.455725	0.297890	0.272704	-0.234487
659	3.304587	0.005000	0.078480	1.094136	-9.886952	-0.243279	0.176965	0.455478	0.308229	0.298674	-0.252701
660	3.309587	0.005000	0.008713	1.181557	-9.853597	-0.244054	0.178073	0.455230	0.310930	0.329544	-0.270511
661	3.314587	0.005000	0.000000	1.161861	-10.037771	-0.244822	0.179066	0.454966	0.307316	0.327379	-0.283907
662	3.319587	0.005000	-0.010842	1.205598	-10.006200	-0.245487	0.178512	0.454471	0.302665	0.329507	-0.295579
663	3.324587	0.005000	-0.092291	1.345778	-10.096298	-0.246151	0.177958	0.453976	0.301045	0.321539	-0.305998
664	3.329587	0.005000	-0.078480	1.368004	-10.067758	-0.246816	0.177404	0.453482	0.305214	0.286590	-0.303275
665	3.334587	0.005000	-0.117720	1.157928	-9.909144	-0.247480	0.176851	0.452987	0.291532	0.272301	-0.307126
666	3.339587	0.005000	-0.007291	1.161226	-9.810000	-0.248145	0.176297	0.452492	0.304245	0.229467	-0.311847
667	3.344587	0.005000	0.039240	1.112009	-9.757785	-0.248809	0.175743	0.451997	0.296126	0.204351	-0.312425
668	3.349587	0.005000	0.049058	1.010422	-9.662827	-0.249474	0.175190	0.451503	0.319987	0.188378	-0.326235
669	3.354587	0.005000	0.064533	0.877227	-9.592879	-0.250138	0.174636	0.451008	0.322703	0.176657	-0.341362
670	3.359587	0.005000	0.000000	0.898437	-9.496080	-0.250803	0.174082	0.450513	0.343903	0.190343	-0.354487
671	3.364587	0.005000	0.039240	0.860784	-9.575392	-0.251467	0.173528	0.450018	0.358104	0.210463	-0.352949
672	3.369587	0.005000	0.076028	0.782348	-9.650588	-0.252132	0.172975	0.449524	0.379449	0.243619	-0.355621
673	3.374587	0.005000	0.039240	0.863280	-9.726195	-0.252796	0.172421	0.449029	0.388894	0.269263	-0.352396
674	3.379587	0.005000	0.139912	0.801848	-9.591608	-0.253461	0.171867	0.448534	0.393083	0.302409	-0.347625
675	3.384587	0.005000	0.140653	0.863280	-9.724894	-0.254257	0.172168	0.447893	0.404547	0.316260	-0.361288
676	3.389587	0.005000	0.078480	0.824040	-9.755981	-0.255143	0.173054	0.447150	0.425715	0.318767	-0.373134
677	3.394587	0.005000	0.100097	0.780806	-9.749143	-0.256030	0.173940	0.446408	0.422042	0.323890	-0.393582
678	3.399587	0.005000	0.138641	0.878997	-9.943437	-0.256916	0.174827	0.445666	0.427728	0.310935	-0.391034
679	3.404587	0.005000	0.102245	0.996475	-10.021675	-0.257802	0.175713	0.444923	0.411905	0.300689	-0.391870
680	3.409587	0.005000	0.117720	0.872689	-10.054849	-0.258689	0.176599	0.444181	0.429017	0.295139	-0.400313
681	3.414587	0.005000	0.096904	0.763984	-10.214005	-0.259575	0.177486	0.443439	0.426629	0.305112	-0.415018
682	3.419587	0.005000	0.208241	0.935739	-10.133057	-0.260462	0.178372	0.442696	0.429104	0.327317	-0.428099
683	3.424587	0.005000	0.313920	0.905228	-9.851948	-0.261348	0.179259	0.441954	0.457057	0.352986	-0.438942
684	3.429587	0.005000	0.313920	0.707137	-9.732065	-0.262235	0.180145	0.441212	0.459559	0.386130	-0.452180
685	3.434587	0.005000	0.274680	0.598902	-9.699148	-0.263121	0.181031	0.440469	0.482253	0.421680	-0.467825
686	3.439587	0.005000	0.156960	0.438307	-9.738187	-0.264008	0.181918	0.439727	0.485220	0.463181	-0.480949
687	3.444587	0.005000	0.156960	0.333101	-9.780351	-0.264894	0.182804	0.438984	0.484966	0.497127	-0.501768
688	3.449587	0.005000	0.249198	0.260922	-9.744261	-0.265821	0.183596	0.438303	0.485257	0.525067	-0.513050
689	3.454587	0.005000	0.368711	0.345203	-9.810000	-0.267040	0.183706	0.438055	0.476812	0.559956	-0.515491
690	3.459587	0.005000	0.492899	0.312321	-9.869660	-0.268259	0.183817	0.437808	0.489480	0.576308	-0.509693
691	3.464587	0.005000	0.579524	0.292031	-9.905831	-0.269478	0.183928	0.437560	0.477509	0.600521	-0.495788
692	3.469587	0.005000	0.599734	0.196200	-9.902533	-0.270696	0.184039	0.437313	0.483128	0.597992	-0.479999
693	3.474587	0.005000	0.661468	0.156960	-9.843628	-0.271915	0.184150	0.437066	0.481801	0.597301	-0.461274
694	3.479587	0.005000	0.635736	0.156960	-9.927720	-0.273134	0.184261	0.436818	0.475678	0.601004	-0.463945
695	3.484587	0.005000	0.735571	0.122715	-9.775755	-0.274353	0.184371	0.436571	0.465394	0.572327	-0.450789
696	3.489587	0.005000	0.661816	0.122984	-9.769005	-0.275572	0.184482	0.436323	0.443063	0.545450	-0.425654
697	3.494587	0.005000	0.511660	0.122339	-9.656119	-0.276791	0.184593	0.436076	0.447488	0.514731	-0.416661
698	3.499587	0.005000	0.510120	0.117720	-9.722716	-0.278009	0.184704	0.435828	0.426032	0.491864	-0.394795
699	3.504587	0.005000	0.588600	0.227828	-9.636635	-0.279228	0.184815	0.435581	0.406286	0.484721	-0.398376
700	3.509587	0.005000	0.656536	0.292833	-9.506624	-0.280447	0.184926	0.435334	0.416150	0.472745	-0.395190
701	3.514587	0.005000	0.720013	0.366853	-9.521627	-0.281666	0.185036	0.435086	0.413726	0.486193	-0.396915
702	3.519587	0.005000	0.745560	0.173660	-9.496080	-0.282957	0.185219	0.433790	0.431392	0.505075	-0.398259
703	3.524587	0.005000	0.784800	0.118019	-9.398429	-0.284286	0.185441	0.431934	0.426059	0.535217	-0.398355
704	3.529587	0.005000	0.863280	0.134118	-9.361962	-0.285616	0.185663	0.430078	0.437935	0.553973	-0.422391
705	3.534587	0.005000	0.928366	0.156960	-9.378360	-0.286946	0.185884	0.428222	0.444308	0.564899	-0.422290
706	3.539587	0.005000	0.912761	0.206441	-9.388601	-0.288275	0.186106	0.426366	0.438342	0.588171	-0.436410
707	3.544587	0.005000	0.763970	0.313920	-9.385303	-0.289605	0.186327	0.424510	0.448405	0.582869	-0.454774
708	3.549587	0.005000	0.714519	0.301622	-9.496080	-0.290934	0.186549	0.422654	0.445731	0.595456	-0.468950
709	3.554587	0.005000	0.743200	0.273893	-9.419960	-0.292264	0.186771	0.420798	0.441468	0.604711	-0.491552
710	3.559587	0.005000	0.665023	0.161075	-9.498137	-0.293594	0.186992	0.418943	0.441185	0.600904	-0.491511
711	3.564587	0.005000	0.515475	0.089190	-9.422955	-0.294923	0.187214	0.417087	0.446078	0.610964	-0.503419
712	3.569587	0.005000	0.431640	0.078480	-9.473971	-0.296253	0.187435	0.415231	0.445877	0.597217	-0.496571
713	3.574587	0.005000	0.510120	0.106208	-9.417600	-0.297582	0.187657	0.413375	0.442388	0.589155	-0.482948
714	3.579587	0.005000	0.510120	-0.009621	-9.270261	-0.298912	0.187879	0.411519	0.435101	0.568064	-0.487826
715	3.584587	0.005000	0.506697	0.000000	-9.239308	-0.300181	0.188221	0.409955	0.443944	0.535717	-0.474627
716	3.589587	0.005000	0.664387	0.020966	-9.281606	-0.301178	0.189107	0.409708	0.422065	0.500960	-0.464899
717	3.594587	0.005000	0.579867	0.015253	-9.190893	-0.302176	0.189994	0.409460	0.404942	0.466312	-0.442583
718	3.599587	0.005000	0.796932	-0.114876	-9.185004	-0.303173	0.190880	0.409213	0.380614	0.448202	-0.430619
719	3.604587	0.005000	0.893701	-0.178562	-9.151739	-0.304170	0.191767	0.408965	0.375323	0.422221	-0.415924
720	3.609587	0.005000	0.857305	-0.174886	-9.188135	-0.305167	0.192653	0.408718	0.340883	0.407851	-0.406028
721	3.614587	0.005000	0.775513	-0.196200	-9.103680	-0.306164	0.193539	0.408470	0.333983	0.378597	-0.389898
722	3.619587	0.005000	0.667080	-0.196200	-9.025533	-0.307162	0.194426	0.408223	0.313496	0.367633	-0.365850
723	3.624587	0.005000	0.624402	-0.046116	-9.032076	-0.308159	0.195312	0.407976	0.282419	0.362427	-0.342475
724	3.629587	0.005000	0.522766	-0.131667	-9.182160	-0.309156	0.196198	0.407728	0.253655	0.342284	-0.299221
725	3.634587	0.005000	0.519741	-0.107343	-9.270261	-0.310153	0.197085	0.407481	0.219983	0.334965	-0.280864
726	3.639587	0.005000	0.442259	-0.114029	-9.169695	-0.311151	0.197971	0.407233	0.187324	0.336660	-0.253348
727	3.644587	0.005000	0.509712	-0.101942	-9.104088	-0.312148	0.198858	0.406986	0.157941	0.346297	-0.231988
728	3.649587	0.005000	0.510120	-0.081531	-9.301405	-0.313145	0.199744	0.406738	0.145520	0.369333	-0.240176
729	3.654587	0.005000	0.470880	-0.139639	-9.282559	-0.313748	0.199764	0.406491	0.130452	0.378355	-0.224063
730	3.659587	0.005000	0.521344	-0.103712	-9.145703	-0.314191	0.199431	0.406243	0.106716	0.388260	-0.222989
731	3.664587	0.005000	0.420476	-0.106556	-9.204821	-0.314635	0.199099	0.405996	0.108084	0.368342	-0.186324
732	3.669587	0.005000	0.431640	0.055690	-8.979619	-0.315078	0.198766	0.405748	0.090842	0.344233	-0.167896
733	3.674587	0.005000	0.426618	-0.078480	-9.059418	-0.315521	0.198434	0.405501	0.087438	0.308018	-0.139490
734	3.679587	0.005000	0.469171	-0.035821	-9.103680	-0.315964	0.198101	0.405253	0.075785	0.266149	-0.097695
735	3.684587	0.005000	0.469745	0.039240	-9.103680	-0.316407	0.197769	0.405006	0.067958	0.232174	-0.074359
736	3.689587	0.005000	0.466498	0.043622	-9.073203	-0.316851	0.197437	0.404758	0.064106	0.202456	-0.049417
737	3.694587	0.005000	0.603152	0.000000	-9.142920	-0.317294	0.197104	0.404511	0.063233	0.172444	-0.035310
738	3.699587	0.005000	-0.141264	0.512736	-9.603336	-0.317737	0.196772	0.404263	0.063850	0.165197	-0.016015
739	3.704587	0.005000	0.073185	-0.050555	-9.287506	-0.318180	0.196439	0.404016	-0.013992	0.097922	0.052236
740	3.709587	0.005000	0.403957	-1.037576	-8.968624	-0.318623	0.196107	0.403768	-0.071449	-0.011265	0.078903
741	3.714587	0.005000	0.726167	-0.902248	-8.593469	-0.319066	0.195774	0.403521	0.026333	-0.097149	0.065689
742	3.719587	0.005000	1.036593	-0.523190	-8.743985	-0.319456	0.195469	0.403303	0.131006	-0.081956	0.029442
743	3.724587	0.005000	0.955937	0.091834	-8.868240	-0.319678	0.195247	0.403180	0.128359	-0.053861	0.034324
744	3.729587	0.005000	1.118901	-0.031392	-8.730339	-0.319899	0.195026	0.403056	-0.000573	-0.007943	0.040586
745	3.734587	0.005000	1.110368	-0.399298	-8.727224	-0.320121	0.194804	0.402932	-0.035149	0.022502	0.057949
746	3.739587	0.005000	1.002239	-0.178199	-9.160921	-0.320342	0.194583	0.402809	-0.033984	0.052577	0.098956
747	3.744587	0.005000	0.745560	0.119233	-9.499105	-0.320564	0.194361	0.402685	-0.038623	0.098332	0.136170
748	3.749587	0.005000	0.782712	0.270505	-9.690192	-0.320785	0.194140	0.402562	-0.068096	0.131563	0.167427
749	3.754587	0.005000	0.907920	0.347760	-9.697680	-0.321007	0.193918	0.402438	-0.118631	0.153454	0.170146
750	3.759587	0.005000	1.025085	0.244039	-9.543919	-0.321228	0.193697	0.402314	-0.145518	0.166374	0.154025
751	3.764587	0.005000	1.087178	0.180044	-9.452226	-0.321450	0.193475	0.402191	-0.176258	0.167735	0.136164
752	3.769587	0.005000	1.089190	-0.024385	-9.378360	-0.321671	0.193254	0.402067	-0.196891	0.185188	0.095721
753	3.774587	0.005000	0.998699	-0.074638	-9.356819	-0.321893	0.193032	0.401943	-0.186998	0.189853	0.072471
754	3.779587	0.005000	1.077723	0.018243	-9.360117	-0.322114	0.192811	0.401820	-0.191830	0.205400	0.043550
755	3.784587	0.005000	1.044549	-0.039240	-9.329741	-0.322336	0.192589	0.401696	-0.185811	0.209527	0.011141
756	3.789587	0.005000	0.893413	0.090567	-9.465947	-0.322642	0.192198	0.401572	-0.185813	0.208627	0.004292
757	3.794587	0.005000	0.841618	0.117720	-9.605011	-0.322974	0.191755	0.401449	-0.173186	0.196911	-0.010199
758	3.799587	0.005000	0.935885	0.217816	-9.658915	-0.323307	0.191312	0.401325	-0.149389	0.201784	-0.022859
759	3.804587	0.005000	0.902520	0.193568	-9.762864	-0.323639	0.190869	0.401201	-0.144318	0.197691	-0.041455
760	3.809587	0.005000	0.979684	0.234124	-9.691622	-0.323972	0.190426	0.401077	-0.141164	0.188219	-0.063467
761	3.814587	0.005000	1.048951	0.042750	-9.574560	-0.324304	0.189982	0.400954	-0.133889	0.183342	-0.089967
762	3.819587	0.005000	1.006595	0.071658	-9.542142	-0.324637	0.189539	0.400830	-0.142776	0.158019	-0.129421
763	3.824587	0.005000	1.040147	0.127386	-9.515987	-0.324969	0.189096	0.400706	-0.136905	0.144093	-0.148279
764	3.829587	0.005000	1.006632	0.052056	-9.679464	-0.325301	0.188653	0.400582	-0.125580	0.134501	-0.179773
765	3.834587	0.005000	0.856209	-0.030226	-9.685209	-0.325634	0.188210	0.400459	-0.121079	0.122192	-0.189674
766	3.839587	0.005000	0.763682	0.000998	-9.534322	-0.325966	0.187766	0.400335	-0.116064	0.120232	-0.188695
767	3.844587	0.005000	0.857683	0.050464	-9.473661	-0.326299	0.187323	0.400211	-0.117971	0.118597	-0.178663
768	3.849587	0.005000	0.888708	0.196200	-9.496080	-0.326631	0.186880	0.400087	-0.117035	0.112784	-0.158179
769	3.854587	0.005000	0.798883	0.274680	-9.517409	-0.326996	0.186697	0.399891	-0.108721	0.120045	-0.158199
770	3.859587	0.005000	1.035703	0.149229	-9.629263	-0.327439	0.187140	0.399520	-0.095483	0.122727	-0.131705
771	3.864587	0.005000	1.225486	0.048286	-9.736043	-0.327883	0.187584	0.399149	-0.099431	0.143553	-0.126813
772	3.869587	0.005000	1.413850	0.197410	-9.732730	-0.328326	0.188027	0.398777	-0.074955	0.149069	-0.106662
773	3.874587	0.005000	1.527093	0.197834	-9.845973	-0.328769	0.188470	0.398406	-0.080260	0.163157	-0.091789
774	3.879587	0.005000	1.456358	0.265725	-9.884002	-0.329212	0.188913	0.398035	-0.054734	0.170912	-0.084023
775	3.884587	0.005000	1.569600	0.203975	-9.927720	-0.329655	0.189356	0.397664	-0.029617	0.176544	-0.062438
776	3.889587	0.005000	1.540979	0.206819	-10.016819	-0.330098	0.189799	0.397293	-0.015273	0.178327	-0.039710
777	3.894587	0.005000	1.648080	0.196200	-9.876775	-0.330542	0.190243	0.396922	-0.001805	0.181259	-0.022592
778	3.899587	0.005000	1.653254	0.146612	-9.787793	-0.330985	0.190686	0.396550	-0.003099	0.178021	-0.016612
779	3.904587	0.005000	1.588766	0.058406	-9.672206	-0.331428	0.191129	0.396179	-0.005478	0.182025	0.003778
780	3.909587	0.005000	1.655613	-0.039240	-9.715667	-0.331871	0.191572	0.395808	-0.002811	0.191897	0.035540
781	3.914587	0.005000	1.608840	0.039452	-9.640031	-0.332314	0.192015	0.395437	-0.010827	0.196035	0.029902
782	3.919587	0.005000	1.697032	-0.039240	-9.525608	-0.332758	0.192459	0.395066	-0.024026	0.196684	0.061790
783	3.924587	0.005000	1.805040	-0.013573	-9.560987	-0.333018	0.192537	0.394796	-0.038560	0.207752	0.065841
784	3.929587	0.005000	1.733589	-0.025183	-9.417600	-0.333240	0.192537	0.394549	-0.035510	0.212649	0.081143
785	3.934587	0.005000	1.611154	0.201858	-9.181646	-0.333461	0.192537	0.394302	-0.028541	0.215191	0.080164
786	3.939587	0.005000	2.035306	0.546335	-9.286946	-0.333683	0.192537	0.394054	0.040089	0.255858	0.043712
787	3.944587	0.005000	2.230780	0.164917	-9.776660	-0.333904	0.192537	0.393807	0.089147	0.312594	0.024016
788	3.949587	0.005000	2.185477	0.193329	-9.846369	-0.334126	0.192537	0.393560	0.087070	0.331605	0.036775
789	3.954587	0.005000	2.076604	0.317036	-9.830966	-0.334347	0.192537	0.393313	0.116496	0.317352	0.101087
790	3.959587	0.005000	1.914228	0.148428	-9.596736	-0.334569	0.192537	0.393065	0.094944	0.279789	0.150623
791	3.964587	0.005000	1.862719	-0.002363	-9.078153	-0.334790	0.192537	0.392818	0.077429	0.223462	0.197857
792	3.969587	0.005000	1.805040	-0.239192	-9.099928	-0.335012	0.192537	0.392571	0.093341	0.159835	0.246836
793	3.974587	0.005000	1.701751	-0.249871	-9.246209	-0.335233	0.192537	0.392323	0.117965	0.097295	0.251224
794	3.979587	0.005000	1.636493	-0.263093	-9.249053	-0.335455	0.192537	0.392076	0.103877	0.041569	0.262642
795	3.984587	0.005000	1.703899	-0.148670	-9.260640	-0.335676	0.192537	0.391829	0.119917	-0.000405	0.264215
796	3.989587	0.005000	1.637188	0.000000	-9.271532	-0.335667	0.192806	0.391710	0.148499	-0.050547	0.272813
797	3.994587	0.005000	1.569600	-0.043506	-9.339120	-0.335224	0.193581	0.391834	0.155623	-0.084398	0.289848
798	3.999587	0.005000	1.608129	-0.117720	-9.416178	-0.334781	0.194357	0.391957	0.144100	-0.102388	0.297430
799	4.004587	0.005000	1.628266	0.317494	-9.645114	-0.334338	0.195133	0.392081	0.127288	-0.148751	0.307757
800	4.009587	0.005000	1.511678	0.327625	-9.366531	-0.333895	0.195908	0.392205	0.103107	-0.176069	0.274799
801	4.014587	0.005000	1.393731	-0.164282	-9.839075	-0.333451	0.196684	0.392328	0.157226	-0.214670	0.240694
802	4.019587	0.005000	1.150758	-0.013009	-9.796779	-0.333008	0.197460	0.392452	0.192216	-0.228333	0.202098
803	4.024587	0.005000	1.020240	0.039240	-9.731520	-0.332565	0.198235	0.392576	0.256427	-0.250346	0.182157
804	4.029587	0.005000	1.078631	0.039240	-9.751609	-0.332122	0.199011	0.392699	0.284479	-0.269546	0.183998
805	4.034587	0.005000	1.109808	-0.016776	-9.748296	-0.331679	0.199786	0.392823	0.290655	-0.272383	0.187482
806	4.039587	0.005000	1.191132	-0.184824	-9.653040	-0.331235	0.200562	0.392947	0.304765	-0.273190	0.192423
807	4.044587	0.005000	1.159229	-0.256709	-9.688982	-0.330792	0.201338	0.393070	0.311514	-0.258612	0.188826
808	4.049587	0.005000	1.177200	-0.290824	-9.566861	-0.330349	0.202113	0.393194	0.341697	-0.252617	0.186144
809	4.054587	0.005000	1.159289	-0.122198	-9.387315	-0.329906	0.202889	0.393318	0.341791	-0.230918	0.182248
810	4.059587	0.005000	0.987460	-0.155345	-9.415985	-0.329463	0.202888	0.393441	0.338898	-0.210377	0.187834
811	4.064587	0.005000	1.062808	-0.230448	-9.415936	-0.329019	0.202777	0.393565	0.334188	-0.201260	0.191756
812	4.069587	0.005000	0.994524	-0.339636	-9.378360	-0.328576	0.202666	0.393689	0.310930	-0.163588	0.182228
813	4.074587	0.005000	1.059480	-0.274680	-9.362718	-0.328133	0.202556	0.393813	0.292644	-0.147962	0.185432
814	4.079587	0.005000	1.059480	-0.274680	-9.339120	-0.327690	0.202445	0.393936	0.262421	-0.127367	0.167610
815	4.084587	0.005000	1.137960	-0.350513	-9.325158	-0.327247	0.202334	0.394060	0.244634	-0.122444	0.160555
816	4.089587	0.005000	1.104347	-0.308293	-9.260640	-0.326804	0.202223	0.394184	0.226868	-0.109286	0.138208
817	4.094587	0.005000	1.118839	-0.294799	-9.319999	-0.326360	0.202113	0.394308	0.199317	-0.090811	0.126891
818	4.099587	0.005000	1.092034	-0.235440	-9.378360	-0.325917	0.202002	0.394431	0.184861	-0.087439	0.127034
819	4.104587	0.005000	1.229419	-0.222158	-9.273922	-0.325474	0.201891	0.394555	0.163905	-0.063174	0.109901
820	4.109587	0.005000	1.324144	-0.255471	-9.290687	-0.325031	0.201780	0.394679	0.163601	-0.048509	0.116214
821	4.114587	0.005000	1.308565	-0.274680	-9.299880	-0.324588	0.201670	0.394803	0.151822	-0.035446	0.129133
822	4.119587	0.005000	1.326294	-0.286479	-9.339120	-0.324144	0.201559	0.394926	0.127061	-0.010677	0.122357
823	4.124587	0.005000	1.334160	-0.353160	-9.379705	-0.323791	0.202077	0.395050	0.091052	-0.007652	0.149971
824	4.129587	0.005000	1.224336	-0.353160	-9.420232	-0.323570	0.203518	0.395174	0.066774	-0.001936	0.164634
825	4.134587	0.005000	1.154388	-0.274680	-9.339120	-0.323348	0.204958	0.395298	0.056240	-0.008154	0.182761
826	4.139587	0.005000	1.137960	-0.265906	-9.378360	-0.323126	0.206398	0.395421	0.040273	-0.015175	0.203157
827	4.144587	0.005000	1.056072	-0.156960	-9.444896	-0.322905	0.207839	0.395545	0.040647	-0.023878	0.218914
828	4.149587	0.005000	0.981000	-0.078480	-9.471771	-0.322683	0.209279	0.395669	0.038367	-0.044579	0.240273
829	4.154587	0.005000	0.938977	-0.039240	-9.417600	-0.322462	0.210720	0.395793	0.034165	-0.061619	0.225909
830	4.159587	0.005000	0.963047	-0.057193	-9.453506	-0.322240	0.212160	0.395916	0.047226	-0.109222	0.226518
831	4.164587	0.005000	1.005385	-0.093335	-9.456840	-0.322018	0.213601	0.396040	0.038945	-0.152955	0.199296
832	4.169587	0.005000	0.918013	-0.015493	-9.441347	-0.321797	0.215041	0.396164	0.068399	-0.234709	0.180577
833	4.174587	0.005000	0.815327	0.008713	-9.448127	-0.321575	0.216481	0.396288	0.075563	-0.296226	0.163227
834	4.179587	0.005000	0.740160	0.083880	-9.446039	-0.321354	0.217922	0.396411	0.099808	-0.380178	0.153794
835	4.184587	0.005000	0.743004	0.075924	-9.339120	-0.321132	0.219362	0.396535	0.126565	-0.449500	0.150597
836	4.189587	0.005000	0.821842	0.077747	-9.339120	-0.320910	0.220803	0.396659	0.161470	-0.491102	0.158792
837	4.194587	0.005000	0.852525	-0.035655	-9.453255	-0.319859	0.221207	0.397130	0.197949	-0.509072	0.168896
838	4.199587	0.005000	0.680876	-0.025444	-9.431396	-0.318751	0.221539	0.397625	0.194927	-0.513668	0.187771
839	4.204587	0.005000	0.755574	-0.088222	-9.447098	-0.317642	0.221872	0.398120	0.184140	-0.496666	0.207351
840	4.209587	0.005000	0.797961	-0.130881	-9.443800	-0.316534	0.222204	0.398615	0.164695	-0.482988	0.238799
841	4.214587	0.005000	0.824040	-0.048478	-9.378360	-0.315425	0.222537	0.399110	0.144658	-0.453107	0.255050
842	4.219587	0.005000	0.626146	-0.019196	-9.359164	-0.314317	0.222869	0.399605	0.122987	-0.445066	0.295157
843	4.224587	0.005000	0.487626	-0.061734	-9.299880	-0.313208	0.223202	0.400101	0.081164	-0.418801	0.327763
844	4.229587	0.005000	0.403836	-0.013902	-9.392262	-0.312099	0.223535	0.400596	0.046227	-0.424269	0.362592
845	4.234587	0.005000	0.264091	0.010589	-9.506669	-0.310991	0.223867	0.401091	0.017614	-0.417207	0.388038
846	4.239587	0.005000	0.180710	0.086225	-9.511570	-0.309882	0.224200	0.401586	0.007426	-0.417523	0.411182
847	4.244587	0.005000	0.148065	0.122167	-9.544215	-0.308774	0.224532	0.402081	-0.011925	-0.425927	0.441736
848	4.249587	0.005000	0.000000	0.235440	-9.533735	-0.307665	0.224865	0.402576	-0.017449	-0.428811	0.452344
849	4.254587	0.005000	-0.112592	0.235440	-9.458549	-0.306557	0.225197	0.403071	-0.018975	-0.439581	0.456894
850	4.259587	0.005000	-0.004553	0.230887	-9.535320	-0.305605	0.225530	0.403391	-0.005803	-0.452850	0.461058
851	4.264587	0.005000	-0.172647	0.274680	-9.535320	-0.304829	0.225862	0.403515	0.005766	-0.467906	0.441567
852	4.269587	0.005000	-0.128415	0.303225	-9.506775	-0.304053	0.226195	0.403639	0.021626	-0.489303	0.436059
853	4.274587	0.005000	-0.142952	0.235440	-9.560552	-0.303277	0.226527	0.403763	0.016613	-0.493467	0.407876
854	4.279587	0.005000	-0.151935	0.313920	-9.513188	-0.302501	0.226860	0.403887	0.025199	-0.493433	0.400806
855	4.284587	0.005000	-0.196200	0.313920	-9.516229	-0.301725	0.227193	0.404010	0.012145	-0.462050	0.374294
856	4.289587	0.005000	-0.053501	0.281810	-9.496080	-0.300949	0.227525	0.404134	0.023909	-0.446754	0.349788
857	4.294587	0.005000	0.117720	0.274680	-9.535320	-0.300173	0.227858	0.404258	0.033188	-0.411923	0.319707
858	4.299587	0.005000	0.195542	0.353160	-9.505397	-0.299397	0.228190	0.404382	0.036701	-0.379094	0.286015
859	4.304587	0.005000	0.044519	0.399192	-9.456840	-0.298621	0.228523	0.404506	0.033484	-0.352011	0.274720
860	4.309587	0.005000	-0.035761	0.349681	-9.453361	-0.297845	0.228855	0.404629	0.042555	-0.311646	0.252419
861	4.314587	0.005000	-0.040511	0.313285	-9.573289	-0.297069	0.229188	0.404753	0.061449	-0.283896	0.251284
862	4.319587	0.005000	-0.044504	0.347896	-9.496080	-0.296293	0.229521	0.404877	0.073123	-0.264495	0.248279
863	4.324587	0.005000	-0.174175	0.353160	-9.540826	-0.295515	0.229856	0.405005	0.093835	-0.265599	0.242836
864	4.329587	0.005000	-0.196200	0.244155	-9.526605	-0.294407	0.230632	0.405747	0.096017	-0.284181	0.260288
865	4.334587	0.005000	-0.223777	0.223777	-9.484417	-0.293299	0.231407	0.406490	0.108226	-0.298661	0.236302
866	4.339587	0.005000	-0.132681	0.147642	-9.550281	-0.292191	0.232183	0.407232	0.130192	-0.331627	0.234281
867	4.344587	0.005000	-0.138902	0.160084	-9.553378	-0.291083	0.232959	0.407974	0.128517	-0.351929	0.221400
868	4.349587	0.005000	-0.175082	0.253562	-9.574560	-0.289975	0.233734	0.408717	0.137439	-0.380304	0.210527
869	4.354587	0.005000	-0.196200	0.220615	-9.559735	-0.288867	0.234510	0.409459	0.128660	-0.412465	0.202781
870	4.359587	0.005000	-0.325901	0.277978	-9.601819	-0.287759	0.235285	0.410201	0.133807	-0.441573	0.194054
871	4.364587	0.005000	-0.335824	0.244108	-9.605132	-0.286651	0.236061	0.410944	0.146496	-0.490084	0.196319
872	4.369587	0.005000	-0.268923	0.218168	-9.574560	-0.285543	0.236837	0.411686	0.145640	-0.521992	0.186381
873	4.374587	0.005000	-0.235440	0.196200	-9.734046	-0.284435	0.237612	0.412428	0.164228	-0.553533	0.188952
874	4.379587	0.005000	-0.274362	0.157278	-9.770760	-0.283327	0.238388	0.413171	0.177098	-0.581808	0.190580
875	4.384587	0.005000	-0.378049	0.235440	-9.731520	-0.282219	0.239163	0.413913	0.186813	-0.599613	0.189516
876	4.389587	0.005000	-0.464406	0.196200	-9.685806	-0.281111	0.239939	0.414656	0.212818	-0.600432	0.183135
877	4.394587	0.005000	-0.402172	0.245212	-9.692431	-0.280003	0.240299	0.415398	0.230393	-0.590076	0.177724
878	4.399587	0.005000	-0.313920	0.091411	-9.678901	-0.278894	0.240299	0.416141	0.250754	-0.575721	0.181658
879	4.404587	0.005000	-0.329849	0.069933	-9.802618	-0.277786	0.240299	0.416883	0.253929	-0.534151	0.179265
880	4.409587	0.005000	-0.215207	0.136727	-9.692280	-0.276677	0.240299	0.417626	0.241470	-0.496353	0.172791
881	4.414587	0.005000	-0.174129	0.179031	-9.653040	-0.275569	0.240299	0.418369	0.244846	-0.454590	0.168173
882	4.419587	0.005000	-0.117720	0.117720	-9.823857	-0.274460	0.240299	0.419112	0.228556	-0.401414	0.157035
883	4.424587	0.005000	-0.117720	0.106707	-9.810000	-0.273352	0.240299	0.419854	0.227288	-0.379617	0.152994
884	4.429587	0.005000	-0.110005	0.070765	-9.786190	-0.272244	0.240299	0.420597	0.215573	-0.341896	0.131492
885	4.434587	0.005000	-0.132160	0.004813	-9.932533	-0.271135	0.240299	0.421340	0.226875	-0.343791	0.131361
886	4.439587	0.005000	-0.196200	0.116162	-10.054789	-0.270027	0.240299	0.422082	0.246729	-0.348335	0.128857
887	4.444587	0.005000	-0.120292	0.078480	-10.470651	-0.268918	0.240299	0.422825	0.281628	-0.372000	0.142397
888	4.449587	0.005000	-0.235440	0.187138	-10.555560	-0.267810	0.240299	0.423568	0.299743	-0.410040	0.143800
889	4.454587	0.005000	-0.362690	0.274680	-10.460122	-0.266701	0.240299	0.424310	0.282984	-0.446236	0.158703
890	4.459587	0.005000	-0.296161	0.167700	-10.320120	-0.265593	0.240315	0.424973	0.248900	-0.485325	0.168404
891	4.464587	0.005000	-0.260802	-0.011485	-10.061710	-0.264484	0.240537	0.424602	0.249378	-0.507930	0.178297
892	4.469587	0.005000	-0.213082	-0.095362	-10.028558	-0.263375	0.240758	0.424231	0.247463	-0.522406	0.174550
893	4.474587	0.005000	-0.196200	-0.058966	-9.967172	-0.262267	0.240980	0.423859	0.228778	-0.555035	0.196857
894	4.479587	0.005000	-0.173161	-0.032402	-9.904681	-0.261158	0.241202	0.423488	0.195570	-0.553157	0.206112
895	4.484587	0.005000	-0.222609	-0.065275	-9.966960	-0.260050	0.241423	0.423117	0.186573	-0.570353	0.226575
896	4.489587	0.005000	-0.303860	0.010060	-9.888480	-0.258941	0.241645	0.422745	0.132163	-0.560370	0.243906
897	4.494587	0.005000	-0.261187	0.000000	-9.777507	-0.257833	0.241867	0.422374	0.108742	-0.555496	0.255734
898	4.499587	0.005000	-0.196200	0.039240	-9.841434	-0.256724	0.242088	0.422003	0.085991	-0.537524	0.263213
899	4.504587	0.005000	-0.236650	-0.038635	-9.810605	-0.255616	0.242310	0.421631	0.102955	-0.526747	0.257852
900	4.509587	0.005000	-0.350921	0.037001	-9.775238	-0.254507	0.242532	0.421260	0.112671	-0.486782	0.244812
901	4.514587	0.005000	-0.353160	0.010972	-9.647554	-0.253398	0.242754	0.420889	0.124311	-0.442572	0.224493
902	4.519587	0.005000	-0.400796	-0.008396	-9.529662	-0.252290	0.242975	0.420517	0.140109	-0.397378	0.209073
903	4.524587	0.005000	-0.337307	-0.066787	-9.425133	-0.251181	0.243197	0.420146	0.118055	-0.369380	0.172916
904	4.529587	0.005000	-0.313920	-0.078480	-9.186532	-0.250140	0.243351	0.420376	0.092504	-0.339327	0.156143
905	4.534587	0.005000	-0.609990	-0.217590	-8.800531	-0.249143	0.243462	0.420994	0.065893	-0.331575	0.134246
906	4.539587	0.005000	-0.627840	-0.363778	-8.692946	-0.248146	0.243573	0.421613	-0.011485	-0.314341	0.112876
907	4.544587	0.005000	-0.643088	-0.673585	-8.608808	-0.247149	0.243684	0.422232	-0.059782	-0.330129	0.112045
908	4.549587	0.005000	-0.767609	-0.696529	-8.775036	-0.246151	0.243794	0.422850	-0.094334	-0.331339	0.114986
909	4.554587	0.005000	-0.941760	-0.404366	-8.971120	-0.245154	0.243905	0.423469	-0.101042	-0.334708	0.145140
910	4.559587	0.005000	-1.020240	-0.241234	-9.260640	-0.244157	0.244016	0.424087	-0.129928	-0.349205	0.199624
911	4.564587	0.005000	-1.132060	-0.199150	-9.097780	-0.243160	0.244127	0.424706	-0.174271	-0.379952	0.250983
912	4.569587	0.005000	-0.980686	-0.392191	-9.025619	-0.242163	0.244237	0.425325	-0.194574	-0.413708	0.281084
913	4.574587	0.005000	-0.899313	-0.349953	-9.218193	-0.241165	0.244348	0.425943	-0.170640	-0.457726	0.274376
914	4.579587	0.005000	-0.974570	-0.320350	-9.090161	-0.240168	0.244459	0.426562	-0.142817	-0.514855	0.261496
915	4.584587	0.005000	-0.902520	-0.145766	-9.045743	-0.239171	0.244570	0.427180	-0.093642	-0.578014	0.256258
916	4.589587	0.005000	-0.877197	-0.197456	-9.131514	-0.238174	0.244680	0.427799	-0.038613	-0.676709	0.255118
917	4.594587	0.005000	-0.777114	-0.227754	-9.244863	-0.237040	0.244776	0.428485	-0.015797	-0.795102	0.271751
918	4.599587	0.005000	-0.728391	-0.216637	-9.161723	-0.235045	0.244776	0.429599	-0.030277	-0.881438	0.274709
919	4.604587	0.005000	-0.924375	-0.196200	-9.199545	-0.233049	0.244776	0.430714	-0.036395	-0.977830	0.291221
920	4.609587	0.005000	-0.781200	-0.103440	-9.221400	-0.231054	0.244776	0.431828	-0.043877	-1.046970	0.299553
921	4.614587	0.005000	-0.795782	-0.117720	-9.193142	-0.229059	0.244776	0.432942	-0.048463	-1.090845	0.305876
922	4.619587	0.005000	-0.918797	-0.078480	-9.142920	-0.227064	0.244776	0.434056	-0.048044	-1.117092	0.305502
923	4.624587	0.005000	-1.064306	0.004826	-9.034851	-0.225068	0.244776	0.435170	-0.078914	-1.115106	0.305146
924	4.629587	0.005000	-1.220358	0.039240	-9.023241	-0.223073	0.244776	0.436284	-0.109208	-1.110699	0.287862
925	4.634587	0.005000	-1.408692	-0.036608	-8.948036	-0.221078	0.244776	0.437398	-0.151468	-1.084650	0.237343
926	4.639587	0.005000	-1.530360	-0.103997	-8.840794	-0.219082	0.244776	0.438512	-0.157401	-1.050071	0.177263
927	4.644587	0.005000	-1.687320	-0.205549	-9.167214	-0.217087	0.244776	0.439626	-0.168056	-1.007316	0.113106
928	4.649587	0.005000	-1.969298	-0.235440	-9.299880	-0.215092	0.244776	0.440740	-0.201692	-0.935536	0.018293
929	4.654587	0.005000	-2.064502	-0.184189	-9.352734	-0.213097	0.244776	0.441854	-0.201280	-0.844915	-0.070564
930	4.659587	0.005000	-2.214167	-0.134447	-9.254855	-0.211101	0.244776	0.442968	-0.189199	-0.786825	-0.137552
931	4.664587	0.005000	-2.060554	-0.136886	-9.241171	-0.209032	0.244478	0.443916	-0.175532	-0.754862	-0.182248
932	4.669587	0.005000	-1.951936	-0.245504	-9.316315	-0.206927	0.244035	0.444782	-0.145418	-0.739396	-0.218807
933	4.674587	0.005000	-1.790972	-0.419054	-9.536061	-0.204822	0.243592	0.445648	-0.117542	-0.737361	-0.214673
934	4.679587	0.005000	-1.726560	-0.350963	-9.692280	-0.202717	0.243148	0.446514	-0.099458	-0.743271	-0.187642
935	4.684587	0.005000	-1.748071	-0.196200	-9.738690	-0.200611	0.242705	0.447380	-0.132378	-0.766145	-0.156729
936	4.689587	0.005000	-1.820530	-0.200073	-9.696153	-0.198506	0.242262	0.448246	-0.156467	-0.819331	-0.120369
937	4.694587	0.005000	-2.087949	-0.194143	-9.847183	-0.196401	0.241819	0.449112	-0.207538	-0.890056	-0.114216
938	4.699587	0.005000	-2.543339	0.031979	-9.808185	-0.194296	0.241376	0.449978	-0.234713	-0.996721	-0.111970
939	4.704587	0.005000	-2.678576	0.175687	-9.560961	-0.192191	0.240932	0.450844	-0.239999	-1.107609	-0.092204
940	4.709587	0.005000	-2.735485	-0.106405	-9.764981	-0.190085	0.240489	0.451711	-0.174861	-1.242825	-0.071630
941	4.714587	0.005000	-2.931730	-0.207470	-10.101380	-0.187980	0.240046	0.452577	-0.148716	-1.358698	-0.061763
942	4.719587	0.005000	-2.967956	-0.014284	-9.970573	-0.185875	0.239603	0.453443	-0.157326	-1.473074	-0.061917
943	4.724587	0.005000	-2.860133	0.122107	-9.862280	-0.183770	0.239160	0.454309	-0.153273	-1.572806	-0.047831
944	4.729587	0.005000	-2.631682	0.097450	-9.694882	-0.181374	0.238761	0.455125	-0.120703	-1.651037	-0.031464
945	4.734587	0.005000	-2.472120	0.204096	-9.268657	-0.177828	0.238540	0.455744	-0.106714	-1.698494	-0.032689
946	4.739587	0.005000	-2.354400	0.066408	-9.102924	-0.174282	0.238318	0.456362	-0.063172	-1.737763	-0.013450
947	4.744587	0.005000	-2.305518	-0.117944	-9.446974	-0.170737	0.238096	0.456981	-0.033143	-1.747835	-0.008111
948	4.749587	0.005000	-2.479176	-0.292753	-9.289730	-0.167191	0.237875	0.457599	-0.023990	-1.725993	0.000132
949	4.754587	0.005000	-2.550600	-0.180831	-8.950562	-0.163645	0.237653	0.458218	0.029026	-1.677457	0.004443
950	4.759587	0.005000	-2.632040	0.000000	-9.148840	-0.160100	0.237432	0.458837	0.088839	-1.673369	-0.001961
951	4.764587	0.005000	-2.709874	0.110777	-9.230658	-0.156554	0.237210	0.459455	0.097800	-1.686360	-0.018238
952	4.769587	0.005000	-2.809805	-0.028923	-8.996277	-0.153008	0.236988	0.460074	0.077772	-1.699400	-0.041630
953	4.774587	0.005000	-2.973784	-0.039240	-9.008288	-0.149462	0.236767	0.460693	0.088751	-1.690121	-0.062707
954	4.779587	0.005000	-2.943000	-0.066850	-9.064440	-0.145917	0.236545	0.461311	0.097386	-1.645679	-0.073749
955	4.784587	0.005000	-2.889147	-0.063867	-9.074454	-0.142371	0.236324	0.461930	0.085557	-1.613227	-0.079264
956	4.789587	0.005000	-2.868846	-0.117720	-9.116810	-0.138825	0.236102	0.462548	0.050698	-1.553071	-0.090665
957	4.794587	0.005000	-2.922245	-0.152422	-9.082925	-0.135280	0.235880	0.463167	0.012427	-1.516266	-0.110883
958	4.799587	0.005000	-3.068405	-0.329562	-9.174203	-0.131652	0.235659	0.463514	-0.032145	-1.494509	-0.111618
959	4.804587	0.005000	-3.021480	-0.456297	-9.118263	-0.127994	0.235437	0.463762	-0.076885	-1.500988	-0.131176
960	4.809587	0.005000	-3.089174	-0.491150	-9.141619	-0.124336	0.235215	0.464009	-0.122401	-1.551560	-0.153352
961	4.814587	0.005000	-3.254802	-0.320107	-9.260640	-0.120678	0.234994	0.464257	-0.165559	-1.612731	-0.190401
962	4.819587	0.005000	-3.737711	-0.353160	-9.172249	-0.117020	0.234772	0.464505	-0.213753	-1.707385	-0.223522
963	4.824587	0.005000	-4.002541	-0.353069	-9.182099	-0.113362	0.234550	0.464752	-0.258605	-1.808423	-0.247282
964	4.829587	0.005000	-4.263092	-0.417572	-9.176533	-0.109704	0.234329	0.465000	-0.297840	-1.921235	-0.287359
965	4.834587	0.005000	-4.678243	-0.307809	-9.248417	-0.106046	0.234107	0.465247	-0.317261	-2.039485	-0.312329
966	4.839587	0.005000	-5.017183	-0.296009	-9.043111	-0.102388	0.233885	0.465495	-0.283549	-2.072469	-0.333487
967	4.844587	0.005000	-5.061960	-0.313920	-9.196864	-0.098730	0.233664	0.465743	-0.229570	-2.083855	-0.337764
968	4.849587	0.005000	-4.935224	-0.250552	-9.206288	-0.095072	0.233442	0.465990	-0.192864	-2.017854	-0.341749
969	4.854587	0.005000	-4.844719	-0.114879	-9.257799	-0.091414	0.233220	0.466238	-0.156206	-1.930974	-0.350241
970	4.859587	0.005000	-4.636855	-0.160227	-9.375093	-0.087756	0.232998	0.466486	-0.112760	-1.830956	-0.344958
971	4.864587	0.005000	-4.497636	0.005651	-9.406299	-0.084216	0.232747	0.466667	-0.094493	-1.711181	-0.348995
972	4.869587	0.005000	-4.214261	0.027411	-9.146672	-0.081003	0.232415	0.466667	-0.073041	-1.586782	-0.353298
973	4.874587	0.005000	-4.015071	-0.017766	-8.889714	-0.077790	0.232082	0.466667	-0.027911	-1.484093	-0.357428
974	4.879587	0.005000	-3.845520	-0.252504	-8.817624	-0.074577	0.231750	0.466667	-0.021936	-1.413515	-0.355187
975	4.884587	0.005000	-3.724956	-0.398088	-8.736300	-0.071363	0.231417	0.466667	-0.051754	-1.365987	-0.327606
976	4.889587	0.005000	-3.688560	-0.432103	-8.360437	-0.068150	0.231085	0.466667	-0.144419	-1.334856	-0.303995
977	4.894587	0.005000	-3.881447	-0.274680	-8.204473	-0.064937	0.230753	0.466667	-0.174716	-1.325191	-0.255829
978	4.899587	0.005000	-3.976340	-0.313920	-8.423560	-0.061724	0.230420	0.466667	-0.147564	-1.307390	-0.220343
979	4.904587	0.005000	-4.258251	-0.205655	-8.830422	-0.058510	0.230088	0.466667	-0.152889	-1.309946	-0.188635
980	4.909587	0.005000	-4.435058	-0.156960	-8.933953	-0.055297	0.229755	0.466667	-0.177395	-1.339516	-0.168034
981	4.914587	0.005000	-4.677577	-0.109703	-8.844611	-0.052084	0.229423	0.466667	-0.166662	-1.372007	-0.158900
982	4.919587	0.005000	-4.888935	-0.156960	-8.849331	-0.048870	0.229090	0.466667	-0.144828	-1.436676	-0.134795
983	4.924587	0.005000	-5.030643	-0.174241	-8.964001	-0.045657	0.228758	0.466667	-0.109804	-1.516391	-0.140212
984	4.929587	0.005000	-5.275617	-0.224548	-8.864957	-0.042444	0.228426	0.466667	-0.109555	-1.646659	-0.127638
985	4.934587	0.005000	-5.487962	-0.325121	-8.565521	-0.038083	0.227828	0.465878	-0.112572	-1.776038	-0.109890
986	4.939587	0.005000	-5.431185	-0.400433	-8.436600	-0.033429	0.227164	0.464888	-0.117965	-1.910620	-0.111300
987	4.944587	0.005000	-5.562641	-0.313920	-8.387921	-0.028776	0.226499	0.463899	-0.100913	-2.059162	-0.111788
988	4.949587	0.005000	-5.459987	-0.312044	-8.429097	-0.024122	0.225834	0.462909	-0.097188	-2.165569	-0.135442
989	4.954587	0.005000	-5.761251	-0.236846	-8.166137	-0.019468	0.225169	0.461919	-0.059744	-2.258672	-0.141193
990	4.959587	0.005000	-5.768280	-0.156960	-8.166186	-0.014815	0.224504	0.460929	-0.029703	-2.286860	-0.153203
991	4.964587	0.005000	-5.696910	-0.124830	-8.161920	-0.010161	0.223840	0.459939	0.036018	-2.294827	-0.163043
992	4.969587	0.005000	-5.650560	-0.156960	-8.143525	-0.005507	0.223175	0.458949	0.089532	-2.257777	-0.167105
993	4.974587	0.005000	-5.455811	-0.223327	-8.006411	-0.000853	0.222510	0.457959	0.151068	-2.226443	-0.177913
994	4.979587	0.005000	-5.313964	-0.134284	-7.926480	0.003800	0.221845	0.456969	0.173078	-2.157703	-0.191296
995	4.984587	0.005000	-5.199322	-0.078525	-7.691175	0.008454	0.221180	0.455980	0.164477	-2.080950	-0.208093
996	4.989587	0.005000	-5.123921	-0.016519	-7.449398	0.013108	0.220516	0.454990	0.164201	-2.004373	-0.232494
997	4.994587	0.005000	-5.088997	0.000000	-7.417676	0.017761	0.219851	0.454000	0.140047	-1.940354	-0.271994
998	4.999587	0.005000	-5.119685	-0.107343	-7.228268	0.022091	0.219512	0.452808	0.089644	-1.888545	-0.295417
999	5.004587	0.005000	-5.130978	-0.156960	-7.274289	0.025750	0.219844	0.451198	0.055751	-1.861901	-0.310730
1000	5.009587	0.005000	-5.353522	-0.161180	-7.420580	0.029410	0.220177	0.449588	0.007478	-1.843577	-0.323202
1001	5.014587	0.005000	-5.577617	-0.198046	-7.457446	0.033069	0.220510	0.447978	-0.014256	-1.847484	-0.302423
1002	5.019587	0.005000	-5.919477	-0.311999	-7.571399	0.036729	0.220843	0.446368	-0.058680	-1.853841	-0.281791
1003	5.024587	0.005000	-6.257711	-0.353160	-7.505184	0.040389	0.221175	0.444758	-0.069388	-1.911785	-0.245659
1004	5.029587	0.005000	-6.465372	-0.376244	-7.463678	0.044048	0.221508	0.443148	-0.063949	-1.966780	-0.203785
1005	5.034587	0.005000	-6.822018	-0.498874	-7.427606	0.047708	0.221841	0.441539	-0.041961	-2.027857	-0.184069
1006	5.039587	0.005000	-7.174082	-0.431640	-7.341299	0.051368	0.222173	0.439929	-0.007966	-2.071293	-0.116198
1007	5.044587	0.005000	-7.394445	-0.414315	-7.355205	0.055027	0.222506	0.438319	0.051140	-2.087071	-0.070201
1008	5.049587	0.005000	-7.317504	-0.392400	-7.300153	0.058687	0.222839	0.436709	0.105217	-2.071920	0.001059
1009	5.054587	0.005000	-7.306207	-0.313920	-7.125843	0.062347	0.223172	0.435099	0.134342	-1.994872	0.061424
1010	5.059587	0.005000	-6.987942	-0.196200	-7.064274	0.066006	0.223504	0.433489	0.160768	-1.897467	0.098943
1011	5.064587	0.005000	-6.623754	-0.147551	-6.898434	0.069666	0.223837	0.431880	0.163398	-1.789499	0.145495
1012	5.069587	0.005000	-6.304510	-0.143981	-6.788520	0.073130	0.222919	0.430700	0.154336	-1.659203	0.158781
1013	5.074587	0.005000	-6.127975	-0.049073	-7.105677	0.076565	0.221811	0.429587	0.094148	-1.534624	0.169100
1014	5.079587	0.005000	-6.504098	0.112637	-6.626054	0.080000	0.220703	0.428473	-0.161391	-1.491139	0.193173
1015	5.084587	0.005000	-5.975168	-0.535084	-6.303364	0.083435	0.219595	0.427360	-0.148591	-1.455941	0.282966
1016	5.089587	0.005000	-7.101547	-0.325386	-6.319425	0.086870	0.218487	0.426246	-0.189487	-1.518879	0.353249
1017	5.094587	0.005000	-7.530434	-0.588600	-6.331149	0.090305	0.217379	0.425133	-0.143764	-1.546123	0.435841
1018	5.099587	0.005000	-7.440110	-0.451774	-6.638791	0.093740	0.216271	0.424019	-0.054938	-1.551571	0.473701
1019	5.104587	0.005000	-7.514445	-0.240356	-6.813041	0.097175	0.215163	0.422906	-0.053357	-1.563642	0.477769
1020	5.109587	0.005000	-7.715425	-0.135752	-6.706863	0.100609	0.214055	0.421792	-0.086275	-1.562387	0.469501
1021	5.114587	0.005000	-7.845069	-0.096634	-6.725263	0.104044	0.212947	0.420678	-0.100023	-1.575451	0.467165
1022	5.119587	0.005000	-7.784587	-0.226333	-6.655733	0.107479	0.211839	0.419565	-0.102668	-1.586978	0.460298
1023	5.124587	0.005000	-7.742503	-0.274680	-6.491966	0.110914	0.210731	0.418451	-0.082290	-1.621489	0.457972
1024	5.129587	0.005000	-7.808760	-0.226530	-6.173190	0.114349	0.209622	0.417338	-0.085068	-1.652932	0.459323
1025	5.134587	0.005000	-7.736346	-0.223308	-5.991588	0.117696	0.208955	0.415831	-0.085168	-1.698056	0.480610
1026	5.139587	0.005000	-7.733048	-0.156960	-5.841223	0.120909	0.208955	0.413727	-0.082981	-1.724293	0.506767
1027	5.144587	0.005000	-7.730356	-0.117796	-5.650787	0.124122	0.208955	0.411624	-0.080789	-1.760869	0.534269
1028	5.149587	0.005000	-7.805412	-0.186155	-5.496948	0.127335	0.208955	0.409520	-0.081426	-1.773289	0.558692
1029	5.154587	0.005000	-7.992495	-0.229208	-5.572080	0.130548	0.208955	0.407417	-0.057578	-1.754663	0.584242
1030	5.159587	0.005000	-7.876264	-0.235440	-5.572080	0.133762	0.208955	0.405314	-0.045366	-1.695716	0.609758
1031	5.164587	0.005000	-7.664491	-0.090005	-5.506291	0.136975	0.208955	0.403210	-0.022800	-1.605679	0.624672
1032	5.169587	0.005000	-7.612560	0.000000	-5.485734	0.140188	0.208955	0.401107	-0.002991	-1.529250	0.635415
1033	5.174587	0.005000	-7.375415	0.179137	-5.497010	0.143401	0.208955	0.399003	0.003972	-1.442026	0.634387
1034	5.179587	0.005000	-7.368286	0.139549	-5.402126	0.146614	0.208955	0.396900	-0.017619	-1.371379	0.613607
1035	5.184587	0.005000	-7.445495	0.156960	-5.322072	0.149827	0.208955	0.394796	-0.005326	-1.318048	0.589414
1036	5.189587	0.005000	-7.455600	0.375669	-5.145916	0.153041	0.208955	0.392693	-0.034087	-1.246654	0.535393
1037	5.194587	0.005000	-7.424771	0.518531	-5.019906	0.156254	0.208955	0.390590	-0.036667	-1.204910	0.489281
1038	5.199587	0.005000	-7.638125	0.510120	-5.027833	0.159467	0.208955	0.388486	-0.062276	-1.157782	0.406089
1039	5.204587	0.005000	-7.891778	0.431640	-4.895924	0.161859	0.207516	0.386382	-0.096740	-1.135404	0.334892
1040	5.209587	0.005000	-7.927055	0.470305	-4.786705	0.164187	0.205964	0.384278	-0.106393	-1.106581	0.274829
1041	5.214587	0.005000	-8.083440	0.360935	-4.818745	0.166515	0.204412	0.382173	-0.083508	-1.090632	0.222921
1042	5.219587	0.005000	-8.096903	0.242172	-4.937508	0.168843	0.202860	0.380069	-0.081007	-1.091908	0.184610
1043	5.224587	0.005000	-8.093469	0.166989	-5.081141	0.171171	0.201309	0.377965	-0.075070	-1.062180	0.155055
1044	5.229587	0.005000	-8.161606	0.091665	-4.983794	0.173499	0.199757	0.375860	-0.057773	-1.068635	0.138892
1045	5.234587	0.005000	-8.404228	-0.016186	-4.835838	0.175827	0.198205	0.373756	-0.053495	-1.093330	0.138174
1046	5.239587	0.005000	-8.456579	0.038522	-4.807259	0.178155	0.196653	0.371652	-0.069314	-1.150679	0.126167
1047	5.244587	0.005000	-8.548904	0.056152	-4.949656	0.180483	0.195101	0.369548	-0.058389	-1.230398	0.154642
1048	5.249587	0.005000	-8.752987	0.117720	-4.905000	0.182811	0.193549	0.367443	-0.080156	-1.285290	0.143351
1049	5.254587	0.005000	-8.839755	0.060751	-4.765769	0.185139	0.191997	0.365339	-0.098961	-1.374673	0.143362
1050	5.259587	0.005000	-8.843915	0.125178	-4.671511	0.187467	0.190446	0.363235	-0.106662	-1.444992	0.133324
1051	5.264587	0.005000	-9.039041	0.200814	-4.570295	0.189794	0.188894	0.361130	-0.077867	-1.509258	0.123387
1052	5.269587	0.005000	-9.299880	0.351411	-4.790778	0.192635	0.188419	0.359141	-0.043348	-1.577669	0.138000
1053	5.274587	0.005000	-9.224486	0.351617	-4.865760	0.196072	0.189195	0.357284	-0.023307	-1.622782	0.147744
1054	5.279587	0.005000	-9.186547	0.279067	-4.830907	0.199508	0.189971	0.355427	-0.014837	-1.669323	0.179440
1055	5.284587	0.005000	-8.993557	0.259486	-4.684754	0.202944	0.190747	0.353570	0.005534	-1.681346	0.202405
1056	5.289587	0.005000	-8.907480	0.342631	-4.562369	0.206381	0.191523	0.351714	0.036489	-1.715597	0.235171
1057	5.294587	0.005000	-8.946720	0.353160	-4.501043	0.209817	0.192299	0.349857	0.044217	-1.718129	0.247777
1058	5.299587	0.005000	-8.744651	0.431640	-4.310531	0.213253	0.193074	0.348000	0.031562	-1.745302	0.244692
1059	5.304587	0.005000	-8.789760	0.294663	-4.043172	0.216690	0.193850	0.346143	0.027002	-1.781433	0.214495
1060	5.309587	0.005000	-8.884653	0.330333	-3.678561	0.220126	0.194626	0.344287	0.006652	-1.815902	0.148194
1061	5.314587	0.005000	-8.933620	0.379300	-3.413819	0.223562	0.195402	0.342430	-0.003158	-1.867503	0.101718
1062	5.319587	0.005000	-8.888518	0.383577	-3.315122	0.226999	0.196178	0.340573	-0.038009	-1.914613	0.042740
1063	5.324587	0.005000	-9.011283	0.353160	-3.005052	0.230435	0.196954	0.338716	-0.058651	-1.959460	-0.043649
1064	5.329587	0.005000	-8.938588	0.313920	-2.641278	0.233871	0.197730	0.336860	-0.077189	-1.998164	-0.102763
1065	5.334587	0.005000	-8.827397	0.392400	-2.669923	0.237308	0.198506	0.335003	-0.087484	-2.014450	-0.158043
1066	5.339587	0.005000	-8.824916	0.392400	-2.821196	0.239526	0.198839	0.330922	-0.075116	-2.033273	-0.185860
1067	5.344587	0.005000	-9.043080	0.561900	-2.925120	0.241744	0.199172	0.326837	-0.047512	-2.010308	-0.199621
1068	5.349587	0.005000	-9.306385	0.557544	-2.982240	0.243961	0.199504	0.322752	0.001848	-1.966397	-0.170871
1069	5.354587	0.005000	-9.780260	0.466130	-3.021480	0.246178	0.199837	0.318667	0.059911	-1.887169	-0.098652
1070	5.359587	0.005000	-9.838681	0.289021	-3.302937	0.248395	0.200169	0.314582	0.113668	-1.795649	-0.018147
1071	5.364587	0.005000	-9.679180	0.170030	-3.496727	0.250612	0.200502	0.310497	0.166961	-1.695797	0.070432
1072	5.369587	0.005000	-9.421049	0.081929	-3.454845	0.252829	0.200835	0.306413	0.176942	-1.605471	0.114963
1073	5.374587	0.005000	-9.189948	-0.023514	-3.233256	0.255046	0.201167	0.302328	0.187736	-1.533494	0.146331
1074	5.379587	0.005000	-9.039238	0.000000	-2.958475	0.257263	0.201500	0.298243	0.189755	-1.504608	0.140642
1075	5.384587	0.005000	-9.043806	0.087783	-2.649714	0.259480	0.201832	0.294158	0.198682	-1.497441	0.105318
1076	5.389587	0.005000	-9.149379	0.169879	-2.439823	0.261697	0.202165	0.290073	0.185164	-1.521034	0.063774
1077	5.394587	0.005000	-9.021627	0.235440	-2.143909	0.263914	0.202497	0.285988	0.164444	-1.537992	0.000908
1078	5.399587	0.005000	-9.103377	0.234835	-1.962000	0.266131	0.202830	0.281904	0.181613	-1.562662	-0.056627
1079	5.404587	0.005000	-9.100719	0.156960	-1.925721	0.268052	0.202985	0.278083	0.200331	-1.593223	-0.111199
1080	5.409587	0.005000	-9.142920	0.190361	-2.068042	0.269715	0.202985	0.274493	0.218642	-1.597235	-0.163917
1081	5.414587	0.005000	-9.239488	0.395464	-2.306116	0.271377	0.202985	0.270904	0.211458	-1.600085	-0.216666
1082	5.419587	0.005000	-9.405604	0.419644	-2.158200	0.273040	0.202985	0.267314	0.193950	-1.590721	-0.235684
1083	5.424587	0.005000	-9.496080	0.422638	-2.188438	0.274703	0.202985	0.263724	0.194992	-1.569572	-0.239660
1084	5.429587	0.005000	-9.493115	0.329093	-2.013448	0.276366	0.202985	0.260134	0.155754	-1.536349	-0.257376
1085	5.434587	0.005000	-9.342781	0.213990	-1.808701	0.278029	0.202985	0.256545	0.130751	-1.538920	-0.278021
1086	5.439587	0.005000	-9.182160	0.156960	-1.627537	0.279691	0.202985	0.252955	0.104915	-1.523317	-0.291359
1087	5.444587	0.005000	-9.351083	0.208163	-1.443266	0.281354	0.202985	0.249365	0.089637	-1.495788	-0.321374
1088	5.449587	0.005000	-9.356728	0.257072	-1.369376	0.283017	0.202985	0.245775	0.120104	-1.487672	-0.337374
1089	5.454587	0.005000	-9.625720	0.229480	-1.687320	0.284680	0.202985	0.242186	0.147749	-1.461519	-0.376990
1090	5.459587	0.005000	-9.697575	0.313920	-1.723913	0.286343	0.202985	0.238596	0.161347	-1.417024	-0.356202
1091	5.464587	0.005000	-9.848847	0.196790	-1.765407	0.288005	0.202985	0.235006	0.188939	-1.353009	-0.348988
1092	5.469587	0.005000	-9.999211	0.192706	-1.501603	0.289653	0.203039	0.231486	0.212710	-1.312348	-0.319339
1093	5.474587	0.005000	-9.913833	0.117720	-1.392415	0.291093	0.203815	0.228887	0.259103	-1.265623	-0.261134
1094	5.479587	0.005000	-9.701296	-0.009651	-1.235107	0.292533	0.204590	0.226289	0.279801	-1.230761	-0.212100
1095	5.484587	0.005000	-9.574560	-0.053490	-0.979245	0.293974	0.205366	0.223691	0.291421	-1.216805	-0.151710
1096	5.489587	0.005000	-9.456840	-0.086495	-1.004209	0.295414	0.206142	0.221093	0.317722	-1.216492	-0.106310
1097	5.494587	0.005000	-9.557890	0.018637	-1.022207	0.296855	0.206917	0.218494	0.335925	-1.225931	-0.077541
1098	5.499587	0.005000	-9.709570	0.139670	-0.968369	0.298295	0.207693	0.215896	0.306074	-1.254053	-0.046066
1099	5.504587	0.005000	-9.795554	0.103274	-1.113166	0.299735	0.208468	0.213298	0.330160	-1.269692	-0.050994
1100	5.509587	0.005000	-9.911420	0.067010	-1.200140	0.301176	0.209244	0.210700	0.314824	-1.285685	-0.035679
1101	5.514587	0.005000	-9.975265	0.344855	-0.883626	0.302616	0.210020	0.208101	0.265863	-1.280865	-0.028427
1102	5.519587	0.005000	-9.972356	0.269284	-0.645494	0.304057	0.210795	0.205503	0.284278	-1.285182	0.018194
1103	5.524587	0.005000	-9.927720	0.266088	-0.540768	0.305497	0.211571	0.202905	0.264762	-1.294448	0.057686
1104	5.529587	0.005000	-9.965823	0.079617	-0.735331	0.306937	0.212347	0.200307	0.275319	-1.315290	0.115122
1105	5.534587	0.005000	-9.966960	0.215472	-0.522101	0.308378	0.213122	0.197708	0.232856	-1.335474	0.158642
1106	5.539587	0.005000	-9.814599	0.127734	-0.517426	0.309885	0.212437	0.194738	0.216145	-1.354316	0.191540
1107	5.544587	0.005000	-9.621307	0.018274	-1.028031	0.311437	0.210774	0.191520	0.178065	-1.400756	0.210353
1108	5.549587	0.005000	-10.321224	0.406952	-0.530194	0.312989	0.209111	0.188302	0.052728	-1.453304	0.235739
1109	5.554587	0.005000	-10.234984	0.356140	-0.336868	0.314541	0.207448	0.185083	0.109620	-1.452455	0.292566
1110	5.559587	0.005000	-10.006139	0.098024	-0.353099	0.316093	0.205786	0.181865	0.122996	-1.446383	0.325355
1111	5.564587	0.005000	-9.894138	-0.067165	-0.168275	0.317645	0.204123	0.178646	0.105028	-1.407141	0.325265
1112	5.569587	0.005000	-9.928960	0.014734	-0.001240	0.319197	0.202460	0.175428	0.134535	-1.350640	0.342006
1113	5.574587	0.005000	-10.006200	0.246090	-0.199558	0.320749	0.200797	0.172209	0.133049	-1.264153	0.345647
1114	5.579587	0.005000	-9.984190	0.228103	-0.260007	0.322301	0.199134	0.168991	0.140813	-1.205737	0.381762
1115	5.584587	0.005000	-9.853733	0.357653	-0.265694	0.323853	0.197472	0.165772	0.124831	-1.136372	0.415737
