# FOX Logger (IMU file)
# (c) INRIA 2011-2014
# File created from file sensbiotk output
#
# File format:
# id	t	dt	ax	ay	az	mx	my	mz	gx	gy	gz
#
# Units:
#	Time: s
#	Acceleration: m.s^-2
#	Magneto: gauss
#	Gyrometer: rad/s
#
1	0.049286	0.049286	9.260640	0.878528	-1.651332	-0.746269	0.202985	-1.311667	-0.007507	0.011639	0.011166
2	0.054286	0.005000	9.232469	0.863280	-1.687320	-0.747042	0.202101	-1.309940	-0.011976	-0.004241	0.003360
3	0.059286	0.005000	9.299880	0.846782	-1.602596	-0.747815	0.201218	-1.308213	-0.012502	-0.010272	0.009777
4	0.064286	0.005000	9.314811	0.863280	-1.573352	-0.748588	0.200334	-1.306487	-0.021265	0.006879	0.008278
5	0.069286	0.005000	9.281492	0.863280	-1.627228	-0.749361	0.199451	-1.304760	-0.006335	-0.006785	-0.005057
6	0.074286	0.005000	9.269333	0.840018	-1.544930	-0.750134	0.198567	-1.303033	-0.009049	0.004267	0.003449
7	0.079286	0.005000	9.325248	0.821665	-1.465752	-0.750908	0.197684	-1.301306	-0.009147	0.008980	0.011012
8	0.084286	0.005000	9.288260	0.780421	-1.507119	-0.751681	0.196800	-1.299580	-0.009483	-0.006687	0.007321
9	0.089286	0.005000	9.239826	0.763986	-1.539573	-0.752454	0.195916	-1.297853	-0.008198	-0.003311	0.005222
10	0.094286	0.005000	9.282196	0.902520	-1.640895	-0.753227	0.195033	-1.296126	-0.016349	-0.000038	0.003127
11	0.099286	0.005000	9.378360	0.872987	-1.530360	-0.754000	0.194149	-1.294399	-0.016967	0.005718	0.003834
12	0.104286	0.005000	9.331771	0.858381	-1.606390	-0.754773	0.193266	-1.292673	-0.006373	0.008536	0.002493
13	0.109286	0.005000	9.299381	0.746059	-1.686821	-0.755546	0.192382	-1.290946	-0.008775	0.004542	0.013134
14	0.114286	0.005000	9.223298	0.710117	-1.536055	-0.756319	0.191498	-1.289219	-0.013848	0.004974	0.003649
15	0.119286	0.005000	9.182160	0.890991	-1.498806	-0.756232	0.191367	-1.288873	-0.013089	-0.001003	-0.002050
16	0.124286	0.005000	9.221400	0.857021	-1.497379	-0.755239	0.192030	-1.289983	-0.014214	0.006348	0.003650
17	0.129286	0.005000	9.361236	0.846156	-1.600278	-0.754245	0.192692	-1.291092	-0.012434	-0.011250	-0.000982
18	0.134286	0.005000	9.321100	0.774190	-1.637470	-0.753252	0.193355	-1.292202	0.000055	0.000807	0.000525
19	0.139286	0.005000	9.247448	0.732536	-1.648080	-0.752258	0.194017	-1.293311	-0.006653	0.007121	-0.002474
20	0.144286	0.005000	9.354368	0.808792	-1.584848	-0.751265	0.194679	-1.294421	-0.009203	-0.006895	0.005007
21	0.149286	0.005000	9.356497	0.806663	-1.665457	-0.750271	0.195342	-1.295530	-0.016987	-0.006189	-0.000235
22	0.154286	0.005000	9.300217	0.863280	-1.647407	-0.749277	0.196004	-1.296640	-0.010254	-0.011292	0.005162
23	0.159286	0.005000	9.277946	0.841346	-1.648080	-0.748284	0.196667	-1.297749	-0.013754	-0.000583	0.012523
24	0.164286	0.005000	9.245544	0.824040	-1.608840	-0.747290	0.197329	-1.298859	0.000954	-0.014233	0.001727
25	0.169286	0.005000	9.234087	0.877146	-1.582287	-0.746297	0.197991	-1.299968	-0.007373	-0.016116	0.002637
26	0.174286	0.005000	9.271259	0.934378	-1.587601	-0.745303	0.198654	-1.301078	-0.005779	0.000000	-0.002185
27	0.179286	0.005000	9.268981	0.894179	-1.569600	-0.744310	0.199316	-1.302188	-0.007024	-0.009762	0.004258
28	0.184286	0.005000	9.306203	0.830363	-1.648080	-0.743316	0.199979	-1.303297	-0.021559	-0.002421	0.004754
29	0.189286	0.005000	9.264573	0.820107	-1.534293	-0.744245	0.199039	-1.301663	-0.008217	-0.006208	0.000149
30	0.194286	0.005000	9.375207	0.784800	-1.531936	-0.745239	0.198045	-1.299937	-0.010141	-0.011529	0.014222
31	0.199286	0.005000	9.338753	0.784800	-1.530727	-0.746232	0.197051	-1.298211	-0.009342	-0.004992	0.007247
32	0.204286	0.005000	9.263425	0.860495	-1.572385	-0.747226	0.196058	-1.296485	-0.001297	-0.013778	0.010353
33	0.209286	0.005000	9.294752	0.829168	-1.569600	-0.748219	0.195064	-1.294759	-0.006208	-0.003930	0.004926
34	0.214286	0.005000	9.331985	0.909655	-1.608840	-0.749213	0.194071	-1.293034	-0.008884	-0.012614	0.004089
35	0.219286	0.005000	9.299880	0.824040	-1.550500	-0.750207	0.193077	-1.291308	-0.012774	0.000570	0.003419
36	0.224286	0.005000	9.354731	0.867077	-1.597026	-0.751200	0.192083	-1.289582	-0.003766	-0.002457	-0.000346
37	0.229286	0.005000	9.299880	0.953197	-1.569600	-0.752194	0.191090	-1.287856	-0.008378	-0.016550	0.020308
38	0.234286	0.005000	9.237714	0.863280	-1.687320	-0.753187	0.190096	-1.286130	-0.013187	-0.005393	0.002867
39	0.239286	0.005000	9.340911	0.921244	-1.567809	-0.754181	0.189102	-1.284404	-0.004543	-0.014762	-0.002569
40	0.244286	0.005000	9.299880	0.883949	-1.590269	-0.755174	0.188109	-1.282678	-0.013141	-0.003733	0.003941
41	0.249286	0.005000	9.394528	0.847112	-1.654985	-0.756168	0.187115	-1.280952	-0.008847	-0.006891	-0.005448
42	0.254286	0.005000	9.285827	0.821120	-1.594787	-0.756617	0.186963	-1.280829	-0.002134	-0.010962	0.013130
43	0.259286	0.005000	9.248825	0.772985	-1.675505	-0.756396	0.187846	-1.282678	-0.021874	-0.005950	0.008582
44	0.264286	0.005000	9.240201	0.853880	-1.579000	-0.756175	0.188729	-1.284527	-0.013060	-0.011073	0.004896
45	0.269286	0.005000	9.317019	0.831407	-1.672586	-0.755955	0.189612	-1.286376	-0.011888	-0.006188	-0.007511
46	0.274286	0.005000	9.289779	0.863280	-1.496170	-0.755734	0.190496	-1.288226	-0.015123	-0.010856	0.003244
47	0.279286	0.005000	9.224033	0.824040	-1.501653	-0.755513	0.191379	-1.290075	-0.017525	-0.004473	0.006916
48	0.284286	0.005000	9.260640	0.863280	-1.647399	-0.755292	0.192262	-1.291924	-0.020299	0.004667	-0.003256
49	0.289286	0.005000	9.298165	0.788229	-1.533789	-0.755071	0.193145	-1.293773	-0.015300	-0.003534	0.003760
50	0.294286	0.005000	9.374276	0.788884	-1.648080	-0.754851	0.194028	-1.295623	-0.015021	0.005666	-0.010819
51	0.299286	0.005000	9.312032	0.784800	-1.648080	-0.754630	0.194912	-1.297472	-0.003955	-0.009210	-0.009232
52	0.304286	0.005000	9.190642	0.824040	-1.678838	-0.754409	0.195795	-1.299321	-0.009523	-0.004673	0.009401
53	0.309286	0.005000	9.221400	0.834466	-1.619266	-0.754188	0.196678	-1.301170	-0.010845	-0.017389	0.001781
54	0.314286	0.005000	9.299880	0.810480	-1.596000	-0.753967	0.197561	-1.303019	-0.007085	-0.003991	0.005131
55	0.319286	0.005000	9.324053	0.878347	-1.554533	-0.753747	0.198444	-1.304869	-0.022006	-0.006587	-0.006626
56	0.324286	0.005000	9.282693	0.863280	-1.648080	-0.754449	0.198199	-1.301793	-0.021977	-0.017514	0.006933
57	0.329286	0.005000	9.319243	0.902520	-1.628717	-0.755222	0.197868	-1.298341	-0.018120	-0.010278	0.003029
58	0.334286	0.005000	9.360661	0.902520	-1.695006	-0.755995	0.197537	-1.294890	-0.011485	-0.004896	-0.000708
59	0.339286	0.005000	9.323831	0.839329	-1.567565	-0.756767	0.197206	-1.291438	-0.007135	0.002478	0.012821
60	0.344286	0.005000	9.273831	0.850422	-1.556742	-0.757540	0.196875	-1.287986	-0.014532	0.002361	0.007139
61	0.349286	0.005000	9.328189	0.824040	-1.608840	-0.758313	0.196544	-1.284534	0.002073	-0.008657	0.008868
62	0.354286	0.005000	9.278399	0.784800	-1.578480	-0.759086	0.196212	-1.281082	-0.003448	0.012932	-0.003116
63	0.359286	0.005000	9.378360	0.758722	-1.556438	-0.759859	0.195881	-1.277630	-0.018351	-0.012577	0.003605
64	0.364286	0.005000	9.378360	0.772307	-1.565436	-0.760631	0.195550	-1.274178	-0.020276	-0.007377	0.010150
65	0.369286	0.005000	9.371780	0.747753	-1.532553	-0.761404	0.195219	-1.270727	-0.009187	-0.010998	0.003379
66	0.374286	0.005000	9.182527	0.745744	-1.569600	-0.762177	0.194888	-1.267275	-0.012165	0.001731	0.005493
67	0.379286	0.005000	9.258068	0.750703	-1.648080	-0.762950	0.194557	-1.263823	-0.007878	-0.010690	-0.003298
68	0.384286	0.005000	9.290789	0.750105	-1.687320	-0.763723	0.194226	-1.260371	-0.009528	-0.012626	0.021395
69	0.389286	0.005000	9.292929	0.791751	-1.569600	-0.763591	0.194211	-1.259849	-0.002540	-0.005276	0.007775
70	0.394286	0.005000	9.330228	0.863280	-1.669537	-0.762155	0.194653	-1.263549	-0.016453	-0.011705	0.006104
71	0.399286	0.005000	9.350419	0.863280	-1.530360	-0.760719	0.195095	-1.267249	-0.003517	-0.009829	0.005642
72	0.404286	0.005000	9.299880	0.839016	-1.660212	-0.759283	0.195536	-1.270949	-0.011036	-0.009900	-0.002508
73	0.409286	0.005000	9.299880	0.855352	-1.663736	-0.757847	0.195978	-1.274649	-0.008892	-0.001367	-0.003505
74	0.414286	0.005000	9.296772	0.845214	-1.669254	-0.756411	0.196420	-1.278349	-0.013431	-0.006422	-0.003577
75	0.419286	0.005000	9.377120	0.822800	-1.688560	-0.754976	0.196862	-1.282049	-0.008805	-0.012394	0.000287
76	0.424286	0.005000	9.316699	0.857679	-1.608840	-0.753540	0.197304	-1.285750	-0.006530	-0.004294	0.006839
77	0.429286	0.005000	9.427433	0.833873	-1.535231	-0.752104	0.197745	-1.289450	0.002604	-0.018791	-0.008134
78	0.434286	0.005000	9.287418	0.745560	-1.608840	-0.750668	0.198187	-1.293150	-0.007063	-0.005481	0.002888
79	0.439286	0.005000	9.290805	0.813985	-1.628950	-0.749232	0.198629	-1.296850	-0.007405	-0.000165	-0.004171
80	0.444286	0.005000	9.378360	0.800835	-1.569600	-0.747796	0.199071	-1.300550	-0.006746	-0.018724	0.010699
81	0.449286	0.005000	9.389123	0.846194	-1.592382	-0.746360	0.199513	-1.304250	-0.024956	-0.012486	0.004514
82	0.454286	0.005000	9.257350	0.781510	-1.648080	-0.744924	0.199954	-1.307950	-0.010890	-0.015072	0.002773
83	0.459286	0.005000	9.375698	0.706320	-1.610171	-0.744677	0.200396	-1.308554	-0.012609	-0.008725	0.005454
84	0.464286	0.005000	9.261696	0.668136	-1.648080	-0.744567	0.200838	-1.308801	-0.007748	-0.001380	0.004563
85	0.469286	0.005000	9.302881	0.748561	-1.569600	-0.744456	0.201279	-1.309047	-0.013746	-0.014371	0.007919
86	0.474286	0.005000	9.226818	0.756395	-1.535778	-0.744346	0.201721	-1.309294	-0.014430	-0.010581	0.007150
87	0.479286	0.005000	9.268370	0.855550	-1.632620	-0.744236	0.202162	-1.309541	-0.016866	-0.009598	0.007013
88	0.484286	0.005000	9.368592	0.892752	-1.736328	-0.744125	0.202604	-1.309787	-0.010635	-0.006971	0.001977
89	0.489286	0.005000	9.326938	0.809164	-1.765800	-0.744015	0.203045	-1.310034	-0.010983	-0.006589	-0.007811
90	0.494286	0.005000	9.288892	0.809914	-1.626103	-0.743905	0.203487	-1.310280	-0.007218	-0.010768	0.014490
91	0.499286	0.005000	9.283345	0.807505	-1.631545	-0.743794	0.203929	-1.310527	-0.014302	-0.001722	-0.003612
92	0.504286	0.005000	9.359633	0.902520	-1.707833	-0.743684	0.204370	-1.310774	-0.009229	-0.007235	0.009153
93	0.509286	0.005000	9.341660	0.860740	-1.687320	-0.743573	0.204812	-1.311020	-0.023968	-0.008734	0.009106
94	0.514286	0.005000	9.299880	0.824040	-1.648080	-0.743463	0.205253	-1.311267	-0.012023	-0.008591	0.004664
95	0.519286	0.005000	9.375619	0.835293	-1.701314	-0.743353	0.205695	-1.311513	-0.012915	-0.009887	0.002993
96	0.524286	0.005000	9.389945	0.879349	-1.648080	-0.743284	0.205970	-1.311713	-0.024911	-0.008255	-0.003209
97	0.529286	0.005000	9.378360	0.872810	-1.627900	-0.743284	0.205970	-1.311837	-0.008141	-0.002037	0.020078
98	0.534286	0.005000	9.410361	0.824040	-1.719321	-0.743284	0.205970	-1.311960	-0.013170	0.002235	0.001083
99	0.539286	0.005000	9.323418	0.818806	-1.603606	-0.743284	0.205970	-1.312083	0.000956	0.003435	0.005843
100	0.544286	0.005000	9.266397	0.787678	-1.648080	-0.743284	0.205970	-1.312206	-0.012966	0.002868	-0.001124
101	0.549286	0.005000	9.301726	0.786646	-1.569600	-0.743284	0.205970	-1.312329	-0.005779	-0.000875	-0.002825
102	0.554286	0.005000	9.378360	0.787740	-1.645140	-0.743284	0.205970	-1.312453	-0.001242	-0.011258	0.002994
103	0.559286	0.005000	9.350647	0.824040	-1.683478	-0.743284	0.205970	-1.312576	-0.002738	-0.007046	-0.004906
104	0.564286	0.005000	9.294049	0.751391	-1.569600	-0.743284	0.205970	-1.312699	-0.004024	-0.008094	0.002472
105	0.569286	0.005000	9.308018	0.894382	-1.507397	-0.743284	0.205970	-1.312822	-0.015126	0.012020	0.011935
106	0.574286	0.005000	9.270821	0.893824	-1.557934	-0.743284	0.205970	-1.312945	-0.002178	-0.000636	-0.005542
107	0.579286	0.005000	9.364311	0.889925	-1.503715	-0.743284	0.205970	-1.313068	-0.005958	0.000685	0.005920
108	0.584286	0.005000	9.275465	0.917345	-1.539951	-0.743284	0.205970	-1.313192	-0.009093	0.002556	-0.002133
109	0.589286	0.005000	9.316828	0.863280	-1.591892	-0.743284	0.205970	-1.313315	-0.005065	-0.002504	0.015312
110	0.594286	0.005000	9.241504	0.883384	-1.609808	-0.743284	0.206158	-1.312493	-0.000305	-0.001621	0.003501
111	0.599286	0.005000	9.278584	0.902520	-1.626784	-0.743284	0.206379	-1.311507	0.001722	-0.008668	0.005935
112	0.604286	0.005000	9.323586	0.824040	-1.639908	-0.743284	0.206600	-1.310520	-0.009535	0.001173	0.004303
113	0.609286	0.005000	9.378360	0.810450	-1.661670	-0.743284	0.206820	-1.309534	-0.013119	0.008052	-0.004037
114	0.614286	0.005000	9.395247	0.829506	-1.597664	-0.743284	0.207041	-1.308548	-0.010703	-0.010066	0.006063
115	0.619286	0.005000	9.299880	0.884277	-1.599718	-0.743284	0.207262	-1.307562	-0.006937	-0.000100	0.000464
116	0.624286	0.005000	9.364709	0.849629	-1.615666	-0.743284	0.207483	-1.306576	-0.007731	-0.015237	0.012768
117	0.629286	0.005000	9.339120	0.863280	-1.600021	-0.743284	0.207704	-1.305589	-0.012327	-0.000907	0.005429
118	0.634286	0.005000	9.339120	0.828911	-1.572035	-0.743284	0.207924	-1.304603	-0.017697	0.001341	-0.003893
119	0.639286	0.005000	9.260579	0.784739	-1.569784	-0.743284	0.208145	-1.303617	-0.012109	-0.011205	0.006331
120	0.644286	0.005000	9.258310	0.819381	-1.613499	-0.743284	0.208366	-1.302631	-0.012091	-0.002612	-0.004004
121	0.649286	0.005000	9.295580	0.749860	-1.565300	-0.743284	0.208587	-1.301644	-0.013396	-0.017324	0.000473
122	0.654286	0.005000	9.299880	0.752266	-1.595428	-0.743284	0.208808	-1.300658	-0.017314	-0.002173	0.002906
123	0.659286	0.005000	9.325831	0.802101	-1.530360	-0.743247	0.208771	-1.300000	0.000431	-0.008371	0.007208
124	0.664286	0.005000	9.277750	0.947805	-1.597775	-0.743137	0.208219	-1.300000	-0.011237	-0.008180	0.004686
125	0.669286	0.005000	9.222096	0.954376	-1.582912	-0.743026	0.207668	-1.300000	-0.005884	-0.012975	0.013437
126	0.674286	0.005000	9.308297	0.847869	-1.593429	-0.742916	0.207116	-1.300000	-0.011568	-0.013003	0.016725
127	0.679286	0.005000	9.274863	0.838263	-1.608840	-0.742806	0.206564	-1.300000	-0.008413	-0.004078	-0.003529
128	0.684286	0.005000	9.259127	0.862524	-1.668078	-0.742695	0.206012	-1.300000	-0.012457	-0.004261	0.003223
129	0.689286	0.005000	9.287927	0.801864	-1.682208	-0.742585	0.205460	-1.300000	-0.012871	-0.010202	-0.002930
130	0.694286	0.005000	9.299880	0.867996	-1.726560	-0.742474	0.204908	-1.300000	-0.013050	-0.008649	-0.011100
131	0.699286	0.005000	9.379933	0.798929	-1.674764	-0.742364	0.204356	-1.300000	-0.012284	-0.008727	0.010390
132	0.704286	0.005000	9.368060	0.776459	-1.619140	-0.742253	0.203804	-1.300000	-0.020225	-0.013772	-0.002629
133	0.709286	0.005000	9.252755	0.941760	-1.530360	-0.742143	0.203252	-1.300000	-0.013366	-0.016626	0.013496
134	0.714286	0.005000	9.233139	0.924152	-1.496989	-0.742032	0.202700	-1.300000	-0.015939	-0.006741	0.002934
135	0.719286	0.005000	9.189231	0.827575	-1.612375	-0.741922	0.202148	-1.300000	-0.006998	-0.017200	0.003783
136	0.724286	0.005000	9.299880	0.825158	-1.648080	-0.741812	0.201596	-1.300000	-0.016988	-0.008521	0.001591
137	0.729286	0.005000	9.299880	0.901694	-1.724907	-0.741791	0.201403	-1.300702	-0.007740	-0.010009	-0.008888
138	0.734286	0.005000	9.342312	0.938568	-1.720176	-0.741791	0.201293	-1.301565	-0.013847	-0.007579	0.011402
139	0.739286	0.005000	9.260640	0.784800	-1.625586	-0.741791	0.201182	-1.302428	-0.022731	-0.003366	0.005058
140	0.744286	0.005000	9.260640	0.855701	-1.703824	-0.741791	0.201072	-1.303291	-0.011035	-0.003969	0.003810
141	0.749286	0.005000	9.329242	0.794678	-1.687320	-0.741791	0.200961	-1.304154	-0.019648	-0.004027	0.004931
142	0.754286	0.005000	9.339120	0.824040	-1.596903	-0.741791	0.200851	-1.305017	-0.002864	-0.017075	-0.004247
143	0.759286	0.005000	9.403254	0.859483	-1.569600	-0.741791	0.200741	-1.305880	-0.002761	-0.008496	0.010275
144	0.764286	0.005000	9.299880	0.964710	-1.569600	-0.741791	0.200630	-1.306743	-0.009612	-0.000495	0.004049
145	0.769286	0.005000	9.318582	0.822203	-1.668618	-0.741791	0.200520	-1.307606	-0.008220	-0.010188	0.011916
146	0.774286	0.005000	9.299880	0.863280	-1.590460	-0.741791	0.200409	-1.308469	-0.018254	-0.008849	-0.001358
147	0.779286	0.005000	9.325371	0.777926	-1.680446	-0.741791	0.200299	-1.309332	-0.005857	-0.005579	-0.000203
148	0.784286	0.005000	9.296915	0.913623	-1.619943	-0.741791	0.200188	-1.310195	-0.000175	0.005442	0.002001
149	0.789286	0.005000	9.307961	0.863280	-1.545940	-0.741791	0.200078	-1.311058	-0.009695	-0.008575	-0.008946
150	0.794286	0.005000	9.329704	0.951176	-1.470712	-0.741856	0.199903	-1.311703	-0.004750	-0.011728	0.006233
151	0.799286	0.005000	9.339120	0.863280	-1.584364	-0.742077	0.199571	-1.311826	-0.015177	-0.003748	-0.006308
152	0.804286	0.005000	9.323923	0.907586	-1.692386	-0.742298	0.199240	-1.311950	-0.005147	-0.011725	0.001315
153	0.809286	0.005000	9.302966	0.863280	-1.684234	-0.742518	0.198909	-1.312073	-0.011286	-0.004568	0.003793
154	0.814286	0.005000	9.339824	0.861167	-1.764391	-0.742739	0.198578	-1.312196	-0.009710	-0.010768	0.004245
155	0.819286	0.005000	9.303238	0.820682	-1.612198	-0.742960	0.198246	-1.312319	-0.004131	-0.013113	0.007108
156	0.824286	0.005000	9.303522	0.855995	-1.565958	-0.743181	0.197915	-1.312443	-0.006783	0.004075	-0.005851
157	0.829286	0.005000	9.366265	0.863280	-1.635985	-0.743401	0.197584	-1.312566	-0.011400	-0.019526	-0.003259
158	0.834286	0.005000	9.291515	0.801531	-1.718195	-0.743622	0.197253	-1.312689	-0.017387	-0.001569	-0.000548
159	0.839286	0.005000	9.271047	0.755967	-1.718541	-0.743843	0.196922	-1.312812	-0.014858	-0.010945	0.001669
160	0.844286	0.005000	9.246723	0.850619	-1.596179	-0.744064	0.196590	-1.312936	-0.013736	-0.001693	0.002865
161	0.849286	0.005000	9.285121	0.809281	-1.657802	-0.744285	0.196259	-1.313059	-0.012545	0.000011	0.000588
162	0.854286	0.005000	9.361387	0.801773	-1.726560	-0.744505	0.195928	-1.313182	-0.011075	-0.015850	0.010081
163	0.859286	0.005000	9.280765	0.923655	-1.627955	-0.744726	0.195597	-1.313305	-0.009432	-0.003832	-0.000435
164	0.864286	0.005000	9.256828	0.880994	-1.587314	-0.744605	0.195693	-1.313142	-0.007128	-0.005399	0.006728
165	0.869286	0.005000	9.323539	0.800381	-1.671739	-0.744384	0.195914	-1.312895	-0.019349	0.000524	-0.001301
166	0.874286	0.005000	9.364999	0.745560	-1.688162	-0.744163	0.196135	-1.312649	-0.015589	-0.003342	-0.006752
167	0.879286	0.005000	9.299880	0.795747	-1.726560	-0.743943	0.196355	-1.312402	-0.017990	-0.008974	0.008953
168	0.884286	0.005000	9.308775	0.845490	-1.617735	-0.743722	0.196576	-1.312156	-0.013229	-0.001975	-0.010147
169	0.889286	0.005000	9.280436	0.738961	-1.674123	-0.743501	0.196797	-1.311909	-0.011480	-0.009931	-0.000061
170	0.894286	0.005000	9.299880	0.753947	-1.687320	-0.743280	0.197018	-1.311663	-0.009493	0.001811	0.007686
171	0.899286	0.005000	9.376136	0.826264	-1.648080	-0.743059	0.197239	-1.311416	-0.003375	-0.016111	0.003655
172	0.904286	0.005000	9.339120	0.863280	-1.648080	-0.742839	0.197459	-1.311170	-0.010588	-0.008579	0.013231
173	0.909286	0.005000	9.226483	0.902520	-1.684779	-0.742618	0.197680	-1.310923	-0.014745	-0.013297	-0.003749
174	0.914286	0.005000	9.260640	0.828557	-1.643563	-0.742397	0.197901	-1.310677	-0.007330	-0.009849	0.016175
175	0.919286	0.005000	9.253707	0.791733	-1.694253	-0.742176	0.198122	-1.310430	-0.013784	-0.002881	0.012378
176	0.924286	0.005000	9.339120	0.945494	-1.639204	-0.741955	0.198343	-1.310184	-0.001841	-0.016269	0.003379
177	0.929286	0.005000	9.327836	0.818651	-1.608840	-0.741791	0.198592	-1.309905	-0.015964	-0.005831	0.008944
178	0.934286	0.005000	9.235097	0.784800	-1.661777	-0.741791	0.198923	-1.309535	-0.016153	-0.003954	-0.005855
179	0.939286	0.005000	9.276281	0.784800	-1.648080	-0.741791	0.199254	-1.309165	-0.001498	-0.010809	0.011772
180	0.944286	0.005000	9.263779	0.863280	-1.651219	-0.741791	0.199586	-1.308795	-0.002088	-0.004305	-0.008371
181	0.949286	0.005000	9.378360	0.825250	-1.648080	-0.741791	0.199917	-1.308425	-0.006102	-0.011559	0.016009
182	0.954286	0.005000	9.322285	0.807205	-1.541624	-0.741791	0.200249	-1.308055	-0.004121	-0.002462	-0.001888
183	0.959286	0.005000	9.182160	0.852884	-1.608840	-0.741791	0.200580	-1.307685	-0.003404	-0.002781	-0.000248
184	0.964286	0.005000	9.275192	0.941760	-1.662632	-0.741791	0.200911	-1.307315	-0.006362	0.002374	0.008918
185	0.969286	0.005000	9.299880	0.853206	-1.541491	-0.741791	0.201243	-1.306945	-0.000347	-0.009097	0.000456
186	0.974286	0.005000	9.275975	0.847042	-1.648080	-0.741791	0.201574	-1.306575	-0.005520	-0.008616	0.003781
187	0.979286	0.005000	9.299880	0.908244	-1.720836	-0.741791	0.201905	-1.306205	-0.014058	-0.000619	-0.000537
188	0.984286	0.005000	9.378360	0.899213	-1.648080	-0.741791	0.202237	-1.305835	-0.013960	-0.006262	0.004501
189	0.989286	0.005000	9.377014	0.824040	-1.604801	-0.741791	0.202568	-1.305465	-0.019823	0.002658	0.008134
190	0.994286	0.005000	9.300921	0.862239	-1.682115	-0.741791	0.202900	-1.305095	-0.004599	0.007108	-0.010915
191	0.999286	0.005000	9.335701	0.853024	-1.602002	-0.741873	0.202411	-1.303994	-0.005127	-0.007460	-0.001610
192	1.004286	0.005000	9.299880	0.711722	-1.575002	-0.741983	0.201639	-1.302637	-0.003652	-0.000857	-0.008454
193	1.009286	0.005000	9.229208	0.721936	-1.569600	-0.742094	0.200866	-1.301281	-0.012137	-0.013348	0.017769
194	1.014286	0.005000	9.388465	0.853175	-1.618945	-0.742204	0.200093	-1.299925	-0.018158	0.001726	-0.003572
195	1.019286	0.005000	9.351287	0.811873	-1.596673	-0.742315	0.199320	-1.298569	-0.013947	0.002102	-0.000373
196	1.024286	0.005000	9.246239	0.735122	-1.668956	-0.742425	0.198547	-1.297213	-0.005781	-0.009150	0.003513
197	1.029286	0.005000	9.283360	0.784800	-1.540679	-0.742536	0.197774	-1.295857	-0.012487	-0.003629	-0.009776
198	1.034286	0.005000	9.320197	0.863280	-1.592703	-0.742646	0.197002	-1.294501	-0.008110	-0.013737	0.006804
199	1.039286	0.005000	9.417600	0.727407	-1.690255	-0.742756	0.196229	-1.293145	-0.013569	-0.007765	-0.005436
200	1.044286	0.005000	9.417600	0.768838	-1.585562	-0.742867	0.195456	-1.291789	-0.012455	-0.010441	0.003272
201	1.049286	0.005000	9.247090	0.784800	-1.583150	-0.742977	0.194683	-1.290433	-0.019690	0.000611	0.003561
202	1.054286	0.005000	9.299880	0.768493	-1.569600	-0.743088	0.193910	-1.289077	-0.015221	-0.007432	-0.005549
203	1.059286	0.005000	9.260640	0.881676	-1.618038	-0.743198	0.193137	-1.287721	-0.011484	-0.013977	0.010861
204	1.064286	0.005000	9.253858	0.849715	-1.680538	-0.743530	0.192414	-1.286502	-0.005532	0.005141	-0.002732
205	1.069286	0.005000	9.255860	0.843161	-1.746679	-0.744634	0.191862	-1.285762	-0.004792	-0.013270	0.010139
206	1.074286	0.005000	9.187027	0.868147	-1.606407	-0.745738	0.191310	-1.285023	-0.009230	-0.013880	0.002956
207	1.079286	0.005000	9.299880	0.863280	-1.646628	-0.746842	0.190758	-1.284283	-0.002721	0.000250	0.000078
208	1.084286	0.005000	9.225257	0.825968	-1.567672	-0.747946	0.190206	-1.283543	-0.007195	-0.014752	0.008507
209	1.089286	0.005000	9.291214	0.824040	-1.608840	-0.749050	0.189654	-1.282804	-0.007059	-0.000698	-0.001985
210	1.094286	0.005000	9.260640	0.857003	-1.550768	-0.750154	0.189102	-1.282064	-0.001893	-0.010796	0.001356
211	1.099286	0.005000	9.282494	0.924374	-1.617533	-0.751258	0.188550	-1.281324	-0.011791	0.002900	0.002611
212	1.104286	0.005000	9.328153	0.717287	-1.732898	-0.752362	0.187998	-1.280585	-0.015590	-0.007795	0.004450
213	1.109286	0.005000	9.286718	0.811001	-1.778962	-0.753466	0.187446	-1.279845	-0.013997	-0.012125	-0.000575
214	1.114286	0.005000	9.260640	0.784800	-1.576704	-0.754570	0.186894	-1.279105	-0.022851	-0.000256	-0.008940
215	1.119286	0.005000	9.239053	0.902520	-1.648080	-0.755674	0.186342	-1.278366	-0.014440	-0.015802	0.009784
216	1.124286	0.005000	9.280444	0.863647	-1.667884	-0.756778	0.185791	-1.277626	-0.008586	-0.010232	-0.006617
217	1.129286	0.005000	9.255450	0.846255	-1.726560	-0.757882	0.185239	-1.276886	-0.008589	-0.015520	0.001279
218	1.134286	0.005000	9.206319	0.887439	-1.711479	-0.757588	0.185774	-1.278055	-0.013551	-0.011095	-0.002025
219	1.139286	0.005000	9.206279	0.849384	-1.660752	-0.756704	0.186768	-1.280027	-0.006708	-0.015621	-0.005126
220	1.144286	0.005000	9.367632	0.881063	-1.587383	-0.755821	0.187761	-1.282000	-0.005652	-0.017129	0.007474
221	1.149286	0.005000	9.370047	0.871593	-1.592213	-0.754938	0.188755	-1.283972	-0.008525	-0.014088	-0.003087
222	1.154286	0.005000	9.326534	0.922881	-1.458173	-0.754055	0.189748	-1.285945	-0.007274	-0.016403	0.006867
223	1.159286	0.005000	9.370432	0.859316	-1.640152	-0.753172	0.190742	-1.287917	-0.019240	-0.006110	0.000459
224	1.164286	0.005000	9.262186	0.977907	-1.651173	-0.752288	0.191735	-1.289890	-0.017831	-0.010533	0.006493
225	1.169286	0.005000	9.338722	0.902520	-1.610034	-0.751405	0.192729	-1.291862	-0.015588	0.002593	0.002006
226	1.174286	0.005000	9.299880	0.793105	-1.645312	-0.750522	0.193722	-1.293834	-0.018833	-0.005157	-0.003027
227	1.179286	0.005000	9.235633	0.858536	-1.687320	-0.749639	0.194716	-1.295807	-0.007399	-0.014283	0.010416
228	1.184286	0.005000	9.207100	0.895370	-1.744350	-0.748756	0.195710	-1.297779	-0.016654	-0.012941	-0.008438
229	1.189286	0.005000	9.339120	0.833495	-1.618295	-0.747873	0.196703	-1.299752	-0.009079	-0.017266	0.006592
230	1.194286	0.005000	9.355342	0.812531	-1.581109	-0.746989	0.197697	-1.301724	-0.019923	-0.012371	0.002342
231	1.199286	0.005000	9.299880	0.863280	-1.564578	-0.746188	0.198609	-1.303469	-0.007518	-0.007016	0.013666
232	1.204286	0.005000	9.309062	0.768659	-1.493344	-0.745746	0.199161	-1.304209	-0.015218	-0.012074	0.006671
233	1.209286	0.005000	9.284300	0.805767	-1.569600	-0.745304	0.199713	-1.304949	-0.014829	-0.006623	0.004525
234	1.214286	0.005000	9.281077	0.842843	-1.509923	-0.744863	0.200265	-1.305688	0.000773	-0.009018	0.000804
235	1.219286	0.005000	9.272674	0.807428	-1.602823	-0.744421	0.200817	-1.306428	-0.011591	-0.012141	-0.005956
236	1.224286	0.005000	9.210565	0.788167	-1.673118	-0.743980	0.201369	-1.307168	-0.018091	-0.013311	0.004558
237	1.229286	0.005000	9.260640	0.941760	-1.635963	-0.743538	0.201921	-1.307907	-0.017883	-0.007931	0.010832
238	1.234286	0.005000	9.270484	0.863280	-1.697164	-0.743096	0.202473	-1.308647	-0.009202	-0.008270	-0.002187
239	1.239286	0.005000	9.268446	0.824040	-1.640274	-0.742655	0.203025	-1.309387	-0.009137	-0.018158	0.008804
240	1.244286	0.005000	9.383856	0.751056	-1.535856	-0.742213	0.203577	-1.310126	-0.021820	-0.002684	0.000571
241	1.249286	0.005000	9.332101	0.824040	-1.608840	-0.741772	0.204129	-1.310866	-0.008725	-0.014885	0.005837
242	1.254286	0.005000	9.259492	0.788243	-1.570748	-0.741330	0.204681	-1.311606	-0.012503	-0.004326	0.001822
243	1.259286	0.005000	9.221400	0.864536	-1.570856	-0.740889	0.205233	-1.312346	-0.011020	-0.019364	-0.000773
244	1.264286	0.005000	9.188588	0.856852	-1.572814	-0.740447	0.205785	-1.313085	-0.010179	-0.010742	0.003211
245	1.269286	0.005000	9.260640	0.852042	-1.676082	-0.740299	0.205823	-1.313333	-0.026388	-0.004778	-0.001660
246	1.274286	0.005000	9.307443	0.824040	-1.521373	-0.740299	0.205602	-1.313333	-0.003664	-0.014314	0.013022
247	1.279286	0.005000	9.289902	0.804757	-1.638102	-0.740299	0.205382	-1.313333	-0.020334	-0.003053	-0.000426
248	1.284286	0.005000	9.299880	0.851042	-1.711796	-0.740299	0.205161	-1.313333	-0.006198	-0.010095	0.007982
249	1.289286	0.005000	9.207070	0.838370	-1.633750	-0.740299	0.204940	-1.313333	-0.012251	-0.004276	0.004922
250	1.294286	0.005000	9.204657	0.914029	-1.653834	-0.740299	0.204719	-1.313333	-0.020406	0.005964	-0.007364
251	1.299286	0.005000	9.241716	0.863280	-1.608840	-0.740299	0.204498	-1.313333	-0.007134	-0.009320	0.009156
252	1.304286	0.005000	9.318023	0.920663	-1.632892	-0.740299	0.204278	-1.313333	-0.013564	0.005110	0.001436
253	1.309286	0.005000	9.213442	0.863280	-1.624573	-0.740299	0.204057	-1.313333	-0.009177	-0.013052	0.006334
254	1.314286	0.005000	9.313510	0.849650	-1.673690	-0.740299	0.203836	-1.313333	-0.015527	-0.001685	0.003067
255	1.319286	0.005000	9.350506	0.868361	-1.648080	-0.740299	0.203615	-1.313333	-0.018682	-0.011894	0.000095
256	1.324286	0.005000	9.369388	0.833012	-1.578572	-0.740299	0.203394	-1.313333	-0.017264	-0.007831	0.001063
257	1.329286	0.005000	9.292853	0.856253	-1.712505	-0.740299	0.203174	-1.313333	-0.013865	-0.001712	-0.004196
258	1.334286	0.005000	9.177538	0.833284	-1.687320	-0.740347	0.202953	-1.313279	-0.008086	-0.001809	0.000726
259	1.339286	0.005000	9.263287	0.902520	-1.682025	-0.740678	0.202732	-1.312909	-0.014741	0.001693	-0.003253
260	1.344286	0.005000	9.339641	0.941500	-1.452140	-0.741010	0.202511	-1.312539	-0.009795	-0.010343	-0.000779
261	1.349286	0.005000	9.380478	0.791153	-1.602487	-0.741341	0.202290	-1.312170	-0.012381	-0.009877	0.006527
262	1.354286	0.005000	9.456840	0.749648	-1.648080	-0.741672	0.202070	-1.311800	-0.014817	-0.008835	-0.007912
263	1.359286	0.005000	9.384789	0.739131	-1.680891	-0.742003	0.201849	-1.311430	-0.012586	-0.011939	0.001383
264	1.364286	0.005000	9.285984	0.784800	-1.625736	-0.742334	0.201628	-1.311060	-0.015914	-0.007837	-0.001967
265	1.369286	0.005000	9.249785	0.920050	-1.630550	-0.742665	0.201407	-1.310690	-0.005767	-0.005791	0.013053
266	1.374286	0.005000	9.299880	0.837155	-1.661195	-0.742997	0.201186	-1.310320	-0.013601	0.006111	0.009496
267	1.379286	0.005000	9.363148	0.872095	-1.696135	-0.743328	0.200966	-1.309951	-0.012342	-0.007169	0.003143
268	1.384286	0.005000	9.321709	0.802211	-1.687320	-0.743659	0.200745	-1.309581	-0.015983	-0.004005	-0.000880
269	1.389286	0.005000	9.260640	0.765241	-1.687320	-0.743990	0.200524	-1.309211	-0.014542	-0.002019	-0.003794
270	1.394286	0.005000	9.265340	0.789500	-1.574300	-0.744321	0.200303	-1.308841	-0.006240	-0.014441	0.008360
271	1.399286	0.005000	9.221400	0.863280	-1.615576	-0.744652	0.200082	-1.308471	-0.014226	-0.007485	0.006344
272	1.404286	0.005000	9.169243	0.810634	-1.674403	-0.744707	0.199793	-1.308410	0.000344	-0.002065	0.002977
273	1.409286	0.005000	9.260640	0.891674	-1.637234	-0.744597	0.199461	-1.308534	-0.004171	-0.003332	0.003027
274	1.414286	0.005000	9.260640	0.723437	-1.608840	-0.744486	0.199130	-1.308657	-0.007132	-0.009109	0.005717
275	1.419286	0.005000	9.200617	0.824040	-1.648080	-0.744376	0.198799	-1.308780	-0.008262	-0.008143	0.010028
276	1.424286	0.005000	9.308200	0.832360	-1.705760	-0.744265	0.198468	-1.308903	-0.014699	0.003824	0.000987
277	1.429286	0.005000	9.298089	0.825831	-1.612423	-0.744155	0.198136	-1.309027	-0.009233	-0.006410	0.008518
278	1.434286	0.005000	9.338814	0.863280	-1.648233	-0.744045	0.197805	-1.309150	-0.009907	0.004395	-0.000787
279	1.439286	0.005000	9.260640	0.831710	-1.650637	-0.743934	0.197474	-1.309273	-0.020092	-0.004887	-0.007050
280	1.444286	0.005000	9.368527	0.828956	-1.623589	-0.743824	0.197143	-1.309397	-0.021030	-0.015848	0.007331
281	1.449286	0.005000	9.299880	0.902520	-1.726560	-0.743714	0.196811	-1.309520	-0.007692	-0.001947	0.002471
282	1.454286	0.005000	9.329908	0.941760	-1.696532	-0.743603	0.196480	-1.309643	-0.002788	-0.010601	0.011307
283	1.459286	0.005000	9.327856	0.902520	-1.547072	-0.743493	0.196149	-1.309767	-0.009862	-0.008174	0.002354
284	1.464286	0.005000	9.287984	0.837712	-1.648080	-0.743383	0.195818	-1.309890	-0.012970	-0.007728	0.003054
285	1.469286	0.005000	9.268083	0.800699	-1.570614	-0.743296	0.195569	-1.309934	-0.013861	-0.005564	0.015578
286	1.474286	0.005000	9.321092	0.827223	-1.545205	-0.743406	0.196011	-1.309318	-0.017630	-0.004068	0.004476
287	1.479286	0.005000	9.259490	0.883475	-1.530360	-0.743517	0.196453	-1.308701	-0.004105	0.001697	0.001673
288	1.484286	0.005000	9.283023	0.801657	-1.564073	-0.743627	0.196894	-1.308085	-0.013786	0.001599	0.000396
289	1.489286	0.005000	9.285433	0.838487	-1.584047	-0.743737	0.197336	-1.307468	-0.017715	-0.008664	0.013068
290	1.494286	0.005000	9.130561	0.850921	-1.581959	-0.743848	0.197778	-1.306852	-0.015443	-0.003660	0.013911
291	1.499286	0.005000	9.192249	0.863280	-1.668259	-0.743958	0.198219	-1.306236	-0.012348	0.002072	0.009104
292	1.504286	0.005000	9.253591	0.840135	-1.679272	-0.744068	0.198661	-1.305619	-0.014385	-0.008193	0.014051
293	1.509286	0.005000	9.378360	0.869019	-1.642341	-0.744179	0.199103	-1.305003	-0.009645	0.000127	-0.001428
294	1.514286	0.005000	9.303202	0.892553	-1.543649	-0.744289	0.199544	-1.304386	-0.007284	-0.010678	0.015424
295	1.519286	0.005000	9.224156	0.748316	-1.573734	-0.744399	0.199986	-1.303770	-0.006528	-0.009648	0.010927
296	1.524286	0.005000	9.338106	0.900493	-1.687320	-0.744510	0.200428	-1.303154	-0.010880	-0.006646	0.007942
297	1.529286	0.005000	9.333180	0.829980	-1.611810	-0.744620	0.200869	-1.302537	-0.008277	0.001314	0.012461
298	1.534286	0.005000	9.446221	0.891901	-1.687320	-0.744731	0.201311	-1.301921	-0.015632	0.006669	-0.000017
299	1.539286	0.005000	9.353757	0.863280	-1.687320	-0.744776	0.201558	-1.302175	-0.019424	-0.005218	0.003697
300	1.544286	0.005000	9.299880	0.853659	-1.707318	-0.744776	0.201668	-1.303038	-0.016487	0.002100	0.002974
301	1.549286	0.005000	9.228868	0.886634	-1.632194	-0.744776	0.201779	-1.303901	-0.008793	0.002451	0.002436
302	1.554286	0.005000	9.285795	0.877365	-1.530360	-0.744776	0.201889	-1.304765	-0.010709	-0.005569	0.008427
303	1.559286	0.005000	9.307060	0.902520	-1.576780	-0.744776	0.202000	-1.305628	-0.004993	0.004781	0.008939
304	1.564286	0.005000	9.299880	0.863280	-1.569600	-0.744776	0.202110	-1.306491	-0.006983	-0.005796	0.011128
305	1.569286	0.005000	9.301847	0.824040	-1.666717	-0.744776	0.202220	-1.307354	-0.010103	-0.003641	-0.002384
306	1.574286	0.005000	9.339120	0.902520	-1.664523	-0.744776	0.202331	-1.308218	-0.002010	-0.012244	0.011687
307	1.579286	0.005000	9.221400	0.863280	-1.620012	-0.744776	0.202441	-1.309081	-0.017982	0.003973	-0.002184
308	1.584286	0.005000	9.272730	0.851190	-1.620930	-0.744776	0.202552	-1.309944	-0.019990	-0.007388	-0.003820
309	1.589286	0.005000	9.447164	0.833716	-1.658292	-0.744776	0.202662	-1.310808	-0.007089	0.006750	0.011207
310	1.594286	0.005000	9.347433	0.902520	-1.600527	-0.744776	0.202772	-1.311671	-0.008897	-0.003330	0.000384
311	1.599286	0.005000	9.260640	0.981000	-1.805040	-0.744776	0.202883	-1.312534	-0.008268	-0.005971	0.006651
312	1.604286	0.005000	9.192189	0.935074	-1.723217	-0.744776	0.202935	-1.313287	-0.016735	-0.004378	0.004136
313	1.609286	0.005000	9.300859	0.862301	-1.685361	-0.744776	0.202273	-1.312671	-0.011713	-0.005628	0.010145
314	1.614286	0.005000	9.301302	0.786222	-1.608840	-0.744776	0.201611	-1.312054	-0.013655	-0.002939	0.007360
315	1.619286	0.005000	9.339120	0.899138	-1.451880	-0.744776	0.200948	-1.311438	-0.012040	-0.008639	-0.000646
316	1.624286	0.005000	9.339120	0.863280	-1.630926	-0.744776	0.200286	-1.310821	-0.009642	-0.015048	0.020319
317	1.629286	0.005000	9.292148	0.871012	-1.655812	-0.744776	0.199624	-1.310205	-0.009993	-0.003244	-0.002308
318	1.634286	0.005000	9.279587	0.902520	-1.639280	-0.744776	0.198961	-1.309589	-0.004591	-0.012558	0.003424
319	1.639286	0.005000	9.258613	0.890116	-1.569600	-0.744776	0.198299	-1.308972	-0.009780	0.000025	0.000088
320	1.644286	0.005000	9.246141	0.799299	-1.569600	-0.744776	0.197636	-1.308356	-0.005463	-0.005589	-0.000932
321	1.649286	0.005000	9.249733	0.768084	-1.648080	-0.744776	0.196974	-1.307740	-0.005124	-0.002059	0.011297
322	1.654286	0.005000	9.260640	0.844425	-1.568070	-0.744776	0.196312	-1.307123	-0.015456	-0.003556	0.004440
323	1.659286	0.005000	9.239628	0.782017	-1.569600	-0.744776	0.195649	-1.306507	-0.011100	-0.004162	0.014237
324	1.664286	0.005000	9.324759	0.784800	-1.608840	-0.744776	0.194987	-1.305890	-0.011018	-0.006728	0.004042
325	1.669286	0.005000	9.366372	0.759186	-1.661706	-0.744776	0.194324	-1.305274	-0.012085	-0.010560	-0.001352
326	1.674286	0.005000	9.339120	0.851738	-1.648080	-0.744469	0.194337	-1.305205	-0.020438	-0.011110	0.008711
327	1.679286	0.005000	9.260640	0.872554	-1.597423	-0.743917	0.194889	-1.305575	-0.009795	-0.001096	-0.002366
328	1.684286	0.005000	9.293021	0.960423	-1.719701	-0.743365	0.195441	-1.305945	-0.013250	-0.002121	0.016354
329	1.689286	0.005000	9.255725	0.863280	-1.677491	-0.742813	0.195993	-1.306315	-0.024620	0.003789	0.004068
330	1.694286	0.005000	9.302390	0.860770	-1.496140	-0.742261	0.196545	-1.306685	-0.008887	-0.009744	0.006944
331	1.699286	0.005000	9.377241	0.862720	-1.609400	-0.741709	0.197097	-1.307055	-0.006935	-0.000810	0.010529
332	1.704286	0.005000	9.299880	0.824040	-1.573304	-0.741157	0.197649	-1.307424	-0.018354	-0.006231	0.002066
333	1.709286	0.005000	9.303675	0.820245	-1.750618	-0.740605	0.198201	-1.307794	-0.019671	-0.010492	0.004270
334	1.714286	0.005000	9.372159	0.857079	-1.714159	-0.740053	0.198753	-1.308164	-0.016679	0.002690	-0.001948
335	1.719286	0.005000	9.347265	0.886230	-1.757655	-0.739501	0.199305	-1.308534	-0.004627	-0.013387	0.004477
336	1.724286	0.005000	9.260640	0.766680	-1.676760	-0.738949	0.199857	-1.308904	-0.015128	0.000858	-0.000133
337	1.729286	0.005000	9.299880	0.811227	-1.595226	-0.738397	0.200409	-1.309274	-0.009306	-0.003363	0.000400
338	1.734286	0.005000	9.299880	0.842872	-1.481704	-0.737845	0.200961	-1.309644	-0.007972	-0.007658	0.010755
339	1.739286	0.005000	9.243324	0.924444	-1.613448	-0.737321	0.201505	-1.310004	-0.010865	-0.001713	0.006021
340	1.744286	0.005000	9.320579	0.824760	-1.588860	-0.737542	0.201836	-1.310128	-0.015049	-0.011638	0.011689
341	1.749286	0.005000	9.413498	0.819938	-1.648080	-0.737763	0.202168	-1.310251	-0.006223	0.003297	0.006005
342	1.754286	0.005000	9.409611	0.847654	-1.648080	-0.737984	0.202499	-1.310375	-0.003891	-0.011801	0.005059
343	1.759286	0.005000	9.430415	0.876493	-1.661293	-0.738205	0.202830	-1.310498	-0.008599	-0.006784	0.005828
344	1.764286	0.005000	9.249506	0.795934	-1.541494	-0.738426	0.203162	-1.310621	-0.007790	-0.010109	0.008998
345	1.769286	0.005000	9.282158	0.832901	-1.539221	-0.738647	0.203493	-1.310745	-0.015596	-0.001269	0.010349
346	1.774286	0.005000	9.339120	0.863280	-1.582491	-0.738868	0.203824	-1.310868	-0.010269	-0.003178	0.005377
347	1.779286	0.005000	9.378360	0.863280	-1.678318	-0.739089	0.204155	-1.310991	-0.006812	-0.012083	0.007574
348	1.784286	0.005000	9.304073	0.863280	-1.610937	-0.739310	0.204487	-1.311115	-0.012261	-0.004699	0.002805
349	1.789286	0.005000	9.338814	0.902214	-1.648233	-0.739531	0.204818	-1.311238	-0.006050	-0.011243	0.006812
350	1.794286	0.005000	9.297641	0.898042	-1.687320	-0.739752	0.205149	-1.311361	-0.008722	-0.011881	0.003046
351	1.799286	0.005000	9.256431	0.859071	-1.569600	-0.739973	0.205481	-1.311485	-0.010678	-0.008173	0.003858
352	1.804286	0.005000	9.227935	0.817505	-1.674250	-0.740194	0.205812	-1.311608	-0.005723	-0.004724	0.005303
353	1.809286	0.005000	9.247065	0.793355	-1.740135	-0.740299	0.205797	-1.311667	-0.022486	-0.000576	0.000410
354	1.814286	0.005000	9.345474	0.784800	-1.698282	-0.740299	0.205466	-1.311667	-0.013695	-0.004453	0.004718
355	1.819286	0.005000	9.260119	0.797706	-1.555652	-0.740299	0.205134	-1.311667	-0.018560	-0.000645	0.016853
356	1.824286	0.005000	9.253921	0.887200	-1.593520	-0.740299	0.204803	-1.311667	-0.009473	-0.004037	-0.002263
357	1.829286	0.005000	9.374155	0.845763	-1.613045	-0.740299	0.204472	-1.311667	-0.013854	-0.000642	0.008796
358	1.834286	0.005000	9.358794	0.765126	-1.569600	-0.740299	0.204141	-1.311667	-0.005840	0.001342	0.005411
359	1.839286	0.005000	9.282469	0.819623	-1.582594	-0.740299	0.203810	-1.311667	-0.014986	-0.010805	0.005904
360	1.844286	0.005000	9.299880	0.824040	-1.741772	-0.740299	0.203479	-1.311667	-0.012004	0.003432	-0.004365
361	1.849286	0.005000	9.312679	0.954559	-1.608840	-0.740299	0.203148	-1.311667	-0.013622	-0.010710	0.003478
362	1.854286	0.005000	9.299880	0.959290	-1.676465	-0.740299	0.202816	-1.311667	-0.016632	-0.013610	0.006608
363	1.859286	0.005000	9.238296	0.871728	-1.586496	-0.740299	0.202485	-1.311667	-0.007376	-0.002925	0.002478
364	1.864286	0.005000	9.339120	1.033764	-1.680891	-0.740299	0.202154	-1.311667	-0.013682	-0.016510	0.009004
365	1.869286	0.005000	9.312143	0.933584	-1.648080	-0.740299	0.201823	-1.311667	-0.010102	-0.005994	0.004144
366	1.874286	0.005000	9.337002	0.976764	-1.573836	-0.740304	0.201489	-1.311656	-0.001631	-0.019996	0.007431
367	1.879286	0.005000	9.299880	0.941500	-1.765019	-0.741629	0.200496	-1.308698	-0.010568	-0.004534	0.005778
368	1.884286	0.005000	9.336916	0.828448	-1.648080	-0.742953	0.199502	-1.305739	-0.015766	-0.007088	0.002791
369	1.889286	0.005000	9.378360	0.780192	-1.682712	-0.744278	0.198509	-1.302780	-0.001701	-0.008167	0.005931
370	1.894286	0.005000	9.346063	0.830983	-1.576543	-0.745603	0.197515	-1.299821	-0.013101	0.000303	-0.004166
371	1.899286	0.005000	9.339120	0.766863	-1.630143	-0.746928	0.196521	-1.296863	-0.013675	-0.009708	-0.004991
372	1.904286	0.005000	9.283391	0.812665	-1.631591	-0.748252	0.195528	-1.293904	-0.012786	-0.003218	0.002788
373	1.909286	0.005000	9.208800	0.784800	-1.543680	-0.749577	0.194534	-1.290945	-0.005061	-0.006520	0.004020
374	1.914286	0.005000	9.252682	0.824040	-1.640122	-0.750902	0.193540	-1.287986	-0.006982	-0.001473	0.012888
375	1.919286	0.005000	9.299880	0.899132	-1.594303	-0.752227	0.192547	-1.285028	-0.010907	0.002405	-0.004995
376	1.924286	0.005000	9.319967	0.843193	-1.667233	-0.753552	0.191553	-1.282069	-0.007009	-0.001852	0.005208
377	1.929286	0.005000	9.322377	0.863280	-1.592097	-0.754876	0.190560	-1.279110	-0.010828	0.001484	0.004154
378	1.934286	0.005000	9.339120	0.834024	-1.540344	-0.756201	0.189566	-1.276151	-0.000468	-0.001371	0.006930
379	1.939286	0.005000	9.260640	0.760028	-1.555132	-0.757526	0.188572	-1.273193	-0.011926	0.000337	0.010000
380	1.944286	0.005000	9.318486	0.902520	-1.608840	-0.758155	0.188113	-1.271906	0.005257	-0.008186	-0.004601
381	1.949286	0.005000	9.252602	0.855242	-1.663206	-0.758045	0.188224	-1.272399	-0.013752	-0.003062	0.014035
382	1.954286	0.005000	9.266661	0.836081	-1.590778	-0.757935	0.188334	-1.272893	-0.020795	-0.006433	-0.001553
383	1.959286	0.005000	9.260640	0.906208	-1.573288	-0.757824	0.188445	-1.273386	-0.013258	-0.014154	0.003686
384	1.964286	0.005000	9.261911	0.863280	-1.529089	-0.757714	0.188555	-1.273879	-0.008545	-0.014090	-0.002171
385	1.969286	0.005000	9.299880	0.786147	-1.529687	-0.757603	0.188666	-1.274372	-0.004025	-0.011796	0.001975
386	1.974286	0.005000	9.260640	0.827081	-1.648080	-0.757493	0.188776	-1.274866	-0.006343	0.001523	0.007138
387	1.979286	0.005000	9.314011	0.784800	-1.687320	-0.757382	0.188886	-1.275359	-0.007839	0.002088	0.003119
388	1.984286	0.005000	9.221400	0.895082	-1.655518	-0.757272	0.188997	-1.275852	-0.009915	-0.005849	0.008953
389	1.989286	0.005000	9.231127	0.853553	-1.716833	-0.757161	0.189107	-1.276346	-0.021939	0.004132	-0.003671
390	1.994286	0.005000	9.311669	0.890731	-1.699109	-0.757051	0.189218	-1.276839	-0.009917	-0.005373	-0.005444
391	1.999286	0.005000	9.289045	0.902520	-1.648080	-0.756940	0.189328	-1.277332	0.002150	0.003228	-0.002421
392	2.004286	0.005000	9.228348	0.863280	-1.648080	-0.756830	0.189438	-1.277825	0.002159	-0.001668	-0.003666
393	2.009286	0.005000	9.318436	0.844724	-1.666636	-0.756719	0.189549	-1.278319	-0.023694	-0.010195	0.018691
394	2.014286	0.005000	9.318396	0.865489	-1.666596	-0.756073	0.189874	-1.279769	-0.005184	-0.004251	0.004647
395	2.019286	0.005000	9.276976	0.905720	-1.687320	-0.755411	0.190205	-1.281248	-0.001939	-0.011008	0.012679
396	2.024286	0.005000	9.289079	0.866699	-1.608840	-0.754749	0.190536	-1.282727	-0.013191	0.001374	0.009679
397	2.029286	0.005000	9.311863	0.824040	-1.515086	-0.754087	0.190867	-1.284205	-0.007386	0.002905	-0.001604
398	2.034286	0.005000	9.329551	0.784800	-1.588738	-0.753425	0.191198	-1.285684	-0.010253	-0.009353	0.008715
399	2.039286	0.005000	9.323871	0.816416	-1.616464	-0.752763	0.191529	-1.287163	-0.018660	-0.009840	0.003755
400	2.044286	0.005000	9.260640	0.779581	-1.648080	-0.752100	0.191860	-1.288641	-0.000120	-0.007668	0.011328
401	2.049286	0.005000	9.375123	0.745560	-1.680846	-0.751438	0.192191	-1.290120	-0.021574	0.000248	-0.004095
402	2.054286	0.005000	9.336548	0.709749	-1.609697	-0.750776	0.192522	-1.291599	-0.007265	-0.011338	0.003454
403	2.059286	0.005000	9.297707	0.825127	-1.648080	-0.750114	0.192853	-1.293077	-0.008980	-0.006411	0.001297
404	2.064286	0.005000	9.371379	0.752541	-1.648080	-0.749452	0.193184	-1.294556	-0.007178	-0.010436	-0.001945
405	2.069286	0.005000	9.362476	0.818201	-1.536199	-0.748790	0.193515	-1.296035	-0.005766	-0.008066	-0.004662
406	2.074286	0.005000	9.197862	0.886818	-1.600989	-0.748128	0.193847	-1.297514	-0.013078	-0.002387	-0.004525
407	2.079286	0.005000	9.161644	0.737093	-1.590116	-0.747663	0.194276	-1.298388	-0.014458	-0.020090	0.002029
408	2.084286	0.005000	9.167324	0.863280	-1.545196	-0.747442	0.194828	-1.298511	-0.015840	-0.005907	-0.000591
409	2.089286	0.005000	9.285274	0.784800	-1.579628	-0.747221	0.195380	-1.298635	-0.015307	-0.009445	0.001750
410	2.094286	0.005000	9.372221	0.857141	-1.592290	-0.747000	0.195932	-1.298758	-0.011197	-0.001519	0.012604
411	2.099286	0.005000	9.378360	0.822724	-1.630434	-0.746779	0.196484	-1.298881	-0.006215	-0.001577	0.006009
412	2.104286	0.005000	9.435722	0.839167	-1.708438	-0.746559	0.197036	-1.299005	-0.012326	-0.006076	0.005263
413	2.109286	0.005000	9.440917	0.918443	-1.710637	-0.746338	0.197588	-1.299128	-0.015561	0.002991	-0.002603
414	2.114286	0.005000	9.286366	0.834952	-1.660293	-0.746117	0.198140	-1.299251	-0.007244	-0.007983	0.009943
415	2.119286	0.005000	9.339120	0.863280	-1.691850	-0.745896	0.198692	-1.299374	-0.010277	0.003009	0.017442
416	2.124286	0.005000	9.309035	0.872435	-1.648080	-0.745675	0.199244	-1.299498	-0.004584	-0.001356	0.010439
417	2.129286	0.005000	9.307005	0.927510	-1.608840	-0.745455	0.199796	-1.299621	-0.003700	-0.003225	0.012988
418	2.134286	0.005000	9.334314	0.902520	-1.535166	-0.745234	0.200348	-1.299744	-0.018757	0.000699	0.002667
419	2.139286	0.005000	9.339120	0.824040	-1.544504	-0.745013	0.200900	-1.299868	-0.009781	-0.005497	0.008250
420	2.144286	0.005000	9.338676	0.784356	-1.569600	-0.744792	0.201452	-1.299991	-0.013952	-0.000252	0.006028
421	2.149286	0.005000	9.187969	0.782864	-1.569600	-0.744674	0.201493	-1.300686	-0.019275	-0.010401	0.000438
422	2.154286	0.005000	9.154632	0.714128	-1.608840	-0.744563	0.201493	-1.301426	-0.014162	-0.006468	0.007962
423	2.159286	0.005000	9.215168	0.817808	-1.582065	-0.744453	0.201493	-1.302166	-0.012967	-0.000680	-0.002532
424	2.164286	0.005000	9.268892	0.855028	-1.586104	-0.744342	0.201493	-1.302906	-0.008336	-0.014013	0.004513
425	2.169286	0.005000	9.310424	0.824040	-1.626993	-0.744232	0.201493	-1.303646	-0.010735	-0.000357	0.005076
426	2.174286	0.005000	9.339120	0.744152	-1.582211	-0.744122	0.201493	-1.304386	-0.007640	-0.008537	0.006069
427	2.179286	0.005000	9.324101	0.788184	-1.584619	-0.744011	0.201493	-1.305126	-0.012672	-0.011894	0.007011
428	2.184286	0.005000	9.339120	0.818727	-1.591876	-0.743901	0.201493	-1.305866	-0.006932	-0.003619	0.000319
429	2.189286	0.005000	9.319745	0.824530	-1.569110	-0.743790	0.201493	-1.306606	-0.007950	-0.011211	0.014061
430	2.194286	0.005000	9.299880	0.905918	-1.580726	-0.743680	0.201493	-1.307346	-0.015800	0.003676	-0.005176
431	2.199286	0.005000	9.308102	0.847771	-1.601552	-0.743570	0.201493	-1.308086	-0.014176	-0.012244	0.007691
432	2.204286	0.005000	9.364957	0.967597	-1.557165	-0.743459	0.201493	-1.308826	-0.026294	0.011131	0.003217
433	2.209286	0.005000	9.350277	0.795957	-1.614610	-0.743349	0.201493	-1.309566	-0.008075	0.001678	-0.004636
434	2.214286	0.005000	9.291138	0.863280	-1.635066	-0.743284	0.201447	-1.309847	-0.013175	-0.006747	0.009681
435	2.219286	0.005000	9.385158	0.849685	-1.805040	-0.743284	0.201337	-1.309477	-0.018993	-0.003973	0.001861
436	2.224286	0.005000	9.373966	0.754348	-1.791858	-0.743284	0.201226	-1.309107	-0.005860	-0.012978	0.013471
437	2.229286	0.005000	9.299880	0.863280	-1.606420	-0.743284	0.201116	-1.308737	-0.008942	0.002088	0.002609
438	2.234286	0.005000	9.378268	0.902474	-1.569738	-0.743284	0.201005	-1.308367	-0.014895	-0.002890	0.012456
439	2.239286	0.005000	9.336775	0.900175	-1.724215	-0.743284	0.200895	-1.307997	-0.012204	0.003708	0.014007
440	2.244286	0.005000	9.256324	0.719267	-1.709297	-0.743284	0.200784	-1.307627	-0.010686	0.000298	0.005196
441	2.249286	0.005000	9.208118	0.810758	-1.634798	-0.743284	0.200674	-1.307257	-0.011616	-0.005586	0.014168
442	2.254286	0.005000	9.321789	0.815374	-1.626171	-0.743284	0.200563	-1.306887	-0.011275	-0.011301	0.001713
443	2.259286	0.005000	9.271592	0.830424	-1.637128	-0.743284	0.200453	-1.306517	-0.007687	-0.003628	0.010199
444	2.264286	0.005000	9.234424	0.811016	-1.647912	-0.743284	0.200342	-1.306147	-0.018189	-0.009738	0.003663
445	2.269286	0.005000	9.269015	0.800233	-1.577975	-0.743284	0.200232	-1.305777	-0.018515	-0.006739	-0.006757
446	2.274286	0.005000	9.299880	0.833012	-1.591463	-0.743284	0.200122	-1.305407	-0.009070	-0.012030	0.015754
447	2.279286	0.005000	9.201612	0.863280	-1.667532	-0.743284	0.200011	-1.305037	-0.008612	-0.000516	0.009160
448	2.284286	0.005000	9.317388	0.880788	-1.726560	-0.743284	0.199702	-1.305000	-0.014009	-0.012745	0.013604
449	2.289286	0.005000	9.299880	0.902520	-1.602792	-0.743284	0.199371	-1.305000	-0.017744	-0.002675	0.006487
450	2.294286	0.005000	9.339120	0.902520	-1.569600	-0.743284	0.199040	-1.305000	-0.012240	-0.014392	0.010929
451	2.299286	0.005000	9.289132	0.863280	-1.558852	-0.743284	0.198709	-1.305000	-0.017371	-0.005331	0.007677
452	2.304286	0.005000	9.291182	0.885124	-1.582746	-0.743284	0.198378	-1.305000	-0.014022	-0.002175	-0.001929
453	2.309286	0.005000	9.267037	0.935363	-1.575997	-0.743284	0.198047	-1.305000	-0.011535	-0.010526	0.013744
454	2.314286	0.005000	9.233342	0.977019	-1.648080	-0.743284	0.197715	-1.305000	-0.013207	-0.011059	-0.000428
455	2.319286	0.005000	9.225473	0.904556	-1.726560	-0.743284	0.197384	-1.305000	-0.005750	-0.018766	0.007922
456	2.324286	0.005000	9.300062	0.902611	-1.687320	-0.743284	0.197053	-1.305000	-0.009662	-0.011108	0.005231
457	2.329286	0.005000	9.415288	1.015616	-1.650392	-0.743284	0.196722	-1.305000	-0.006056	-0.011244	0.011634
458	2.334286	0.005000	9.309229	0.941760	-1.765800	-0.743284	0.196391	-1.305000	-0.004117	-0.004833	0.015442
459	2.339286	0.005000	9.234745	0.863280	-1.654753	-0.743284	0.196060	-1.305000	-0.008104	0.002045	-0.004552
460	2.344286	0.005000	9.260640	0.845339	-1.596511	-0.743284	0.195729	-1.305000	-0.014602	-0.005065	0.005024
461	2.349286	0.005000	9.288857	0.784800	-1.552407	-0.743284	0.195563	-1.305185	-0.014922	0.007384	0.004647
462	2.354286	0.005000	9.378360	0.771363	-1.581966	-0.743284	0.195674	-1.305678	-0.007511	-0.004357	0.006271
463	2.359286	0.005000	9.330641	0.910999	-1.750419	-0.743284	0.195784	-1.306172	-0.025535	-0.000324	0.001365
464	2.364286	0.005000	9.317670	0.902520	-1.683661	-0.743284	0.195895	-1.306665	-0.012020	0.009201	-0.001679
465	2.369286	0.005000	9.359073	0.785466	-1.648080	-0.743284	0.196005	-1.307158	-0.004626	-0.002051	0.008595
466	2.374286	0.005000	9.255603	0.784800	-1.643043	-0.743284	0.196116	-1.307652	-0.013581	0.000031	0.002316
467	2.379286	0.005000	9.236092	0.809348	-1.648080	-0.743284	0.196226	-1.308145	-0.005656	-0.011741	0.009311
468	2.384286	0.005000	9.142920	0.902520	-1.660828	-0.743284	0.196337	-1.308639	-0.017870	-0.007443	0.003878
469	2.389286	0.005000	9.242069	0.824040	-1.608840	-0.743284	0.196447	-1.309132	-0.014898	-0.008112	0.006393
470	2.394286	0.005000	9.347510	0.846500	-1.695710	-0.743284	0.196558	-1.309625	-0.008938	-0.005790	0.005871
471	2.399286	0.005000	9.293896	0.824040	-1.602856	-0.743284	0.196668	-1.310119	-0.012355	0.000364	0.006069
472	2.404286	0.005000	9.295886	0.792787	-1.608840	-0.743284	0.196779	-1.310612	-0.008247	-0.007327	0.006888
473	2.409286	0.005000	9.224646	0.786423	-1.530360	-0.743284	0.196889	-1.311105	-0.017637	-0.002053	0.002452
474	2.414286	0.005000	9.299880	0.746203	-1.569279	-0.743284	0.197000	-1.311599	-0.004795	-0.010426	0.001059
475	2.419286	0.005000	9.226850	0.818590	-1.603390	-0.743474	0.197110	-1.311242	-0.004005	-0.004241	0.010160
476	2.424286	0.005000	9.349285	0.936677	-1.535443	-0.743695	0.197220	-1.310749	-0.015100	0.003970	0.004605
477	2.429286	0.005000	9.274812	0.863280	-1.530360	-0.743916	0.197331	-1.310256	-0.020293	-0.006591	0.014795
478	2.434286	0.005000	9.380085	0.803558	-1.659183	-0.744137	0.197441	-1.309763	-0.015777	-0.000612	-0.000919
479	2.439286	0.005000	9.283504	0.812608	-1.715128	-0.744357	0.197552	-1.309269	-0.006786	-0.008212	-0.005719
480	2.444286	0.005000	9.196000	0.835599	-1.661920	-0.744578	0.197662	-1.308776	-0.006592	-0.002624	0.008541
481	2.449286	0.005000	9.306990	0.856170	-1.726560	-0.744799	0.197772	-1.308283	-0.007358	-0.006812	0.004157
482	2.454286	0.005000	9.299880	0.881477	-1.663430	-0.745020	0.197883	-1.307790	-0.006647	-0.003525	0.014083
483	2.459286	0.005000	9.301362	0.765921	-1.663994	-0.745241	0.197993	-1.307297	-0.016021	-0.001637	-0.000592
484	2.464286	0.005000	9.378360	0.762248	-1.687320	-0.745461	0.198103	-1.306804	-0.006677	-0.011165	0.000704
485	2.469286	0.005000	9.374764	0.852598	-1.608840	-0.745682	0.198214	-1.306311	-0.016256	-0.001730	0.001560
486	2.474286	0.005000	9.260640	0.850945	-1.581935	-0.745903	0.198324	-1.305817	-0.009835	-0.004612	-0.005437
487	2.479286	0.005000	9.329643	0.872757	-1.677843	-0.746124	0.198434	-1.305324	-0.008213	0.001293	0.004775
488	2.484286	0.005000	9.315476	0.800563	-1.671557	-0.746193	0.198545	-1.305253	-0.025478	-0.008673	0.014973
489	2.489286	0.005000	9.412029	0.790371	-1.642509	-0.745972	0.198655	-1.305993	-0.015803	-0.008075	0.016320
490	2.494286	0.005000	9.374775	0.784800	-1.726560	-0.745752	0.198766	-1.306733	-0.016694	-0.004732	0.007113
491	2.499286	0.005000	9.302299	0.746770	-1.683691	-0.745531	0.198876	-1.307473	-0.016615	-0.006475	0.007391
492	2.504286	0.005000	9.264180	0.784800	-1.569600	-0.745310	0.198987	-1.308213	-0.014593	-0.009400	0.003768
493	2.509286	0.005000	9.299880	0.824040	-1.684183	-0.745089	0.199097	-1.308953	-0.004593	-0.003974	-0.000983
494	2.514286	0.005000	9.333578	0.857738	-1.625911	-0.744868	0.199208	-1.309693	0.001301	0.000878	0.012488
495	2.519286	0.005000	9.292014	0.831906	-1.702962	-0.744647	0.199318	-1.310434	-0.012272	-0.009767	-0.003032
496	2.524286	0.005000	9.319684	0.853378	-1.765800	-0.744426	0.199429	-1.311174	-0.004015	-0.003941	0.015306
497	2.529286	0.005000	9.378360	0.863280	-1.645327	-0.744205	0.199539	-1.311914	-0.011510	-0.000042	0.004854
498	2.534286	0.005000	9.406868	0.759814	-1.505374	-0.743984	0.199650	-1.312654	-0.013973	-0.010843	0.007329
499	2.539286	0.005000	9.271399	0.846614	-1.575507	-0.743764	0.199760	-1.313394	-0.015576	-0.004174	0.018737
500	2.544286	0.005000	9.240010	0.865300	-1.668710	-0.743543	0.199871	-1.314134	-0.009446	-0.006074	0.007567
501	2.549286	0.005000	9.281661	0.884301	-1.708341	-0.743322	0.199981	-1.314874	-0.013388	-0.005065	0.010845
502	2.554286	0.005000	9.253560	0.863280	-1.671240	-0.743192	0.200366	-1.314898	-0.014477	-0.001196	-0.000852
503	2.559286	0.005000	9.376003	0.888654	-1.701186	-0.743082	0.200808	-1.314774	-0.007498	-0.005434	0.008610
504	2.564286	0.005000	9.232852	0.925424	-1.749464	-0.742972	0.201249	-1.314651	-0.005617	0.000790	0.010734
505	2.569286	0.005000	9.212006	0.913578	-1.806704	-0.742861	0.201691	-1.314528	-0.009764	-0.009374	-0.006790
506	2.574286	0.005000	9.253536	0.784800	-1.662288	-0.742751	0.202133	-1.314405	-0.007025	-0.008824	0.012827
507	2.579286	0.005000	9.299880	0.828738	-1.721862	-0.742640	0.202574	-1.314281	-0.007944	-0.002917	0.013316
508	2.584286	0.005000	9.375637	0.824040	-1.608840	-0.742530	0.203016	-1.314158	-0.007455	-0.010008	-0.000516
509	2.589286	0.005000	9.378360	0.862606	-1.569937	-0.742419	0.203457	-1.314035	-0.014882	0.000235	-0.006790
510	2.594286	0.005000	9.415558	0.821998	-1.497247	-0.742309	0.203899	-1.313911	-0.010877	-0.013006	-0.001407
511	2.599286	0.005000	9.268663	0.792823	-1.534371	-0.742199	0.204340	-1.313788	-0.012765	-0.016337	0.004554
512	2.604286	0.005000	9.280820	0.830393	-1.596133	-0.742088	0.204782	-1.313665	-0.014417	-0.010496	-0.003930
513	2.609286	0.005000	9.260640	0.815669	-1.678949	-0.741978	0.205224	-1.313541	-0.005051	-0.014542	0.011683
514	2.614286	0.005000	9.267545	0.824040	-1.598062	-0.741867	0.205665	-1.313418	-0.005553	-0.003915	0.001623
515	2.619286	0.005000	9.405949	0.824040	-1.503843	-0.741757	0.205867	-1.313218	-0.003759	-0.006389	-0.000374
516	2.624286	0.005000	9.378360	0.887384	-1.584736	-0.741646	0.205536	-1.312849	-0.005160	-0.009490	0.010177
517	2.629286	0.005000	9.395696	0.845944	-1.578737	-0.741536	0.205205	-1.312479	0.002525	-0.013590	0.001294
518	2.634286	0.005000	9.378360	0.804550	-1.628590	-0.741426	0.204874	-1.312109	-0.007656	-0.011942	0.017579
519	2.639286	0.005000	9.417600	0.928981	-1.648080	-0.741315	0.204543	-1.311739	-0.006986	-0.007623	-0.002894
520	2.644286	0.005000	9.323724	0.863280	-1.687320	-0.741205	0.204212	-1.311369	-0.010641	-0.019238	0.007005
521	2.649286	0.005000	9.182160	0.810766	-1.661063	-0.741095	0.203880	-1.310999	-0.017191	-0.005713	0.007403
522	2.654286	0.005000	9.260640	0.773878	-1.659002	-0.740984	0.203549	-1.310630	-0.010581	-0.010763	0.001979
523	2.659286	0.005000	9.330485	0.863280	-1.726560	-0.740874	0.203218	-1.310260	-0.005757	-0.011230	0.008579
524	2.664286	0.005000	9.299880	0.923074	-1.720331	-0.740764	0.202887	-1.309890	-0.019360	-0.013440	0.000188
525	2.669286	0.005000	9.334884	0.801742	-1.726560	-0.740653	0.202556	-1.309520	-0.007431	-0.010318	0.012217
526	2.674286	0.005000	9.340988	0.977264	-1.763932	-0.740543	0.202225	-1.309150	-0.012920	-0.008215	-0.001910
527	2.679286	0.005000	9.262228	0.863809	-1.726560	-0.740432	0.201894	-1.308780	-0.010457	-0.024010	0.014044
528	2.684286	0.005000	9.187120	0.787280	-1.726560	-0.740322	0.201562	-1.308410	-0.012437	-0.014844	0.010262
529	2.689286	0.005000	9.255743	0.814245	-1.648080	-0.741259	0.200707	-1.306968	-0.024864	-0.008338	0.002610
530	2.694286	0.005000	9.260640	0.863280	-1.633649	-0.742474	0.199713	-1.305241	-0.015195	-0.010230	0.010380
531	2.699286	0.005000	9.309127	0.863280	-1.597342	-0.743689	0.198719	-1.303515	-0.003220	-0.010897	0.010635
532	2.704286	0.005000	9.299880	0.851618	-1.636418	-0.744904	0.197725	-1.301788	-0.001434	-0.012848	0.015136
533	2.709286	0.005000	9.417600	0.953196	-1.583502	-0.746119	0.196731	-1.300061	-0.021207	-0.000226	0.004074
534	2.714286	0.005000	9.424811	0.879294	-1.694531	-0.747334	0.195737	-1.298334	-0.012025	-0.011245	0.000694
535	2.719286	0.005000	9.336733	0.706320	-1.548786	-0.748549	0.194743	-1.296608	-0.016952	-0.013077	0.020970
536	2.724286	0.005000	9.378360	0.684472	-1.528875	-0.749764	0.193749	-1.294881	-0.014853	-0.007286	0.003841
537	2.729286	0.005000	9.378360	0.745560	-1.563295	-0.750979	0.192755	-1.293154	-0.006728	-0.016074	0.016723
538	2.734286	0.005000	9.442484	0.756089	-1.637551	-0.752193	0.191761	-1.291428	-0.019651	-0.009637	0.004755
539	2.739286	0.005000	9.456840	0.769781	-1.581710	-0.753408	0.190766	-1.289701	-0.022177	-0.008977	0.004954
540	2.744286	0.005000	9.416662	0.735516	-1.696427	-0.754623	0.189772	-1.287974	-0.018472	-0.010530	0.021892
541	2.749286	0.005000	9.252881	0.761078	-1.490676	-0.755838	0.188778	-1.286248	-0.017671	-0.008128	0.003601
542	2.754286	0.005000	9.294537	0.722350	-1.630213	-0.756502	0.188305	-1.285410	-0.010302	-0.014217	0.016603
543	2.759286	0.005000	9.228198	0.784800	-1.540557	-0.755729	0.189188	-1.286889	-0.009732	0.001953	0.007346
544	2.764286	0.005000	9.264619	0.824040	-1.648080	-0.754957	0.190070	-1.288368	-0.009300	-0.027254	0.014073
545	2.769286	0.005000	9.379309	0.747458	-1.648080	-0.754185	0.190953	-1.289846	-0.004372	-0.014498	0.001857
546	2.774286	0.005000	9.410944	0.784800	-1.540344	-0.753412	0.191836	-1.291325	-0.014746	-0.008317	0.009894
547	2.779286	0.005000	9.406979	0.852659	-1.637459	-0.752640	0.192719	-1.292804	-0.008789	0.002783	0.022348
548	2.784286	0.005000	9.378360	0.824040	-1.577316	-0.751867	0.193602	-1.294282	-0.007521	-0.005173	-0.002149
549	2.789286	0.005000	9.348781	0.912778	-1.500781	-0.751095	0.194484	-1.295761	-0.008538	-0.011807	0.007370
550	2.794286	0.005000	9.366296	0.875344	-1.596776	-0.750323	0.195367	-1.297240	-0.013204	-0.005324	-0.001015
551	2.799286	0.005000	9.378360	0.902520	-1.673010	-0.749550	0.196250	-1.298718	-0.005057	-0.006314	0.008968
552	2.804286	0.005000	9.339120	0.817643	-1.641683	-0.748778	0.197133	-1.300197	-0.013073	-0.007887	0.014591
553	2.809286	0.005000	9.320514	0.685686	-1.650107	-0.748005	0.198016	-1.301676	-0.011717	-0.004608	0.004592
554	2.814286	0.005000	9.357584	0.745560	-1.551136	-0.747233	0.198898	-1.303155	-0.018732	-0.001419	0.005922
555	2.819286	0.005000	9.323066	0.777668	-1.585654	-0.746461	0.199781	-1.304633	-0.017074	0.004297	-0.001383
556	2.824286	0.005000	9.260640	0.835385	-1.608840	-0.746186	0.199917	-1.305464	-0.000330	-0.005390	0.000743
557	2.829286	0.005000	9.311577	0.800646	-1.620537	-0.746075	0.199806	-1.306080	-0.016217	-0.006274	-0.004608
558	2.834286	0.005000	9.270276	0.804072	-1.677684	-0.745965	0.199696	-1.306697	-0.011298	-0.004577	0.000606
559	2.839286	0.005000	9.221400	0.809348	-1.655426	-0.745854	0.199585	-1.307314	-0.014894	0.002120	-0.000140
560	2.844286	0.005000	9.265980	0.857940	-1.614180	-0.745744	0.199475	-1.307930	-0.019604	0.004296	-0.010002
561	2.849286	0.005000	9.417600	0.827025	-1.726560	-0.745633	0.199364	-1.308547	-0.012541	-0.010506	0.002338
562	2.854286	0.005000	9.416437	0.862698	-1.686738	-0.745523	0.199254	-1.309164	-0.023341	-0.002923	-0.002662
563	2.859286	0.005000	9.263365	0.861917	-1.685957	-0.745413	0.199144	-1.309780	-0.017832	-0.005579	-0.005400
564	2.864286	0.005000	9.303601	0.827761	-1.620004	-0.745302	0.199033	-1.310397	-0.021205	-0.005500	0.010725
565	2.869286	0.005000	9.372649	0.768403	-1.754379	-0.745192	0.198923	-1.311014	-0.012923	-0.001821	-0.001663
566	2.874286	0.005000	9.378360	0.847027	-1.585853	-0.745081	0.198812	-1.311630	-0.013581	-0.014192	0.007637
567	2.879286	0.005000	9.270710	0.892450	-1.627940	-0.744971	0.198702	-1.312247	-0.026091	-0.008682	0.001877
568	2.884286	0.005000	9.219593	0.918611	-1.621318	-0.744860	0.198591	-1.312864	-0.028711	-0.022226	0.003078
569	2.889286	0.005000	9.270442	0.892718	-1.500922	-0.744776	0.198639	-1.313274	-0.026175	0.005818	0.006896
570	2.894286	0.005000	9.238235	0.846445	-1.592005	-0.744776	0.199191	-1.313028	-0.022453	0.004077	-0.006767
571	2.899286	0.005000	9.318895	0.745560	-1.648080	-0.744776	0.199743	-1.312781	-0.017736	-0.008261	0.005865
572	2.904286	0.005000	9.317931	0.799712	-1.666131	-0.744776	0.200295	-1.312535	-0.018660	-0.004100	0.002778
573	2.909286	0.005000	9.276281	0.855322	-1.624481	-0.744776	0.200847	-1.312288	-0.015368	-0.021879	0.001283
574	2.914286	0.005000	9.429445	0.916217	-1.712863	-0.744776	0.201399	-1.312041	-0.028195	-0.005234	0.003496
575	2.919286	0.005000	9.271924	0.879953	-1.597556	-0.744776	0.201951	-1.311795	-0.031632	-0.010528	0.008697
576	2.924286	0.005000	9.302210	0.932532	-1.657308	-0.744776	0.202503	-1.311548	-0.032604	-0.011834	0.010169
577	2.929286	0.005000	9.189096	0.824040	-1.680384	-0.744776	0.203055	-1.311302	-0.032352	-0.013304	-0.004425
578	2.934286	0.005000	9.324326	0.784800	-1.623634	-0.744776	0.203607	-1.311055	-0.033469	-0.021624	0.000225
579	2.939286	0.005000	9.378360	0.829213	-1.687320	-0.744776	0.204159	-1.310809	-0.026607	0.001286	-0.002738
580	2.944286	0.005000	9.378360	0.902183	-1.608672	-0.744776	0.204711	-1.310562	-0.023171	-0.016150	0.004097
581	2.949286	0.005000	9.303431	0.824040	-1.644529	-0.744776	0.205263	-1.310316	-0.025446	-0.014413	0.009984
582	2.954286	0.005000	9.299880	0.819860	-1.542899	-0.744776	0.205815	-1.310069	-0.020890	-0.005038	-0.010804
583	2.959286	0.005000	9.372236	0.902520	-1.596592	-0.744458	0.205811	-1.310089	-0.007462	-0.022751	0.009073
584	2.964286	0.005000	9.409060	0.981000	-1.600300	-0.744017	0.205590	-1.310212	-0.021558	-0.003077	0.006323
585	2.969286	0.005000	9.310363	0.855490	-1.608840	-0.743575	0.205370	-1.310335	-0.018022	-0.014110	0.009223
586	2.974286	0.005000	9.378926	0.915411	-1.608840	-0.743133	0.205149	-1.310459	-0.024096	-0.004003	-0.001688
587	2.979286	0.005000	9.275767	0.815054	-1.623967	-0.742692	0.204928	-1.310582	-0.016475	-0.012666	0.007025
588	2.984286	0.005000	9.309369	0.723568	-1.626088	-0.742250	0.204707	-1.310705	-0.029789	-0.016333	0.011461
589	2.989286	0.005000	9.358543	0.785193	-1.608840	-0.741809	0.204486	-1.310829	-0.016743	-0.012745	0.009579
590	2.994286	0.005000	9.339120	0.898555	-1.644115	-0.741367	0.204266	-1.310952	-0.017607	-0.018168	0.006267
591	2.999286	0.005000	9.339120	0.911293	-1.696093	-0.740926	0.204045	-1.311075	-0.018477	-0.005466	0.006803
592	3.004286	0.005000	9.313010	0.850301	-1.674190	-0.740484	0.203824	-1.311198	-0.018000	-0.017839	0.007888
593	3.009286	0.005000	9.260640	0.867565	-1.726560	-0.740042	0.203603	-1.311322	-0.018543	-0.005948	0.009999
594	3.014286	0.005000	9.238333	0.981000	-1.757333	-0.739601	0.203382	-1.311445	-0.022067	-0.012017	-0.008018
595	3.019286	0.005000	9.312768	0.948204	-1.648080	-0.739159	0.203162	-1.311568	-0.019032	-0.012334	0.019673
596	3.024286	0.005000	9.374243	0.933526	-1.726560	-0.738894	0.203007	-1.311667	-0.010429	-0.006487	-0.006297
597	3.029286	0.005000	9.264936	0.987444	-1.720116	-0.739336	0.203118	-1.311667	-0.013083	-0.013455	0.013664
598	3.034286	0.005000	9.300125	0.942739	-1.608840	-0.739778	0.203228	-1.311667	-0.013102	-0.002894	-0.000241
599	3.039286	0.005000	9.299880	0.902520	-1.723943	-0.740219	0.203338	-1.311667	-0.015291	-0.007367	0.009592
600	3.044286	0.005000	9.299880	0.807765	-1.691913	-0.740661	0.203449	-1.311667	-0.010288	-0.006228	0.008287
601	3.049286	0.005000	9.332192	0.777872	-1.668865	-0.741102	0.203559	-1.311667	-0.014473	0.002338	0.007475
602	3.054286	0.005000	9.221400	0.784800	-1.626746	-0.741544	0.203670	-1.311667	-0.008075	-0.013012	0.012325
603	3.059286	0.005000	9.327896	0.773576	-1.586391	-0.741986	0.203780	-1.311667	-0.004865	-0.007636	0.009917
604	3.064286	0.005000	9.286266	0.875291	-1.673706	-0.742427	0.203891	-1.311667	-0.013790	-0.005565	0.004543
605	3.069286	0.005000	9.378360	0.926052	-1.561776	-0.742869	0.204001	-1.311667	-0.017803	-0.003881	0.013791
606	3.074286	0.005000	9.317791	0.841951	-1.665991	-0.743310	0.204111	-1.311667	-0.020650	-0.013857	0.000564
607	3.079286	0.005000	9.240576	0.784800	-1.609728	-0.743752	0.204222	-1.311667	-0.006727	-0.005428	0.010800
608	3.084286	0.005000	9.216226	0.829214	-1.564426	-0.744194	0.204332	-1.311667	-0.015934	-0.005854	-0.005714
609	3.089286	0.005000	9.299880	0.735606	-1.559646	-0.744635	0.204443	-1.311667	-0.009100	-0.007815	0.011806
610	3.094286	0.005000	9.378360	0.848863	-1.648080	-0.744701	0.204478	-1.311583	-0.032631	-0.004572	0.018192
611	3.099286	0.005000	9.328773	0.912867	-1.668774	-0.744590	0.204478	-1.311460	-0.016053	-0.006360	0.002837
612	3.104286	0.005000	9.323206	0.902520	-1.726560	-0.744480	0.204478	-1.311336	-0.011738	-0.015650	0.009787
613	3.109286	0.005000	9.232695	0.790447	-1.687320	-0.744370	0.204478	-1.311213	-0.010980	-0.020342	0.000475
614	3.114286	0.005000	9.260640	0.756542	-1.651741	-0.744259	0.204478	-1.311090	-0.022775	-0.014608	0.017242
615	3.119286	0.005000	9.260640	0.901234	-1.646794	-0.744149	0.204478	-1.310967	-0.013847	0.002725	-0.001135
616	3.124286	0.005000	9.298776	0.863280	-1.494433	-0.744039	0.204478	-1.310843	-0.009977	-0.007221	-0.004244
617	3.129286	0.005000	9.260640	0.712444	-1.608840	-0.743928	0.204478	-1.310720	-0.014235	-0.006940	0.003870
618	3.134286	0.005000	9.305359	0.779321	-1.603361	-0.743818	0.204478	-1.310597	-0.020397	-0.011126	-0.004960
619	3.139286	0.005000	9.378360	0.934337	-1.608840	-0.743708	0.204478	-1.310473	-0.008804	-0.010653	0.004040
620	3.144286	0.005000	9.280298	0.863280	-1.677491	-0.743597	0.204478	-1.310350	-0.014568	-0.007429	-0.007285
621	3.149286	0.005000	9.245573	0.836127	-1.542447	-0.743487	0.204478	-1.310227	-0.004299	-0.015178	0.005033
622	3.154286	0.005000	9.296588	0.813154	-1.608840	-0.743377	0.204478	-1.310103	-0.026572	-0.010959	0.006827
623	3.159286	0.005000	9.316278	0.807642	-1.641636	-0.743284	0.204460	-1.310000	-0.011473	-0.023021	-0.001650
624	3.164286	0.005000	9.281347	0.764093	-1.608840	-0.743284	0.204350	-1.310000	-0.020381	-0.026268	0.006802
625	3.169286	0.005000	9.221400	0.766504	-1.606191	-0.743284	0.204239	-1.310000	-0.017866	-0.022914	0.001849
626	3.174286	0.005000	9.175232	0.738632	-1.638852	-0.743284	0.204129	-1.310000	-0.009218	-0.035626	0.007812
627	3.179286	0.005000	9.288202	0.759341	-1.661861	-0.743284	0.204018	-1.310000	-0.018156	-0.012551	0.004515
628	3.184286	0.005000	9.327591	0.768617	-1.625023	-0.743284	0.203908	-1.310000	-0.023208	-0.027167	-0.010437
629	3.189286	0.005000	9.240339	0.745560	-1.588539	-0.743284	0.203798	-1.310000	-0.015839	-0.018457	0.000166
630	3.194286	0.005000	9.242933	0.763267	-1.719382	-0.743284	0.203687	-1.310000	-0.016760	-0.026483	-0.012388
631	3.199286	0.005000	9.299880	0.750321	-1.599317	-0.743284	0.203577	-1.310000	-0.014251	-0.022673	0.005900
632	3.204286	0.005000	9.302663	0.748343	-1.678970	-0.743284	0.203466	-1.310000	-0.019298	-0.016631	-0.005452
633	3.209286	0.005000	9.300293	0.785626	-1.687733	-0.743284	0.203356	-1.310000	-0.019207	-0.030429	-0.000476
634	3.214286	0.005000	9.339120	0.863280	-1.689302	-0.743284	0.203245	-1.310000	-0.015868	-0.028388	0.007910
635	3.219286	0.005000	9.382295	0.851476	-1.695189	-0.743284	0.203135	-1.310000	-0.011960	-0.028025	0.000919
636	3.224286	0.005000	9.502431	0.797502	-1.668266	-0.743284	0.203024	-1.310000	-0.016065	-0.025272	0.001574
637	3.229286	0.005000	9.277230	0.745560	-1.664670	-0.743213	0.202914	-1.309921	-0.026883	-0.025839	-0.000494
638	3.234286	0.005000	9.192862	0.766964	-1.587436	-0.743103	0.202804	-1.309797	-0.010516	-0.037252	0.009348
639	3.239286	0.005000	9.287264	0.837004	-1.608492	-0.742992	0.202693	-1.309674	-0.016012	-0.028258	-0.009135
640	3.244286	0.005000	9.348241	0.926701	-1.642142	-0.742882	0.202583	-1.309551	-0.017952	-0.036251	-0.004236
641	3.249286	0.005000	9.325953	0.863280	-1.608840	-0.742771	0.202473	-1.309428	-0.004941	-0.035898	-0.001443
642	3.254286	0.005000	9.319530	0.863280	-1.648080	-0.742661	0.202362	-1.309304	-0.022786	-0.038025	-0.008199
643	3.259286	0.005000	9.256232	0.806624	-1.591424	-0.742550	0.202252	-1.309181	-0.026909	-0.038523	0.003902
644	3.264286	0.005000	9.290648	0.754792	-1.608840	-0.742440	0.202142	-1.309058	-0.024435	-0.029320	-0.004632
645	3.269286	0.005000	9.352024	0.836944	-1.648080	-0.742330	0.202031	-1.308934	-0.022425	-0.045350	0.002877
646	3.274286	0.005000	9.396297	0.834692	-1.648080	-0.742219	0.201921	-1.308811	-0.016188	-0.029724	-0.004680
647	3.279286	0.005000	9.317095	0.885305	-1.578207	-0.742109	0.201811	-1.308688	-0.010700	-0.031817	-0.008702
648	3.284286	0.005000	9.378360	0.842917	-1.582185	-0.741998	0.201700	-1.308564	-0.011399	-0.032168	-0.006206
649	3.289286	0.005000	9.295991	0.933982	-1.687320	-0.741888	0.201590	-1.308441	-0.014765	-0.022228	-0.019456
650	3.294286	0.005000	9.333357	0.782879	-1.730402	-0.741805	0.201466	-1.308227	-0.012745	-0.036067	0.005843
651	3.299286	0.005000	9.337742	0.823121	-1.688698	-0.741915	0.201245	-1.307364	-0.021047	-0.032761	0.009263
652	3.304286	0.005000	9.336276	0.975312	-1.768644	-0.742025	0.201024	-1.306502	-0.019691	-0.033108	0.004828
653	3.309286	0.005000	9.295059	1.005778	-1.736202	-0.742136	0.200804	-1.305639	-0.016781	-0.024046	-0.003748
654	3.314286	0.005000	9.235680	0.856140	-1.765800	-0.742246	0.200583	-1.304777	-0.021397	-0.029312	-0.003587
655	3.319286	0.005000	9.290709	0.812312	-1.684763	-0.742357	0.200362	-1.303914	-0.024156	-0.044270	0.007858
656	3.324286	0.005000	9.456840	0.886451	-1.581185	-0.742467	0.200141	-1.303052	-0.021765	-0.026732	0.001150
657	3.329286	0.005000	9.351302	0.798329	-1.646733	-0.742577	0.199920	-1.302189	-0.015758	-0.030092	-0.005696
658	3.334286	0.005000	9.292516	0.816676	-1.819768	-0.742688	0.199700	-1.301327	-0.014273	-0.016567	0.002859
659	3.339286	0.005000	9.218435	0.842178	-1.726560	-0.742798	0.199479	-1.300464	-0.018356	-0.030951	-0.011502
660	3.344286	0.005000	9.240347	0.844333	-1.746853	-0.742908	0.199258	-1.299602	-0.022864	-0.028984	0.005326
661	3.349286	0.005000	9.142920	0.857110	-1.726560	-0.743019	0.199037	-1.298739	-0.015964	-0.016830	-0.003023
662	3.354286	0.005000	9.299880	0.902520	-1.780216	-0.743129	0.198817	-1.297877	-0.017576	-0.041522	-0.002005
663	3.359286	0.005000	9.238945	0.824040	-1.753613	-0.743240	0.198596	-1.297014	-0.027992	-0.019897	-0.007506
664	3.364286	0.005000	9.240959	0.931981	-1.677541	-0.743284	0.198573	-1.296888	-0.018261	-0.037360	-0.005388
665	3.369286	0.005000	9.315370	0.934015	-1.616585	-0.743284	0.198683	-1.297258	-0.020573	-0.026179	-0.000258
666	3.374286	0.005000	9.367520	0.824040	-1.648080	-0.743284	0.198794	-1.297628	-0.017569	-0.029118	-0.005521
667	3.379286	0.005000	9.333090	0.863280	-1.690335	-0.743284	0.198904	-1.297998	-0.016622	-0.036645	0.006941
668	3.384286	0.005000	9.259569	0.826183	-1.764729	-0.743284	0.199015	-1.298367	-0.019243	-0.027337	-0.001681
669	3.389286	0.005000	9.297218	0.826702	-1.688651	-0.743284	0.199125	-1.298737	-0.012183	-0.034692	0.005105
670	3.394286	0.005000	9.306461	0.788090	-1.579471	-0.743284	0.199236	-1.299107	-0.020990	-0.023009	0.001379
671	3.399286	0.005000	9.333425	0.846194	-1.670234	-0.743284	0.199346	-1.299477	-0.025861	-0.034400	-0.005438
672	3.404286	0.005000	9.393548	0.855263	-1.757783	-0.743284	0.199456	-1.299847	-0.024237	-0.029526	0.007776
673	3.409286	0.005000	9.407545	0.873335	-1.805040	-0.743284	0.199567	-1.300217	-0.028876	-0.026309	-0.006798
674	3.414286	0.005000	9.366046	0.900221	-1.711947	-0.743284	0.199677	-1.300586	-0.013836	-0.032417	0.009633
675	3.419286	0.005000	9.363953	0.859299	-1.776226	-0.743284	0.199788	-1.300956	-0.018818	-0.024712	0.003740
676	3.424286	0.005000	9.378360	0.801619	-1.765800	-0.743284	0.199898	-1.301326	-0.011688	-0.037661	0.000485
677	3.429286	0.005000	9.337390	0.902520	-1.786285	-0.743293	0.199983	-1.301715	-0.013697	-0.033181	-0.000147
678	3.434286	0.005000	9.281806	0.866371	-1.690411	-0.743403	0.199762	-1.302332	-0.010846	-0.041838	-0.005635
679	3.439286	0.005000	9.299880	0.863280	-1.695912	-0.743513	0.199541	-1.302949	-0.018451	-0.040974	0.001042
680	3.444286	0.005000	9.339120	0.849562	-1.777604	-0.743624	0.199320	-1.303565	-0.021686	-0.036546	-0.009838
681	3.449286	0.005000	9.378360	0.773490	-1.648080	-0.743734	0.199099	-1.304182	-0.019916	-0.044741	-0.005465
682	3.454286	0.005000	9.329754	0.911886	-1.687320	-0.743845	0.198878	-1.304799	-0.028808	-0.049571	-0.004573
683	3.459286	0.005000	9.346071	0.856329	-1.719609	-0.743955	0.198657	-1.305415	-0.034209	-0.050479	-0.020242
684	3.464286	0.005000	9.383307	0.838880	-1.653027	-0.744066	0.198436	-1.306032	-0.031651	-0.051555	-0.011644
685	3.469286	0.005000	9.378360	0.897317	-1.684718	-0.744176	0.198216	-1.306649	-0.032695	-0.047175	-0.026200
686	3.474286	0.005000	9.299696	0.824407	-1.726009	-0.744286	0.197995	-1.307265	-0.024842	-0.045197	-0.013977
687	3.479286	0.005000	9.335600	0.977480	-1.683800	-0.744397	0.197774	-1.307882	-0.030489	-0.035853	-0.020723
688	3.484286	0.005000	9.339120	0.757904	-1.577829	-0.744507	0.197553	-1.308499	-0.026428	-0.040130	-0.035492
689	3.489286	0.005000	9.333011	0.751669	-1.602731	-0.744618	0.197332	-1.309115	-0.026470	-0.044631	-0.035385
690	3.494286	0.005000	9.369836	0.762609	-1.460404	-0.744728	0.197111	-1.309732	-0.032277	-0.038704	-0.046267
691	3.499286	0.005000	9.439202	0.773999	-1.541161	-0.745525	0.196391	-1.308676	-0.033347	-0.039456	-0.039821
692	3.504286	0.005000	9.364862	0.784800	-1.464751	-0.746850	0.195287	-1.306334	-0.026753	-0.035742	-0.045142
693	3.509286	0.005000	9.496080	0.730280	-1.484521	-0.748175	0.194183	-1.303991	-0.009306	-0.049480	-0.061435
694	3.514286	0.005000	9.574560	0.780008	-1.579184	-0.749499	0.193079	-1.301649	0.000020	-0.052225	-0.057332
695	3.519286	0.005000	9.653009	0.667049	-1.491181	-0.750824	0.191975	-1.299307	0.000967	-0.046479	-0.079264
696	3.524286	0.005000	9.714063	0.684537	-1.316703	-0.752149	0.190871	-1.296964	0.017962	-0.040848	-0.079551
697	3.529286	0.005000	9.770760	0.776058	-1.216440	-0.753474	0.189767	-1.294622	0.029005	-0.030831	-0.115116
698	3.534286	0.005000	9.900601	0.837600	-1.202880	-0.754799	0.188663	-1.292279	0.055619	-0.039494	-0.136153
699	3.539286	0.005000	10.084680	0.874051	-1.334160	-0.756124	0.187559	-1.289937	0.061279	-0.033270	-0.165609
700	3.544286	0.005000	10.019994	0.992651	-1.238716	-0.757449	0.186455	-1.287595	0.100120	-0.047945	-0.186170
701	3.549286	0.005000	9.716583	1.397703	-0.935684	-0.758773	0.185351	-1.285252	0.142500	-0.052862	-0.204878
702	3.554286	0.005000	9.727388	1.972346	-0.685659	-0.760098	0.184247	-1.282910	0.201610	-0.037433	-0.254665
703	3.559286	0.005000	9.634377	2.460117	-0.436784	-0.761423	0.183143	-1.280568	0.286628	0.010822	-0.305019
704	3.564286	0.005000	10.786868	1.768325	-1.017485	-0.762723	0.181983	-1.278435	0.406236	0.116202	-0.366328
705	3.569286	0.005000	11.408307	0.821667	-0.648907	-0.763495	0.179665	-1.280654	0.545266	0.236743	-0.505330
706	3.574286	0.005000	11.119851	0.554337	0.092836	-0.764268	0.177346	-1.282873	0.660505	0.310700	-0.672426
707	3.579286	0.005000	11.058699	0.699339	0.320901	-0.765041	0.175028	-1.285092	0.748934	0.292849	-0.784955
708	3.584286	0.005000	11.273256	0.756936	-0.179711	-0.765814	0.172710	-1.287311	0.805488	0.285389	-0.841448
709	3.589286	0.005000	11.127601	0.812700	-0.492658	-0.766586	0.170391	-1.289530	0.862277	0.266563	-0.909519
710	3.594286	0.005000	11.053608	0.783287	-0.600672	-0.767359	0.168073	-1.291749	0.900134	0.235428	-0.957627
711	3.599286	0.005000	10.696812	0.761253	-0.659241	-0.768132	0.165754	-1.293968	0.895279	0.244141	-1.015001
712	3.604286	0.005000	10.431780	0.845175	-0.790860	-0.768904	0.163436	-1.296187	0.909719	0.239264	-1.071519
713	3.609286	0.005000	10.320977	0.942617	-0.882471	-0.769677	0.161117	-1.298406	0.917561	0.252852	-1.112018
714	3.614286	0.005000	10.247320	0.874640	-0.981000	-0.770450	0.158799	-1.300625	0.959996	0.291446	-1.174861
715	3.619286	0.005000	10.148502	0.677003	-1.020240	-0.771223	0.156480	-1.302844	1.012452	0.327522	-1.226100
716	3.624286	0.005000	10.188014	0.691934	-1.098720	-0.771995	0.154162	-1.305063	1.059287	0.373276	-1.300196
717	3.629286	0.005000	10.310107	0.667080	-1.285719	-0.772768	0.151844	-1.307283	1.108727	0.412605	-1.356525
718	3.634286	0.005000	10.264743	0.667080	-1.335262	-0.772901	0.148653	-1.309631	1.138277	0.457806	-1.415069
719	3.639286	0.005000	10.202400	0.734230	-1.681655	-0.772460	0.144679	-1.312097	1.155140	0.465156	-1.472235
720	3.644286	0.005000	9.948580	0.624164	-2.001240	-0.772018	0.140704	-1.314563	1.153007	0.471952	-1.513392
721	3.649286	0.005000	9.728888	0.466932	-2.243261	-0.771577	0.136730	-1.317028	1.134599	0.488742	-1.545475
722	3.654286	0.005000	9.653040	0.315009	-2.699936	-0.771135	0.132755	-1.319494	1.106469	0.500444	-1.562662
723	3.659286	0.005000	9.840103	0.241531	-2.939954	-0.770693	0.128781	-1.321960	1.073886	0.505390	-1.566274
724	3.664286	0.005000	9.927720	0.201650	-3.078158	-0.770252	0.124807	-1.324425	1.024173	0.502437	-1.588662
725	3.669286	0.005000	9.636763	0.298369	-3.390554	-0.769810	0.120832	-1.326891	0.931663	0.491830	-1.601632
726	3.674286	0.005000	8.730900	0.716130	-3.433500	-0.769369	0.116858	-1.329357	0.846755	0.469566	-1.641720
727	3.679286	0.005000	8.989016	1.171179	-3.881765	-0.768927	0.112883	-1.331823	0.775297	0.497377	-1.642938
728	3.684286	0.005000	9.971385	0.940581	-3.983893	-0.768486	0.108909	-1.334288	0.714678	0.564951	-1.619096
729	3.689286	0.005000	10.309637	0.250316	-3.575232	-0.768044	0.104934	-1.336754	0.672739	0.564029	-1.571442
730	3.694286	0.005000	10.417118	-0.202811	-3.471638	-0.767602	0.100960	-1.339220	0.569783	0.471978	-1.565281
731	3.699286	0.005000	10.382907	-0.164814	-3.641466	-0.767162	0.096994	-1.341669	0.417720	0.330096	-1.574150
732	3.704286	0.005000	10.350087	0.404048	-3.831724	-0.766942	0.094123	-1.341915	0.239729	0.202851	-1.553678
733	3.709286	0.005000	10.280880	0.532770	-3.736493	-0.766721	0.091253	-1.342162	0.064774	0.081017	-1.493200
734	3.714286	0.005000	10.127535	0.176066	-3.405621	-0.766500	0.088383	-1.342408	-0.090276	-0.045264	-1.381574
735	3.719286	0.005000	9.889276	0.019222	-3.208069	-0.766279	0.085512	-1.342655	-0.223883	-0.177109	-1.331782
736	3.724286	0.005000	9.498773	0.312574	-3.288581	-0.766058	0.082642	-1.342901	-0.356603	-0.329015	-1.284350
737	3.729286	0.005000	8.983189	0.525874	-3.167937	-0.765838	0.079771	-1.343148	-0.462559	-0.421048	-1.200010
738	3.734286	0.005000	8.443165	0.755362	-3.217680	-0.765617	0.076901	-1.343395	-0.578775	-0.480119	-1.108067
739	3.739286	0.005000	7.765005	0.988224	-3.177537	-0.765396	0.074031	-1.343641	-0.662608	-0.545208	-0.986927
740	3.744286	0.005000	7.496922	1.447716	-3.139200	-0.765175	0.071160	-1.343888	-0.737825	-0.552885	-0.874409
741	3.749286	0.005000	7.330962	1.312214	-2.907219	-0.764954	0.068290	-1.344134	-0.783973	-0.498583	-0.753301
742	3.754286	0.005000	7.231747	0.992587	-2.652255	-0.764734	0.065419	-1.344381	-0.810098	-0.455966	-0.649839
743	3.759286	0.005000	7.078816	0.792608	-2.456305	-0.764513	0.062549	-1.344627	-0.824059	-0.427877	-0.611470
744	3.764286	0.005000	6.789700	0.687290	-2.374610	-0.764292	0.059679	-1.344874	-0.834554	-0.413291	-0.566128
745	3.769286	0.005000	6.918407	0.838946	-2.251586	-0.763802	0.057886	-1.345301	-0.839916	-0.357111	-0.527590
746	3.774286	0.005000	6.842335	1.128988	-2.172775	-0.763029	0.057223	-1.345917	-0.860463	-0.310969	-0.473803
747	3.779286	0.005000	6.855866	1.311711	-1.917102	-0.762256	0.056561	-1.346534	-0.886201	-0.257315	-0.403291
748	3.784286	0.005000	6.887317	1.332767	-1.841494	-0.761483	0.055899	-1.347150	-0.901332	-0.229483	-0.343418
749	3.789286	0.005000	6.884906	1.259108	-1.579884	-0.760711	0.055236	-1.347766	-0.914932	-0.202999	-0.267476
750	3.794286	0.005000	6.906240	1.326845	-1.523045	-0.759938	0.054574	-1.348383	-0.921883	-0.159296	-0.200847
751	3.799286	0.005000	6.999678	1.531769	-1.608840	-0.759165	0.053911	-1.348999	-0.915989	-0.160383	-0.126989
752	3.804286	0.005000	7.259400	1.811666	-1.585907	-0.758392	0.053249	-1.349615	-0.913134	-0.138291	-0.064853
753	3.809286	0.005000	7.407162	2.125709	-1.481922	-0.757619	0.052587	-1.350232	-0.905110	-0.116829	0.019907
754	3.814286	0.005000	7.351445	2.275920	-1.340942	-0.756846	0.051924	-1.350848	-0.890336	-0.095292	0.132263
755	3.819286	0.005000	7.455600	2.241518	-1.378238	-0.756074	0.051262	-1.351465	-0.885846	-0.090133	0.244105
756	3.824286	0.005000	7.502140	2.320027	-1.407773	-0.755301	0.050599	-1.352081	-0.868121	-0.096959	0.359996
757	3.829286	0.005000	7.729301	2.472120	-1.411661	-0.754528	0.049937	-1.352697	-0.850283	-0.069906	0.461764
758	3.834286	0.005000	7.763802	2.472120	-1.483496	-0.753755	0.049275	-1.353314	-0.811798	-0.085769	0.569282
759	3.839286	0.005000	7.883368	2.432880	-1.341904	-0.753838	0.049147	-1.354289	-0.784665	-0.071917	0.666486
760	3.844286	0.005000	7.887240	2.492528	-1.255680	-0.753948	0.049037	-1.355275	-0.748598	-0.066001	0.757837
761	3.849286	0.005000	7.887240	2.502768	-1.146552	-0.754059	0.048926	-1.356261	-0.705005	-0.086573	0.835427
762	3.854286	0.005000	8.012324	2.432880	-1.155949	-0.754169	0.048816	-1.357247	-0.658378	-0.078712	0.899543
763	3.859286	0.005000	7.952681	2.563639	-1.046318	-0.754280	0.048705	-1.358234	-0.615110	-0.099761	0.959970
764	3.864286	0.005000	8.019943	2.668320	-1.068754	-0.754390	0.048595	-1.359220	-0.565927	-0.092102	1.009898
765	3.869286	0.005000	8.061592	2.672775	-1.020240	-0.754501	0.048484	-1.360206	-0.517431	-0.095751	1.047586
766	3.874286	0.005000	8.142436	2.707560	-0.961335	-0.754611	0.048374	-1.361193	-0.454355	-0.097581	1.083602
767	3.879286	0.005000	8.218653	2.768547	-0.889282	-0.754721	0.048264	-1.362179	-0.396118	-0.097162	1.098111
768	3.884286	0.005000	8.192659	2.746800	-0.847911	-0.754832	0.048153	-1.363165	-0.335950	-0.096177	1.115342
769	3.889286	0.005000	8.201160	2.812312	-0.811072	-0.754942	0.048043	-1.364151	-0.281716	-0.085827	1.121028
770	3.894286	0.005000	8.301756	2.936934	-0.863280	-0.755053	0.047932	-1.365138	-0.225160	-0.090504	1.127865
771	3.899286	0.005000	8.375689	3.003911	-0.858597	-0.755163	0.047822	-1.366124	-0.175159	-0.089680	1.125761
772	3.904286	0.005000	8.527818	3.027849	-0.791169	-0.755373	0.047811	-1.366390	-0.119993	-0.075603	1.120671
773	3.909286	0.005000	8.672040	3.143625	-0.741135	-0.755704	0.047921	-1.365774	-0.050487	-0.072697	1.123676
774	3.914286	0.005000	8.709260	3.333380	-0.665060	-0.756035	0.048032	-1.365157	0.011083	-0.065325	1.110675
775	3.919286	0.005000	8.632800	3.453044	-0.706396	-0.756366	0.048142	-1.364541	0.076512	-0.047902	1.102102
776	3.924286	0.005000	8.706626	3.450793	-0.671734	-0.756697	0.048252	-1.363924	0.131845	-0.035584	1.082364
777	3.929286	0.005000	8.750520	3.600701	-0.671769	-0.757029	0.048363	-1.363308	0.201153	-0.014742	1.071930
778	3.934286	0.005000	8.620312	3.688560	-0.601976	-0.757360	0.048473	-1.362691	0.256350	0.002826	1.060513
779	3.939286	0.005000	8.572291	3.749069	-0.579614	-0.757691	0.048584	-1.362075	0.316264	0.021900	1.040624
780	3.944286	0.005000	8.700241	3.834481	-0.470880	-0.758022	0.048694	-1.361458	0.391090	0.045919	1.040496
781	3.949286	0.005000	8.684375	3.792828	-0.575148	-0.758353	0.048805	-1.360842	0.446578	0.080927	1.028392
782	3.954286	0.005000	8.836896	3.790608	-0.525792	-0.758684	0.048915	-1.360225	0.510703	0.091686	1.008656
783	3.959286	0.005000	8.811194	3.806280	-0.413834	-0.759016	0.049025	-1.359609	0.572824	0.117056	0.990530
784	3.964286	0.005000	8.831387	3.767040	-0.489903	-0.759347	0.049136	-1.358992	0.626316	0.139637	0.968886
785	3.969286	0.005000	8.851358	3.828638	-0.453998	-0.759678	0.049246	-1.358376	0.682853	0.168186	0.949578
786	3.974286	0.005000	8.814333	3.835614	-0.402306	-0.759906	0.048741	-1.358333	0.734130	0.192172	0.916085
787	3.979286	0.005000	8.762779	3.806280	-0.326179	-0.760127	0.048188	-1.358333	0.781679	0.192756	0.898482
788	3.984286	0.005000	8.808609	3.777236	-0.431640	-0.760348	0.047636	-1.358333	0.824021	0.233206	0.872328
789	3.989286	0.005000	8.719180	3.774940	-0.368960	-0.760569	0.047084	-1.358333	0.864108	0.246552	0.844750
790	3.994286	0.005000	8.778767	3.784295	-0.465384	-0.760790	0.046532	-1.358333	0.906638	0.275459	0.819740
791	3.999286	0.005000	8.704261	3.731310	-0.353160	-0.761011	0.045980	-1.358333	0.950747	0.299142	0.786144
792	4.004286	0.005000	8.633948	3.803984	-0.391252	-0.761232	0.045428	-1.358333	0.992480	0.316041	0.773254
793	4.009286	0.005000	8.633596	3.650912	-0.391604	-0.761453	0.044876	-1.358333	1.014243	0.340585	0.745650
794	4.014286	0.005000	8.515080	3.731014	-0.392400	-0.761673	0.044324	-1.358333	1.049190	0.356447	0.714691
795	4.019286	0.005000	8.470288	3.806280	-0.459777	-0.761894	0.043772	-1.358333	1.057176	0.393186	0.696404
796	4.024286	0.005000	8.444163	3.718813	-0.502557	-0.762115	0.043220	-1.358333	1.074198	0.415607	0.669760
797	4.029286	0.005000	8.358120	3.737778	-0.549360	-0.762336	0.042668	-1.358333	1.101110	0.437106	0.647571
798	4.034286	0.005000	8.318880	3.739722	-0.549360	-0.762557	0.042116	-1.358333	1.106184	0.470045	0.617184
799	4.039286	0.005000	8.436600	3.588921	-0.538781	-0.762642	0.041383	-1.358029	1.125791	0.473437	0.583699
800	4.044286	0.005000	8.498531	3.655462	-0.431640	-0.762531	0.040389	-1.357289	1.116091	0.502067	0.560237
801	4.049286	0.005000	8.593560	3.630634	-0.588600	-0.762421	0.039395	-1.356550	1.127050	0.508492	0.526566
802	4.054286	0.005000	8.705370	3.667463	-0.491977	-0.762310	0.038402	-1.355810	1.124148	0.520250	0.510849
803	4.059286	0.005000	8.750520	3.649320	-0.510120	-0.762200	0.037408	-1.355070	1.120661	0.527112	0.462630
804	4.064286	0.005000	8.778109	3.504011	-0.549360	-0.762089	0.036415	-1.354331	1.106691	0.524358	0.430463
805	4.069286	0.005000	8.864125	3.543308	-0.576892	-0.761979	0.035421	-1.353591	1.093935	0.516208	0.402634
806	4.074286	0.005000	8.935808	3.580283	-0.499208	-0.761869	0.034427	-1.352851	1.085694	0.503737	0.360360
807	4.079286	0.005000	9.071852	3.595255	-0.581188	-0.761758	0.033434	-1.352112	1.069080	0.504480	0.317497
808	4.084286	0.005000	9.025200	3.468369	-0.588600	-0.761648	0.032440	-1.351372	1.055894	0.490673	0.263014
809	4.089286	0.005000	9.145598	3.610080	-0.672436	-0.761537	0.031447	-1.350632	1.035143	0.477825	0.218740
810	4.094286	0.005000	9.219931	3.684887	-0.628575	-0.761427	0.030453	-1.349893	0.988789	0.455409	0.183067
811	4.099286	0.005000	9.180496	3.454784	-0.667080	-0.761316	0.029459	-1.349153	0.968122	0.443746	0.141582
812	4.104286	0.005000	9.189414	3.663828	-0.741933	-0.761206	0.028466	-1.348413	0.922226	0.419234	0.094226
813	4.109286	0.005000	9.103680	3.471217	-0.796864	-0.760997	0.028653	-1.347123	0.904127	0.379215	0.057495
814	4.114286	0.005000	9.126967	3.586150	-0.706320	-0.760776	0.028985	-1.345767	0.883967	0.368184	0.018435
815	4.119286	0.005000	9.202943	3.620472	-0.698255	-0.760555	0.029316	-1.344410	0.865178	0.337179	-0.020297
816	4.124286	0.005000	9.155566	3.479714	-0.679726	-0.760334	0.029648	-1.343053	0.825446	0.301903	-0.055751
817	4.129286	0.005000	9.157664	3.565849	-0.784800	-0.760113	0.029979	-1.341697	0.753832	0.276293	-0.089154
818	4.134286	0.005000	9.115882	3.492360	-0.706320	-0.759893	0.030310	-1.340340	0.691852	0.240269	-0.124135
819	4.139286	0.005000	9.084121	3.472924	-0.725879	-0.759672	0.030642	-1.338983	0.646745	0.207192	-0.158501
820	4.144286	0.005000	16.942406	6.475105	-1.434647	-0.759451	0.030973	-1.337627	0.598064	0.190067	-0.151177
821	4.149286	0.005000	18.363983	3.029059	0.588432	-0.759230	0.031304	-1.336270	0.782900	0.118041	0.429433
822	4.154286	0.005000	10.599883	-1.014989	3.786576	-0.759009	0.031636	-1.334913	0.784991	-0.667035	1.181719
823	4.159286	0.005000	7.237454	-0.303299	-1.290528	-0.758788	0.031967	-1.333557	0.357080	-1.420935	1.205068
824	4.164286	0.005000	6.420086	1.689432	-6.275278	-0.758567	0.032299	-1.332200	-0.073813	-1.246496	0.868005
825	4.169286	0.005000	7.311868	2.950502	-5.157618	-0.758346	0.032630	-1.330843	-0.294999	-0.783542	0.888007
826	4.174286	0.005000	8.660437	3.510815	-2.615284	-0.758167	0.033128	-1.329673	-0.327685	-0.576112	1.061786
827	4.179286	0.005000	9.888480	3.285569	-1.313775	-0.758057	0.033901	-1.328810	-0.130282	-0.537561	1.152562
828	4.184286	0.005000	10.485339	1.761035	-0.983859	-0.757946	0.034674	-1.327947	0.193667	-0.470970	1.202580
829	4.189286	0.005000	13.725919	-1.682836	-3.934193	-0.757836	0.035447	-1.327084	0.505944	-0.459234	1.166058
830	4.194286	0.005000	15.336305	-6.201221	-6.077480	-0.757725	0.036220	-1.326221	0.681088	-0.676483	1.026401
831	4.199286	0.005000	8.684013	-8.018418	-5.857952	-0.757615	0.036993	-1.325358	0.317600	-0.474255	0.362816
832	4.204286	0.005000	7.629012	-6.604992	-5.737901	-0.757505	0.037765	-1.324495	-0.140542	-0.287925	-0.220965
833	4.209286	0.005000	9.977857	-5.195658	-4.939159	-0.757394	0.038538	-1.323632	-0.424813	-0.284310	-0.136193
834	4.214286	0.005000	9.573910	-2.766087	-3.485280	-0.757284	0.039311	-1.322769	-0.488950	-0.219172	0.103450
835	4.219286	0.005000	8.333700	-0.657481	-2.228275	-0.757173	0.040084	-1.321906	-0.441467	-0.014919	-0.033457
836	4.224286	0.005000	8.911735	0.690434	-1.387174	-0.757063	0.040857	-1.321043	-0.234682	0.061913	-0.240654
837	4.229286	0.005000	9.688056	2.544968	-0.045576	-0.756952	0.041630	-1.320180	-0.048286	-0.024551	-0.249104
838	4.234286	0.005000	10.196873	3.105487	1.491947	-0.756842	0.042402	-1.319318	0.081149	-0.038152	-0.147562
839	4.239286	0.005000	10.447763	2.128430	2.589991	-0.756732	0.043175	-1.318455	0.113929	-0.051125	-0.046783
840	4.244286	0.005000	10.632311	0.780943	2.132795	-0.756906	0.043474	-1.318227	0.088772	-0.225619	0.063761
841	4.249286	0.005000	10.366096	-0.108748	-0.079567	-0.757127	0.043695	-1.318104	0.066015	-0.487600	0.052295
842	4.254286	0.005000	9.201311	0.033189	-2.627023	-0.757348	0.043916	-1.317980	0.094816	-0.611876	-0.045945
843	4.259286	0.005000	7.858545	0.830713	-4.514467	-0.757568	0.044136	-1.317857	0.125521	-0.472538	-0.105151
844	4.264286	0.005000	7.724804	1.416392	-4.934710	-0.757789	0.044357	-1.317734	0.113513	-0.189404	-0.086723
845	4.269286	0.005000	8.568099	1.052590	-3.895064	-0.758010	0.044578	-1.317611	0.080649	0.002636	-0.021342
846	4.274286	0.005000	9.176079	0.710374	-2.450110	-0.758231	0.044799	-1.317487	-0.001286	0.093957	0.006252
847	4.279286	0.005000	9.330209	0.398340	-1.635572	-0.758452	0.045020	-1.317364	-0.021156	0.084573	0.005102
848	4.284286	0.005000	9.388979	0.601292	-1.310849	-0.758673	0.045241	-1.317241	-0.049326	0.064658	0.012160
849	4.289286	0.005000	9.257991	0.816722	-1.501087	-0.758894	0.045462	-1.317117	-0.046432	0.057106	0.003711
850	4.294286	0.005000	9.132880	0.961533	-1.805346	-0.759115	0.045683	-1.316994	-0.029301	0.072245	0.015387
851	4.299286	0.005000	8.955464	0.784800	-1.910764	-0.759336	0.045904	-1.316871	-0.028517	0.109975	0.019319
852	4.304286	0.005000	8.997029	0.641925	-1.765800	-0.759557	0.046125	-1.316748	-0.044914	0.119142	0.040868
853	4.309286	0.005000	9.025200	0.581974	-1.611896	-0.759701	0.045964	-1.316198	-0.085379	0.149446	0.049261
854	4.314286	0.005000	9.182160	0.590957	-1.608840	-0.759701	0.045081	-1.314842	-0.113496	0.141665	0.058482
855	4.319286	0.005000	9.299880	0.549360	-1.551212	-0.759701	0.044198	-1.313487	-0.137427	0.131580	0.055300
856	4.324286	0.005000	9.191660	0.598100	-1.363900	-0.759701	0.043315	-1.312131	-0.152720	0.131466	0.057389
857	4.329286	0.005000	9.325086	0.667080	-1.376262	-0.759701	0.042432	-1.310776	-0.148280	0.130251	0.065043
858	4.334286	0.005000	9.385137	0.679031	-1.250506	-0.759701	0.041549	-1.309420	-0.146004	0.132874	0.048754
859	4.339286	0.005000	9.427276	0.765448	-0.883168	-0.759701	0.040666	-1.308065	-0.137276	0.099715	0.067357
860	4.344286	0.005000	9.542590	0.667080	-0.784800	-0.759701	0.039784	-1.306709	-0.128939	0.101348	0.072401
861	4.349286	0.005000	9.501344	0.554624	-0.481409	-0.759701	0.038901	-1.305354	-0.130344	0.062538	0.068938
862	4.354286	0.005000	9.544089	0.624917	-0.582754	-0.759701	0.038018	-1.303998	-0.112584	0.024991	0.067802
863	4.359286	0.005000	9.692280	0.588600	-0.511130	-0.759701	0.037135	-1.302643	-0.105574	-0.003764	0.047069
864	4.364286	0.005000	9.767883	0.588600	-0.588600	-0.759701	0.036252	-1.301287	-0.083056	-0.047797	0.047593
865	4.369286	0.005000	9.632785	0.596194	-0.655689	-0.759701	0.035369	-1.299932	-0.073128	-0.076394	0.029458
866	4.374286	0.005000	9.580347	0.650989	-0.739773	-0.759701	0.034486	-1.298576	-0.055494	-0.100614	0.024382
867	4.379286	0.005000	9.574560	0.596803	-0.761966	-0.760698	0.034328	-1.297827	-0.026189	-0.104348	0.024865
868	4.384286	0.005000	9.418947	0.656933	-0.667080	-0.761913	0.034328	-1.297210	-0.017660	-0.132265	0.019381
869	4.389286	0.005000	9.469394	0.587023	-0.930783	-0.763128	0.034328	-1.296594	-0.019709	-0.154994	0.016049
870	4.394286	0.005000	9.481581	0.681579	-1.197685	-0.764343	0.034328	-1.295977	-0.016923	-0.153241	0.005943
871	4.399286	0.005000	9.328285	0.594018	-1.322667	-0.765558	0.034328	-1.295360	-0.008196	-0.170226	0.007612
872	4.404286	0.005000	9.240491	0.687229	-1.453998	-0.766773	0.034328	-1.294744	-0.013984	-0.159549	0.006898
873	4.409286	0.005000	9.317854	0.606574	-1.494412	-0.767988	0.034328	-1.294127	-0.016516	-0.151901	0.009068
874	4.414286	0.005000	9.339120	0.682644	-1.624404	-0.769203	0.034328	-1.293510	-0.018225	-0.141564	0.021625
875	4.419286	0.005000	9.180522	0.721584	-1.598490	-0.770418	0.034328	-1.292894	0.000039	-0.118148	0.004245
876	4.424286	0.005000	9.114898	0.672666	-1.788236	-0.771633	0.034328	-1.292277	-0.019471	-0.115641	0.023761
877	4.429286	0.005000	9.299880	0.663053	-1.848307	-0.772848	0.034328	-1.291660	-0.018867	-0.079733	0.019345
878	4.434286	0.005000	9.378360	0.673857	-1.733337	-0.774063	0.034328	-1.291044	-0.025810	-0.062653	0.019221
879	4.439286	0.005000	9.316852	0.667080	-1.665894	-0.775278	0.034328	-1.290427	-0.029073	-0.050943	0.034776
880	4.444286	0.005000	9.184641	0.706320	-1.851723	-0.775780	0.034566	-1.290531	-0.032859	-0.031398	0.019654
881	4.449286	0.005000	9.142828	0.706136	-2.000964	-0.774676	0.035338	-1.292256	-0.028372	-0.015124	0.026334
882	4.454286	0.005000	8.992813	0.627840	-1.809608	-0.773572	0.036111	-1.293982	-0.025698	0.019476	0.025856
883	4.459286	0.005000	9.239359	0.662824	-1.774312	-0.772468	0.036884	-1.295708	-0.032808	0.022818	0.025097
884	4.464286	0.005000	9.254045	0.745560	-1.608840	-0.771364	0.037657	-1.297434	-0.037407	0.047184	0.017371
885	4.469286	0.005000	9.330504	0.627840	-1.530360	-0.770260	0.038430	-1.299160	-0.044592	0.057851	0.015313
886	4.474286	0.005000	9.350143	0.634010	-1.597817	-0.769156	0.039203	-1.300886	-0.047416	0.061183	0.014192
887	4.479286	0.005000	9.352402	0.719602	-1.543037	-0.768052	0.039975	-1.302612	-0.048859	0.071034	0.008479
888	4.484286	0.005000	9.448361	0.658601	-1.397259	-0.766948	0.040748	-1.304338	-0.037504	0.062026	0.009021
889	4.489286	0.005000	9.460924	0.688742	-1.312498	-0.765844	0.041521	-1.306064	-0.043335	0.062973	-0.000069
890	4.494286	0.005000	9.476353	0.647567	-1.236167	-0.764740	0.042294	-1.307790	-0.041474	0.054641	-0.010049
891	4.499286	0.005000	9.500588	0.667080	-1.220948	-0.763636	0.043067	-1.309516	-0.037041	0.048850	-0.000122
892	4.504286	0.005000	9.486792	0.618552	-1.216440	-0.762532	0.043839	-1.311242	-0.036525	0.034776	-0.012596
893	4.509286	0.005000	9.417600	0.641583	-1.097725	-0.761428	0.044612	-1.312967	-0.014225	0.013610	-0.012382
894	4.514286	0.005000	9.417600	0.638174	-1.098720	-0.761020	0.044602	-1.313139	-0.023338	0.013830	-0.015094
895	4.519286	0.005000	9.386750	0.619450	-1.252970	-0.760799	0.044381	-1.312892	-0.023897	-0.011163	-0.022506
896	4.524286	0.005000	9.384344	0.673064	-1.243712	-0.760578	0.044160	-1.312646	-0.020412	-0.026550	-0.008812
897	4.529286	0.005000	9.460834	0.671074	-1.129973	-0.760358	0.043940	-1.312399	-0.015880	-0.034934	-0.021717
898	4.534286	0.005000	9.419223	0.819171	-1.139583	-0.760137	0.043719	-1.312153	-0.006288	-0.052133	-0.000766
899	4.539286	0.005000	9.456840	0.667851	-1.215669	-0.759916	0.043498	-1.311906	0.004558	-0.063507	-0.017507
900	4.544286	0.005000	9.459565	0.661630	-1.247504	-0.759695	0.043277	-1.311659	-0.008343	-0.069912	-0.013840
901	4.549286	0.005000	9.525036	0.627840	-1.426169	-0.759474	0.043056	-1.311413	-0.004357	-0.066886	-0.005779
902	4.554286	0.005000	9.393275	0.698862	-1.341618	-0.759254	0.042836	-1.311166	-0.001682	-0.078918	-0.017675
903	4.559286	0.005000	9.398615	0.598092	-1.246188	-0.759033	0.042615	-1.310920	-0.001357	-0.088440	-0.010554
904	4.564286	0.005000	9.378360	0.615944	-1.189096	-0.758812	0.042394	-1.310673	0.004840	-0.102563	-0.016690
905	4.569286	0.005000	9.378360	0.577041	-1.283361	-0.758591	0.042173	-1.310427	0.016912	-0.123049	-0.008560
906	4.574286	0.005000	9.371626	0.539841	-1.357147	-0.758370	0.041952	-1.310180	0.008009	-0.119277	-0.013092
907	4.579286	0.005000	9.383080	0.530920	-1.331800	-0.758268	0.041732	-1.309867	0.018135	-0.120819	-0.012874
908	4.584286	0.005000	9.421550	0.627840	-1.412640	-0.758489	0.041511	-1.309374	0.019657	-0.118411	-0.006220
909	4.589286	0.005000	9.299880	0.621045	-1.373400	-0.758710	0.041290	-1.308881	0.026052	-0.121905	-0.020286
910	4.594286	0.005000	9.353234	0.692206	-1.544474	-0.758931	0.041069	-1.308388	0.022279	-0.131847	-0.009821
911	4.599286	0.005000	9.315389	0.513764	-1.487476	-0.759152	0.040848	-1.307895	0.023213	-0.115251	-0.022144
912	4.604286	0.005000	9.240316	0.441098	-1.610248	-0.759372	0.040628	-1.307402	0.031172	-0.121557	-0.014342
913	4.609286	0.005000	9.329590	0.539830	-1.505975	-0.759593	0.040407	-1.306909	0.025609	-0.110781	-0.019312
914	4.614286	0.005000	9.334022	0.711418	-1.496218	-0.759814	0.040186	-1.306415	0.025042	-0.121491	-0.011585
915	4.619286	0.005000	9.417600	0.549360	-1.530360	-0.760035	0.039965	-1.305922	0.036495	-0.116590	-0.009490
916	4.624286	0.005000	9.297656	0.625616	-1.449656	-0.760256	0.039744	-1.305429	0.026293	-0.123605	-0.031539
917	4.629286	0.005000	9.144588	0.697979	-1.334160	-0.760476	0.039524	-1.304936	0.033128	-0.120691	-0.018266
918	4.634286	0.005000	9.556234	0.809648	-1.630091	-0.760697	0.039303	-1.304443	0.021456	-0.116208	-0.030663
919	4.639286	0.005000	9.459993	0.790815	-1.648080	-0.760918	0.039082	-1.303950	0.038046	-0.126729	-0.019433
920	4.644286	0.005000	9.320120	0.611200	-1.796720	-0.761139	0.038861	-1.303456	0.033600	-0.098714	-0.013439
921	4.649286	0.005000	9.318390	0.627840	-1.621425	-0.761360	0.038972	-1.303703	0.021611	-0.072363	-0.039873
922	4.654286	0.005000	9.302573	0.510120	-1.411294	-0.761580	0.039192	-1.304196	0.035503	-0.067637	-0.039285
923	4.659286	0.005000	9.491152	0.524843	-1.373400	-0.761801	0.039413	-1.304690	0.008326	-0.075586	-0.040054
924	4.664286	0.005000	9.552452	0.593576	-1.518204	-0.762022	0.039634	-1.305183	0.001628	-0.097134	-0.039178
925	4.669286	0.005000	9.376545	0.687003	-1.649290	-0.762243	0.039855	-1.305676	0.003062	-0.102236	-0.044894
926	4.674286	0.005000	9.285861	0.724073	-1.765800	-0.762464	0.040076	-1.306170	0.022077	-0.088897	-0.051258
927	4.679286	0.005000	9.245014	0.690694	-1.781426	-0.762685	0.040297	-1.306663	0.030178	-0.067323	-0.044099
928	4.684286	0.005000	9.353466	0.667080	-1.686371	-0.762906	0.040518	-1.307156	0.038134	-0.047502	-0.045329
929	4.689286	0.005000	9.384635	0.667080	-1.591577	-0.763127	0.040739	-1.307650	0.041813	-0.042266	-0.036203
930	4.694286	0.005000	9.348165	0.658035	-1.491120	-0.763348	0.040960	-1.308143	0.019202	-0.035396	-0.045217
931	4.699286	0.005000	9.404341	0.523379	-1.589488	-0.763569	0.041181	-1.308637	0.024132	-0.053769	-0.053460
932	4.704286	0.005000	9.299880	0.667080	-1.574244	-0.763789	0.041401	-1.309130	0.016854	-0.035285	-0.048206
933	4.709286	0.005000	9.339120	0.627840	-1.606559	-0.764010	0.041622	-1.309623	0.035069	-0.039383	-0.058082
934	4.714286	0.005000	9.417267	0.667080	-1.570266	-0.764205	0.041817	-1.309913	0.026474	-0.032355	-0.048754
935	4.719286	0.005000	9.378360	0.704253	-1.573734	-0.764316	0.041928	-1.309543	0.014247	-0.031262	-0.047755
936	4.724286	0.005000	9.339120	0.701888	-1.613272	-0.764426	0.042038	-1.309173	0.028950	-0.037457	-0.047692
937	4.729286	0.005000	9.443984	0.483736	-1.523932	-0.764536	0.042148	-1.308803	0.030856	-0.012723	-0.065439
938	4.734286	0.005000	9.396028	0.662150	-1.648080	-0.764647	0.042259	-1.308433	0.036715	-0.000706	-0.072313
939	4.739286	0.005000	9.462724	0.627840	-1.580719	-0.764757	0.042369	-1.308063	0.031587	-0.002273	-0.065752
940	4.744286	0.005000	9.417600	0.601792	-1.622032	-0.764868	0.042480	-1.307694	0.041236	-0.005074	-0.071582
941	4.749286	0.005000	9.433201	0.675118	-1.562037	-0.764978	0.042590	-1.307324	0.047387	0.003523	-0.064557
942	4.754286	0.005000	9.392534	0.667080	-1.608840	-0.765089	0.042701	-1.306954	0.038961	0.010307	-0.069240
943	4.759286	0.005000	9.299880	0.706320	-1.530360	-0.765199	0.042811	-1.306584	0.040610	0.003099	-0.079368
944	4.764286	0.005000	9.339120	0.684219	-1.530360	-0.765309	0.042921	-1.306214	0.042639	0.001568	-0.075482
945	4.769286	0.005000	9.368975	0.691393	-1.481735	-0.765420	0.043032	-1.305844	0.024892	-0.002891	-0.079216
946	4.774286	0.005000	9.430433	0.667080	-1.399066	-0.765530	0.043142	-1.305475	0.006506	-0.015449	-0.075830
947	4.779286	0.005000	9.456840	0.703243	-1.480541	-0.765641	0.043253	-1.305105	0.000158	-0.020452	-0.091334
948	4.784286	0.005000	9.496080	0.534637	-1.373400	-0.765989	0.042888	-1.305354	-0.002045	-0.043186	-0.087145
949	4.789286	0.005000	9.574560	0.561818	-1.249451	-0.766431	0.042336	-1.305847	-0.014483	-0.044878	-0.096536
950	4.794286	0.005000	9.742957	0.513932	-1.161951	-0.766872	0.041783	-1.306340	-0.035714	-0.069062	-0.113918
951	4.799286	0.005000	10.172499	0.551228	-1.093116	-0.767314	0.041231	-1.306834	-0.032455	-0.104003	-0.118195
952	4.804286	0.005000	10.514202	0.743442	-1.019711	-0.767756	0.040679	-1.307327	-0.053890	-0.118550	-0.122762
953	4.809286	0.005000	11.423357	0.706320	-1.017760	-0.768198	0.040127	-1.307821	-0.051450	-0.200890	-0.142311
954	4.814286	0.005000	11.153893	0.014631	-0.696464	-0.768640	0.039574	-1.308314	-0.032728	-0.238914	-0.176052
955	4.819286	0.005000	8.565155	-0.725037	0.296626	-0.769081	0.039022	-1.308807	-0.034579	-0.248960	-0.242648
956	4.824286	0.005000	8.620812	-0.004746	-0.426649	-0.769523	0.038470	-1.309301	-0.088090	-0.278655	-0.305298
957	4.829286	0.005000	12.072669	-0.300184	-1.992164	-0.769965	0.037918	-1.309794	-0.055892	-0.314856	-0.318905
958	4.834286	0.005000	12.870720	-1.884515	-2.319889	-0.770407	0.037365	-1.310287	0.032750	-0.225599	-0.304257
959	4.839286	0.005000	13.818941	-2.973437	-2.327990	-0.770848	0.036813	-1.310781	0.127836	-0.246579	-0.426511
960	4.844286	0.005000	15.568941	-1.838983	-3.483021	-0.771290	0.036261	-1.311274	0.124079	-0.443769	-0.586477
961	4.849286	0.005000	15.186309	-1.579567	-4.178317	-0.771822	0.035236	-1.311667	0.007881	-0.603371	-0.773746
962	4.854286	0.005000	12.481345	-2.443832	-3.219495	-0.772705	0.032366	-1.311667	-0.210521	-0.625497	-1.021983
963	4.859286	0.005000	11.017778	-1.936013	-2.081250	-0.773588	0.029495	-1.311667	-0.455735	-0.554950	-1.173224
964	4.864286	0.005000	11.088613	-0.678698	-1.881584	-0.774472	0.026625	-1.311667	-0.570227	-0.509127	-1.295130
965	4.869286	0.005000	11.320028	0.287694	-2.198864	-0.775355	0.023754	-1.311667	-0.551191	-0.521338	-1.328375
966	4.874286	0.005000	11.064303	0.531737	-2.455873	-0.776238	0.020884	-1.311667	-0.443453	-0.507900	-1.364825
967	4.879286	0.005000	10.863664	0.049402	-2.264289	-0.777121	0.018013	-1.311667	-0.347618	-0.479864	-1.411851
968	4.884286	0.005000	10.719318	-0.209795	-2.269122	-0.778004	0.015143	-1.311667	-0.310201	-0.450224	-1.462731
969	4.889286	0.005000	10.911629	-0.152597	-2.284647	-0.778888	0.012273	-1.311667	-0.343013	-0.443129	-1.548173
970	4.894286	0.005000	10.872294	0.190573	-2.587964	-0.779771	0.009402	-1.311667	-0.427526	-0.465835	-1.610184
971	4.899286	0.005000	10.726988	0.425853	-2.679894	-0.780654	0.006532	-1.311667	-0.498501	-0.455179	-1.685744
972	4.904286	0.005000	10.566181	0.656459	-2.268543	-0.781537	0.003661	-1.311667	-0.524817	-0.444331	-1.730336
973	4.909286	0.005000	10.437840	0.698696	-1.921641	-0.782420	0.000791	-1.311667	-0.519940	-0.386461	-1.787150
974	4.914286	0.005000	10.251301	1.020837	-2.011498	-0.783303	-0.002080	-1.311667	-0.488235	-0.376568	-1.851652
975	4.919286	0.005000	9.858258	1.047416	-2.212551	-0.784035	-0.004875	-1.312089	-0.440043	-0.373402	-1.893754
976	4.924286	0.005000	9.627809	1.137960	-2.158200	-0.784698	-0.007635	-1.312705	-0.385577	-0.308958	-1.952461
977	4.929286	0.005000	9.584584	1.454650	-2.011264	-0.785360	-0.010395	-1.313322	-0.364453	-0.246477	-1.985612
978	4.934286	0.005000	9.235952	1.691374	-1.840226	-0.786023	-0.013155	-1.313938	-0.329866	-0.207990	-2.009524
979	4.939286	0.005000	9.078280	1.865056	-1.710408	-0.786685	-0.015915	-1.314555	-0.321816	-0.209456	-2.019262
980	4.944286	0.005000	9.597145	2.233216	-1.625162	-0.787347	-0.018675	-1.315171	-0.320550	-0.175473	-1.985765
981	4.949286	0.005000	10.258842	2.483139	-1.698339	-0.788010	-0.021435	-1.315787	-0.314850	-0.172671	-1.974126
982	4.954286	0.005000	10.512171	1.986144	-1.573749	-0.788672	-0.024195	-1.316404	-0.316975	-0.231297	-1.918825
983	4.959286	0.005000	10.242099	1.432604	-1.324407	-0.789335	-0.026955	-1.317020	-0.342269	-0.301017	-1.895372
984	4.964286	0.005000	9.692280	1.397764	-1.277718	-0.789997	-0.029715	-1.317636	-0.393386	-0.381852	-1.845978
985	4.969286	0.005000	9.519300	2.365080	-1.512480	-0.790659	-0.032475	-1.318253	-0.438426	-0.444167	-1.779504
986	4.974286	0.005000	9.381345	2.101047	-1.636138	-0.791322	-0.035235	-1.318869	-0.462504	-0.483735	-1.644447
987	4.979286	0.005000	9.298717	1.289686	-1.412640	-0.791984	-0.037995	-1.319486	-0.470866	-0.469515	-1.475949
988	4.984286	0.005000	9.145645	0.600863	-1.374763	-0.792920	-0.040299	-1.320020	-0.497152	-0.494871	-1.371991
989	4.989286	0.005000	8.851328	0.065289	-1.263123	-0.795238	-0.040299	-1.320144	-0.549459	-0.555078	-1.283145
990	4.994286	0.005000	8.252556	-0.011421	-1.485409	-0.797555	-0.040299	-1.320267	-0.622222	-0.591694	-1.215722
991	4.999286	0.005000	7.777553	0.868544	-1.897740	-0.799873	-0.040299	-1.320390	-0.738129	-0.618890	-1.145860
992	5.004286	0.005000	7.203142	1.900538	-2.245709	-0.802190	-0.040299	-1.320513	-0.835887	-0.593557	-1.012918
993	5.009286	0.005000	6.601185	2.329444	-2.129631	-0.804507	-0.040299	-1.320637	-0.921140	-0.513664	-0.773932
994	5.014286	0.005000	6.312754	2.354400	-1.932593	-0.806825	-0.040299	-1.320760	-0.965627	-0.420358	-0.485188
995	5.019286	0.005000	6.323211	2.376805	-1.905925	-0.809142	-0.040299	-1.320883	-0.987613	-0.329856	-0.223500
996	5.024286	0.005000	6.378375	2.472120	-1.882770	-0.811460	-0.040299	-1.321006	-0.971533	-0.243221	0.029686
997	5.029286	0.005000	6.799215	2.261655	-1.840710	-0.813777	-0.040299	-1.321130	-0.942229	-0.129478	0.266867
998	5.034286	0.005000	7.062925	2.032797	-1.718877	-0.816094	-0.040299	-1.321253	-0.916382	-0.046272	0.498383
999	5.039286	0.005000	7.351108	1.713332	-1.529916	-0.818412	-0.040299	-1.321376	-0.891651	-0.003438	0.699935
1000	5.044286	0.005000	7.500734	1.479836	-1.429313	-0.820729	-0.040299	-1.321499	-0.897559	0.032901	0.833956
1001	5.049286	0.005000	7.691040	1.334160	-1.325284	-0.823047	-0.040299	-1.321623	-0.882514	0.049361	0.967265
1002	5.054286	0.005000	7.697893	1.202735	-1.170347	-0.825577	-0.038674	-1.322693	-0.861149	0.067551	1.065678
1003	5.059286	0.005000	7.686510	1.024770	-1.124370	-0.828226	-0.036135	-1.324295	-0.819937	0.042704	1.112907
1004	5.064286	0.005000	7.725167	0.941760	-1.020240	-0.830876	-0.033595	-1.325898	-0.772667	0.050839	1.157893
1005	5.069286	0.005000	7.690707	0.902354	-1.098554	-0.833525	-0.031056	-1.327500	-0.718052	0.046518	1.146218
1006	5.074286	0.005000	7.575555	0.900285	-1.022475	-0.836175	-0.028517	-1.329103	-0.668699	0.026506	1.153106
1007	5.079286	0.005000	7.538260	0.784800	-1.129601	-0.838824	-0.025978	-1.330706	-0.635507	0.027043	1.137712
1008	5.084286	0.005000	7.488244	0.921972	-1.131364	-0.841474	-0.023438	-1.332308	-0.577018	0.008276	1.112607
1009	5.089286	0.005000	7.516290	1.068375	-1.286025	-0.844123	-0.020899	-1.333911	-0.511475	0.022817	1.069706
1010	5.094286	0.005000	7.477494	1.070427	-1.334160	-0.846773	-0.018360	-1.335513	-0.455942	0.024515	1.019911
1011	5.099286	0.005000	7.612182	1.046274	-1.412640	-0.849422	-0.015821	-1.337116	-0.388477	0.029607	0.963071
1012	5.104286	0.005000	7.651800	1.137960	-1.318856	-0.852072	-0.013281	-1.338719	-0.328701	0.027956	0.909197
1013	5.109286	0.005000	7.651800	1.194702	-1.259916	-0.854721	-0.010742	-1.340321	-0.267289	0.031783	0.864797
1014	5.114286	0.005000	7.730280	1.196782	-1.314502	-0.857371	-0.008203	-1.341924	-0.220705	0.022665	0.798388
1015	5.119286	0.005000	7.808760	1.334160	-1.194371	-0.859954	-0.005797	-1.343348	-0.171583	0.026241	0.754400
1016	5.124286	0.005000	7.950486	1.403867	-1.240446	-0.862052	-0.004362	-1.343471	-0.100574	0.022875	0.706589
1017	5.129286	0.005000	7.860825	1.451880	-1.163610	-0.864149	-0.002926	-1.343594	-0.044108	0.016218	0.657701
1018	5.134286	0.005000	7.915725	1.469609	-1.155689	-0.866247	-0.001491	-1.343718	0.008737	-0.007453	0.616344
1019	5.139286	0.005000	7.873400	1.491120	-1.151800	-0.868345	-0.000056	-1.343841	0.063576	-0.003886	0.569059
1020	5.144286	0.005000	8.017081	1.548541	-1.026300	-0.870442	0.001379	-1.343964	0.117279	-0.004801	0.540617
1021	5.149286	0.005000	8.048269	1.648080	-1.063549	-0.872540	0.002814	-1.344088	0.168310	0.007689	0.517430
1022	5.154286	0.005000	8.168718	1.769199	-1.059480	-0.874638	0.004250	-1.344211	0.219349	0.011374	0.500277
1023	5.159286	0.005000	8.318880	2.000261	-0.942495	-0.876735	0.005685	-1.344334	0.274456	0.012323	0.491812
1024	5.164286	0.005000	8.358120	2.001240	-0.913115	-0.878833	0.007120	-1.344458	0.313261	0.030723	0.474527
1025	5.169286	0.005000	8.612772	2.030466	-0.829047	-0.880931	0.008555	-1.344581	0.355798	0.027964	0.480847
1026	5.174286	0.005000	8.768732	2.118960	-0.831049	-0.883028	0.009990	-1.344704	0.402756	0.040745	0.490869
1027	5.179286	0.005000	8.888874	2.236680	-0.736257	-0.885126	0.011426	-1.344828	0.438530	0.045245	0.502602
1028	5.184286	0.005000	8.912640	2.275920	-0.722840	-0.887224	0.012861	-1.344951	0.458064	0.040016	0.548215
1029	5.189286	0.005000	9.102077	2.446494	-0.810426	-0.889853	0.014562	-1.344407	0.482359	0.063149	0.570784
1030	5.194286	0.005000	9.111565	2.464235	-0.737736	-0.892833	0.016438	-1.343421	0.506923	0.051719	0.616580
1031	5.199286	0.005000	9.142920	2.511360	-0.713158	-0.895814	0.018315	-1.342434	0.516137	0.057017	0.666901
1032	5.204286	0.005000	9.007577	2.666989	-0.824040	-0.898795	0.020192	-1.341448	0.545623	0.065733	0.717569
1033	5.209286	0.005000	8.963485	2.701849	-0.784800	-0.901776	0.022069	-1.340462	0.547988	0.093240	0.778716
1034	5.214286	0.005000	9.010845	2.707560	-0.745560	-0.904756	0.023946	-1.339476	0.555202	0.092792	0.832592
1035	5.219286	0.005000	9.091268	2.719972	-0.759977	-0.907737	0.025822	-1.338490	0.556157	0.104297	0.884210
1036	5.224286	0.005000	8.995958	2.619082	-0.804795	-0.910718	0.027699	-1.337503	0.557041	0.137488	0.927529
1037	5.229286	0.005000	8.946720	2.558557	-0.831997	-0.913699	0.029576	-1.336517	0.546655	0.142674	0.964290
1038	5.234286	0.005000	8.946720	2.505713	-0.751207	-0.916679	0.031453	-1.335531	0.530321	0.167323	0.984195
1039	5.239286	0.005000	9.107341	2.322482	-0.745560	-0.919660	0.033330	-1.334545	0.529926	0.196501	0.996367
1040	5.244286	0.005000	9.179588	2.310016	-0.742988	-0.922641	0.035206	-1.333559	0.523034	0.203631	1.003117
1041	5.249286	0.005000	9.256223	2.234471	-0.705216	-0.925622	0.037083	-1.332572	0.495717	0.226142	1.002491
1042	5.254286	0.005000	9.378360	2.164324	-0.742498	-0.928403	0.039059	-1.331758	0.490230	0.216378	0.974826
1043	5.259286	0.005000	9.535320	2.191961	-0.565797	-0.928955	0.042151	-1.332868	0.462882	0.237588	0.936214
1044	5.264286	0.005000	9.606009	2.024612	-0.580809	-0.929507	0.045242	-1.333977	0.457162	0.226222	0.885617
1045	5.269286	0.005000	9.505909	1.981582	-0.559189	-0.930059	0.048333	-1.335087	0.431452	0.228554	0.834998
1046	5.274286	0.005000	9.493100	2.013327	-0.576513	-0.930611	0.051424	-1.336196	0.407936	0.215391	0.766819
1047	5.279286	0.005000	9.372264	1.908283	-0.603077	-0.931163	0.054516	-1.337306	0.381738	0.206335	0.704078
1048	5.284286	0.005000	9.237990	1.962000	-0.588600	-0.931715	0.057607	-1.338415	0.356543	0.213123	0.630376
1049	5.289286	0.005000	9.318880	1.922760	-0.686080	-0.932267	0.060698	-1.339525	0.334966	0.202664	0.561887
1050	5.294286	0.005000	9.299880	1.883520	-0.625191	-0.932820	0.063789	-1.340634	0.309705	0.218256	0.489799
1051	5.299286	0.005000	9.165325	1.867634	-0.627840	-0.933372	0.066881	-1.341744	0.299019	0.226326	0.395230
1052	5.304286	0.005000	8.946720	1.936702	-0.667080	-0.933924	0.069972	-1.342853	0.277062	0.247271	0.331800
1053	5.309286	0.005000	8.997489	1.816569	-0.650897	-0.934476	0.073063	-1.343963	0.265275	0.276823	0.251895
1054	5.314286	0.005000	8.967021	1.765800	-0.725259	-0.935028	0.076154	-1.345072	0.250899	0.314419	0.167717
1055	5.319286	0.005000	8.875418	1.780155	-0.770445	-0.935580	0.079246	-1.346182	0.227902	0.351642	0.092400
1056	5.324286	0.005000	8.789760	1.844280	-0.696797	-0.935510	0.080970	-1.348819	0.222157	0.385300	0.020529
1057	5.329286	0.005000	8.826217	1.877953	-0.630623	-0.934958	0.081633	-1.352642	0.209743	0.430987	-0.033974
1058	5.334286	0.005000	8.790173	1.765387	-0.627840	-0.934406	0.082295	-1.356466	0.187779	0.463289	-0.097252
1059	5.339286	0.005000	8.678164	1.801978	-0.590131	-0.933853	0.082958	-1.360289	0.170310	0.502293	-0.136818
1060	5.344286	0.005000	8.644604	1.765800	-0.623905	-0.933301	0.083621	-1.364112	0.145207	0.558370	-0.206462
1061	5.349286	0.005000	8.613967	1.753244	-0.700042	-0.932749	0.084283	-1.367936	0.132659	0.572345	-0.251828
1062	5.354286	0.005000	8.531670	1.633725	-0.689730	-0.932197	0.084946	-1.371759	0.117035	0.615148	-0.286380
1063	5.359286	0.005000	8.475840	1.541062	-0.688484	-0.931644	0.085609	-1.375582	0.105107	0.647520	-0.338387
1064	5.364286	0.005000	8.606872	1.674356	-0.719632	-0.931092	0.086271	-1.379406	0.084895	0.676572	-0.371109
1065	5.369286	0.005000	8.672040	1.657201	-0.754681	-0.930540	0.086934	-1.383229	0.059155	0.699851	-0.401263
1066	5.374286	0.005000	8.772291	1.748331	-0.728091	-0.929987	0.087597	-1.387053	0.037026	0.718286	-0.419562
1067	5.379286	0.005000	8.907359	1.785390	-0.843690	-0.929435	0.088259	-1.390876	0.009781	0.740512	-0.434336
1068	5.384286	0.005000	8.990368	1.726560	-0.819632	-0.928883	0.088922	-1.394699	-0.024302	0.745163	-0.433392
1069	5.389286	0.005000	8.898248	1.820044	-0.869052	-0.928331	0.089629	-1.398455	-0.046780	0.759640	-0.423359
1070	5.394286	0.005000	8.868240	1.818100	-0.928700	-0.927779	0.091174	-1.400921	-0.074086	0.767155	-0.416593
1071	5.399286	0.005000	9.035852	1.833628	-0.902520	-0.927227	0.092720	-1.403387	-0.107222	0.755268	-0.399490
1072	5.404286	0.005000	9.055732	1.735268	-1.028948	-0.926675	0.094266	-1.405852	-0.143386	0.763863	-0.382992
1073	5.409286	0.005000	8.849363	1.811332	-1.053188	-0.926123	0.095811	-1.408318	-0.180801	0.746686	-0.340233
1074	5.414286	0.005000	8.719903	1.914137	-1.172889	-0.925571	0.097357	-1.410784	-0.199639	0.753005	-0.296791
1075	5.419286	0.005000	8.711280	1.881576	-1.139904	-0.925019	0.098902	-1.413249	-0.233705	0.744921	-0.245223
1076	5.424286	0.005000	8.672040	1.805040	-1.177200	-0.924467	0.100448	-1.415715	-0.249040	0.739178	-0.189693
1077	5.429286	0.005000	8.706473	1.846684	-1.258084	-0.923915	0.101994	-1.418180	-0.273851	0.742456	-0.128050
1078	5.434286	0.005000	8.676805	1.687320	-1.403110	-0.923363	0.103539	-1.420646	-0.300308	0.728473	-0.048619
1079	5.439286	0.005000	8.528609	1.629133	-1.451880	-0.922811	0.105085	-1.423112	-0.331729	0.725525	0.013921
1080	5.444286	0.005000	8.484901	1.548482	-1.500181	-0.922259	0.106631	-1.425577	-0.370005	0.704944	0.089081
1081	5.449286	0.005000	8.503965	1.508130	-1.597725	-0.921707	0.108176	-1.428043	-0.397089	0.709088	0.167934
1082	5.454286	0.005000	8.540791	1.492467	-1.569600	-0.921155	0.109722	-1.430509	-0.426675	0.697657	0.237014
1083	5.459286	0.005000	8.530553	1.388873	-1.687320	-0.920193	0.112146	-1.433171	-0.449058	0.667079	0.319974
1084	5.464286	0.005000	8.611442	1.494595	-1.551718	-0.918868	0.115349	-1.436008	-0.472682	0.657323	0.377438
1085	5.469286	0.005000	8.651981	1.530360	-1.589659	-0.917542	0.118552	-1.438845	-0.491153	0.628349	0.437671
1086	5.474286	0.005000	8.733517	1.468883	-1.547363	-0.916217	0.121755	-1.441681	-0.525015	0.608511	0.505570
1087	5.479286	0.005000	8.696395	1.436995	-1.623725	-0.914891	0.124959	-1.444518	-0.547621	0.584599	0.567926
1088	5.484286	0.005000	8.658113	1.478463	-1.516433	-0.913566	0.128162	-1.447355	-0.565672	0.559785	0.628107
