# FOX Logger (IMU file)
# (c) INRIA 2011-2014
# File created from file sensbiotk output
#
# File format:
# id	t	dt	ax	ay	az	mx	my	mz	gx	gy	gz
#
# Units:
#	Time: s
#	Acceleration: m.s^-2
#	Magneto: gauss
#	Gyrometer: rad/s
#
1	0.055481	0.055481	2.833785	-8.907480	-1.586610	-0.547761	0.040299	-0.345000	-0.028065	0.000970	-0.015190
2	0.060481	0.005000	2.832762	-8.907480	-1.717250	-0.546858	0.040863	-0.346135	-0.025268	-0.004554	-0.014157
3	0.065481	0.005000	2.857967	-8.861687	-1.720007	-0.545955	0.041428	-0.347269	-0.016682	-0.002891	-0.005518
4	0.070481	0.005000	2.786040	-8.823082	-1.687320	-0.545052	0.041992	-0.348404	-0.022137	0.012749	-0.028528
5	0.075481	0.005000	2.869415	-8.946720	-1.697111	-0.544148	0.042557	-0.349539	-0.011927	0.007100	-0.013039
6	0.080481	0.005000	2.790393	-8.981607	-1.735266	-0.543245	0.043121	-0.350673	-0.017359	0.013614	-0.009449
7	0.085481	0.005000	2.861189	-8.946720	-1.713237	-0.542342	0.043686	-0.351808	-0.023634	0.011153	-0.024708
8	0.090481	0.005000	2.742184	-8.949028	-1.650388	-0.541439	0.044250	-0.352942	-0.007159	0.008120	-0.015125
9	0.095481	0.005000	2.632612	-8.982428	-1.612372	-0.540536	0.044815	-0.354077	-0.014590	0.021553	-0.020703
10	0.100481	0.005000	2.746800	-8.946720	-1.688807	-0.539633	0.045379	-0.355212	-0.019453	0.017617	-0.018145
11	0.105481	0.005000	2.746800	-8.946720	-1.804761	-0.538729	0.045943	-0.356346	-0.016911	0.013085	-0.009427
12	0.110481	0.005000	2.747647	-8.946720	-1.767493	-0.537826	0.046508	-0.357481	-0.014759	0.015973	-0.011383
13	0.115481	0.005000	2.900042	-8.987819	-1.649939	-0.536923	0.047072	-0.358616	-0.016205	0.012062	-0.011803
14	0.120481	0.005000	2.828161	-9.025200	-1.720797	-0.536020	0.047637	-0.359750	-0.011891	0.021720	-0.012372
15	0.125481	0.005000	2.861096	-8.996231	-1.615687	-0.535909	0.046616	-0.357935	-0.011949	0.015174	-0.004227
16	0.130481	0.005000	2.864520	-8.985960	-1.652526	-0.536022	0.045148	-0.355286	-0.014364	0.025522	-0.018406
17	0.135481	0.005000	2.859051	-8.985960	-1.687320	-0.536135	0.043679	-0.352637	-0.010020	0.011542	0.002084
18	0.140481	0.005000	2.831291	-9.070451	-1.747768	-0.536248	0.042211	-0.349989	-0.015897	0.019640	-0.003047
19	0.145481	0.005000	2.857487	-9.089614	-1.680287	-0.536361	0.040743	-0.347340	-0.016366	0.011379	-0.024083
20	0.150481	0.005000	2.966902	-8.993629	-1.601171	-0.536474	0.039274	-0.344691	-0.010486	0.009160	-0.010169
21	0.155481	0.005000	2.943000	-9.025200	-1.717962	-0.536586	0.037806	-0.342043	-0.025986	0.015714	-0.014215
22	0.160481	0.005000	2.963000	-8.985960	-1.696940	-0.536699	0.036338	-0.339394	-0.026898	0.013748	-0.009219
23	0.165481	0.005000	2.943000	-8.965604	-1.745444	-0.536812	0.034869	-0.336745	-0.014313	0.010291	-0.009577
24	0.170481	0.005000	2.903760	-8.957920	-1.754600	-0.536925	0.033401	-0.334097	-0.020864	0.003990	-0.027071
25	0.175481	0.005000	2.813537	-9.025200	-1.722548	-0.537038	0.031933	-0.331448	-0.024877	0.008994	-0.014446
26	0.180481	0.005000	2.838990	-8.985960	-1.740270	-0.537151	0.030464	-0.328799	-0.024570	0.011781	-0.017928
27	0.185481	0.005000	2.812984	-8.973664	-1.713088	-0.537264	0.028996	-0.326151	-0.015286	0.014415	-0.005371
28	0.190481	0.005000	2.864520	-9.025200	-1.730309	-0.538143	0.028422	-0.325713	-0.022984	0.015773	-0.018555
29	0.195481	0.005000	2.903760	-9.001312	-1.632728	-0.539611	0.028535	-0.326974	-0.009188	0.013829	-0.004917
30	0.200481	0.005000	2.841380	-8.985960	-1.648080	-0.541078	0.028648	-0.328235	-0.014432	0.012713	-0.008400
31	0.205481	0.005000	2.808357	-8.924403	-1.743483	-0.542546	0.028761	-0.329495	-0.022083	0.013288	-0.017527
32	0.210481	0.005000	2.825280	-8.868240	-1.783739	-0.544014	0.028874	-0.330756	-0.012470	0.009680	-0.006508
33	0.215481	0.005000	2.726057	-8.985960	-1.606594	-0.545482	0.028987	-0.332017	-0.023003	0.021165	-0.026325
34	0.220481	0.005000	2.825481	-8.985960	-1.667599	-0.546949	0.029099	-0.333277	-0.017329	0.011668	-0.011914
35	0.225481	0.005000	2.866363	-8.926178	-1.631225	-0.548417	0.029212	-0.334538	-0.008142	0.015882	-0.012076
36	0.230481	0.005000	2.804196	-9.004116	-1.690248	-0.549885	0.029325	-0.335799	-0.018489	0.007082	-0.019166
37	0.235481	0.005000	2.837441	-8.985960	-1.648080	-0.551352	0.029438	-0.337060	-0.011606	0.003878	-0.008143
38	0.240481	0.005000	2.819223	-8.996494	-1.726560	-0.552820	0.029551	-0.338320	-0.008858	0.015644	-0.016276
39	0.245481	0.005000	2.825915	-8.954822	-1.687320	-0.554288	0.029664	-0.339581	-0.013720	0.014537	-0.012780
40	0.250481	0.005000	2.800587	-8.946720	-1.658227	-0.555755	0.029777	-0.340842	-0.014801	0.018579	-0.024509
41	0.255481	0.005000	2.770535	-8.948539	-1.687320	-0.556482	0.030124	-0.341798	-0.015407	0.010059	-0.018083
42	0.260481	0.005000	2.772392	-8.999267	-1.608840	-0.555805	0.030914	-0.342176	-0.010977	0.012523	-0.008304
43	0.265481	0.005000	2.840601	-8.958679	-1.717962	-0.555127	0.031705	-0.342554	-0.002277	0.016606	-0.016011
44	0.270481	0.005000	2.808176	-9.025200	-1.642044	-0.554450	0.032495	-0.342932	-0.004924	0.009575	-0.010521
45	0.275481	0.005000	2.864520	-8.996339	-1.687320	-0.553773	0.033285	-0.343310	-0.008846	0.021686	-0.008210
46	0.280481	0.005000	2.834753	-9.053618	-1.677847	-0.553095	0.034076	-0.343689	0.002484	0.004570	-0.012567
47	0.285481	0.005000	2.786040	-9.016385	-1.600025	-0.552418	0.034866	-0.344067	-0.003868	0.017646	-0.003888
48	0.290481	0.005000	2.793832	-8.907480	-1.734352	-0.551740	0.035656	-0.344445	-0.006132	0.012825	-0.011167
49	0.295481	0.005000	2.739550	-8.875490	-1.736800	-0.551063	0.036446	-0.344823	0.003397	0.005444	-0.008407
50	0.300481	0.005000	2.759255	-8.940492	-1.707877	-0.550386	0.037237	-0.345202	0.005500	0.005625	0.001224
51	0.305481	0.005000	2.820075	-8.946720	-1.619250	-0.549708	0.038027	-0.345580	0.002888	0.004921	-0.001663
52	0.310481	0.005000	2.864520	-8.990607	-1.770447	-0.549031	0.038817	-0.345958	0.001167	0.008444	-0.012719
53	0.315481	0.005000	2.889260	-9.049940	-1.769425	-0.548354	0.039608	-0.346336	-0.003054	0.008469	-0.013800
54	0.320481	0.005000	2.786040	-8.904831	-1.650729	-0.547676	0.040370	-0.346762	-0.004518	0.013667	-0.012900
55	0.325481	0.005000	2.788100	-8.946720	-1.571660	-0.546998	0.040934	-0.347519	0.000000	0.005558	-0.018067
56	0.330481	0.005000	2.823204	-8.945682	-1.685244	-0.546321	0.041499	-0.348275	-0.001337	0.007946	-0.013249
57	0.335481	0.005000	2.746800	-8.907480	-1.570096	-0.545643	0.042064	-0.349032	-0.003379	0.018314	-0.018458
58	0.340481	0.005000	2.785513	-8.868767	-1.608840	-0.544965	0.042629	-0.349789	-0.001517	0.009818	-0.012318
59	0.345481	0.005000	2.826829	-8.985960	-1.649629	-0.544288	0.043193	-0.350546	-0.005016	0.010518	-0.008516
60	0.350481	0.005000	2.858246	-8.983869	-1.652263	-0.543610	0.043758	-0.351302	-0.008574	0.018309	-0.022264
61	0.355481	0.005000	2.858292	-8.976619	-1.693548	-0.542932	0.044323	-0.352059	0.009224	0.006672	-0.012337
62	0.360481	0.005000	2.868235	-8.982245	-1.605125	-0.542255	0.044887	-0.352816	-0.010298	0.006413	-0.019329
63	0.365481	0.005000	2.864520	-8.976572	-1.770494	-0.541577	0.045452	-0.353573	-0.006744	0.008024	-0.015190
64	0.370481	0.005000	2.830996	-8.941004	-1.687320	-0.540899	0.046017	-0.354329	-0.008395	0.009236	-0.009393
65	0.375481	0.005000	2.792299	-9.018941	-1.707784	-0.540222	0.046581	-0.355086	-0.010651	0.003578	-0.003281
66	0.380481	0.005000	2.793321	-9.025200	-1.576881	-0.539544	0.047146	-0.355843	0.001786	0.014162	-0.007592
67	0.385481	0.005000	2.793960	-8.962560	-1.702800	-0.538866	0.047711	-0.356600	-0.001646	0.013614	-0.007686
68	0.390481	0.005000	2.877223	-8.977114	-1.683463	-0.538806	0.047864	-0.356552	-0.010267	0.015985	-0.008398
69	0.395481	0.005000	2.795908	-8.878108	-1.736428	-0.538806	0.047977	-0.356426	-0.014661	0.017123	-0.018550
70	0.400481	0.005000	2.932449	-8.925619	-1.726560	-0.538806	0.048090	-0.356300	0.001607	0.011586	-0.009299
71	0.405481	0.005000	2.820352	-8.958157	-1.710195	-0.538806	0.048203	-0.356174	0.003290	0.019731	0.000283
72	0.410481	0.005000	2.812825	-8.907480	-1.662410	-0.538806	0.048316	-0.356047	-0.001854	0.021927	-0.015893
73	0.415481	0.005000	2.812267	-8.933506	-1.595827	-0.538806	0.048429	-0.355921	0.004549	0.004921	0.002045
74	0.420481	0.005000	2.732765	-9.047539	-1.583635	-0.538806	0.048542	-0.355795	-0.004210	0.015478	-0.017063
75	0.425481	0.005000	2.873645	-9.001018	-1.657205	-0.538806	0.048655	-0.355669	-0.011606	0.013693	-0.002291
76	0.430481	0.005000	2.754840	-9.009600	-1.695360	-0.538806	0.048768	-0.355543	-0.008224	0.020696	-0.007165
77	0.435481	0.005000	2.786040	-9.047818	-1.664702	-0.538806	0.048881	-0.355417	-0.015620	0.017213	-0.022752
78	0.440481	0.005000	2.829765	-9.012308	-1.700212	-0.538806	0.048994	-0.355291	-0.020395	0.010509	-0.009780
79	0.445481	0.005000	2.783174	-8.964907	-1.669133	-0.538806	0.049107	-0.355164	-0.009972	0.015753	-0.017097
80	0.450481	0.005000	2.766831	-8.867419	-1.608019	-0.538806	0.049220	-0.355038	-0.020941	0.011096	-0.020995
81	0.455481	0.005000	2.883528	-8.984736	-1.687320	-0.538649	0.048782	-0.355088	-0.018046	0.012742	-0.012749
82	0.460481	0.005000	2.846070	-9.004410	-1.708110	-0.538423	0.048104	-0.355214	-0.020730	0.002937	-0.007852
83	0.465481	0.005000	2.746800	-9.007757	-1.648080	-0.538197	0.047426	-0.355340	-0.016998	0.017815	-0.009817
84	0.470481	0.005000	2.786040	-9.041621	-1.670899	-0.537971	0.046749	-0.355466	-0.012295	0.002361	-0.022231
85	0.475481	0.005000	2.848657	-9.080303	-1.648080	-0.537745	0.046071	-0.355593	-0.015227	0.005080	-0.013987
86	0.480481	0.005000	2.771199	-9.040041	-1.642797	-0.537519	0.045393	-0.355719	-0.013088	0.016623	-0.025063
87	0.485481	0.005000	2.774779	-9.025200	-1.676059	-0.537293	0.044716	-0.355845	-0.013567	-0.001304	-0.006843
88	0.490481	0.005000	2.825280	-9.130232	-1.752524	-0.537067	0.044038	-0.355971	-0.020510	0.014227	-0.017367
89	0.495481	0.005000	2.786040	-9.088948	-1.687320	-0.536841	0.043360	-0.356097	-0.029546	0.015299	-0.024093
90	0.500481	0.005000	2.786040	-9.041017	-1.691425	-0.536615	0.042682	-0.356223	-0.023300	0.007025	-0.019216
91	0.505481	0.005000	2.885898	-8.996649	-1.608840	-0.536390	0.042005	-0.356349	-0.032506	0.006480	-0.026015
92	0.510481	0.005000	2.982240	-9.093897	-1.579383	-0.536164	0.041327	-0.356476	-0.032528	0.003208	-0.012829
93	0.515481	0.005000	2.807062	-8.995069	-1.629862	-0.535938	0.040649	-0.356602	-0.020936	0.015124	-0.010532
94	0.520481	0.005000	2.794142	-8.946720	-1.749596	-0.535766	0.040299	-0.356484	-0.024495	0.019834	-0.017623
95	0.525481	0.005000	2.793204	-8.964467	-1.712231	-0.535653	0.040299	-0.356106	-0.027386	0.012747	-0.011937
96	0.530481	0.005000	2.825280	-8.907480	-1.608840	-0.535540	0.040299	-0.355727	-0.016211	0.014050	-0.024835
97	0.535481	0.005000	2.875519	-8.907480	-1.737559	-0.535427	0.040299	-0.355349	-0.023192	0.006849	-0.004696
98	0.540481	0.005000	2.874435	-8.897565	-1.726560	-0.535314	0.040299	-0.354971	-0.014661	0.024041	-0.014296
99	0.545481	0.005000	3.009675	-8.872175	-1.655950	-0.535202	0.040299	-0.354592	-0.004794	0.010246	-0.004042
100	0.550481	0.005000	2.861608	-8.907480	-1.757063	-0.535089	0.040299	-0.354214	-0.021201	0.017231	-0.011453
101	0.555481	0.005000	2.788410	-8.907480	-1.544581	-0.534976	0.040299	-0.353836	-0.020352	0.015743	-0.016899
102	0.560481	0.005000	2.787388	-8.983264	-1.727908	-0.534863	0.040299	-0.353457	-0.016589	0.009089	-0.006006
103	0.565481	0.005000	2.825280	-8.907480	-1.648080	-0.534750	0.040299	-0.353079	-0.026900	0.021464	-0.008523
104	0.570481	0.005000	2.825280	-9.024503	-1.609072	-0.534637	0.040299	-0.352700	-0.020026	0.008580	-0.007548
105	0.575481	0.005000	2.860756	-9.025200	-1.684810	-0.534524	0.040299	-0.352322	-0.001527	0.022702	-0.005567
106	0.580481	0.005000	2.825280	-9.027019	-1.728379	-0.534411	0.040299	-0.351944	-0.009733	0.022900	-0.010120
107	0.585481	0.005000	2.858881	-9.064440	-1.768619	-0.534358	0.040390	-0.351769	-0.004536	0.020704	-0.006541
108	0.590481	0.005000	2.786040	-9.025200	-1.765800	-0.534471	0.040729	-0.352147	-0.005848	0.016484	-0.005774
109	0.595481	0.005000	2.711998	-9.060002	-1.696197	-0.534584	0.041068	-0.352525	-0.015021	0.022217	-0.007155
110	0.600481	0.005000	2.786040	-9.103680	-1.737373	-0.534697	0.041406	-0.352904	-0.008999	0.021299	-0.017129
111	0.605481	0.005000	2.753229	-8.998818	-1.765800	-0.534810	0.041745	-0.353282	-0.000328	0.018665	-0.007059
112	0.610481	0.005000	2.754251	-8.985960	-1.702223	-0.534923	0.042084	-0.353661	-0.002499	0.021919	-0.007250
113	0.615481	0.005000	2.715554	-9.056446	-1.741819	-0.535036	0.042423	-0.354039	0.000206	0.017248	-0.006985
114	0.620481	0.005000	2.777024	-8.994976	-1.756784	-0.535149	0.042762	-0.354417	0.004825	0.021439	-0.004591
115	0.625481	0.005000	2.913934	-9.054751	-1.707183	-0.535262	0.043100	-0.354796	-0.004364	0.026107	-0.020765
116	0.630481	0.005000	2.943000	-8.985960	-1.648080	-0.535375	0.043439	-0.355174	-0.009790	0.019639	-0.010027
117	0.635481	0.005000	2.848495	-9.013592	-1.648080	-0.535488	0.043778	-0.355553	-0.005237	0.024472	-0.019573
118	0.640481	0.005000	2.786040	-8.973799	-1.635919	-0.535601	0.044117	-0.355931	-0.006974	0.021561	-0.016239
119	0.645481	0.005000	2.864520	-8.985960	-1.622023	-0.535714	0.044456	-0.356309	0.002733	0.013390	-0.009485
120	0.650481	0.005000	2.811074	-8.975131	-1.726560	-0.535833	0.044776	-0.356674	0.006999	0.017562	-0.010754
121	0.655481	0.005000	2.825280	-8.961948	-1.693764	-0.536059	0.044776	-0.356800	-0.002123	0.009759	-0.003363
122	0.660481	0.005000	2.801810	-8.962490	-1.703090	-0.536285	0.044776	-0.356926	-0.009506	0.014050	-0.007064
123	0.665481	0.005000	2.786040	-8.907480	-1.586393	-0.536511	0.044776	-0.357052	-0.019678	0.009250	-0.016048
124	0.670481	0.005000	2.803855	-8.964535	-1.591025	-0.536737	0.044776	-0.357178	-0.014696	0.018590	-0.014416
125	0.675481	0.005000	2.767683	-8.907480	-1.629723	-0.536963	0.044776	-0.357305	-0.018422	0.009700	-0.015641
126	0.680481	0.005000	2.904240	-8.986440	-1.687320	-0.537189	0.044776	-0.357431	-0.009602	0.010302	-0.010311
127	0.685481	0.005000	2.862955	-9.004798	-1.666918	-0.537415	0.044776	-0.357557	-0.017396	0.013818	-0.009928
128	0.690481	0.005000	2.922047	-9.067106	-1.702942	-0.537641	0.044776	-0.357683	-0.011812	0.010836	-0.004161
129	0.695481	0.005000	2.864520	-9.064440	-1.670047	-0.537867	0.044776	-0.357809	-0.013672	0.025045	-0.019977
130	0.700481	0.005000	2.832019	-8.985960	-1.648080	-0.538093	0.044776	-0.357935	-0.019613	0.015492	-0.020674
131	0.705481	0.005000	2.864520	-9.001653	-1.561746	-0.538319	0.044776	-0.358061	-0.016148	0.012746	-0.009770
132	0.710481	0.005000	2.839950	-9.098909	-1.662750	-0.538545	0.044776	-0.358188	-0.016554	0.017268	-0.022602
133	0.715481	0.005000	2.901549	-8.935114	-1.583417	-0.538771	0.044776	-0.358314	-0.014801	0.013217	-0.008735
134	0.720481	0.005000	2.799146	-9.012094	-1.661186	-0.538806	0.044776	-0.358226	-0.011429	0.026514	-0.016177
135	0.725481	0.005000	2.837363	-8.907480	-1.687320	-0.538806	0.044776	-0.358100	-0.011005	0.015062	-0.016762
136	0.730481	0.005000	2.814219	-8.918541	-1.687320	-0.538806	0.044776	-0.357974	-0.019358	0.016463	-0.010670
137	0.735481	0.005000	2.825280	-8.889277	-1.658599	-0.538806	0.044776	-0.357848	-0.020711	0.016661	-0.018932
138	0.740481	0.005000	2.796791	-8.937224	-1.745553	-0.538806	0.044776	-0.357722	-0.008483	0.012978	-0.017331
139	0.745481	0.005000	2.794514	-8.915954	-1.818858	-0.538806	0.044776	-0.357596	-0.018200	0.014038	-0.005794
140	0.750481	0.005000	2.762663	-8.954652	-1.757868	-0.538806	0.044776	-0.357470	-0.012062	0.014555	-0.004024
141	0.755481	0.005000	2.806768	-8.939811	-1.733469	-0.538806	0.044776	-0.357344	-0.008583	0.022602	-0.004113
142	0.760481	0.005000	2.891986	-8.980073	-1.665740	-0.538806	0.044776	-0.357218	0.002365	0.015146	-0.003838
143	0.765481	0.005000	2.790963	-8.956565	-1.765800	-0.538806	0.044776	-0.357092	-0.012780	0.022033	-0.010582
144	0.770481	0.005000	2.790347	-9.025200	-1.674400	-0.538806	0.044776	-0.356965	-0.004625	0.018690	-0.017062
145	0.775481	0.005000	2.786040	-8.985960	-1.648080	-0.538806	0.044776	-0.356839	0.005709	0.018134	-0.010901
146	0.780481	0.005000	2.864520	-8.951275	-1.758968	-0.538806	0.044776	-0.356713	0.002571	0.029317	-0.019810
147	0.785481	0.005000	2.902040	-9.030359	-1.683881	-0.538520	0.044847	-0.356667	0.007721	0.015032	-0.012025
148	0.790481	0.005000	2.825977	-9.103680	-1.688714	-0.538068	0.044960	-0.356667	0.004653	0.018996	0.000495
149	0.795481	0.005000	2.864520	-9.025851	-1.687971	-0.537617	0.045073	-0.356667	0.001852	0.019567	-0.021072
150	0.800481	0.005000	2.940304	-8.987308	-1.648080	-0.537165	0.045186	-0.356667	0.011501	0.016733	-0.018931
151	0.805481	0.005000	2.864520	-9.025200	-1.683540	-0.536713	0.045299	-0.356667	0.005818	0.022825	-0.023569
152	0.810481	0.005000	2.906672	-8.952545	-1.650992	-0.536261	0.045412	-0.356667	0.004109	0.017922	-0.007656
153	0.815481	0.005000	2.786040	-9.013395	-1.648080	-0.535809	0.045525	-0.356667	0.004674	0.023488	-0.006414
154	0.820481	0.005000	2.786040	-9.094726	-1.687320	-0.535358	0.045638	-0.356667	-0.001163	0.017368	-0.011129
155	0.825481	0.005000	2.786040	-9.064440	-1.642581	-0.534906	0.045751	-0.356667	0.001943	0.017904	-0.006700
156	0.830481	0.005000	2.825280	-9.051396	-1.687320	-0.534454	0.045864	-0.356667	-0.004807	0.025146	-0.016288
157	0.835481	0.005000	2.825280	-8.985960	-1.726560	-0.534002	0.045977	-0.356667	-0.006276	0.016799	-0.005855
158	0.840481	0.005000	2.809107	-8.977873	-1.780780	-0.533551	0.046090	-0.356667	-0.008995	0.010491	-0.014127
159	0.845481	0.005000	2.755909	-9.006982	-1.705538	-0.533099	0.046203	-0.356667	0.001739	0.012467	-0.006086
160	0.850481	0.005000	2.854737	-8.897697	-1.589165	-0.532978	0.046222	-0.356614	0.001519	0.012579	-0.009428
161	0.855481	0.005000	2.864520	-8.928858	-1.648080	-0.533316	0.046109	-0.356488	-0.017829	0.006106	-0.013266
162	0.860481	0.005000	2.825280	-8.895768	-1.738272	-0.533655	0.045996	-0.356362	-0.010433	0.015983	-0.005870
163	0.865481	0.005000	2.825280	-8.895074	-1.751371	-0.533994	0.045883	-0.356236	-0.011301	0.017250	-0.020268
164	0.870481	0.005000	2.863931	-8.933444	-1.700596	-0.534332	0.045770	-0.356110	-0.010067	0.000411	-0.009231
165	0.875481	0.005000	2.853877	-8.996603	-1.658723	-0.534671	0.045657	-0.355984	-0.019472	0.003513	-0.021382
166	0.880481	0.005000	2.825280	-8.946720	-1.774991	-0.535010	0.045544	-0.355858	-0.008858	0.012467	-0.017496
167	0.885481	0.005000	2.887897	-8.923343	-1.749937	-0.535348	0.045431	-0.355732	-0.013685	0.010345	-0.002005
168	0.890481	0.005000	2.847634	-8.907480	-1.586486	-0.535687	0.045318	-0.355605	-0.015186	0.019538	-0.016842
169	0.895481	0.005000	2.838324	-8.929292	-1.709132	-0.536026	0.045205	-0.355479	-0.015184	0.019063	-0.018076
170	0.900481	0.005000	2.806830	-8.909819	-1.726560	-0.536364	0.045092	-0.355353	-0.020845	0.018813	-0.013978
171	0.905481	0.005000	2.824691	-8.966487	-1.667553	-0.536703	0.044979	-0.355227	-0.023271	0.018364	-0.008072
172	0.910481	0.005000	2.805009	-9.044169	-1.704988	-0.537041	0.044867	-0.355101	-0.018284	0.021706	-0.005224
173	0.915481	0.005000	2.864520	-9.007013	-1.729426	-0.537425	0.044709	-0.355050	-0.021830	0.021760	-0.008221
174	0.920481	0.005000	2.925835	-8.951631	-1.660334	-0.537990	0.044370	-0.355302	-0.019761	0.028953	-0.012359
175	0.925481	0.005000	2.831275	-8.952715	-1.726560	-0.538554	0.044031	-0.355554	-0.031824	0.016340	-0.013965
176	0.930481	0.005000	2.888160	-9.001560	-1.702920	-0.539119	0.043692	-0.355807	-0.028997	0.015655	0.005707
177	0.935481	0.005000	2.991964	-9.049682	-1.633322	-0.539684	0.043354	-0.356059	-0.028481	0.033044	-0.011953
178	0.940481	0.005000	2.940134	-9.014031	-1.608840	-0.540249	0.043015	-0.356311	-0.035860	0.023102	-0.004091
179	0.945481	0.005000	2.851507	-9.051427	-1.582814	-0.540814	0.042676	-0.356563	-0.036883	0.022657	0.003236
180	0.950481	0.005000	2.837740	-9.037660	-1.633760	-0.541378	0.042337	-0.356816	-0.049562	0.027020	-0.011620
181	0.955481	0.005000	2.763144	-9.103680	-1.687320	-0.541943	0.041998	-0.357068	-0.040124	0.018255	-0.008825
182	0.960481	0.005000	2.736249	-9.093129	-1.705459	-0.542508	0.041660	-0.357320	-0.041587	0.029669	-0.021222
183	0.965481	0.005000	2.737164	-9.103680	-1.667584	-0.543073	0.041321	-0.357572	-0.053947	0.026473	-0.012798
184	0.970481	0.005000	2.777194	-9.134074	-1.656926	-0.543638	0.040982	-0.357825	-0.038290	0.027150	-0.013617
185	0.975481	0.005000	2.746800	-9.150840	-1.600920	-0.544202	0.040643	-0.358077	-0.045260	0.031262	-0.018803
186	0.980481	0.005000	2.661039	-9.103680	-1.584162	-0.544767	0.040304	-0.358329	-0.045636	0.030476	-0.017536
187	0.985481	0.005000	2.655648	-9.051768	-1.687320	-0.543998	0.040632	-0.358209	-0.029105	0.026294	-0.016637
188	0.990481	0.005000	2.674036	-8.941004	-1.620273	-0.543207	0.040971	-0.358083	-0.039817	0.024145	-0.010154
189	0.995481	0.005000	2.668320	-9.055052	-1.618228	-0.542416	0.041310	-0.357957	-0.041256	0.035010	-0.029564
190	1.000481	0.005000	2.750515	-8.943005	-1.655511	-0.541626	0.041649	-0.357831	-0.039177	0.033030	-0.019972
191	1.005481	0.005000	2.779810	-8.907480	-1.654310	-0.540835	0.041988	-0.357705	-0.034434	0.028905	-0.014704
192	1.010481	0.005000	2.742536	-8.944588	-1.726560	-0.540045	0.042326	-0.357579	-0.043779	0.034064	-0.032112
193	1.015481	0.005000	2.589840	-8.949818	-1.688869	-0.539254	0.042665	-0.357452	-0.037179	0.028405	-0.021030
194	1.020481	0.005000	2.590367	-8.908533	-1.765800	-0.538463	0.043004	-0.357326	-0.037296	0.031815	-0.026018
195	1.025481	0.005000	2.706569	-9.024704	-1.804544	-0.537673	0.043343	-0.357200	-0.038866	0.025830	-0.022013
196	1.030481	0.005000	2.706522	-8.986998	-1.767876	-0.536882	0.043682	-0.357074	-0.034169	0.030909	-0.017928
197	1.035481	0.005000	2.707560	-8.791820	-1.765800	-0.536091	0.044020	-0.356948	-0.031247	0.026983	-0.026709
198	1.040481	0.005000	2.746800	-8.980690	-1.684685	-0.535301	0.044359	-0.356822	-0.026270	0.025720	-0.010821
199	1.045481	0.005000	2.782415	-8.918355	-1.655330	-0.534510	0.044698	-0.356696	-0.020628	0.025884	-0.022726
200	1.050481	0.005000	2.677615	-8.985960	-1.751858	-0.534415	0.044950	-0.356861	-0.018936	0.028720	-0.020470
201	1.055481	0.005000	2.673588	-8.946720	-1.844280	-0.534528	0.045176	-0.357113	-0.018922	0.041210	-0.028007
202	1.060481	0.005000	2.668320	-9.070668	-1.844280	-0.534641	0.045402	-0.357366	-0.000179	0.033697	-0.025453
203	1.065481	0.005000	2.629080	-8.985960	-1.837043	-0.534754	0.045628	-0.357618	0.001988	0.033603	-0.016827
204	1.070481	0.005000	2.668320	-8.985960	-1.718768	-0.534867	0.045854	-0.357870	-0.001844	0.042761	-0.025636
205	1.075481	0.005000	2.659505	-9.016385	-1.765800	-0.534980	0.046079	-0.358122	0.005407	0.026093	-0.011742
206	1.080481	0.005000	2.776683	-9.084966	-1.816209	-0.535093	0.046305	-0.358375	0.004096	0.034694	-0.022801
207	1.085481	0.005000	2.757179	-8.967479	-1.726560	-0.535206	0.046531	-0.358627	0.005678	0.027888	-0.029721
208	1.090481	0.005000	2.657252	-8.985960	-1.737628	-0.535319	0.046757	-0.358879	0.015417	0.026959	-0.017539
209	1.095481	0.005000	2.680264	-8.958664	-1.699264	-0.535432	0.046983	-0.359131	0.023911	0.028672	-0.028078
210	1.100481	0.005000	2.733834	-8.972994	-1.687320	-0.535545	0.047209	-0.359384	0.030252	0.028021	-0.014744
211	1.105481	0.005000	2.772516	-8.946720	-1.700844	-0.535658	0.047435	-0.359636	0.032026	0.027820	-0.014639
212	1.110481	0.005000	2.786040	-8.981560	-1.701867	-0.535771	0.047661	-0.359888	0.032927	0.018082	-0.015680
213	1.115481	0.005000	2.714147	-8.953307	-1.482431	-0.536512	0.047384	-0.359018	0.022850	0.029987	-0.021185
214	1.120481	0.005000	2.753818	-8.861222	-1.694338	-0.537754	0.046707	-0.357252	0.022179	0.008367	-0.012709
215	1.125481	0.005000	2.842140	-8.873761	-1.625700	-0.538997	0.046029	-0.355487	0.028387	0.010259	-0.012918
216	1.130481	0.005000	2.746800	-8.950608	-1.630404	-0.540239	0.045351	-0.353721	0.017410	0.015324	-0.024806
217	1.135481	0.005000	2.767342	-8.967262	-1.629382	-0.541482	0.044673	-0.351955	0.020157	0.005293	-0.008139
218	1.140481	0.005000	2.904027	-8.985960	-1.667567	-0.542724	0.043996	-0.350189	0.007814	0.012344	-0.012123
219	1.145481	0.005000	2.943000	-9.006238	-1.627802	-0.543967	0.043318	-0.348424	0.006553	0.010536	-0.005251
220	1.150481	0.005000	2.978893	-8.968014	-1.729907	-0.545209	0.042640	-0.346658	0.010158	0.011507	-0.002523
221	1.155481	0.005000	2.986686	-8.946720	-1.743957	-0.546451	0.041963	-0.344892	0.000491	0.012673	-0.015882
222	1.160481	0.005000	2.959375	-8.995844	-1.716676	-0.547694	0.041285	-0.343126	0.002674	0.004814	-0.012292
223	1.165481	0.005000	2.989627	-8.931178	-1.734715	-0.548936	0.040607	-0.341361	0.012338	0.008325	-0.013907
224	1.170481	0.005000	3.060720	-8.843810	-1.726560	-0.550179	0.039930	-0.339595	0.011505	0.008485	-0.015171
225	1.175481	0.005000	3.113747	-9.038987	-1.673533	-0.551421	0.039252	-0.337829	0.016537	0.006797	-0.020747
226	1.180481	0.005000	3.060720	-9.077190	-1.582845	-0.552587	0.038767	-0.336710	0.008978	0.005158	-0.022977
227	1.185481	0.005000	3.114754	-8.988532	-1.623634	-0.553604	0.038654	-0.336836	-0.008432	0.007021	-0.014998
228	1.190481	0.005000	3.099960	-8.935385	-1.636745	-0.554621	0.038541	-0.336962	-0.018751	0.013983	-0.030477
229	1.195481	0.005000	3.060720	-8.821688	-1.708605	-0.555638	0.038428	-0.337089	-0.032092	0.002517	-0.022612
230	1.200481	0.005000	3.089581	-8.888240	-1.706560	-0.556655	0.038315	-0.337215	-0.041774	0.008555	-0.015298
231	1.205481	0.005000	3.178440	-8.807169	-1.709151	-0.557672	0.038202	-0.337341	-0.038693	0.010171	-0.023359
232	1.210481	0.005000	3.116071	-8.860184	-1.608840	-0.558689	0.038089	-0.337467	-0.035502	0.005752	-0.011555
233	1.215481	0.005000	3.185560	-8.900360	-1.587479	-0.559706	0.037976	-0.337593	-0.029543	0.019729	-0.026362
234	1.220481	0.005000	3.126218	-9.025200	-1.628313	-0.560723	0.037863	-0.337719	-0.027782	0.008613	-0.015479
235	1.225481	0.005000	3.105429	-9.025200	-1.771269	-0.561740	0.037750	-0.337845	-0.026427	0.014125	-0.021471
236	1.230481	0.005000	3.050898	-8.956542	-1.765800	-0.562757	0.037637	-0.337971	-0.049105	0.009531	-0.018464
237	1.235481	0.005000	2.974432	-8.978152	-1.765800	-0.563774	0.037524	-0.338098	-0.051313	0.014661	-0.029497
238	1.240481	0.005000	2.897928	-8.871156	-1.768716	-0.564791	0.037411	-0.338224	-0.057112	0.010740	-0.023213
239	1.245481	0.005000	2.822956	-8.907480	-1.839633	-0.565551	0.037343	-0.338434	-0.064493	0.011721	-0.014814
240	1.250481	0.005000	2.946904	-8.792363	-1.768403	-0.564648	0.037569	-0.339191	-0.079900	0.016649	-0.031876
241	1.255481	0.005000	2.981961	-9.024921	-1.882683	-0.563745	0.037795	-0.339947	-0.053520	0.006520	-0.016084
242	1.260481	0.005000	3.020947	-8.985960	-1.804773	-0.562841	0.038021	-0.340703	-0.067413	0.021940	-0.022928
243	1.265481	0.005000	2.906332	-8.984674	-1.845566	-0.561938	0.038247	-0.341460	-0.062482	0.014341	-0.027500
244	1.270481	0.005000	2.906068	-8.944412	-1.795807	-0.561035	0.038473	-0.342216	-0.055353	0.010568	-0.017234
245	1.275481	0.005000	2.786040	-8.940948	-1.847166	-0.560132	0.038698	-0.342973	-0.058402	0.020995	-0.035006
246	1.280481	0.005000	2.864520	-8.946720	-1.840407	-0.559228	0.038924	-0.343729	-0.050468	0.006073	-0.023914
247	1.285481	0.005000	2.790524	-8.907480	-1.839796	-0.558325	0.039150	-0.344486	-0.056997	0.012129	-0.029722
248	1.290481	0.005000	2.679226	-8.896574	-1.732013	-0.557422	0.039376	-0.345242	-0.057216	0.004342	-0.028710
249	1.295481	0.005000	2.746800	-9.123540	-1.772260	-0.556519	0.039602	-0.345998	-0.041060	0.004571	-0.022929
250	1.300481	0.005000	2.675802	-9.064440	-1.719078	-0.555616	0.039828	-0.346755	-0.054560	0.009144	-0.020368
251	1.305481	0.005000	2.652240	-8.994000	-1.765800	-0.554712	0.040054	-0.347511	-0.058521	0.006755	-0.011763
252	1.310481	0.005000	2.650195	-9.046315	-1.696383	-0.553809	0.040279	-0.348268	-0.041522	0.003981	-0.025056
253	1.315481	0.005000	2.687390	-9.025200	-1.716475	-0.552905	0.040918	-0.348794	-0.030474	-0.001665	-0.012604
254	1.320481	0.005000	2.725546	-9.014573	-1.687320	-0.552002	0.041596	-0.349298	-0.037067	0.010069	-0.030303
255	1.325481	0.005000	2.652379	-8.985960	-1.714910	-0.551098	0.042273	-0.349803	-0.025986	0.005153	-0.020462
256	1.330481	0.005000	2.575944	-8.959392	-1.779696	-0.550195	0.042951	-0.350308	-0.024341	0.000750	-0.013418
257	1.335481	0.005000	2.589840	-9.011986	-1.661294	-0.549291	0.043629	-0.350812	-0.012635	0.005441	-0.022014
258	1.340481	0.005000	2.539833	-9.064440	-1.673083	-0.548388	0.044307	-0.351317	-0.009864	0.000639	-0.013744
259	1.345481	0.005000	2.599137	-9.094383	-1.702292	-0.547484	0.044984	-0.351821	-0.018345	0.008726	-0.032659
260	1.350481	0.005000	2.613272	-9.041008	-1.726560	-0.546580	0.045662	-0.352326	-0.013363	-0.005428	-0.018878
261	1.355481	0.005000	2.690736	-9.058848	-1.748976	-0.545677	0.046340	-0.352830	-0.008235	0.004805	-0.004219
262	1.360481	0.005000	2.707560	-9.021140	-1.683260	-0.544773	0.047017	-0.353335	-0.009623	0.010343	-0.023988
263	1.365481	0.005000	2.691588	-8.886644	-1.708156	-0.543870	0.047695	-0.353839	-0.010465	0.007399	-0.004539
264	1.370481	0.005000	2.589840	-8.985573	-1.687707	-0.542966	0.048373	-0.354344	-0.012025	0.017920	-0.016244
265	1.375481	0.005000	2.686894	-8.947417	-1.766497	-0.542063	0.049050	-0.354848	-0.011710	0.004682	-0.017750
266	1.380481	0.005000	2.668320	-8.964969	-1.648080	-0.541791	0.049096	-0.354647	-0.005241	0.011992	-0.014456
267	1.385481	0.005000	2.697986	-8.946720	-1.704547	-0.541791	0.048870	-0.354143	-0.011079	-0.000668	-0.012310
268	1.390481	0.005000	2.819409	-9.041884	-1.698133	-0.541791	0.048645	-0.353639	-0.016280	0.004077	-0.010230
269	1.395481	0.005000	2.872436	-8.985960	-1.765800	-0.541791	0.048419	-0.353134	-0.011156	0.005304	-0.020145
270	1.400481	0.005000	2.761439	-8.932081	-1.736521	-0.541791	0.048193	-0.352630	-0.013789	0.004151	-0.012817
271	1.405481	0.005000	2.732713	-8.921567	-1.715495	-0.541791	0.047967	-0.352126	-0.021778	0.017065	-0.032550
272	1.410481	0.005000	2.825265	-8.907480	-1.805040	-0.541791	0.047741	-0.351621	-0.017919	0.005296	-0.009165
273	1.415481	0.005000	2.813083	-8.983311	-1.777997	-0.541791	0.047516	-0.351117	-0.014646	0.015313	-0.008096
274	1.420481	0.005000	2.903760	-9.041451	-1.703571	-0.541791	0.047290	-0.350613	-0.028411	0.013739	-0.021633
275	1.425481	0.005000	2.864520	-8.925775	-1.805040	-0.541791	0.047064	-0.350109	-0.011535	0.006569	-0.011296
276	1.430481	0.005000	2.864520	-8.957259	-1.825146	-0.541791	0.046838	-0.349604	-0.024531	0.012469	-0.014584
277	1.435481	0.005000	2.903760	-8.955628	-1.835372	-0.541791	0.046612	-0.349100	-0.031441	0.006776	-0.016113
278	1.440481	0.005000	2.872405	-9.017315	-1.836395	-0.541791	0.046387	-0.348596	-0.020274	0.010194	-0.011284
279	1.445481	0.005000	2.950343	-8.971274	-1.743771	-0.541737	0.046269	-0.348514	-0.032615	0.000339	0.000101
280	1.450481	0.005000	3.027801	-8.888518	-1.817681	-0.541624	0.046269	-0.348893	-0.028599	0.005386	-0.002972
281	1.455481	0.005000	2.982240	-8.805654	-1.771098	-0.541511	0.046269	-0.349271	-0.027589	0.004289	-0.010650
282	1.460481	0.005000	2.947327	-8.868240	-1.774454	-0.541398	0.046269	-0.349649	-0.039160	-0.005498	-0.016048
283	1.465481	0.005000	2.907493	-8.900013	-1.844280	-0.541285	0.046269	-0.350028	-0.036233	0.007691	-0.016552
284	1.470481	0.005000	2.945711	-8.820867	-1.805040	-0.541172	0.046269	-0.350406	-0.028359	-0.005433	-0.004406
285	1.475481	0.005000	2.899453	-8.872547	-1.770107	-0.541059	0.046269	-0.350785	-0.041227	-0.000458	-0.013441
286	1.480481	0.005000	2.826411	-8.984829	-1.843149	-0.540947	0.046269	-0.351163	-0.027905	0.005680	-0.020824
287	1.485481	0.005000	2.942783	-8.946612	-1.844172	-0.540834	0.046269	-0.351541	-0.018569	-0.003209	-0.005502
288	1.490481	0.005000	2.903321	-8.829878	-1.766239	-0.540721	0.046269	-0.351920	-0.023595	0.002299	-0.013706
289	1.495481	0.005000	2.863064	-8.866784	-1.842824	-0.540608	0.046269	-0.352298	-0.018021	0.000003	-0.021688
290	1.500481	0.005000	2.943000	-8.755477	-1.954564	-0.540495	0.046269	-0.352677	0.002480	0.001203	-0.025142
291	1.505481	0.005000	2.878524	-8.893476	-1.808541	-0.540382	0.046269	-0.353055	-0.002849	0.001540	-0.012622
292	1.510481	0.005000	2.860477	-8.845173	-1.867347	-0.540269	0.046239	-0.353233	0.011606	0.001950	-0.002561
293	1.515481	0.005000	2.903760	-8.907480	-1.888586	-0.540156	0.046126	-0.352854	0.011962	0.010958	-0.014246
294	1.520481	0.005000	2.837456	-8.946720	-1.922760	-0.540043	0.046013	-0.352476	0.018002	0.001814	-0.014484
295	1.525481	0.005000	2.812019	-8.979330	-1.883520	-0.539930	0.045900	-0.352098	0.023800	0.011598	-0.007771
296	1.530481	0.005000	2.888454	-9.025200	-1.844280	-0.539817	0.045787	-0.351719	0.025317	0.007641	-0.013506
297	1.535481	0.005000	2.794715	-8.955395	-1.752586	-0.539704	0.045674	-0.351341	0.030124	0.012784	-0.013177
298	1.540481	0.005000	2.846054	-8.838233	-1.765800	-0.539591	0.045561	-0.350962	0.027494	0.008206	-0.007981
299	1.545481	0.005000	2.786040	-8.886969	-1.716305	-0.539478	0.045448	-0.350584	0.036072	0.012841	-0.015319
300	1.550481	0.005000	2.903760	-9.041906	-1.687320	-0.539365	0.045335	-0.350206	0.025659	0.016460	-0.012187
301	1.555481	0.005000	2.852235	-9.010530	-1.660365	-0.539252	0.045222	-0.349827	0.035337	0.009086	-0.017805
302	1.560481	0.005000	2.825280	-8.985960	-1.674478	-0.539139	0.045109	-0.349449	0.025564	0.013453	-0.011443
303	1.565481	0.005000	2.811415	-9.011335	-1.698830	-0.539026	0.044996	-0.349070	0.039056	0.010263	-0.014261
304	1.570481	0.005000	2.795505	-9.015735	-1.741447	-0.538913	0.044883	-0.348692	0.034726	0.007188	-0.009636
305	1.575481	0.005000	2.755181	-8.962150	-1.615889	-0.538800	0.044788	-0.348352	0.025564	0.014346	-0.018072
306	1.580481	0.005000	2.887308	-8.992296	-1.615176	-0.538687	0.045013	-0.348731	0.038655	0.008793	-0.001382
307	1.585481	0.005000	2.842754	-9.046966	-1.726560	-0.538574	0.045239	-0.349109	0.030311	0.019270	-0.018191
308	1.590481	0.005000	2.750007	-9.103680	-1.705337	-0.538461	0.045465	-0.349487	0.035585	0.012076	-0.029232
309	1.595481	0.005000	2.885883	-9.142920	-1.667119	-0.538348	0.045691	-0.349866	0.031398	0.012877	-0.010755
310	1.600481	0.005000	2.805448	-9.104103	-1.589008	-0.538235	0.045917	-0.350244	0.013727	0.016493	-0.013596
311	1.605481	0.005000	2.885139	-9.027198	-1.668699	-0.538122	0.046143	-0.350623	0.012782	0.017687	-0.000311
312	1.610481	0.005000	2.842894	-8.968346	-1.630466	-0.538009	0.046369	-0.351001	0.012710	0.017943	-0.004752
313	1.615481	0.005000	2.842070	-9.025200	-1.586390	-0.537896	0.046595	-0.351379	0.014932	0.021755	-0.007128
314	1.620481	0.005000	2.896587	-9.009166	-1.585634	-0.537783	0.046821	-0.351758	-0.001391	0.022995	-0.008576
315	1.625481	0.005000	2.864520	-9.010189	-1.633069	-0.537670	0.047046	-0.352136	0.010573	0.018412	-0.001527
316	1.630481	0.005000	2.928838	-8.946720	-1.505282	-0.537557	0.047272	-0.352515	0.003139	0.015206	-0.009853
317	1.635481	0.005000	2.864520	-9.011753	-1.530360	-0.537444	0.047498	-0.352893	-0.002316	0.022564	-0.013363
318	1.640481	0.005000	2.930576	-8.973536	-1.491120	-0.537331	0.047724	-0.353271	-0.008497	0.016783	-0.004456
319	1.645481	0.005000	2.836682	-8.974558	-1.608840	-0.537313	0.047761	-0.353439	-0.023216	0.027502	-0.003342
320	1.650481	0.005000	2.814420	-9.057779	-1.704841	-0.537313	0.047761	-0.353565	-0.026594	0.014260	-0.004061
321	1.655481	0.005000	2.903760	-9.015471	-1.589274	-0.537313	0.047761	-0.353691	-0.025343	0.016614	-0.002033
322	1.660481	0.005000	2.924441	-9.036602	-1.618119	-0.537313	0.047761	-0.353817	-0.032245	0.025899	-0.013861
323	1.665481	0.005000	2.825280	-8.938460	-1.734820	-0.537313	0.047761	-0.353943	-0.031685	0.015807	-0.007006
324	1.670481	0.005000	2.810780	-8.914730	-1.733810	-0.537313	0.047761	-0.354069	-0.029300	0.029205	-0.017255
325	1.675481	0.005000	2.799425	-8.835692	-1.648080	-0.537313	0.047761	-0.354196	-0.020484	0.016975	-0.012871
326	1.680481	0.005000	2.853180	-8.913150	-1.675980	-0.537313	0.047761	-0.354322	-0.030407	0.014484	-0.002741
327	1.685481	0.005000	2.834575	-8.907480	-1.535007	-0.537313	0.047761	-0.354448	-0.022296	0.014053	-0.015879
328	1.690481	0.005000	2.974029	-8.990065	-1.617051	-0.537313	0.047761	-0.354574	-0.027207	0.018021	-0.011149
329	1.695481	0.005000	2.976074	-9.061357	-1.648080	-0.537313	0.047761	-0.354700	-0.031383	0.017094	-0.010079
330	1.700481	0.005000	2.899639	-8.944660	-1.726560	-0.537313	0.047761	-0.354826	-0.025825	0.015769	-0.003168
331	1.705481	0.005000	2.900724	-8.794315	-1.919724	-0.537313	0.047761	-0.354952	-0.023690	0.021986	-0.013010
332	1.710481	0.005000	2.787031	-8.908471	-1.765304	-0.537383	0.047550	-0.354529	-0.014543	0.017336	-0.020838
333	1.715481	0.005000	2.825807	-9.063387	-1.803987	-0.537496	0.047211	-0.353772	-0.018062	0.022827	-0.014946
334	1.720481	0.005000	2.787137	-8.987057	-1.840988	-0.537609	0.046873	-0.353016	-0.020785	0.025687	-0.022543
335	1.725481	0.005000	2.862429	-8.983869	-1.805040	-0.537722	0.046534	-0.352260	-0.016554	0.012409	-0.009385
336	1.730481	0.005000	2.858292	-8.949834	-1.726560	-0.537835	0.046195	-0.351503	-0.029362	0.016877	-0.016343
337	1.735481	0.005000	2.750936	-8.868240	-1.866975	-0.537948	0.045857	-0.350747	-0.020729	0.012935	-0.009978
338	1.740481	0.005000	2.786040	-9.020506	-1.770494	-0.538061	0.045518	-0.349990	-0.014998	0.009668	-0.003929
339	1.745481	0.005000	2.953658	-8.873956	-1.872087	-0.538174	0.045180	-0.349234	-0.025844	0.010680	-0.015311
340	1.750481	0.005000	2.871259	-8.835739	-1.772539	-0.538287	0.044841	-0.348478	-0.019527	0.013250	-0.006599
341	1.755481	0.005000	2.911041	-8.978679	-1.765800	-0.538400	0.044502	-0.347721	-0.014531	0.018901	-0.024329
342	1.760481	0.005000	2.825280	-8.985960	-1.687320	-0.538513	0.044164	-0.346965	-0.014649	0.015785	-0.009092
343	1.765481	0.005000	2.786040	-8.838326	-1.717234	-0.538626	0.043825	-0.346208	-0.008787	0.020472	-0.008977
344	1.770481	0.005000	2.776172	-8.917116	-1.726560	-0.538739	0.043486	-0.345452	-0.007250	0.014355	-0.016814
345	1.775481	0.005000	2.825280	-8.935829	-1.658971	-0.538715	0.043375	-0.345254	-0.001520	0.014745	-0.006720
346	1.780481	0.005000	2.774127	-8.985960	-1.793127	-0.538489	0.043601	-0.345884	-0.010260	0.015926	-0.011639
347	1.785481	0.005000	2.827154	-8.985960	-1.763926	-0.538263	0.043827	-0.346515	-0.016638	0.011285	-0.013054
348	1.790481	0.005000	2.825280	-9.050962	-1.725367	-0.538037	0.044053	-0.347146	-0.016565	0.018415	-0.022045
349	1.795481	0.005000	2.874760	-8.996200	-1.765800	-0.537811	0.044279	-0.347776	-0.010505	0.011421	-0.020176
350	1.800481	0.005000	2.776915	-8.961778	-1.820098	-0.537586	0.044504	-0.348407	-0.020278	0.022293	-0.016920
351	1.805481	0.005000	2.809200	-8.907480	-1.765800	-0.537360	0.044730	-0.349038	-0.018133	0.016866	-0.025490
352	1.810481	0.005000	2.768946	-8.968866	-1.648080	-0.537134	0.044956	-0.349668	-0.008710	0.012009	-0.008722
353	1.815481	0.005000	2.782090	-8.950670	-1.726560	-0.536908	0.045182	-0.350299	-0.016577	0.022002	-0.026773
354	1.820481	0.005000	2.786040	-8.987865	-1.786373	-0.536682	0.045408	-0.350929	-0.014977	0.015793	-0.022802
355	1.825481	0.005000	2.805487	-8.985960	-1.805040	-0.536456	0.045634	-0.351560	-0.006949	0.016714	-0.014228
356	1.830481	0.005000	2.765808	-8.985960	-1.764576	-0.536230	0.045860	-0.352191	-0.007398	0.018306	-0.015100
357	1.835481	0.005000	2.825280	-8.971243	-1.769069	-0.536004	0.046086	-0.352821	-0.003331	0.017961	-0.010455
358	1.840481	0.005000	2.790393	-8.911833	-1.787597	-0.535842	0.046312	-0.353381	-0.002878	0.015008	-0.012781
359	1.845481	0.005000	2.746800	-8.861842	-1.732958	-0.535955	0.046537	-0.353633	-0.007907	0.011377	0.003312
360	1.850481	0.005000	2.762199	-8.922879	-1.772756	-0.536068	0.046763	-0.353885	0.001118	0.017786	-0.010805
361	1.855481	0.005000	2.810732	-8.971412	-1.829732	-0.536181	0.046989	-0.354137	-0.000310	0.015563	-0.007583
362	1.860481	0.005000	2.813677	-8.999778	-1.855883	-0.536294	0.047215	-0.354390	0.002978	0.028404	-0.013286
363	1.865481	0.005000	2.864520	-8.933924	-1.753004	-0.536407	0.047441	-0.354642	-0.000054	0.021236	-0.010366
364	1.870481	0.005000	2.891506	-8.971228	-1.790308	-0.536520	0.047667	-0.354894	0.006248	0.024435	-0.012995
365	1.875481	0.005000	2.825280	-9.008423	-1.737791	-0.536633	0.047893	-0.355147	0.010933	0.027556	-0.015123
366	1.880481	0.005000	2.794653	-9.004782	-1.735173	-0.536746	0.048119	-0.355399	0.014948	0.010259	-0.000467
367	1.885481	0.005000	2.696221	-8.916780	-1.627441	-0.536858	0.048345	-0.355651	0.018921	0.017811	-0.006036
368	1.890481	0.005000	2.786040	-8.859596	-1.656724	-0.536971	0.048571	-0.355904	0.003216	0.019576	-0.010548
369	1.895481	0.005000	2.896138	-8.898727	-1.694942	-0.537084	0.048796	-0.356156	0.011391	0.020917	-0.005727
370	1.900481	0.005000	2.843281	-8.993040	-1.726560	-0.537197	0.049022	-0.356408	0.010049	0.019454	-0.023740
371	1.905481	0.005000	2.955114	-8.952777	-1.738674	-0.537310	0.049248	-0.356661	-0.000143	0.010935	-0.010528
372	1.910481	0.005000	2.961860	-8.985960	-1.799945	-0.537533	0.049144	-0.356667	0.010833	0.017185	-0.000409
373	1.915481	0.005000	2.786040	-9.029677	-1.756846	-0.537759	0.049031	-0.356667	0.009474	0.016466	-0.010294
374	1.920481	0.005000	2.900305	-9.132556	-1.690775	-0.537985	0.048918	-0.356667	-0.001088	0.024664	-0.009680
375	1.925481	0.005000	2.864520	-9.028112	-1.717823	-0.538211	0.048805	-0.356667	0.007872	0.024445	-0.007537
376	1.930481	0.005000	2.903760	-8.948610	-1.646190	-0.538437	0.048692	-0.356667	-0.001677	0.018612	-0.003158
377	1.935481	0.005000	2.865388	-8.908348	-1.572203	-0.538662	0.048579	-0.356667	0.004863	0.018941	-0.005216
378	1.940481	0.005000	2.864675	-8.985805	-1.648235	-0.538888	0.048466	-0.356667	0.014331	0.016780	-0.010951
379	1.945481	0.005000	2.670411	-9.063743	-1.840794	-0.539114	0.048353	-0.356667	0.006109	0.011679	-0.014173
380	1.950481	0.005000	2.859361	-8.950159	-1.726560	-0.539340	0.048240	-0.356667	0.009727	0.011498	-0.013618
381	1.955481	0.005000	2.820700	-9.055281	-1.650370	-0.539566	0.048128	-0.356667	0.008594	0.018992	0.001181
382	1.960481	0.005000	2.746800	-8.914048	-1.684036	-0.539792	0.048015	-0.356667	0.004611	0.030969	-0.017289
383	1.965481	0.005000	2.816667	-8.907480	-1.648080	-0.540018	0.047902	-0.356667	0.003365	0.013873	-0.013160
384	1.970481	0.005000	2.810512	-8.912403	-1.471571	-0.540243	0.047789	-0.356667	0.007462	0.020951	-0.014278
385	1.975481	0.005000	2.825280	-8.874127	-1.602953	-0.540214	0.047846	-0.356572	0.000186	0.027517	-0.015660
386	1.980481	0.005000	2.806768	-8.972142	-1.634262	-0.540101	0.047959	-0.356446	0.001222	0.020464	-0.007252
387	1.985481	0.005000	2.849617	-8.939269	-1.655531	-0.539988	0.048072	-0.356320	0.001051	0.019672	-0.014920
388	1.990481	0.005000	2.926052	-8.929772	-1.687320	-0.539875	0.048185	-0.356193	-0.011001	0.021505	-0.014786
389	1.995481	0.005000	2.834776	-9.015704	-1.657576	-0.539762	0.048298	-0.356067	-0.013491	0.019970	-0.025598
390	2.000481	0.005000	2.786040	-9.025200	-1.598802	-0.539649	0.048411	-0.355941	-0.007259	0.014262	-0.019830
391	2.005481	0.005000	2.881638	-8.985960	-1.648080	-0.539536	0.048524	-0.355815	-0.014545	0.021851	-0.014821
392	2.010481	0.005000	2.892152	-8.997568	-1.632055	-0.539423	0.048637	-0.355689	-0.018043	0.009174	-0.013332
393	2.015481	0.005000	2.877146	-8.985960	-1.555611	-0.539310	0.048750	-0.355563	-0.018687	0.009099	-0.003627
394	2.020481	0.005000	2.825280	-8.999608	-1.648080	-0.539197	0.048863	-0.355436	-0.012441	0.022314	-0.021837
395	2.025481	0.005000	2.825280	-8.971754	-1.751594	-0.539084	0.048976	-0.355310	-0.013305	0.011383	-0.004954
396	2.030481	0.005000	2.834064	-8.955504	-1.600056	-0.538971	0.049089	-0.355184	-0.014398	0.011301	-0.013476
397	2.035481	0.005000	2.848554	-8.860932	-1.671354	-0.538858	0.049202	-0.355058	-0.007469	0.017109	-0.019843
398	2.040481	0.005000	2.853211	-8.907480	-1.681666	-0.538684	0.049193	-0.355068	-0.002888	0.015114	-0.001388
399	2.045481	0.005000	2.782430	-8.968145	-1.669505	-0.538458	0.049080	-0.355194	-0.015026	0.016791	-0.011468
400	2.050481	0.005000	2.827350	-8.965305	-1.705905	-0.538232	0.048967	-0.355320	-0.008683	0.018034	-0.011110
401	2.055481	0.005000	2.825280	-9.045060	-1.706700	-0.538007	0.048854	-0.355446	-0.013643	0.018764	-0.013995
402	2.060481	0.005000	2.803313	-9.025200	-1.687320	-0.537781	0.048741	-0.355572	-0.015957	0.013091	-0.007382
403	2.065481	0.005000	2.767753	-9.046153	-1.684654	-0.537555	0.048628	-0.355699	-0.014823	0.021883	-0.022116
404	2.070481	0.005000	2.798619	-9.047167	-1.748527	-0.537329	0.048515	-0.355825	-0.013291	0.015088	-0.011894
405	2.075481	0.005000	2.779691	-8.897384	-1.680971	-0.537104	0.048402	-0.355951	-0.025045	0.019582	-0.006934
406	2.080481	0.005000	2.840973	-8.907480	-1.750107	-0.536878	0.048290	-0.356077	-0.021081	0.019974	-0.022630
407	2.085481	0.005000	2.849850	-8.922150	-1.775699	-0.536652	0.048177	-0.356203	-0.014698	0.012243	-0.010143
408	2.090481	0.005000	2.825280	-8.907480	-1.791223	-0.536426	0.048064	-0.356329	-0.025304	0.017469	-0.011366
409	2.095481	0.005000	2.786040	-8.920586	-1.713454	-0.536200	0.047951	-0.356455	-0.020933	0.010345	-0.010282
410	2.100481	0.005000	2.825280	-9.025200	-1.711487	-0.535975	0.047838	-0.356581	-0.014387	0.015975	-0.004851
411	2.105481	0.005000	2.813739	-9.052899	-1.765800	-0.536182	0.047364	-0.356143	-0.030973	0.021992	-0.025901
412	2.110481	0.005000	2.825280	-9.006997	-1.658599	-0.537312	0.046121	-0.354503	-0.020648	0.008868	-0.008845
413	2.115481	0.005000	2.795536	-9.103680	-1.648080	-0.538441	0.044879	-0.352863	-0.009941	0.021166	-0.007059
414	2.120481	0.005000	2.816341	-9.025200	-1.635656	-0.539571	0.043636	-0.351224	-0.029029	0.011545	-0.015434
415	2.125481	0.005000	2.801485	-8.970097	-1.765800	-0.540700	0.042394	-0.349584	-0.017850	0.015593	-0.023343
416	2.130481	0.005000	2.786040	-8.946720	-1.687320	-0.541830	0.041151	-0.347944	-0.015269	0.014684	-0.025936
417	2.135481	0.005000	2.809869	-9.019243	-1.732517	-0.542959	0.039909	-0.346304	-0.011606	0.017360	-0.016288
418	2.140481	0.005000	2.932342	-9.009213	-1.697978	-0.544089	0.038666	-0.344665	-0.019819	0.012754	-0.018421
419	2.145481	0.005000	2.825280	-8.981653	-1.879213	-0.545218	0.037424	-0.343025	-0.004761	0.015227	-0.016003
420	2.150481	0.005000	2.704235	-9.018550	-1.805040	-0.546348	0.036181	-0.341385	-0.013006	0.019742	-0.021141
421	2.155481	0.005000	2.788782	-8.952204	-1.723818	-0.547477	0.034939	-0.339746	-0.011524	0.010944	-0.013630
422	2.160481	0.005000	2.748520	-8.984240	-1.690759	-0.548607	0.033696	-0.338106	-0.011588	0.017442	-0.002435
423	2.165481	0.005000	2.709915	-8.907480	-1.763445	-0.549736	0.032454	-0.336466	-0.019257	0.017348	-0.026021
424	2.170481	0.005000	2.825125	-8.868860	-1.687630	-0.550818	0.031343	-0.335000	-0.010879	0.015538	-0.006492
425	2.175481	0.005000	2.824412	-8.948455	-1.765800	-0.551495	0.031343	-0.335000	-0.009314	0.025289	-0.004409
426	2.180481	0.005000	2.899484	-9.025200	-1.727985	-0.552173	0.031343	-0.335000	-0.010807	0.017484	-0.017378
427	2.185481	0.005000	2.862088	-8.983528	-1.724128	-0.552851	0.031343	-0.335000	-0.002092	0.024228	-0.017367
428	2.190481	0.005000	2.936949	-8.985960	-1.765800	-0.553528	0.031343	-0.335000	-0.001716	0.018987	-0.010096
429	2.195481	0.005000	2.758837	-8.950732	-1.761788	-0.554206	0.031343	-0.335000	-0.002402	0.020194	-0.005890
430	2.200481	0.005000	2.849416	-9.025200	-1.765800	-0.554884	0.031343	-0.335000	0.001532	0.021673	-0.016084
431	2.205481	0.005000	2.830926	-8.985960	-1.720914	-0.555561	0.031343	-0.335000	-0.004667	0.016252	-0.013964
432	2.210481	0.005000	2.923202	-8.907480	-1.687320	-0.556239	0.031343	-0.335000	-0.009673	0.022975	-0.017778
433	2.215481	0.005000	2.832902	-8.899858	-1.789796	-0.556917	0.031343	-0.335000	0.005396	0.011816	-0.007748
434	2.220481	0.005000	2.856356	-8.938556	-1.656244	-0.557594	0.031343	-0.335000	-0.003225	0.013012	-0.010590
435	2.225481	0.005000	2.825280	-8.946720	-1.735746	-0.558272	0.031343	-0.335000	0.000284	0.023875	-0.020878
436	2.230481	0.005000	2.805762	-8.956581	-1.755939	-0.558950	0.031343	-0.335000	0.001604	0.016676	-0.010546
437	2.235481	0.005000	2.825280	-8.879007	-1.608840	-0.559628	0.031343	-0.335000	-0.010864	0.026111	-0.026911
438	2.240481	0.005000	2.801733	-9.001653	-1.687320	-0.558895	0.032048	-0.335675	-0.005157	0.017187	-0.020715
439	2.245481	0.005000	2.798519	-9.039482	-1.596361	-0.557992	0.032839	-0.336431	-0.002138	0.019327	-0.011970
440	2.250481	0.005000	2.811926	-8.920834	-1.647259	-0.557088	0.033629	-0.337188	-0.002583	0.024701	-0.019671
441	2.255481	0.005000	2.800416	-8.878728	-1.708296	-0.556185	0.034420	-0.337945	-0.007782	0.018806	-0.005676
442	2.260481	0.005000	2.746800	-8.819597	-1.662998	-0.555281	0.035211	-0.338702	0.009149	0.015352	-0.016719
443	2.265481	0.005000	2.770099	-8.914838	-1.703261	-0.554378	0.036001	-0.339459	0.002568	0.020805	-0.011534
444	2.270481	0.005000	2.926313	-9.064440	-1.743247	-0.553474	0.036792	-0.340215	-0.002861	0.018395	-0.012666
445	2.275481	0.005000	2.864520	-9.046935	-1.691549	-0.552570	0.037583	-0.340972	0.010130	0.021108	-0.007414
446	2.280481	0.005000	2.885232	-8.983776	-1.726560	-0.551667	0.038373	-0.341729	-0.008900	0.020583	-0.014303
447	2.285481	0.005000	2.806194	-8.984891	-1.765800	-0.550763	0.039164	-0.342486	-0.007389	0.025095	-0.025083
448	2.290481	0.005000	2.806148	-8.907480	-1.825148	-0.549860	0.039955	-0.343242	-0.001592	0.016398	-0.016402
449	2.295481	0.005000	2.843397	-8.967843	-1.765800	-0.548956	0.040745	-0.343999	0.000668	0.018698	-0.017735
450	2.300481	0.005000	2.825280	-8.964287	-1.752338	-0.548052	0.041536	-0.344756	0.006275	0.015522	-0.007175
451	2.305481	0.005000	2.802585	-8.985960	-1.749255	-0.547532	0.041868	-0.345598	0.006322	0.026068	-0.001395
452	2.310481	0.005000	2.880042	-8.883762	-1.663602	-0.547193	0.041980	-0.346480	-0.003258	0.021889	-0.021176
453	2.315481	0.005000	2.879500	-8.922460	-1.711580	-0.546854	0.042093	-0.347363	0.005498	0.017687	-0.000305
454	2.320481	0.005000	2.878478	-8.958044	-1.740518	-0.546516	0.042206	-0.348245	0.008207	0.028014	-0.021509
455	2.325481	0.005000	2.825280	-8.881336	-1.674271	-0.546177	0.042319	-0.349128	-0.004118	0.017291	-0.009296
456	2.330481	0.005000	2.850066	-8.921934	-1.712106	-0.545838	0.042432	-0.350010	0.013482	0.022162	-0.008639
457	2.335481	0.005000	2.841778	-8.890982	-1.675949	-0.545500	0.042545	-0.350893	-0.001684	0.029173	-0.009652
458	2.340481	0.005000	2.796512	-8.985960	-1.747505	-0.545161	0.042658	-0.351775	-0.006351	0.026630	-0.018241
459	2.345481	0.005000	2.844939	-8.966301	-1.736351	-0.544822	0.042771	-0.352658	-0.006490	0.020340	-0.027940
460	2.350481	0.005000	2.873288	-9.025200	-1.748264	-0.544484	0.042884	-0.353540	-0.005616	0.019886	-0.008734
461	2.355481	0.005000	2.864520	-9.017346	-1.703029	-0.544145	0.042997	-0.354423	0.002199	0.026445	-0.020711
462	2.360481	0.005000	2.896556	-8.907480	-1.712153	-0.543806	0.043110	-0.355305	0.010107	0.021078	-0.012820
463	2.365481	0.005000	2.903760	-8.992141	-1.674958	-0.543468	0.043223	-0.356188	-0.003362	0.015975	-0.012228
464	2.370481	0.005000	2.780401	-8.974682	-1.597562	-0.543129	0.043232	-0.356609	-0.006271	0.025402	-0.025123
465	2.375481	0.005000	2.760649	-8.946720	-1.588066	-0.542790	0.043119	-0.356483	0.004309	0.013563	-0.009570
466	2.380481	0.005000	2.892844	-8.871879	-1.648080	-0.542451	0.043006	-0.356357	-0.009544	0.022284	-0.011752
467	2.385481	0.005000	2.900708	-8.979856	-1.648080	-0.542112	0.042893	-0.356231	0.004834	0.022881	-0.006699
468	2.390481	0.005000	2.825280	-8.950779	-1.726560	-0.541774	0.042780	-0.356105	0.004995	0.014383	-0.012362
469	2.395481	0.005000	2.824261	-9.062402	-1.689358	-0.541435	0.042667	-0.355979	-0.005392	0.015019	-0.012121
470	2.400481	0.005000	2.824381	-8.868689	-1.726560	-0.541096	0.042554	-0.355852	-0.011648	0.011326	-0.007825
471	2.405481	0.005000	2.785467	-8.984814	-1.765227	-0.540757	0.042441	-0.355726	-0.009281	0.007985	-0.024827
472	2.410481	0.005000	2.823699	-9.023619	-1.607259	-0.540418	0.042328	-0.355600	-0.013992	0.012951	-0.015272
473	2.415481	0.005000	2.751076	-9.064440	-1.724422	-0.540079	0.042215	-0.355474	-0.015248	0.021373	-0.017370
474	2.420481	0.005000	2.786040	-8.946720	-1.615161	-0.539740	0.042102	-0.355348	-0.014698	0.004416	-0.020284
475	2.425481	0.005000	2.851972	-9.029383	-1.600475	-0.539401	0.041989	-0.355222	-0.016280	0.009517	-0.011156
476	2.430481	0.005000	2.795490	-8.995410	-1.682595	-0.539062	0.041877	-0.355095	-0.020499	0.005434	-0.019837
477	2.435481	0.005000	2.746800	-9.007958	-1.586842	-0.538833	0.041599	-0.354877	-0.015133	-0.000195	-0.004860
478	2.440481	0.005000	2.825280	-9.018833	-1.674585	-0.538946	0.040808	-0.354373	-0.021708	0.013075	-0.020833
479	2.445481	0.005000	2.832592	-8.985960	-1.640768	-0.539059	0.040017	-0.353868	-0.020307	0.000762	-0.017520
480	2.450481	0.005000	2.903760	-8.994294	-1.648080	-0.539172	0.039227	-0.353364	-0.022210	0.014278	-0.012049
481	2.455481	0.005000	2.855521	-8.976961	-1.666077	-0.539285	0.038436	-0.352859	-0.024354	0.015654	-0.017919
482	2.460481	0.005000	2.795955	-8.976464	-1.755467	-0.539398	0.037645	-0.352355	-0.012653	0.011781	-0.011097
483	2.465481	0.005000	2.853583	-8.975023	-1.591474	-0.539511	0.036855	-0.351850	-0.018365	0.011770	-0.019303
484	2.470481	0.005000	2.892143	-8.946720	-1.624846	-0.539624	0.036064	-0.351346	-0.020030	0.011805	-0.008402
485	2.475481	0.005000	2.864520	-8.985960	-1.660582	-0.539737	0.035273	-0.350841	-0.011744	0.018590	-0.013309
486	2.480481	0.005000	2.915952	-8.972436	-1.687320	-0.539850	0.034483	-0.350337	-0.018184	0.016762	-0.012526
487	2.485481	0.005000	2.878586	-9.078506	-1.634014	-0.539963	0.033692	-0.349832	-0.028905	0.011570	-0.007614
488	2.490481	0.005000	2.801129	-8.946720	-1.789951	-0.540076	0.032901	-0.349327	-0.016896	0.001735	-0.018209
489	2.495481	0.005000	2.809169	-8.962831	-1.719542	-0.540189	0.032111	-0.348823	-0.023860	0.011725	-0.013423
490	2.500481	0.005000	2.920413	-8.930067	-1.608840	-0.540299	0.031369	-0.348344	-0.026954	0.020099	-0.023608
491	2.505481	0.005000	2.882196	-9.064440	-1.734337	-0.540299	0.032272	-0.348722	-0.022621	0.001843	-0.016893
492	2.510481	0.005000	2.905603	-8.928022	-1.823738	-0.540299	0.033176	-0.349100	-0.024936	0.020747	-0.022694
493	2.515481	0.005000	2.923744	-8.985232	-1.745088	-0.540299	0.034079	-0.349479	-0.028143	0.012955	-0.022193
494	2.520481	0.005000	2.865837	-8.946720	-1.708915	-0.540299	0.034982	-0.349857	-0.028715	-0.004295	-0.014704
495	2.525481	0.005000	2.864520	-8.985960	-1.669374	-0.540299	0.035885	-0.350235	-0.032200	0.005301	-0.017781
496	2.530481	0.005000	2.803437	-8.985960	-1.722114	-0.540299	0.036789	-0.350613	-0.033198	-0.001222	-0.014620
497	2.535481	0.005000	2.864520	-8.963095	-1.795156	-0.540299	0.037692	-0.350991	-0.031537	0.009582	-0.013401
498	2.540481	0.005000	2.833816	-8.852888	-1.750448	-0.540299	0.038595	-0.351370	-0.028286	0.008663	-0.018955
499	2.545481	0.005000	2.850013	-8.882747	-1.794814	-0.540299	0.039498	-0.351748	-0.025149	0.007588	-0.006240
500	2.550481	0.005000	2.852855	-8.999747	-1.871855	-0.540299	0.040402	-0.352126	-0.024800	0.008187	-0.017306
501	2.555481	0.005000	2.825280	-9.064440	-1.844280	-0.540299	0.041305	-0.352504	-0.031591	0.010528	-0.010598
502	2.560481	0.005000	2.801504	-9.028776	-1.730136	-0.540299	0.042208	-0.352882	-0.017107	0.012464	-0.017188
503	2.565481	0.005000	2.729961	-8.963559	-1.586439	-0.540299	0.043111	-0.353261	-0.025707	0.005629	-0.007213
504	2.570481	0.005000	2.796218	-8.926364	-1.687320	-0.539934	0.043558	-0.353639	-0.023790	0.011029	-0.010234
505	2.575481	0.005000	2.843810	-9.004490	-1.735825	-0.539482	0.043897	-0.354017	-0.018308	0.004927	-0.013688
506	2.580481	0.005000	2.873121	-9.038636	-1.774401	-0.539030	0.044235	-0.354395	-0.020673	0.019872	-0.007000
507	2.585481	0.005000	2.903760	-8.844182	-1.868338	-0.538579	0.044574	-0.354774	-0.016446	0.019899	-0.015483
508	2.590481	0.005000	2.812143	-8.946720	-1.844280	-0.538127	0.044912	-0.355152	0.000456	0.013134	-0.011774
509	2.595481	0.005000	2.746800	-8.919501	-1.793019	-0.537675	0.045251	-0.355530	-0.008591	0.018729	-0.013827
510	2.600481	0.005000	2.781052	-9.025200	-1.800052	-0.537224	0.045590	-0.355908	-0.005882	0.012639	-0.022714
511	2.605481	0.005000	2.754732	-8.981994	-1.769766	-0.536772	0.045928	-0.356286	-0.003553	0.014593	-0.014434
512	2.610481	0.005000	2.861096	-8.975689	-1.805040	-0.536320	0.046267	-0.356665	-0.013970	0.020225	-0.026209
513	2.615481	0.005000	2.741998	-8.941918	-1.763399	-0.535869	0.046606	-0.357043	-0.001463	0.016769	-0.008600
514	2.620481	0.005000	2.746800	-8.983203	-1.765800	-0.535417	0.046944	-0.357421	-0.011645	0.023478	-0.020013
515	2.625481	0.005000	2.825280	-8.907480	-1.765439	-0.534965	0.047283	-0.357799	-0.002199	0.019242	-0.015044
516	2.630481	0.005000	2.786226	-8.829372	-1.726560	-0.534514	0.047622	-0.358177	0.016277	0.011727	-0.008955
517	2.635481	0.005000	2.902552	-8.945512	-1.763383	-0.534594	0.047894	-0.358259	-0.004417	0.024118	-0.002402
518	2.640481	0.005000	2.827511	-9.022969	-1.770262	-0.535046	0.048120	-0.358133	0.003612	0.021309	-0.020242
519	2.645481	0.005000	2.710367	-9.028007	-1.687320	-0.535498	0.048346	-0.358007	0.003071	0.018896	-0.019768
520	2.650481	0.005000	2.746800	-9.060645	-1.580986	-0.535950	0.048572	-0.357881	0.003198	0.016009	-0.010311
521	2.655481	0.005000	2.850066	-8.956356	-1.756164	-0.536401	0.048798	-0.357754	0.010562	0.022361	-0.014257
522	2.660481	0.005000	2.898384	-9.092929	-1.805040	-0.536853	0.049023	-0.357628	0.005306	0.016074	-0.008552
523	2.665481	0.005000	2.825280	-9.064440	-1.654478	-0.537305	0.049249	-0.357502	0.009928	0.016213	-0.003308
524	2.670481	0.005000	2.818254	-8.875266	-1.687320	-0.537757	0.049475	-0.357376	0.003643	0.010704	-0.013142
525	2.675481	0.005000	2.895797	-8.907480	-1.820392	-0.538209	0.049701	-0.357250	0.007374	0.011520	-0.004669
526	2.680481	0.005000	2.812995	-9.046470	-1.783770	-0.538661	0.049927	-0.357124	-0.001233	0.024893	-0.022132
527	2.685481	0.005000	2.796344	-8.975656	-1.677675	-0.539113	0.050153	-0.356998	0.008339	0.008400	-0.013876
528	2.690481	0.005000	2.786040	-8.939129	-1.744701	-0.539565	0.050379	-0.356872	0.015224	0.005981	-0.017152
529	2.695481	0.005000	2.836852	-8.946720	-1.636508	-0.540016	0.050605	-0.356746	0.008497	0.005149	-0.022766
530	2.700481	0.005000	2.891165	-8.973365	-1.713965	-0.540214	0.050704	-0.356620	0.009589	0.009191	-0.011670
531	2.705481	0.005000	2.864520	-8.959857	-1.778766	-0.539989	0.050591	-0.356494	0.005765	0.021890	-0.007402
532	2.710481	0.005000	2.878679	-8.943482	-1.712401	-0.539763	0.050478	-0.356368	0.008960	0.009924	-0.013662
533	2.715481	0.005000	2.825280	-8.985960	-1.662973	-0.539537	0.050365	-0.356241	0.007027	0.015400	-0.017843
534	2.720481	0.005000	2.841019	-8.977982	-1.648080	-0.539311	0.050252	-0.356115	0.010606	0.012732	-0.017971
535	2.725481	0.005000	2.842033	-9.047687	-1.693054	-0.539085	0.050139	-0.355989	0.017546	0.021055	-0.021686
536	2.730481	0.005000	2.838574	-8.942503	-1.669809	-0.538859	0.050027	-0.355863	0.010399	0.016301	-0.015385
537	2.735481	0.005000	2.885434	-8.928394	-1.645493	-0.538633	0.049914	-0.355737	0.002227	0.015591	0.000451
538	2.740481	0.005000	2.785498	-9.005309	-1.667971	-0.538407	0.049801	-0.355611	0.002496	0.019113	-0.009808
539	2.745481	0.005000	2.882587	-9.102645	-1.667182	-0.538182	0.049688	-0.355485	0.010439	0.010865	-0.008847
540	2.750481	0.005000	2.924674	-9.027787	-1.708234	-0.537956	0.049575	-0.355359	0.008900	0.017327	-0.013644
541	2.755481	0.005000	2.869152	-9.037872	-1.726560	-0.537730	0.049462	-0.355233	0.003919	0.015779	-0.020781
542	2.760481	0.005000	2.848037	-9.047957	-1.648080	-0.537504	0.049349	-0.355107	0.012189	0.011278	-0.004759
543	2.765481	0.005000	2.746800	-8.938742	-1.616601	-0.537313	0.049184	-0.354903	-0.002029	0.020417	-0.008241
544	2.770481	0.005000	2.810563	-8.951631	-1.613751	-0.537313	0.048732	-0.354272	0.007470	0.008743	-0.012037
545	2.775481	0.005000	2.774517	-8.999819	-1.659603	-0.537313	0.048281	-0.353641	0.002786	0.010300	-0.016863
546	2.780481	0.005000	2.760107	-9.025200	-1.608840	-0.537313	0.047829	-0.353011	-0.012019	0.017699	-0.017663
547	2.785481	0.005000	2.813150	-8.961700	-1.660210	-0.537313	0.047377	-0.352380	-0.014050	0.008432	-0.023121
548	2.790481	0.005000	2.869044	-8.946720	-1.631984	-0.537313	0.046925	-0.351750	-0.016799	0.012479	-0.016262
549	2.795481	0.005000	2.796590	-9.053890	-1.666221	-0.537313	0.046474	-0.351119	-0.014819	0.012902	-0.008429
550	2.800481	0.005000	2.805989	-9.064440	-1.598536	-0.537313	0.046022	-0.350488	-0.009520	0.014243	-0.020100
551	2.805481	0.005000	2.716545	-9.055455	-1.717575	-0.537313	0.045570	-0.349858	-0.010961	0.007636	-0.013733
552	2.810481	0.005000	2.833243	-8.985960	-1.600877	-0.537313	0.045118	-0.349227	-0.025122	0.018198	-0.023018
553	2.815481	0.005000	2.903760	-8.985960	-1.616260	-0.537313	0.044666	-0.348597	-0.011703	0.010317	-0.014519
554	2.820481	0.005000	2.963046	-8.959516	-1.608840	-0.537313	0.044215	-0.347966	-0.019084	0.009449	-0.014513
555	2.825481	0.005000	2.825280	-9.035951	-1.580351	-0.537313	0.043763	-0.347335	-0.014633	0.022379	-0.024376
556	2.830481	0.005000	2.795676	-8.951538	-1.579236	-0.537313	0.043311	-0.346705	-0.018049	0.007899	-0.003698
557	2.835481	0.005000	2.789835	-8.946720	-1.793654	-0.537419	0.043390	-0.347497	-0.019977	0.009168	-0.008867
558	2.840481	0.005000	2.595455	-8.991575	-1.723753	-0.537532	0.043503	-0.348380	-0.025911	0.012792	-0.019608
559	2.845481	0.005000	2.792732	-8.948951	-1.689551	-0.537645	0.043616	-0.349263	-0.016950	0.013897	-0.005573
560	2.850481	0.005000	2.826488	-8.985960	-1.688528	-0.537758	0.043729	-0.350146	-0.013861	0.013268	-0.014553
561	2.855481	0.005000	2.824904	-8.790136	-1.687320	-0.537871	0.043842	-0.351028	-0.022226	0.009148	-0.006422
562	2.860481	0.005000	2.863451	-8.946007	-1.687320	-0.537984	0.043955	-0.351911	-0.022859	0.013449	-0.013490
563	2.865481	0.005000	2.787419	-8.946720	-1.646701	-0.538097	0.044068	-0.352794	-0.016959	0.007052	-0.015100
564	2.870481	0.005000	2.897926	-8.948665	-1.726560	-0.538210	0.044181	-0.353677	-0.026166	0.013949	-0.014111
565	2.875481	0.005000	2.755630	-8.985960	-1.717730	-0.538323	0.044293	-0.354560	-0.019165	0.013602	-0.013460
566	2.880481	0.005000	2.821314	-9.052543	-1.542257	-0.538436	0.044406	-0.355443	-0.025473	0.009036	-0.009826
567	2.885481	0.005000	2.746800	-8.922270	-1.598980	-0.538549	0.044519	-0.356325	-0.034292	0.017484	-0.014902
568	2.890481	0.005000	2.780494	-8.946720	-1.754708	-0.538662	0.044632	-0.357208	-0.020092	0.005221	-0.010032
569	2.895481	0.005000	2.759937	-8.933583	-1.556634	-0.538775	0.044745	-0.358091	-0.022626	0.018913	-0.010726
570	2.900481	0.005000	2.746800	-8.939609	-1.665988	-0.538724	0.045022	-0.357692	-0.023575	0.016123	-0.016389
571	2.905481	0.005000	2.746800	-8.923746	-1.656213	-0.538611	0.045361	-0.356810	-0.011680	0.005578	-0.012758
572	2.910481	0.005000	2.777257	-8.985960	-1.796257	-0.538498	0.045699	-0.355927	-0.024351	0.018406	-0.018082
573	2.915481	0.005000	2.864520	-9.015502	-1.844280	-0.538385	0.046038	-0.355045	-0.028750	0.006122	-0.010941
574	2.920481	0.005000	2.825280	-8.978880	-1.719480	-0.538272	0.046377	-0.354163	-0.024715	0.014779	-0.008019
575	2.925481	0.005000	2.814013	-8.918747	-1.726560	-0.538159	0.046716	-0.353280	-0.032604	0.011394	-0.014050
576	2.930481	0.005000	2.812995	-8.892810	-1.711890	-0.538046	0.047054	-0.352398	-0.020680	0.013841	-0.017386
577	2.935481	0.005000	2.681567	-8.959716	-1.779047	-0.537933	0.047393	-0.351515	-0.022090	-0.000545	-0.002323
578	2.940481	0.005000	2.811415	-8.909835	-1.768155	-0.537821	0.047732	-0.350633	-0.018414	0.002278	-0.006074
579	2.945481	0.005000	2.888873	-9.019778	-1.633193	-0.537708	0.048070	-0.349750	-0.025087	0.014039	-0.022694
580	2.950481	0.005000	2.817281	-9.009579	-1.710939	-0.537595	0.048409	-0.348868	-0.023055	0.006600	-0.015556
581	2.955481	0.005000	2.880972	-9.025200	-1.726560	-0.537482	0.048748	-0.347986	-0.018063	0.021122	-0.020276
582	2.960481	0.005000	2.951582	-8.942429	-1.665554	-0.537369	0.049087	-0.347103	-0.013738	0.001664	-0.018241
583	2.965481	0.005000	2.918570	-8.907480	-1.612047	-0.537313	0.049083	-0.346667	-0.023634	0.012375	-0.006129
584	2.970481	0.005000	2.864520	-9.006161	-1.686158	-0.537313	0.048744	-0.346667	-0.023976	0.013788	-0.019919
585	2.975481	0.005000	2.884352	-9.025200	-1.785208	-0.537313	0.048405	-0.346667	-0.023808	0.007111	-0.018969
586	2.980481	0.005000	2.823282	-9.008578	-1.827658	-0.537313	0.048066	-0.346667	-0.014994	0.019753	-0.018703
587	2.985481	0.005000	2.964626	-8.968346	-1.730572	-0.537313	0.047727	-0.346667	-0.020090	0.019666	-0.020849
588	2.990481	0.005000	2.931869	-9.002750	-1.681661	-0.537313	0.047388	-0.346667	-0.012008	0.017898	-0.007171
589	2.995481	0.005000	2.839625	-8.891446	-1.726560	-0.537313	0.047049	-0.346667	-0.016498	0.014050	-0.013789
590	3.000481	0.005000	2.795257	-8.829000	-1.765800	-0.537313	0.046710	-0.346667	-0.015719	0.013155	-0.008788
591	3.005481	0.005000	2.878682	-8.832246	-1.805040	-0.537313	0.046372	-0.346667	-0.015272	0.018155	-0.013703
592	3.010481	0.005000	2.917207	-9.012853	-1.805040	-0.537313	0.046033	-0.346667	-0.010841	0.011883	-0.006162
593	3.015481	0.005000	2.864520	-9.012776	-1.728527	-0.537313	0.045694	-0.346667	-0.011306	0.017848	-0.011991
594	3.020481	0.005000	2.852638	-9.025200	-1.648080	-0.537313	0.045355	-0.346667	-0.011292	0.011283	-0.007025
595	3.025481	0.005000	2.840338	-9.014340	-1.648080	-0.537313	0.045016	-0.346667	-0.008039	0.010623	0.002275
596	3.030481	0.005000	2.883850	-8.946720	-1.628750	-0.537346	0.044842	-0.346667	-0.017608	0.018161	-0.021348
597	3.035481	0.005000	2.845961	-8.955999	-1.578879	-0.537459	0.045068	-0.346667	-0.007035	0.013346	-0.009338
598	3.040481	0.005000	2.825280	-8.969440	-1.695580	-0.537572	0.045293	-0.346667	0.005370	0.014070	-0.010061
599	3.045481	0.005000	2.864520	-8.900230	-1.758550	-0.537685	0.045519	-0.346667	-0.002743	0.012597	-0.014403
600	3.050481	0.005000	2.883683	-8.829000	-1.726560	-0.537798	0.045745	-0.346667	0.001441	0.008773	-0.005936
601	3.055481	0.005000	2.791710	-8.958060	-1.771470	-0.537911	0.045971	-0.346667	-0.000143	0.018187	-0.018570
602	3.060481	0.005000	2.835535	-8.951848	-1.810168	-0.538024	0.046197	-0.346667	-0.000526	0.015624	-0.023344
603	3.065481	0.005000	2.798356	-8.946720	-1.769905	-0.538136	0.046422	-0.346667	0.000042	0.015360	-0.023821
604	3.070481	0.005000	2.786040	-8.982839	-1.726560	-0.538249	0.046648	-0.346667	-0.013489	0.015691	-0.018711
605	3.075481	0.005000	2.903760	-9.064440	-1.765800	-0.538362	0.046874	-0.346667	-0.002591	0.020581	-0.014232
606	3.080481	0.005000	2.939964	-9.026718	-1.803522	-0.538475	0.047100	-0.346667	0.012969	0.006508	-0.016872
607	3.085481	0.005000	2.902800	-9.025200	-1.685399	-0.538588	0.047326	-0.346667	0.002184	0.011364	-0.015656
608	3.090481	0.005000	2.825342	-9.025200	-1.648018	-0.538701	0.047551	-0.346667	-0.010069	0.017727	-0.023584
609	3.095481	0.005000	2.825280	-9.021947	-1.725476	-0.538814	0.047753	-0.346586	0.002500	-0.004309	-0.012301
610	3.100481	0.005000	2.711743	-8.988051	-1.724469	-0.538927	0.047640	-0.345451	-0.000887	0.013263	-0.014936
611	3.105481	0.005000	2.825280	-8.985960	-1.726560	-0.539040	0.047527	-0.344317	-0.005131	0.010543	-0.011757
612	3.110481	0.005000	2.857177	-9.021529	-1.690991	-0.539153	0.047414	-0.343182	0.002108	0.008693	-0.007986
613	3.115481	0.005000	2.868734	-8.946720	-1.648080	-0.539266	0.047301	-0.342047	-0.001407	0.020023	-0.023077
614	3.120481	0.005000	2.864520	-8.946720	-1.546068	-0.539379	0.047189	-0.340913	-0.005057	0.016316	-0.011237
615	3.125481	0.005000	2.836980	-8.952570	-1.597140	-0.539492	0.047076	-0.339778	0.004720	0.020264	-0.012102
616	3.130481	0.005000	2.617043	-8.967122	-1.543962	-0.539605	0.046963	-0.338643	0.000137	0.010442	-0.010807
617	3.135481	0.005000	2.723330	-9.009554	-1.608840	-0.539718	0.046850	-0.337509	-0.001495	0.014323	-0.011365
618	3.140481	0.005000	2.715941	-9.016819	-1.678939	-0.539830	0.046737	-0.336374	-0.004988	0.013637	-0.014701
619	3.145481	0.005000	2.864520	-8.915257	-1.677917	-0.539943	0.046624	-0.335239	-0.007330	0.013539	-0.001994
620	3.150481	0.005000	2.893334	-8.985960	-1.658506	-0.540056	0.046511	-0.334105	-0.008690	0.019149	-0.015654
621	3.155481	0.005000	2.836248	-8.974992	-1.659048	-0.540169	0.046399	-0.332970	-0.004783	0.006180	-0.015089
622	3.160481	0.005000	2.801299	-8.943451	-1.781059	-0.540282	0.046286	-0.331836	-0.012428	0.014226	-0.008072
623	3.165481	0.005000	2.773352	-8.985960	-1.844280	-0.541068	0.045788	-0.331989	-0.007609	0.016501	-0.024577
624	3.170481	0.005000	2.681875	-8.972405	-1.777930	-0.541972	0.045223	-0.332368	-0.001747	0.005964	-0.013797
625	3.175481	0.005000	2.732518	-8.936044	-1.755124	-0.542875	0.044659	-0.332746	-0.008012	0.017747	-0.020531
626	3.180481	0.005000	2.810145	-8.877210	-1.702455	-0.543779	0.044094	-0.333124	-0.008008	0.009492	-0.014966
627	3.185481	0.005000	2.864520	-8.923622	-1.664222	-0.544683	0.043529	-0.333503	-0.002385	0.004643	-0.007449
628	3.190481	0.005000	2.943000	-8.969260	-1.709860	-0.545586	0.042964	-0.333881	-0.003635	0.005643	-0.005232
629	3.195481	0.005000	2.964518	-8.985960	-1.722765	-0.546490	0.042400	-0.334259	-0.009482	0.005950	-0.013499
630	3.200481	0.005000	2.906018	-8.969728	-1.629589	-0.547393	0.041835	-0.334638	-0.004228	0.008576	-0.021784
631	3.205481	0.005000	2.923713	-9.005247	-1.745847	-0.548297	0.041270	-0.335016	-0.015147	0.009808	-0.012767
632	3.210481	0.005000	2.863141	-8.984581	-1.707629	-0.549200	0.040705	-0.335395	-0.014293	0.018330	-0.025344
633	3.215481	0.005000	2.882650	-8.949700	-1.705450	-0.550104	0.040140	-0.335773	-0.004456	0.004311	-0.009231
634	3.220481	0.005000	2.825280	-9.003326	-1.665446	-0.551008	0.039576	-0.336151	-0.006393	0.020736	-0.013783
635	3.225481	0.005000	2.740247	-9.064440	-1.674214	-0.551911	0.039011	-0.336530	-0.006666	0.013730	-0.015439
636	3.230481	0.005000	2.794158	-9.032868	-1.687320	-0.551735	0.038878	-0.336747	-0.006169	0.006308	-0.002454
637	3.235481	0.005000	2.864520	-8.946720	-1.716847	-0.550945	0.038991	-0.336873	-0.017157	0.020769	-0.013797
638	3.240481	0.005000	2.929089	-9.011289	-1.768294	-0.550154	0.039104	-0.336999	-0.010608	0.010016	-0.005092
639	3.245481	0.005000	2.798882	-9.025200	-1.661279	-0.549363	0.039217	-0.337126	-0.012018	0.010438	-0.007781
640	3.250481	0.005000	2.798216	-9.040087	-1.645369	-0.548572	0.039330	-0.337252	-0.008934	0.010651	-0.015461
641	3.255481	0.005000	2.836914	-8.946720	-1.730898	-0.547782	0.039443	-0.337378	-0.015204	0.014413	-0.008779
642	3.260481	0.005000	2.871925	-8.946720	-1.747783	-0.546991	0.039556	-0.337504	-0.010079	0.013066	-0.019785
643	3.265481	0.005000	2.786040	-8.956309	-1.746622	-0.546200	0.039669	-0.337630	-0.015057	0.015642	-0.012439
644	3.270481	0.005000	2.795087	-8.985960	-1.705414	-0.545410	0.039782	-0.337756	-0.011383	0.013571	-0.019208
645	3.275481	0.005000	2.707560	-8.962769	-1.718535	-0.544619	0.039895	-0.337882	-0.009874	0.006750	-0.008545
646	3.280481	0.005000	2.825280	-9.025200	-1.705554	-0.543828	0.040008	-0.338008	-0.015418	0.017229	-0.014179
647	3.285481	0.005000	2.864520	-9.064440	-1.680876	-0.543038	0.040121	-0.338134	-0.015460	-0.001043	-0.006594
648	3.290481	0.005000	2.859098	-8.985960	-1.737404	-0.542247	0.040234	-0.338260	-0.016187	0.007939	-0.014508
649	3.295481	0.005000	2.820879	-8.977157	-1.844280	-0.541648	0.040586	-0.338600	-0.023824	0.022503	-0.025046
650	3.300481	0.005000	2.817565	-8.985960	-1.875805	-0.541309	0.041263	-0.339231	-0.016199	0.009490	-0.000128
651	3.305481	0.005000	2.749635	-8.868240	-1.802205	-0.540970	0.041941	-0.339861	-0.018631	0.020587	-0.006668
652	3.310481	0.005000	2.752305	-8.900140	-1.758460	-0.540631	0.042619	-0.340492	-0.011705	0.015115	-0.008370
653	3.315481	0.005000	2.864520	-8.907480	-1.688590	-0.540292	0.043297	-0.341123	0.000537	0.017496	-0.003856
654	3.320481	0.005000	2.825280	-8.907976	-1.804049	-0.539953	0.043974	-0.341753	-0.004475	0.024352	-0.017108
655	3.325481	0.005000	2.864222	-9.102786	-1.570196	-0.539614	0.044652	-0.342384	-0.004135	0.015621	-0.012510
656	3.330481	0.005000	2.788674	-8.951987	-1.686003	-0.539275	0.045330	-0.343015	-0.012877	0.018194	-0.010916
657	3.335481	0.005000	2.864520	-9.059762	-1.571939	-0.538937	0.046007	-0.343645	-0.016211	0.018911	-0.021220
658	3.340481	0.005000	2.939638	-9.021838	-1.687320	-0.538598	0.046685	-0.344276	-0.020787	0.016359	-0.006760
659	3.345481	0.005000	2.899841	-8.985960	-1.616679	-0.538259	0.047363	-0.344907	-0.026356	0.007527	-0.018720
660	3.350481	0.005000	2.835164	-8.946720	-1.530360	-0.537920	0.048040	-0.345537	-0.019155	0.010056	-0.016170
661	3.355481	0.005000	2.757904	-8.913032	-1.687320	-0.537581	0.048718	-0.346168	-0.023885	0.014453	-0.021921
662	3.360481	0.005000	2.714066	-8.920493	-1.706839	-0.537337	0.049254	-0.346825	-0.010215	0.011586	0.001766
663	3.365481	0.005000	2.731742	-9.017671	-1.750742	-0.537450	0.049254	-0.347582	-0.021602	0.018194	-0.017829
664	3.370481	0.005000	2.769898	-8.954791	-1.608840	-0.537563	0.049254	-0.348339	-0.011960	0.011349	-0.015015
665	3.375481	0.005000	2.746800	-8.928533	-1.638986	-0.537676	0.049254	-0.349095	-0.007530	0.009724	-0.009493
666	3.380481	0.005000	2.776389	-8.937069	-1.598554	-0.537789	0.049254	-0.349852	-0.012423	0.017002	-0.016793
667	3.385481	0.005000	2.807356	-8.928796	-1.619498	-0.537902	0.049254	-0.350609	-0.010761	0.011915	-0.022679
668	3.390481	0.005000	2.881059	-8.896130	-1.664619	-0.538015	0.049254	-0.351366	-0.030080	0.016546	-0.029974
669	3.395481	0.005000	2.734562	-8.934482	-1.738798	-0.538128	0.049254	-0.352122	-0.025412	0.017195	-0.023056
670	3.400481	0.005000	2.799301	-8.985418	-1.713299	-0.538240	0.049254	-0.352879	-0.017568	0.009492	-0.017365
671	3.405481	0.005000	2.799843	-8.999763	-1.712757	-0.538353	0.049254	-0.353636	-0.010839	0.005747	-0.020684
672	3.410481	0.005000	2.825280	-8.912716	-1.702145	-0.538466	0.049254	-0.354393	-0.013851	0.004188	-0.019630
673	3.415481	0.005000	2.848962	-8.876364	-1.718436	-0.538579	0.049254	-0.355150	-0.016999	0.013445	-0.023334
674	3.420481	0.005000	2.864520	-8.891090	-1.641620	-0.538692	0.049254	-0.355906	-0.013523	0.002179	-0.002575
675	3.425481	0.005000	2.830218	-8.868240	-1.586751	-0.538805	0.049254	-0.356663	-0.018825	0.018764	-0.018331
676	3.430481	0.005000	2.879190	-8.868240	-1.790370	-0.539593	0.049029	-0.356542	-0.014180	0.011099	-0.018016
677	3.435481	0.005000	2.905015	-8.908735	-1.805040	-0.540383	0.048803	-0.356415	-0.006958	0.009714	-0.005036
678	3.440481	0.005000	2.844815	-8.946720	-1.746095	-0.541174	0.048577	-0.356289	-0.016270	0.022510	-0.021881
679	3.445481	0.005000	2.802848	-8.965403	-1.801291	-0.541965	0.048352	-0.356163	-0.013194	0.011731	-0.015383
680	3.450481	0.005000	2.829199	-8.872159	-1.887439	-0.542755	0.048126	-0.356037	-0.013694	0.014355	-0.014629
681	3.455481	0.005000	2.825280	-8.901928	-1.788196	-0.543546	0.047900	-0.355911	-0.012888	0.012313	-0.008252
682	3.460481	0.005000	2.809184	-8.962816	-1.749704	-0.544337	0.047674	-0.355785	-0.005613	0.022337	-0.009762
683	3.465481	0.005000	2.816560	-8.907480	-1.648080	-0.545127	0.047448	-0.355658	-0.005199	0.010986	-0.009730
684	3.470481	0.005000	2.771509	-8.971429	-1.701851	-0.545918	0.047222	-0.355532	-0.000220	0.017623	-0.011521
685	3.475481	0.005000	2.799549	-8.907480	-1.753577	-0.546709	0.046996	-0.355406	-0.014208	0.023118	-0.025225
686	3.480481	0.005000	2.877858	-8.894142	-1.700658	-0.547499	0.046770	-0.355280	-0.009168	0.008370	-0.005927
687	3.485481	0.005000	2.762183	-8.907480	-1.781183	-0.548290	0.046544	-0.355154	-0.010567	0.013829	-0.009523
688	3.490481	0.005000	2.752917	-8.907480	-1.630922	-0.549081	0.046319	-0.355028	-0.010132	0.010639	-0.012480
689	3.495481	0.005000	2.767528	-8.975596	-1.648080	-0.548813	0.046357	-0.355098	-0.011131	0.005570	-0.006523
690	3.500481	0.005000	2.815939	-8.937379	-1.666763	-0.548249	0.046470	-0.355225	-0.009694	0.016939	-0.020229
691	3.505481	0.005000	2.786040	-8.898681	-1.792198	-0.547684	0.046583	-0.355351	-0.006765	0.008123	-0.013755
692	3.510481	0.005000	2.888207	-8.813090	-1.875743	-0.547120	0.046696	-0.355477	-0.007593	0.011040	-0.019244
693	3.515481	0.005000	2.792875	-8.914315	-1.712889	-0.546555	0.046809	-0.355603	-0.006872	0.009915	-0.016646
694	3.520481	0.005000	2.825280	-8.901283	-1.707970	-0.545991	0.046921	-0.355729	-0.011455	0.017906	-0.005268
695	3.525481	0.005000	2.820090	-8.868240	-1.614030	-0.545426	0.047034	-0.355855	-0.010437	0.013915	-0.014723
696	3.530481	0.005000	2.825280	-8.942088	-1.795776	-0.544862	0.047147	-0.355981	-0.009063	0.009683	-0.014898
697	3.535481	0.005000	2.868130	-8.950330	-1.797821	-0.544297	0.047260	-0.356107	-0.007841	0.010937	-0.013740
698	3.540481	0.005000	2.864520	-8.868240	-1.810214	-0.543733	0.047373	-0.356233	-0.005752	0.001695	-0.010349
699	3.545481	0.005000	2.829370	-8.985960	-1.805040	-0.543168	0.047486	-0.356359	-0.015403	0.008577	-0.018613
700	3.550481	0.005000	2.903760	-9.023155	-1.802995	-0.542604	0.047599	-0.356485	-0.010212	0.000915	-0.015203
701	3.555481	0.005000	2.903760	-8.946720	-1.765800	-0.542039	0.047711	-0.356612	-0.000681	0.004958	-0.010432
702	3.560481	0.005000	2.786582	-8.869867	-1.687862	-0.541601	0.047888	-0.356596	-0.009179	0.014464	-0.022772
703	3.565481	0.005000	2.749929	-8.829000	-1.688885	-0.541262	0.048114	-0.356470	-0.006109	0.004048	-0.013167
704	3.570481	0.005000	2.823158	-8.868240	-1.765800	-0.540923	0.048340	-0.356344	-0.016765	0.015670	-0.018286
705	3.575481	0.005000	2.822135	-8.904335	-1.699899	-0.540584	0.048566	-0.356218	-0.002554	0.004532	-0.012557
706	3.580481	0.005000	2.860787	-8.939255	-1.655545	-0.540245	0.048792	-0.356091	-0.006109	0.008075	-0.003532
707	3.585481	0.005000	2.825280	-8.946720	-1.726560	-0.539906	0.049018	-0.355965	-0.000674	0.007330	-0.003329
708	3.590481	0.005000	2.791772	-8.924676	-1.720828	-0.539567	0.049244	-0.355839	0.008016	0.008140	-0.000074
709	3.595481	0.005000	2.910112	-8.973256	-1.739264	-0.539228	0.049470	-0.355713	-0.007883	0.010123	-0.015999
710	3.600481	0.005000	2.839873	-8.985960	-1.773097	-0.538889	0.049696	-0.355587	-0.000919	0.003544	-0.010037
711	3.605481	0.005000	2.817332	-8.923377	-1.757852	-0.538550	0.049922	-0.355460	-0.012606	0.008278	-0.012709
712	3.610481	0.005000	2.864520	-8.855594	-1.774665	-0.538211	0.050148	-0.355334	-0.000449	0.010313	-0.013439
713	3.615481	0.005000	2.893876	-8.809527	-1.824513	-0.537872	0.050374	-0.355208	0.009823	0.011556	-0.009594
714	3.620481	0.005000	2.903760	-8.907480	-1.776366	-0.537532	0.050600	-0.355082	0.006848	0.014375	-0.016834
715	3.625481	0.005000	2.875984	-8.907480	-1.742873	-0.537273	0.050746	-0.355000	0.007440	0.006754	-0.000767
716	3.630481	0.005000	2.864520	-8.934565	-1.714405	-0.537160	0.050746	-0.355000	-0.004116	0.014802	-0.010735
717	3.635481	0.005000	2.864520	-8.946720	-1.739588	-0.537047	0.050746	-0.355000	-0.005933	0.018807	-0.020029
718	3.640481	0.005000	2.828192	-9.025200	-1.802128	-0.536935	0.050746	-0.355000	-0.001150	0.014355	-0.018414
719	3.645481	0.005000	2.834972	-8.961494	-1.751026	-0.536822	0.050746	-0.355000	0.000816	0.013489	-0.017253
720	3.650481	0.005000	2.880135	-8.907480	-1.789425	-0.536709	0.050746	-0.355000	0.007329	0.012334	-0.010199
721	3.655481	0.005000	2.841647	-8.907480	-1.742927	-0.536596	0.050746	-0.355000	0.005787	0.013441	-0.011914
722	3.660481	0.005000	2.864520	-8.924676	-1.687320	-0.536483	0.050746	-0.355000	0.015661	0.009887	-0.009181
723	3.665481	0.005000	2.825280	-8.907480	-1.747590	-0.536370	0.050746	-0.355000	0.005916	0.012668	-0.016123
724	3.670481	0.005000	2.786040	-8.885281	-1.765800	-0.536257	0.050746	-0.355000	0.012921	0.014205	-0.003758
725	3.675481	0.005000	2.805497	-8.887697	-1.726885	-0.536145	0.050746	-0.355000	0.006698	0.007324	-0.013520
726	3.680481	0.005000	2.924337	-8.944807	-1.685407	-0.536032	0.050746	-0.355000	0.002706	0.019680	-0.016351
727	3.685481	0.005000	2.846627	-8.946720	-1.776164	-0.535919	0.050746	-0.355000	0.014495	0.006254	-0.009737
728	3.690481	0.005000	2.802910	-8.929850	-1.726560	-0.535836	0.050671	-0.355017	0.006702	0.008409	-0.011391
729	3.695481	0.005000	2.802368	-8.963048	-1.726560	-0.535949	0.050107	-0.355143	0.010434	0.016200	-0.009382
730	3.700481	0.005000	2.770734	-9.025200	-1.711254	-0.536062	0.049542	-0.355269	0.008036	0.011053	-0.005900
731	3.705481	0.005000	2.775709	-8.985960	-1.741014	-0.536175	0.048978	-0.355395	0.011295	0.007805	-0.010138
732	3.710481	0.005000	2.760525	-8.934931	-1.687320	-0.536287	0.048414	-0.355521	0.013669	0.008340	-0.017404
733	3.715481	0.005000	2.720420	-9.103680	-1.608840	-0.536400	0.047849	-0.355647	0.017104	0.020284	-0.014307
734	3.720481	0.005000	2.734639	-9.064440	-1.633162	-0.536513	0.047285	-0.355773	0.002843	0.002591	-0.007498
735	3.725481	0.005000	2.769077	-9.053302	-1.698458	-0.536626	0.046720	-0.355899	0.004155	0.016883	-0.018502
736	3.730481	0.005000	2.804088	-8.985960	-1.666128	-0.536739	0.046156	-0.356025	0.008664	0.004167	-0.013742
737	3.735481	0.005000	2.796559	-8.937146	-1.599266	-0.536852	0.045591	-0.356152	0.012413	0.008207	-0.003140
738	3.740481	0.005000	2.676871	-8.955271	-1.634494	-0.536965	0.045027	-0.356278	0.006007	0.014146	-0.024531
739	3.745481	0.005000	2.722819	-9.025200	-1.718566	-0.537077	0.044462	-0.356404	0.010716	0.006338	-0.014024
740	3.750481	0.005000	2.746800	-9.064440	-1.744878	-0.537190	0.043898	-0.356530	-0.000209	0.015739	-0.016091
741	3.755481	0.005000	2.792076	-9.031236	-1.714489	-0.537303	0.043334	-0.356656	-0.001222	0.013087	-0.011861
742	3.760481	0.005000	2.786040	-9.053627	-1.648080	-0.537416	0.043387	-0.356552	-0.005072	0.005498	-0.009845
743	3.765481	0.005000	2.820842	-8.994837	-1.770238	-0.537529	0.043500	-0.356426	-0.005269	0.012927	-0.015249
744	3.770481	0.005000	2.789882	-9.064440	-1.648080	-0.537642	0.043613	-0.356300	-0.009982	0.014319	-0.010309
745	3.775481	0.005000	2.749619	-9.025200	-1.650899	-0.537755	0.043726	-0.356174	-0.010359	0.011641	-0.015106
746	3.780481	0.005000	2.787859	-9.060801	-1.801401	-0.537868	0.043838	-0.356048	-0.010286	0.006159	-0.021224
747	3.785481	0.005000	2.744290	-9.061930	-1.686065	-0.537981	0.043951	-0.355922	-0.014144	0.018951	-0.021022
748	3.790481	0.005000	2.708489	-9.025200	-1.726560	-0.538094	0.044064	-0.355795	-0.010836	0.021418	-0.017179
749	3.795481	0.005000	2.864520	-9.063650	-1.688110	-0.538207	0.044177	-0.355669	-0.014060	0.014966	-0.020195
750	3.800481	0.005000	2.786040	-9.025200	-1.611536	-0.538319	0.044290	-0.355543	-0.018914	0.016993	-0.028782
751	3.805481	0.005000	2.709930	-9.027570	-1.719449	-0.538432	0.044403	-0.355417	-0.022228	0.005833	-0.008535
752	3.810481	0.005000	2.786040	-9.025200	-1.572548	-0.538545	0.044516	-0.355291	-0.017761	0.017811	-0.021440
753	3.815481	0.005000	2.856650	-8.985960	-1.608840	-0.538658	0.044628	-0.355165	-0.022611	0.017198	-0.020762
754	3.820481	0.005000	2.790997	-9.030157	-1.711688	-0.538771	0.044741	-0.355039	-0.019639	0.012614	-0.017292
755	3.825481	0.005000	2.819712	-8.952288	-1.720992	-0.538728	0.045011	-0.355087	-0.030214	0.014166	-0.017962
756	3.830481	0.005000	2.890716	-9.012156	-1.733082	-0.538615	0.045349	-0.355213	-0.027338	0.016799	-0.016192
757	3.835481	0.005000	2.943000	-8.969353	-1.814103	-0.538502	0.045688	-0.355340	-0.012926	0.012775	-0.006405
758	3.840481	0.005000	2.889080	-8.891106	-1.648080	-0.538389	0.046027	-0.355466	-0.016860	0.009688	-0.003170
759	3.845481	0.005000	2.843498	-9.037113	-1.678211	-0.538276	0.046366	-0.355592	-0.027410	0.014030	-0.016685
760	3.850481	0.005000	2.825280	-8.996091	-1.667057	-0.538163	0.046705	-0.355718	-0.027093	0.009425	-0.016286
761	3.855481	0.005000	2.814591	-8.868240	-1.698009	-0.538050	0.047044	-0.355844	-0.033557	0.010706	-0.008439
762	3.860481	0.005000	2.892048	-8.946720	-1.648080	-0.537937	0.047383	-0.355970	-0.031161	0.022853	-0.026669
763	3.865481	0.005000	2.851796	-8.959444	-1.595047	-0.537824	0.047722	-0.356097	-0.030956	0.010255	-0.022401
764	3.870481	0.005000	2.891072	-8.881516	-1.713872	-0.537711	0.048060	-0.356223	-0.031210	0.022496	-0.017567
765	3.875481	0.005000	2.850221	-8.957363	-1.712261	-0.537598	0.048399	-0.356349	-0.028571	0.017537	-0.012025
766	3.880481	0.005000	2.786040	-8.937162	-1.687320	-0.537485	0.048738	-0.356475	-0.036891	0.019221	-0.008393
767	3.885481	0.005000	2.848657	-9.009337	-1.757450	-0.537372	0.049077	-0.356601	-0.032051	0.019892	-0.009094
768	3.890481	0.005000	2.920378	-9.002578	-1.811044	-0.537475	0.049200	-0.356667	-0.019640	0.007056	-0.007453
769	3.895481	0.005000	2.825280	-8.842044	-1.656740	-0.537814	0.049087	-0.356667	-0.028019	0.017606	-0.011681
770	3.900481	0.005000	2.825280	-8.868240	-1.731238	-0.538152	0.048974	-0.356667	-0.029581	0.009933	-0.016819
771	3.905481	0.005000	2.865744	-8.966952	-1.783584	-0.538491	0.048861	-0.356667	-0.025367	0.017860	-0.011301
772	3.910481	0.005000	2.863699	-8.926689	-1.725739	-0.538830	0.048748	-0.356667	-0.015580	0.007664	-0.015519
773	3.915481	0.005000	2.804707	-8.907480	-1.648080	-0.539168	0.048635	-0.356667	-0.021438	0.023006	-0.002988
774	3.920481	0.005000	2.846875	-8.968315	-1.748155	-0.539507	0.048522	-0.356667	-0.020496	0.023304	-0.018417
775	3.925481	0.005000	2.735555	-8.946720	-1.681737	-0.539846	0.048410	-0.356667	-0.020790	0.013383	-0.008505
776	3.930481	0.005000	2.739720	-8.946720	-1.765800	-0.540185	0.048297	-0.356667	-0.018627	0.020746	-0.023487
777	3.935481	0.005000	2.786040	-8.961778	-1.780858	-0.540523	0.048184	-0.356667	-0.013819	0.017025	-0.026293
778	3.940481	0.005000	2.825280	-8.932516	-1.830076	-0.540862	0.048071	-0.356667	-0.002952	0.013601	-0.015831
779	3.945481	0.005000	2.838758	-8.907480	-1.856565	-0.541201	0.047958	-0.356667	-0.013672	0.026511	-0.031449
780	3.950481	0.005000	2.877129	-8.893459	-1.765800	-0.541540	0.047845	-0.356667	0.000313	0.011492	-0.007957
781	3.955481	0.005000	2.919174	-8.970546	-1.793127	-0.541616	0.047674	-0.356667	-0.005597	0.022054	-0.019651
782	3.960481	0.005000	2.914651	-9.014309	-1.815931	-0.540939	0.047335	-0.356667	-0.012695	0.013090	-0.015340
783	3.965481	0.005000	2.883063	-9.025200	-1.668777	-0.540261	0.046996	-0.356667	-0.001856	0.016588	-0.009507
784	3.970481	0.005000	2.864520	-8.976634	-1.696646	-0.539583	0.046657	-0.356667	-0.007851	0.006107	-0.007291
785	3.975481	0.005000	2.816877	-8.890674	-1.805040	-0.538906	0.046319	-0.356667	-0.005193	0.016631	-0.011499
786	3.980481	0.005000	2.786040	-8.891524	-1.883520	-0.538228	0.045980	-0.356667	-0.012214	0.023252	-0.018092
787	3.985481	0.005000	2.746800	-8.992699	-1.870042	-0.537550	0.045641	-0.356667	-0.001307	0.009350	-0.007088
788	3.990481	0.005000	2.752585	-8.935150	-1.805040	-0.536873	0.045302	-0.356667	-0.007900	0.020362	-0.021747
789	3.995481	0.005000	2.893443	-8.902321	-1.750324	-0.536195	0.044963	-0.356667	0.002662	0.016868	-0.013164
790	4.000481	0.005000	2.817008	-8.876512	-1.687320	-0.535517	0.044625	-0.356667	-0.001044	0.015174	-0.013386
791	4.005481	0.005000	2.906912	-8.982808	-1.805040	-0.534840	0.044286	-0.356667	-0.013749	0.020302	-0.026734
792	4.010481	0.005000	2.940428	-8.944148	-1.883520	-0.534162	0.043947	-0.356667	0.005493	0.014407	-0.020520
793	4.015481	0.005000	2.790745	-8.907480	-1.767368	-0.533484	0.043608	-0.356667	-0.003919	0.022473	-0.022086
794	4.020481	0.005000	2.863513	-8.947727	-1.803026	-0.532851	0.043304	-0.356640	-0.000371	0.020560	-0.022477
795	4.025481	0.005000	2.746831	-8.946735	-1.726560	-0.533189	0.043755	-0.356009	0.004887	0.009549	-0.013499
796	4.030481	0.005000	2.863940	-8.984220	-1.843700	-0.533528	0.044207	-0.355379	-0.002126	0.008206	-0.019758
797	4.035481	0.005000	2.902179	-8.945139	-1.726560	-0.533867	0.044658	-0.354748	-0.006472	0.010037	-0.009421
798	4.040481	0.005000	2.864520	-8.949323	-1.768403	-0.534205	0.045110	-0.354118	-0.006321	0.012822	-0.026504
799	4.045481	0.005000	2.906920	-8.940399	-1.847440	-0.534544	0.045562	-0.353488	0.008740	0.007631	-0.015154
800	4.050481	0.005000	2.864520	-8.942537	-1.765800	-0.534883	0.046013	-0.352857	-0.004701	0.020437	-0.006427
801	4.055481	0.005000	2.894193	-9.059657	-1.736127	-0.535221	0.046465	-0.352227	0.011235	0.014900	-0.019030
802	4.060481	0.005000	2.937253	-8.873987	-1.698815	-0.535560	0.046916	-0.351596	0.001188	0.020438	-0.012012
803	4.065481	0.005000	2.910530	-8.979190	-1.772570	-0.535899	0.047368	-0.350966	0.007705	0.022582	-0.021410
804	4.070481	0.005000	2.864520	-9.010576	-1.719248	-0.536237	0.047819	-0.350336	0.017985	0.011885	-0.004229
805	4.075481	0.005000	2.887091	-8.884909	-1.718226	-0.536576	0.048271	-0.349705	0.012566	0.014374	-0.016344
806	4.080481	0.005000	2.855628	-8.977068	-1.748016	-0.536914	0.048723	-0.349075	0.001765	0.015481	-0.021398
807	4.085481	0.005000	2.903760	-8.985960	-1.716645	-0.537253	0.049174	-0.348444	0.008588	0.022100	-0.006917
808	4.090481	0.005000	2.825280	-8.965046	-1.737017	-0.537778	0.048325	-0.347503	-0.002516	0.017338	-0.014478
809	4.095481	0.005000	2.774561	-9.030002	-1.719883	-0.538342	0.047196	-0.346494	-0.003949	0.017374	-0.012217
810	4.100481	0.005000	2.798210	-8.985960	-1.753630	-0.538907	0.046067	-0.345486	-0.003544	0.027472	-0.016732
811	4.105481	0.005000	2.799084	-8.972916	-1.752756	-0.539471	0.044937	-0.344477	0.012655	0.020199	-0.004902
812	4.110481	0.005000	2.748854	-8.879951	-1.663898	-0.540036	0.043808	-0.343469	0.005456	0.025067	-0.012117
813	4.115481	0.005000	2.707560	-8.892856	-1.711936	-0.540600	0.042679	-0.342460	0.016378	0.015556	-0.006951
814	4.120481	0.005000	2.840634	-8.985960	-1.584954	-0.541165	0.041550	-0.341452	0.017746	0.010271	-0.001479
815	4.125481	0.005000	2.762989	-8.962909	-1.583325	-0.541729	0.040421	-0.340443	0.012130	0.015696	-0.013594
816	4.130481	0.005000	2.734407	-9.025200	-1.687320	-0.542294	0.039292	-0.339435	0.010210	0.012479	-0.010836
817	4.135481	0.005000	2.782307	-8.942987	-1.722827	-0.542858	0.038163	-0.338426	0.011897	0.008384	-0.007162
818	4.140481	0.005000	2.765576	-8.987649	-1.689009	-0.543423	0.037034	-0.337417	0.007493	0.013087	-0.006605
819	4.145481	0.005000	2.668320	-9.005415	-1.746125	-0.543987	0.035905	-0.336409	0.011792	0.016421	-0.012973
820	4.150481	0.005000	2.707560	-9.004860	-1.687320	-0.544552	0.034776	-0.335400	0.007881	0.017056	-0.013900
821	4.155481	0.005000	2.786040	-9.064440	-1.672928	-0.545117	0.034260	-0.334772	-0.008736	0.012084	-0.008500
822	4.160481	0.005000	2.842600	-9.047120	-1.721959	-0.545681	0.034147	-0.334393	-0.002665	0.028066	-0.021893
823	4.165481	0.005000	2.864520	-8.963017	-1.661372	-0.546246	0.034034	-0.334015	0.009894	0.007734	-0.004922
824	4.170481	0.005000	2.801795	-8.978230	-1.663835	-0.546811	0.033921	-0.333637	-0.000435	0.029675	-0.009742
825	4.175481	0.005000	2.879252	-8.995735	-1.672588	-0.547376	0.033808	-0.333258	-0.005110	0.015563	-0.016356
826	4.180481	0.005000	2.772160	-9.011320	-1.648080	-0.547940	0.033695	-0.332880	0.002264	0.012451	-0.005458
827	4.185481	0.005000	2.799208	-8.998864	-1.647817	-0.548505	0.033582	-0.332502	-0.005417	0.026054	-0.019398
828	4.190481	0.005000	2.786040	-8.892531	-1.738705	-0.549070	0.033470	-0.332123	0.001566	0.024023	-0.010281
829	4.195481	0.005000	2.797628	-8.907480	-1.620428	-0.549635	0.033357	-0.331745	0.003359	0.020616	-0.011149
830	4.200481	0.005000	2.846410	-8.878805	-1.705430	-0.550200	0.033244	-0.331366	-0.004366	0.016448	-0.015311
831	4.205481	0.005000	2.845198	-8.976299	-1.599179	-0.550764	0.033131	-0.330988	-0.010182	0.022863	-0.012919
832	4.210481	0.005000	2.846519	-8.973722	-1.560599	-0.551329	0.033018	-0.330610	-0.010561	0.020191	-0.015982
833	4.215481	0.005000	2.794018	-9.056462	-1.499098	-0.551894	0.032905	-0.330231	-0.014831	0.016273	-0.006396
834	4.220481	0.005000	2.714602	-9.018158	-1.615882	-0.551976	0.033187	-0.330490	-0.020023	0.017558	-0.020926
835	4.225481	0.005000	2.713973	-8.966720	-1.674493	-0.551298	0.034090	-0.331751	-0.021558	0.010968	-0.013782
836	4.230481	0.005000	2.746800	-8.873631	-1.614231	-0.550621	0.034994	-0.333012	-0.032536	0.025964	-0.008573
837	4.235481	0.005000	2.794885	-8.903057	-1.656925	-0.549943	0.035897	-0.334273	-0.018755	0.015565	-0.020309
838	4.240481	0.005000	2.860694	-8.985960	-1.683494	-0.549266	0.036800	-0.335533	-0.012104	0.012873	-0.012438
839	4.245481	0.005000	2.825280	-9.030808	-1.684516	-0.548589	0.037703	-0.336794	-0.019824	0.025810	-0.020388
840	4.250481	0.005000	2.744554	-9.140674	-1.728806	-0.547911	0.038606	-0.338055	-0.018908	0.018384	-0.010771
841	4.255481	0.005000	2.748024	-8.946720	-1.687320	-0.547234	0.039509	-0.339315	-0.025293	0.023766	-0.016286
842	4.260481	0.005000	2.864923	-8.946921	-1.726157	-0.546557	0.040413	-0.340576	-0.027002	0.012206	-0.007953
843	4.265481	0.005000	2.904105	-8.985960	-1.609185	-0.545879	0.041316	-0.341837	-0.026510	0.022216	-0.007099
844	4.270481	0.005000	2.828007	-8.985960	-1.645353	-0.545202	0.042219	-0.343098	-0.035145	0.014725	-0.019726
845	4.275481	0.005000	2.714717	-8.949106	-1.650466	-0.544524	0.043122	-0.344358	-0.031301	0.014672	-0.016207
846	4.280481	0.005000	2.852808	-8.952576	-1.726560	-0.543847	0.044025	-0.345619	-0.034819	0.012981	-0.018425
847	4.285481	0.005000	2.825280	-9.025200	-1.840330	-0.543284	0.044814	-0.346731	-0.030470	0.014823	-0.019413
848	4.290481	0.005000	2.795986	-8.951693	-1.662998	-0.543284	0.045040	-0.347109	-0.035738	0.013120	-0.014976
849	4.295481	0.005000	2.887215	-8.985960	-1.614355	-0.543284	0.045266	-0.347488	-0.030214	0.012931	-0.012292
850	4.300481	0.005000	2.857983	-8.914017	-1.674245	-0.543284	0.045492	-0.347866	-0.032940	0.008317	-0.003665
851	4.305481	0.005000	2.825280	-8.907480	-1.758620	-0.543284	0.045718	-0.348244	-0.033933	0.017518	-0.017050
852	4.310481	0.005000	2.887525	-8.868240	-1.757682	-0.543284	0.045944	-0.348623	-0.035297	0.007273	-0.007890
853	4.315481	0.005000	2.864520	-8.916620	-1.696460	-0.543284	0.046169	-0.349001	-0.031197	0.016982	-0.018186
854	4.320481	0.005000	2.933198	-8.946720	-1.677518	-0.543284	0.046395	-0.349380	-0.028447	0.013645	-0.013214
855	4.325481	0.005000	2.914465	-8.928889	-1.783631	-0.543284	0.046621	-0.349758	-0.030604	0.013267	-0.007253
856	4.330481	0.005000	2.903760	-8.970174	-1.777527	-0.543284	0.046847	-0.350136	-0.031986	0.018727	-0.024124
857	4.335481	0.005000	2.798461	-8.907480	-1.685344	-0.543284	0.047073	-0.350515	-0.031053	0.008867	-0.015143
858	4.340481	0.005000	2.916417	-8.854948	-1.739852	-0.543284	0.047299	-0.350893	-0.028874	0.011301	-0.023826
859	4.345481	0.005000	2.853908	-8.903778	-1.805040	-0.543284	0.047525	-0.351271	-0.026004	0.009773	-0.009859
860	4.350481	0.005000	2.864520	-9.034359	-1.750760	-0.543284	0.047751	-0.351650	-0.023149	0.013103	-0.016273
861	4.355481	0.005000	2.935518	-8.962599	-1.765800	-0.542637	0.047869	-0.351667	-0.030412	0.005460	-0.015163
862	4.360481	0.005000	2.797504	-8.991398	-1.771238	-0.541959	0.047982	-0.351667	-0.020797	0.011746	-0.009944
863	4.365481	0.005000	2.847061	-8.977316	-1.805040	-0.541282	0.048095	-0.351667	-0.012409	0.015219	-0.018175
864	4.370481	0.005000	2.862243	-8.865963	-1.705801	-0.540604	0.048208	-0.351667	-0.012395	0.008076	-0.007710
865	4.375481	0.005000	2.943232	-8.868240	-1.824776	-0.539926	0.048321	-0.351667	-0.023844	0.015583	-0.013152
866	4.380481	0.005000	2.905093	-8.869573	-1.883520	-0.539248	0.048434	-0.351667	-0.009291	0.005985	-0.019328
867	4.385481	0.005000	2.882692	-8.889308	-1.807937	-0.538570	0.048547	-0.351667	-0.003128	0.013464	-0.009371
868	4.390481	0.005000	2.933116	-8.936836	-1.731502	-0.537893	0.048660	-0.351667	-0.011901	0.017531	-0.024764
869	4.395481	0.005000	2.933261	-9.025200	-1.775539	-0.537215	0.048773	-0.351667	-0.007097	0.011948	-0.005660
870	4.400481	0.005000	2.848936	-9.009616	-1.750216	-0.536537	0.048886	-0.351667	-0.005043	0.017025	-0.013708
871	4.405481	0.005000	2.864520	-8.971398	-1.741122	-0.535859	0.048999	-0.351667	-0.000781	0.010651	-0.009049
872	4.410481	0.005000	2.906579	-8.960740	-1.751780	-0.535182	0.049112	-0.351667	0.004815	0.013900	-0.009049
873	4.415481	0.005000	2.903760	-8.959965	-1.791795	-0.534504	0.049225	-0.351667	0.005308	0.013825	-0.017940
874	4.420481	0.005000	2.852402	-8.813997	-1.856398	-0.534495	0.049254	-0.351854	-0.009109	0.015946	-0.016327
875	4.425481	0.005000	2.947988	-8.891074	-1.872103	-0.534721	0.049254	-0.352106	0.014753	0.011222	-0.014205
876	4.430481	0.005000	2.825280	-8.967510	-1.745010	-0.534947	0.049254	-0.352358	0.004047	0.016582	-0.008084
877	4.435481	0.005000	2.796779	-8.946720	-1.657580	-0.535173	0.049254	-0.352610	-0.003074	0.018196	-0.021939
878	4.440481	0.005000	2.794870	-8.937890	-1.696150	-0.535399	0.049254	-0.352863	0.003026	0.011024	-0.010851
879	4.445481	0.005000	2.793848	-8.923095	-1.671705	-0.535625	0.049254	-0.353115	0.001045	0.009294	-0.009573
880	4.450481	0.005000	2.811709	-8.985960	-1.576385	-0.535851	0.049254	-0.353367	0.005382	0.002356	-0.018022
881	4.455481	0.005000	2.864520	-8.907480	-1.615083	-0.536077	0.049254	-0.353619	0.013491	0.008234	-0.005901
882	4.460481	0.005000	2.825280	-9.030421	-1.580041	-0.536302	0.049254	-0.353872	0.003049	0.013436	-0.019859
883	4.465481	0.005000	2.825280	-8.955220	-1.726560	-0.536528	0.049254	-0.354124	0.014137	0.010529	-0.008404
884	4.470481	0.005000	2.786040	-9.028856	-1.690976	-0.536754	0.049254	-0.354376	0.012107	0.015356	-0.005839
885	4.475481	0.005000	2.937733	-9.019933	-1.716026	-0.536980	0.049254	-0.354628	0.000673	0.013069	-0.014424
886	4.480481	0.005000	2.781888	-8.911632	-1.648080	-0.537206	0.049254	-0.354881	0.024784	0.003329	-0.009437
887	4.485481	0.005000	2.669373	-8.985960	-1.685213	-0.537313	0.049254	-0.354469	0.020166	0.005069	-0.011879
888	4.490481	0.005000	2.786071	-8.868333	-1.569724	-0.537313	0.049254	-0.353460	0.021960	0.010813	0.001356
889	4.495481	0.005000	2.825280	-8.869792	-1.726560	-0.537313	0.049254	-0.352451	0.008574	0.018283	-0.007525
890	4.500481	0.005000	2.825280	-8.910547	-1.762733	-0.537313	0.049254	-0.351442	0.000246	0.013962	-0.013281
891	4.505481	0.005000	2.749356	-8.907480	-1.729116	-0.537313	0.049254	-0.350433	0.007289	0.020310	-0.013211
892	4.510481	0.005000	2.861422	-8.976665	-1.762702	-0.537313	0.049254	-0.349424	0.010863	0.014993	-0.013807
893	4.515481	0.005000	2.934759	-9.008717	-1.805040	-0.537313	0.049254	-0.348415	0.010262	0.013262	-0.007202
894	4.520481	0.005000	2.869241	-8.990681	-1.770521	-0.537313	0.049254	-0.347406	0.007632	0.022363	-0.010757
895	4.525481	0.005000	2.830965	-8.873925	-1.715189	-0.537313	0.049254	-0.346397	0.008458	0.012785	-0.002166
896	4.530481	0.005000	2.799456	-8.914188	-1.726560	-0.537313	0.049254	-0.345388	0.001877	0.019739	-0.006540
897	4.535481	0.005000	2.832546	-8.971429	-1.559422	-0.537313	0.049254	-0.344379	-0.002263	0.018240	-0.016570
898	4.540481	0.005000	2.841856	-8.868240	-1.608840	-0.537313	0.049254	-0.343370	0.012965	0.006785	-0.005584
899	4.545481	0.005000	2.746800	-8.997269	-1.608840	-0.537313	0.049254	-0.342361	0.006692	0.009768	-0.010106
900	4.550481	0.005000	2.795893	-9.005495	-1.706855	-0.537384	0.049254	-0.342021	-0.003778	0.006728	-0.011936
901	4.555481	0.005000	2.803530	-9.036075	-1.687320	-0.537609	0.049254	-0.343156	0.000417	0.016598	-0.020356
902	4.560481	0.005000	2.813721	-9.013641	-1.648080	-0.537835	0.049254	-0.344290	-0.001017	0.012349	-0.019938
903	4.565481	0.005000	2.864520	-9.023279	-1.635640	-0.538061	0.049254	-0.345425	-0.002331	0.021137	-0.007976
904	4.570481	0.005000	2.799502	-9.050978	-1.661542	-0.538287	0.049254	-0.346560	-0.004882	0.013810	-0.015335
905	4.575481	0.005000	2.917770	-9.089670	-1.622850	-0.538513	0.049254	-0.347694	-0.004203	0.013872	-0.007347
906	4.580481	0.005000	2.912946	-9.000987	-1.633053	-0.538739	0.049254	-0.348829	-0.004738	0.016115	-0.016770
907	4.585481	0.005000	2.857378	-8.946720	-1.662363	-0.538965	0.049254	-0.349964	0.001883	0.009387	-0.006067
908	4.590481	0.005000	2.886688	-8.968888	-1.704392	-0.539190	0.049254	-0.351098	-0.007256	0.011233	-0.013907
909	4.595481	0.005000	2.786040	-8.989941	-1.691301	-0.539416	0.049254	-0.352233	-0.006298	0.012623	-0.027426
910	4.600481	0.005000	2.864520	-9.025200	-1.805040	-0.539642	0.049254	-0.353368	-0.015456	0.005520	-0.006584
911	4.605481	0.005000	2.923192	-9.045008	-1.726184	-0.539868	0.049254	-0.354502	-0.013092	0.019157	-0.013589
912	4.610481	0.005000	2.845496	-9.026393	-1.649273	-0.540094	0.049254	-0.355637	-0.007941	0.009154	-0.003579
913	4.615481	0.005000	2.804041	-9.046439	-1.648080	-0.540268	0.049223	-0.356609	-0.008738	0.017919	-0.004274
914	4.620481	0.005000	2.808091	-9.003149	-1.704509	-0.539929	0.048884	-0.355978	-0.017272	0.011237	-0.024492
915	4.625481	0.005000	2.808844	-9.015131	-1.638011	-0.539590	0.048545	-0.355348	-0.020256	0.007186	-0.004982
916	4.630481	0.005000	2.864520	-9.001374	-1.617252	-0.539251	0.048206	-0.354717	-0.014835	0.011864	-0.018667
917	4.635481	0.005000	2.786040	-8.985960	-1.662952	-0.538912	0.047867	-0.354086	-0.030637	0.014755	-0.015329
918	4.640481	0.005000	2.786040	-9.011351	-1.724252	-0.538573	0.047528	-0.353456	-0.012681	0.013287	-0.014035
919	4.645481	0.005000	2.746800	-8.985960	-1.713579	-0.538235	0.047190	-0.352825	-0.016253	0.014257	-0.008441
920	4.650481	0.005000	2.746800	-8.985960	-1.753531	-0.537896	0.046851	-0.352194	-0.029265	0.018254	-0.012707
921	4.655481	0.005000	2.802786	-9.025200	-1.726560	-0.537557	0.046512	-0.351563	-0.014379	0.014058	-0.017931
922	4.660481	0.005000	2.874871	-8.957071	-1.687320	-0.537218	0.046173	-0.350933	-0.009274	0.010607	-0.009886
923	4.665481	0.005000	2.894078	-9.025200	-1.618522	-0.536879	0.045834	-0.350302	-0.012358	0.026351	-0.015882
924	4.670481	0.005000	2.803360	-9.038461	-1.648080	-0.536540	0.045495	-0.349671	-0.004841	0.010759	-0.004484
925	4.675481	0.005000	2.888873	-8.994078	-1.679202	-0.536201	0.045156	-0.349041	-0.013760	0.012796	-0.010611
926	4.680481	0.005000	2.825280	-9.000150	-1.790850	-0.535862	0.044817	-0.348410	-0.014502	0.010806	-0.019207
927	4.685481	0.005000	2.825280	-9.058295	-1.759655	-0.535920	0.045073	-0.348886	-0.013744	0.016338	-0.023308
928	4.690481	0.005000	2.791557	-9.103680	-1.737594	-0.536033	0.045412	-0.349517	-0.017194	0.019502	-0.019763
929	4.695481	0.005000	2.825280	-8.981452	-1.796024	-0.536146	0.045751	-0.350147	-0.019616	0.015017	-0.013330
930	4.700481	0.005000	2.864520	-8.868240	-1.652030	-0.536259	0.046090	-0.350778	-0.018680	0.016502	-0.007324
931	4.705481	0.005000	2.825280	-8.952576	-1.648080	-0.536372	0.046428	-0.351408	-0.010836	0.017945	-0.012340
932	4.710481	0.005000	2.901374	-9.098909	-1.648080	-0.536484	0.046767	-0.352038	-0.018403	0.018524	-0.010791
933	4.715481	0.005000	2.788767	-9.026563	-1.726560	-0.536597	0.047106	-0.352669	-0.014438	0.018090	-0.015299
934	4.720481	0.005000	2.824935	-9.024165	-1.765110	-0.536710	0.047444	-0.353299	-0.015808	0.011711	-0.004350
935	4.725481	0.005000	2.864117	-8.985557	-1.726359	-0.536823	0.047783	-0.353930	-0.009517	0.022599	-0.012922
936	4.730481	0.005000	2.864520	-8.984736	-1.763352	-0.536936	0.048122	-0.354560	-0.010919	0.007331	-0.001349
937	4.735481	0.005000	2.864520	-8.948523	-1.724757	-0.537049	0.048461	-0.355190	-0.018265	0.015789	-0.006364
938	4.740481	0.005000	2.794553	-9.025200	-1.650918	-0.537162	0.048799	-0.355821	-0.023259	0.014964	-0.015858
939	4.745481	0.005000	2.786040	-9.060614	-1.616493	-0.537274	0.049138	-0.356451	-0.018113	0.013658	-0.004518
940	4.750481	0.005000	2.864520	-8.981539	-1.574021	-0.537462	0.049180	-0.356750	-0.026518	0.013022	-0.010971
941	4.755481	0.005000	2.887587	-9.030591	-1.681929	-0.537688	0.049067	-0.356876	-0.016157	0.009944	-0.008998
942	4.760481	0.005000	2.825280	-8.946720	-1.726560	-0.537914	0.048954	-0.357002	-0.012498	0.012644	-0.006983
943	4.765481	0.005000	2.850436	-8.978918	-1.680278	-0.538140	0.048841	-0.357128	-0.008929	0.006861	-0.011876
944	4.770481	0.005000	2.794018	-8.985960	-1.608840	-0.538366	0.048728	-0.357254	-0.010243	0.011331	-0.021355
945	4.775481	0.005000	2.794666	-9.064440	-1.678694	-0.538591	0.048615	-0.357380	-0.011094	0.007399	-0.012170
946	4.780481	0.005000	2.864520	-8.995503	-1.726560	-0.538817	0.048502	-0.357506	-0.007563	0.014232	-0.014285
947	4.785481	0.005000	2.796605	-8.860696	-1.705430	-0.539043	0.048389	-0.357632	-0.018950	0.019235	-0.016927
948	4.790481	0.005000	2.864520	-8.935597	-1.748806	-0.539269	0.048276	-0.357759	-0.016201	0.009043	-0.012783
949	4.795481	0.005000	2.786040	-8.895335	-1.753655	-0.539495	0.048163	-0.357885	-0.010403	0.019975	-0.020207
950	4.800481	0.005000	2.890209	-8.959565	-1.700165	-0.539721	0.048050	-0.358011	-0.009919	0.016617	-0.015515
951	4.805481	0.005000	2.864520	-9.050730	-1.606950	-0.539947	0.047937	-0.358137	-0.001287	0.005787	-0.007969
952	4.810481	0.005000	2.786040	-9.128188	-1.638305	-0.540173	0.047824	-0.358263	-0.011798	0.017263	-0.011500
953	4.815481	0.005000	2.825280	-9.103680	-1.617531	-0.540149	0.047761	-0.358221	-0.005192	0.006945	-0.022304
954	4.820481	0.005000	2.786040	-9.018554	-1.719914	-0.539810	0.047761	-0.357969	-0.017104	0.011217	-0.014464
955	4.825481	0.005000	2.825280	-8.958650	-1.743617	-0.539471	0.047761	-0.357717	-0.006124	0.019252	-0.012993
956	4.830481	0.005000	2.807403	-8.932328	-1.648080	-0.539133	0.047761	-0.357465	-0.010398	0.006109	-0.007598
957	4.835481	0.005000	2.804924	-8.906008	-1.648080	-0.538794	0.047761	-0.357213	-0.009022	0.010168	-0.001264
958	4.840481	0.005000	2.746800	-8.926935	-1.608840	-0.538455	0.047761	-0.356961	-0.009111	0.002206	-0.000456
959	4.845481	0.005000	2.823591	-8.985960	-1.683943	-0.538116	0.047761	-0.356708	-0.004692	0.016910	-0.021936
960	4.850481	0.005000	2.886007	-8.868240	-1.751780	-0.537778	0.047761	-0.356456	-0.007517	0.002847	-0.017128
961	4.855481	0.005000	2.751618	-9.020382	-1.648080	-0.537439	0.047761	-0.356204	-0.006600	0.018600	-0.009378
962	4.860481	0.005000	2.802229	-9.002149	-1.555875	-0.537100	0.047761	-0.355952	-0.006279	0.005713	-0.015595
963	4.865481	0.005000	2.762154	-8.955252	-1.654902	-0.536762	0.047761	-0.355700	-0.004855	0.009108	-0.014792
964	4.870481	0.005000	2.943000	-8.961344	-1.697312	-0.536423	0.047761	-0.355448	-0.018588	0.010079	-0.030308
965	4.875481	0.005000	2.903760	-8.960322	-1.675283	-0.536084	0.047761	-0.355196	-0.001525	0.005375	-0.010453
966	4.880481	0.005000	2.877672	-8.920524	-1.713516	-0.535796	0.047761	-0.354831	-0.012079	0.011914	-0.005001
967	4.885481	0.005000	2.837301	-8.907480	-1.702517	-0.535683	0.047761	-0.354075	-0.019841	0.009982	-0.015235
968	4.890481	0.005000	2.853385	-8.862406	-1.698455	-0.535570	0.047761	-0.353318	-0.018395	0.009612	-0.002167
969	4.895481	0.005000	2.854063	-9.025200	-1.658537	-0.535457	0.047761	-0.352562	-0.010535	0.008552	-0.011048
970	4.900481	0.005000	2.825280	-8.985960	-1.765800	-0.535344	0.047761	-0.351805	-0.013620	0.007867	-0.007711
971	4.905481	0.005000	2.834172	-8.985960	-1.696212	-0.535231	0.047761	-0.351049	-0.006927	0.006009	-0.019143
972	4.910481	0.005000	3.021480	-8.946720	-1.820779	-0.535118	0.047761	-0.350293	-0.010075	0.000227	-0.010922
973	4.915481	0.005000	2.975393	-8.893786	-1.876673	-0.535005	0.047761	-0.349536	-0.021390	0.019584	-0.015167
974	4.920481	0.005000	2.916370	-8.835305	-1.811345	-0.534892	0.047761	-0.348780	-0.022653	0.006891	-0.027883
975	4.925481	0.005000	2.859237	-8.834283	-1.648080	-0.534779	0.047761	-0.348023	-0.004349	0.003283	-0.006411
976	4.930481	0.005000	2.759580	-8.981700	-1.683060	-0.534666	0.047761	-0.347267	-0.022093	0.015456	-0.019009
977	4.935481	0.005000	2.900101	-8.789760	-1.659057	-0.534554	0.047761	-0.346510	-0.013302	0.009731	-0.012911
978	4.940481	0.005000	2.901080	-8.907480	-1.656120	-0.534441	0.047761	-0.345754	-0.012760	0.011675	-0.016024
979	4.945481	0.005000	2.864520	-8.864884	-1.803362	-0.534328	0.047760	-0.345003	-0.017780	0.006486	-0.016930
980	4.950481	0.005000	2.826395	-8.868240	-1.728791	-0.534441	0.047534	-0.345886	-0.015951	0.000543	0.002928
981	4.955481	0.005000	2.903760	-8.946627	-1.844094	-0.534554	0.047308	-0.346769	-0.013706	0.012281	-0.010894
982	4.960481	0.005000	2.787404	-8.985050	-1.765800	-0.534667	0.047083	-0.347652	-0.015927	0.013044	-0.008277
983	4.965481	0.005000	2.902288	-8.910423	-1.652495	-0.534780	0.046857	-0.348534	-0.011721	0.016567	-0.009177
984	4.970481	0.005000	2.791028	-8.946720	-1.687320	-0.534893	0.046631	-0.349417	-0.011629	0.009938	-0.006083
985	4.975481	0.005000	2.752948	-8.982886	-1.726560	-0.535006	0.046405	-0.350300	-0.017501	0.007839	-0.003960
986	4.980481	0.005000	2.860461	-8.915598	-1.761741	-0.535119	0.046179	-0.351183	-0.010970	0.004150	0.000423
987	4.985481	0.005000	2.825280	-8.941639	-1.731641	-0.535232	0.045953	-0.352066	-0.002495	0.014037	-0.009961
988	4.990481	0.005000	2.880934	-8.946720	-1.805040	-0.535345	0.045727	-0.352949	-0.007188	0.014586	-0.018267
989	4.995481	0.005000	2.897099	-9.018539	-1.779123	-0.535458	0.045501	-0.353832	0.013943	0.002978	-0.003027
990	5.000481	0.005000	2.832964	-8.946720	-1.718876	-0.535571	0.045275	-0.354715	0.006099	0.018030	-0.005419
991	5.005481	0.005000	2.825280	-8.977734	-1.757574	-0.535684	0.045050	-0.355598	0.011964	0.005424	-0.003540
992	5.010481	0.005000	2.735305	-8.847497	-1.708063	-0.535797	0.044824	-0.356481	0.019486	0.009173	0.002734
993	5.015481	0.005000	2.678232	-8.985552	-1.726560	-0.535821	0.045043	-0.356766	0.010632	0.013560	-0.012049
994	5.020481	0.005000	2.757613	-9.132107	-1.698133	-0.535821	0.045382	-0.356892	0.014007	0.010395	-0.009008
995	5.025481	0.005000	2.625347	-8.985960	-1.745862	-0.535821	0.045721	-0.357018	0.017315	0.015211	-0.014125
996	5.030481	0.005000	2.736467	-9.012807	-1.724500	-0.535821	0.046059	-0.357144	0.018091	0.025936	-0.021284
997	5.035481	0.005000	2.681720	-9.156320	-1.673920	-0.535821	0.046398	-0.357271	0.014581	0.021766	-0.015380
998	5.040481	0.005000	2.654195	-9.000085	-1.662205	-0.535821	0.046737	-0.357397	0.023960	0.016243	-0.011520
999	5.045481	0.005000	2.668320	-9.112959	-1.663060	-0.535821	0.047076	-0.357523	0.029047	0.020620	-0.005922
1000	5.050481	0.005000	2.707560	-9.142920	-1.608840	-0.535821	0.047414	-0.357649	0.021179	0.016977	-0.019631
1001	5.055481	0.005000	2.701820	-9.159670	-1.569600	-0.535821	0.047753	-0.357775	0.028570	0.006728	-0.019211
1002	5.060481	0.005000	2.607407	-9.042767	-1.487015	-0.535821	0.048092	-0.357901	0.017539	0.016496	-0.023176
1003	5.065481	0.005000	2.569190	-9.045850	-1.435351	-0.535821	0.048430	-0.358027	0.021080	0.011318	-0.020216
1004	5.070481	0.005000	2.589840	-9.025200	-1.492096	-0.535821	0.048769	-0.358153	0.022040	0.002588	-0.022521
1005	5.075481	0.005000	2.512429	-9.062302	-1.473103	-0.535821	0.049108	-0.358279	0.008868	0.008786	-0.028569
1006	5.080481	0.005000	2.529640	-9.145601	-1.446518	-0.536206	0.048676	-0.357472	0.001956	-0.000598	-0.021868
1007	5.085481	0.005000	2.572335	-9.081945	-1.587105	-0.536884	0.047659	-0.355959	-0.005832	-0.002000	-0.020543
1008	5.090481	0.005000	2.684809	-9.080929	-1.631591	-0.537562	0.046643	-0.354445	-0.007084	0.001271	-0.025922
1009	5.095481	0.005000	2.793957	-9.025372	-1.632418	-0.538240	0.045626	-0.352931	-0.012352	0.002443	-0.016955
1010	5.100481	0.005000	2.771122	-8.922398	-1.662998	-0.538917	0.044609	-0.351418	-0.009253	0.002928	-0.026379
1011	5.105481	0.005000	2.719008	-8.946720	-1.661976	-0.539595	0.043593	-0.349904	-0.018010	0.008408	-0.018552
1012	5.110481	0.005000	2.733446	-9.011846	-1.569600	-0.540273	0.042576	-0.348391	-0.027090	0.009527	-0.020463
1013	5.115481	0.005000	2.759131	-8.907480	-1.515782	-0.540950	0.041560	-0.346877	-0.024181	0.012396	-0.022409
1014	5.120481	0.005000	2.903760	-8.946720	-1.659529	-0.541628	0.040543	-0.345364	-0.033797	0.005955	-0.019882
1015	5.125481	0.005000	2.875287	-8.964427	-1.676553	-0.542306	0.039527	-0.343850	-0.028459	0.008637	-0.016815
1016	5.130481	0.005000	2.835024	-8.926968	-1.726560	-0.542983	0.038510	-0.342337	-0.038436	0.006733	-0.010592
1017	5.135481	0.005000	2.804198	-8.946720	-1.678241	-0.543661	0.037493	-0.340823	-0.039748	0.018568	-0.023912
1018	5.140481	0.005000	2.943000	-8.915644	-1.749472	-0.544339	0.036477	-0.339310	-0.038258	0.004492	-0.008874
1019	5.145481	0.005000	2.943000	-8.993190	-1.648080	-0.545057	0.035821	-0.338378	-0.039605	0.015068	-0.009979
1020	5.150481	0.005000	2.969041	-8.946720	-1.759201	-0.545847	0.035821	-0.338504	-0.041502	0.011514	-0.012766
1021	5.155481	0.005000	2.808348	-9.058863	-1.833126	-0.546638	0.035821	-0.338630	-0.040743	0.017312	-0.010553
1022	5.160481	0.005000	2.917593	-8.872851	-1.809651	-0.547429	0.035821	-0.338756	-0.041603	0.015347	-0.018895
1023	5.165481	0.005000	3.025492	-8.903468	-1.871483	-0.548219	0.035821	-0.338882	-0.034552	0.022640	-0.020736
1024	5.170481	0.005000	2.943000	-8.862260	-1.805040	-0.549010	0.035821	-0.339009	-0.032953	0.020588	-0.011595
1025	5.175481	0.005000	2.980248	-8.909472	-1.842288	-0.549801	0.035821	-0.339135	-0.033080	0.018419	-0.014103
1026	5.180481	0.005000	2.944425	-8.908905	-1.803615	-0.550591	0.035821	-0.339261	-0.034514	0.027184	-0.020464
1027	5.185481	0.005000	3.020674	-8.945914	-1.766203	-0.551382	0.035821	-0.339387	-0.033993	0.020972	-0.015757
1028	5.190481	0.005000	2.981620	-8.945481	-1.843660	-0.552173	0.035821	-0.339513	-0.023700	0.021686	-0.007183
1029	5.195481	0.005000	2.981063	-8.907480	-1.766977	-0.552963	0.035821	-0.339639	-0.024821	0.019877	-0.014503
1030	5.200481	0.005000	3.017080	-8.946720	-1.805040	-0.553754	0.035821	-0.339765	-0.029859	0.010692	-0.003479
1031	5.205481	0.005000	2.979464	-8.946720	-1.802264	-0.554545	0.035821	-0.339892	-0.026355	0.022884	-0.015659
1032	5.210481	0.005000	2.907524	-8.911244	-1.773329	-0.555176	0.035853	-0.340053	-0.014870	0.020178	-0.012636
1033	5.215481	0.005000	2.864520	-8.897906	-1.765800	-0.554837	0.036079	-0.340432	-0.015288	0.017715	-0.004199
1034	5.220481	0.005000	2.864520	-8.946720	-1.838951	-0.554499	0.036305	-0.340810	-0.017002	0.017434	-0.013597
1035	5.225481	0.005000	2.864520	-8.985960	-1.765800	-0.554160	0.036530	-0.341188	-0.022569	0.008316	-0.010882
1036	5.230481	0.005000	2.911134	-8.907480	-1.733934	-0.553821	0.036756	-0.341567	-0.018009	0.006343	-0.006024
1037	5.235481	0.005000	2.833196	-8.978044	-1.797124	-0.553482	0.036982	-0.341945	-0.009232	0.006456	-0.007039
1038	5.240481	0.005000	2.807403	-9.025200	-1.774739	-0.553143	0.037208	-0.342324	-0.016552	0.008133	-0.007982
1039	5.245481	0.005000	2.756410	-8.897070	-1.785020	-0.552804	0.037434	-0.342702	-0.009811	0.008038	-0.008432
1040	5.250481	0.005000	2.814761	-8.917999	-1.755281	-0.552465	0.037660	-0.343080	-0.022517	0.009338	-0.002183
1041	5.255481	0.005000	2.769882	-8.935179	-1.742718	-0.552126	0.037886	-0.343459	-0.014675	0.008233	-0.013660
1042	5.260481	0.005000	2.695477	-8.922553	-1.805040	-0.551788	0.038112	-0.343837	-0.008732	0.007453	-0.004808
1043	5.265481	0.005000	2.720666	-8.972854	-1.713532	-0.551449	0.038338	-0.344215	-0.014666	0.015480	-0.018726
1044	5.270481	0.005000	2.705349	-8.882057	-1.726560	-0.551110	0.038564	-0.344594	-0.005202	0.001429	-0.017312
1045	5.275481	0.005000	2.771370	-9.025200	-1.775699	-0.550771	0.038789	-0.344972	-0.003117	0.006050	-0.007636
1046	5.280481	0.005000	2.715414	-8.962413	-1.671612	-0.550014	0.039224	-0.345467	-0.005734	0.015955	-0.013502
1047	5.285481	0.005000	2.674669	-8.963165	-1.618936	-0.549224	0.039676	-0.345972	-0.000365	0.019536	-0.013946
1048	5.290481	0.005000	2.724818	-8.963978	-1.714027	-0.548433	0.040128	-0.346476	-0.007609	0.017132	-0.027213
1049	5.295481	0.005000	2.767760	-8.949400	-1.820640	-0.547643	0.040579	-0.346980	-0.009411	0.010654	-0.004689
1050	5.300481	0.005000	2.745235	-8.905915	-1.784638	-0.546853	0.041031	-0.347485	0.001725	0.009398	-0.011807
1051	5.305481	0.005000	2.687700	-8.927820	-1.648560	-0.546063	0.041482	-0.347989	0.001187	0.010996	-0.016636
1052	5.310481	0.005000	2.707560	-8.983890	-1.648080	-0.545272	0.041934	-0.348493	0.002571	0.023325	-0.003291
1053	5.315481	0.005000	2.725375	-8.964535	-1.665895	-0.544482	0.042386	-0.348997	0.005909	0.013863	-0.019629
1054	5.320481	0.005000	2.802833	-8.963513	-1.603186	-0.543692	0.042837	-0.349502	0.004404	0.013494	-0.002631
1055	5.325481	0.005000	2.714299	-8.900741	-1.749549	-0.542902	0.043289	-0.350006	0.006276	0.026953	-0.013940
1056	5.330481	0.005000	2.659536	-8.985960	-1.696104	-0.542111	0.043740	-0.350510	0.004647	0.012021	-0.006981
1057	5.335481	0.005000	2.761006	-9.053611	-1.673114	-0.541321	0.044192	-0.351015	0.007664	0.014139	-0.018781
1058	5.340481	0.005000	2.760448	-9.013256	-1.765800	-0.540531	0.044643	-0.351519	0.002203	0.021599	-0.019131
1059	5.345481	0.005000	2.812649	-9.053158	-1.712581	-0.540219	0.045095	-0.352202	0.003274	0.019121	-0.008480
1060	5.350481	0.005000	2.852762	-8.962444	-1.659838	-0.540106	0.045547	-0.352958	-0.002854	0.024589	-0.011234
1061	5.355481	0.005000	2.836341	-8.946720	-1.654137	-0.539993	0.045999	-0.353715	0.004989	0.008985	-0.003350
1062	5.360481	0.005000	2.854482	-8.975922	-1.628003	-0.539880	0.046451	-0.354472	0.010785	0.009811	-0.007222
1063	5.365481	0.005000	2.855392	-8.946720	-1.666336	-0.539767	0.046902	-0.355229	0.000599	0.017013	-0.020540
1064	5.370481	0.005000	2.799858	-8.907480	-1.704268	-0.539654	0.047354	-0.355985	0.004808	0.020109	-0.010196
1065	5.375481	0.005000	2.778496	-8.892393	-1.679776	-0.539541	0.047806	-0.356742	-0.001631	0.021795	-0.013216
1066	5.380481	0.005000	2.753709	-8.895877	-1.754197	-0.539428	0.048258	-0.357499	0.001166	0.016653	-0.010383
1067	5.385481	0.005000	2.886100	-9.058553	-1.771687	-0.539315	0.048709	-0.358256	0.003404	0.023653	-0.019790
1068	5.390481	0.005000	2.746800	-8.996618	-1.755142	-0.539202	0.049161	-0.359012	0.002745	0.007358	-0.011681
1069	5.395481	0.005000	2.860213	-8.946720	-1.656693	-0.539089	0.049613	-0.359769	0.003939	0.016990	-0.012523
1070	5.400481	0.005000	2.789365	-8.943395	-1.795065	-0.538976	0.050065	-0.360526	-0.000659	0.021458	-0.020633
1071	5.405481	0.005000	2.794266	-8.946720	-1.729302	-0.538863	0.050517	-0.361283	0.010627	0.007254	-0.012052
1072	5.410481	0.005000	2.825280	-8.905739	-1.762318	-0.538806	0.050468	-0.361481	0.003098	0.023052	-0.016684
1073	5.415481	0.005000	2.864520	-8.906303	-1.688497	-0.538806	0.049903	-0.361102	-0.003694	0.017851	-0.012018
1074	5.420481	0.005000	2.786195	-8.868395	-1.765800	-0.538806	0.049339	-0.360724	0.006942	0.014582	0.000743
1075	5.425481	0.005000	2.747615	-8.946312	-1.765800	-0.538806	0.048774	-0.360346	-0.002904	0.012506	-0.016390
1076	5.430481	0.005000	2.746800	-8.946720	-1.727985	-0.538806	0.048209	-0.359967	0.002760	0.017135	-0.017634
1077	5.435481	0.005000	2.822848	-9.025200	-1.608840	-0.538806	0.047645	-0.359589	0.005159	0.019232	-0.024714
1078	5.440481	0.005000	2.858469	-9.097629	-1.611866	-0.538806	0.047080	-0.359210	-0.004529	0.008089	-0.012147
1079	5.445481	0.005000	2.794065	-8.950732	-1.683308	-0.538806	0.046515	-0.358832	-0.008081	0.019435	-0.007348
1080	5.450481	0.005000	2.791075	-8.946720	-1.579669	-0.538806	0.045950	-0.358454	0.002132	0.014125	-0.009124
1081	5.455481	0.005000	2.864520	-9.053286	-1.687320	-0.538806	0.045386	-0.358075	-0.006061	0.017776	-0.005737
