# FOX Logger (IMU file)
# (c) INRIA 2011-2014
# File created from file sensbiotk output
#
# File format:
# id	t	dt	ax	ay	az	mx	my	mz	gx	gy	gz
#
# Units:
#	Time: s
#	Acceleration: m.s^-2
#	Magneto: gauss
#	Gyrometer: rad/s
#
1	0.060944	0.060944	9.158337	0.353160	2.393640	-0.741791	-0.347761	-0.348333	-0.012531	-0.009739	0.005045
2	0.065944	0.005000	9.168833	0.366487	2.288506	-0.742895	-0.348313	-0.347346	-0.018215	-0.002614	0.003585
3	0.070944	0.005000	9.153989	0.381331	2.236680	-0.744000	-0.348866	-0.346360	-0.011269	-0.007930	0.005811
4	0.075944	0.005000	9.134258	0.383738	2.293244	-0.745104	-0.349418	-0.345373	-0.015196	-0.006739	0.007541
5	0.080944	0.005000	9.045123	0.399041	2.354400	-0.746209	-0.349970	-0.344386	-0.014595	-0.009375	0.001165
6	0.085944	0.005000	9.182160	0.423036	2.419974	-0.747313	-0.350522	-0.343400	-0.008329	-0.010816	-0.006332
7	0.090944	0.005000	9.141022	0.394298	2.274022	-0.748418	-0.351075	-0.342413	-0.013036	-0.005955	-0.003403
8	0.095944	0.005000	9.025292	0.392446	2.275874	-0.749522	-0.351627	-0.341426	-0.015042	-0.014098	-0.001555
9	0.100944	0.005000	9.103680	0.392400	2.349472	-0.750627	-0.352179	-0.340440	-0.009855	-0.010198	-0.005501
10	0.105944	0.005000	9.138051	0.353160	2.374165	-0.751731	-0.352731	-0.339453	-0.003940	-0.015780	0.008176
11	0.110944	0.005000	9.021963	0.385199	2.187002	-0.752836	-0.353284	-0.338466	-0.007252	0.004815	-0.005978
12	0.115944	0.005000	9.094452	0.461652	2.315160	-0.753940	-0.353836	-0.337480	-0.007146	-0.004514	-0.008168
13	0.120944	0.005000	9.103680	0.380764	2.303524	-0.755045	-0.354388	-0.336493	-0.006960	-0.004283	0.000484
14	0.125944	0.005000	9.117567	0.367047	2.264454	-0.756149	-0.354941	-0.335506	-0.004842	-0.007474	-0.008780
15	0.130944	0.005000	9.110934	0.424386	2.158200	-0.756125	-0.354848	-0.335720	0.004469	-0.020091	-0.002910
16	0.135944	0.005000	9.145354	0.392400	2.218277	-0.754910	-0.354074	-0.337201	-0.012666	0.002067	0.006903
17	0.140944	0.005000	9.048380	0.390027	2.220620	-0.753695	-0.353301	-0.338681	-0.001049	-0.006355	0.007238
18	0.145944	0.005000	9.041492	0.408692	2.259628	-0.752480	-0.352528	-0.340161	-0.012689	0.000288	-0.000977
19	0.150944	0.005000	9.039280	0.403480	2.250760	-0.751265	-0.351755	-0.341641	-0.004093	-0.007256	-0.002187
20	0.155944	0.005000	9.060199	0.353160	2.248346	-0.750050	-0.350982	-0.343121	-0.005142	-0.009411	-0.000401
21	0.160944	0.005000	9.122892	0.431640	2.207046	-0.748835	-0.350209	-0.344601	-0.010560	0.000442	-0.005847
22	0.165944	0.005000	9.167698	0.424409	2.290382	-0.747620	-0.349435	-0.346081	-0.009707	-0.010582	0.012509
23	0.170944	0.005000	9.069339	0.436539	2.236680	-0.746405	-0.348662	-0.347561	-0.012343	0.003739	0.001668
24	0.175944	0.005000	9.064440	0.465891	2.278415	-0.745190	-0.347889	-0.349041	-0.005482	-0.011666	0.002893
25	0.180944	0.005000	9.103680	0.354249	2.314615	-0.743976	-0.347116	-0.350521	-0.019617	-0.010394	0.006501
26	0.185944	0.005000	9.066307	0.394267	2.275920	-0.742761	-0.346343	-0.352001	-0.013036	0.001883	-0.008807
27	0.190944	0.005000	9.177888	0.423097	2.385097	-0.741546	-0.345569	-0.353481	-0.015746	-0.013356	0.003084
28	0.195944	0.005000	9.084272	0.327141	2.315160	-0.740331	-0.344796	-0.354961	-0.020393	-0.007426	-0.004190
29	0.200944	0.005000	9.095048	0.344528	2.275920	-0.739869	-0.344238	-0.355240	-0.022115	-0.013658	0.005208
30	0.205944	0.005000	9.031324	0.392400	2.191316	-0.739427	-0.343686	-0.355487	-0.013661	-0.005882	-0.000928
31	0.210944	0.005000	9.142270	0.431640	2.275920	-0.738986	-0.343134	-0.355733	-0.015968	-0.008812	-0.002408
32	0.215944	0.005000	9.182160	0.447312	2.330953	-0.738544	-0.342582	-0.355980	-0.012443	-0.011711	0.003200
33	0.220944	0.005000	9.157076	0.406556	2.236680	-0.738102	-0.342030	-0.356226	-0.014917	-0.003161	0.000760
34	0.225944	0.005000	9.161951	0.450671	2.393640	-0.737661	-0.341478	-0.356473	-0.007821	-0.014050	0.000498
35	0.230944	0.005000	9.215924	0.476356	2.337518	-0.737219	-0.340926	-0.356719	-0.011046	0.002704	0.000002
36	0.235944	0.005000	9.157427	0.417133	2.339893	-0.736777	-0.340374	-0.356966	-0.006910	-0.008277	0.002917
37	0.240944	0.005000	9.130657	0.392400	2.290633	-0.736336	-0.339822	-0.357212	-0.008552	-0.008919	0.003366
38	0.245944	0.005000	8.936864	0.402256	2.226824	-0.735894	-0.339270	-0.357459	-0.009158	-0.011554	-0.005298
39	0.250944	0.005000	8.978139	0.353160	2.181662	-0.735452	-0.338718	-0.357705	-0.004222	-0.012291	0.015060
40	0.255944	0.005000	9.069936	0.353160	2.169193	-0.735011	-0.338166	-0.357952	-0.014844	0.002037	0.007126
41	0.260944	0.005000	9.070623	0.356251	2.266646	-0.734569	-0.337614	-0.358198	-0.003763	-0.012443	0.008100
42	0.265944	0.005000	9.143594	0.353834	2.355074	-0.734479	-0.337614	-0.358501	-0.002368	-0.000467	0.011430
43	0.270944	0.005000	9.144190	0.354430	2.279731	-0.734810	-0.338277	-0.358871	-0.007486	-0.006866	-0.003102
44	0.275944	0.005000	9.075463	0.353160	2.421857	-0.735141	-0.338940	-0.359241	-0.016122	-0.014579	0.020950
45	0.280944	0.005000	9.103680	0.419599	2.426859	-0.735473	-0.339602	-0.359611	-0.021063	-0.003042	0.004714
46	0.285944	0.005000	9.095284	0.423244	2.301107	-0.735804	-0.340265	-0.359981	-0.016124	-0.002392	0.012592
47	0.290944	0.005000	9.093243	0.392400	2.275920	-0.736135	-0.340928	-0.360351	-0.015317	0.007805	0.002741
48	0.295944	0.005000	9.038045	0.378850	2.328005	-0.736467	-0.341591	-0.360721	-0.012702	0.002116	-0.001532
49	0.300944	0.005000	9.200313	0.377318	2.432880	-0.736798	-0.342253	-0.361091	-0.017532	-0.004765	0.002428
50	0.305944	0.005000	9.277842	0.353160	2.293122	-0.737130	-0.342916	-0.361461	-0.015312	-0.006190	-0.000957
51	0.310944	0.005000	9.201772	0.392400	2.197440	-0.737461	-0.343579	-0.361831	-0.012976	-0.009521	0.017769
52	0.315944	0.005000	9.042672	0.388104	2.214912	-0.737792	-0.344242	-0.362201	-0.005054	0.008620	0.008883
53	0.320944	0.005000	9.073133	0.431640	2.212714	-0.738124	-0.344905	-0.362571	-0.009675	-0.013250	-0.001599
54	0.325944	0.005000	8.985960	0.510120	2.328679	-0.738455	-0.345567	-0.362941	-0.010120	-0.004828	0.004280
55	0.330944	0.005000	9.035986	0.488549	2.393640	-0.738787	-0.346230	-0.363311	-0.011255	-0.001299	-0.002972
56	0.335944	0.005000	9.120698	0.414622	2.393640	-0.738702	-0.346061	-0.363217	-0.010237	-0.007816	0.008122
57	0.340944	0.005000	9.142920	0.353160	2.300294	-0.738592	-0.345840	-0.363094	-0.017857	-0.006208	0.006499
58	0.345944	0.005000	9.178472	0.360537	2.275920	-0.738481	-0.345619	-0.362970	-0.005416	-0.000633	0.014095
59	0.350944	0.005000	9.139471	0.469155	2.200889	-0.738371	-0.345398	-0.362847	-0.014719	0.000098	0.003473
60	0.355944	0.005000	9.064440	0.470207	2.353053	-0.738260	-0.345178	-0.362724	-0.015369	-0.003873	0.006940
61	0.360944	0.005000	9.106721	0.392400	2.309079	-0.738150	-0.344957	-0.362601	-0.019853	0.003178	0.006902
62	0.365944	0.005000	9.142920	0.358576	2.388224	-0.738039	-0.344736	-0.362477	-0.006738	0.005617	-0.002509
63	0.370944	0.005000	9.174735	0.384975	2.354400	-0.737929	-0.344515	-0.362354	-0.005751	-0.010523	0.004966
64	0.375944	0.005000	9.123361	0.372719	2.373959	-0.737818	-0.344294	-0.362231	-0.012896	-0.007381	0.002086
65	0.380944	0.005000	9.157664	0.392400	2.393640	-0.737708	-0.344073	-0.362107	-0.008966	-0.011387	-0.003152
66	0.385944	0.005000	9.153176	0.328412	2.412367	-0.737597	-0.343852	-0.361984	-0.012512	0.001157	0.009774
67	0.390944	0.005000	9.187666	0.370027	2.259053	-0.737487	-0.343631	-0.361861	-0.013269	0.003062	0.002110
68	0.395944	0.005000	9.201175	0.412625	2.294935	-0.737376	-0.343410	-0.361738	-0.016337	-0.002023	0.001853
69	0.400944	0.005000	9.068052	0.374586	2.293734	-0.737218	-0.343237	-0.361403	-0.013504	-0.004060	-0.003150
70	0.405944	0.005000	8.938284	0.399366	2.330562	-0.736998	-0.343126	-0.360787	-0.010384	-0.000939	0.010596
71	0.410944	0.005000	9.064440	0.418343	2.353750	-0.736777	-0.343016	-0.360170	-0.017006	-0.004141	-0.004364
72	0.415944	0.005000	9.092630	0.353160	2.326210	-0.736556	-0.342905	-0.359554	-0.020825	-0.004563	-0.002203
73	0.420944	0.005000	9.090345	0.401035	2.432880	-0.736335	-0.342795	-0.358937	-0.019775	-0.007820	0.000748
74	0.425944	0.005000	9.057829	0.464269	2.315160	-0.736115	-0.342685	-0.358321	-0.008440	-0.004694	0.005533
75	0.430944	0.005000	9.029485	0.435925	2.315160	-0.735894	-0.342574	-0.357704	-0.009925	-0.016629	0.010120
76	0.435944	0.005000	8.991564	0.427904	2.399244	-0.735673	-0.342464	-0.357088	-0.010938	-0.004587	-0.005675
77	0.440944	0.005000	9.142391	0.353160	2.511360	-0.735452	-0.342353	-0.356472	-0.012577	-0.010984	-0.002072
78	0.445944	0.005000	9.142920	0.353160	2.399449	-0.735231	-0.342243	-0.355855	-0.011597	-0.011921	0.002321
79	0.450944	0.005000	9.142920	0.313920	2.241564	-0.735011	-0.342132	-0.355239	-0.013599	-0.015123	-0.000082
80	0.455944	0.005000	9.096464	0.417209	2.332753	-0.734790	-0.342022	-0.354622	-0.005236	-0.018010	0.016423
81	0.460944	0.005000	9.113271	0.500529	2.324751	-0.734569	-0.341912	-0.354006	-0.013604	-0.006048	0.002840
82	0.465944	0.005000	9.119618	0.431640	2.425516	-0.734348	-0.341801	-0.353389	-0.009366	-0.014762	0.001179
83	0.470944	0.005000	9.114791	0.445705	2.393640	-0.734328	-0.341891	-0.352660	-0.019001	-0.004750	-0.001755
84	0.475944	0.005000	9.119957	0.346474	2.259643	-0.734328	-0.342002	-0.351920	-0.009366	-0.010883	-0.004872
85	0.480944	0.005000	9.105586	0.452213	2.257253	-0.734328	-0.342112	-0.351180	-0.006259	-0.018631	0.009468
86	0.485944	0.005000	9.126927	0.431640	2.291913	-0.734328	-0.342223	-0.350440	-0.012995	-0.004613	-0.001205
87	0.490944	0.005000	9.166161	0.360402	2.306403	-0.734328	-0.342333	-0.349700	-0.009892	-0.014516	-0.001424
88	0.495944	0.005000	9.140500	0.341694	2.326626	-0.734328	-0.342444	-0.348960	-0.021561	-0.003916	-0.007977
89	0.500944	0.005000	9.036847	0.443287	2.220733	-0.734328	-0.342554	-0.348220	-0.016073	-0.009829	0.004773
90	0.505944	0.005000	9.124456	0.422408	2.225136	-0.734328	-0.342665	-0.347480	-0.018555	0.001929	0.010174
91	0.510944	0.005000	9.110881	0.367561	2.315160	-0.734328	-0.342775	-0.346740	-0.021491	-0.009506	-0.004313
92	0.515944	0.005000	9.108564	0.436524	2.462352	-0.734328	-0.342886	-0.346000	-0.016846	-0.008483	0.007872
93	0.520944	0.005000	9.096242	0.392400	2.351921	-0.734328	-0.342996	-0.345260	-0.013533	-0.009109	0.001794
94	0.525944	0.005000	9.025200	0.392522	2.472120	-0.734328	-0.343107	-0.344520	-0.007368	-0.018297	0.001431
95	0.530944	0.005000	9.025200	0.508238	2.509478	-0.734328	-0.343217	-0.343780	-0.019453	-0.015789	0.005622
96	0.535944	0.005000	9.025200	0.475167	2.437167	-0.734547	-0.343459	-0.343919	-0.016062	-0.015902	0.001367
97	0.540944	0.005000	9.031826	0.438266	2.432880	-0.735099	-0.343901	-0.345399	-0.015934	-0.011923	0.004830
98	0.545944	0.005000	9.095033	0.392400	2.284567	-0.735652	-0.344343	-0.346880	-0.015539	-0.008476	-0.009041
99	0.550944	0.005000	9.114734	0.431640	2.371532	-0.736204	-0.344785	-0.348361	-0.008372	-0.014050	-0.002508
100	0.555944	0.005000	9.064440	0.405868	2.380172	-0.736757	-0.345227	-0.349842	-0.011048	-0.000035	0.001265
101	0.560944	0.005000	9.087993	0.400266	2.307294	-0.737309	-0.345669	-0.351322	-0.007189	-0.015367	0.011489
102	0.565944	0.005000	9.028798	0.488701	2.261697	-0.737862	-0.346111	-0.352803	-0.005568	-0.001669	0.003853
103	0.570944	0.005000	9.124435	0.412398	2.334402	-0.738414	-0.346553	-0.354284	-0.013855	-0.007003	0.000256
104	0.575944	0.005000	9.165293	0.375533	2.315160	-0.738967	-0.346995	-0.355764	-0.000421	-0.017589	0.017666
105	0.580944	0.005000	9.157572	0.392400	2.339748	-0.739519	-0.347437	-0.357245	-0.011365	-0.005941	-0.003858
106	0.585944	0.005000	9.182160	0.313920	2.275920	-0.740072	-0.347879	-0.358726	-0.011907	-0.024028	0.011454
107	0.590944	0.005000	9.142920	0.313920	2.246861	-0.740624	-0.348321	-0.360207	-0.008577	-0.012146	0.002904
108	0.595944	0.005000	9.095783	0.321817	2.275920	-0.741177	-0.348763	-0.361687	0.002814	-0.013862	0.011788
109	0.600944	0.005000	9.080883	0.313920	2.202921	-0.741729	-0.349205	-0.363168	-0.007048	-0.007190	0.013794
110	0.605944	0.005000	9.107174	0.313920	2.347411	-0.741497	-0.349156	-0.363333	-0.015800	-0.005391	0.003929
111	0.610944	0.005000	9.144053	0.274680	2.198573	-0.741165	-0.349045	-0.363333	-0.012064	-0.012316	0.017269
112	0.615944	0.005000	9.144191	0.312649	2.236680	-0.740834	-0.348935	-0.363333	-0.015994	-0.003943	0.003833
113	0.620944	0.005000	9.100451	0.313920	2.197440	-0.740503	-0.348825	-0.363333	-0.012187	-0.008411	0.006523
114	0.625944	0.005000	9.064440	0.313920	2.259018	-0.740172	-0.348714	-0.363333	-0.016173	-0.001760	0.005585
115	0.630944	0.005000	9.150877	0.353160	2.299246	-0.739841	-0.348604	-0.363333	-0.025933	0.008954	-0.002788
116	0.635944	0.005000	9.122933	0.333173	2.305166	-0.739509	-0.348493	-0.363333	-0.023414	-0.008998	0.001227
117	0.640944	0.005000	9.128482	0.340759	2.341999	-0.739178	-0.348383	-0.363333	-0.024416	-0.000725	-0.004105
118	0.645944	0.005000	9.074051	0.392400	2.295938	-0.738847	-0.348272	-0.363333	-0.016384	-0.014553	0.006019
119	0.650944	0.005000	9.159938	0.375382	2.287734	-0.738516	-0.348162	-0.363333	-0.002166	-0.003989	0.007504
120	0.655944	0.005000	9.104583	0.372328	2.139032	-0.738184	-0.348052	-0.363333	-0.008411	-0.004450	-0.008752
121	0.660944	0.005000	9.139002	0.431640	2.215101	-0.737853	-0.347941	-0.363333	-0.013977	-0.006207	-0.000155
122	0.665944	0.005000	9.142920	0.407936	2.346231	-0.737522	-0.347831	-0.363333	-0.011176	-0.008451	-0.004151
123	0.670944	0.005000	9.103680	0.405319	2.328563	-0.737191	-0.347639	-0.363242	-0.001973	-0.012379	0.004253
124	0.675944	0.005000	9.047002	0.364061	2.315160	-0.736859	-0.347307	-0.362995	-0.007762	-0.005865	-0.006942
125	0.680944	0.005000	9.095186	0.392400	2.379882	-0.736528	-0.346976	-0.362749	-0.003957	-0.011206	-0.003952
126	0.685944	0.005000	9.057966	0.379451	2.334977	-0.736197	-0.346645	-0.362502	-0.007006	-0.007286	-0.002433
127	0.690944	0.005000	9.029334	0.353160	2.389506	-0.735865	-0.346313	-0.362255	-0.006602	-0.012919	-0.006697
128	0.695944	0.005000	9.100221	0.388941	2.350941	-0.735534	-0.345982	-0.362009	-0.007895	-0.024532	0.002251
129	0.700944	0.005000	8.986641	0.391039	2.237361	-0.735203	-0.345651	-0.361762	-0.006098	-0.015372	-0.002121
130	0.705944	0.005000	9.137655	0.436905	2.349135	-0.734872	-0.345320	-0.361515	-0.008768	-0.017514	0.004685
131	0.710944	0.005000	9.142920	0.392400	2.359437	-0.734540	-0.344988	-0.361269	-0.003145	-0.004287	-0.001694
132	0.715944	0.005000	9.135553	0.431640	2.354400	-0.734209	-0.344657	-0.361022	-0.003214	-0.003318	-0.008639
133	0.720944	0.005000	9.152934	0.431640	2.373884	-0.733878	-0.344326	-0.360775	-0.010129	-0.011472	0.002309
134	0.725944	0.005000	9.037004	0.392400	2.248484	-0.733546	-0.343994	-0.360529	-0.016533	-0.003357	-0.006493
135	0.730944	0.005000	9.075574	0.392400	2.354400	-0.733215	-0.343663	-0.360282	-0.005074	-0.015933	-0.002274
136	0.735944	0.005000	9.080868	0.346776	2.308776	-0.732884	-0.343332	-0.360036	-0.017946	-0.002556	-0.000476
137	0.740944	0.005000	9.066537	0.375926	2.375069	-0.733592	-0.343378	-0.359472	-0.022561	-0.003054	0.002780
138	0.745944	0.005000	9.082705	0.491855	2.375375	-0.734475	-0.343489	-0.358856	-0.018687	-0.003701	0.001684
139	0.750944	0.005000	9.103680	0.369286	2.354400	-0.735358	-0.343599	-0.358240	-0.019635	-0.015054	-0.003456
140	0.755944	0.005000	9.168248	0.367072	2.301248	-0.736242	-0.343710	-0.357623	-0.010905	-0.013216	0.016498
141	0.760944	0.005000	9.170662	0.459382	2.264422	-0.737125	-0.343820	-0.357007	-0.006275	-0.008128	-0.002139
142	0.765944	0.005000	8.985960	0.422201	2.275920	-0.738008	-0.343930	-0.356390	-0.011002	-0.012167	0.001216
143	0.770944	0.005000	9.000254	0.367454	2.261626	-0.738891	-0.344041	-0.355774	-0.014491	-0.001522	0.003077
144	0.775944	0.005000	9.064440	0.461418	2.310429	-0.739774	-0.344151	-0.355158	-0.007073	-0.002617	0.004180
145	0.780944	0.005000	9.064440	0.353160	2.320666	-0.740658	-0.344261	-0.354541	-0.013156	-0.010893	0.013053
146	0.785944	0.005000	9.103680	0.392022	2.393262	-0.741541	-0.344372	-0.353925	-0.023377	0.003719	0.005186
147	0.790944	0.005000	9.029271	0.390365	2.354400	-0.742424	-0.344482	-0.353309	-0.013855	-0.009281	0.011342
148	0.795944	0.005000	8.994734	0.357547	2.284694	-0.743307	-0.344592	-0.352692	-0.009414	-0.005191	0.006130
149	0.800944	0.005000	9.097296	0.340391	2.296007	-0.744190	-0.344703	-0.352076	-0.012343	-0.007395	0.004964
150	0.805944	0.005000	9.146960	0.331520	2.267120	-0.744553	-0.344664	-0.351875	-0.020963	-0.010669	0.016007
151	0.810944	0.005000	9.182160	0.313920	2.315160	-0.743890	-0.344333	-0.352491	-0.009862	-0.008581	0.000935
152	0.815944	0.005000	9.169009	0.431640	2.249831	-0.743227	-0.344002	-0.353108	-0.006758	-0.017267	0.017818
153	0.820944	0.005000	9.040755	0.470880	2.323290	-0.742565	-0.343670	-0.353725	-0.016601	0.007707	0.003362
154	0.825944	0.005000	9.042959	0.370919	2.354400	-0.741902	-0.343339	-0.354341	-0.016284	-0.001164	0.006669
155	0.830944	0.005000	9.083769	0.353160	2.315742	-0.741239	-0.343008	-0.354958	-0.018287	-0.000070	-0.004835
156	0.835944	0.005000	9.064440	0.375482	2.275920	-0.740577	-0.342677	-0.355575	-0.014067	-0.004887	-0.000305
157	0.840944	0.005000	9.103680	0.392400	2.339427	-0.739914	-0.342345	-0.356191	-0.011956	-0.002833	0.012871
158	0.845944	0.005000	9.077005	0.365725	2.327725	-0.739251	-0.342014	-0.356808	-0.018087	0.006470	0.000567
159	0.850944	0.005000	9.145673	0.363658	2.372643	-0.738589	-0.341683	-0.357425	-0.018298	-0.002334	0.001917
160	0.855944	0.005000	9.134812	0.361268	2.338184	-0.737926	-0.341351	-0.358041	-0.018249	0.002253	0.007730
161	0.860944	0.005000	9.115281	0.392400	2.348600	-0.737263	-0.341020	-0.358658	-0.009178	-0.001763	0.005935
162	0.865944	0.005000	9.146304	0.431640	2.340866	-0.736601	-0.340689	-0.359275	-0.012808	-0.001057	0.001485
163	0.870944	0.005000	8.910324	0.353160	2.156778	-0.735938	-0.340357	-0.359891	-0.014445	-0.002983	-0.001327
164	0.875944	0.005000	9.024235	0.314885	2.080685	-0.736458	-0.341027	-0.357359	-0.017779	-0.004635	0.018347
165	0.880944	0.005000	9.093651	0.349817	2.118960	-0.737231	-0.341910	-0.354152	-0.006818	0.000502	0.008405
166	0.885944	0.005000	9.166182	0.426314	2.275920	-0.738004	-0.342794	-0.350946	-0.005542	-0.002709	0.005859
167	0.890944	0.005000	9.158377	0.400129	2.221223	-0.738777	-0.343677	-0.347739	-0.008836	-0.004579	0.015852
168	0.895944	0.005000	9.045228	0.363174	2.334372	-0.739550	-0.344561	-0.344532	-0.015932	-0.010530	-0.001604
169	0.900944	0.005000	8.985960	0.380320	2.354400	-0.740324	-0.345445	-0.341325	-0.013462	-0.009258	0.006201
170	0.905944	0.005000	9.000453	0.392400	2.418387	-0.741097	-0.346328	-0.338119	-0.021657	-0.003792	0.001861
171	0.910944	0.005000	8.985960	0.414940	2.393640	-0.741870	-0.347212	-0.334912	-0.017978	-0.020745	0.010044
172	0.915944	0.005000	9.084833	0.452033	2.316706	-0.742643	-0.348095	-0.331705	-0.021625	-0.011990	0.010956
173	0.920944	0.005000	9.085698	0.413658	2.336418	-0.743416	-0.348979	-0.328499	-0.021055	-0.004971	0.006237
174	0.925944	0.005000	9.150453	0.478413	2.370253	-0.744189	-0.349863	-0.325292	-0.025775	-0.003922	0.010719
175	0.930944	0.005000	9.076428	0.457254	2.328786	-0.744963	-0.350746	-0.322085	-0.025697	-0.016603	0.009185
176	0.935944	0.005000	8.997178	0.381182	2.326378	-0.745736	-0.351630	-0.318878	-0.027207	-0.019049	0.014158
177	0.940944	0.005000	9.025200	0.461713	2.342661	-0.746646	-0.352376	-0.316897	-0.024737	-0.011526	0.014065
178	0.945944	0.005000	9.103680	0.445358	2.400499	-0.747862	-0.352818	-0.317637	-0.026255	-0.024323	0.021322
179	0.950944	0.005000	9.077801	0.540453	2.423973	-0.749077	-0.353260	-0.318378	-0.024624	-0.019552	0.011409
180	0.955944	0.005000	9.106161	0.468399	2.430399	-0.750293	-0.353702	-0.319118	-0.011514	-0.013633	0.013064
181	0.960944	0.005000	9.182068	0.392492	2.354308	-0.751508	-0.354144	-0.319858	-0.005212	-0.018511	0.011867
182	0.965944	0.005000	9.105964	0.394684	2.389072	-0.752724	-0.354586	-0.320599	-0.003434	-0.009245	0.003144
183	0.970944	0.005000	9.020945	0.357415	2.327924	-0.753939	-0.355028	-0.321339	-0.002659	-0.031154	0.012811
184	0.975944	0.005000	9.051120	0.399060	2.412900	-0.755155	-0.355470	-0.322079	-0.009018	-0.017076	0.006898
185	0.980944	0.005000	9.012871	0.313920	2.297219	-0.756370	-0.355912	-0.322820	0.001991	-0.027411	-0.000087
186	0.985944	0.005000	8.996979	0.313920	2.308977	-0.757586	-0.356354	-0.323560	-0.003969	-0.027338	0.016033
187	0.990944	0.005000	9.051173	0.353160	2.393080	-0.758801	-0.356796	-0.324300	-0.004748	-0.021339	0.005356
188	0.995944	0.005000	9.056710	0.329577	2.283650	-0.760017	-0.357238	-0.325041	-0.009292	-0.035573	0.005270
189	1.000944	0.005000	9.082223	0.374617	2.293703	-0.761233	-0.357680	-0.325781	-0.008695	-0.022623	-0.004439
190	1.005944	0.005000	9.083486	0.315068	2.275920	-0.762448	-0.358122	-0.326521	0.010417	-0.037328	0.006008
191	1.010944	0.005000	9.115131	0.313920	2.158200	-0.761356	-0.357499	-0.328153	0.000616	-0.023288	0.003392
192	1.015944	0.005000	9.211544	0.274680	2.319996	-0.759699	-0.356616	-0.330003	-0.001369	-0.022198	-0.000876
193	1.020944	0.005000	9.211525	0.277084	2.248959	-0.758042	-0.355732	-0.331853	-0.006043	-0.018970	-0.001016
194	1.025944	0.005000	9.151527	0.334342	2.139382	-0.756386	-0.354848	-0.333703	-0.009539	-0.015835	-0.016234
195	1.030944	0.005000	9.088223	0.353160	2.189512	-0.754729	-0.353965	-0.335553	-0.006175	-0.017601	-0.019525
196	1.035944	0.005000	9.187685	0.319445	2.130010	-0.753072	-0.353081	-0.337404	-0.009087	-0.010967	-0.016921
197	1.040944	0.005000	9.171541	0.388860	2.090339	-0.751415	-0.352198	-0.339254	-0.003150	-0.021485	-0.017061
198	1.045944	0.005000	9.141770	0.354310	2.235530	-0.749759	-0.351314	-0.341104	0.004449	-0.022974	-0.013142
199	1.050944	0.005000	9.179680	0.354400	2.273440	-0.748102	-0.350430	-0.342954	-0.007608	-0.014670	-0.021686
200	1.055944	0.005000	9.150151	0.317535	2.236680	-0.746445	-0.349547	-0.344804	-0.005468	-0.016240	-0.017022
201	1.060944	0.005000	9.070430	0.307930	2.242670	-0.744788	-0.348663	-0.346654	-0.000665	-0.009697	-0.024883
202	1.065944	0.005000	8.962734	0.282687	2.244687	-0.743132	-0.347780	-0.348504	-0.000561	-0.012580	-0.021565
203	1.070944	0.005000	9.082836	0.313920	2.236680	-0.741475	-0.346896	-0.350354	-0.004879	-0.006240	-0.025791
204	1.075944	0.005000	9.050860	0.248270	2.131790	-0.740267	-0.346205	-0.351739	0.000043	-0.003815	-0.030929
205	1.080944	0.005000	9.127853	0.274680	2.046440	-0.740157	-0.345984	-0.351985	0.006980	-0.012502	-0.027511
206	1.085944	0.005000	9.093947	0.235440	2.158200	-0.740046	-0.345763	-0.352232	-0.003593	-0.003617	-0.038540
207	1.090944	0.005000	9.064394	0.176511	2.197440	-0.739936	-0.345543	-0.352478	-0.005958	-0.009463	-0.033506
208	1.095944	0.005000	9.142920	0.270414	2.136447	-0.739825	-0.345322	-0.352725	-0.015942	-0.007482	-0.039847
209	1.100944	0.005000	9.142920	0.220151	2.173489	-0.739715	-0.345101	-0.352971	-0.022148	-0.009744	-0.044452
210	1.105944	0.005000	9.195036	0.313920	2.315160	-0.739604	-0.344880	-0.353218	-0.013316	0.005924	-0.040501
211	1.110944	0.005000	9.199768	0.267888	2.247496	-0.739494	-0.344659	-0.353464	-0.025431	0.006478	-0.036861
212	1.115944	0.005000	9.103680	0.361688	2.292976	-0.739383	-0.344439	-0.353711	-0.024484	-0.001185	-0.030481
213	1.120944	0.005000	9.176038	0.386278	2.203562	-0.739273	-0.344218	-0.353957	-0.018922	0.013320	-0.037263
214	1.125944	0.005000	9.025200	0.396530	2.201570	-0.739163	-0.343997	-0.354204	-0.015864	0.003375	-0.040829
215	1.130944	0.005000	8.989439	0.429900	2.200919	-0.739052	-0.343776	-0.354450	-0.011568	0.013037	-0.034615
216	1.135944	0.005000	9.103037	0.353803	2.314517	-0.738942	-0.343555	-0.354697	-0.011510	0.008736	-0.047752
217	1.140944	0.005000	9.251564	0.431640	2.275920	-0.738831	-0.343335	-0.354943	-0.008466	0.003264	-0.041137
218	1.145944	0.005000	9.103680	0.460871	2.197440	-0.738380	-0.343369	-0.355190	-0.019525	0.014664	-0.040392
219	1.150944	0.005000	9.111090	0.407220	2.315160	-0.737828	-0.343480	-0.355437	0.000247	-0.009703	-0.033386
220	1.155944	0.005000	9.182160	0.500408	2.334977	-0.737275	-0.343590	-0.355684	-0.006757	-0.003655	-0.026635
221	1.160944	0.005000	9.100700	0.458793	2.351420	-0.736723	-0.343701	-0.355930	0.000407	-0.002810	-0.041945
222	1.165944	0.005000	9.000137	0.431640	2.393640	-0.736170	-0.343811	-0.356177	0.004581	-0.004750	-0.031627
223	1.170944	0.005000	9.025200	0.470880	2.331750	-0.735617	-0.343921	-0.356424	-0.006683	0.002085	-0.031184
224	1.175944	0.005000	8.967187	0.530587	2.313466	-0.735065	-0.344032	-0.356671	0.004185	-0.006303	-0.023103
225	1.180944	0.005000	9.046144	0.606896	2.396289	-0.734512	-0.344142	-0.356918	-0.009535	-0.011765	-0.019171
226	1.185944	0.005000	9.017744	0.604492	2.432880	-0.733960	-0.344253	-0.357164	-0.010995	-0.019243	-0.016390
227	1.190944	0.005000	9.050957	0.588600	2.328643	-0.733407	-0.344363	-0.357411	-0.014907	-0.004214	-0.009431
228	1.195944	0.005000	9.052901	0.560899	2.483659	-0.732855	-0.344474	-0.357658	-0.007964	-0.004925	-0.014634
229	1.200944	0.005000	8.995085	0.567610	2.520485	-0.732302	-0.344584	-0.357905	-0.006241	-0.017097	-0.002819
230	1.205944	0.005000	8.914199	0.641277	2.518079	-0.731750	-0.344695	-0.358151	-0.019764	-0.008260	-0.011511
231	1.210944	0.005000	8.942000	0.632560	2.501921	-0.731401	-0.344805	-0.358431	-0.021417	-0.016900	-0.004887
232	1.215944	0.005000	8.912196	0.703962	2.317518	-0.731622	-0.344916	-0.358801	-0.025407	-0.013596	0.005560
233	1.220944	0.005000	9.025155	0.706275	2.432789	-0.731843	-0.345026	-0.359171	-0.027494	-0.016692	0.000102
234	1.225944	0.005000	9.062450	0.704330	2.395630	-0.732064	-0.345137	-0.359541	-0.021229	-0.018568	0.014081
235	1.230944	0.005000	8.994775	0.667080	2.363215	-0.732285	-0.345247	-0.359911	-0.010924	-0.017063	0.009544
236	1.235944	0.005000	9.057708	0.752292	2.294965	-0.732506	-0.345358	-0.360281	-0.009726	-0.029181	0.018862
237	1.240944	0.005000	9.064440	0.684595	2.262952	-0.732727	-0.345468	-0.360651	-0.016231	-0.014575	0.022417
238	1.245944	0.005000	9.036372	0.571704	2.247852	-0.732948	-0.345579	-0.361021	-0.012325	-0.033713	0.027464
239	1.250944	0.005000	9.025200	0.497716	2.170604	-0.733168	-0.345689	-0.361391	-0.000772	-0.027582	0.024847
240	1.255944	0.005000	9.079965	0.549360	2.204774	-0.733389	-0.345800	-0.361761	-0.005851	-0.018912	0.017269
241	1.260944	0.005000	9.028584	0.528048	2.215368	-0.733610	-0.345910	-0.362131	-0.005413	-0.023386	0.031016
242	1.265944	0.005000	9.142920	0.491952	2.178304	-0.733831	-0.346020	-0.362501	-0.005846	-0.015030	0.028769
243	1.270944	0.005000	9.069766	0.431640	2.175157	-0.734052	-0.346131	-0.362871	0.007414	-0.032154	0.037332
244	1.275944	0.005000	9.049895	0.338615	2.104415	-0.734273	-0.346241	-0.363241	-0.007026	-0.019493	0.036849
245	1.280944	0.005000	9.103680	0.313920	2.158200	-0.734411	-0.346020	-0.363148	-0.003613	-0.020615	0.029320
246	1.285944	0.005000	9.074515	0.353160	2.079720	-0.734521	-0.345689	-0.362901	-0.006950	-0.021688	0.032066
247	1.290944	0.005000	9.072218	0.360938	2.165978	-0.734632	-0.345358	-0.362655	-0.015882	-0.026192	0.022678
248	1.295944	0.005000	9.109052	0.387028	2.158200	-0.734742	-0.345026	-0.362408	-0.009411	-0.020162	0.035627
249	1.300944	0.005000	9.260640	0.392400	2.164110	-0.734853	-0.344695	-0.362161	-0.020194	-0.002107	0.019440
250	1.305944	0.005000	9.220402	0.353160	2.236680	-0.734963	-0.344363	-0.361915	-0.006641	-0.004236	0.023170
251	1.310944	0.005000	9.106466	0.353160	2.160986	-0.735074	-0.344032	-0.361668	-0.013878	-0.004454	0.032452
252	1.315944	0.005000	9.225167	0.388633	2.264620	-0.735184	-0.343701	-0.361421	-0.016176	-0.011812	0.019068
253	1.320944	0.005000	9.103680	0.246949	2.292142	-0.735295	-0.343369	-0.361175	-0.003445	-0.012794	0.024380
254	1.325944	0.005000	9.103680	0.305760	2.275920	-0.735405	-0.343038	-0.360928	-0.017911	-0.004679	0.009638
255	1.330944	0.005000	9.132345	0.303345	2.140110	-0.735516	-0.342706	-0.360681	-0.006730	-0.006984	0.016481
256	1.335944	0.005000	9.103680	0.313920	2.275920	-0.735626	-0.342375	-0.360435	-0.007541	-0.007226	0.011242
257	1.340944	0.005000	9.176635	0.274680	2.197440	-0.735737	-0.342044	-0.360188	-0.020230	-0.008300	-0.005640
258	1.345944	0.005000	9.225978	0.296589	2.180109	-0.735769	-0.341843	-0.360029	-0.006298	-0.010004	0.006658
259	1.350944	0.005000	9.142920	0.215926	2.276132	-0.735548	-0.342064	-0.360153	-0.009743	0.000657	-0.003367
260	1.355944	0.005000	9.168738	0.252994	2.340978	-0.735327	-0.342285	-0.360276	-0.009767	-0.006947	-0.003061
261	1.360944	0.005000	9.040342	0.259538	2.203625	-0.735106	-0.342506	-0.360400	-0.014789	0.001394	-0.003813
262	1.365944	0.005000	9.169120	0.300880	2.275920	-0.734885	-0.342727	-0.360523	-0.020268	-0.006679	-0.004680
263	1.370944	0.005000	9.192949	0.353160	2.293581	-0.734664	-0.342948	-0.360646	-0.014137	-0.000148	-0.003700
264	1.375944	0.005000	9.221400	0.375651	2.261804	-0.734443	-0.343169	-0.360770	-0.017490	0.000599	-0.015151
265	1.380944	0.005000	9.097327	0.307567	2.328986	-0.734222	-0.343390	-0.360893	-0.015361	-0.013118	0.002053
266	1.385944	0.005000	9.072490	0.427615	2.103870	-0.734001	-0.343611	-0.361017	-0.013150	0.004762	-0.014612
267	1.390944	0.005000	9.105288	0.392400	2.280743	-0.733780	-0.343832	-0.361140	-0.002453	-0.019030	-0.023189
268	1.395944	0.005000	9.104467	0.392400	2.355187	-0.733559	-0.344053	-0.361263	-0.017609	0.002368	-0.015289
269	1.400944	0.005000	9.103680	0.426159	2.315160	-0.733338	-0.344274	-0.361387	-0.012281	-0.000483	-0.022766
270	1.405944	0.005000	8.967111	0.465782	2.437978	-0.733117	-0.344495	-0.361510	-0.005257	-0.008488	-0.012698
271	1.410944	0.005000	9.128743	0.424551	2.386551	-0.732896	-0.344716	-0.361634	-0.011372	-0.003440	-0.021617
272	1.415944	0.005000	8.995464	0.431640	2.344896	-0.733239	-0.344534	-0.361667	-0.006739	-0.000821	-0.016474
273	1.420944	0.005000	8.997729	0.447342	2.248449	-0.733792	-0.344203	-0.361667	-0.007231	-0.002356	-0.024011
274	1.425944	0.005000	9.000119	0.456721	2.225758	-0.734344	-0.343871	-0.361667	-0.008389	-0.009021	-0.020388
275	1.430944	0.005000	9.087412	0.392400	2.236680	-0.734896	-0.343540	-0.361667	-0.002944	-0.011305	-0.014013
276	1.435944	0.005000	9.060674	0.513886	2.197440	-0.735448	-0.343209	-0.361667	-0.004666	-0.022190	-0.013796
277	1.440944	0.005000	9.064440	0.528515	2.273469	-0.736001	-0.342877	-0.361667	-0.000953	-0.024555	-0.008308
278	1.445944	0.005000	9.071266	0.487087	2.259713	-0.736553	-0.342546	-0.361667	-0.005897	-0.009116	-0.010784
279	1.450944	0.005000	9.050646	0.535566	2.407434	-0.737105	-0.342215	-0.361667	-0.001814	-0.013839	-0.018915
280	1.455944	0.005000	9.041667	0.537974	2.236680	-0.737658	-0.341884	-0.361667	0.007958	-0.013887	0.001116
281	1.460944	0.005000	9.004627	0.530693	2.236680	-0.738210	-0.341552	-0.361667	-0.003021	-0.013872	-0.011931
282	1.465944	0.005000	9.096653	0.477907	2.204467	-0.738762	-0.341221	-0.361667	-0.004114	-0.022702	0.002861
283	1.470944	0.005000	9.055196	0.427018	2.275920	-0.739314	-0.340890	-0.361667	-0.006750	-0.015416	0.000483
284	1.475944	0.005000	9.025200	0.468675	2.271511	-0.739867	-0.340558	-0.361667	-0.004497	-0.021627	0.000516
285	1.480944	0.005000	9.102909	0.549103	2.158457	-0.740251	-0.340347	-0.361694	-0.006122	-0.005459	-0.006412
286	1.485944	0.005000	8.985960	0.510120	2.197440	-0.740030	-0.340568	-0.361817	-0.015113	-0.002872	-0.007470
287	1.490944	0.005000	8.985960	0.475373	2.049466	-0.739809	-0.340789	-0.361940	-0.008529	-0.009212	0.007213
288	1.495944	0.005000	9.129937	0.569125	2.040480	-0.739588	-0.341010	-0.362064	-0.011648	0.003488	-0.004057
289	1.500944	0.005000	9.134013	0.549360	2.058294	-0.739367	-0.341231	-0.362187	-0.006021	-0.010761	0.011915
290	1.505944	0.005000	9.086798	0.510120	2.158200	-0.739146	-0.341451	-0.362310	-0.014050	0.001330	0.009619
291	1.510944	0.005000	9.025200	0.470880	2.093289	-0.738925	-0.341672	-0.362433	-0.012564	-0.011951	0.003674
292	1.515944	0.005000	9.048768	0.470880	2.189665	-0.738704	-0.341893	-0.362557	-0.018672	0.007535	0.011696
293	1.520944	0.005000	9.121761	0.431640	2.158200	-0.738483	-0.342114	-0.362680	-0.015798	0.009636	0.009163
294	1.525944	0.005000	9.026471	0.470880	2.137945	-0.738262	-0.342335	-0.362803	-0.012056	-0.003328	0.008019
295	1.530944	0.005000	9.081244	0.431640	2.180636	-0.738041	-0.342556	-0.362927	-0.015462	0.008816	0.016216
296	1.535944	0.005000	9.128528	0.446032	2.158200	-0.737820	-0.342777	-0.363050	-0.007188	0.003821	0.015622
297	1.540944	0.005000	9.012902	0.431640	2.224382	-0.737599	-0.342998	-0.363173	-0.015240	0.012217	0.008323
298	1.545944	0.005000	8.996000	0.421600	2.275920	-0.737378	-0.343219	-0.363297	-0.026032	0.005210	0.004834
299	1.550944	0.005000	9.135296	0.377151	2.298793	-0.737080	-0.343206	-0.363073	-0.014017	0.010231	0.011858
300	1.555944	0.005000	9.176941	0.313920	2.377984	-0.736748	-0.343096	-0.362703	-0.012006	0.009297	-0.002323
301	1.560944	0.005000	9.146196	0.310644	2.347847	-0.736417	-0.342985	-0.362332	-0.019211	0.005630	0.014870
302	1.565944	0.005000	9.222272	0.470008	2.235808	-0.736086	-0.342875	-0.361962	-0.015966	0.017104	0.006845
303	1.570944	0.005000	9.146135	0.393472	2.159272	-0.735755	-0.342764	-0.361592	-0.017301	0.001362	0.007763
304	1.575944	0.005000	9.178671	0.388911	2.275920	-0.735423	-0.342654	-0.361222	-0.014902	0.008666	0.006106
305	1.580944	0.005000	9.070264	0.347336	2.381992	-0.735092	-0.342543	-0.360852	-0.015981	0.000942	0.004455
306	1.585944	0.005000	9.119358	0.384561	2.417156	-0.734761	-0.342433	-0.360482	-0.014064	0.002165	0.014952
307	1.590944	0.005000	9.025200	0.411132	2.403894	-0.734429	-0.342322	-0.360112	-0.015530	0.006439	0.004464
308	1.595944	0.005000	9.117900	0.365670	2.288430	-0.734098	-0.342212	-0.359742	-0.010581	-0.007910	0.009914
309	1.600944	0.005000	9.132892	0.338554	2.364428	-0.733767	-0.342101	-0.359372	-0.011871	0.004551	0.010784
310	1.605944	0.005000	9.064440	0.375382	2.398843	-0.733435	-0.341991	-0.359002	-0.007541	0.003957	0.004513
311	1.610944	0.005000	9.104527	0.412444	2.355247	-0.733104	-0.341880	-0.358632	-0.013186	-0.001475	0.003627
312	1.615944	0.005000	9.046573	0.510120	2.472120	-0.732857	-0.341896	-0.358380	-0.014805	-0.006126	0.000472
313	1.620944	0.005000	9.088223	0.478012	2.378183	-0.732967	-0.342449	-0.358627	-0.010554	-0.005304	-0.001213
314	1.625944	0.005000	9.155445	0.418283	2.288445	-0.733078	-0.343001	-0.358874	-0.015851	-0.005175	-0.000691
315	1.630944	0.005000	9.025200	0.364260	2.332200	-0.733188	-0.343553	-0.359120	-0.005516	-0.002785	0.004672
316	1.635944	0.005000	8.977264	0.370552	2.332552	-0.733299	-0.344105	-0.359367	-0.011844	-0.001618	0.007703
317	1.640944	0.005000	8.998540	0.398690	2.399930	-0.733409	-0.344658	-0.359614	-0.012542	-0.002506	0.002809
318	1.645944	0.005000	9.090792	0.431640	2.432880	-0.733520	-0.345210	-0.359860	-0.010240	-0.009453	0.008087
319	1.650944	0.005000	9.064440	0.392400	2.319018	-0.733630	-0.345762	-0.360107	-0.013645	-0.000156	0.001560
320	1.655944	0.005000	9.064440	0.353629	2.393640	-0.733740	-0.346315	-0.360354	-0.005984	-0.015222	0.016126
321	1.660944	0.005000	9.103680	0.355579	2.435299	-0.733851	-0.346867	-0.360601	-0.008686	-0.011149	0.003532
322	1.665944	0.005000	9.069276	0.397236	2.251188	-0.733961	-0.347419	-0.360847	-0.004925	-0.014133	-0.004617
323	1.670944	0.005000	9.128610	0.392400	2.275920	-0.734072	-0.347971	-0.361094	-0.007290	-0.013080	0.012243
324	1.675944	0.005000	9.112866	0.470880	2.305974	-0.734182	-0.348524	-0.361341	-0.000482	-0.007535	0.001236
325	1.680944	0.005000	9.131319	0.431640	2.287521	-0.734292	-0.349076	-0.361587	-0.001980	-0.015111	0.007021
326	1.685944	0.005000	9.170603	0.457039	2.303603	-0.734104	-0.348805	-0.361249	-0.010257	-0.000571	-0.002524
327	1.690944	0.005000	9.103680	0.461425	2.282697	-0.733772	-0.348142	-0.360632	0.005022	-0.010711	0.002863
328	1.695944	0.005000	9.103680	0.549360	2.236680	-0.733441	-0.347480	-0.360016	-0.008142	-0.010577	0.011441
329	1.700944	0.005000	9.060809	0.412928	2.253577	-0.733110	-0.346817	-0.359399	-0.009167	-0.009073	-0.005185
330	1.705944	0.005000	9.087160	0.392400	2.259400	-0.732778	-0.346154	-0.358782	-0.015374	-0.015673	0.010697
331	1.710944	0.005000	9.064440	0.392400	2.197440	-0.732447	-0.345492	-0.358165	-0.019527	-0.012835	-0.000493
332	1.715944	0.005000	9.013174	0.404426	2.197440	-0.732116	-0.344829	-0.357549	-0.016481	-0.014922	0.005927
333	1.720944	0.005000	9.083968	0.392400	2.285868	-0.731784	-0.344166	-0.356932	-0.016389	-0.002802	0.014146
334	1.725944	0.005000	9.150269	0.392400	2.339702	-0.731453	-0.343503	-0.356315	-0.018864	-0.010290	-0.002547
335	1.730944	0.005000	9.098737	0.392400	2.251204	-0.731122	-0.342841	-0.355699	-0.013857	-0.015164	0.004961
336	1.735944	0.005000	9.103680	0.356125	2.230750	-0.730790	-0.342178	-0.355082	-0.020649	-0.004103	-0.003456
337	1.740944	0.005000	9.141770	0.431065	2.196865	-0.730459	-0.341515	-0.354465	-0.013419	-0.006208	0.013007
338	1.745944	0.005000	9.176694	0.429818	2.270454	-0.730128	-0.340853	-0.353848	-0.015678	0.004602	0.002996
339	1.750944	0.005000	9.170861	0.392400	2.354400	-0.730033	-0.340444	-0.353029	-0.005391	-0.007304	0.003161
340	1.755944	0.005000	9.215217	0.353160	2.249046	-0.731137	-0.341328	-0.351179	-0.016951	-0.003680	0.002985
341	1.760944	0.005000	9.112166	0.330893	2.188954	-0.732242	-0.342211	-0.349329	-0.016856	-0.005256	-0.003281
342	1.765944	0.005000	9.103680	0.353160	2.129493	-0.733346	-0.343095	-0.347479	-0.013349	-0.018835	0.007989
343	1.770944	0.005000	9.064838	0.366107	2.224131	-0.734450	-0.343979	-0.345629	-0.013313	-0.000094	0.000898
344	1.775944	0.005000	9.088324	0.479408	2.260564	-0.735555	-0.344862	-0.343779	-0.009772	-0.019542	0.005508
345	1.780944	0.005000	9.129517	0.388255	2.297612	-0.736659	-0.345746	-0.341929	-0.019799	-0.002182	0.001374
346	1.785944	0.005000	9.025368	0.333456	2.295793	-0.737764	-0.346629	-0.340079	-0.007685	-0.003913	-0.007041
347	1.790944	0.005000	9.047315	0.392400	2.293045	-0.738868	-0.347513	-0.338229	-0.017179	-0.001526	0.004052
348	1.795944	0.005000	9.073668	0.368166	2.309381	-0.739973	-0.348396	-0.336378	-0.015094	-0.000898	-0.006462
349	1.800944	0.005000	9.077209	0.365929	2.248515	-0.741077	-0.349280	-0.334528	-0.017470	-0.006834	0.005808
350	1.805944	0.005000	9.182160	0.392400	2.286281	-0.742182	-0.350164	-0.332678	-0.008298	0.004043	-0.004123
351	1.810944	0.005000	9.126280	0.392400	2.267600	-0.743286	-0.351047	-0.330828	-0.005668	-0.016981	0.004026
352	1.815944	0.005000	9.136918	0.319922	2.248683	-0.744391	-0.351931	-0.328978	-0.020580	-0.008152	0.001741
353	1.820944	0.005000	9.103680	0.388804	2.343611	-0.744488	-0.351951	-0.329538	-0.009918	-0.015712	-0.007263
354	1.825944	0.005000	9.105314	0.392400	2.349499	-0.744047	-0.351510	-0.331388	-0.010945	-0.009564	0.000255
355	1.830944	0.005000	9.104445	0.392400	2.236680	-0.743605	-0.351068	-0.333238	-0.012501	0.000462	-0.002652
356	1.835944	0.005000	9.028331	0.536835	2.282183	-0.743163	-0.350626	-0.335088	-0.008596	-0.007198	-0.000773
357	1.840944	0.005000	8.912594	0.475994	2.310046	-0.742721	-0.350184	-0.336938	-0.001645	-0.003677	0.000434
358	1.845944	0.005000	9.127861	0.478410	2.275920	-0.742279	-0.349742	-0.338788	-0.006757	-0.007098	0.000038
359	1.850944	0.005000	9.172342	0.431640	2.226862	-0.741838	-0.349301	-0.340638	-0.006043	-0.007768	0.003002
360	1.855944	0.005000	9.142920	0.482756	2.158200	-0.741396	-0.348859	-0.342488	-0.010939	-0.001166	-0.002944
361	1.860944	0.005000	9.064440	0.392400	2.193827	-0.740954	-0.348417	-0.344338	-0.012019	-0.016212	0.001925
362	1.865944	0.005000	9.080944	0.470880	2.304889	-0.740512	-0.347975	-0.346188	-0.016136	0.001986	0.003593
363	1.870944	0.005000	9.126238	0.450281	2.255321	-0.740070	-0.347533	-0.348038	-0.010277	-0.008862	-0.004873
364	1.875944	0.005000	9.121868	0.395263	2.218492	-0.739629	-0.347092	-0.349888	-0.002484	-0.002823	0.004878
365	1.880944	0.005000	9.150060	0.408450	2.165340	-0.739187	-0.346650	-0.351738	-0.011191	0.007836	-0.002139
366	1.885944	0.005000	9.103680	0.473145	2.197440	-0.738776	-0.346239	-0.353401	-0.009391	-0.004892	0.016510
367	1.890944	0.005000	9.002357	0.498699	2.208861	-0.738555	-0.346018	-0.353894	-0.014573	0.007008	0.008997
368	1.895944	0.005000	9.073804	0.461516	2.100233	-0.738334	-0.345797	-0.354388	-0.009834	-0.003964	0.011436
369	1.900944	0.005000	9.103680	0.392400	2.236680	-0.738113	-0.345576	-0.354881	-0.016251	0.000959	0.006473
370	1.905944	0.005000	9.073749	0.431640	2.158200	-0.737892	-0.345355	-0.355375	-0.026724	0.000555	0.005421
371	1.910944	0.005000	9.174127	0.434318	2.202795	-0.737671	-0.345134	-0.355868	-0.014372	0.001359	0.007683
372	1.915944	0.005000	9.103680	0.471186	2.315160	-0.737450	-0.344913	-0.356361	-0.015505	0.005150	0.002443
373	1.920944	0.005000	9.066528	0.435815	2.278008	-0.737229	-0.344692	-0.356855	-0.010970	-0.010407	0.015853
374	1.925944	0.005000	8.919606	0.470880	2.350358	-0.737008	-0.344471	-0.357348	-0.018251	0.004814	0.006890
375	1.930944	0.005000	8.959637	0.503662	2.315160	-0.736787	-0.344250	-0.357841	-0.023416	0.000996	0.008435
376	1.935944	0.005000	9.064440	0.479639	2.323919	-0.736567	-0.344030	-0.358335	-0.015689	0.001546	0.009199
377	1.940944	0.005000	9.082062	0.449262	2.343591	-0.736346	-0.343809	-0.358828	-0.016060	0.004790	0.002440
378	1.945944	0.005000	9.064440	0.405623	2.315160	-0.736125	-0.343588	-0.359322	-0.000448	-0.005529	0.003360
379	1.950944	0.005000	9.088235	0.368605	2.306810	-0.735904	-0.343367	-0.359815	-0.003871	0.000884	0.004482
380	1.955944	0.005000	9.082016	0.374824	2.354400	-0.735821	-0.343353	-0.359846	-0.005256	-0.013643	0.002803
381	1.960944	0.005000	9.103680	0.450893	2.295173	-0.735821	-0.343463	-0.359599	-0.016725	-0.008329	0.012708
382	1.965944	0.005000	9.165051	0.392400	2.393640	-0.735821	-0.343574	-0.359353	-0.007188	0.004753	0.007358
383	1.970944	0.005000	9.157817	0.392400	2.363846	-0.735821	-0.343684	-0.359106	-0.009651	-0.006720	0.009805
384	1.975944	0.005000	9.091192	0.354935	2.418616	-0.735821	-0.343795	-0.358859	-0.012005	0.001927	-0.004475
385	1.980944	0.005000	9.114103	0.384428	2.391189	-0.735821	-0.343905	-0.358613	0.001217	-0.014891	-0.004423
386	1.985944	0.005000	9.103680	0.384270	2.307030	-0.735821	-0.344015	-0.358366	-0.014354	-0.003351	0.004370
387	1.990944	0.005000	9.209952	0.358884	2.248128	-0.735821	-0.344126	-0.358119	-0.002287	-0.003609	-0.000200
388	1.995944	0.005000	9.139184	0.470880	2.457174	-0.735821	-0.344236	-0.357873	-0.006540	-0.002025	0.000800
389	2.000944	0.005000	9.180783	0.433017	2.274543	-0.735821	-0.344347	-0.357626	-0.010390	0.001180	-0.003450
390	2.005944	0.005000	9.104709	0.432669	2.236680	-0.735821	-0.344457	-0.357379	-0.010254	-0.009042	0.009032
391	2.010944	0.005000	9.136951	0.428656	2.161184	-0.735821	-0.344568	-0.357133	-0.013503	-0.002933	-0.008164
392	2.015944	0.005000	9.075218	0.426251	2.320549	-0.735821	-0.344678	-0.356886	-0.005177	-0.015357	-0.000095
393	2.020944	0.005000	9.095965	0.345445	2.260490	-0.735821	-0.344764	-0.356695	-0.010180	-0.004405	-0.001668
394	2.025944	0.005000	9.133171	0.392400	2.334658	-0.735821	-0.344653	-0.356941	-0.013898	-0.005005	-0.001454
395	2.030944	0.005000	9.103680	0.407327	2.273149	-0.735821	-0.344543	-0.357188	-0.007927	-0.012017	0.005314
396	2.035944	0.005000	9.054002	0.431640	2.300759	-0.735821	-0.344432	-0.357435	-0.015814	0.000497	-0.003175
397	2.040944	0.005000	9.041713	0.369673	2.331673	-0.735821	-0.344322	-0.357682	-0.013743	-0.009415	0.005930
398	2.045944	0.005000	9.105073	0.409930	2.255603	-0.735821	-0.344211	-0.357928	-0.013923	-0.009999	0.003590
399	2.050944	0.005000	9.085527	0.332073	2.278855	-0.735821	-0.344101	-0.358175	-0.008254	-0.011254	-0.002666
400	2.055944	0.005000	9.064440	0.353160	2.299198	-0.735821	-0.343990	-0.358422	-0.010389	-0.007295	0.008108
401	2.060944	0.005000	9.091539	0.392400	2.223130	-0.735821	-0.343880	-0.358669	-0.015125	-0.003760	-0.012699
402	2.065944	0.005000	9.198190	0.470880	2.248285	-0.735821	-0.343770	-0.358915	-0.008123	-0.015945	0.005449
403	2.070944	0.005000	9.133719	0.431640	2.206641	-0.735821	-0.343659	-0.359162	-0.015174	-0.010874	0.000209
404	2.075944	0.005000	9.110850	0.456539	2.275920	-0.735821	-0.343549	-0.359409	-0.017950	-0.011137	0.002780
405	2.080944	0.005000	9.074031	0.466085	2.271125	-0.735821	-0.343438	-0.359656	-0.015371	-0.005166	0.008770
406	2.085944	0.005000	9.101246	0.473314	2.275920	-0.735821	-0.343328	-0.359902	-0.014076	-0.008770	-0.000837
407	2.090944	0.005000	9.142889	0.431671	2.275951	-0.735821	-0.343351	-0.360075	-0.007038	-0.017714	0.003365
408	2.095944	0.005000	9.066354	0.396228	2.203181	-0.735821	-0.343461	-0.360198	-0.027142	-0.010781	0.001390
409	2.100944	0.005000	9.060109	0.431640	2.201771	-0.735821	-0.343572	-0.360321	-0.007835	-0.017518	0.002813
410	2.105944	0.005000	9.188816	0.359816	2.347744	-0.735821	-0.343682	-0.360445	-0.018704	-0.011571	0.003756
411	2.110944	0.005000	9.156117	0.462199	2.254042	-0.735821	-0.343792	-0.360568	-0.008052	-0.016060	-0.001589
412	2.115944	0.005000	9.153887	0.409706	2.225713	-0.735821	-0.343903	-0.360691	-0.013885	-0.017473	-0.000249
413	2.120944	0.005000	9.038239	0.470880	2.249719	-0.735821	-0.344013	-0.360815	-0.011705	-0.001721	-0.003901
414	2.125944	0.005000	8.985960	0.455432	2.275920	-0.735821	-0.344124	-0.360938	-0.012800	-0.011486	0.011200
415	2.130944	0.005000	9.129200	0.449293	2.311227	-0.735821	-0.344234	-0.361061	-0.014920	-0.010632	0.006808
416	2.135944	0.005000	9.142920	0.510120	2.236680	-0.735821	-0.344344	-0.361185	-0.007919	-0.017898	0.004469
417	2.140944	0.005000	9.120705	0.448665	2.315160	-0.735821	-0.344455	-0.361308	-0.016394	-0.003411	0.003269
418	2.145944	0.005000	9.142920	0.456259	2.261299	-0.735821	-0.344565	-0.361432	-0.004504	-0.010840	-0.013413
419	2.150944	0.005000	9.103680	0.470880	2.355610	-0.735821	-0.344676	-0.361555	-0.003099	-0.011485	0.017965
420	2.155944	0.005000	9.132651	0.470880	2.246949	-0.735811	-0.344746	-0.361678	-0.016937	-0.004055	0.006300
421	2.160944	0.005000	9.111534	0.392400	2.252388	-0.735700	-0.344414	-0.361802	-0.004887	-0.015241	0.004674
422	2.165944	0.005000	9.142920	0.347321	2.348561	-0.735590	-0.344083	-0.361925	-0.002943	-0.003495	-0.001507
423	2.170944	0.005000	9.064440	0.356665	2.343886	-0.735479	-0.343751	-0.362048	-0.010893	-0.015442	0.000973
424	2.175944	0.005000	9.179986	0.353160	2.352226	-0.735369	-0.343420	-0.362172	-0.019043	-0.010869	0.000753
425	2.180944	0.005000	9.142063	0.468309	2.275920	-0.735258	-0.343088	-0.362295	-0.010087	0.000415	-0.002304
426	2.185944	0.005000	9.175716	0.431640	2.282364	-0.735148	-0.342757	-0.362418	-0.005194	-0.007178	0.009317
427	2.190944	0.005000	9.137715	0.397605	2.275920	-0.735037	-0.342426	-0.362542	-0.004064	0.002730	0.003669
428	2.195944	0.005000	9.182160	0.360781	2.275920	-0.734927	-0.342094	-0.362665	-0.006953	-0.011539	-0.006653
429	2.200944	0.005000	9.221400	0.382492	2.256497	-0.734816	-0.341763	-0.362788	-0.010566	-0.007319	0.014367
430	2.205944	0.005000	9.127625	0.407695	2.142905	-0.734706	-0.341431	-0.362912	-0.010508	-0.003711	-0.006508
431	2.210944	0.005000	9.142920	0.381932	2.168668	-0.734595	-0.341100	-0.363035	-0.013042	-0.008124	0.001527
432	2.215944	0.005000	9.103680	0.454285	2.096315	-0.734484	-0.340768	-0.363158	-0.012277	0.000574	-0.002807
433	2.220944	0.005000	9.084948	0.491388	2.238455	-0.734374	-0.340437	-0.363282	-0.004276	-0.005666	-0.000336
434	2.225944	0.005000	9.124823	0.434687	2.351353	-0.734264	-0.340299	-0.362829	-0.007844	0.000968	0.004486
435	2.230944	0.005000	9.119639	0.408359	2.244002	-0.734153	-0.340299	-0.361966	-0.009566	-0.004125	-0.001097
436	2.235944	0.005000	9.105670	0.378657	2.305396	-0.734043	-0.340299	-0.361103	-0.007398	-0.007952	0.015794
437	2.240944	0.005000	9.226651	0.392400	2.326490	-0.733932	-0.340299	-0.360240	-0.004514	-0.000158	0.000984
438	2.245944	0.005000	9.173238	0.479802	2.415035	-0.733822	-0.340299	-0.359377	-0.012462	-0.006750	0.006841
439	2.250944	0.005000	9.096782	0.503222	2.289716	-0.733712	-0.340299	-0.358514	-0.013096	-0.002119	-0.000491
440	2.255944	0.005000	9.038887	0.392400	2.280482	-0.733601	-0.340299	-0.357651	-0.008985	-0.003914	-0.001306
441	2.260944	0.005000	9.175686	0.392400	2.278078	-0.733491	-0.340299	-0.356788	-0.017410	0.004386	0.014940
442	2.265944	0.005000	9.025624	0.353584	2.275920	-0.733381	-0.340299	-0.355925	-0.016889	-0.010571	0.005952
443	2.270944	0.005000	9.140716	0.431640	2.424065	-0.733270	-0.340299	-0.355063	-0.008965	-0.017761	0.001328
444	2.275944	0.005000	9.112897	0.392400	2.324377	-0.733160	-0.340299	-0.354200	-0.012251	0.003574	-0.001368
445	2.280944	0.005000	9.129033	0.334750	2.289807	-0.733050	-0.340299	-0.353337	-0.011608	-0.004887	0.007328
446	2.285944	0.005000	9.200097	0.395767	2.384672	-0.732939	-0.340299	-0.352474	-0.009479	0.001243	0.004250
447	2.290944	0.005000	9.142920	0.482255	2.287295	-0.732858	-0.340335	-0.351723	-0.003470	0.004459	-0.002040
448	2.295944	0.005000	9.142920	0.431640	2.340786	-0.733189	-0.340887	-0.352587	-0.013352	0.000112	0.005208
449	2.300944	0.005000	9.103680	0.337436	2.158200	-0.733520	-0.341440	-0.353451	-0.011889	0.004069	-0.001700
450	2.305944	0.005000	9.085545	0.452745	2.082689	-0.733852	-0.341992	-0.354314	-0.005129	-0.011605	0.010931
451	2.310944	0.005000	9.083379	0.373461	2.177139	-0.734183	-0.342545	-0.355178	-0.017467	-0.009468	0.007106
452	2.315944	0.005000	9.198709	0.448189	2.197440	-0.734515	-0.343097	-0.356042	-0.010151	-0.016730	0.008957
453	2.320944	0.005000	9.178380	0.442200	2.247240	-0.734846	-0.343650	-0.356905	-0.007486	-0.003722	0.010367
454	2.325944	0.005000	9.076367	0.392400	2.193980	-0.735178	-0.344202	-0.357769	-0.010695	0.001522	-0.004984
455	2.330944	0.005000	9.113199	0.431640	2.344881	-0.735509	-0.344755	-0.358633	-0.011973	-0.002258	0.001647
456	2.335944	0.005000	9.150408	0.399888	2.244168	-0.735841	-0.345307	-0.359496	-0.009660	0.002216	0.003057
457	2.340944	0.005000	9.098520	0.426480	2.383321	-0.736172	-0.345859	-0.360360	-0.007819	-0.016634	-0.001311
458	2.345944	0.005000	9.095416	0.468125	2.317915	-0.736504	-0.346412	-0.361224	-0.014895	-0.002354	0.003293
459	2.350944	0.005000	9.064440	0.470078	2.431277	-0.736835	-0.346964	-0.362088	-0.018568	-0.011301	-0.002341
460	2.355944	0.005000	9.026807	0.469273	2.354400	-0.737166	-0.347517	-0.362951	-0.004896	-0.012532	0.006040
461	2.360944	0.005000	8.981997	0.427677	2.346473	-0.737251	-0.347453	-0.363195	-0.015392	-0.001795	0.004491
462	2.365944	0.005000	9.097724	0.437596	2.321116	-0.737141	-0.346901	-0.362949	-0.010219	-0.016158	0.009303
463	2.370944	0.005000	8.985960	0.409119	2.300998	-0.737031	-0.346349	-0.362702	-0.013947	-0.011443	-0.003195
464	2.375944	0.005000	9.132270	0.470880	2.393640	-0.736920	-0.345797	-0.362456	-0.005700	-0.005381	0.000693
465	2.380944	0.005000	9.011396	0.483598	2.406358	-0.736810	-0.345245	-0.362209	-0.013005	-0.005819	0.012527
466	2.385944	0.005000	9.167034	0.344173	2.315160	-0.736700	-0.344693	-0.361963	-0.016087	0.002143	-0.008550
467	2.390944	0.005000	9.177592	0.357728	2.450216	-0.736589	-0.344141	-0.361716	-0.004507	-0.012522	0.012210
468	2.395944	0.005000	9.044958	0.372918	2.354400	-0.736479	-0.343589	-0.361470	-0.018313	0.001092	-0.005892
469	2.400944	0.005000	9.103680	0.392400	2.293266	-0.736369	-0.343037	-0.361223	-0.012371	-0.010236	0.000556
470	2.405944	0.005000	9.088462	0.392400	2.221462	-0.736258	-0.342485	-0.360977	-0.016799	-0.004993	0.011051
471	2.410944	0.005000	9.090687	0.431640	2.315160	-0.736148	-0.341934	-0.360730	-0.017369	-0.009867	-0.001657
472	2.415944	0.005000	9.075019	0.488961	2.322662	-0.736037	-0.341382	-0.360484	-0.014126	-0.004450	0.013083
473	2.420944	0.005000	9.129275	0.431640	2.245212	-0.735927	-0.340830	-0.360237	-0.022739	-0.006109	0.003700
474	2.425944	0.005000	9.136763	0.425483	2.288234	-0.735825	-0.340320	-0.360000	-0.012097	-0.006323	0.010259
475	2.430944	0.005000	9.099868	0.317732	2.342963	-0.735936	-0.340873	-0.360000	-0.016160	0.014317	-0.001108
476	2.435944	0.005000	9.219992	0.393808	2.238088	-0.736046	-0.341425	-0.360000	-0.011135	-0.004711	-0.008516
477	2.440944	0.005000	9.143456	0.431640	2.237216	-0.736157	-0.341978	-0.360000	-0.017855	-0.009550	0.004426
478	2.445944	0.005000	9.142920	0.434580	2.245499	-0.736267	-0.342530	-0.360000	-0.016557	-0.004326	-0.003179
479	2.450944	0.005000	9.035789	0.504825	2.393640	-0.736378	-0.343083	-0.360000	-0.007996	-0.014082	0.004120
480	2.455944	0.005000	9.103680	0.431640	2.361700	-0.736488	-0.343635	-0.360000	-0.022054	-0.008179	-0.003897
481	2.460944	0.005000	9.025200	0.470880	2.374227	-0.736598	-0.344188	-0.360000	-0.021513	-0.010157	0.002142
482	2.465944	0.005000	9.025200	0.483001	2.351523	-0.736709	-0.344740	-0.360000	-0.010175	-0.006529	0.004849
483	2.470944	0.005000	9.060613	0.442169	2.364929	-0.736819	-0.345292	-0.360000	-0.019370	-0.000710	-0.003016
484	2.475944	0.005000	9.126446	0.464588	2.337926	-0.736930	-0.345845	-0.360000	-0.001100	-0.005408	0.003001
485	2.480944	0.005000	9.161805	0.453464	2.374755	-0.737040	-0.346397	-0.360000	-0.014494	-0.006293	-0.007583
486	2.485944	0.005000	9.109368	0.510120	2.318004	-0.737151	-0.346950	-0.360000	-0.011281	-0.015498	0.004826
487	2.490944	0.005000	9.033957	0.438882	2.197440	-0.737261	-0.347502	-0.360000	-0.013634	-0.009978	-0.004677
488	2.495944	0.005000	9.156510	0.418050	2.159730	-0.737196	-0.347526	-0.360066	-0.008294	-0.013668	0.000820
489	2.500944	0.005000	9.170648	0.470880	2.319865	-0.736975	-0.347084	-0.360189	-0.010128	-0.007109	0.009074
490	2.505944	0.005000	9.163696	0.323152	2.335936	-0.736754	-0.346643	-0.360312	-0.002850	-0.003919	-0.010171
491	2.510944	0.005000	9.071266	0.431640	2.282746	-0.736533	-0.346201	-0.360436	-0.012145	-0.018151	0.008051
492	2.515944	0.005000	9.034851	0.466054	2.266269	-0.736312	-0.345759	-0.360559	-0.020407	-0.007804	0.006692
493	2.520944	0.005000	9.103680	0.465979	2.354400	-0.736091	-0.345317	-0.360682	-0.009276	-0.016006	0.005621
494	2.525944	0.005000	9.064562	0.353221	2.236741	-0.735870	-0.344875	-0.360806	-0.014245	-0.012537	-0.002090
495	2.530944	0.005000	9.142920	0.392400	2.238562	-0.735649	-0.344434	-0.360929	-0.008197	-0.005192	-0.008953
496	2.535944	0.005000	9.068727	0.462306	2.337253	-0.735428	-0.343992	-0.361052	-0.002041	-0.014716	0.008129
497	2.540944	0.005000	9.064440	0.431640	2.361103	-0.735208	-0.343550	-0.361176	-0.019455	-0.007068	0.000611
498	2.545944	0.005000	9.103680	0.383399	2.245681	-0.734987	-0.343108	-0.361299	-0.004756	-0.013059	0.003109
499	2.550944	0.005000	9.092626	0.409532	2.180308	-0.734766	-0.342666	-0.361423	-0.018897	-0.007614	-0.000235
500	2.555944	0.005000	9.104843	0.443945	2.262452	-0.734545	-0.342225	-0.361546	-0.008572	-0.011583	-0.001288
501	2.560944	0.005000	9.064440	0.392400	2.315160	-0.734356	-0.341817	-0.361615	-0.013056	-0.011338	0.004959
502	2.565944	0.005000	9.068038	0.392400	2.272322	-0.735904	-0.343254	-0.358777	-0.016735	-0.005498	-0.002359
503	2.570944	0.005000	9.045432	0.334152	2.178432	-0.737451	-0.344690	-0.355939	-0.012290	-0.010698	0.011233
504	2.575944	0.005000	9.097632	0.347112	2.253276	-0.738998	-0.346127	-0.353101	-0.010917	-0.000689	-0.000169
505	2.580944	0.005000	9.142920	0.417163	2.065243	-0.740545	-0.347563	-0.350262	-0.008930	-0.018197	0.003603
506	2.585944	0.005000	9.079193	0.353160	2.106717	-0.742092	-0.349000	-0.347424	-0.018183	0.008265	0.001069
507	2.590944	0.005000	9.084098	0.431640	2.266167	-0.743639	-0.350437	-0.344586	-0.013043	0.007491	-0.000340
508	2.595944	0.005000	9.033006	0.400206	2.275920	-0.745186	-0.351873	-0.341748	-0.011905	-0.009467	0.005801
509	2.600944	0.005000	9.030681	0.437121	2.270439	-0.746733	-0.353310	-0.338910	-0.015045	-0.003019	-0.004444
510	2.605944	0.005000	9.179084	0.392400	2.236680	-0.748280	-0.354746	-0.336072	-0.007161	-0.010146	0.003134
511	2.610944	0.005000	9.103022	0.391742	2.236680	-0.749827	-0.356183	-0.333234	-0.006293	-0.002118	0.003697
512	2.615944	0.005000	9.064440	0.429069	2.274634	-0.751374	-0.357619	-0.330396	-0.005734	-0.003218	0.002208
513	2.620944	0.005000	8.989650	0.435330	2.244060	-0.752921	-0.359056	-0.327558	-0.007359	0.001254	-0.002489
514	2.625944	0.005000	9.091608	0.371267	2.176307	-0.754468	-0.360492	-0.324720	-0.013070	0.008014	-0.005474
515	2.630944	0.005000	9.103680	0.431640	2.197440	-0.754546	-0.360742	-0.324468	-0.002423	-0.008434	0.007764
516	2.635944	0.005000	9.074897	0.363617	2.257594	-0.753221	-0.359859	-0.326688	-0.009135	0.000916	-0.004909
517	2.640944	0.005000	9.064440	0.484676	2.275920	-0.751895	-0.358975	-0.328908	-0.005605	-0.005905	0.006328
518	2.645944	0.005000	9.118494	0.534546	2.197440	-0.750570	-0.358091	-0.331128	-0.012798	0.001034	0.007230
519	2.650944	0.005000	9.086456	0.470880	2.258696	-0.749244	-0.357208	-0.333349	-0.006339	-0.003078	-0.003329
520	2.655944	0.005000	9.162328	0.431640	2.216425	-0.747919	-0.356324	-0.335569	-0.008073	-0.000605	0.004565
521	2.660944	0.005000	9.064440	0.492459	2.240598	-0.746593	-0.355441	-0.337789	-0.013918	0.012640	0.000312
522	2.665944	0.005000	9.049191	0.462138	2.134209	-0.745268	-0.354557	-0.340009	-0.009755	-0.004756	0.000755
523	2.670944	0.005000	9.077285	0.444485	2.223130	-0.743943	-0.353673	-0.342229	-0.012166	0.002683	-0.001980
524	2.675944	0.005000	9.125221	0.499349	2.265149	-0.742617	-0.352790	-0.344449	-0.009667	0.001282	-0.000843
525	2.680944	0.005000	9.125932	0.400894	2.211198	-0.741292	-0.351906	-0.346669	0.000219	0.003322	0.005536
526	2.685944	0.005000	9.091524	0.392400	2.203518	-0.739966	-0.351023	-0.348889	-0.013845	0.005876	0.010914
527	2.690944	0.005000	9.021116	0.357244	2.327413	-0.738641	-0.350139	-0.351109	-0.013287	-0.004421	0.005474
528	2.695944	0.005000	9.062711	0.392400	2.431151	-0.737315	-0.349256	-0.353329	-0.023051	0.006345	0.003797
529	2.700944	0.005000	9.063759	0.469519	2.316521	-0.737203	-0.348813	-0.353949	-0.021645	-0.002497	0.005701
530	2.705944	0.005000	9.142920	0.359271	2.275920	-0.737092	-0.348371	-0.354566	-0.010066	0.006493	0.011487
531	2.710944	0.005000	9.103680	0.426603	2.280957	-0.736982	-0.347929	-0.355183	-0.016150	0.011149	-0.005082
532	2.715944	0.005000	9.064440	0.384947	2.150747	-0.736871	-0.347487	-0.355800	-0.008459	0.012772	0.016468
533	2.720944	0.005000	9.074454	0.412156	2.187426	-0.736761	-0.347045	-0.356417	-0.011012	0.012580	0.004471
534	2.725944	0.005000	9.118656	0.365292	2.288052	-0.736650	-0.346603	-0.357034	-0.009292	-0.004015	0.013046
535	2.730944	0.005000	9.132115	0.403205	2.172418	-0.736540	-0.346161	-0.357651	-0.012623	0.001451	-0.000554
536	2.735944	0.005000	9.064440	0.409027	2.259293	-0.736430	-0.345719	-0.358268	-0.015871	0.006870	-0.008675
537	2.740944	0.005000	9.044018	0.392400	2.432880	-0.736319	-0.345277	-0.358885	-0.016474	0.004008	0.017981
538	2.745944	0.005000	9.082705	0.374135	2.411905	-0.736209	-0.344835	-0.359502	-0.024419	0.008296	-0.000612
539	2.750944	0.005000	9.118739	0.424110	2.354400	-0.736098	-0.344393	-0.360119	-0.020782	-0.008931	0.010770
540	2.755944	0.005000	9.103680	0.417889	2.368151	-0.735988	-0.343951	-0.360736	-0.018520	0.003231	0.004787
541	2.760944	0.005000	9.064440	0.408644	2.393640	-0.735877	-0.343509	-0.361353	-0.019218	-0.003787	0.004242
542	2.765944	0.005000	9.103680	0.392400	2.263952	-0.735713	-0.343230	-0.361667	-0.014747	-0.004688	0.004834
543	2.770944	0.005000	9.096616	0.360224	2.340271	-0.735492	-0.343119	-0.361667	-0.012997	-0.003617	-0.002090
544	2.775944	0.005000	9.108411	0.357891	2.280651	-0.735271	-0.343009	-0.361667	-0.007748	-0.012456	0.009316
545	2.780944	0.005000	9.099028	0.390074	2.354400	-0.735050	-0.342898	-0.361667	-0.017417	-0.004367	-0.004589
546	2.785944	0.005000	9.025956	0.432396	2.314404	-0.734829	-0.342788	-0.361667	-0.021375	-0.005821	-0.004879
547	2.790944	0.005000	9.066475	0.472915	2.348294	-0.734608	-0.342677	-0.361667	-0.014918	0.003697	0.005083
548	2.795944	0.005000	9.103680	0.357600	2.389200	-0.734387	-0.342567	-0.361667	-0.010352	-0.003506	0.000371
549	2.800944	0.005000	9.071217	0.418086	2.458566	-0.734166	-0.342456	-0.361667	-0.009705	-0.015256	0.012399
550	2.805944	0.005000	9.064440	0.379560	2.424080	-0.733945	-0.342346	-0.361667	-0.007980	0.000249	0.002789
551	2.810944	0.005000	9.058821	0.325127	2.287127	-0.733724	-0.342235	-0.361667	-0.007581	-0.015272	0.004801
552	2.815944	0.005000	9.129467	0.470880	2.209773	-0.733504	-0.342125	-0.361667	-0.013536	-0.004538	0.002597
553	2.820944	0.005000	9.142920	0.407955	2.260365	-0.733283	-0.342014	-0.361667	-0.007720	-0.018631	-0.000722
554	2.825944	0.005000	9.146226	0.413673	2.290581	-0.733062	-0.341904	-0.361667	-0.008126	-0.004826	0.005445
555	2.830944	0.005000	9.142920	0.392400	2.178334	-0.732841	-0.341793	-0.361667	-0.014661	-0.014918	-0.001615
556	2.835944	0.005000	9.165242	0.392400	2.292838	-0.733160	-0.342115	-0.361546	-0.008057	-0.023289	0.013912
557	2.840944	0.005000	9.128412	0.406908	2.315160	-0.733491	-0.342446	-0.361423	-0.017063	-0.008090	-0.003772
558	2.845944	0.005000	9.078841	0.431640	2.341981	-0.733823	-0.342778	-0.361300	-0.012919	-0.020690	0.010978
559	2.850944	0.005000	9.084499	0.500091	2.315160	-0.734154	-0.343109	-0.361176	-0.014113	-0.006562	-0.002590
560	2.855944	0.005000	9.158408	0.455392	2.228936	-0.734485	-0.343441	-0.361053	-0.009329	-0.010551	-0.008685
561	2.860944	0.005000	9.148248	0.431640	2.247336	-0.734816	-0.343772	-0.360930	-0.017306	-0.009409	0.001343
562	2.865944	0.005000	9.139577	0.428297	2.305131	-0.735148	-0.344103	-0.360806	-0.010690	-0.002278	-0.009586
563	2.870944	0.005000	9.024221	0.432619	2.158200	-0.735479	-0.344435	-0.360683	-0.004671	-0.012616	0.006215
564	2.875944	0.005000	9.099414	0.433062	2.158200	-0.735810	-0.344766	-0.360559	-0.011000	-0.005226	-0.002453
565	2.880944	0.005000	9.067822	0.392400	2.161582	-0.736142	-0.345097	-0.360436	-0.011769	-0.019147	-0.005762
566	2.885944	0.005000	9.097893	0.425853	2.270133	-0.736473	-0.345429	-0.360313	-0.021556	-0.019262	-0.000791
567	2.890944	0.005000	8.946720	0.384209	2.213822	-0.736804	-0.345760	-0.360189	-0.016410	-0.004687	-0.002949
568	2.895944	0.005000	8.993751	0.334886	2.218406	-0.737136	-0.346092	-0.360066	-0.007417	-0.011760	0.010129
569	2.900944	0.005000	9.142920	0.368893	2.144059	-0.737210	-0.346115	-0.360115	-0.025989	-0.005316	-0.006033
570	2.905944	0.005000	9.142920	0.431640	2.236680	-0.736989	-0.345784	-0.360361	-0.012496	-0.016085	-0.002126
571	2.910944	0.005000	9.177661	0.348661	2.219310	-0.736769	-0.345452	-0.360608	-0.006159	-0.015960	0.008812
572	2.915944	0.005000	9.123376	0.294224	2.256224	-0.736548	-0.345121	-0.360855	-0.017032	-0.010996	-0.003863
573	2.920944	0.005000	9.068650	0.370675	2.271710	-0.736327	-0.344790	-0.361101	-0.012641	-0.012778	0.001183
574	2.925944	0.005000	9.127815	0.368265	2.245709	-0.736106	-0.344458	-0.361348	-0.008984	-0.004938	-0.008597
575	2.930944	0.005000	9.012191	0.457871	2.275920	-0.735885	-0.344127	-0.361594	-0.012868	-0.012934	0.001978
576	2.935944	0.005000	9.075059	0.421021	2.393640	-0.735664	-0.343795	-0.361841	-0.020311	-0.017208	0.004730
577	2.940944	0.005000	9.056196	0.384156	2.267676	-0.735443	-0.343464	-0.362088	-0.021213	-0.012243	-0.006812
578	2.945944	0.005000	8.958570	0.476805	2.236680	-0.735222	-0.343133	-0.362334	-0.017864	-0.009337	0.003138
579	2.950944	0.005000	9.028720	0.470880	2.247240	-0.735001	-0.342801	-0.362581	-0.011524	-0.008312	-0.009023
580	2.955944	0.005000	9.177486	0.433198	2.388966	-0.734781	-0.342470	-0.362828	-0.005877	-0.019066	0.010783
581	2.960944	0.005000	9.102838	0.432482	2.314318	-0.734560	-0.342138	-0.363074	-0.015423	-0.016389	0.003040
582	2.965944	0.005000	9.214986	0.434847	2.207061	-0.734339	-0.341807	-0.363321	-0.004470	-0.015263	-0.002620
583	2.970944	0.005000	9.182160	0.437222	2.152618	-0.734328	-0.341791	-0.363098	-0.004462	-0.006022	-0.003615
584	2.975944	0.005000	9.135326	0.424046	2.165794	-0.734328	-0.341791	-0.362851	-0.001482	-0.009280	0.002777
585	2.980944	0.005000	9.182160	0.470880	2.353604	-0.734328	-0.341791	-0.362605	-0.002652	-0.021779	0.005641
586	2.985944	0.005000	9.052172	0.416936	2.366668	-0.734328	-0.341791	-0.362358	-0.016685	-0.005353	-0.002640
587	2.990944	0.005000	9.050079	0.353160	2.275920	-0.734328	-0.341791	-0.362111	-0.005019	-0.012745	0.000046
588	2.995944	0.005000	9.131840	0.392400	2.141427	-0.734328	-0.341791	-0.361864	-0.008048	-0.003140	-0.000297
589	3.000944	0.005000	9.180829	0.412686	2.236680	-0.734328	-0.341791	-0.361618	-0.010320	-0.019289	-0.002742
590	3.005944	0.005000	9.103680	0.431640	2.152168	-0.734328	-0.341791	-0.361371	-0.009610	-0.007951	-0.004324
591	3.010944	0.005000	9.182160	0.415938	2.252382	-0.734328	-0.341791	-0.361124	-0.014226	-0.012364	-0.003920
592	3.015944	0.005000	9.090391	0.392400	2.223391	-0.734328	-0.341791	-0.360877	-0.010491	-0.015038	0.008104
593	3.020944	0.005000	9.075785	0.431640	2.259370	-0.734328	-0.341791	-0.360631	-0.015714	0.008240	-0.002293
594	3.025944	0.005000	9.055502	0.461942	2.167138	-0.734328	-0.341791	-0.360384	-0.007703	-0.006832	0.003540
595	3.030944	0.005000	9.038244	0.516642	2.308638	-0.734328	-0.341791	-0.360137	-0.015343	0.003991	0.003542
596	3.035944	0.005000	9.011631	0.505597	2.114437	-0.734328	-0.342233	-0.359507	-0.018070	-0.000402	-0.000660
597	3.040944	0.005000	9.138572	0.433814	2.158200	-0.734328	-0.343227	-0.358397	-0.016347	0.003644	0.003599
598	3.045944	0.005000	9.142466	0.470880	2.314252	-0.734328	-0.344221	-0.357287	-0.017851	-0.000209	0.007925
599	3.050944	0.005000	9.182160	0.394574	2.315160	-0.734328	-0.345215	-0.356177	-0.021380	-0.005160	0.005936
600	3.055944	0.005000	9.069031	0.401583	2.241271	-0.734328	-0.346209	-0.355067	-0.011725	0.005353	0.008573
601	3.060944	0.005000	9.096767	0.431640	2.262094	-0.734328	-0.347203	-0.353957	-0.016485	-0.003574	0.005684
602	3.065944	0.005000	9.034141	0.362101	2.227739	-0.734328	-0.348197	-0.352847	-0.014488	-0.008846	0.013335
603	3.070944	0.005000	9.092324	0.381044	2.404996	-0.734328	-0.349191	-0.351737	-0.013170	-0.000037	0.001194
604	3.075944	0.005000	9.194201	0.431640	2.369557	-0.734328	-0.350185	-0.350626	-0.008603	-0.008627	0.007405
605	3.080944	0.005000	9.150805	0.431640	2.362224	-0.734328	-0.351179	-0.349516	-0.012977	-0.003674	-0.003905
606	3.085944	0.005000	9.079561	0.368281	2.390640	-0.734328	-0.352173	-0.348406	-0.016800	-0.016263	0.001523
607	3.090944	0.005000	9.065771	0.312589	2.376017	-0.734328	-0.353167	-0.347296	-0.009111	-0.003861	0.006261
608	3.095944	0.005000	9.187503	0.409165	2.275920	-0.734328	-0.354162	-0.346186	-0.008799	-0.007615	-0.009863
609	3.100944	0.005000	9.217574	0.406755	2.265391	-0.734328	-0.355156	-0.345076	-0.007705	-0.004833	0.002113
610	3.105944	0.005000	9.103680	0.392400	2.303218	-0.734842	-0.354710	-0.346149	-0.012854	-0.011894	-0.004190
611	3.110944	0.005000	9.015202	0.421642	2.216685	-0.735395	-0.354157	-0.347382	-0.006688	-0.011134	0.003536
612	3.115944	0.005000	9.072034	0.392400	2.307566	-0.735947	-0.353605	-0.348615	-0.018492	-0.006177	0.008505
613	3.120944	0.005000	9.137732	0.397588	2.236680	-0.736499	-0.353053	-0.349849	-0.011998	-0.002086	0.012206
614	3.125944	0.005000	9.097266	0.428433	2.239887	-0.737051	-0.352501	-0.351082	-0.007745	0.000297	0.016824
615	3.130944	0.005000	9.065267	0.353987	2.237507	-0.737604	-0.351948	-0.352315	-0.009780	0.002456	-0.001663
616	3.135944	0.005000	9.141362	0.392400	2.275920	-0.738156	-0.351396	-0.353549	-0.005960	-0.011470	0.003737
617	3.140944	0.005000	9.032243	0.428119	2.308117	-0.738708	-0.350844	-0.354782	-0.004889	0.001189	-0.000162
618	3.145944	0.005000	9.019262	0.359098	2.321098	-0.739260	-0.350292	-0.356016	-0.008796	-0.004215	-0.003940
619	3.150944	0.005000	9.047951	0.454391	2.306916	-0.739813	-0.349739	-0.357249	-0.006909	-0.010541	0.003715
620	3.155944	0.005000	9.045777	0.460592	2.325448	-0.740365	-0.349187	-0.358482	-0.014277	-0.009176	0.003921
621	3.160944	0.005000	9.077142	0.458178	2.327862	-0.740917	-0.348635	-0.359716	-0.008923	0.000261	0.017970
622	3.165944	0.005000	8.985960	0.446571	2.373158	-0.741470	-0.348082	-0.360949	-0.016824	0.001108	0.002787
623	3.170944	0.005000	9.103680	0.414319	2.358999	-0.741606	-0.347669	-0.361667	-0.005643	-0.004160	0.010369
624	3.175944	0.005000	9.123147	0.451107	2.315160	-0.741164	-0.347448	-0.361667	-0.010076	-0.001116	0.006115
625	3.180944	0.005000	9.169315	0.466363	2.223835	-0.740722	-0.347227	-0.361667	-0.010619	0.001602	-0.002098
626	3.185944	0.005000	9.009967	0.431640	2.282379	-0.740280	-0.347006	-0.361667	-0.007840	-0.008858	0.013541
627	3.190944	0.005000	8.985960	0.405414	2.367414	-0.739838	-0.346785	-0.361667	-0.012650	-0.007477	0.005551
628	3.195944	0.005000	9.075046	0.392400	2.379851	-0.739396	-0.346564	-0.361667	-0.017048	-0.010541	0.001764
629	3.200944	0.005000	9.160044	0.353160	2.245242	-0.738954	-0.346343	-0.361667	-0.014649	0.001078	-0.004007
630	3.205944	0.005000	9.136673	0.398647	2.302667	-0.738512	-0.346122	-0.361667	-0.015502	-0.001390	-0.006382
631	3.210944	0.005000	9.107521	0.435481	2.350559	-0.738070	-0.345901	-0.361667	-0.018816	-0.003297	0.001810
632	3.215944	0.005000	9.176533	0.431640	2.320787	-0.737628	-0.345680	-0.361667	-0.014660	-0.000843	-0.003269
633	3.220944	0.005000	9.064440	0.392920	2.278001	-0.737186	-0.345459	-0.361667	-0.014261	-0.012134	0.013582
634	3.225944	0.005000	9.067329	0.431640	2.315160	-0.736744	-0.345238	-0.361667	-0.013910	-0.010062	-0.001553
635	3.230944	0.005000	9.030479	0.436919	2.291758	-0.736302	-0.345017	-0.361667	-0.004885	-0.021658	0.009772
636	3.235944	0.005000	9.128350	0.392400	2.204725	-0.735860	-0.344796	-0.361667	-0.017957	-0.009112	0.011089
637	3.240944	0.005000	9.142920	0.392400	2.216823	-0.735821	-0.344776	-0.361892	-0.012856	-0.003592	0.003090
638	3.245944	0.005000	9.154886	0.443606	2.263954	-0.735821	-0.344776	-0.362138	-0.010404	-0.010500	0.007600
639	3.250944	0.005000	9.154061	0.456831	2.460979	-0.735821	-0.344776	-0.362385	-0.013430	0.004715	0.007984
640	3.255944	0.005000	9.080898	0.454422	2.387317	-0.735821	-0.344776	-0.362632	-0.018338	-0.012707	0.005876
641	3.260944	0.005000	9.045788	0.450292	2.333812	-0.735821	-0.344776	-0.362878	-0.016848	-0.009381	0.012795
642	3.265944	0.005000	9.103680	0.450073	2.354400	-0.735821	-0.344776	-0.363125	-0.010627	-0.013631	0.009776
643	3.270944	0.005000	9.064440	0.415616	2.409664	-0.735821	-0.344776	-0.363372	-0.013097	-0.007209	0.009846
644	3.275944	0.005000	9.078357	0.353160	2.329077	-0.735821	-0.344776	-0.363618	-0.011611	-0.014026	0.003944
645	3.280944	0.005000	9.103680	0.337253	2.326826	-0.735821	-0.344776	-0.363865	-0.001014	-0.025194	0.009160
646	3.285944	0.005000	9.094421	0.373882	2.285179	-0.735821	-0.344776	-0.364112	-0.013876	0.006846	-0.003055
647	3.290944	0.005000	9.110995	0.385085	2.315160	-0.735821	-0.344776	-0.364358	-0.010411	-0.012146	0.010343
648	3.295944	0.005000	9.245942	0.397299	2.305361	-0.735821	-0.344776	-0.364605	-0.016928	-0.004937	-0.000807
649	3.300944	0.005000	9.145415	0.392400	2.315160	-0.735821	-0.344776	-0.364851	-0.015378	-0.007395	0.001908
650	3.305944	0.005000	9.103680	0.352615	2.236135	-0.735821	-0.344688	-0.364902	-0.010901	-0.010508	0.005734
651	3.310944	0.005000	9.103680	0.388666	2.234813	-0.735821	-0.344467	-0.364655	-0.020429	-0.006998	-0.010818
652	3.315944	0.005000	8.994401	0.392400	2.275920	-0.735821	-0.344246	-0.364408	-0.008500	-0.017028	-0.002753
653	3.320944	0.005000	8.979744	0.425424	2.354400	-0.735821	-0.344025	-0.364162	-0.008369	0.001941	-0.007895
654	3.325944	0.005000	9.055808	0.501488	2.253943	-0.735821	-0.343804	-0.363915	-0.012025	-0.009214	-0.009304
655	3.330944	0.005000	9.092773	0.414213	2.230160	-0.735821	-0.343583	-0.363668	-0.008579	-0.012631	-0.000325
656	3.335944	0.005000	9.090697	0.405383	2.328434	-0.735821	-0.343362	-0.363421	-0.009703	-0.010038	-0.001621
657	3.340944	0.005000	9.166773	0.377013	2.267453	-0.735821	-0.343141	-0.363175	-0.007984	-0.008311	0.015205
658	3.345944	0.005000	9.099626	0.370753	2.289459	-0.735821	-0.342920	-0.362928	-0.008019	-0.000781	0.001093
659	3.350944	0.005000	9.084182	0.392400	2.197440	-0.735821	-0.342699	-0.362681	-0.000982	-0.007190	0.001652
660	3.355944	0.005000	9.103680	0.370246	2.315160	-0.735821	-0.342478	-0.362434	-0.010780	0.005108	0.014301
661	3.360944	0.005000	9.064440	0.416498	2.182298	-0.735821	-0.342257	-0.362187	-0.005075	-0.005167	0.001906
662	3.365944	0.005000	9.065481	0.353160	2.222906	-0.735821	-0.342036	-0.361941	-0.006417	-0.010523	0.004443
663	3.370944	0.005000	9.085769	0.420975	2.236680	-0.735821	-0.341815	-0.361694	-0.016002	-0.007636	0.002812
664	3.375944	0.005000	9.095305	0.440015	2.135709	-0.736313	-0.342677	-0.359908	-0.003103	-0.010405	0.011794
665	3.380944	0.005000	9.019231	0.464911	2.354400	-0.736866	-0.343671	-0.357934	-0.012263	-0.004674	0.004548
666	3.385944	0.005000	9.060462	0.353160	2.193462	-0.737418	-0.344666	-0.355960	-0.000759	-0.013455	-0.000901
667	3.390944	0.005000	9.100465	0.353160	2.277528	-0.737971	-0.345660	-0.353985	-0.014509	-0.007690	0.006819
668	3.395944	0.005000	9.063653	0.353160	2.353613	-0.738523	-0.346655	-0.352011	-0.018442	-0.006427	-0.005098
669	3.400944	0.005000	9.064440	0.428899	2.385418	-0.739076	-0.347649	-0.350037	-0.012863	-0.018717	0.002334
670	3.405944	0.005000	9.171964	0.358258	2.398738	-0.739628	-0.348644	-0.348063	-0.006597	-0.000134	-0.002995
671	3.410944	0.005000	9.071529	0.477969	2.393640	-0.740181	-0.349638	-0.346088	-0.007373	-0.019641	-0.005679
672	3.415944	0.005000	9.094176	0.500616	2.403144	-0.740733	-0.350633	-0.344114	-0.016361	-0.005334	-0.002085
673	3.420944	0.005000	9.040902	0.510120	2.326929	-0.741286	-0.351627	-0.342140	-0.016209	-0.007313	-0.002975
674	3.425944	0.005000	9.154449	0.457024	2.301304	-0.741838	-0.352622	-0.340166	-0.013722	-0.009500	0.005686
675	3.430944	0.005000	9.142920	0.431640	2.328566	-0.742391	-0.353616	-0.338191	-0.020398	-0.001872	-0.002151
676	3.435944	0.005000	9.147579	0.429310	2.292046	-0.742943	-0.354611	-0.336217	-0.018481	-0.020796	0.005099
677	3.440944	0.005000	9.103680	0.411017	2.218063	-0.743496	-0.355309	-0.335047	-0.009305	-0.009366	-0.006421
678	3.445944	0.005000	9.149746	0.431640	2.252887	-0.744048	-0.355530	-0.335171	-0.012464	-0.006592	-0.002916
679	3.450944	0.005000	9.089581	0.406499	2.233624	-0.744600	-0.355751	-0.335294	0.001197	-0.007720	0.012207
680	3.455944	0.005000	9.158460	0.365010	2.236680	-0.745152	-0.355971	-0.335417	-0.002157	-0.002462	-0.006096
681	3.460944	0.005000	9.094237	0.441083	2.315160	-0.745705	-0.356192	-0.335541	-0.006600	-0.012966	0.005905
682	3.465944	0.005000	9.221400	0.407225	2.251505	-0.746257	-0.356413	-0.335664	-0.005970	-0.007372	0.002485
683	3.470944	0.005000	9.240551	0.436662	2.275920	-0.746809	-0.356634	-0.335787	-0.002229	-0.013607	0.002356
684	3.475944	0.005000	9.176804	0.468202	2.166235	-0.747361	-0.356855	-0.335911	-0.008771	-0.005584	0.002670
685	3.480944	0.005000	9.025200	0.548839	2.197440	-0.747913	-0.357076	-0.336034	-0.013729	-0.011000	-0.008245
686	3.485944	0.005000	9.025200	0.395738	2.235011	-0.748466	-0.357297	-0.336158	-0.005469	-0.001758	0.003528
687	3.490944	0.005000	9.095508	0.431640	2.319246	-0.749018	-0.357518	-0.336281	-0.016438	0.003208	-0.005763
688	3.495944	0.005000	9.208572	0.477294	2.367228	-0.749570	-0.357739	-0.336404	-0.008532	-0.002138	0.003108
689	3.500944	0.005000	9.089748	0.392400	2.275920	-0.750122	-0.357959	-0.336528	-0.012103	0.000630	-0.002315
690	3.505944	0.005000	9.046901	0.403251	2.212453	-0.750674	-0.358180	-0.336651	-0.020516	-0.011126	-0.004399
691	3.510944	0.005000	9.051340	0.457780	2.262820	-0.749880	-0.357920	-0.337956	-0.013744	0.001745	0.002045
692	3.515944	0.005000	9.127717	0.416437	2.282289	-0.748886	-0.357589	-0.339437	-0.013878	0.004502	-0.002039
693	3.520944	0.005000	9.160535	0.453265	2.254295	-0.747891	-0.357257	-0.340917	-0.011939	-0.005387	-0.000916
694	3.525944	0.005000	9.142920	0.490561	2.256484	-0.746897	-0.356926	-0.342398	-0.010287	-0.001300	-0.011826
695	3.530944	0.005000	9.120950	0.448910	2.285320	-0.745902	-0.356594	-0.343879	-0.008986	-0.005468	-0.005077
696	3.535944	0.005000	9.079582	0.510120	2.236680	-0.744908	-0.356263	-0.345359	0.000305	-0.000450	0.003306
697	3.540944	0.005000	9.090763	0.445046	2.237170	-0.743913	-0.355931	-0.346840	-0.014076	-0.005570	0.008917
698	3.545944	0.005000	8.957223	0.392400	2.325663	-0.742919	-0.355600	-0.348321	-0.018392	-0.007704	0.020695
699	3.550944	0.005000	9.033656	0.353160	2.267464	-0.741924	-0.355268	-0.349802	-0.018412	-0.003060	0.003143
700	3.555944	0.005000	9.025200	0.410643	2.275920	-0.740930	-0.354937	-0.351282	-0.015541	-0.007922	0.006851
701	3.560944	0.005000	9.068190	0.470880	2.240430	-0.739935	-0.354605	-0.352763	-0.016478	0.006514	-0.000772
702	3.565944	0.005000	9.028770	0.470880	2.313375	-0.738941	-0.354274	-0.354244	-0.015074	0.000327	-0.006163
703	3.570944	0.005000	9.142308	0.432252	2.275920	-0.737946	-0.353942	-0.355724	-0.018424	-0.004685	0.008039
704	3.575944	0.005000	9.136960	0.467900	2.272940	-0.737273	-0.353490	-0.356577	-0.006696	0.005918	0.003423
705	3.580944	0.005000	9.108640	0.402321	2.168121	-0.737162	-0.352827	-0.356331	-0.013053	-0.000073	0.002490
706	3.585944	0.005000	9.064440	0.360537	2.150823	-0.737052	-0.352165	-0.356084	-0.015963	-0.001745	0.000959
707	3.590944	0.005000	9.133254	0.431640	2.227014	-0.736942	-0.351502	-0.355837	-0.012375	0.002746	-0.002826
708	3.595944	0.005000	9.072110	0.486665	2.342672	-0.736831	-0.350839	-0.355590	-0.004940	-0.000459	0.006614
709	3.600944	0.005000	9.114638	0.445781	2.286878	-0.736721	-0.350177	-0.355344	-0.012326	-0.000374	0.000755
710	3.605944	0.005000	9.080793	0.415287	2.321695	-0.736610	-0.349514	-0.355097	-0.014338	-0.002655	0.025400
711	3.610944	0.005000	9.083183	0.431640	2.354400	-0.736500	-0.348851	-0.354850	-0.021531	0.004009	-0.005205
712	3.615944	0.005000	9.103680	0.431640	2.333494	-0.736390	-0.348189	-0.354604	-0.003361	-0.013178	0.012040
713	3.620944	0.005000	9.041123	0.447563	2.229285	-0.736279	-0.347526	-0.354357	-0.005087	0.003577	0.014127
714	3.625944	0.005000	9.027393	0.417829	2.356593	-0.736169	-0.346863	-0.354110	-0.009337	0.001328	0.010710
715	3.630944	0.005000	9.126552	0.364596	2.275920	-0.736058	-0.346201	-0.353863	-0.017277	-0.002533	0.009518
716	3.635944	0.005000	9.064440	0.362327	2.215774	-0.735948	-0.345538	-0.353617	-0.018065	0.002042	0.010512
717	3.640944	0.005000	9.064440	0.366664	2.315160	-0.735838	-0.344875	-0.353370	-0.012706	-0.004860	0.014115
718	3.645944	0.005000	9.103680	0.436390	2.280670	-0.735915	-0.344870	-0.353648	-0.019663	0.010264	0.015510
719	3.650944	0.005000	9.025200	0.385192	2.275920	-0.736025	-0.344981	-0.354018	-0.007774	-0.007474	0.020222
720	3.655944	0.005000	9.064425	0.353130	2.197470	-0.736136	-0.345091	-0.354388	-0.002626	0.003507	0.017111
721	3.660944	0.005000	9.062481	0.353160	2.309283	-0.736246	-0.345202	-0.354758	-0.016502	-0.000697	0.010382
722	3.665944	0.005000	9.129830	0.388037	2.284647	-0.736357	-0.345312	-0.355128	-0.006538	0.008284	0.008288
723	3.670944	0.005000	9.162056	0.385699	2.255816	-0.736467	-0.345423	-0.355499	-0.011947	0.005087	0.002732
724	3.675944	0.005000	9.212677	0.431640	2.267197	-0.736578	-0.345533	-0.355869	-0.007651	-0.004006	0.012785
725	3.680944	0.005000	9.137072	0.403531	2.247811	-0.736688	-0.345644	-0.356239	-0.020926	-0.001330	0.006469
726	3.685944	0.005000	9.142920	0.418550	2.262830	-0.736799	-0.345754	-0.356609	-0.012364	-0.004391	0.003515
727	3.690944	0.005000	9.158408	0.416152	2.173688	-0.736909	-0.345865	-0.356979	-0.009463	-0.002052	0.010299
728	3.695944	0.005000	9.139047	0.431640	2.211251	-0.737020	-0.345975	-0.357349	-0.016505	0.009479	0.004013
729	3.700944	0.005000	9.004914	0.470880	2.256078	-0.737130	-0.346086	-0.357720	-0.009476	0.002078	0.009774
730	3.705944	0.005000	9.159914	0.448634	2.354400	-0.737240	-0.346196	-0.358090	-0.012360	0.004621	-0.006141
731	3.710944	0.005000	9.068955	0.431640	2.261335	-0.737275	-0.346193	-0.357995	-0.012597	0.005148	-0.001205
732	3.715944	0.005000	9.142920	0.392400	2.250637	-0.737165	-0.345972	-0.357008	-0.004686	0.001790	0.001035
733	3.720944	0.005000	9.122466	0.324147	2.217894	-0.737054	-0.345751	-0.356021	-0.008431	-0.003193	-0.008709
734	3.725944	0.005000	9.103680	0.313920	2.322980	-0.736944	-0.345531	-0.355035	-0.013550	-0.001076	0.010386
735	3.730944	0.005000	9.097871	0.358969	2.354400	-0.736833	-0.345310	-0.354048	-0.019815	0.010385	0.000253
736	3.735944	0.005000	8.914400	0.360080	2.250520	-0.736723	-0.345089	-0.353061	-0.014539	-0.004513	-0.007783
737	3.740944	0.005000	9.065496	0.430584	2.314104	-0.736613	-0.344868	-0.352074	-0.017445	0.003875	-0.002800
738	3.745944	0.005000	9.142032	0.354048	2.275920	-0.736502	-0.344647	-0.351088	-0.019763	-0.006702	0.001922
739	3.750944	0.005000	9.178854	0.317226	2.239986	-0.736392	-0.344426	-0.350101	-0.009716	-0.007142	0.008963
740	3.755944	0.005000	9.064440	0.268969	2.303739	-0.736281	-0.344205	-0.349114	-0.012331	0.004518	-0.006996
741	3.760944	0.005000	9.095647	0.361193	2.354400	-0.736171	-0.343984	-0.348128	-0.009736	-0.016342	0.004606
742	3.765944	0.005000	9.132850	0.392400	2.354400	-0.736061	-0.343763	-0.347141	-0.016493	-0.006318	-0.006525
743	3.770944	0.005000	9.155398	0.406684	2.379356	-0.735950	-0.343542	-0.346154	-0.008186	-0.012946	0.001145
744	3.775944	0.005000	9.133462	0.407291	2.417989	-0.735840	-0.343322	-0.345168	-0.008566	-0.014421	0.009863
745	3.780944	0.005000	9.081534	0.353160	2.327201	-0.735546	-0.343009	-0.346127	-0.010458	-0.003283	-0.010723
746	3.785944	0.005000	9.044437	0.372397	2.374403	-0.735214	-0.342677	-0.347484	-0.019802	-0.006924	0.003563
747	3.790944	0.005000	9.042791	0.409991	2.376049	-0.734883	-0.342346	-0.348841	-0.012828	0.005617	-0.009844
748	3.795944	0.005000	9.033520	0.455420	2.315160	-0.734551	-0.342014	-0.350198	-0.010028	-0.020083	-0.004333
749	3.800944	0.005000	8.985960	0.405485	2.223610	-0.734220	-0.341683	-0.351556	-0.015748	-0.007929	-0.003189
750	3.805944	0.005000	8.996784	0.460056	2.332751	-0.733888	-0.341351	-0.352913	-0.011254	-0.005639	-0.011583
751	3.810944	0.005000	9.072857	0.423223	2.345983	-0.733557	-0.341020	-0.354270	-0.018045	-0.005966	-0.002161
752	3.815944	0.005000	9.070839	0.372356	2.380842	-0.733225	-0.340688	-0.355627	-0.014215	-0.001948	-0.014262
753	3.820944	0.005000	9.056326	0.388343	2.385526	-0.732894	-0.340357	-0.356985	-0.006413	-0.016307	-0.005519
754	3.825944	0.005000	9.103680	0.429987	2.463856	-0.732562	-0.340025	-0.358342	-0.022138	-0.011552	-0.004551
755	3.830944	0.005000	9.064731	0.431349	2.314869	-0.732231	-0.339694	-0.359699	-0.019049	-0.021094	0.000799
756	3.835944	0.005000	9.137502	0.428931	2.236680	-0.731899	-0.339362	-0.361057	-0.012504	-0.008895	-0.004028
757	3.840944	0.005000	9.148034	0.348046	2.202554	-0.731568	-0.339031	-0.362414	-0.015291	-0.007419	-0.013134
758	3.845944	0.005000	9.128035	0.392400	2.253592	-0.731450	-0.338877	-0.363333	-0.006612	-0.017312	-0.004553
759	3.850944	0.005000	9.083363	0.353160	2.335477	-0.731781	-0.339098	-0.363333	-0.008156	-0.020389	-0.000261
760	3.855944	0.005000	9.040688	0.419764	2.354400	-0.732113	-0.339319	-0.363333	-0.006231	-0.022465	-0.003565
761	3.860944	0.005000	9.064440	0.392400	2.301046	-0.732444	-0.339540	-0.363333	-0.014116	-0.007913	0.000452
762	3.865944	0.005000	8.979178	0.399182	2.331389	-0.732775	-0.339761	-0.363333	-0.012847	-0.011807	-0.004230
763	3.870944	0.005000	8.987919	0.412999	2.374999	-0.733107	-0.339982	-0.363333	-0.011051	-0.010734	0.012527
764	3.875944	0.005000	9.085492	0.410588	2.378315	-0.733438	-0.340203	-0.363333	-0.018657	-0.008239	0.001652
765	3.880944	0.005000	9.041250	0.431640	2.354400	-0.733770	-0.340424	-0.363333	-0.008868	-0.018528	0.000005
766	3.885944	0.005000	8.985960	0.392400	2.315160	-0.734101	-0.340644	-0.363333	-0.011840	-0.019678	-0.003405
767	3.890944	0.005000	8.997381	0.448037	2.270944	-0.734432	-0.340865	-0.363333	-0.011303	-0.017257	-0.006107
768	3.895944	0.005000	9.015836	0.362524	2.197440	-0.734764	-0.341086	-0.363333	-0.007617	-0.012572	-0.000759
769	3.900944	0.005000	8.993031	0.424569	2.243751	-0.735095	-0.341307	-0.363333	-0.011467	-0.015852	-0.004307
770	3.905944	0.005000	9.059786	0.505466	2.236680	-0.735427	-0.341528	-0.363333	-0.003256	-0.014270	-0.001343
771	3.910944	0.005000	9.067118	0.316598	2.304450	-0.735758	-0.341749	-0.363333	-0.017369	-0.004425	-0.005818
772	3.915944	0.005000	9.143223	0.431640	2.197440	-0.735910	-0.341880	-0.363233	-0.007057	-0.015718	-0.006543
773	3.920944	0.005000	9.182160	0.431640	2.197440	-0.736021	-0.341991	-0.363110	-0.006367	-0.008065	-0.009303
774	3.925944	0.005000	9.108143	0.396863	2.266995	-0.736131	-0.342102	-0.362986	-0.011084	-0.010192	-0.008122
775	3.930944	0.005000	9.038117	0.398858	2.216815	-0.736242	-0.342212	-0.362863	-0.008856	-0.011078	0.009576
776	3.935944	0.005000	9.025200	0.322785	2.227815	-0.736352	-0.342323	-0.362740	-0.020661	0.001213	-0.005737
777	3.940944	0.005000	9.103680	0.381251	2.337458	-0.736463	-0.342433	-0.362616	-0.009759	-0.011725	0.001138
778	3.945944	0.005000	9.156143	0.313920	2.315160	-0.736573	-0.342544	-0.362493	-0.020316	-0.010877	0.000879
779	3.950944	0.005000	9.111657	0.361137	2.362377	-0.736684	-0.342654	-0.362370	-0.015137	-0.012426	-0.002782
780	3.955944	0.005000	9.160755	0.374565	2.329425	-0.736794	-0.342765	-0.362246	-0.004202	-0.010985	0.005442
781	3.960944	0.005000	9.163130	0.372190	2.274740	-0.736905	-0.342875	-0.362123	-0.014935	-0.004224	-0.007972
782	3.965944	0.005000	9.120521	0.392400	2.236680	-0.737015	-0.342986	-0.362000	-0.011430	-0.009387	0.010418
783	3.970944	0.005000	9.211024	0.392400	2.197440	-0.737126	-0.343096	-0.361876	-0.019788	0.005708	-0.000241
784	3.975944	0.005000	9.185711	0.378136	2.211704	-0.737236	-0.343207	-0.361753	-0.014339	-0.008258	0.003608
785	3.980944	0.005000	9.054366	0.421566	2.236680	-0.737280	-0.343251	-0.361667	-0.008069	-0.003452	0.008680
786	3.985944	0.005000	9.017167	0.400433	2.291985	-0.737169	-0.343140	-0.361667	-0.011920	-0.005513	-0.002982
787	3.990944	0.005000	9.115128	0.386676	2.287368	-0.737059	-0.343029	-0.361667	-0.014250	-0.005401	0.012023
788	3.995944	0.005000	9.172239	0.431640	2.239987	-0.736948	-0.342919	-0.361667	-0.009366	-0.003051	0.005455
789	4.000944	0.005000	9.142920	0.392400	2.198343	-0.736838	-0.342808	-0.361667	-0.004935	-0.013807	-0.001335
790	4.005944	0.005000	9.066521	0.468799	2.313079	-0.736727	-0.342698	-0.361667	-0.013265	-0.001709	0.004632
791	4.010944	0.005000	9.103680	0.356605	2.347510	-0.736617	-0.342587	-0.361667	-0.007940	-0.006662	0.004586
792	4.015944	0.005000	9.076027	0.386606	2.214821	-0.736506	-0.342477	-0.361667	-0.011474	-0.005984	0.015368
793	4.020944	0.005000	9.135115	0.423835	2.150395	-0.736396	-0.342366	-0.361667	-0.008167	0.002960	0.003026
794	4.025944	0.005000	9.105288	0.481092	2.286132	-0.736285	-0.342256	-0.361667	-0.010761	-0.007895	0.013527
795	4.030944	0.005000	9.064440	0.392400	2.288400	-0.736175	-0.342145	-0.361667	-0.009609	0.004617	0.006895
796	4.035944	0.005000	9.025200	0.387075	2.290775	-0.736065	-0.342035	-0.361667	-0.009046	0.001660	0.003069
797	4.040944	0.005000	9.064440	0.426358	2.258941	-0.735954	-0.341924	-0.361667	-0.013733	0.004986	0.004422
798	4.045944	0.005000	9.044366	0.294754	2.255846	-0.735844	-0.341814	-0.361667	-0.016493	-0.007358	-0.000848
799	4.050944	0.005000	9.043106	0.353160	2.315160	-0.735821	-0.341703	-0.361569	-0.012605	-0.008808	0.008740
800	4.055944	0.005000	9.103680	0.407894	2.181946	-0.735821	-0.341593	-0.361446	-0.016842	0.006479	0.001259
801	4.060944	0.005000	9.025200	0.431640	2.289308	-0.735821	-0.341482	-0.361322	-0.006604	-0.009148	-0.005783
802	4.065944	0.005000	9.036341	0.498979	2.326301	-0.735821	-0.341372	-0.361199	-0.020906	0.000350	0.003041
803	4.070944	0.005000	9.103680	0.418580	2.336946	-0.735821	-0.341262	-0.361075	-0.011298	-0.006827	0.002966
804	4.075944	0.005000	9.182160	0.458234	2.197440	-0.735821	-0.341151	-0.360952	-0.007813	-0.004705	0.008199
805	4.080944	0.005000	9.155899	0.388074	2.249659	-0.735821	-0.341041	-0.360829	-0.012191	-0.001561	-0.003190
806	4.085944	0.005000	9.066414	0.390426	2.313186	-0.735821	-0.340930	-0.360705	-0.008557	-0.004172	0.011889
807	4.090944	0.005000	9.142481	0.353160	2.275920	-0.735821	-0.340820	-0.360582	-0.015655	0.004258	0.017706
808	4.095944	0.005000	9.177385	0.350773	2.280695	-0.735821	-0.340709	-0.360459	-0.006676	-0.004403	0.012817
809	4.100944	0.005000	9.221400	0.500536	2.324744	-0.735821	-0.340599	-0.360335	-0.008234	-0.004497	0.011034
810	4.105944	0.005000	9.175035	0.478005	2.211690	-0.735821	-0.340489	-0.360212	-0.018915	0.003302	0.011133
811	4.110944	0.005000	9.084680	0.420900	2.217680	-0.735821	-0.340378	-0.360089	-0.006077	-0.005516	0.016982
812	4.115944	0.005000	9.103680	0.392400	2.220558	-0.735821	-0.340361	-0.359965	-0.007555	0.004378	0.003483
813	4.120944	0.005000	9.064440	0.431640	2.312967	-0.735821	-0.340582	-0.359842	-0.009244	-0.012022	0.011339
814	4.125944	0.005000	9.087494	0.369346	2.282788	-0.735821	-0.340803	-0.359718	-0.014522	0.001579	0.004125
815	4.130944	0.005000	9.064440	0.392400	2.273333	-0.735821	-0.341024	-0.359595	-0.004120	-0.003648	-0.002441
816	4.135944	0.005000	9.025200	0.413137	2.255183	-0.735821	-0.341245	-0.359471	-0.010521	-0.003589	0.008142
817	4.140944	0.005000	9.133057	0.353160	2.292288	-0.735821	-0.341466	-0.359348	-0.012757	0.005099	0.002444
818	4.145944	0.005000	9.103680	0.381453	2.343453	-0.735821	-0.341687	-0.359225	-0.008870	-0.008126	0.008867
819	4.150944	0.005000	9.052697	0.459137	2.413405	-0.735821	-0.341908	-0.359101	-0.013432	-0.001025	0.002681
820	4.155944	0.005000	9.103680	0.461199	2.236680	-0.735821	-0.342129	-0.358978	-0.010597	-0.011171	0.007982
821	4.160944	0.005000	9.008136	0.439032	2.275920	-0.735821	-0.342350	-0.358854	-0.012599	-0.003719	0.006975
822	4.165944	0.005000	9.152872	0.392400	2.236680	-0.735821	-0.342571	-0.358731	-0.014885	-0.008938	0.001741
823	4.170944	0.005000	9.250356	0.355731	2.385927	-0.735821	-0.342792	-0.358608	-0.006755	-0.017076	0.008105
824	4.175944	0.005000	9.144160	0.431640	2.198680	-0.735821	-0.343013	-0.358484	-0.006401	-0.006411	0.010637
825	4.180944	0.005000	9.258849	0.469089	2.275920	-0.735821	-0.343234	-0.358361	-0.007025	-0.008219	-0.001416
826	4.185944	0.005000	9.147065	0.396545	2.311015	-0.735735	-0.343113	-0.358429	-0.012957	0.000177	0.008325
827	4.190944	0.005000	9.115959	0.320059	2.360539	-0.735625	-0.342892	-0.358552	-0.006411	-0.017107	-0.004266
828	4.195944	0.005000	9.125810	0.344605	2.362955	-0.735514	-0.342671	-0.358676	0.001549	-0.010111	0.011351
829	4.200944	0.005000	9.103680	0.420678	2.236680	-0.735404	-0.342450	-0.358799	-0.010276	-0.005211	0.000125
830	4.205944	0.005000	9.051219	0.379179	2.249478	-0.735293	-0.342229	-0.358922	-0.004870	-0.022968	0.001056
831	4.210944	0.005000	9.197480	0.377080	2.275920	-0.735183	-0.342008	-0.359046	-0.012685	-0.000609	-0.003926
832	4.215944	0.005000	9.125191	0.413911	2.254409	-0.735072	-0.341787	-0.359169	-0.009675	-0.014928	-0.010121
833	4.220944	0.005000	9.142345	0.353160	2.256587	-0.734962	-0.341566	-0.359293	-0.004513	-0.014754	0.006522
834	4.225944	0.005000	9.042363	0.387485	2.219517	-0.734851	-0.341345	-0.359416	-0.009184	-0.006098	-0.010701
835	4.230944	0.005000	9.039953	0.392400	2.172953	-0.734740	-0.341124	-0.359539	0.001203	-0.019306	0.005233
836	4.235944	0.005000	9.182160	0.404740	2.234460	-0.734630	-0.340903	-0.359663	-0.011121	-0.006424	-0.002824
837	4.240944	0.005000	9.240097	0.402671	2.267494	-0.734519	-0.340682	-0.359786	-0.008561	-0.012736	-0.003104
838	4.245944	0.005000	9.182160	0.376422	2.362389	-0.734409	-0.340461	-0.359910	-0.016643	-0.010567	-0.008936
839	4.250944	0.005000	9.215827	0.280253	2.337681	-0.734684	-0.340684	-0.359371	-0.008974	-0.014981	-0.000919
840	4.255944	0.005000	9.132165	0.356745	2.315160	-0.736010	-0.342121	-0.357027	-0.012991	-0.017148	-0.009355
841	4.260944	0.005000	9.141696	0.392400	2.315160	-0.737336	-0.343557	-0.354682	-0.015371	-0.016457	-0.014466
842	4.265944	0.005000	9.103680	0.392400	2.353220	-0.738662	-0.344994	-0.352338	-0.005796	-0.016978	-0.003045
843	4.270944	0.005000	9.070715	0.389263	2.344988	-0.739988	-0.346430	-0.349993	-0.010016	-0.007220	-0.008781
844	4.275944	0.005000	9.182160	0.397942	2.197440	-0.741314	-0.347866	-0.347649	-0.008525	-0.018904	-0.008955
845	4.280944	0.005000	9.244908	0.408132	2.283786	-0.742640	-0.349303	-0.345304	-0.009602	-0.011096	0.001401
846	4.285944	0.005000	9.133385	0.460978	2.256116	-0.743966	-0.350739	-0.342960	-0.010482	-0.014340	-0.002138
847	4.290944	0.005000	9.025200	0.394712	2.222059	-0.745292	-0.352176	-0.340616	-0.011539	-0.021285	0.006668
848	4.295944	0.005000	9.049888	0.456328	2.296190	-0.746618	-0.353612	-0.338271	-0.012007	-0.008323	-0.008281
849	4.300944	0.005000	9.165503	0.476805	2.281845	-0.747944	-0.355048	-0.335927	-0.009478	-0.023490	-0.007621
850	4.305944	0.005000	9.142920	0.391298	2.315160	-0.749270	-0.356485	-0.333582	-0.012594	-0.009912	0.002181
851	4.310944	0.005000	9.085663	0.389193	2.311953	-0.750596	-0.357921	-0.331238	0.000757	-0.016361	-0.006168
852	4.315944	0.005000	9.064440	0.431640	2.464511	-0.751922	-0.359358	-0.328893	-0.020665	-0.016489	0.000425
853	4.320944	0.005000	9.090274	0.418234	2.419474	-0.751398	-0.359112	-0.329929	-0.028882	-0.010194	-0.000765
854	4.325944	0.005000	9.092350	0.375821	2.309079	-0.750293	-0.358339	-0.332027	-0.020587	-0.020846	0.004263
855	4.330944	0.005000	9.112728	0.470880	2.266872	-0.749188	-0.357566	-0.334125	-0.017552	-0.007491	-0.006316
856	4.335944	0.005000	9.208116	0.470880	2.334474	-0.748083	-0.356792	-0.336223	-0.013647	-0.011422	-0.002824
857	4.340944	0.005000	9.128988	0.514764	2.305872	-0.746978	-0.356019	-0.338320	-0.011163	-0.011070	0.006887
858	4.345944	0.005000	9.140639	0.505558	2.278201	-0.745873	-0.355245	-0.340418	-0.009267	-0.008524	-0.000634
859	4.350944	0.005000	9.181918	0.431640	2.315160	-0.744768	-0.354472	-0.342516	-0.007492	-0.010183	0.001679
860	4.355944	0.005000	9.144987	0.468813	2.277987	-0.743663	-0.353698	-0.344613	-0.008898	-0.014460	-0.004641
861	4.360944	0.005000	9.073408	0.505636	2.197440	-0.742558	-0.352925	-0.346711	0.000039	-0.018884	-0.000593
862	4.365944	0.005000	9.038814	0.412822	2.255498	-0.741453	-0.352151	-0.348809	-0.004067	-0.008718	0.008517
863	4.370944	0.005000	9.073274	0.413972	2.201344	-0.740347	-0.351378	-0.350907	-0.005553	-0.011011	-0.000456
864	4.375944	0.005000	9.092442	0.392400	2.247918	-0.739242	-0.350604	-0.353004	-0.011170	-0.010625	0.012185
865	4.380944	0.005000	9.103680	0.366653	2.275920	-0.738137	-0.349831	-0.355102	-0.007685	-0.005415	0.000642
866	4.385944	0.005000	9.221400	0.376805	2.189390	-0.737313	-0.349142	-0.356730	-0.008372	-0.007757	0.017989
867	4.390944	0.005000	9.064440	0.374395	2.179435	-0.737313	-0.348700	-0.356976	-0.014561	0.001957	-0.000068
868	4.395944	0.005000	9.102561	0.469761	2.215381	-0.737313	-0.348258	-0.357223	-0.013279	-0.006734	-0.002154
869	4.400944	0.005000	9.165475	0.414955	2.298475	-0.737313	-0.347816	-0.357470	-0.015610	0.007422	0.010335
870	4.405944	0.005000	9.142920	0.417172	2.236680	-0.737313	-0.347375	-0.357716	-0.017531	0.007155	0.007427
871	4.410944	0.005000	9.064440	0.353160	2.272859	-0.737313	-0.346933	-0.357963	-0.013849	-0.005945	0.012962
872	4.415944	0.005000	9.123678	0.353160	2.304405	-0.737313	-0.346491	-0.358210	-0.014043	0.009696	0.000376
873	4.420944	0.005000	9.182160	0.447042	2.268219	-0.737313	-0.346049	-0.358456	-0.012673	-0.004309	-0.001359
874	4.425944	0.005000	9.108975	0.549360	2.286511	-0.737313	-0.345607	-0.358703	-0.017070	0.007808	0.009435
875	4.430944	0.005000	9.064440	0.467567	2.161513	-0.737313	-0.345166	-0.358949	-0.020062	0.007908	0.008794
876	4.435944	0.005000	9.178469	0.392400	2.198363	-0.737313	-0.344724	-0.359196	-0.011606	0.005318	0.003578
877	4.440944	0.005000	9.100740	0.467940	2.198910	-0.737313	-0.344282	-0.359443	-0.009008	0.002513	0.001599
878	4.445944	0.005000	9.064440	0.467038	2.275920	-0.737313	-0.343840	-0.359689	-0.004539	-0.005658	0.012137
879	4.450944	0.005000	9.131284	0.392400	2.287556	-0.737313	-0.343399	-0.359936	-0.016901	0.006796	0.002367
880	4.455944	0.005000	9.182160	0.361394	2.213907	-0.737804	-0.343366	-0.360091	-0.012970	-0.000050	0.000018
881	4.460944	0.005000	9.203187	0.439340	2.247193	-0.738467	-0.343476	-0.360215	-0.012683	-0.002669	0.014143
882	4.465944	0.005000	9.077025	0.444225	2.263335	-0.739130	-0.343587	-0.360338	-0.011499	-0.001272	0.001807
883	4.470944	0.005000	9.167162	0.470880	2.212438	-0.739793	-0.343697	-0.360462	-0.010453	-0.004775	0.007413
884	4.475944	0.005000	9.142920	0.431640	2.214848	-0.740456	-0.343808	-0.360585	-0.002658	0.011795	0.006050
885	4.480944	0.005000	9.103741	0.353099	2.256270	-0.741120	-0.343918	-0.360709	0.002683	-0.008481	0.006100
886	4.485944	0.005000	9.142920	0.313920	2.336923	-0.741783	-0.344029	-0.360832	-0.005625	0.005752	0.001222
887	4.490944	0.005000	9.103680	0.344050	2.315160	-0.742446	-0.344139	-0.360955	-0.012183	-0.002764	0.000049
888	4.495944	0.005000	9.051128	0.392400	2.288884	-0.743109	-0.344250	-0.361079	-0.002774	0.000847	0.010055
889	4.500944	0.005000	9.092967	0.460167	2.325873	-0.743772	-0.344360	-0.361202	-0.009474	0.009228	0.002893
890	4.505944	0.005000	9.126324	0.532764	2.323458	-0.744435	-0.344470	-0.361326	-0.008507	-0.003826	0.007664
891	4.510944	0.005000	9.142920	0.464988	2.270028	-0.745098	-0.344581	-0.361449	-0.016782	0.008471	0.005772
892	4.515944	0.005000	9.127309	0.443348	2.169908	-0.745761	-0.344691	-0.361572	-0.007765	-0.000956	0.006714
893	4.520944	0.005000	9.023687	0.508607	2.239705	-0.746062	-0.344750	-0.361667	-0.010316	-0.007536	0.003758
894	4.525944	0.005000	9.062695	0.470880	2.315160	-0.745179	-0.344640	-0.361667	-0.021570	0.003693	0.001466
895	4.530944	0.005000	9.145736	0.398032	2.203072	-0.744295	-0.344529	-0.361667	-0.016525	-0.002313	0.012603
896	4.535944	0.005000	9.114122	0.465659	2.241901	-0.743411	-0.344419	-0.361667	-0.016109	0.002880	0.003094
897	4.540944	0.005000	9.088583	0.478428	2.322708	-0.742528	-0.344309	-0.361667	-0.015619	-0.003550	0.002707
898	4.545944	0.005000	9.045047	0.441563	2.295313	-0.741644	-0.344198	-0.361667	0.004114	-0.003503	0.013888
899	4.550944	0.005000	9.052452	0.431640	2.260656	-0.740760	-0.344088	-0.361667	-0.013127	-0.016124	0.012217
900	4.555944	0.005000	9.014763	0.431640	2.290321	-0.739877	-0.343977	-0.361667	-0.001950	-0.012230	0.010464
901	4.560944	0.005000	9.064440	0.470880	2.383051	-0.738993	-0.343867	-0.361667	-0.010838	0.004758	-0.011520
902	4.565944	0.005000	9.122435	0.371915	2.274190	-0.738110	-0.343756	-0.361667	-0.012826	-0.010271	0.001381
903	4.570944	0.005000	9.046366	0.353160	2.318251	-0.737226	-0.343646	-0.361667	-0.013577	-0.004979	0.011642
904	4.575944	0.005000	9.135568	0.376456	2.236680	-0.736342	-0.343536	-0.361667	-0.008802	-0.003439	-0.006424
905	4.580944	0.005000	9.156638	0.417922	2.185636	-0.735459	-0.343425	-0.361667	-0.005111	-0.000345	0.002607
906	4.585944	0.005000	9.142920	0.403710	2.275920	-0.734575	-0.343315	-0.361667	-0.007347	0.004077	-0.000199
907	4.590944	0.005000	9.154386	0.392400	2.324418	-0.734328	-0.343682	-0.361667	-0.013135	-0.013158	0.003943
908	4.595944	0.005000	9.018249	0.360111	2.257532	-0.734328	-0.344235	-0.361667	-0.013436	-0.002041	0.009053
909	4.600944	0.005000	9.029747	0.357707	2.354400	-0.734328	-0.344787	-0.361667	-0.009617	-0.011559	0.005404
910	4.605944	0.005000	9.069583	0.389828	2.393640	-0.734328	-0.345339	-0.361667	-0.013658	-0.006368	0.015078
911	4.610944	0.005000	9.103879	0.353359	2.315359	-0.734328	-0.345892	-0.361667	-0.015953	-0.014901	-0.002143
912	4.615944	0.005000	9.179967	0.429447	2.354400	-0.734328	-0.346444	-0.361667	-0.011697	0.000755	0.004460
913	4.620944	0.005000	9.021037	0.510120	2.350237	-0.734328	-0.346997	-0.361667	-0.015548	-0.001881	-0.005626
914	4.625944	0.005000	9.025200	0.464312	2.472120	-0.734328	-0.347549	-0.361667	-0.004384	-0.001664	0.013585
915	4.630944	0.005000	9.016320	0.370919	2.354400	-0.734328	-0.348102	-0.361667	-0.013698	-0.000436	0.004594
916	4.635944	0.005000	9.114607	0.353160	2.230222	-0.734328	-0.348654	-0.361667	-0.006086	-0.011632	-0.001567
917	4.640944	0.005000	9.129585	0.405735	2.172301	-0.734328	-0.349207	-0.361667	-0.010234	-0.011348	0.007605
918	4.645944	0.005000	9.040766	0.392400	2.307702	-0.734328	-0.349759	-0.361667	-0.017418	-0.014372	-0.002559
919	4.650944	0.005000	9.011365	0.392400	2.358257	-0.734328	-0.350311	-0.361667	-0.004723	-0.014966	0.006252
920	4.655944	0.005000	9.103196	0.333782	2.355368	-0.734422	-0.350628	-0.361641	-0.008574	-0.005596	-0.000773
921	4.660944	0.005000	9.221400	0.309067	2.253873	-0.734864	-0.350076	-0.361517	-0.004675	-0.004931	0.002282
922	4.665944	0.005000	9.152592	0.343488	2.339616	-0.735306	-0.349524	-0.361394	-0.010641	-0.006583	0.001430
923	4.670944	0.005000	9.037892	0.392400	2.354400	-0.735748	-0.348972	-0.361271	-0.008397	-0.004709	0.001738
924	4.675944	0.005000	9.114117	0.413275	2.333525	-0.736190	-0.348419	-0.361147	-0.010800	-0.011257	0.010449
925	4.680944	0.005000	9.189310	0.392400	2.228657	-0.736632	-0.347867	-0.361024	-0.014004	-0.000998	0.003866
926	4.685944	0.005000	9.037211	0.365171	2.197440	-0.737073	-0.347315	-0.360901	-0.005246	-0.012911	0.002192
927	4.690944	0.005000	9.025200	0.467207	2.272247	-0.737515	-0.346763	-0.360777	-0.014693	-0.010184	-0.003504
928	4.695944	0.005000	9.065695	0.313920	2.391129	-0.737957	-0.346211	-0.360654	-0.019398	-0.011611	-0.005580
929	4.700944	0.005000	9.065129	0.352471	2.315160	-0.738399	-0.345658	-0.360530	-0.011696	-0.007086	0.004563
930	4.705944	0.005000	9.215215	0.392400	2.236680	-0.738841	-0.345106	-0.360407	-0.014771	-0.005682	-0.003930
931	4.710944	0.005000	9.080777	0.431640	2.197440	-0.739283	-0.344554	-0.360284	-0.004937	-0.017382	0.001948
932	4.715944	0.005000	9.103680	0.392400	2.275920	-0.739725	-0.344002	-0.360160	-0.013317	-0.001280	0.001197
933	4.720944	0.005000	9.083960	0.353160	2.334680	-0.740167	-0.343450	-0.360037	-0.007522	-0.009500	0.000445
934	4.725944	0.005000	9.184578	0.392400	2.182748	-0.740067	-0.343207	-0.360000	-0.016016	-0.001026	0.007370
935	4.730944	0.005000	9.211174	0.367667	2.236680	-0.739736	-0.343096	-0.360000	-0.022999	-0.003307	0.001000
936	4.735944	0.005000	9.081067	0.454253	2.259293	-0.739404	-0.342986	-0.360000	-0.011161	-0.013973	0.000351
937	4.740944	0.005000	9.006162	0.411438	2.354400	-0.739073	-0.342875	-0.360000	-0.022365	-0.005189	0.000032
938	4.745944	0.005000	9.085633	0.389254	2.275920	-0.738741	-0.342765	-0.360000	-0.013788	-0.016248	0.002257
939	4.750944	0.005000	9.080112	0.462984	2.236680	-0.738410	-0.342654	-0.360000	-0.015721	-0.013320	-0.002940
940	4.755944	0.005000	9.025200	0.470880	2.315160	-0.738079	-0.342544	-0.360000	-0.006784	-0.016618	0.000550
941	4.760944	0.005000	9.025200	0.538326	2.337229	-0.737747	-0.342433	-0.360000	-0.001364	-0.007247	0.001698
942	4.765944	0.005000	9.103680	0.461894	2.306174	-0.737416	-0.342323	-0.360000	-0.010605	-0.004313	-0.004313
943	4.770944	0.005000	9.110355	0.379050	2.282595	-0.737085	-0.342212	-0.360000	-0.001644	-0.012869	0.000691
944	4.775944	0.005000	9.077250	0.357430	2.271650	-0.736753	-0.342102	-0.360000	-0.016188	-0.005845	-0.005420
945	4.780944	0.005000	9.103680	0.468581	2.386742	-0.736422	-0.341991	-0.360000	-0.005893	-0.012383	-0.005116
946	4.785944	0.005000	9.064532	0.392492	2.432513	-0.736090	-0.341881	-0.360000	-0.007545	-0.008229	0.007010
947	4.790944	0.005000	9.108611	0.463483	2.278386	-0.735821	-0.341812	-0.359954	-0.018232	-0.001783	-0.006184
948	4.795944	0.005000	8.966143	0.431640	2.231824	-0.735821	-0.341922	-0.359707	-0.010288	-0.007680	0.005885
949	4.800944	0.005000	9.103680	0.399256	2.308304	-0.735821	-0.342033	-0.359460	-0.019514	0.008407	-0.007174
950	4.805944	0.005000	9.064440	0.392400	2.275920	-0.735821	-0.342143	-0.359214	-0.011082	-0.010277	-0.005255
951	4.810944	0.005000	8.997502	0.392400	2.342858	-0.735821	-0.342254	-0.358967	-0.008788	-0.002670	-0.003733
952	4.815944	0.005000	9.115086	0.367077	2.262003	-0.735821	-0.342364	-0.358720	-0.019760	-0.003650	-0.009315
953	4.820944	0.005000	9.096487	0.415616	2.197440	-0.735821	-0.342475	-0.358473	-0.008151	-0.006190	0.001327
954	4.825944	0.005000	9.085247	0.350787	2.317533	-0.735821	-0.342585	-0.358227	-0.009575	-0.003446	-0.004448
955	4.830944	0.005000	9.161316	0.353160	2.336004	-0.735821	-0.342696	-0.357980	-0.001458	-0.014660	-0.005523
956	4.835944	0.005000	9.142920	0.399116	2.275920	-0.735821	-0.342806	-0.357733	-0.012228	-0.005465	-0.008868
957	4.840944	0.005000	9.039072	0.459383	2.326657	-0.735821	-0.342917	-0.357486	-0.012279	-0.013431	-0.010281
958	4.845944	0.005000	9.080418	0.420009	2.409618	-0.735821	-0.343028	-0.357239	-0.011285	-0.006634	0.000874
959	4.850944	0.005000	9.015983	0.431640	2.255113	-0.735821	-0.343138	-0.356993	-0.014322	0.001600	-0.000270
960	4.855944	0.005000	9.078811	0.385215	2.386455	-0.735821	-0.343249	-0.356746	-0.008862	-0.013757	0.003844
961	4.860944	0.005000	9.098813	0.358027	2.354400	-0.735746	-0.344035	-0.356499	-0.008583	-0.004287	-0.004891
962	4.865944	0.005000	9.064440	0.392400	2.317610	-0.735635	-0.345140	-0.356252	-0.004338	-0.009705	-0.003838
963	4.870944	0.005000	9.064939	0.432139	2.352902	-0.735525	-0.346245	-0.356005	-0.005930	-0.003246	0.008565
964	4.875944	0.005000	9.066338	0.508222	2.236680	-0.735414	-0.347350	-0.355759	-0.017834	-0.004676	-0.001834
965	4.880944	0.005000	9.068706	0.400932	2.275920	-0.735304	-0.348455	-0.355512	-0.008473	-0.007620	0.004621
966	4.885944	0.005000	9.064440	0.359419	2.282179	-0.735193	-0.349560	-0.355265	-0.018645	0.002111	-0.005498
967	4.890944	0.005000	9.073106	0.401066	2.245346	-0.735083	-0.350665	-0.355018	-0.006623	-0.005905	0.000915
968	4.895944	0.005000	9.042566	0.364097	2.343463	-0.734972	-0.351770	-0.354771	-0.013387	-0.005329	0.000691
969	4.900944	0.005000	9.156133	0.405613	2.275721	-0.734862	-0.352875	-0.354524	-0.012520	-0.001361	0.001512
970	4.905944	0.005000	9.079867	0.494693	2.228293	-0.734751	-0.353980	-0.354278	-0.013838	-0.010380	0.009196
971	4.910944	0.005000	9.121303	0.492497	2.179817	-0.734640	-0.355085	-0.354031	-0.019242	0.005428	0.005969
972	4.915944	0.005000	9.104002	0.490339	2.256461	-0.734530	-0.356190	-0.353784	-0.007413	-0.003063	0.006282
973	4.920944	0.005000	9.081489	0.493071	2.304876	-0.734419	-0.357295	-0.353537	-0.016586	0.004361	-0.003012
974	4.925944	0.005000	9.010269	0.392400	2.275920	-0.734385	-0.357922	-0.353461	-0.010523	-0.012854	0.006870
975	4.930944	0.005000	9.130228	0.326612	2.288612	-0.734717	-0.356266	-0.354201	-0.011879	-0.002073	0.005410
976	4.935944	0.005000	9.142920	0.412969	2.383356	-0.735048	-0.354609	-0.354941	-0.001040	-0.002935	0.005788
977	4.940944	0.005000	9.111924	0.526609	2.416391	-0.735379	-0.352952	-0.355681	-0.013439	-0.010577	0.017411
978	4.945944	0.005000	9.103680	0.470880	2.309306	-0.735711	-0.351295	-0.356421	-0.008539	-0.008440	0.014122
979	4.950944	0.005000	8.960800	0.463840	2.315160	-0.736042	-0.349639	-0.357161	-0.017280	-0.009514	0.018851
980	4.955944	0.005000	9.069114	0.431640	2.318276	-0.736374	-0.347982	-0.357901	-0.014912	0.003221	0.014771
981	4.960944	0.005000	9.220558	0.508437	2.316843	-0.736705	-0.346325	-0.358641	-0.015643	-0.001068	0.005675
982	4.965944	0.005000	9.146127	0.503706	2.272713	-0.737036	-0.344668	-0.359381	-0.017136	-0.007294	0.018987
983	4.970944	0.005000	9.059252	0.442016	2.202628	-0.737368	-0.343012	-0.360121	-0.014976	-0.005342	0.011457
984	4.975944	0.005000	9.072034	0.470880	2.118960	-0.737699	-0.341355	-0.360861	-0.013501	-0.003150	0.015625
985	4.980944	0.005000	9.142920	0.490334	2.256134	-0.738031	-0.339698	-0.361601	-0.024502	0.001404	0.013816
986	4.985944	0.005000	9.064440	0.522073	2.212775	-0.738362	-0.338041	-0.362341	-0.016404	-0.013799	0.017110
987	4.990944	0.005000	9.035718	0.446001	2.226162	-0.738693	-0.336385	-0.363081	-0.019138	-0.006124	0.024461
988	4.995944	0.005000	9.103680	0.510120	2.236680	-0.738660	-0.335967	-0.363252	-0.022286	-0.006118	0.010099
989	5.000944	0.005000	9.084726	0.508789	2.277251	-0.738439	-0.336188	-0.363128	-0.019830	-0.007055	0.033451
990	5.005944	0.005000	9.103680	0.353160	2.272904	-0.738218	-0.336409	-0.363005	-0.018029	0.011445	0.013421
991	5.010944	0.005000	9.103680	0.399691	2.213414	-0.737998	-0.336629	-0.362882	-0.011931	-0.010169	0.017555
992	5.015944	0.005000	9.115403	0.353160	2.211198	-0.737777	-0.336850	-0.362759	-0.014109	0.001067	0.023418
993	5.020944	0.005000	9.064440	0.403745	2.186095	-0.737556	-0.337071	-0.362635	-0.014817	-0.002080	0.024290
994	5.025944	0.005000	9.151858	0.422702	2.258045	-0.737335	-0.337292	-0.362512	-0.010955	0.001255	0.024707
995	5.030944	0.005000	9.189073	0.366986	2.158200	-0.737114	-0.337513	-0.362389	-0.008581	-0.000623	0.011462
996	5.035944	0.005000	9.212245	0.378667	2.340667	-0.736893	-0.337734	-0.362265	-0.006673	-0.010245	0.011474
997	5.040944	0.005000	9.145094	0.274680	2.238854	-0.736672	-0.337955	-0.362142	-0.003278	0.004837	0.005078
998	5.045944	0.005000	9.103680	0.313920	2.276147	-0.736451	-0.338176	-0.362019	-0.000880	-0.006965	-0.002474
999	5.050944	0.005000	9.140746	0.350986	2.389292	-0.736230	-0.338397	-0.361895	-0.009030	-0.001767	-0.003838
1000	5.055944	0.005000	9.177622	0.353160	2.384564	-0.736010	-0.338617	-0.361772	-0.003034	0.004776	-0.000590
1001	5.060944	0.005000	9.253727	0.346247	2.257419	-0.735934	-0.339017	-0.361432	0.001024	-0.013357	0.000402
1002	5.065944	0.005000	9.112621	0.304979	2.306219	-0.736708	-0.340454	-0.359827	-0.013026	0.008068	-0.010622
1003	5.070944	0.005000	9.142920	0.286036	2.472120	-0.737482	-0.341891	-0.358222	-0.010193	-0.005846	0.003025
1004	5.075944	0.005000	9.116321	0.287979	2.380999	-0.738256	-0.343328	-0.356617	-0.016268	0.008327	-0.013954
1005	5.080944	0.005000	9.127212	0.353160	2.417172	-0.739030	-0.344765	-0.355012	-0.013567	-0.001282	-0.013052
1006	5.085944	0.005000	9.125009	0.274680	2.393640	-0.739804	-0.346202	-0.353408	-0.017310	0.007407	-0.006768
1007	5.090944	0.005000	9.202224	0.353160	2.393640	-0.740578	-0.347640	-0.351803	-0.016903	-0.003569	-0.011050
1008	5.095944	0.005000	9.142920	0.431640	2.393640	-0.741352	-0.349077	-0.350198	-0.012692	-0.008911	-0.012824
1009	5.100944	0.005000	8.996489	0.431640	2.443409	-0.742125	-0.350514	-0.348593	-0.019535	0.008649	-0.021744
1010	5.105944	0.005000	8.998372	0.444052	2.300743	-0.742899	-0.351951	-0.346988	-0.023982	-0.001335	-0.018329
1011	5.110944	0.005000	9.152918	0.490125	2.344402	-0.743673	-0.353388	-0.345383	-0.017282	-0.000695	-0.007298
1012	5.115944	0.005000	9.150892	0.431640	2.432880	-0.744447	-0.354825	-0.343778	-0.023837	-0.005464	-0.027046
1013	5.120944	0.005000	9.081186	0.437222	2.281502	-0.745221	-0.356263	-0.342174	-0.017131	-0.024347	-0.008073
1014	5.125944	0.005000	9.097191	0.585356	2.426391	-0.745995	-0.357700	-0.340569	-0.019203	-0.015939	-0.012599
1015	5.130944	0.005000	8.988440	0.430813	2.432880	-0.746126	-0.357852	-0.340159	-0.011759	-0.019617	-0.006859
1016	5.135944	0.005000	9.103680	0.430523	2.471003	-0.745905	-0.357300	-0.340406	-0.009118	-0.009183	-0.020889
1017	5.140944	0.005000	9.135877	0.431640	2.429359	-0.745684	-0.356747	-0.340653	-0.008150	-0.011893	-0.022209
1018	5.145944	0.005000	9.103680	0.476749	2.315160	-0.745463	-0.356195	-0.340900	-0.005114	-0.017328	-0.009595
1019	5.150944	0.005000	9.127157	0.502238	2.299397	-0.745242	-0.355642	-0.341146	-0.011239	-0.012445	-0.017669
1020	5.155944	0.005000	9.122343	0.549360	2.354400	-0.745021	-0.355090	-0.341393	-0.008494	-0.015921	0.004983
1021	5.160944	0.005000	9.076996	0.497564	2.315160	-0.744800	-0.354537	-0.341640	-0.004769	-0.014710	-0.002701
1022	5.165944	0.005000	9.054492	0.510120	2.305212	-0.744579	-0.353985	-0.341887	-0.010644	-0.018092	0.001030
1023	5.170944	0.005000	9.103680	0.566416	2.253736	-0.744358	-0.353432	-0.342133	-0.003503	-0.008566	-0.002516
1024	5.175944	0.005000	9.083682	0.489365	2.256678	-0.744137	-0.352880	-0.342380	-0.013089	-0.018746	-0.010401
1025	5.180944	0.005000	8.971712	0.574352	2.272339	-0.743916	-0.352327	-0.342627	0.000543	-0.020236	0.004413
1026	5.185944	0.005000	8.985960	0.518525	2.166605	-0.743695	-0.351774	-0.342874	-0.009441	-0.001688	-0.001191
1027	5.190944	0.005000	9.143661	0.510120	2.275920	-0.743474	-0.351222	-0.343120	-0.000835	-0.023958	0.007899
1028	5.195944	0.005000	9.092611	0.577531	2.164232	-0.743177	-0.350654	-0.343538	-0.021994	-0.012955	0.016715
1029	5.200944	0.005000	9.011947	0.510120	2.158200	-0.742403	-0.349991	-0.345019	-0.014437	-0.019150	0.014273
1030	5.205944	0.005000	9.117117	0.529204	2.171637	-0.741630	-0.349328	-0.346500	-0.000339	-0.022911	0.020310
1031	5.210944	0.005000	9.221400	0.353160	2.236680	-0.740856	-0.348665	-0.347980	-0.006198	-0.010171	0.018291
1032	5.215944	0.005000	9.221400	0.470880	2.241339	-0.740083	-0.348002	-0.349461	-0.005996	-0.016764	0.014514
1033	5.220944	0.005000	9.143012	0.392492	2.315160	-0.739309	-0.347339	-0.350942	-0.020367	-0.000572	0.012787
1034	5.225944	0.005000	9.142920	0.394835	2.312725	-0.738536	-0.346676	-0.352422	-0.012809	-0.019039	0.012410
1035	5.230944	0.005000	9.177752	0.427232	2.275920	-0.737762	-0.346013	-0.353903	-0.021004	-0.012672	0.012044
1036	5.235944	0.005000	9.142920	0.496494	2.269107	-0.736989	-0.345350	-0.355384	-0.025617	-0.009786	0.007169
1037	5.240944	0.005000	9.121195	0.431640	2.236680	-0.736215	-0.344687	-0.356864	-0.025041	0.003833	0.015305
1038	5.245944	0.005000	9.075612	0.459708	2.186268	-0.735442	-0.344024	-0.358345	-0.017806	0.000069	0.015420
1039	5.250944	0.005000	9.182160	0.484298	2.392626	-0.734668	-0.343361	-0.359826	-0.009730	-0.006834	0.008609
1040	5.255944	0.005000	9.173969	0.416115	2.252205	-0.733895	-0.342698	-0.361307	-0.015314	0.001001	0.006956
1041	5.260944	0.005000	9.046512	0.452952	2.290465	-0.733121	-0.342035	-0.362787	-0.012692	-0.002232	0.008952
1042	5.265944	0.005000	9.103680	0.373499	2.277359	-0.732836	-0.341721	-0.362788	-0.015178	-0.013027	0.014532
1043	5.270944	0.005000	9.148245	0.381357	2.298399	-0.732836	-0.341611	-0.361925	-0.021795	-0.000875	0.003360
1044	5.275944	0.005000	9.167615	0.328465	2.358794	-0.732836	-0.341500	-0.361061	-0.022074	-0.003080	0.011679
1045	5.280944	0.005000	9.115816	0.446608	2.435711	-0.732836	-0.341390	-0.360198	-0.015695	0.012405	0.012297
1046	5.285944	0.005000	9.182160	0.353160	2.305085	-0.732836	-0.341280	-0.359335	-0.010305	0.000372	0.015714
1047	5.290944	0.005000	9.095902	0.384622	2.299605	-0.732836	-0.341169	-0.358471	-0.010281	0.001018	0.011709
1048	5.295944	0.005000	9.092936	0.353160	2.236680	-0.732836	-0.341059	-0.357608	-0.015973	0.002959	0.004558
1049	5.300944	0.005000	9.139532	0.313920	2.275920	-0.732836	-0.340948	-0.356745	-0.006343	-0.009656	0.010685
1050	5.305944	0.005000	9.102670	0.314930	2.316170	-0.732836	-0.340838	-0.355881	-0.012179	0.004383	0.012431
1051	5.310944	0.005000	9.140167	0.353160	2.316537	-0.732836	-0.340728	-0.355018	-0.004413	-0.004925	0.000000
1052	5.315944	0.005000	9.178393	0.353160	2.279687	-0.732836	-0.340617	-0.354155	-0.003072	0.010728	0.009243
1053	5.320944	0.005000	9.064440	0.353160	2.315160	-0.732836	-0.340507	-0.353292	-0.010747	0.000600	-0.009526
1054	5.325944	0.005000	9.157679	0.376079	2.331481	-0.732836	-0.340396	-0.352428	-0.012623	-0.011507	0.002241
1055	5.330944	0.005000	9.095799	0.392400	2.215774	-0.732849	-0.340299	-0.351740	-0.010852	0.004069	-0.011477
1056	5.335944	0.005000	9.062725	0.404908	2.275920	-0.732959	-0.340299	-0.352357	-0.002318	-0.009855	-0.003988
1057	5.340944	0.005000	9.040122	0.455958	2.202965	-0.733070	-0.340299	-0.352973	-0.007423	-0.008031	0.001094
1058	5.345944	0.005000	9.035184	0.426648	2.347260	-0.733180	-0.340299	-0.353590	-0.011712	-0.002845	-0.003813
1059	5.350944	0.005000	9.103892	0.470880	2.354400	-0.733291	-0.340299	-0.354207	-0.012660	-0.008766	0.001721
1060	5.355944	0.005000	9.160474	0.431640	2.315160	-0.733401	-0.340299	-0.354823	-0.013213	0.005824	-0.005993
1061	5.360944	0.005000	9.094724	0.446782	2.275920	-0.733512	-0.340299	-0.355440	-0.007734	-0.003326	0.005022
1062	5.365944	0.005000	9.169120	0.444680	2.249720	-0.733622	-0.340299	-0.356056	-0.019484	-0.001296	-0.009195
1063	5.370944	0.005000	9.199821	0.374739	2.275920	-0.733732	-0.340299	-0.356673	-0.011396	-0.018731	-0.005365
1064	5.375944	0.005000	9.213025	0.510120	2.275920	-0.733843	-0.340299	-0.357290	-0.005868	-0.000273	-0.002192
1065	5.380944	0.005000	9.064440	0.470880	2.236680	-0.733953	-0.340299	-0.357906	-0.012828	-0.006289	0.003054
1066	5.385944	0.005000	9.025200	0.466855	2.311135	-0.734064	-0.340299	-0.358523	-0.013239	-0.001993	0.005267
1067	5.390944	0.005000	9.025200	0.467665	2.239895	-0.734174	-0.340299	-0.359140	-0.012850	0.008229	-0.003431
1068	5.395944	0.005000	9.025200	0.353497	2.276257	-0.734284	-0.340299	-0.359756	-0.011710	-0.008658	0.005498
1069	5.400944	0.005000	8.985960	0.347679	2.275920	-0.734328	-0.340500	-0.360149	-0.007204	0.012885	0.000287
1070	5.405944	0.005000	9.049146	0.465782	2.270822	-0.734328	-0.340831	-0.360396	-0.010983	0.002975	0.004276
1071	5.410944	0.005000	9.142920	0.360633	2.346927	-0.734328	-0.341162	-0.360643	-0.009286	0.000692	0.001040
1072	5.415944	0.005000	9.094176	0.353160	2.216448	-0.734328	-0.341494	-0.360890	-0.011244	0.007835	-0.006143
1073	5.420944	0.005000	9.088263	0.368577	2.342489	-0.734328	-0.341825	-0.361136	-0.015110	0.004913	0.000588
1074	5.425944	0.005000	9.075362	0.417481	2.382718	-0.734328	-0.342157	-0.361383	-0.013061	0.005670	0.002845
1075	5.430944	0.005000	9.110383	0.392400	2.252948	-0.734328	-0.342488	-0.361630	-0.017339	-0.004206	0.013469
1076	5.435944	0.005000	9.064440	0.371838	2.315160	-0.734328	-0.342820	-0.361877	-0.017318	0.004742	0.015623
1077	5.440944	0.005000	9.085529	0.392400	2.357338	-0.734328	-0.343151	-0.362123	-0.019576	0.001123	0.004611
1078	5.445944	0.005000	9.080460	0.392400	2.331180	-0.734328	-0.343483	-0.362370	-0.015036	-0.003569	0.013911
1079	5.450944	0.005000	9.050646	0.417846	2.287571	-0.734328	-0.343814	-0.362617	-0.016266	0.003139	0.000844
1080	5.455944	0.005000	9.158743	0.364868	2.252503	-0.734328	-0.344146	-0.362864	-0.013627	-0.006750	0.005971
1081	5.460944	0.005000	9.034643	0.353160	2.324603	-0.734328	-0.344477	-0.363110	-0.020113	-0.001716	0.004678
1082	5.465944	0.005000	9.103680	0.360187	2.297002	-0.734371	-0.344798	-0.363309	-0.021042	-0.006991	-0.001023
1083	5.470944	0.005000	9.085193	0.431640	2.315160	-0.734813	-0.345019	-0.363062	-0.018538	0.001150	0.013260
1084	5.475944	0.005000	9.027847	0.434287	2.466825	-0.735255	-0.345240	-0.362815	-0.022793	-0.000262	-0.002533
1085	5.480944	0.005000	9.143441	0.352900	2.353619	-0.735698	-0.345461	-0.362569	-0.008387	-0.005544	0.007201
1086	5.485944	0.005000	9.184278	0.351042	2.273802	-0.736140	-0.345682	-0.362322	-0.012421	0.003927	0.000394
1087	5.490944	0.005000	9.147006	0.423468	2.131219	-0.736582	-0.345903	-0.362075	-0.009429	-0.011951	0.001133
