# FOX Logger (IMU file)
# (c) INRIA 2011-2014
# File created from file sensbiotk output
#
# File format:
# id	t	dt	ax	ay	az	mx	my	mz	gx	gy	gz
#
# Units:
#	Time: s
#	Acceleration: m.s^-2
#	Magneto: gauss
#	Gyrometer: rad/s
#
1	0.003113	0.003113	9.704276	0.498124	1.557604	0.497015	-0.126866	-0.288333	0.020801	-0.010563	0.010203
2	0.008113	0.005000	9.677894	0.549360	1.509424	0.495454	-0.128873	-0.285220	0.016534	-0.005676	0.015166
3	0.013113	0.005000	9.669801	0.448401	1.541796	0.493893	-0.130880	-0.282107	0.015695	-0.014254	0.001628
4	0.018113	0.005000	9.632951	0.470880	1.590627	0.492332	-0.132887	-0.278994	0.008177	-0.006633	0.015525
5	0.023113	0.005000	9.592014	0.475213	1.613173	0.490770	-0.134894	-0.275881	0.003088	-0.001677	0.008538
6	0.028113	0.005000	9.637996	0.455836	1.481968	0.489209	-0.136901	-0.272769	0.010754	-0.012707	0.005325
7	0.033113	0.005000	9.626280	0.456600	1.517880	0.487648	-0.138909	-0.269656	0.002978	0.003118	0.007496
8	0.038113	0.005000	9.644115	0.470880	1.569600	0.486087	-0.140916	-0.266543	0.002041	-0.004962	0.012061
9	0.043113	0.005000	9.621515	0.400115	1.538075	0.484526	-0.142923	-0.263430	0.006309	-0.005358	0.006820
10	0.048113	0.005000	9.741380	0.475810	1.525430	0.482965	-0.144930	-0.260317	-0.001109	-0.015400	0.002941
11	0.053113	0.005000	9.689754	0.515172	1.562021	0.481403	-0.146937	-0.257204	0.002077	-0.012888	0.009773
12	0.058113	0.005000	9.652673	0.549360	1.451758	0.479842	-0.148944	-0.254091	0.005319	-0.003466	0.015862
13	0.063113	0.005000	9.572291	0.512389	1.412640	0.478281	-0.150951	-0.250978	-0.004242	-0.016352	0.010442
14	0.068113	0.005000	9.648396	0.549360	1.447236	0.476720	-0.152958	-0.247865	-0.005247	-0.015265	0.015730
15	0.073113	0.005000	9.588628	0.510120	1.484086	0.477354	-0.152565	-0.248582	-0.015684	-0.016211	0.022958
16	0.078113	0.005000	9.633994	0.599271	1.492268	0.479362	-0.150668	-0.251697	0.001504	-0.013136	0.004019
17	0.083113	0.005000	9.692280	0.655143	1.397275	0.481370	-0.148772	-0.254811	-0.003897	-0.006055	-0.004118
18	0.088113	0.005000	9.731520	0.642483	1.309563	0.483378	-0.146875	-0.257925	-0.000916	-0.014574	0.009119
19	0.093113	0.005000	9.687076	0.605618	1.356382	0.485386	-0.144979	-0.261040	0.002682	-0.000016	0.006079
20	0.098113	0.005000	9.712112	0.529952	1.334584	0.487394	-0.143082	-0.264154	0.003405	-0.006387	0.009619
21	0.103113	0.005000	9.635847	0.532167	1.407787	0.489403	-0.141186	-0.267268	0.001111	-0.014390	0.012873
22	0.108113	0.005000	9.722413	0.501013	1.460987	0.491411	-0.139289	-0.270383	0.003524	-0.006060	0.010244
23	0.113113	0.005000	9.772888	0.470880	1.398141	0.493419	-0.137393	-0.273497	-0.002911	-0.001928	0.007213
24	0.118113	0.005000	9.663003	0.441603	1.451268	0.495427	-0.135496	-0.276611	-0.005653	0.005416	0.007956
25	0.123113	0.005000	9.699828	0.541812	1.341708	0.497435	-0.133600	-0.279726	0.008481	-0.009686	0.005298
26	0.128113	0.005000	9.682115	0.436723	1.417723	0.499443	-0.131703	-0.282840	0.003876	-0.005169	0.008552
27	0.133113	0.005000	9.694973	0.507427	1.407255	0.501451	-0.129807	-0.285954	0.002067	-0.010126	0.007330
28	0.138113	0.005000	9.653040	0.549042	1.413593	0.503011	-0.128279	-0.288274	-0.000024	-0.008112	0.022393
29	0.143113	0.005000	9.653040	0.510120	1.530360	0.503123	-0.127944	-0.288025	0.006403	0.008169	0.000394
30	0.148113	0.005000	9.648124	0.578767	1.500953	0.503235	-0.127609	-0.287776	0.012533	-0.002956	0.005277
31	0.153113	0.005000	9.724229	0.485463	1.505703	0.503346	-0.127275	-0.287526	0.007334	0.001269	-0.001219
32	0.158113	0.005000	9.662823	0.559143	1.530360	0.503458	-0.126940	-0.287277	0.013622	-0.000960	0.004407
33	0.163113	0.005000	9.574560	0.564205	1.530360	0.503570	-0.126605	-0.287028	0.006804	-0.006748	0.010368
34	0.168113	0.005000	9.638434	0.500092	1.574178	0.503681	-0.126270	-0.286779	0.004836	-0.004411	0.007857
35	0.173113	0.005000	9.670315	0.514809	1.530360	0.503793	-0.125935	-0.286529	0.004695	-0.002699	0.017359
36	0.178113	0.005000	9.535411	0.568935	1.589084	0.503905	-0.125601	-0.286280	0.000969	-0.001930	0.007529
37	0.183113	0.005000	9.586919	0.436481	1.586800	0.504016	-0.125266	-0.286031	0.005554	-0.009262	0.003427
38	0.188113	0.005000	9.653040	0.431640	1.544884	0.504128	-0.124931	-0.285782	-0.000243	0.000252	0.004321
39	0.193113	0.005000	9.586670	0.510120	1.515341	0.504239	-0.124596	-0.285533	-0.000081	-0.015046	0.001795
40	0.198113	0.005000	9.662743	0.461177	1.510954	0.504351	-0.124262	-0.285283	-0.001049	-0.016577	0.020204
41	0.203113	0.005000	9.756359	0.463679	1.444679	0.504463	-0.123927	-0.285034	0.000318	-0.005317	0.001940
42	0.208113	0.005000	9.657866	0.436466	1.447054	0.504671	-0.124074	-0.285323	0.014318	-0.007696	0.010984
43	0.213113	0.005000	9.694715	0.512555	1.461622	0.504894	-0.124297	-0.285696	-0.009255	-0.022124	0.001524
44	0.218113	0.005000	9.652979	0.549360	1.569479	0.505117	-0.124520	-0.286070	-0.003260	-0.013642	-0.005756
45	0.223113	0.005000	9.613800	0.476447	1.527577	0.505340	-0.124743	-0.286444	0.000867	-0.014673	0.006451
46	0.228113	0.005000	9.624147	0.549360	1.422987	0.505563	-0.124966	-0.286818	-0.001737	-0.010675	0.008261
47	0.233113	0.005000	9.621348	0.517668	1.515263	0.505786	-0.125189	-0.287191	0.003544	-0.017772	0.006170
48	0.238113	0.005000	9.662115	0.510120	1.482045	0.506009	-0.125412	-0.287565	-0.002060	-0.009023	-0.003106
49	0.243113	0.005000	9.692280	0.522582	1.557138	0.506232	-0.125635	-0.287939	0.001241	-0.017892	0.007763
50	0.248113	0.005000	9.716654	0.510120	1.466746	0.506456	-0.125859	-0.288312	0.010942	-0.015760	0.000508
51	0.253113	0.005000	9.631078	0.510120	1.473842	0.506679	-0.126082	-0.288686	0.008104	-0.015213	-0.001129
52	0.258113	0.005000	9.653645	0.510725	1.412640	0.506902	-0.126305	-0.289060	0.004818	-0.015269	0.009998
53	0.263113	0.005000	9.608445	0.504765	1.412640	0.507125	-0.126528	-0.289434	0.000790	-0.013623	0.010223
54	0.268113	0.005000	9.628352	0.524672	1.480985	0.507348	-0.126751	-0.289807	0.014372	-0.021783	0.003925
55	0.273113	0.005000	9.611092	0.510120	1.466765	0.507247	-0.126650	-0.289940	-0.011731	-0.012020	0.016490
56	0.278113	0.005000	9.673395	0.521032	1.491120	0.506801	-0.126204	-0.289815	-0.000652	-0.006797	0.003500
57	0.283113	0.005000	9.724493	0.477907	1.484093	0.506354	-0.125757	-0.289690	0.001441	-0.010255	0.011573
58	0.288113	0.005000	9.722276	0.544738	1.408018	0.505908	-0.125311	-0.289566	0.011970	-0.013975	0.003591
59	0.293113	0.005000	9.692280	0.593009	1.380014	0.505462	-0.124865	-0.289441	0.006109	-0.011603	0.007932
60	0.298113	0.005000	9.692280	0.667080	1.491120	0.505016	-0.124419	-0.289317	-0.002334	-0.006768	0.004863
61	0.303113	0.005000	9.647806	0.551977	1.451880	0.504569	-0.123972	-0.289192	0.010117	-0.013553	0.005548
62	0.308113	0.005000	9.653040	0.515142	1.451880	0.504123	-0.123526	-0.289067	0.005645	-0.009175	0.018277
63	0.313113	0.005000	9.653040	0.470880	1.466756	0.503677	-0.123080	-0.288943	0.005192	-0.009916	0.011519
64	0.318113	0.005000	9.692280	0.342964	1.559404	0.503231	-0.122634	-0.288818	0.012083	-0.015784	0.004017
65	0.323113	0.005000	9.731520	0.497549	1.517789	0.502785	-0.122188	-0.288694	-0.004377	-0.011476	0.003125
66	0.328113	0.005000	9.623118	0.407361	1.539678	0.502338	-0.121741	-0.288569	-0.001332	-0.018274	0.010808
67	0.333113	0.005000	9.736088	0.414304	1.608840	0.501892	-0.121295	-0.288444	0.005885	-0.011338	0.015559
68	0.338113	0.005000	9.712237	0.451597	1.589557	0.501505	-0.120943	-0.288267	0.020257	-0.015565	-0.007432
69	0.343113	0.005000	9.709161	0.448521	1.508001	0.501616	-0.121390	-0.287644	0.012732	-0.026846	0.010976
70	0.348113	0.005000	9.721216	0.460576	1.573764	0.501728	-0.121836	-0.287021	0.005018	-0.011754	0.004202
71	0.353113	0.005000	9.786160	0.588600	1.506520	0.501839	-0.122282	-0.286398	0.007685	-0.014243	0.014468
72	0.358113	0.005000	9.701810	0.579070	1.442350	0.501951	-0.122729	-0.285775	-0.003406	-0.008137	0.020126
73	0.363113	0.005000	9.731520	0.524430	1.419795	0.502063	-0.123175	-0.285152	0.001059	-0.021241	0.012855
74	0.368113	0.005000	9.775122	0.475242	1.460603	0.502174	-0.123622	-0.284528	0.005961	-0.012990	0.005042
75	0.373113	0.005000	9.731520	0.588600	1.459658	0.502286	-0.124068	-0.283905	0.006022	-0.019243	0.011999
76	0.378113	0.005000	9.731520	0.511028	1.570054	0.502397	-0.124515	-0.283282	0.004874	-0.018678	0.011466
77	0.383113	0.005000	9.695157	0.437394	1.538992	0.502509	-0.124961	-0.282659	0.005372	-0.009981	0.003371
78	0.388113	0.005000	9.736802	0.397682	1.569600	0.502620	-0.125407	-0.282036	0.013577	-0.020315	0.002650
79	0.393113	0.005000	9.653040	0.446692	1.515308	0.502732	-0.125854	-0.281413	0.006316	-0.015808	0.008101
80	0.398113	0.005000	9.642587	0.538907	1.423093	0.502844	-0.126300	-0.280790	0.010253	-0.000773	-0.000530
81	0.403113	0.005000	9.665868	0.444468	1.359816	0.502955	-0.126747	-0.280167	0.005123	-0.013122	0.005997
82	0.408113	0.005000	9.653040	0.566968	1.475902	0.503067	-0.126948	-0.280548	0.006195	-0.004939	-0.000060
83	0.413113	0.005000	9.657094	0.523659	1.412640	0.503178	-0.127059	-0.281296	-0.000985	-0.007032	0.013806
84	0.418113	0.005000	9.730794	0.392400	1.373400	0.503290	-0.127171	-0.282044	-0.008934	-0.007544	0.000214
85	0.423113	0.005000	9.726044	0.493238	1.367924	0.503402	-0.127282	-0.282791	0.002109	-0.009930	0.002074
86	0.428113	0.005000	9.692280	0.495918	1.398438	0.503513	-0.127394	-0.283539	0.000743	-0.011609	0.002879
87	0.433113	0.005000	9.794338	0.494458	1.361611	0.503625	-0.127506	-0.284287	0.004661	-0.008869	0.006299
88	0.438113	0.005000	9.742605	0.618455	1.442495	0.503737	-0.127617	-0.285035	0.016086	-0.013286	0.006185
89	0.443113	0.005000	9.699178	0.634738	1.405742	0.503848	-0.127729	-0.285782	0.006247	-0.008578	-0.000271
90	0.448113	0.005000	9.687772	0.588600	1.447372	0.503960	-0.127840	-0.286530	0.002642	-0.016676	0.016781
91	0.453113	0.005000	9.648774	0.582201	1.451880	0.504072	-0.127952	-0.287278	0.003388	-0.002473	0.010721
92	0.458113	0.005000	9.652520	0.509860	1.490860	0.504183	-0.128063	-0.288026	0.005622	-0.014470	0.006710
93	0.463113	0.005000	9.655704	0.510120	1.525032	0.504295	-0.128175	-0.288774	0.011513	-0.014123	0.005956
94	0.468113	0.005000	9.619276	0.577648	1.569600	0.504407	-0.128287	-0.289521	0.011269	0.001108	0.007121
95	0.473113	0.005000	9.621666	0.627840	1.577466	0.504398	-0.128599	-0.289731	-0.004571	-0.013213	0.010275
96	0.478113	0.005000	9.682039	0.499879	1.590082	0.504175	-0.129268	-0.288984	0.003588	-0.005378	0.004732
97	0.483113	0.005000	9.640409	0.497489	1.555622	0.503952	-0.129937	-0.288237	-0.002397	-0.014175	-0.004171
98	0.488113	0.005000	9.692280	0.446828	1.467068	0.503729	-0.130606	-0.287490	0.013741	-0.004568	0.008769
99	0.493113	0.005000	9.692280	0.449240	1.626440	0.503506	-0.131275	-0.286743	0.003651	-0.000822	0.006853
100	0.498113	0.005000	9.730739	0.451650	1.588830	0.503283	-0.131944	-0.285996	0.003411	-0.005428	0.011971
101	0.503113	0.005000	9.619790	0.454255	1.507745	0.503060	-0.132613	-0.285248	0.004530	-0.002945	0.015526
102	0.508113	0.005000	9.628035	0.470880	1.437645	0.502837	-0.133282	-0.284501	-0.005412	-0.004377	0.009679
103	0.513113	0.005000	9.586420	0.459020	1.373400	0.502614	-0.133951	-0.283754	-0.001058	-0.008331	0.005023
104	0.518113	0.005000	9.574560	0.461759	1.433637	0.502391	-0.134620	-0.283007	-0.003366	-0.012054	0.001298
105	0.523113	0.005000	9.581266	0.373278	1.386812	0.502168	-0.135289	-0.282260	-0.007035	-0.018917	0.021826
106	0.528113	0.005000	9.578860	0.357460	1.382001	0.501945	-0.135958	-0.281513	-0.000270	-0.001104	0.004236
107	0.533113	0.005000	9.696003	0.358744	1.453741	0.501722	-0.136627	-0.280766	0.001014	-0.003477	0.013153
108	0.538113	0.005000	9.732040	0.470880	1.452400	0.501499	-0.137296	-0.280019	-0.000410	-0.001833	0.003634
109	0.543113	0.005000	9.692280	0.325617	1.494044	0.501493	-0.136008	-0.280729	0.006520	-0.007172	0.009727
110	0.548113	0.005000	9.653040	0.363842	1.496461	0.501493	-0.134669	-0.281476	0.002878	-0.005782	0.005000
111	0.553113	0.005000	9.621923	0.408647	1.639957	0.501493	-0.133331	-0.282224	0.009014	-0.003190	0.000752
112	0.558113	0.005000	9.681782	0.381902	1.587843	0.501493	-0.131992	-0.282971	0.010173	-0.013101	0.000348
113	0.563113	0.005000	9.666503	0.457992	1.516897	0.501493	-0.130653	-0.283718	0.004824	-0.004019	0.005545
114	0.568113	0.005000	9.629063	0.479593	1.515097	0.501493	-0.129315	-0.284466	0.013186	0.002323	-0.000796
115	0.573113	0.005000	9.770760	0.531500	1.494640	0.501493	-0.127976	-0.285213	0.009464	-0.007305	0.005811
116	0.578113	0.005000	9.615101	0.393701	1.530360	0.501493	-0.126637	-0.285961	0.004356	-0.005755	0.003387
117	0.583113	0.005000	9.636672	0.464375	1.615345	0.501493	-0.125299	-0.286708	0.008726	-0.011349	-0.005352
118	0.588113	0.005000	9.692280	0.445618	1.505098	0.501493	-0.123960	-0.287456	-0.000026	-0.003087	-0.002697
119	0.593113	0.005000	9.637005	0.560963	1.495552	0.501493	-0.122621	-0.288203	0.005824	-0.004890	0.004005
120	0.598113	0.005000	9.701492	0.676292	1.491120	0.501493	-0.121283	-0.288951	-0.000018	-0.002957	-0.002259
121	0.603113	0.005000	9.646202	0.704535	1.544035	0.501493	-0.119944	-0.289698	-0.003041	-0.012399	0.002808
122	0.608113	0.005000	9.731520	0.623393	1.608840	0.501626	-0.119735	-0.290000	0.006705	-0.012468	0.005253
123	0.613113	0.005000	9.692280	0.667080	1.531983	0.501849	-0.120293	-0.290000	0.000732	-0.005570	0.000831
124	0.618113	0.005000	9.615343	0.590143	1.569600	0.502072	-0.120851	-0.290000	0.001833	-0.009706	0.009610
125	0.623113	0.005000	9.682795	0.634163	1.448718	0.502295	-0.121409	-0.290000	-0.008795	-0.004453	0.008376
126	0.628113	0.005000	9.725983	0.689710	1.407103	0.502518	-0.121967	-0.290000	0.008083	-0.007894	0.011725
127	0.633113	0.005000	9.700287	0.534142	1.522353	0.502742	-0.122525	-0.290000	0.007242	-0.003653	0.008299
128	0.638113	0.005000	9.810000	0.596573	1.511964	0.502965	-0.123082	-0.290000	0.003806	-0.002373	0.007682
129	0.643113	0.005000	9.679331	0.575651	1.530360	0.503188	-0.123640	-0.290000	0.004464	-0.008715	0.015284
130	0.648113	0.005000	9.661239	0.549360	1.491120	0.503411	-0.124198	-0.290000	-0.003395	-0.004176	0.002848
131	0.653113	0.005000	9.656459	0.549360	1.391311	0.503634	-0.124756	-0.290000	0.011962	-0.014369	0.017752
132	0.658113	0.005000	9.673326	0.588600	1.489789	0.503857	-0.125314	-0.290000	-0.007325	-0.010994	0.011910
133	0.663113	0.005000	9.675716	0.549360	1.614951	0.504080	-0.125871	-0.290000	0.002245	-0.011077	0.006987
134	0.668113	0.005000	9.678394	0.524006	1.555714	0.504303	-0.126429	-0.290000	0.002089	-0.012326	0.013744
135	0.673113	0.005000	9.653040	0.470880	1.535166	0.504478	-0.126842	-0.290081	-0.005461	-0.007780	0.009918
136	0.678113	0.005000	9.653040	0.397937	1.521405	0.504478	-0.126730	-0.290455	0.005385	-0.012408	0.014985
137	0.683113	0.005000	9.698860	0.503540	1.425801	0.504478	-0.126619	-0.290829	0.005340	-0.010187	0.018047
138	0.688113	0.005000	9.735710	0.365731	1.451880	0.504478	-0.126507	-0.291202	0.004881	-0.018769	0.002573
139	0.693113	0.005000	9.770760	0.433003	1.488395	0.504478	-0.126395	-0.291576	0.001575	-0.016581	0.008446
140	0.698113	0.005000	9.770760	0.470880	1.412640	0.504478	-0.126284	-0.291950	-0.003204	-0.013744	0.001063
141	0.703113	0.005000	9.695699	0.431640	1.340998	0.504478	-0.126172	-0.292323	0.001662	-0.015724	0.007738
142	0.708113	0.005000	9.843446	0.476674	1.379194	0.504478	-0.126061	-0.292697	-0.004820	-0.007703	0.012489
143	0.713113	0.005000	9.708648	0.518304	1.553232	0.504478	-0.125949	-0.293071	0.001928	-0.013672	0.013523
144	0.718113	0.005000	9.674413	0.442327	1.423327	0.504478	-0.125837	-0.293445	0.005551	-0.011260	0.015747
145	0.723113	0.005000	9.705683	0.536925	1.450912	0.504478	-0.125726	-0.293818	0.016066	-0.016822	0.006701
146	0.728113	0.005000	9.708058	0.533582	1.436102	0.504478	-0.125614	-0.294192	0.001631	-0.016037	-0.000596
147	0.733113	0.005000	9.752592	0.410568	1.370496	0.504478	-0.125503	-0.294566	-0.007456	0.000051	0.008878
148	0.738113	0.005000	9.712823	0.412943	1.410794	0.504478	-0.125391	-0.294940	-0.003669	-0.015553	0.006637
149	0.743113	0.005000	9.653040	0.408439	1.380562	0.504104	-0.125654	-0.294687	-0.000035	-0.005763	0.001061
150	0.748113	0.005000	9.627426	0.562986	1.373400	0.503657	-0.125989	-0.294313	0.011606	-0.003936	0.002976
151	0.753113	0.005000	9.681062	0.515706	1.479902	0.503211	-0.126323	-0.293939	0.012445	-0.005567	0.006673
152	0.758113	0.005000	9.709676	0.462182	1.403942	0.502764	-0.126658	-0.293565	0.017878	-0.007668	0.006179
153	0.763113	0.005000	9.725197	0.477203	1.484797	0.502318	-0.126993	-0.293191	0.018400	-0.013579	0.004690
154	0.768113	0.005000	9.727587	0.396333	1.400841	0.501871	-0.127328	-0.292817	0.003745	-0.004748	0.005666
155	0.773113	0.005000	9.731520	0.472438	1.337276	0.501425	-0.127663	-0.292443	0.006510	-0.009806	0.011494
156	0.778113	0.005000	9.654723	0.471722	1.374242	0.500978	-0.127998	-0.292069	0.002916	-0.008441	0.004138
157	0.783113	0.005000	9.699632	0.513796	1.369724	0.500532	-0.128333	-0.291695	0.007177	-0.009835	0.000412
158	0.788113	0.005000	9.692280	0.504069	1.400538	0.500085	-0.128667	-0.291322	0.003592	-0.005568	0.015504
159	0.793113	0.005000	9.653040	0.667080	1.561159	0.499639	-0.129002	-0.290948	0.005096	0.006762	0.009296
160	0.798113	0.005000	9.674672	0.706320	1.537152	0.499192	-0.129337	-0.290574	0.008365	-0.005103	0.006687
161	0.803113	0.005000	9.692280	0.718839	1.452722	0.498746	-0.129672	-0.290200	0.001527	-0.001754	0.002127
162	0.808113	0.005000	9.739221	0.769031	1.451880	0.498663	-0.129903	-0.290000	0.018328	-0.005690	0.005392
163	0.813113	0.005000	9.695157	0.606781	1.566723	0.498997	-0.130014	-0.290000	0.001042	-0.010496	0.003916
164	0.818113	0.005000	9.653040	0.588600	1.590192	0.499332	-0.130126	-0.290000	0.006578	-0.008101	0.005219
165	0.823113	0.005000	9.613800	0.572550	1.530360	0.499667	-0.130237	-0.290000	0.010425	-0.004490	0.006026
166	0.828113	0.005000	9.601910	0.549360	1.608840	0.500002	-0.130349	-0.290000	0.008691	-0.003250	0.009015
167	0.833113	0.005000	9.597130	0.571930	1.530360	0.500336	-0.130460	-0.290000	0.006055	-0.008163	0.007525
168	0.838113	0.005000	9.604890	0.618930	1.400130	0.500671	-0.130572	-0.290000	0.004763	-0.004327	-0.000130
169	0.843113	0.005000	9.626074	0.588600	1.569600	0.501006	-0.130684	-0.290000	0.005995	-0.003552	-0.005611
170	0.848113	0.005000	9.767040	0.624120	1.522919	0.501340	-0.130795	-0.290000	0.007762	-0.004653	0.009679
171	0.853113	0.005000	9.727572	0.548044	1.572232	0.501675	-0.130907	-0.290000	0.004287	-0.009011	0.014879
172	0.858113	0.005000	9.575649	0.586422	1.495477	0.502010	-0.131018	-0.290000	0.002477	-0.008786	0.022736
173	0.863113	0.005000	9.717663	0.556288	1.451880	0.502345	-0.131130	-0.290000	-0.001243	-0.009442	0.013648
174	0.868113	0.005000	9.725597	0.476803	1.524437	0.502679	-0.131241	-0.290000	0.006820	-0.011893	-0.000455
175	0.873113	0.005000	9.669697	0.518449	1.499449	0.502879	-0.131391	-0.289795	-0.002903	-0.017371	0.004400
176	0.878113	0.005000	9.720776	0.435374	1.576609	0.501651	-0.131949	-0.287427	-0.006910	-0.005904	0.000947
177	0.883113	0.005000	9.718057	0.392400	1.556137	0.500423	-0.132507	-0.285059	0.002236	-0.008759	0.009920
178	0.888113	0.005000	9.629638	0.470880	1.514522	0.499196	-0.133065	-0.282691	-0.005303	-0.012151	0.001322
179	0.893113	0.005000	9.791772	0.489108	1.509348	0.497968	-0.133624	-0.280323	-0.005284	-0.003837	0.002816
180	0.898113	0.005000	9.715597	0.397330	1.391788	0.496740	-0.134182	-0.277955	0.007653	-0.004680	0.002182
181	0.903113	0.005000	9.731520	0.431640	1.523075	0.495513	-0.134740	-0.275587	0.005384	-0.015904	0.006647
182	0.908113	0.005000	9.692280	0.496555	1.543925	0.494285	-0.135298	-0.273219	0.013773	-0.011405	0.006091
183	0.913113	0.005000	9.642012	0.442668	1.592941	0.493057	-0.135856	-0.270851	0.013391	-0.010919	0.000515
184	0.918113	0.005000	9.810000	0.440281	1.469162	0.491829	-0.136414	-0.268483	0.017497	-0.010108	0.005438
185	0.923113	0.005000	9.737783	0.359423	1.542885	0.490602	-0.136972	-0.266115	0.024203	-0.022732	0.006350
186	0.928113	0.005000	9.706120	0.288520	1.651540	0.489374	-0.137530	-0.263747	0.025118	-0.015181	-0.008568
187	0.933113	0.005000	9.772258	0.434635	1.726560	0.488146	-0.138088	-0.261379	0.032699	-0.019251	-0.004048
188	0.938113	0.005000	9.847894	0.548014	1.726560	0.486919	-0.138646	-0.259011	0.037750	-0.018733	-0.013684
189	0.943113	0.005000	9.735241	0.392400	1.726560	0.486487	-0.138886	-0.259044	0.061037	-0.020068	0.006025
190	0.948113	0.005000	9.758537	0.440323	1.747466	0.486376	-0.138997	-0.260041	0.036082	-0.015679	-0.005079
191	0.953113	0.005000	9.740006	0.238632	1.726560	0.486264	-0.139109	-0.261038	0.043161	-0.026902	-0.007017
192	0.958113	0.005000	9.720644	0.246316	1.744047	0.486153	-0.139220	-0.262034	0.048895	-0.035829	-0.005591
193	0.963113	0.005000	9.718108	0.300508	1.805040	0.486041	-0.139332	-0.263031	0.050407	-0.036048	-0.016013
194	0.968113	0.005000	9.590385	0.344926	1.757566	0.485930	-0.139444	-0.264027	0.032258	-0.041410	-0.008327
195	0.973113	0.005000	9.561868	0.410634	1.705554	0.485818	-0.139555	-0.265024	0.014520	-0.037589	-0.009380
196	0.978113	0.005000	9.673900	0.371540	1.629700	0.485707	-0.139667	-0.266021	0.005973	-0.050803	-0.011021
197	0.983113	0.005000	9.542581	0.486869	1.592851	0.485595	-0.139778	-0.267017	-0.015433	-0.047217	-0.006613
198	0.988113	0.005000	9.470454	0.590203	1.622454	0.485484	-0.139890	-0.268014	-0.020483	-0.066787	-0.010733
199	0.993113	0.005000	9.574560	0.756784	1.491120	0.485372	-0.140002	-0.269011	-0.018094	-0.070207	-0.004422
200	0.998113	0.005000	9.487231	0.679772	1.491120	0.485261	-0.140113	-0.270007	-0.031377	-0.078080	-0.006692
201	1.003113	0.005000	9.475067	0.700244	1.322008	0.485149	-0.140225	-0.271004	-0.042262	-0.072883	0.004926
202	1.008113	0.005000	9.581878	0.745560	1.227417	0.485075	-0.140411	-0.271292	-0.049479	-0.066503	-0.000682
203	1.013113	0.005000	9.578326	0.745560	1.296175	0.485075	-0.140746	-0.270170	-0.034647	-0.065191	-0.004702
204	1.018113	0.005000	9.768491	0.745560	1.372265	0.485075	-0.141080	-0.269049	-0.040680	-0.051792	0.005195
205	1.023113	0.005000	9.767235	0.670605	1.494645	0.485075	-0.141415	-0.267928	-0.027662	-0.052204	0.008453
206	1.028113	0.005000	9.686380	0.818140	1.373400	0.485075	-0.141750	-0.266807	-0.027796	-0.053073	0.010994
207	1.033113	0.005000	9.731520	0.731480	1.465960	0.485075	-0.142084	-0.265686	-0.029087	-0.048118	0.012012
208	1.038113	0.005000	9.799206	0.667080	1.491120	0.485075	-0.142419	-0.264565	-0.025766	-0.049981	0.010525
209	1.043113	0.005000	9.796792	0.693112	1.360958	0.485075	-0.142753	-0.263444	-0.015686	-0.046500	0.017030
210	1.048113	0.005000	9.802557	0.713763	1.357501	0.485075	-0.143088	-0.262322	-0.023303	-0.053993	0.016112
211	1.053113	0.005000	9.590141	0.784800	1.213747	0.485075	-0.143423	-0.261201	-0.030046	-0.048992	0.031324
212	1.058113	0.005000	9.553896	0.724896	1.119384	0.485075	-0.143757	-0.260080	-0.017098	-0.047464	0.021041
213	1.063113	0.005000	9.636839	0.784800	1.147324	0.485075	-0.144092	-0.258959	-0.007228	-0.046506	0.032195
214	1.068113	0.005000	9.745034	0.705019	1.177200	0.485075	-0.144427	-0.257838	-0.009593	-0.039688	0.031359
215	1.073113	0.005000	9.765600	0.588600	1.098720	0.485075	-0.144761	-0.256717	-0.002149	-0.039896	0.032866
216	1.078113	0.005000	9.757297	0.745560	1.102441	0.485821	-0.143603	-0.258691	-0.001849	-0.025927	0.038004
217	1.083113	0.005000	9.731520	0.757964	1.243276	0.486602	-0.142376	-0.260809	0.008690	-0.026715	0.033480
218	1.088113	0.005000	9.806173	0.855626	1.184854	0.487383	-0.141149	-0.262927	0.014966	-0.028292	0.040298
219	1.093113	0.005000	9.653040	0.899646	1.249932	0.488164	-0.139922	-0.265044	0.015613	-0.021129	0.035950
220	1.098113	0.005000	9.691331	0.824040	1.175302	0.488945	-0.138694	-0.267162	0.022045	-0.024989	0.039211
221	1.103113	0.005000	9.796532	0.905887	1.131226	0.489726	-0.137467	-0.269280	0.010397	-0.014703	0.042359
222	1.108113	0.005000	9.770760	0.745560	1.197924	0.490507	-0.136240	-0.271398	0.006422	-0.004319	0.041538
223	1.113113	0.005000	9.801453	0.697773	1.238586	0.491287	-0.135013	-0.273515	0.018615	-0.012994	0.052674
224	1.118113	0.005000	9.725046	0.638762	1.209966	0.492068	-0.133786	-0.275633	0.012158	-0.012066	0.036232
225	1.123113	0.005000	9.705592	0.588600	1.216440	0.492849	-0.132559	-0.277751	0.015665	-0.002044	0.047644
226	1.128113	0.005000	9.629487	0.674946	1.302786	0.493630	-0.131331	-0.279869	0.018499	0.000821	0.031792
227	1.133113	0.005000	9.520329	0.485871	1.294920	0.494411	-0.130104	-0.281986	0.016791	0.002883	0.047469
228	1.138113	0.005000	9.613800	0.507961	1.317778	0.495192	-0.128877	-0.284104	0.001885	0.000537	0.055214
229	1.143113	0.005000	9.669171	0.493989	1.161069	0.495780	-0.128744	-0.284784	0.005427	0.008858	0.038249
230	1.148113	0.005000	9.733434	0.392400	1.216440	0.496226	-0.129414	-0.284411	-0.003623	0.003611	0.045424
231	1.153113	0.005000	9.653040	0.431640	1.322981	0.496672	-0.130083	-0.284037	-0.013616	0.018069	0.048232
232	1.158113	0.005000	9.653040	0.440429	1.307793	0.497118	-0.130752	-0.283663	-0.000638	0.013370	0.038360
233	1.163113	0.005000	9.698694	0.392400	1.327746	0.497565	-0.131422	-0.283289	0.005806	0.019128	0.048492
234	1.168113	0.005000	9.617824	0.392400	1.302968	0.498011	-0.132091	-0.282916	0.007044	0.014315	0.042780
235	1.173113	0.005000	9.651846	0.388817	1.410252	0.498457	-0.132760	-0.282542	0.008864	0.013168	0.042440
236	1.178113	0.005000	9.575755	0.350770	1.258070	0.498904	-0.133430	-0.282168	0.001090	0.013074	0.029972
237	1.183113	0.005000	9.692280	0.274680	1.366230	0.499350	-0.134099	-0.281795	0.013487	0.015838	0.023265
238	1.188113	0.005000	9.659072	0.241472	1.379432	0.499796	-0.134768	-0.281421	0.004950	0.027268	0.028035
239	1.193113	0.005000	9.644592	0.266232	1.373400	0.500242	-0.135438	-0.281047	0.016043	0.013391	0.018342
240	1.198113	0.005000	9.613800	0.151302	1.373400	0.500689	-0.136107	-0.280673	0.014243	0.028436	0.021919
241	1.203113	0.005000	9.639471	0.117720	1.373400	0.501135	-0.136776	-0.280300	0.013468	0.031242	0.013715
242	1.208113	0.005000	9.629744	0.180256	1.467824	0.501603	-0.137048	-0.280049	0.023274	0.024205	0.012767
243	1.213113	0.005000	9.590323	0.156960	1.530360	0.502161	-0.135709	-0.280298	0.017331	0.021909	-0.003040
244	1.218113	0.005000	9.553600	0.060200	1.530360	0.502719	-0.134371	-0.280548	0.011566	0.025021	0.000393
245	1.223113	0.005000	9.613800	0.039240	1.498619	0.503277	-0.133032	-0.280797	-0.000443	0.019757	0.008474
246	1.228113	0.005000	9.483755	0.131178	1.531493	0.503834	-0.131693	-0.281046	-0.007289	0.017757	-0.003745
247	1.233113	0.005000	9.574560	0.196200	1.597790	0.504392	-0.130355	-0.281295	-0.001442	0.008179	-0.003563
248	1.238113	0.005000	9.543852	0.139896	1.491120	0.504950	-0.129016	-0.281544	-0.004592	0.023162	-0.006579
249	1.243113	0.005000	9.514550	0.163117	1.497277	0.505508	-0.127677	-0.281793	-0.001313	0.009547	-0.009888
250	1.248113	0.005000	9.653040	0.239207	1.562067	0.506065	-0.126338	-0.282042	-0.014089	0.011563	-0.013189
251	1.253113	0.005000	9.727345	0.274680	1.489728	0.506623	-0.125000	-0.282291	-0.009366	0.006764	-0.019906
252	1.258113	0.005000	9.613800	0.351140	1.490110	0.507181	-0.123661	-0.282541	0.001755	0.003193	-0.012006
253	1.263113	0.005000	9.649198	0.321605	1.534202	0.507739	-0.122322	-0.282790	-0.014778	0.010621	-0.026574
254	1.268113	0.005000	9.686063	0.458445	1.563383	0.508296	-0.120984	-0.283039	-0.010146	0.002853	-0.012039
255	1.273113	0.005000	9.762153	0.540753	1.543778	0.508854	-0.119645	-0.283288	-0.013012	0.005247	-0.022631
256	1.278113	0.005000	9.646747	0.488155	1.473845	0.508315	-0.119494	-0.283741	-0.020384	0.015160	-0.027883
257	1.283113	0.005000	9.653040	0.549360	1.359871	0.507534	-0.119606	-0.284240	-0.021158	0.009783	-0.014290
258	1.288113	0.005000	9.668978	0.494182	1.443306	0.506753	-0.119718	-0.284738	-0.014916	0.013258	-0.028985
259	1.293113	0.005000	9.592910	0.627840	1.530360	0.505972	-0.119829	-0.285236	-0.008167	0.009734	-0.006572
260	1.298113	0.005000	9.692280	0.625559	1.511881	0.505192	-0.119941	-0.285734	-0.021560	0.019970	-0.011274
261	1.303113	0.005000	9.747404	0.682964	1.373400	0.504411	-0.120052	-0.286233	-0.012560	0.015031	-0.016289
262	1.308113	0.005000	9.758537	0.692811	1.438371	0.503630	-0.120164	-0.286731	-0.015591	0.019904	-0.009524
263	1.313113	0.005000	9.798881	0.661196	1.406756	0.502849	-0.120276	-0.287229	-0.008726	0.004360	-0.016807
264	1.318113	0.005000	9.801256	0.693311	1.460624	0.502068	-0.120387	-0.287728	-0.005652	0.004835	-0.001159
265	1.323113	0.005000	9.810000	0.817687	1.491120	0.501287	-0.120499	-0.288226	0.000864	0.012631	-0.008449
266	1.328113	0.005000	9.806448	0.781248	1.405536	0.500506	-0.120610	-0.288724	0.006768	0.014117	-0.003068
267	1.333113	0.005000	9.849240	0.825188	1.373400	0.499725	-0.120722	-0.289223	-0.001528	0.017867	-0.002134
268	1.338113	0.005000	9.773271	0.863280	1.487353	0.498944	-0.120834	-0.289721	-0.002391	0.016747	0.001453
269	1.343113	0.005000	9.806369	0.792061	1.491120	0.498654	-0.121387	-0.289726	0.015218	0.018451	0.016583
270	1.348113	0.005000	9.803909	0.673171	1.530360	0.498989	-0.122503	-0.289103	0.018411	0.025451	0.010261
271	1.353113	0.005000	9.793006	0.745560	1.561103	0.499324	-0.123618	-0.288480	0.019595	0.016049	0.011312
272	1.358113	0.005000	9.770760	0.745560	1.580840	0.499658	-0.124734	-0.287857	0.013114	0.020533	0.007136
273	1.363113	0.005000	9.731520	0.718301	1.503101	0.499993	-0.125849	-0.287234	0.021788	0.010534	0.019297
274	1.368113	0.005000	9.717058	0.667080	1.584062	0.500328	-0.126965	-0.286612	0.013775	0.020679	0.016085
275	1.373113	0.005000	9.754816	0.570205	1.689771	0.500663	-0.128080	-0.285989	0.020805	0.007928	0.014397
276	1.378113	0.005000	9.770760	0.549360	1.671903	0.500997	-0.129196	-0.285366	0.019481	0.003515	0.031374
277	1.383113	0.005000	9.739141	0.549360	1.593031	0.501332	-0.130312	-0.284743	0.013888	0.009559	0.024518
278	1.388113	0.005000	9.692280	0.614444	1.621287	0.501667	-0.131427	-0.284120	0.012885	0.003253	0.021109
279	1.393113	0.005000	9.607144	0.566877	1.552083	0.502001	-0.132543	-0.283497	0.007154	-0.005091	0.020926
280	1.398113	0.005000	9.731520	0.515415	1.583381	0.502336	-0.133658	-0.282874	0.010216	-0.014347	0.025699
281	1.403113	0.005000	9.692280	0.431640	1.457976	0.502671	-0.134774	-0.282252	0.003015	-0.002467	0.022638
282	1.408113	0.005000	9.727799	0.368045	1.573321	0.502985	-0.135807	-0.281682	-0.002605	-0.013171	0.015138
283	1.413113	0.005000	9.729745	0.469105	1.492008	0.502985	-0.135584	-0.281932	0.000757	-0.012606	0.023351
284	1.418113	0.005000	9.728495	0.392400	1.568087	0.502985	-0.135361	-0.282181	-0.008227	-0.013159	0.024432
285	1.423113	0.005000	9.731520	0.427752	1.455768	0.502985	-0.135138	-0.282430	-0.005167	-0.019450	0.020940
286	1.428113	0.005000	9.671873	0.398678	1.530360	0.502985	-0.134914	-0.282679	-0.004737	-0.016288	0.026603
287	1.433113	0.005000	9.639758	0.431640	1.499773	0.502985	-0.134691	-0.282928	-0.009567	-0.023436	0.013099
288	1.438113	0.005000	9.574560	0.375504	1.451880	0.502985	-0.134468	-0.283178	-0.012432	-0.009930	0.027755
289	1.443113	0.005000	9.678700	0.431640	1.515279	0.502985	-0.134245	-0.283427	-0.007005	-0.015764	0.018461
290	1.448113	0.005000	9.676287	0.470880	1.483866	0.502985	-0.134022	-0.283676	0.002551	-0.021665	0.018781
291	1.453113	0.005000	9.731520	0.411052	1.509772	0.502985	-0.133798	-0.283925	-0.005745	-0.017562	0.024988
292	1.458113	0.005000	9.595587	0.332133	1.491120	0.502985	-0.133575	-0.284175	0.002185	-0.023096	0.018029
293	1.463113	0.005000	9.511903	0.337337	1.562006	0.502985	-0.133352	-0.284424	0.003653	-0.027465	0.017116
294	1.468113	0.005000	9.613968	0.340192	1.517055	0.502985	-0.133129	-0.284673	-0.003370	-0.019296	0.010529
295	1.473113	0.005000	9.681552	0.374617	1.408967	0.502985	-0.132906	-0.284922	0.005901	-0.020353	0.016594
296	1.478113	0.005000	9.653040	0.439953	1.390027	0.503062	-0.132836	-0.284914	-0.007306	-0.023861	0.015102
297	1.483113	0.005000	9.698119	0.504281	1.512843	0.503173	-0.132836	-0.284790	0.005708	-0.021328	0.005986
298	1.488113	0.005000	9.663387	0.395849	1.448431	0.503285	-0.132836	-0.284665	0.000130	-0.018266	0.010777
299	1.493113	0.005000	9.768612	0.393474	1.412640	0.503397	-0.132836	-0.284540	-0.000449	-0.020775	0.006420
300	1.498113	0.005000	9.729750	0.469110	1.412640	0.503508	-0.132836	-0.284416	0.015724	-0.022915	0.012934
301	1.503113	0.005000	9.688135	0.400690	1.338305	0.503620	-0.132836	-0.284291	0.013446	-0.013609	0.000674
302	1.508113	0.005000	9.692280	0.438175	1.451880	0.503731	-0.132836	-0.284167	0.002048	-0.009273	0.007111
303	1.513113	0.005000	9.674460	0.379890	1.382310	0.503843	-0.132836	-0.284042	0.000042	-0.007070	0.005452
304	1.518113	0.005000	9.625100	0.566000	1.435240	0.503955	-0.132836	-0.283917	0.001638	-0.016792	-0.001376
305	1.523113	0.005000	9.627640	0.551641	1.320320	0.504066	-0.132836	-0.283793	0.009556	-0.010447	0.000980
306	1.528113	0.005000	9.669293	0.454627	1.350413	0.504178	-0.132836	-0.283668	0.001540	-0.009004	-0.005764
307	1.533113	0.005000	9.611886	0.452217	1.433217	0.504289	-0.132836	-0.283544	0.000907	-0.000993	0.004309
308	1.538113	0.005000	9.685624	0.510120	1.373400	0.504401	-0.132836	-0.283419	-0.007039	-0.008927	0.001707
309	1.543113	0.005000	9.653040	0.470880	1.326052	0.504374	-0.132594	-0.283372	0.005542	-0.000596	0.013655
310	1.548113	0.005000	9.692280	0.523311	1.439022	0.504039	-0.131813	-0.283496	0.000968	0.006389	0.002448
311	1.553113	0.005000	9.720719	0.420839	1.451880	0.503705	-0.131032	-0.283621	-0.000866	-0.000356	-0.000306
312	1.558113	0.005000	9.731520	0.486986	1.499173	0.503370	-0.130250	-0.283746	0.008241	0.003281	0.005172
313	1.563113	0.005000	9.770760	0.510120	1.468822	0.503035	-0.129469	-0.283870	0.009121	0.007804	-0.000709
314	1.568113	0.005000	9.721829	0.549360	1.461571	0.502700	-0.128688	-0.283995	0.016182	0.001475	-0.005503
315	1.573113	0.005000	9.651406	0.548543	1.529543	0.502365	-0.127906	-0.284120	0.005079	-0.009417	0.014517
316	1.578113	0.005000	9.612208	0.472472	1.453472	0.502030	-0.127125	-0.284244	0.006122	-0.000635	0.009194
317	1.583113	0.005000	9.798012	0.553356	1.483128	0.501695	-0.126344	-0.284369	0.006753	0.002559	0.004974
318	1.588113	0.005000	9.653040	0.575801	1.478321	0.501361	-0.125563	-0.284493	0.015337	0.003665	0.005311
319	1.593113	0.005000	9.713890	0.488510	1.600025	0.501026	-0.124781	-0.284618	0.013113	-0.005498	0.004440
320	1.598113	0.005000	9.692280	0.526915	1.608840	0.500691	-0.124000	-0.284743	0.015773	-0.002094	-0.001702
321	1.603113	0.005000	9.703656	0.445572	1.634148	0.500356	-0.123219	-0.284867	0.019709	-0.005773	0.004300
322	1.608113	0.005000	9.770760	0.447962	1.602245	0.500021	-0.122437	-0.284992	0.014864	-0.006535	0.012004
323	1.613113	0.005000	9.750217	0.412943	1.569600	0.499896	-0.122492	-0.285350	0.003096	-0.006768	0.005159
324	1.618113	0.005000	9.695215	0.489033	1.548513	0.499784	-0.122604	-0.285723	0.012279	-0.007769	0.013023
325	1.623113	0.005000	9.668534	0.479132	1.506614	0.499672	-0.122716	-0.286097	0.006714	-0.014056	-0.001209
326	1.628113	0.005000	9.639970	0.510120	1.582685	0.499561	-0.122827	-0.286471	0.008935	-0.021640	0.013068
327	1.633113	0.005000	9.702951	0.577929	1.687320	0.499449	-0.122939	-0.286844	0.000268	-0.011671	0.006193
328	1.638113	0.005000	9.661304	0.446087	1.608840	0.499338	-0.123050	-0.287218	-0.000016	-0.016788	0.011795
329	1.643113	0.005000	9.647261	0.431640	1.642301	0.499226	-0.123162	-0.287591	0.000885	-0.021454	0.007415
330	1.648113	0.005000	9.620607	0.470880	1.605436	0.499115	-0.123273	-0.287965	-0.008076	-0.014691	0.007020
331	1.653113	0.005000	9.693294	0.432654	1.492134	0.499003	-0.123385	-0.288338	0.002119	-0.026955	0.008716
332	1.658113	0.005000	9.731520	0.433470	1.492950	0.498892	-0.123496	-0.288712	-0.007552	-0.017827	0.005252
333	1.663113	0.005000	9.762349	0.423229	1.491120	0.498780	-0.123608	-0.289085	-0.008289	-0.022820	0.005319
334	1.668113	0.005000	9.633586	0.431640	1.491120	0.498669	-0.123719	-0.289459	-0.006523	-0.012311	0.013300
335	1.673113	0.005000	9.713579	0.501150	1.424969	0.498557	-0.123831	-0.289833	-0.007048	-0.022238	-0.003593
336	1.678113	0.005000	9.787279	0.588600	1.407482	0.498507	-0.123819	-0.289931	-0.014260	-0.018388	0.023980
337	1.683113	0.005000	9.731520	0.526487	1.398738	0.498507	-0.123708	-0.289807	-0.009542	-0.008496	0.008592
338	1.688113	0.005000	9.574560	0.555989	1.373400	0.498507	-0.123596	-0.289682	0.003904	-0.020464	0.013075
339	1.693113	0.005000	9.636129	0.469074	1.334160	0.498507	-0.123484	-0.289557	-0.007330	-0.023090	0.005161
340	1.698113	0.005000	9.635145	0.531465	1.334160	0.498507	-0.123373	-0.289433	0.005292	-0.020335	-0.003486
341	1.703113	0.005000	9.598279	0.573079	1.310441	0.498507	-0.123261	-0.289308	0.006873	-0.003138	0.009776
342	1.708113	0.005000	9.574560	0.457750	1.347139	0.498507	-0.123150	-0.289183	-0.001547	-0.009784	0.002138
343	1.713113	0.005000	9.585315	0.510120	1.323405	0.498507	-0.123038	-0.289059	0.008909	-0.009705	0.010125
344	1.718113	0.005000	9.552051	0.580235	1.350891	0.498507	-0.122926	-0.288934	0.009521	-0.000632	0.014966
345	1.723113	0.005000	9.613800	0.482056	1.266856	0.498507	-0.122815	-0.288809	0.014839	-0.001905	0.014381
346	1.728113	0.005000	9.685913	0.506937	1.334160	0.498507	-0.122703	-0.288685	0.013585	-0.003446	0.017323
347	1.733113	0.005000	9.653040	0.470880	1.373400	0.498507	-0.122591	-0.288560	0.013223	-0.001049	0.014223
348	1.738113	0.005000	9.728283	0.470880	1.411021	0.498507	-0.122480	-0.288435	0.018257	0.005156	0.012186
349	1.743113	0.005000	9.766704	0.466824	1.404529	0.498547	-0.122488	-0.288355	0.023716	0.003277	0.005465
350	1.748113	0.005000	9.705202	0.405322	1.517438	0.498770	-0.123046	-0.288480	0.026308	-0.001740	-0.002480
351	1.753113	0.005000	9.710735	0.500892	1.518803	0.498993	-0.123603	-0.288604	0.019745	0.001725	0.006697
352	1.758113	0.005000	9.680662	0.486885	1.479502	0.499217	-0.124161	-0.288729	0.013346	-0.008368	0.010536
353	1.763113	0.005000	9.641785	0.510120	1.555607	0.499440	-0.124719	-0.288854	0.022378	0.001735	0.019299
354	1.768113	0.005000	9.731520	0.431640	1.592457	0.499663	-0.125277	-0.288978	0.017457	0.008096	0.006268
355	1.773113	0.005000	9.731520	0.451895	1.549345	0.499886	-0.125835	-0.289103	0.017716	-0.003357	0.010589
356	1.778113	0.005000	9.738593	0.470880	1.516045	0.500109	-0.126393	-0.289227	0.007692	-0.005435	0.005242
357	1.783113	0.005000	9.723164	0.486322	1.460236	0.500332	-0.126950	-0.289352	0.003844	-0.009342	0.018601
358	1.788113	0.005000	9.705615	0.588600	1.464909	0.500556	-0.127508	-0.289477	0.002235	-0.008878	0.002978
359	1.793113	0.005000	9.613800	0.552113	1.472877	0.500779	-0.128066	-0.289601	-0.000524	-0.005299	0.006539
360	1.798113	0.005000	9.669256	0.549360	1.561492	0.501002	-0.128624	-0.289726	-0.000517	-0.009951	0.010267
361	1.803113	0.005000	9.686547	0.582867	1.524627	0.501225	-0.129182	-0.289850	-0.007101	-0.001692	0.002918
362	1.808113	0.005000	9.619646	0.510120	1.488197	0.501448	-0.129739	-0.289975	0.003473	-0.012145	0.003813
363	1.813113	0.005000	9.690764	0.470375	1.412640	0.501671	-0.129494	-0.289900	-0.009072	-0.009925	0.016022
364	1.818113	0.005000	9.611924	0.506368	1.412640	0.501895	-0.129048	-0.289776	0.000440	-0.016222	0.012296
365	1.823113	0.005000	9.613800	0.466564	1.412640	0.502118	-0.128602	-0.289651	0.005328	-0.016765	0.012590
366	1.828113	0.005000	9.692280	0.477601	1.419361	0.502341	-0.128155	-0.289527	-0.002002	-0.008234	-0.004221
367	1.833113	0.005000	9.643555	0.381614	1.511390	0.502564	-0.127709	-0.289402	-0.004356	-0.008377	0.016158
368	1.838113	0.005000	9.601925	0.443515	1.463755	0.502787	-0.127263	-0.289277	-0.000083	-0.009902	0.004409
369	1.843113	0.005000	9.667290	0.470880	1.426890	0.503010	-0.126817	-0.289153	-0.001192	-0.014227	0.001478
370	1.848113	0.005000	9.675640	0.415000	1.468520	0.503233	-0.126370	-0.289028	-0.000322	-0.019125	0.001402
371	1.853113	0.005000	9.633045	0.372405	1.411140	0.503456	-0.125924	-0.288904	0.012638	-0.009866	0.003506
372	1.858113	0.005000	9.683325	0.375019	1.351541	0.503680	-0.125478	-0.288779	0.004477	-0.011642	0.011664
373	1.863113	0.005000	9.662298	0.446631	1.524627	0.503903	-0.125032	-0.288654	0.000305	-0.004999	0.017355
374	1.868113	0.005000	9.678272	0.442864	1.387408	0.504126	-0.124586	-0.288530	0.004506	-0.017561	0.010234
375	1.873113	0.005000	9.692280	0.491332	1.364838	0.504349	-0.124139	-0.288405	0.003772	-0.017040	0.004416
376	1.878113	0.005000	9.699751	0.478351	1.395814	0.503820	-0.124821	-0.287074	-0.000709	-0.017168	0.000530
377	1.883113	0.005000	9.668243	0.534157	1.446812	0.502258	-0.127052	-0.284084	0.011100	-0.010594	0.006534
378	1.888113	0.005000	9.804674	0.478869	1.409977	0.500696	-0.129283	-0.281094	0.009297	-0.010599	0.003836
379	1.893113	0.005000	9.731278	0.548634	1.412640	0.499135	-0.131514	-0.278104	0.010786	-0.017579	0.010215
380	1.898113	0.005000	9.581036	0.505803	1.412640	0.497573	-0.133745	-0.275115	0.005317	-0.011176	0.005911
381	1.903113	0.005000	9.639312	0.540208	1.590536	0.496011	-0.135976	-0.272125	0.013090	-0.011868	0.008945
382	1.908113	0.005000	9.706243	0.510120	1.458861	0.494449	-0.138207	-0.269135	0.004545	-0.010675	0.003787
383	1.913113	0.005000	9.770760	0.549360	1.442483	0.492887	-0.140439	-0.266145	0.006894	-0.012846	0.005373
384	1.918113	0.005000	9.782892	0.507276	1.451880	0.491325	-0.142670	-0.263156	0.006635	-0.013187	0.011902
385	1.923113	0.005000	9.686335	0.534853	1.608840	0.489763	-0.144901	-0.260166	0.009375	-0.012628	0.006722
386	1.928113	0.005000	9.619246	0.448537	1.547257	0.488202	-0.147132	-0.257176	-0.000321	-0.009893	0.005192
387	1.933113	0.005000	9.614030	0.510120	1.491120	0.486640	-0.149363	-0.254186	0.005046	-0.004675	0.013806
388	1.938113	0.005000	9.591884	0.527444	1.486529	0.485078	-0.151594	-0.251197	0.014477	-0.015241	0.002657
389	1.943113	0.005000	9.740936	0.495208	1.500536	0.483624	-0.153675	-0.248422	0.001517	-0.006590	0.013022
390	1.948113	0.005000	9.704784	0.444144	1.387633	0.484628	-0.152336	-0.250540	-0.005962	-0.010400	0.003723
391	1.953113	0.005000	9.711582	0.470880	1.314858	0.485632	-0.150997	-0.252658	0.009171	-0.016894	0.007836
392	1.958113	0.005000	9.692280	0.478474	1.537954	0.486637	-0.149658	-0.254776	0.005984	-0.010260	0.004626
393	1.963113	0.005000	9.687076	0.549360	1.582821	0.487641	-0.148320	-0.256894	0.000102	-0.013565	0.007847
394	1.968113	0.005000	9.733908	0.510120	1.483955	0.488645	-0.146981	-0.259012	-0.006524	-0.010239	0.005750
395	1.973113	0.005000	9.613861	0.510120	1.530299	0.489649	-0.145642	-0.261129	-0.006724	-0.011847	0.001563
396	1.978113	0.005000	9.616190	0.546970	1.530360	0.490653	-0.144304	-0.263247	0.004226	-0.009774	0.013519
397	1.983113	0.005000	9.692280	0.500560	1.343720	0.491657	-0.142965	-0.265365	0.008103	0.000174	0.009971
398	1.988113	0.005000	9.653040	0.542118	1.348643	0.492661	-0.141626	-0.267483	0.007664	-0.008313	0.005267
399	1.993113	0.005000	9.731520	0.500463	1.432566	0.493665	-0.140288	-0.269601	0.009384	-0.009623	0.004893
400	1.998113	0.005000	9.689233	0.564471	1.451880	0.494669	-0.138949	-0.271718	-0.003497	-0.014294	0.005589
401	2.003113	0.005000	9.653040	0.431640	1.481408	0.495673	-0.137610	-0.273836	0.002874	-0.014203	0.005525
402	2.008113	0.005000	9.648109	0.488034	1.434726	0.496677	-0.136272	-0.275954	0.003576	-0.007587	0.005768
403	2.013113	0.005000	9.633511	0.509938	1.471591	0.497163	-0.135451	-0.276998	0.012106	-0.005482	0.013424
404	2.018113	0.005000	9.653040	0.470880	1.469201	0.497386	-0.134893	-0.277496	0.000934	-0.008539	0.009352
405	2.023113	0.005000	9.613800	0.431640	1.481771	0.497609	-0.134335	-0.277994	0.001038	-0.001923	0.003109
406	2.028113	0.005000	9.640797	0.404643	1.437127	0.497832	-0.133778	-0.278492	0.007585	-0.005430	0.010892
407	2.033113	0.005000	9.672698	0.519949	1.442051	0.498055	-0.133220	-0.278991	0.000341	-0.000640	-0.001014
408	2.038113	0.005000	9.778183	0.534515	1.326737	0.498279	-0.132662	-0.279489	0.000415	-0.004665	0.015522
409	2.043113	0.005000	9.770760	0.431640	1.294920	0.498502	-0.132104	-0.279987	0.004018	-0.001798	0.002738
410	2.048113	0.005000	9.799713	0.549360	1.375972	0.498725	-0.131546	-0.280485	-0.000052	-0.007199	0.010822
411	2.053113	0.005000	9.652858	0.510302	1.530360	0.498948	-0.130988	-0.280983	0.001417	-0.006449	0.014621
412	2.058113	0.005000	9.613800	0.475320	1.419300	0.499171	-0.130431	-0.281482	-0.001496	0.000637	0.008127
413	2.063113	0.005000	9.760685	0.436677	1.349272	0.499394	-0.129873	-0.281980	0.010964	-0.007130	0.009630
414	2.068113	0.005000	9.684853	0.399827	1.468838	0.499617	-0.129315	-0.282478	0.007306	-0.007215	0.003170
415	2.073113	0.005000	9.643238	0.421838	1.481318	0.499840	-0.128757	-0.282976	0.008225	-0.008252	0.012213
416	2.078113	0.005000	9.650332	0.470880	1.584485	0.500000	-0.128390	-0.283475	0.004997	0.001569	0.001289
417	2.083113	0.005000	9.574560	0.416902	1.505858	0.500000	-0.128501	-0.283973	0.002606	-0.004626	0.001380
418	2.088113	0.005000	9.680078	0.448787	1.469027	0.500000	-0.128613	-0.284471	-0.006827	-0.001948	0.010877
419	2.093113	0.005000	9.692280	0.451199	1.471684	0.500000	-0.128724	-0.284969	0.003572	0.002019	0.004301
420	2.098113	0.005000	9.648340	0.470880	1.547630	0.500000	-0.128836	-0.285467	0.007583	-0.005728	0.003548
421	2.103113	0.005000	9.741383	0.534671	1.540223	0.500000	-0.128947	-0.285965	0.003380	-0.005004	0.003192
422	2.108113	0.005000	9.758462	0.573957	1.478822	0.500000	-0.129059	-0.286463	0.001838	-0.004606	0.002925
423	2.113113	0.005000	9.702203	0.539437	1.559677	0.500000	-0.129171	-0.286961	0.006504	-0.007406	0.004727
424	2.118113	0.005000	9.668107	0.470880	1.608840	0.500000	-0.129282	-0.287459	0.008627	-0.011984	0.001712
425	2.123113	0.005000	9.736266	0.401892	1.633842	0.500000	-0.129394	-0.287958	0.011134	-0.010730	0.010977
426	2.128113	0.005000	9.768418	0.588600	1.606498	0.500000	-0.129505	-0.288456	0.007060	-0.000120	0.005146
427	2.133113	0.005000	9.731520	0.510271	1.530436	0.500000	-0.129617	-0.288954	0.002816	-0.007536	0.003890
428	2.138113	0.005000	9.616251	0.510120	1.456781	0.500000	-0.129728	-0.289452	0.006411	-0.005819	0.009715
429	2.143113	0.005000	9.608959	0.544519	1.471243	0.500000	-0.129840	-0.289950	0.006523	-0.009460	-0.005422
430	2.148113	0.005000	9.645737	0.542057	1.491120	0.500301	-0.129450	-0.289664	0.007970	-0.017979	0.003817
431	2.153113	0.005000	9.682562	0.618122	1.422358	0.500636	-0.129003	-0.289290	0.012540	-0.002244	0.007776
432	2.158113	0.005000	9.665166	0.507257	1.439754	0.500970	-0.128557	-0.288916	0.002592	-0.012544	0.005966
433	2.163113	0.005000	9.692280	0.519711	1.451880	0.501305	-0.128111	-0.288543	-0.003001	-0.008910	-0.002363
434	2.168113	0.005000	9.670240	0.505279	1.508320	0.501640	-0.127665	-0.288169	0.001705	-0.007348	-0.001330
435	2.173113	0.005000	9.633390	0.451230	1.412640	0.501975	-0.127219	-0.287795	0.002760	-0.020442	0.006677
436	2.178113	0.005000	9.726299	0.561149	1.395630	0.502309	-0.126772	-0.287422	0.003212	-0.013933	0.011343
437	2.183113	0.005000	9.741560	0.534760	1.466480	0.502644	-0.126326	-0.287048	0.000769	-0.008159	0.016564
438	2.188113	0.005000	9.743561	0.564517	1.427797	0.502979	-0.125880	-0.286674	-0.006611	0.002116	-0.003406
439	2.193113	0.005000	9.692280	0.510120	1.451880	0.503313	-0.125434	-0.286300	0.002761	-0.010188	0.001110
440	2.198113	0.005000	9.692280	0.542084	1.469291	0.503648	-0.124987	-0.285927	0.007272	-0.015313	0.009490
441	2.203113	0.005000	9.765859	0.559162	1.451880	0.503983	-0.124541	-0.285553	0.004656	-0.015701	0.003882
442	2.208113	0.005000	9.723195	0.590681	1.377563	0.504318	-0.124095	-0.285179	0.002641	-0.015508	0.005781
443	2.213113	0.005000	9.613467	0.588933	1.607509	0.504536	-0.123881	-0.285195	-0.001201	-0.004789	-0.003560
444	2.218113	0.005000	9.655748	0.552068	1.538483	0.504648	-0.123881	-0.285568	0.009549	-0.013917	0.009157
445	2.223113	0.005000	9.726422	0.481076	1.525262	0.504759	-0.123881	-0.285942	0.000912	-0.012235	0.007636
446	2.228113	0.005000	9.667986	0.510120	1.577073	0.504871	-0.123881	-0.286316	0.009298	-0.003067	0.012166
447	2.233113	0.005000	9.613800	0.568643	1.559622	0.504982	-0.123881	-0.286689	0.003458	-0.002079	0.015809
448	2.238113	0.005000	9.640654	0.510120	1.571682	0.505094	-0.123881	-0.287063	-0.004736	-0.008264	0.007541
449	2.243113	0.005000	9.707079	0.519762	1.505919	0.505205	-0.123881	-0.287437	0.007665	-0.010547	0.007161
450	2.248113	0.005000	9.692280	0.596163	1.451880	0.505317	-0.123881	-0.287811	0.002885	-0.006414	0.002491
451	2.253113	0.005000	9.653494	0.529967	1.392793	0.505428	-0.123881	-0.288184	0.002091	-0.009280	0.004864
452	2.258113	0.005000	9.664809	0.532357	1.508123	0.505540	-0.123881	-0.288558	-0.003935	0.001689	0.011183
453	2.263113	0.005000	9.672312	0.534732	1.461864	0.505651	-0.123881	-0.288932	0.004335	-0.001427	0.007514
454	2.268113	0.005000	9.731520	0.564094	1.400387	0.505763	-0.123881	-0.289305	0.005964	-0.010276	0.022569
455	2.273113	0.005000	9.672078	0.431640	1.431678	0.505874	-0.123881	-0.289679	0.000452	-0.011495	0.005947
456	2.278113	0.005000	9.588768	0.445848	1.419744	0.505938	-0.123865	-0.289947	0.012651	-0.018613	0.006072
457	2.283113	0.005000	9.579204	0.544716	1.417284	0.505715	-0.123754	-0.289574	0.008820	-0.007230	0.010472
458	2.288113	0.005000	9.692280	0.468626	1.414894	0.505492	-0.123642	-0.289200	0.003152	-0.003873	0.012146
459	2.293113	0.005000	9.653162	0.470758	1.490998	0.505269	-0.123531	-0.288826	0.002534	-0.005044	0.016842
460	2.298113	0.005000	9.542941	0.473420	1.412640	0.505046	-0.123419	-0.288453	-0.002708	-0.012222	0.006157
461	2.303113	0.005000	9.692280	0.500230	1.491120	0.504823	-0.123307	-0.288079	0.005901	-0.012917	0.010940
462	2.308113	0.005000	9.700010	0.541630	1.483390	0.504600	-0.123196	-0.287706	0.001073	-0.005027	0.010814
463	2.313113	0.005000	9.731520	0.500000	1.501240	0.504377	-0.123084	-0.287332	-0.001902	0.000563	0.013201
464	2.318113	0.005000	9.758265	0.536865	1.464375	0.504154	-0.122973	-0.286959	0.002484	-0.005500	0.009330
465	2.323113	0.005000	9.731520	0.534475	1.515475	0.503931	-0.122861	-0.286585	0.024299	-0.003717	0.012796
466	2.328113	0.005000	9.770760	0.527589	1.530360	0.503708	-0.122750	-0.286212	0.003739	-0.010785	0.010874
467	2.333113	0.005000	9.712160	0.470880	1.491120	0.503485	-0.122638	-0.285838	-0.000839	-0.008764	0.001691
468	2.338113	0.005000	9.731520	0.448386	1.435134	0.503262	-0.122527	-0.285464	-0.000773	-0.023321	0.014770
469	2.343113	0.005000	9.742018	0.495749	1.462378	0.503039	-0.122415	-0.285091	0.007350	-0.017324	0.006504
470	2.348113	0.005000	9.758779	0.353160	1.400659	0.502901	-0.122472	-0.285188	0.017199	-0.014604	0.012012
471	2.353113	0.005000	9.721914	0.430823	1.422246	0.502789	-0.122584	-0.285438	0.013035	-0.008397	0.013344
472	2.358113	0.005000	9.724676	0.503276	1.479255	0.502678	-0.122696	-0.285687	0.002364	-0.007099	0.012172
473	2.363113	0.005000	9.561245	0.549360	1.534798	0.502566	-0.122807	-0.285936	0.003512	-0.013286	0.010844
474	2.368113	0.005000	9.543307	0.592594	1.483133	0.502455	-0.122919	-0.286185	-0.006728	-0.007104	0.002579
475	2.373113	0.005000	9.692280	0.628223	1.295303	0.502343	-0.123030	-0.286434	0.002207	-0.007393	0.004610
476	2.378113	0.005000	9.653040	0.619438	1.412640	0.502232	-0.123142	-0.286683	-0.003529	-0.004091	0.006820
477	2.383113	0.005000	9.658245	0.588600	1.423051	0.502120	-0.123254	-0.286932	0.010954	-0.011716	0.004075
478	2.388113	0.005000	9.676306	0.502133	1.365413	0.502008	-0.123365	-0.287181	-0.003085	-0.015320	0.019804
479	2.393113	0.005000	9.702657	0.559737	1.383777	0.501897	-0.123477	-0.287431	-0.002138	-0.005927	0.007206
480	2.398113	0.005000	9.679374	0.549360	1.491120	0.501785	-0.123588	-0.287680	0.003626	-0.007142	0.005620
481	2.403113	0.005000	9.722919	0.549360	1.515040	0.501674	-0.123700	-0.287929	0.000493	-0.006050	-0.001261
482	2.408113	0.005000	9.660603	0.410129	1.498683	0.501562	-0.123812	-0.288178	0.002014	-0.010218	0.007159
483	2.413113	0.005000	9.691239	0.451780	1.469939	0.501409	-0.123965	-0.288333	-0.005663	-0.005417	0.011041
484	2.418113	0.005000	9.698543	0.526609	1.530360	0.501185	-0.124188	-0.288333	0.002681	-0.005029	-0.000313
485	2.423113	0.005000	9.560446	0.521133	1.398526	0.500962	-0.124412	-0.288333	0.006490	-0.007063	0.010671
486	2.428113	0.005000	9.637247	0.486673	1.306644	0.500739	-0.124635	-0.288333	0.001492	-0.006293	0.007097
487	2.433113	0.005000	9.701267	0.467588	1.412640	0.500516	-0.124858	-0.288333	0.014294	-0.014050	0.005192
488	2.438113	0.005000	9.679118	0.542779	1.445299	0.500293	-0.125081	-0.288333	0.003865	-0.006762	0.008247
489	2.443113	0.005000	9.661369	0.619511	1.338324	0.500070	-0.125304	-0.288333	0.003593	-0.004023	0.005777
490	2.448113	0.005000	9.694020	0.585121	1.373400	0.499846	-0.125527	-0.288333	0.004337	-0.009633	0.009468
491	2.453113	0.005000	9.692938	0.510120	1.489146	0.499623	-0.125750	-0.288333	-0.008917	0.000874	0.000159
492	2.458113	0.005000	9.695342	0.477004	1.524236	0.499400	-0.125973	-0.288333	0.010123	-0.013039	0.007565
493	2.463113	0.005000	9.647574	0.532963	1.575066	0.499177	-0.126196	-0.288333	0.005827	-0.004071	0.006281
494	2.468113	0.005000	9.653040	0.572111	1.491120	0.498954	-0.126420	-0.288333	-0.001317	-0.008965	0.000872
495	2.473113	0.005000	9.767462	0.424303	1.519726	0.498730	-0.126643	-0.288333	-0.001618	-0.006306	0.007941
496	2.478113	0.005000	9.705289	0.418631	1.425649	0.498507	-0.126866	-0.288333	-0.008666	-0.003123	0.000232
497	2.483113	0.005000	9.707680	0.423199	1.428040	0.498730	-0.127089	-0.288333	0.001184	-0.007602	0.000710
498	2.488113	0.005000	9.713746	0.431640	1.394866	0.498953	-0.127312	-0.288333	-0.001090	-0.003298	0.003572
499	2.493113	0.005000	9.731520	0.430079	1.451880	0.499176	-0.127535	-0.288333	0.000596	-0.008665	0.011310
500	2.498113	0.005000	9.770760	0.510120	1.445496	0.499399	-0.127758	-0.288333	-0.001956	-0.005079	0.013648
501	2.503113	0.005000	9.731520	0.484737	1.516503	0.499623	-0.127981	-0.288333	-0.007256	-0.000967	0.001347
502	2.508113	0.005000	9.675973	0.459414	1.396333	0.499846	-0.128204	-0.288333	-0.008099	-0.006441	0.014777
503	2.513113	0.005000	9.683189	0.470880	1.482029	0.500069	-0.128428	-0.288333	-0.003780	-0.008996	0.006980
504	2.518113	0.005000	9.581261	0.516821	1.399237	0.500292	-0.128651	-0.288333	0.009588	-0.015750	0.008771
505	2.523113	0.005000	9.687954	0.505794	1.377726	0.500515	-0.128874	-0.288333	0.002522	-0.000096	0.012251
506	2.528113	0.005000	9.734520	0.587100	1.415640	0.500739	-0.129097	-0.288333	0.010019	0.005438	0.002353
507	2.533113	0.005000	9.695003	0.587692	1.452788	0.500962	-0.129320	-0.288333	0.011557	0.001514	0.007071
508	2.538113	0.005000	9.692280	0.510120	1.415923	0.501185	-0.129543	-0.288333	0.011578	0.007837	-0.009791
509	2.543113	0.005000	9.770760	0.482225	1.446207	0.501408	-0.129766	-0.288333	0.006903	0.002687	-0.005281
510	2.548113	0.005000	9.669330	0.439785	1.468170	0.501631	-0.129644	-0.288333	0.015054	0.006566	0.011914
511	2.553113	0.005000	9.624349	0.499571	1.540909	0.501854	-0.129309	-0.288333	0.007027	0.001417	0.002889
512	2.558113	0.005000	9.666355	0.510120	1.425955	0.502077	-0.128974	-0.288333	0.004219	-0.001996	0.002976
513	2.563113	0.005000	9.629457	0.525777	1.577527	0.502300	-0.128640	-0.288333	0.001620	0.002072	0.009508
514	2.568113	0.005000	9.734697	0.513297	1.630048	0.502523	-0.128305	-0.288333	0.014070	0.001377	0.012731
515	2.573113	0.005000	9.828818	0.607418	1.549178	0.502746	-0.127971	-0.288333	0.005403	0.005733	0.008482
516	2.578113	0.005000	9.737873	0.526563	1.592397	0.502969	-0.127636	-0.288333	0.010906	-0.002546	0.011217
517	2.583113	0.005000	9.731520	0.457122	1.569600	0.503192	-0.127302	-0.288333	0.001017	0.003056	0.009648
518	2.588113	0.005000	9.742865	0.498775	1.463225	0.503415	-0.126967	-0.288333	0.004922	-0.002774	0.008875
519	2.593113	0.005000	9.661978	0.510120	1.382338	0.503638	-0.126633	-0.288333	0.007304	-0.009229	0.013860
520	2.598113	0.005000	9.587604	0.542838	1.464924	0.503861	-0.126298	-0.288333	0.006146	-0.002739	0.008959
521	2.603113	0.005000	9.578629	0.479018	1.526291	0.504084	-0.125963	-0.288333	0.003605	-0.004319	0.008386
522	2.608113	0.005000	9.654719	0.547681	1.527002	0.504307	-0.125629	-0.288333	0.001485	-0.000493	-0.003203
523	2.613113	0.005000	9.653744	0.587191	1.490416	0.504426	-0.125399	-0.288362	0.013915	-0.008125	0.001654
524	2.618113	0.005000	9.767220	0.428100	1.558981	0.504202	-0.125511	-0.288487	0.008454	-0.006775	0.008473
525	2.623113	0.005000	9.598279	0.510120	1.563670	0.503979	-0.125622	-0.288611	0.004078	-0.002636	0.010803
526	2.628113	0.005000	9.723215	0.501815	1.530360	0.503756	-0.125734	-0.288736	0.003791	-0.014585	0.019904
527	2.633113	0.005000	9.777915	0.638535	1.619535	0.503533	-0.125846	-0.288861	0.003911	-0.018164	-0.003028
528	2.638113	0.005000	9.653010	0.601670	1.621910	0.503310	-0.125957	-0.288985	0.015578	-0.008245	-0.001524
529	2.643113	0.005000	9.684597	0.494479	1.514719	0.503087	-0.126069	-0.289110	0.005079	-0.017833	0.008370
530	2.648113	0.005000	9.749571	0.591739	1.572739	0.502864	-0.126180	-0.289234	0.006938	-0.011432	0.003228
531	2.653113	0.005000	9.615469	0.469211	1.513243	0.502641	-0.126292	-0.289359	0.013284	-0.000639	0.014929
532	2.658113	0.005000	9.636854	0.493934	1.461198	0.502418	-0.126404	-0.289484	-0.003988	-0.014567	0.009779
533	2.663113	0.005000	9.678484	0.473028	1.516564	0.502194	-0.126515	-0.289608	0.004979	-0.009119	0.011387
534	2.668113	0.005000	9.692280	0.443061	1.535337	0.501971	-0.126627	-0.289733	0.001722	-0.008491	0.013317
535	2.673113	0.005000	9.692280	0.540329	1.460911	0.501748	-0.126738	-0.289857	0.011535	-0.009666	0.008211
536	2.678113	0.005000	9.692280	0.438296	1.393368	0.501525	-0.126850	-0.289982	0.004707	-0.012062	0.012412
537	2.683113	0.005000	9.790717	0.439353	1.487263	0.501589	-0.126770	-0.289680	-0.003908	-0.022729	0.003561
538	2.688113	0.005000	9.657357	0.546482	1.486803	0.501700	-0.126659	-0.289306	-0.004659	-0.016181	0.014333
539	2.693113	0.005000	9.694186	0.432593	1.258539	0.501812	-0.126547	-0.288932	-0.001962	-0.015223	0.007194
540	2.698113	0.005000	9.584707	0.392400	1.370018	0.501923	-0.126435	-0.288558	0.001797	-0.022836	0.003001
541	2.703113	0.005000	9.647253	0.459306	1.485333	0.502035	-0.126324	-0.288184	-0.002361	-0.013659	0.013314
542	2.708113	0.005000	9.678726	0.571476	1.381962	0.502146	-0.126212	-0.287810	0.003319	-0.012053	0.000449
543	2.713113	0.005000	9.585512	0.510120	1.412640	0.502258	-0.126101	-0.287437	0.012864	-0.007226	0.010868
544	2.718113	0.005000	9.536061	0.523447	1.451880	0.502369	-0.125989	-0.287063	0.002980	-0.014394	0.001955
545	2.723113	0.005000	9.653040	0.463074	1.451880	0.502481	-0.125877	-0.286689	0.009923	-0.016124	0.019207
546	2.728113	0.005000	9.629493	0.510120	1.472809	0.502593	-0.125766	-0.286315	0.003893	-0.011432	0.012430
547	2.733113	0.005000	9.671558	0.549360	1.491120	0.502704	-0.125654	-0.285941	0.009387	-0.013356	0.009772
548	2.738113	0.005000	9.551234	0.494206	1.451880	0.502816	-0.125542	-0.285567	0.009769	-0.011799	0.011920
549	2.743113	0.005000	9.625962	0.535821	1.492497	0.502927	-0.125431	-0.285193	0.012578	-0.013426	0.007607
550	2.748113	0.005000	9.613800	0.532448	1.519196	0.502985	-0.125319	-0.285241	0.010893	-0.016521	0.010567
551	2.753113	0.005000	9.674732	0.523039	1.451880	0.502985	-0.125208	-0.285739	0.013902	-0.000070	0.007400
552	2.758113	0.005000	9.719517	0.528125	1.602838	0.502985	-0.125096	-0.286237	0.008991	-0.005368	0.012217
553	2.763113	0.005000	9.727924	0.549360	1.459073	0.502985	-0.124985	-0.286736	0.015099	-0.003439	0.007960
554	2.768113	0.005000	9.655398	0.430461	1.450701	0.502985	-0.124873	-0.287234	0.012486	-0.010090	0.012674
555	2.773113	0.005000	9.655460	0.430430	1.374610	0.502985	-0.124762	-0.287732	0.012791	-0.014132	0.019585
556	2.778113	0.005000	9.688680	0.435240	1.341361	0.502985	-0.124650	-0.288231	0.012417	-0.011242	0.004728
557	2.783113	0.005000	9.613800	0.476928	1.406592	0.502985	-0.124538	-0.288729	0.009609	-0.016893	0.019383
558	2.788113	0.005000	9.661503	0.462417	1.434954	0.502985	-0.124427	-0.289227	0.015089	-0.014753	0.006057
559	2.793113	0.005000	9.670540	0.420770	1.569600	0.502985	-0.124315	-0.289726	0.006839	-0.010007	0.002959
560	2.798113	0.005000	9.666324	0.353160	1.569600	0.502985	-0.124204	-0.290224	0.000572	-0.010121	0.013442
561	2.803113	0.005000	9.566721	0.478734	1.530360	0.502985	-0.124092	-0.290722	-0.002020	-0.011132	-0.003956
562	2.808113	0.005000	9.734550	0.513150	1.590735	0.502985	-0.123981	-0.291221	0.002411	-0.015416	0.007395
563	2.813113	0.005000	9.735103	0.511911	1.591907	0.502962	-0.123846	-0.291602	0.011276	-0.015429	0.010812
564	2.818113	0.005000	9.613800	0.408714	1.481417	0.502739	-0.123511	-0.290979	0.006600	-0.016583	0.015559
565	2.823113	0.005000	9.602031	0.445376	1.400871	0.502516	-0.123177	-0.290356	-0.003390	-0.008709	0.016987
566	2.828113	0.005000	9.653040	0.526639	1.424001	0.502292	-0.122842	-0.289733	-0.009137	-0.004378	0.004257
567	2.833113	0.005000	9.592501	0.401370	1.442910	0.502069	-0.122507	-0.289110	-0.012824	-0.006548	0.007326
568	2.838113	0.005000	9.653040	0.464285	1.477929	0.501846	-0.122173	-0.288487	-0.000100	-0.004450	-0.012208
569	2.843113	0.005000	9.696500	0.466660	1.495340	0.501623	-0.121838	-0.287865	0.007252	-0.018181	0.009667
570	2.848113	0.005000	9.690450	0.435301	1.373400	0.501400	-0.121503	-0.287242	0.001124	-0.004029	0.012027
571	2.853113	0.005000	9.614814	0.548346	1.488079	0.501177	-0.121168	-0.286619	0.007272	-0.007049	0.011041
572	2.858113	0.005000	9.577948	0.552748	1.419417	0.500954	-0.120834	-0.285996	0.000859	-0.003665	0.011009
573	2.863113	0.005000	9.574560	0.403957	1.406861	0.500731	-0.120499	-0.285373	-0.002583	0.000281	-0.008945
574	2.868113	0.005000	9.661194	0.470880	1.271987	0.500507	-0.120164	-0.284750	0.005181	-0.005757	0.004687
575	2.873113	0.005000	9.663707	0.442307	1.334160	0.500284	-0.119830	-0.284127	0.004863	-0.002195	0.001642
576	2.878113	0.005000	9.666130	0.483955	1.425730	0.500061	-0.119495	-0.283504	0.010440	-0.005093	0.013379
577	2.883113	0.005000	9.716032	0.470880	1.428128	0.498948	-0.120698	-0.282339	-0.000788	-0.004031	0.017059
578	2.888113	0.005000	9.788913	0.489033	1.388618	0.497498	-0.122483	-0.280969	-0.000099	0.003680	-0.001913
579	2.893113	0.005000	9.791288	0.530648	1.410825	0.496047	-0.124268	-0.279598	0.009208	-0.006482	0.011211
580	2.898113	0.005000	9.653040	0.611518	1.530360	0.494597	-0.126053	-0.278228	0.015960	-0.003337	-0.003459
581	2.903113	0.005000	9.560613	0.627840	1.530360	0.493147	-0.127838	-0.276858	0.006449	0.000679	-0.004955
582	2.908113	0.005000	9.586117	0.526246	1.444891	0.491697	-0.129623	-0.275488	0.001565	0.008133	0.008156
583	2.913113	0.005000	9.753123	0.431640	1.382219	0.490246	-0.131408	-0.274117	0.001478	0.001663	0.006335
584	2.918113	0.005000	9.640215	0.497295	1.491120	0.488796	-0.133193	-0.272747	0.006968	0.001950	0.007687
585	2.923113	0.005000	9.688332	0.396348	1.487172	0.487346	-0.134978	-0.271377	-0.001275	0.001719	-0.001685
586	2.928113	0.005000	9.616946	0.359453	1.525640	0.485896	-0.136762	-0.270006	0.008685	-0.004532	-0.001417
587	2.933113	0.005000	9.653866	0.471706	1.527881	0.484445	-0.138547	-0.268636	0.000674	0.003513	0.004278
588	2.938113	0.005000	9.724229	0.431640	1.608840	0.482995	-0.140332	-0.267266	0.001853	-0.006260	0.011021
589	2.943113	0.005000	9.698316	0.470880	1.614876	0.481545	-0.142117	-0.265896	0.000916	-0.002841	0.010984
590	2.948113	0.005000	9.723109	0.431640	1.561189	0.481022	-0.143013	-0.265259	-0.000355	0.000399	0.007892
591	2.953113	0.005000	9.724682	0.403201	1.569600	0.482249	-0.142233	-0.266006	0.008654	-0.005899	0.015674
592	2.958113	0.005000	9.783648	0.470880	1.582776	0.483476	-0.141452	-0.266754	-0.001222	-0.005952	0.006929
593	2.963113	0.005000	9.645296	0.478624	1.451880	0.484704	-0.140671	-0.267501	0.004993	-0.010438	0.006645
594	2.968113	0.005000	9.653040	0.446874	1.491120	0.485931	-0.139890	-0.268249	0.005013	-0.006779	0.002529
595	2.973113	0.005000	9.653040	0.450095	1.428766	0.487158	-0.139109	-0.268996	0.003677	-0.005782	0.006373
596	2.978113	0.005000	9.620910	0.533295	1.553535	0.488385	-0.138328	-0.269744	0.007997	-0.003684	0.005878
597	2.983113	0.005000	9.588250	0.486401	1.622530	0.489612	-0.137547	-0.270491	-0.000810	-0.004300	-0.004828
598	2.988113	0.005000	9.653040	0.577627	1.541333	0.490839	-0.136766	-0.271239	0.004962	-0.015304	0.002511
599	2.993113	0.005000	9.583016	0.523992	1.561144	0.492067	-0.135985	-0.271986	-0.006387	-0.011836	0.003304
600	2.998113	0.005000	9.601638	0.437721	1.524279	0.493294	-0.135204	-0.272733	-0.005000	-0.007152	0.001503
601	3.003113	0.005000	9.621182	0.427949	1.494811	0.494521	-0.134423	-0.273481	-0.002107	-0.002189	0.007961
602	3.008113	0.005000	9.768128	0.510120	1.529044	0.495748	-0.133642	-0.274228	-0.001385	-0.010746	0.017591
603	3.013113	0.005000	9.729992	0.547832	1.528832	0.496975	-0.132861	-0.274976	0.003586	-0.013924	0.017041
604	3.018113	0.005000	9.660876	0.470880	1.522524	0.497231	-0.132296	-0.275964	0.002322	-0.006720	0.014345
605	3.023113	0.005000	9.613800	0.543067	1.431519	0.497454	-0.131738	-0.276961	-0.003020	-0.009499	0.012265
606	3.028113	0.005000	9.801215	0.462095	1.473551	0.497677	-0.131181	-0.277957	-0.005259	-0.012532	0.006904
607	3.033113	0.005000	9.636183	0.510120	1.519168	0.497900	-0.130623	-0.278954	-0.008569	-0.008569	-0.010603
608	3.038113	0.005000	9.665089	0.561409	1.489574	0.498123	-0.130065	-0.279951	0.010377	-0.008249	-0.001837
609	3.043113	0.005000	9.630077	0.581914	1.569600	0.498346	-0.129507	-0.280947	0.007530	-0.009106	-0.004355
610	3.048113	0.005000	9.654946	0.450307	1.491120	0.498570	-0.128949	-0.281944	0.007167	-0.011338	0.003807
611	3.053113	0.005000	9.637686	0.510120	1.506474	0.498793	-0.128392	-0.282940	0.006419	-0.009085	0.001182
612	3.058113	0.005000	9.754952	0.486688	1.428448	0.499016	-0.127834	-0.283937	0.008555	-0.008056	-0.001159
613	3.063113	0.005000	9.679282	0.470880	1.412762	0.499239	-0.127276	-0.284933	0.008945	-0.007927	0.012698
614	3.068113	0.005000	9.681567	0.499407	1.473306	0.499462	-0.126718	-0.285930	0.006052	-0.009080	0.005969
615	3.073113	0.005000	9.661338	0.510120	1.592244	0.499685	-0.126160	-0.286926	0.006122	-0.009953	0.007801
616	3.078113	0.005000	9.692280	0.600384	1.530360	0.499908	-0.125602	-0.287923	0.001385	-0.005427	0.006158
617	3.083113	0.005000	9.774194	0.542492	1.569600	0.500131	-0.125439	-0.288406	0.010373	-0.013531	0.001747
618	3.088113	0.005000	9.692280	0.469821	1.532478	0.500354	-0.125550	-0.288531	0.002610	-0.007108	0.002651
619	3.093113	0.005000	9.654387	0.431640	1.457267	0.500577	-0.125662	-0.288655	0.005711	-0.009271	0.003221
620	3.098113	0.005000	9.582062	0.545609	1.530360	0.500800	-0.125773	-0.288780	-0.001134	-0.019736	0.020746
621	3.103113	0.005000	9.679180	0.510120	1.464980	0.501023	-0.125885	-0.288904	0.005465	-0.005518	0.001241
622	3.108113	0.005000	9.661980	0.540420	1.473240	0.501246	-0.125996	-0.289029	0.017490	-0.010407	0.010739
623	3.113113	0.005000	9.619095	0.470880	1.474510	0.501469	-0.126108	-0.289154	0.005883	-0.003617	0.015286
624	3.118113	0.005000	9.664549	0.523986	1.518851	0.501692	-0.126219	-0.289278	0.003010	-0.004966	0.000734
625	3.123113	0.005000	9.659731	0.572325	1.445189	0.501915	-0.126331	-0.289403	0.004203	-0.006131	0.009742
626	3.128113	0.005000	9.632478	0.547477	1.491120	0.502138	-0.126443	-0.289527	0.002150	0.002301	0.003758
627	3.133113	0.005000	9.631741	0.467522	1.491120	0.502361	-0.126554	-0.289652	0.003359	-0.013070	0.011035
628	3.138113	0.005000	9.653040	0.486431	1.475569	0.502584	-0.126666	-0.289776	0.007221	-0.009751	0.005383
629	3.143113	0.005000	9.626976	0.510120	1.373400	0.502807	-0.126777	-0.289901	0.000882	-0.011291	0.013075
630	3.148113	0.005000	9.681494	0.442426	1.423426	0.503030	-0.126821	-0.289924	-0.005296	-0.001424	0.016545
631	3.153113	0.005000	9.629876	0.502082	1.545486	0.503254	-0.126597	-0.289550	-0.003194	-0.008618	0.009499
632	3.158113	0.005000	9.619432	0.504488	1.407008	0.503477	-0.126374	-0.289176	0.008283	0.000930	0.014858
633	3.163113	0.005000	9.725090	0.392400	1.536790	0.503700	-0.126151	-0.288803	-0.000699	-0.004540	0.013637
634	3.168113	0.005000	9.691478	0.509318	1.570402	0.503923	-0.125928	-0.288429	-0.001811	-0.010379	0.014330
635	3.173113	0.005000	9.653040	0.470880	1.571207	0.504146	-0.125705	-0.288055	0.007665	-0.005729	0.007063
636	3.178113	0.005000	9.535320	0.404434	1.565589	0.504369	-0.125482	-0.287682	0.011514	-0.007025	-0.003458
637	3.183113	0.005000	9.593843	0.359588	1.491120	0.504592	-0.125259	-0.287308	0.010178	-0.008627	0.002502
638	3.188113	0.005000	9.526123	0.401597	1.463528	0.504815	-0.125036	-0.286934	-0.000324	-0.003633	0.010135
639	3.193113	0.005000	9.586132	0.420068	1.530360	0.505038	-0.124813	-0.286560	0.004382	-0.004058	0.014695
640	3.198113	0.005000	9.664355	0.456918	1.569600	0.505262	-0.124589	-0.286187	0.003546	-0.008698	0.005910
641	3.203113	0.005000	9.721748	0.421868	1.507457	0.505485	-0.124366	-0.285813	0.002634	-0.008972	0.010028
642	3.208113	0.005000	9.692280	0.549360	1.550653	0.505708	-0.124143	-0.285439	-0.006345	-0.008611	0.006999
643	3.213113	0.005000	9.692280	0.513595	1.473238	0.505931	-0.123920	-0.285065	-0.005329	-0.004971	0.006238
644	3.218113	0.005000	9.716226	0.510120	1.545654	0.506154	-0.123881	-0.285411	-0.003289	-0.019133	0.016553
645	3.223113	0.005000	9.705713	0.470880	1.464784	0.506377	-0.123881	-0.285909	-0.005724	-0.015717	0.001200
646	3.228113	0.005000	9.731520	0.431640	1.394457	0.506600	-0.123881	-0.286408	0.009850	-0.017780	0.007534
647	3.233113	0.005000	9.731520	0.447947	1.497746	0.506823	-0.123881	-0.286906	0.002557	-0.010690	0.008451
648	3.238113	0.005000	9.613800	0.398163	1.491120	0.507046	-0.123881	-0.287404	0.008932	-0.018092	-0.000055
649	3.243113	0.005000	9.655995	0.467925	1.451880	0.507270	-0.123881	-0.287903	0.009335	-0.013494	0.007053
650	3.248113	0.005000	9.731520	0.431089	1.529809	0.507493	-0.123881	-0.288401	-0.001281	-0.003990	0.004283
651	3.253113	0.005000	9.768914	0.429794	1.416331	0.507716	-0.123881	-0.288899	0.006120	-0.010795	0.005971
652	3.258113	0.005000	9.770760	0.431640	1.307581	0.507939	-0.123881	-0.289398	-0.003085	-0.003953	0.008298
653	3.263113	0.005000	9.777371	0.431640	1.399419	0.508162	-0.123881	-0.289896	0.009942	-0.003685	0.008584
654	3.268113	0.005000	9.749491	0.470880	1.412640	0.508385	-0.123881	-0.290394	0.004303	-0.003654	0.010718
655	3.273113	0.005000	9.613800	0.487102	1.491120	0.508608	-0.123881	-0.290893	0.004639	0.000210	0.002895
656	3.278113	0.005000	9.678363	0.549360	1.505037	0.508831	-0.123881	-0.291391	0.006351	0.000590	0.017115
657	3.283113	0.005000	9.669370	0.503539	1.442131	0.508905	-0.123931	-0.291334	0.016592	-0.008543	0.005263
658	3.288113	0.005000	9.594815	0.450625	1.315175	0.508794	-0.124042	-0.290586	-0.001684	-0.002882	0.018154
659	3.293113	0.005000	9.710160	0.467401	1.412640	0.508682	-0.124154	-0.289838	0.008719	0.001542	0.003102
660	3.298113	0.005000	9.770760	0.494630	1.499379	0.508571	-0.124265	-0.289090	0.002324	-0.002089	0.004306
661	3.303113	0.005000	9.731520	0.418631	1.451880	0.508459	-0.124377	-0.288342	-0.003412	-0.005901	0.009922
662	3.308113	0.005000	9.642648	0.538968	1.491120	0.508347	-0.124489	-0.287595	-0.001275	-0.004920	-0.006109
663	3.313113	0.005000	9.621777	0.502143	1.553647	0.508236	-0.124600	-0.286847	0.002521	-0.008429	0.002364
664	3.318113	0.005000	9.692280	0.476386	1.508335	0.508124	-0.124712	-0.286099	-0.008580	0.000299	-0.000097
665	3.323113	0.005000	9.728389	0.470880	1.451880	0.508013	-0.124823	-0.285351	-0.003578	-0.007826	0.010990
666	3.328113	0.005000	9.693021	0.547136	1.451880	0.507901	-0.124935	-0.284604	-0.001983	0.001523	0.015411
667	3.333113	0.005000	9.694383	0.580189	1.489017	0.507790	-0.125046	-0.283856	-0.006790	0.000175	-0.002276
668	3.338113	0.005000	9.648562	0.593078	1.530360	0.507678	-0.125158	-0.283108	-0.001259	-0.007895	0.006435
669	3.343113	0.005000	9.613800	0.542492	1.504856	0.507566	-0.125270	-0.282360	0.001008	0.000334	0.007314
670	3.348113	0.005000	9.563384	0.480235	1.440704	0.507439	-0.125389	-0.281712	0.010516	-0.005571	0.001032
671	3.353113	0.005000	9.629502	0.459111	1.451880	0.507104	-0.125612	-0.282335	0.005311	-0.004392	0.002429
672	3.358113	0.005000	9.692280	0.441927	1.515883	0.506769	-0.125836	-0.282958	-0.001623	-0.007129	0.003406
673	3.363113	0.005000	9.636188	0.470880	1.530360	0.506434	-0.126059	-0.283581	0.001739	-0.006344	0.004883
674	3.368113	0.005000	9.613044	0.471636	1.550358	0.506100	-0.126282	-0.284204	0.007544	0.001364	-0.000449
675	3.373113	0.005000	9.670663	0.531737	1.551977	0.505765	-0.126505	-0.284827	0.004977	-0.008677	-0.000153
676	3.378113	0.005000	9.725903	0.485832	1.539696	0.505430	-0.126728	-0.285450	0.006349	-0.000952	0.010059
677	3.383113	0.005000	9.704669	0.524582	1.503509	0.505096	-0.126951	-0.286072	0.002119	0.002391	0.005298
678	3.388113	0.005000	9.663054	0.373188	1.501134	0.504761	-0.127174	-0.286695	0.005191	-0.007594	0.009447
679	3.393113	0.005000	9.746768	0.463256	1.506368	0.504426	-0.127397	-0.287318	-0.000414	-0.002170	0.010284
680	3.398113	0.005000	9.657878	0.475718	1.549712	0.504091	-0.127620	-0.287941	0.005438	-0.006805	0.014641
681	3.403113	0.005000	9.535320	0.507687	1.530360	0.503757	-0.127844	-0.288564	-0.002176	-0.005001	0.009812
682	3.408113	0.005000	9.653040	0.470865	1.608855	0.503422	-0.128067	-0.289187	0.004788	-0.010687	0.013494
683	3.413113	0.005000	9.653040	0.431640	1.648080	0.503087	-0.128290	-0.289810	0.001310	-0.006840	0.014151
684	3.418113	0.005000	9.648290	0.436390	1.520860	0.502985	-0.127971	-0.289741	-0.009159	-0.003168	0.000624
685	3.423113	0.005000	9.613800	0.360371	1.601629	0.502985	-0.127414	-0.289367	0.008529	-0.003405	0.011566
686	3.428113	0.005000	9.613800	0.422025	1.510350	0.502985	-0.126856	-0.288994	0.003886	-0.010503	0.001357
687	3.433113	0.005000	9.625829	0.498091	1.518331	0.502985	-0.126299	-0.288620	0.010932	-0.008195	0.001563
688	3.438113	0.005000	9.642675	0.534922	1.476682	0.502985	-0.125741	-0.288246	0.002720	0.002022	0.001765
689	3.443113	0.005000	9.697302	0.493011	1.395531	0.502985	-0.125184	-0.287873	-0.003173	-0.007892	0.000187
690	3.448113	0.005000	9.731520	0.470638	1.393141	0.502985	-0.124626	-0.287499	0.001944	-0.013326	0.005798
691	3.453113	0.005000	9.670406	0.488246	1.360542	0.502985	-0.124069	-0.287126	0.000154	-0.006336	0.002696
692	3.458113	0.005000	9.677304	0.470880	1.451880	0.502985	-0.123511	-0.286752	0.015667	-0.004597	0.008416
693	3.463113	0.005000	9.665319	0.495438	1.478841	0.502985	-0.122954	-0.286379	0.012032	-0.004707	-0.003968
694	3.468113	0.005000	9.672538	0.382529	1.549858	0.502985	-0.122396	-0.286005	0.005082	-0.012659	0.003543
695	3.473113	0.005000	9.707192	0.470880	1.507992	0.502985	-0.121839	-0.285632	-0.006182	-0.007339	0.002481
696	3.478113	0.005000	9.682296	0.470880	1.564608	0.502985	-0.121281	-0.285258	-0.001579	0.003712	0.002086
697	3.483113	0.005000	9.647836	0.473482	1.606238	0.502882	-0.120896	-0.284961	0.009738	-0.005570	0.016096
698	3.488113	0.005000	9.574787	0.510120	1.335068	0.502547	-0.120896	-0.284837	0.003136	-0.008811	-0.001647
699	3.493113	0.005000	9.613800	0.546743	1.527743	0.502212	-0.120896	-0.284712	-0.012089	-0.008123	0.004099
700	3.498113	0.005000	9.613800	0.544353	1.491120	0.501877	-0.120896	-0.284588	-0.005673	-0.007325	0.003060
701	3.503113	0.005000	9.755996	0.556742	1.420022	0.501543	-0.120896	-0.284463	-0.005196	-0.004995	0.007784
702	3.508113	0.005000	9.721748	0.470880	1.432336	0.501208	-0.120896	-0.284338	0.004069	-0.008471	0.015512
703	3.513113	0.005000	9.731520	0.537066	1.530360	0.500873	-0.120896	-0.284214	0.003517	-0.007223	0.005998
704	3.518113	0.005000	9.653040	0.549360	1.491120	0.500539	-0.120896	-0.284089	0.001207	-0.009056	0.012229
705	3.523113	0.005000	9.653040	0.566470	1.530360	0.500204	-0.120896	-0.283965	0.004550	0.000233	0.000277
706	3.528113	0.005000	9.633556	0.529604	1.510876	0.499869	-0.120896	-0.283840	0.016090	-0.006710	0.005699
707	3.533113	0.005000	9.653040	0.493011	1.581687	0.499534	-0.120896	-0.283715	0.012702	-0.002749	0.005981
708	3.538113	0.005000	9.667759	0.500318	1.569600	0.499200	-0.120896	-0.283591	0.008750	-0.006542	0.004104
709	3.543113	0.005000	9.665058	0.579766	1.533545	0.498865	-0.120896	-0.283466	0.003591	-0.003889	0.013344
710	3.548113	0.005000	9.770760	0.451658	1.510342	0.498530	-0.120896	-0.283342	0.001502	0.006578	0.005930
711	3.553113	0.005000	9.677888	0.478076	1.491120	0.498611	-0.120896	-0.283681	0.004388	-0.004538	0.000898
712	3.558113	0.005000	9.722050	0.466145	1.599370	0.498722	-0.120896	-0.284054	0.004627	-0.003762	0.000771
713	3.563113	0.005000	9.694625	0.505431	1.488775	0.498834	-0.120896	-0.284428	-0.003291	-0.011014	-0.006822
714	3.568113	0.005000	9.653101	0.510059	1.530299	0.498946	-0.120896	-0.284802	0.003776	-0.011524	0.010372
715	3.573113	0.005000	9.694729	0.507671	1.491120	0.499057	-0.120896	-0.285176	0.003800	-0.000558	0.001912
716	3.578113	0.005000	9.585089	0.510120	1.478201	0.499169	-0.120896	-0.285549	0.018739	-0.008769	0.008632
717	3.583113	0.005000	9.613800	0.517759	1.474798	0.499280	-0.120896	-0.285923	0.008623	-0.001152	0.004913
718	3.588113	0.005000	9.565408	0.383248	1.501149	0.499392	-0.120896	-0.286297	-0.003196	-0.010394	0.004436
719	3.593113	0.005000	9.653040	0.483434	1.425194	0.499504	-0.120896	-0.286670	0.003425	-0.001099	0.002074
720	3.598113	0.005000	9.692280	0.422335	1.358432	0.499615	-0.120896	-0.287044	0.007769	-0.010533	0.006534
721	3.603113	0.005000	9.635663	0.414263	1.408154	0.499727	-0.120896	-0.287418	-0.001251	-0.012545	0.017366
722	3.608113	0.005000	9.594573	0.450867	1.471893	0.499838	-0.120896	-0.287792	-0.005725	-0.003010	0.002882
723	3.613113	0.005000	9.602666	0.532523	1.519226	0.499950	-0.120896	-0.288165	-0.009582	-0.015833	0.008198
724	3.618113	0.005000	9.677818	0.574138	1.559283	0.499877	-0.121388	-0.287921	-0.017375	0.001227	0.001494
725	3.623113	0.005000	9.727555	0.459122	1.475396	0.499654	-0.122281	-0.287173	-0.005482	-0.002629	-0.005980
726	3.628113	0.005000	9.701631	0.459693	1.481769	0.499431	-0.123173	-0.286426	0.000330	-0.018490	0.003101
727	3.633113	0.005000	9.738456	0.510120	1.458816	0.499208	-0.124065	-0.285679	0.004273	-0.014243	0.001032
728	3.638113	0.005000	9.731520	0.535770	1.442820	0.498985	-0.124958	-0.284931	-0.005480	-0.022545	0.001106
729	3.643113	0.005000	9.727345	0.472968	1.410552	0.498761	-0.125850	-0.284184	-0.000975	-0.010758	0.005433
730	3.648113	0.005000	9.691989	0.471171	1.451298	0.498538	-0.126743	-0.283436	0.005543	-0.009580	0.016683
731	3.653113	0.005000	9.582687	0.546651	1.527651	0.498315	-0.127635	-0.282689	0.002404	-0.010795	0.005758
732	3.658113	0.005000	9.653040	0.510120	1.598613	0.498092	-0.128528	-0.281941	-0.005454	-0.014313	-0.004799
733	3.663113	0.005000	9.677221	0.517650	1.569600	0.497869	-0.129420	-0.281194	-0.001429	-0.012058	0.009322
734	3.668113	0.005000	9.721233	0.539073	1.540647	0.497646	-0.130313	-0.280446	0.005688	-0.013087	0.004620
735	3.673113	0.005000	9.639123	0.588600	1.517699	0.497423	-0.131205	-0.279699	0.005681	-0.020971	0.002767
736	3.678113	0.005000	9.683143	0.612788	1.442743	0.497200	-0.132097	-0.278952	0.006325	-0.008274	0.001851
737	3.683113	0.005000	9.674853	0.584213	1.569600	0.497111	-0.132759	-0.278333	-0.004228	-0.009192	-0.005524
738	3.688113	0.005000	9.732377	0.569409	1.530360	0.497669	-0.132313	-0.278333	0.009135	-0.004110	0.009164
739	3.693113	0.005000	9.703380	0.549360	1.519260	0.498227	-0.131867	-0.278333	0.002568	-0.007275	-0.003864
740	3.698113	0.005000	9.745891	0.534989	1.466251	0.498785	-0.131420	-0.278333	0.015423	-0.016264	0.014738
741	3.703113	0.005000	9.731520	0.588600	1.518403	0.499342	-0.130974	-0.278333	0.006445	-0.008676	0.012540
742	3.708113	0.005000	9.701719	0.590082	1.511481	0.499900	-0.130528	-0.278333	0.006000	-0.012632	0.012288
743	3.713113	0.005000	9.692280	0.506202	1.484056	0.500458	-0.130082	-0.278333	0.005472	0.001905	0.013448
744	3.718113	0.005000	9.726846	0.583926	1.486446	0.501016	-0.129636	-0.278333	0.005911	0.001070	0.018012
745	3.723113	0.005000	9.616099	0.586301	1.525761	0.501574	-0.129189	-0.278333	0.011235	-0.009760	0.006682
746	3.728113	0.005000	9.691735	0.510665	1.490575	0.502131	-0.128743	-0.278333	0.003504	-0.000193	0.016724
747	3.733113	0.005000	9.728585	0.470880	1.482316	0.502689	-0.128297	-0.278333	0.002328	-0.020137	0.010184
748	3.738113	0.005000	9.736830	0.577981	1.553671	0.503247	-0.127851	-0.278333	0.002036	-0.017898	0.014132
749	3.743113	0.005000	9.668440	0.549360	1.491120	0.503805	-0.127404	-0.278333	0.000319	-0.013191	0.002080
750	3.748113	0.005000	9.692280	0.617643	1.569600	0.504363	-0.126958	-0.278333	0.012326	-0.013833	0.021263
751	3.753113	0.005000	9.651632	0.547952	1.530360	0.504389	-0.126954	-0.278926	0.023411	-0.007156	0.013679
752	3.758113	0.005000	9.613800	0.476698	1.584619	0.504278	-0.127066	-0.279673	0.001587	-0.014257	0.015925
753	3.763113	0.005000	9.609927	0.567044	1.494993	0.504166	-0.127178	-0.280421	0.006146	-0.008495	0.014110
754	3.768113	0.005000	9.573652	0.568526	1.431806	0.504055	-0.127289	-0.281168	0.005092	-0.006935	0.005102
755	3.773113	0.005000	9.608142	0.532569	1.395849	0.503943	-0.127401	-0.281916	0.007181	-0.019720	0.013595
756	3.778113	0.005000	9.624819	0.549360	1.454971	0.503831	-0.127512	-0.282663	0.001376	-0.019082	0.004749
757	3.783113	0.005000	9.648891	0.549360	1.491120	0.503720	-0.127624	-0.283411	0.005856	-0.009259	0.005450
758	3.788113	0.005000	9.692280	0.489459	1.481830	0.503608	-0.127735	-0.284158	-0.005617	-0.007155	0.006952
759	3.793113	0.005000	9.620674	0.484629	1.451880	0.503497	-0.127847	-0.284906	0.003254	-0.011536	0.016646
760	3.798113	0.005000	9.692280	0.514537	1.403806	0.503385	-0.127958	-0.285653	-0.005912	-0.008636	0.017410
761	3.803113	0.005000	9.807973	0.512147	1.336187	0.503274	-0.128070	-0.286401	-0.002336	-0.008058	0.014541
762	3.808113	0.005000	9.770760	0.471584	1.334512	0.503162	-0.128181	-0.287148	0.003360	-0.013906	0.018502
763	3.813113	0.005000	9.806808	0.470880	1.445496	0.503050	-0.128293	-0.287895	0.000000	0.001947	0.013420
764	3.818113	0.005000	9.798866	0.538226	1.423774	0.502430	-0.129191	-0.287403	-0.003163	0.000241	0.019414
765	3.823113	0.005000	9.621757	0.541403	1.435966	0.501091	-0.131199	-0.285161	0.005366	-0.000141	0.016021
766	3.828113	0.005000	9.632376	0.530784	1.501452	0.499753	-0.133207	-0.282919	0.007473	-0.011753	0.009640
767	3.833113	0.005000	9.601078	0.470880	1.517638	0.498414	-0.135215	-0.280676	0.004833	-0.011303	0.009390
768	3.838113	0.005000	9.653040	0.431640	1.482439	0.497075	-0.137223	-0.278434	0.006927	-0.001881	0.001223
769	3.843113	0.005000	9.535320	0.470880	1.512668	0.495737	-0.139231	-0.276192	0.007092	-0.006345	0.005914
770	3.848113	0.005000	9.613800	0.431640	1.510258	0.494398	-0.141239	-0.273949	0.003099	0.008352	0.005926
771	3.853113	0.005000	9.669768	0.437425	1.491120	0.493059	-0.143247	-0.271707	0.008703	-0.002449	0.006029
772	3.858113	0.005000	9.731520	0.470880	1.401688	0.491721	-0.145255	-0.269465	-0.001181	0.006958	0.011076
773	3.863113	0.005000	9.731520	0.439476	1.385169	0.490382	-0.147263	-0.267222	-0.000667	0.001315	0.003665
774	3.868113	0.005000	9.722141	0.441019	1.401537	0.489043	-0.149271	-0.264980	0.000537	0.004827	0.018497
775	3.873113	0.005000	9.685276	0.503116	1.498124	0.487705	-0.151279	-0.262738	-0.000479	0.004559	-0.000851
776	3.878113	0.005000	9.622217	0.536734	1.526151	0.486366	-0.153287	-0.260495	-0.000717	0.000474	-0.000901
777	3.883113	0.005000	9.731520	0.513703	1.487537	0.485103	-0.155172	-0.258355	-0.012216	0.000725	0.004124
778	3.888113	0.005000	9.692885	0.588600	1.412640	0.485884	-0.153722	-0.258978	-0.012650	-0.000490	-0.002761
779	3.893113	0.005000	9.692280	0.549360	1.560509	0.486665	-0.152272	-0.259601	-0.001009	-0.010168	0.006291
780	3.898113	0.005000	9.658475	0.515555	1.569600	0.487445	-0.150822	-0.260224	0.002624	0.004175	-0.003336
781	3.903113	0.005000	9.692280	0.572922	1.561761	0.488226	-0.149371	-0.260847	0.006178	0.008533	-0.004015
782	3.908113	0.005000	9.731520	0.656826	1.530360	0.489007	-0.147921	-0.261470	0.000661	0.004961	-0.000693
783	3.913113	0.005000	9.626779	0.470577	1.517078	0.489788	-0.146471	-0.262093	0.005001	-0.009439	-0.003695
784	3.918113	0.005000	9.763938	0.549360	1.530360	0.490569	-0.145020	-0.262716	0.010078	0.000107	0.009982
785	3.923113	0.005000	9.735272	0.610096	1.522857	0.491350	-0.143570	-0.263339	0.005376	0.003166	0.007657
786	3.928113	0.005000	9.730035	0.588600	1.550723	0.492131	-0.142120	-0.263962	0.012552	-0.003244	0.000957
787	3.933113	0.005000	9.669507	0.588600	1.553133	0.492911	-0.140670	-0.264584	0.004336	-0.000941	-0.005653
788	3.938113	0.005000	9.689860	0.627840	1.594953	0.493692	-0.139219	-0.265207	0.010572	-0.009745	0.007110
789	3.943113	0.005000	9.676064	0.623135	1.558088	0.494473	-0.137769	-0.265830	-0.007159	-0.001910	0.009623
790	3.948113	0.005000	9.692280	0.521995	1.620715	0.495254	-0.136319	-0.266453	0.003347	-0.007511	0.003929
791	3.953113	0.005000	9.698634	0.503766	1.530360	0.495375	-0.135968	-0.267322	0.017801	-0.002507	0.006755
792	3.958113	0.005000	9.653040	0.510120	1.624389	0.495152	-0.136191	-0.268318	-0.002254	-0.005729	0.001110
793	3.963113	0.005000	9.653040	0.508589	1.453411	0.494929	-0.136414	-0.269315	0.010360	-0.009863	0.016462
794	3.968113	0.005000	9.614662	0.432502	1.529498	0.494706	-0.136637	-0.270311	0.000984	0.000101	0.012622
795	3.973113	0.005000	9.653040	0.431640	1.605588	0.494483	-0.136860	-0.271308	0.001323	-0.004649	0.008336
796	3.978113	0.005000	9.641649	0.622145	1.502511	0.494260	-0.137083	-0.272304	-0.000024	-0.012956	0.010418
797	3.983113	0.005000	9.684169	0.557471	1.381511	0.494037	-0.137306	-0.273301	0.002979	-0.016678	-0.000339
798	3.988113	0.005000	9.721002	0.502434	1.491120	0.493814	-0.137529	-0.274297	0.006554	-0.016727	0.002606
799	3.993113	0.005000	9.639804	0.562127	1.517124	0.493591	-0.137752	-0.275294	0.004085	-0.013119	0.003302
800	3.998113	0.005000	9.692280	0.478519	1.553974	0.493367	-0.137976	-0.276291	-0.001342	-0.027359	0.019165
801	4.003113	0.005000	9.689043	0.470880	1.505884	0.493144	-0.138199	-0.277287	0.002795	-0.009612	0.006796
802	4.008113	0.005000	9.693793	0.450504	1.508471	0.492921	-0.138422	-0.278284	0.013401	-0.013800	0.010538
803	4.013113	0.005000	9.747727	0.493913	1.539741	0.492698	-0.138645	-0.279280	-0.000135	-0.017546	0.011504
804	4.018113	0.005000	9.692280	0.588600	1.463531	0.492816	-0.138589	-0.279896	0.002778	-0.019954	0.013644
805	4.023113	0.005000	9.770760	0.537974	1.445575	0.493820	-0.137808	-0.279522	0.006355	-0.013134	0.010230
806	4.028113	0.005000	9.701145	0.501255	1.355671	0.494824	-0.137027	-0.279149	0.001976	-0.019808	0.016772
807	4.033113	0.005000	9.777250	0.411869	1.464859	0.495828	-0.136246	-0.278775	0.011494	-0.015524	0.007737
808	4.038113	0.005000	9.727421	0.435739	1.635782	0.496832	-0.135465	-0.278401	0.008750	-0.013329	0.014841
809	4.043113	0.005000	9.769035	0.472605	1.530360	0.497836	-0.134684	-0.278028	0.008466	-0.013282	0.016396
810	4.048113	0.005000	9.731520	0.471999	1.492239	0.498840	-0.133903	-0.277654	0.013097	-0.021176	0.011919
811	4.053113	0.005000	9.653040	0.467370	1.419659	0.499844	-0.133122	-0.277280	0.005282	-0.014661	-0.003090
812	4.058113	0.005000	9.541204	0.464996	1.457764	0.500848	-0.132342	-0.276906	0.015163	-0.012171	-0.005464
813	4.063113	0.005000	9.551869	0.493571	1.491120	0.501852	-0.131561	-0.276533	0.001646	-0.008466	0.010762
814	4.068113	0.005000	9.631483	0.531677	1.519582	0.502856	-0.130780	-0.276159	0.015566	-0.017094	-0.001834
815	4.073113	0.005000	9.626992	0.457688	1.517168	0.503860	-0.129999	-0.275785	0.015169	-0.012489	0.015554
816	4.078113	0.005000	9.676679	0.525721	1.506721	0.504865	-0.129218	-0.275411	0.015028	-0.004802	0.011460
817	4.083113	0.005000	9.725092	0.470880	1.530360	0.505869	-0.128437	-0.275038	0.008934	-0.012674	0.011901
818	4.088113	0.005000	9.692280	0.512177	1.435346	0.505870	-0.128458	-0.275896	-0.012550	-0.015506	0.005264
819	4.093113	0.005000	9.613800	0.470880	1.435664	0.505758	-0.128570	-0.276892	0.010312	-0.015337	0.004360
820	4.098113	0.005000	9.666881	0.498563	1.440323	0.505647	-0.128682	-0.277889	0.017508	-0.023488	0.011198
821	4.103113	0.005000	9.675292	0.577474	1.468868	0.505535	-0.128793	-0.278886	0.009138	-0.013210	0.011136
822	4.108113	0.005000	9.718414	0.479591	1.478014	0.505424	-0.128905	-0.279882	0.007754	-0.018556	0.012592
823	4.113113	0.005000	9.718909	0.510120	1.524055	0.505312	-0.129016	-0.280879	0.010132	-0.012210	0.001624
824	4.118113	0.005000	9.649198	0.549360	1.487278	0.505201	-0.129128	-0.281875	0.016148	-0.015167	0.008293
825	4.123113	0.005000	9.692280	0.470880	1.414107	0.505089	-0.129239	-0.282872	0.018432	-0.010919	0.002365
826	4.128113	0.005000	9.692280	0.470880	1.528493	0.504978	-0.129351	-0.283868	0.016262	-0.009603	0.004350
827	4.133113	0.005000	9.653040	0.591938	1.461893	0.504866	-0.129463	-0.284865	0.004844	-0.010072	0.015790
828	4.138113	0.005000	9.626083	0.443923	1.451880	0.504755	-0.129574	-0.285862	-0.001156	-0.010007	-0.003019
829	4.143113	0.005000	9.700812	0.470880	1.460412	0.504643	-0.129686	-0.286858	0.004433	-0.011030	0.008987
830	4.148113	0.005000	9.720613	0.510120	1.484600	0.504532	-0.129797	-0.287855	0.009262	-0.009480	0.013406
831	4.153113	0.005000	9.653040	0.522455	1.516908	0.504362	-0.129561	-0.288139	0.005698	-0.017273	0.003670
832	4.158113	0.005000	9.715659	0.431640	1.506981	0.504139	-0.129003	-0.287765	0.001842	-0.020156	0.011628
833	4.163113	0.005000	9.689586	0.452607	1.415334	0.503916	-0.128445	-0.287391	0.001218	-0.006414	0.005858
834	4.168113	0.005000	9.592894	0.549360	1.472786	0.503693	-0.127887	-0.287017	0.009005	-0.010308	0.005280
835	4.173113	0.005000	9.606478	0.517442	1.569600	0.503470	-0.127330	-0.286644	0.004192	-0.013248	-0.003694
836	4.178113	0.005000	9.719418	0.535791	1.438311	0.503246	-0.126772	-0.286270	0.006850	-0.014923	0.010121
837	4.183113	0.005000	9.787612	0.442834	1.435028	0.503023	-0.126214	-0.285896	0.000277	-0.006024	-0.000177
838	4.188113	0.005000	9.753864	0.448536	1.443432	0.502800	-0.125656	-0.285523	-0.005203	-0.010783	-0.004182
839	4.193113	0.005000	9.686248	0.537296	1.439816	0.502577	-0.125098	-0.285149	0.001222	-0.017779	0.009115
840	4.198113	0.005000	9.617429	0.474509	1.494749	0.502354	-0.124541	-0.284775	-0.007791	-0.007657	-0.004987
841	4.203113	0.005000	9.691070	0.588600	1.411430	0.502131	-0.123983	-0.284401	0.003771	-0.017675	0.003853
842	4.208113	0.005000	9.691086	0.588600	1.411446	0.501908	-0.123425	-0.284028	0.002412	-0.007836	-0.001559
843	4.213113	0.005000	9.578158	0.549360	1.491120	0.501685	-0.122867	-0.283654	0.000346	-0.007537	0.006228
844	4.218113	0.005000	9.679482	0.483678	1.412640	0.501588	-0.122420	-0.283351	0.005886	-0.012336	0.008963
845	4.223113	0.005000	9.709858	0.470880	1.382189	0.502257	-0.122643	-0.283475	0.012763	-0.002800	0.005846
846	4.228113	0.005000	9.596888	0.560524	1.401476	0.502926	-0.122866	-0.283600	0.008966	-0.006264	0.007453
847	4.233113	0.005000	9.639486	0.510120	1.373400	0.503596	-0.123089	-0.283724	-0.001048	-0.000027	0.007384
848	4.238113	0.005000	9.708209	0.549360	1.397876	0.504265	-0.123312	-0.283849	0.002749	-0.009251	0.007280
849	4.243113	0.005000	9.669400	0.510120	1.391933	0.504934	-0.123535	-0.283974	0.007093	0.000255	0.002240
850	4.248113	0.005000	9.752683	0.510120	1.355323	0.505604	-0.123758	-0.284098	0.005069	-0.000060	0.002322
851	4.253113	0.005000	9.731520	0.415938	1.389102	0.506273	-0.123981	-0.284223	0.004512	0.002142	0.017387
852	4.258113	0.005000	9.704896	0.367168	1.491120	0.506942	-0.124204	-0.284347	0.008054	0.007346	0.012603
853	4.263113	0.005000	9.653040	0.481475	1.412640	0.507612	-0.124428	-0.284472	0.001693	-0.001951	-0.001688
854	4.268113	0.005000	9.778948	0.518308	1.319483	0.508281	-0.124651	-0.284597	0.001973	0.004854	0.006911
855	4.273113	0.005000	9.725748	0.510120	1.418412	0.508950	-0.124874	-0.284721	0.005970	0.005915	0.003581
856	4.278113	0.005000	9.767393	0.581866	1.484386	0.509620	-0.125097	-0.284846	0.002704	-0.001058	0.009058
857	4.283113	0.005000	9.770760	0.547462	1.489222	0.510289	-0.125320	-0.284970	0.001199	-0.002966	0.001326
858	4.288113	0.005000	9.846366	0.433077	1.450443	0.509768	-0.125798	-0.284335	-0.000178	-0.001680	0.013438
859	4.293113	0.005000	9.617658	0.439356	1.455738	0.508875	-0.126356	-0.283463	0.005357	0.002735	-0.001040
860	4.298113	0.005000	9.764485	0.489704	1.379675	0.507983	-0.126914	-0.282591	-0.001409	-0.001492	0.001915
861	4.303113	0.005000	9.740201	0.440321	1.560919	0.507090	-0.127472	-0.281719	-0.002012	-0.001997	0.017550
862	4.308113	0.005000	9.680859	0.392400	1.569600	0.506198	-0.128029	-0.280847	-0.001399	-0.003311	0.005843
863	4.313113	0.005000	9.664658	0.431640	1.504931	0.505305	-0.128587	-0.279975	0.008103	0.003988	0.005417
864	4.318113	0.005000	9.685412	0.493934	1.412640	0.504413	-0.129145	-0.279103	-0.003024	0.001913	-0.005747
865	4.323113	0.005000	9.611712	0.530784	1.354824	0.503520	-0.129703	-0.278231	-0.006996	0.000063	0.011996
866	4.328113	0.005000	9.592595	0.531325	1.491120	0.502627	-0.130261	-0.277359	-0.006302	-0.002540	0.001917
867	4.333113	0.005000	9.645051	0.470880	1.530360	0.501735	-0.130819	-0.276487	0.003884	-0.003415	-0.003533
868	4.338113	0.005000	9.666253	0.457667	1.465093	0.500842	-0.131376	-0.275615	-0.001558	-0.000856	-0.000050
869	4.343113	0.005000	9.631680	0.520800	1.423320	0.499950	-0.131934	-0.274743	-0.002609	0.003519	-0.008813
870	4.348113	0.005000	9.510451	0.541070	1.493329	0.499057	-0.132492	-0.273871	-0.000841	0.001146	0.004098
871	4.353113	0.005000	9.586250	0.576910	1.557910	0.498550	-0.132494	-0.273572	-0.003011	0.000744	0.005105
872	4.358113	0.005000	9.645140	0.546727	1.606207	0.498661	-0.131602	-0.274194	0.008363	-0.006920	0.003303
873	4.363113	0.005000	9.613800	0.509890	1.530590	0.498773	-0.130710	-0.274817	0.005017	-0.016411	0.006285
874	4.368113	0.005000	9.539646	0.470880	1.606677	0.498884	-0.129818	-0.275440	0.007819	-0.000504	-0.000151
875	4.373113	0.005000	9.613800	0.427102	1.578676	0.498996	-0.128926	-0.276062	0.008328	-0.009995	0.015228
876	4.378113	0.005000	9.743047	0.477808	1.504977	0.499107	-0.128034	-0.276685	0.000696	-0.007829	0.000433
877	4.383113	0.005000	9.642047	0.461464	1.472288	0.499219	-0.127142	-0.277308	0.005344	-0.012205	0.011251
878	4.388113	0.005000	9.586379	0.498301	1.522322	0.499331	-0.126250	-0.277930	0.000625	-0.006008	0.010004
879	4.393113	0.005000	9.624574	0.549360	1.519586	0.499442	-0.125358	-0.278553	-0.003733	-0.010230	0.002799
880	4.398113	0.005000	9.714608	0.549360	1.446464	0.499554	-0.124466	-0.279175	0.000590	-0.017239	0.009334
881	4.403113	0.005000	9.672327	0.510786	1.471167	0.499665	-0.123574	-0.279798	-0.009056	-0.007707	0.002115
882	4.408113	0.005000	9.648925	0.484328	1.434317	0.499777	-0.122682	-0.280421	0.001197	-0.017221	0.003510
883	4.413113	0.005000	9.637852	0.558225	1.475932	0.499888	-0.121789	-0.281043	-0.008283	-0.019081	0.003468
884	4.418113	0.005000	9.705925	0.549360	1.543158	0.500000	-0.120897	-0.281666	0.007564	-0.017756	0.007144
885	4.423113	0.005000	9.692280	0.568452	1.578618	0.500334	-0.121230	-0.282164	0.016786	-0.010228	0.007015
886	4.428113	0.005000	9.716185	0.510120	1.482550	0.500669	-0.121565	-0.282663	0.000442	-0.003389	0.005881
887	4.433113	0.005000	9.692280	0.593851	1.491120	0.501004	-0.121899	-0.283161	0.009093	-0.013242	0.009473
888	4.438113	0.005000	9.610986	0.549360	1.491120	0.501338	-0.122234	-0.283659	0.012666	-0.007330	0.006728
889	4.443113	0.005000	9.575831	0.510120	1.569176	0.501673	-0.122569	-0.284157	0.009224	-0.008618	0.007872
890	4.448113	0.005000	9.655015	0.547385	1.493095	0.502008	-0.122903	-0.284656	0.011963	-0.014050	0.011562
891	4.453113	0.005000	9.648245	0.500529	1.599249	0.502342	-0.123238	-0.285154	0.011042	-0.016114	0.006035
892	4.458113	0.005000	9.685095	0.534989	1.591156	0.502677	-0.123572	-0.285652	0.004855	-0.015851	0.012703
893	4.463113	0.005000	9.672161	0.490001	1.480561	0.503012	-0.123907	-0.286150	0.006121	-0.007118	0.004131
894	4.468113	0.005000	9.734908	0.467492	1.506459	0.503347	-0.124242	-0.286649	0.013794	-0.018058	0.012011
895	4.473113	0.005000	9.642451	0.456555	1.519771	0.503681	-0.124576	-0.287147	0.005633	-0.009266	0.007872
896	4.478113	0.005000	9.686471	0.487596	1.496929	0.504016	-0.124911	-0.287645	0.004667	-0.018164	0.015501
897	4.483113	0.005000	9.633719	0.530039	1.549084	0.504351	-0.125246	-0.288143	0.003912	-0.015309	0.006903
898	4.488113	0.005000	9.592075	0.505910	1.434365	0.504409	-0.125373	-0.288024	0.010644	-0.019335	0.002921
899	4.493113	0.005000	9.653040	0.549360	1.430699	0.504297	-0.125373	-0.287526	0.009239	-0.017247	0.017038
900	4.498113	0.005000	9.654204	0.692464	1.412640	0.504186	-0.125373	-0.287028	0.008294	-0.010655	0.002743
901	4.503113	0.005000	9.565816	0.646749	1.453302	0.504074	-0.125373	-0.286530	0.002082	-0.020887	0.008784
902	4.508113	0.005000	9.660815	0.596375	1.554049	0.503963	-0.125373	-0.286031	-0.005579	-0.013162	0.012764
903	4.513113	0.005000	9.658440	0.588600	1.524960	0.503851	-0.125373	-0.285533	-0.000611	-0.015430	0.018100
904	4.518113	0.005000	9.613800	0.502361	1.336746	0.503739	-0.125373	-0.285035	0.002709	-0.011093	0.021991
905	4.523113	0.005000	9.613968	0.392400	1.334497	0.503628	-0.125373	-0.284537	0.002698	-0.008552	0.013643
906	4.528113	0.005000	9.690071	0.503494	1.449671	0.503516	-0.125373	-0.284038	-0.003669	-0.012345	0.018889
907	4.533113	0.005000	9.761563	0.357759	1.442683	0.503405	-0.125373	-0.283540	-0.003168	-0.005342	0.012212
908	4.538113	0.005000	9.699338	0.424582	1.451880	0.503293	-0.125373	-0.283042	0.002066	-0.011140	0.010328
909	4.543113	0.005000	9.682807	0.539887	1.442407	0.503181	-0.125373	-0.282544	0.008536	-0.011736	0.007379
910	4.548113	0.005000	9.676801	0.443521	1.503001	0.503070	-0.125373	-0.282045	0.001039	-0.009927	-0.002702
911	4.553113	0.005000	9.727878	0.456586	1.455522	0.502931	-0.125266	-0.281787	0.002266	-0.019052	0.005572
912	4.558113	0.005000	9.670013	0.397695	1.446585	0.502708	-0.124819	-0.282285	0.009403	-0.011067	0.004956
913	4.563113	0.005000	9.653040	0.549905	1.372855	0.502485	-0.124373	-0.282784	0.001557	-0.020374	0.006467
914	4.568113	0.005000	9.600533	0.510120	1.351662	0.502262	-0.123926	-0.283282	0.002212	-0.014871	0.005477
915	4.573113	0.005000	9.589687	0.470880	1.412640	0.502038	-0.123480	-0.283781	0.007125	-0.013795	0.007327
916	4.578113	0.005000	9.705017	0.470880	1.413669	0.501815	-0.123033	-0.284279	0.001126	-0.008676	0.012513
917	4.583113	0.005000	9.673089	0.392400	1.393449	0.501592	-0.122587	-0.284778	-0.007986	-0.004889	-0.007554
918	4.588113	0.005000	9.645431	0.431640	1.420249	0.501369	-0.122141	-0.285276	0.005660	-0.010527	0.014516
919	4.593113	0.005000	9.579763	0.392400	1.383807	0.501146	-0.121694	-0.285775	0.002007	-0.008116	0.003883
920	4.598113	0.005000	9.692280	0.434393	1.530360	0.500922	-0.121248	-0.286273	0.008386	-0.016021	0.007358
921	4.603113	0.005000	9.731520	0.470502	1.530360	0.500699	-0.120801	-0.286772	0.007767	-0.008659	0.002811
922	4.608113	0.005000	9.657111	0.468845	1.567565	0.500476	-0.120355	-0.287270	-0.002941	-0.007864	-0.001756
923	4.613113	0.005000	9.731520	0.436496	1.456736	0.500253	-0.119908	-0.287769	0.004182	-0.008715	0.014709
924	4.618113	0.005000	9.603483	0.485342	1.459111	0.500030	-0.119462	-0.288267	-0.002649	0.000370	0.004941
925	4.623113	0.005000	9.673038	0.490878	1.491120	0.500000	-0.119693	-0.288333	0.016024	-0.003315	0.009937
926	4.628113	0.005000	9.653040	0.416392	1.467128	0.500000	-0.120028	-0.288333	0.000798	-0.000799	0.009866
927	4.633113	0.005000	9.731520	0.431640	1.480989	0.500000	-0.120362	-0.288333	0.006583	0.001358	-0.007850
928	4.638113	0.005000	9.692280	0.510120	1.463531	0.500000	-0.120697	-0.288333	0.004133	-0.000992	0.007496
929	4.643113	0.005000	9.652550	0.549360	1.510985	0.500000	-0.121032	-0.288333	-0.008771	0.005783	0.000376
930	4.648113	0.005000	9.692280	0.488125	1.495870	0.500000	-0.121366	-0.288333	-0.012811	-0.002763	0.001872
931	4.653113	0.005000	9.598930	0.510120	1.496490	0.500000	-0.121701	-0.288333	-0.006085	0.006905	0.001030
932	4.658113	0.005000	9.651240	0.483360	1.517880	0.500000	-0.122035	-0.288333	0.001077	-0.001464	0.007181
933	4.663113	0.005000	9.653040	0.470880	1.559495	0.500000	-0.122370	-0.288333	0.007079	-0.002735	0.009728
934	4.668113	0.005000	9.550012	0.524812	1.537706	0.500000	-0.122704	-0.288333	0.008022	-0.004184	0.006322
935	4.673113	0.005000	9.692280	0.583670	1.373400	0.500000	-0.123039	-0.288333	0.003321	-0.011823	-0.000344
936	4.678113	0.005000	9.616326	0.549360	1.417692	0.500000	-0.123373	-0.288333	0.004337	-0.006780	-0.000957
937	4.683113	0.005000	9.613800	0.392400	1.530239	0.500000	-0.123708	-0.288333	0.007344	-0.007032	0.010806
938	4.688113	0.005000	9.576856	0.392400	1.528064	0.500215	-0.124150	-0.288153	0.011598	0.003985	0.015767
939	4.693113	0.005000	9.599699	0.470880	1.525660	0.500662	-0.124708	-0.287779	0.003319	-0.003211	-0.008347
940	4.698113	0.005000	9.731520	0.542244	1.551709	0.501108	-0.125266	-0.287405	0.005048	-0.006825	0.008397
941	4.703113	0.005000	9.594316	0.519998	1.559722	0.501554	-0.125823	-0.287031	-0.005482	-0.009594	0.017180
942	4.708113	0.005000	9.640787	0.510120	1.586815	0.502000	-0.126381	-0.286658	-0.000252	-0.004453	0.013782
943	4.713113	0.005000	9.716877	0.573957	1.530360	0.502447	-0.126939	-0.286284	0.007671	-0.000951	0.009774
944	4.718113	0.005000	9.670058	0.588600	1.468898	0.502893	-0.127497	-0.285910	-0.005724	-0.005275	0.009933
945	4.723113	0.005000	9.633405	0.529755	1.530360	0.503339	-0.128054	-0.285537	0.003692	-0.010088	0.009436
946	4.728113	0.005000	9.608947	0.505267	1.469073	0.503785	-0.128612	-0.285163	0.002750	-0.002064	-0.001687
947	4.733113	0.005000	9.721506	0.377787	1.544973	0.504231	-0.129170	-0.284789	0.005454	-0.013501	-0.002780
948	4.738113	0.005000	9.707074	0.458657	1.503343	0.504678	-0.129728	-0.284415	0.003535	0.001283	0.000062
949	4.743113	0.005000	9.623648	0.500272	1.628384	0.505124	-0.130285	-0.284042	-0.003109	-0.005341	0.003189
950	4.748113	0.005000	9.777846	0.517206	1.544532	0.505570	-0.130843	-0.283668	0.004716	-0.006079	0.010868
951	4.753113	0.005000	9.766090	0.466210	1.574270	0.505901	-0.131285	-0.283294	0.000928	-0.006170	-0.002394
952	4.758113	0.005000	9.690015	0.473145	1.604310	0.505231	-0.130727	-0.282920	-0.002593	-0.010226	0.005861
953	4.763113	0.005000	9.731217	0.588297	1.374005	0.504562	-0.130170	-0.282547	-0.004309	-0.007364	0.008625
954	4.768113	0.005000	9.736634	0.510120	1.491120	0.503893	-0.129612	-0.282173	-0.002568	-0.012236	0.002036
955	4.773113	0.005000	9.736494	0.510120	1.417614	0.503223	-0.129054	-0.281799	-0.001402	-0.013009	0.007995
956	4.778113	0.005000	9.637035	0.510120	1.554110	0.502554	-0.128496	-0.281426	0.000713	-0.004862	0.010656
957	4.783113	0.005000	9.615101	0.617705	1.530360	0.501885	-0.127939	-0.281052	-0.002481	-0.005510	0.010553
958	4.788113	0.005000	9.681479	0.601110	1.503630	0.501215	-0.127381	-0.280678	-0.006636	-0.006022	-0.001695
959	4.793113	0.005000	9.686819	0.539921	1.485659	0.500546	-0.126823	-0.280304	0.001965	-0.012221	0.011393
960	4.798113	0.005000	9.688008	0.527604	1.521817	0.499877	-0.126265	-0.279931	0.006400	-0.001100	0.004226
961	4.803113	0.005000	9.652489	0.510120	1.451880	0.499207	-0.125708	-0.279557	0.004205	-0.006790	0.002827
962	4.808113	0.005000	9.753827	0.588600	1.412640	0.498538	-0.125150	-0.279183	0.005074	-0.014867	0.009143
963	4.813113	0.005000	9.742049	0.574244	1.494947	0.497869	-0.124592	-0.278810	0.000475	-0.008464	0.012435
964	4.818113	0.005000	9.668349	0.615874	1.424606	0.497199	-0.124034	-0.278436	-0.000272	-0.006223	0.014328
965	4.823113	0.005000	9.701871	0.519711	1.412640	0.496368	-0.124933	-0.277610	0.001588	0.000086	0.015844
966	4.828113	0.005000	9.731520	0.484531	1.458706	0.495475	-0.126384	-0.276613	0.005385	-0.007652	0.016747
967	4.833113	0.005000	9.692280	0.593009	1.425868	0.494582	-0.127834	-0.275616	-0.003721	-0.005266	0.013235
968	4.838113	0.005000	9.619815	0.580581	1.491120	0.493689	-0.129285	-0.274619	0.008595	-0.006792	0.013764
969	4.843113	0.005000	9.770352	0.548135	1.568783	0.492796	-0.130736	-0.273622	0.002707	-0.007092	0.017921
970	4.848113	0.005000	9.770760	0.470880	1.493903	0.491904	-0.132187	-0.272625	0.009684	-0.009101	0.009774
971	4.853113	0.005000	9.770760	0.465706	1.462227	0.491011	-0.133638	-0.271628	0.008915	-0.010270	0.018001
972	4.858113	0.005000	9.668320	0.502480	1.396319	0.490118	-0.135089	-0.270631	-0.001100	-0.004144	0.001670
973	4.863113	0.005000	9.613800	0.432619	1.441825	0.489225	-0.136540	-0.269634	0.012988	-0.013241	0.003626
974	4.868113	0.005000	9.731520	0.431640	1.505435	0.488332	-0.137991	-0.268637	0.006778	-0.012079	0.004677
975	4.873113	0.005000	9.683355	0.588600	1.584757	0.487439	-0.139442	-0.267640	0.008266	-0.001036	0.004616
976	4.878113	0.005000	9.692280	0.610308	1.512828	0.486546	-0.140893	-0.266643	0.006249	-0.010749	0.008540
977	4.883113	0.005000	9.751443	0.589205	1.568995	0.485654	-0.142344	-0.265646	0.002396	-0.008838	0.007684
978	4.888113	0.005000	9.692280	0.510120	1.513687	0.485428	-0.142931	-0.265439	0.020316	-0.002845	0.008630
979	4.893113	0.005000	9.688729	0.613576	1.476856	0.486432	-0.141927	-0.266684	0.001117	0.005410	0.010299
980	4.898113	0.005000	9.637500	0.459030	1.436340	0.487436	-0.140922	-0.267930	0.004431	0.000078	0.012528
981	4.903113	0.005000	9.613800	0.470880	1.373400	0.488440	-0.139918	-0.269176	0.003536	-0.018197	0.018754
982	4.908113	0.005000	9.634630	0.431640	1.329637	0.489444	-0.138914	-0.270422	0.003924	-0.009082	0.008271
983	4.913113	0.005000	9.653040	0.466312	1.456448	0.490448	-0.137910	-0.271667	0.012751	-0.015612	-0.000298
984	4.918113	0.005000	9.724985	0.545003	1.530360	0.491452	-0.136906	-0.272913	0.012769	-0.010150	0.011129
985	4.923113	0.005000	9.652841	0.470880	1.608442	0.492456	-0.135902	-0.274159	0.015854	-0.005777	-0.003748
986	4.928113	0.005000	9.694897	0.366245	1.493737	0.493460	-0.134898	-0.275405	0.017441	-0.011368	0.007834
987	4.933113	0.005000	9.619231	0.353160	1.418071	0.494464	-0.133894	-0.276651	0.021420	-0.000265	-0.003350
988	4.938113	0.005000	9.590171	0.416029	1.491120	0.495468	-0.132890	-0.277896	0.013713	-0.010035	0.001491
989	4.943113	0.005000	9.594951	0.363356	1.491120	0.496472	-0.131886	-0.279142	0.011968	-0.004077	0.003514
990	4.948113	0.005000	9.601077	0.392400	1.531432	0.497476	-0.130882	-0.280388	0.006921	-0.005088	0.003261
991	4.953113	0.005000	9.559424	0.368296	1.545496	0.498480	-0.129878	-0.281634	0.003035	-0.008493	-0.004178
992	4.958113	0.005000	9.617431	0.317551	1.512555	0.498941	-0.131154	-0.281909	-0.006237	-0.006647	-0.007226
993	4.963113	0.005000	9.595859	0.391281	1.531479	0.499388	-0.132492	-0.282159	0.001592	-0.005181	0.003824
994	4.968113	0.005000	9.613800	0.487565	1.552915	0.499834	-0.133831	-0.282408	-0.002131	-0.005048	-0.003237
995	4.973113	0.005000	9.628095	0.485175	1.530360	0.500280	-0.135170	-0.282657	0.005619	-0.018295	0.000276
996	4.978113	0.005000	9.680360	0.392400	1.467280	0.500727	-0.136508	-0.282906	-0.005156	-0.010462	-0.002223
997	4.983113	0.005000	9.563910	0.450700	1.462530	0.501173	-0.137847	-0.283155	-0.006252	-0.004696	-0.017102
998	4.988113	0.005000	9.613800	0.470880	1.373400	0.501619	-0.139186	-0.283404	0.000842	-0.011611	-0.003710
999	4.993113	0.005000	9.687918	0.405485	1.499843	0.502065	-0.140524	-0.283653	-0.007325	-0.013906	-0.010189
1000	4.998113	0.005000	9.651096	0.625896	1.524527	0.502512	-0.141863	-0.283902	-0.005899	-0.014723	-0.002266
1001	5.003113	0.005000	9.691372	0.549814	1.451426	0.502958	-0.143202	-0.284152	-0.007547	-0.006178	-0.008116
1002	5.008113	0.005000	9.728676	0.549360	1.493964	0.503404	-0.144540	-0.284401	-0.002077	-0.012041	-0.016508
1003	5.013113	0.005000	9.692280	0.627840	1.451880	0.503851	-0.145879	-0.284650	-0.002939	-0.008033	-0.008445
1004	5.018113	0.005000	9.833844	0.549360	1.396494	0.504297	-0.147218	-0.284899	0.004453	-0.006516	-0.002368
1005	5.023113	0.005000	9.644114	0.470880	1.451880	0.504544	-0.146965	-0.284778	0.003233	-0.006867	0.000621
1006	5.028113	0.005000	9.718692	0.575772	1.596012	0.504656	-0.145626	-0.284404	-0.006663	-0.012923	-0.003975
1007	5.033113	0.005000	9.613800	0.573382	1.506338	0.504767	-0.144287	-0.284030	-0.000037	-0.008258	0.005425
1008	5.038113	0.005000	9.696334	0.706320	1.491120	0.504879	-0.142947	-0.283656	0.012195	-0.002059	-0.005456
1009	5.043113	0.005000	9.712263	0.667806	1.510377	0.504991	-0.141608	-0.283282	0.017021	-0.004095	0.003996
1010	5.048113	0.005000	9.793118	0.706320	1.508002	0.505102	-0.140269	-0.282908	0.014151	-0.003835	0.005973
1011	5.053113	0.005000	9.770760	0.716576	1.544852	0.505214	-0.138929	-0.282534	0.007522	-0.014321	0.004117
1012	5.058113	0.005000	9.755754	0.694203	1.494009	0.505325	-0.137590	-0.282161	0.005577	-0.000600	0.008563
1013	5.063113	0.005000	9.770760	0.716062	1.500862	0.505437	-0.136251	-0.281787	0.008646	-0.000079	0.016633
1014	5.068113	0.005000	9.770760	0.738581	1.622797	0.505548	-0.134912	-0.281413	0.014879	-0.008541	0.017180
1015	5.073113	0.005000	9.775322	0.706320	1.604278	0.505660	-0.133572	-0.281039	0.006599	-0.003451	0.021075
1016	5.078113	0.005000	9.727204	0.627840	1.534676	0.505772	-0.132233	-0.280665	0.010002	-0.002290	0.019071
1017	5.083113	0.005000	9.692023	0.588857	1.530874	0.505883	-0.130894	-0.280291	0.015502	-0.007992	0.019245
1018	5.088113	0.005000	9.692280	0.622512	1.530360	0.505945	-0.129851	-0.280055	0.019221	-0.003212	0.022690
1019	5.093113	0.005000	9.574560	0.481042	1.530360	0.505834	-0.129851	-0.280304	0.004793	-0.004157	0.021819
1020	5.098113	0.005000	9.582426	0.502254	1.561734	0.505722	-0.129851	-0.280553	0.003361	-0.012215	0.032985
1021	5.103113	0.005000	9.642799	0.441881	1.590082	0.505611	-0.129851	-0.280802	0.004158	-0.018021	0.020522
1022	5.108113	0.005000	9.718889	0.510120	1.662058	0.505499	-0.129851	-0.281051	0.000862	-0.011221	0.022997
1023	5.113113	0.005000	9.740385	0.510120	1.551871	0.505388	-0.129851	-0.281300	0.002542	-0.017501	0.025312
1024	5.118113	0.005000	9.692280	0.510120	1.547960	0.505277	-0.129851	-0.281549	0.004205	-0.025329	0.028687
1025	5.123113	0.005000	9.653040	0.470880	1.549590	0.505165	-0.129851	-0.281798	-0.000055	-0.018357	0.023611
1026	5.128113	0.005000	9.608199	0.448459	1.530360	0.505054	-0.129851	-0.282047	0.002302	-0.016164	0.018138
1027	5.133113	0.005000	9.638633	0.470880	1.447899	0.504942	-0.129851	-0.282296	-0.000900	-0.006853	0.021254
1028	5.138113	0.005000	9.707801	0.459020	1.412640	0.504831	-0.129851	-0.282545	-0.009898	-0.007497	0.013045
1029	5.143113	0.005000	9.643570	0.323390	1.374761	0.504719	-0.129851	-0.282794	-0.008956	-0.018171	0.028143
1030	5.148113	0.005000	9.645945	0.328109	1.230629	0.504608	-0.129851	-0.283043	-0.011639	-0.009539	0.016431
1031	5.153113	0.005000	9.613800	0.295102	1.207031	0.504496	-0.129851	-0.283292	-0.004942	-0.013576	0.023741
1032	5.158113	0.005000	9.689950	0.313920	1.329501	0.504291	-0.129478	-0.283437	-0.002547	-0.004910	0.023749
1033	5.163113	0.005000	9.614314	0.236469	1.294406	0.504068	-0.129032	-0.283562	-0.013360	-0.003995	0.010693
1034	5.168113	0.005000	9.689391	0.274680	1.331271	0.503845	-0.128585	-0.283686	-0.000467	-0.009352	0.015603
1035	5.173113	0.005000	9.715682	0.190921	1.300199	0.503622	-0.128139	-0.283811	-0.002803	0.000276	0.009176
1036	5.178113	0.005000	9.645386	0.306266	1.302574	0.503399	-0.127693	-0.283936	0.006648	-0.017944	0.006253
1037	5.183113	0.005000	9.663084	0.274680	1.373400	0.503176	-0.127247	-0.284060	0.005103	-0.009863	0.002524
1038	5.188113	0.005000	9.612269	0.262110	1.425210	0.502953	-0.126800	-0.284185	0.013712	-0.004386	-0.003100
1039	5.193113	0.005000	9.613800	0.338177	1.334160	0.502730	-0.126354	-0.284309	0.007231	-0.005289	0.001245
1040	5.198113	0.005000	9.653040	0.331312	1.338615	0.502506	-0.125908	-0.284434	0.008622	-0.001258	0.001998
1041	5.203113	0.005000	9.710675	0.333132	1.392612	0.502283	-0.125462	-0.284559	0.005271	-0.003289	-0.002607
1042	5.208113	0.005000	9.720296	0.392400	1.317339	0.502060	-0.125015	-0.284683	-0.001714	0.005101	-0.004405
1043	5.213113	0.005000	9.681933	0.367606	1.402293	0.501837	-0.124569	-0.284808	0.000523	0.002553	-0.006894
1044	5.218113	0.005000	9.719464	0.458824	1.475993	0.501614	-0.124123	-0.284932	0.011893	0.005276	0.000557
1045	5.223113	0.005000	9.761079	0.372523	1.530360	0.501697	-0.124085	-0.285000	-0.000097	0.000105	-0.015739
1046	5.228113	0.005000	9.706115	0.484715	1.641162	0.502144	-0.124532	-0.285000	0.007620	0.000643	-0.000948
1047	5.233113	0.005000	9.687779	0.470880	1.625574	0.502590	-0.124978	-0.285000	0.004846	0.013134	-0.015390
1048	5.238113	0.005000	9.576657	0.472977	1.530360	0.503037	-0.125425	-0.285000	0.026260	0.009155	-0.006205
1049	5.243113	0.005000	9.574878	0.626887	1.608205	0.503483	-0.125871	-0.285000	0.011963	0.006421	-0.009560
1050	5.248113	0.005000	9.608415	0.661695	1.491120	0.503929	-0.126317	-0.285000	0.004045	0.001843	-0.013250
1051	5.253113	0.005000	9.663298	0.554489	1.525231	0.504376	-0.126764	-0.285000	0.014381	0.008832	-0.013736
1052	5.258113	0.005000	9.701340	0.549360	1.515270	0.504822	-0.127210	-0.285000	0.013012	0.010520	-0.022685
1053	5.263113	0.005000	9.662992	0.490783	1.559648	0.505269	-0.127657	-0.285000	0.008344	-0.001283	-0.003347
1054	5.268113	0.005000	9.678393	0.483557	1.583487	0.505715	-0.128103	-0.285000	0.005267	0.007564	-0.005313
1055	5.273113	0.005000	9.653040	0.446707	1.545427	0.506162	-0.128550	-0.285000	0.004885	0.006282	-0.000002
1056	5.278113	0.005000	9.635598	0.571158	1.604483	0.506608	-0.128996	-0.285000	0.001592	-0.000184	-0.002035
1057	5.283113	0.005000	9.710569	0.627840	1.470169	0.507054	-0.129442	-0.285000	0.000424	-0.005952	-0.011257
1058	5.288113	0.005000	9.591325	0.667080	1.513595	0.507425	-0.129775	-0.285042	0.010984	-0.008149	0.009345
1059	5.293113	0.005000	9.677925	0.627840	1.519831	0.506979	-0.128883	-0.285541	0.000795	-0.002997	-0.002597
1060	5.298113	0.005000	9.653040	0.600542	1.479178	0.506533	-0.127990	-0.286039	0.005547	-0.011036	-0.008914
1061	5.303113	0.005000	9.672109	0.617204	1.461415	0.506086	-0.127098	-0.286537	-0.015378	0.000056	0.000328
1062	5.308113	0.005000	9.795932	0.634874	1.548498	0.505640	-0.126205	-0.287036	-0.007691	-0.009374	-0.007730
1063	5.313113	0.005000	9.687621	0.662421	1.491120	0.505194	-0.125313	-0.287534	0.007335	-0.018934	0.008953
1064	5.318113	0.005000	9.574560	0.590869	1.456418	0.504748	-0.124420	-0.288032	0.003411	-0.012752	0.000485
1065	5.323113	0.005000	9.652826	0.549574	1.569493	0.504302	-0.123528	-0.288530	0.003255	-0.015917	0.014103
1066	5.328113	0.005000	9.731520	0.667080	1.645130	0.503855	-0.122635	-0.289029	-0.003064	-0.014912	0.005690
1067	5.333113	0.005000	9.776100	0.638520	1.535700	0.503409	-0.121743	-0.289527	-0.001946	-0.022254	0.010030
1068	5.338113	0.005000	9.707710	0.627840	1.475025	0.502963	-0.120850	-0.290025	-0.002031	-0.015600	0.013325
1069	5.343113	0.005000	9.653040	0.588600	1.539285	0.502517	-0.119958	-0.290524	0.000609	-0.011001	0.008863
1070	5.348113	0.005000	9.719040	0.588600	1.491120	0.502071	-0.119065	-0.291022	0.002714	-0.010699	0.023947
1071	5.353113	0.005000	9.619125	0.476205	1.573805	0.501624	-0.118173	-0.291520	0.000305	-0.008663	0.002605
1072	5.358113	0.005000	9.618146	0.510120	1.508567	0.501650	-0.118304	-0.291491	0.011140	-0.019620	0.008542
1073	5.363113	0.005000	9.633657	0.529503	1.570075	0.501874	-0.118862	-0.291242	0.008969	-0.016419	0.002642
1074	5.368113	0.005000	9.630772	0.448612	1.491120	0.502097	-0.119419	-0.290993	0.007822	-0.018080	0.012947
1075	5.373113	0.005000	9.599240	0.456320	1.524680	0.502320	-0.119977	-0.290744	0.006736	-0.011585	0.011229
1076	5.378113	0.005000	9.625811	0.443651	1.491120	0.502543	-0.120535	-0.290494	-0.004237	-0.013798	0.001551
1077	5.383113	0.005000	9.653040	0.431640	1.530360	0.502766	-0.121093	-0.290245	0.005847	-0.021948	0.011388
1078	5.388113	0.005000	9.717028	0.517366	1.466372	0.502989	-0.121651	-0.289996	0.002594	-0.014658	0.012219
1079	5.393113	0.005000	9.613800	0.426784	1.648080	0.503212	-0.122208	-0.289747	0.011451	-0.023750	0.015172
1080	5.398113	0.005000	9.736482	0.321363	1.567119	0.503435	-0.122766	-0.289498	0.009103	-0.020710	0.016874
1081	5.403113	0.005000	9.654492	0.431640	1.530360	0.503659	-0.123324	-0.289248	0.007845	-0.010014	0.017989
1082	5.408113	0.005000	9.616553	0.395153	1.415393	0.503882	-0.123882	-0.288999	-0.000892	-0.025343	0.012407
1083	5.413113	0.005000	9.721264	0.421384	1.446752	0.504105	-0.124440	-0.288750	-0.006236	-0.020369	0.004721
1084	5.418113	0.005000	9.724002	0.399918	1.466916	0.504328	-0.124998	-0.288501	0.016161	-0.022043	0.019433
1085	5.423113	0.005000	9.653040	0.382507	1.432094	0.504478	-0.125409	-0.288129	0.003900	-0.021812	0.004622
1086	5.428113	0.005000	9.588946	0.419213	1.437494	0.504478	-0.125521	-0.287506	0.010727	-0.009068	0.010764
1087	5.433113	0.005000	9.716684	0.367996	1.446613	0.504478	-0.125633	-0.286884	0.009154	-0.015236	0.015982
1088	5.438113	0.005000	9.675032	0.431640	1.378144	0.504478	-0.125744	-0.286261	0.009314	-0.016369	0.009584
1089	5.443113	0.005000	9.692341	0.431640	1.412579	0.504478	-0.125856	-0.285638	0.007096	-0.022907	0.013044
1090	5.448113	0.005000	9.748493	0.482558	1.451880	0.504478	-0.125967	-0.285015	0.003839	-0.010353	0.005903
1091	5.453113	0.005000	9.599202	0.534762	1.451880	0.504478	-0.126079	-0.284392	0.003763	-0.012052	0.007564
1092	5.458113	0.005000	9.574560	0.470880	1.476295	0.504478	-0.126191	-0.283769	-0.001274	-0.012091	0.005660
1093	5.463113	0.005000	9.545153	0.441473	1.442047	0.504478	-0.126302	-0.283147	-0.001426	-0.009690	0.005115
1094	5.468113	0.005000	9.613800	0.424197	1.466765	0.504478	-0.126414	-0.282524	0.007322	-0.013368	0.015661
1095	5.473113	0.005000	9.648386	0.475534	1.461189	0.504478	-0.126525	-0.281901	0.002213	-0.017621	0.008715
1096	5.478113	0.005000	9.620549	0.512370	1.569600	0.504478	-0.126637	-0.281278	0.006794	-0.012944	0.004485
1097	5.483113	0.005000	9.731520	0.549360	1.569600	0.504478	-0.126749	-0.280655	0.001890	-0.006549	0.011772
1098	5.488113	0.005000	9.579643	0.481045	1.417723	0.504478	-0.126860	-0.280032	0.006983	-0.008841	0.003148
1099	5.493113	0.005000	9.574560	0.534392	1.368411	0.504478	-0.126549	-0.280590	0.017702	-0.011343	0.006903
1100	5.498113	0.005000	9.716730	0.527176	1.395584	0.504478	-0.126214	-0.281213	0.009707	-0.010279	0.003772
1101	5.503113	0.005000	9.662850	0.598410	1.520550	0.504478	-0.125879	-0.281836	0.012484	-0.004786	0.012851
1102	5.508113	0.005000	9.599641	0.574441	1.412640	0.504478	-0.125545	-0.282459	0.016339	0.002337	0.010235
1103	5.513113	0.005000	9.662449	0.549360	1.466795	0.504478	-0.125210	-0.283082	0.012218	0.003528	0.007944
1104	5.518113	0.005000	9.609171	0.475509	1.451880	0.504478	-0.124875	-0.283705	0.002584	-0.004831	0.013564
1105	5.523113	0.005000	9.573963	0.549957	1.433156	0.504478	-0.124540	-0.284328	0.001711	-0.010385	0.012340
