# FOX Logger (IMU file)
# (c) INRIA 2011-2014
# File created from file sensbiotk output
#
# File format:
# id	t	dt	ax	ay	az	mx	my	mz	gx	gy	gz
#
# Units:
#	Time: s
#	Acceleration: m.s^-2
#	Magneto: gauss
#	Gyrometer: rad/s
#
1	0.002075	0.002075	2.015718	9.706758	-1.862951	-0.789729	-0.679089	0.901914	0.023213	-0.012217	0.003360
2	0.007075	0.005000	2.067331	9.743909	-1.885592	-0.791045	-0.678980	0.903751	0.016693	-0.004195	0.002162
3	0.012075	0.005000	2.118960	9.741640	-1.825280	-0.792362	-0.678870	0.905589	0.012424	-0.015046	0.009667
4	0.017075	0.005000	2.055486	9.731520	-1.851208	-0.793678	-0.678760	0.907426	0.025800	-0.004191	0.009383
5	0.022075	0.005000	2.046252	9.692280	-1.771572	-0.794995	-0.678651	0.909264	0.034515	-0.018835	0.010893
6	0.027075	0.005000	2.079720	9.617167	-1.883520	-0.796311	-0.678541	0.911102	0.020780	-0.014774	0.000102
7	0.032075	0.005000	1.999817	9.613800	-1.962000	-0.797628	-0.678431	0.912939	0.015385	-0.012799	0.003043
8	0.037075	0.005000	2.000257	9.575543	-1.962000	-0.798944	-0.678322	0.914777	0.005045	-0.017843	0.008818
9	0.042075	0.005000	2.034603	9.607923	-1.928637	-0.800261	-0.678212	0.916615	-0.000704	-0.007756	0.000810
10	0.047075	0.005000	1.894079	9.687001	-1.839001	-0.801578	-0.678102	0.918452	0.006260	-0.018252	-0.001373
11	0.052075	0.005000	1.979377	9.667615	-1.930048	-0.802894	-0.677993	0.920290	0.015167	-0.012415	-0.000936
12	0.057075	0.005000	2.040480	9.603669	-1.765800	-0.804211	-0.677883	0.922127	0.023179	-0.014750	0.008108
13	0.062075	0.005000	2.095667	9.715573	-1.883520	-0.805527	-0.677773	0.923965	0.018327	-0.007336	0.001223
14	0.067075	0.005000	2.079720	9.667095	-1.908705	-0.806844	-0.677664	0.925803	0.020228	-0.010662	-0.000570
15	0.072075	0.005000	2.033794	9.662631	-1.805040	-0.806940	-0.677554	0.925694	0.019626	-0.007103	0.006158
16	0.077075	0.005000	1.941171	9.595389	-1.901931	-0.805953	-0.677444	0.923856	0.008315	-0.007636	-0.005952
17	0.082075	0.005000	2.098387	9.634373	-1.805040	-0.804965	-0.677334	0.922019	0.017981	-0.014395	0.001534
18	0.087075	0.005000	2.017714	9.636566	-1.811332	-0.803978	-0.677225	0.920181	0.007994	-0.005603	-0.000580
19	0.092075	0.005000	1.962000	9.560189	-1.794542	-0.802991	-0.677115	0.918343	0.009605	-0.011243	0.002583
20	0.097075	0.005000	2.013366	9.598811	-1.895646	-0.802003	-0.677005	0.916506	0.006270	-0.015822	0.004198
21	0.102075	0.005000	1.972060	9.653040	-1.912700	-0.801016	-0.676895	0.914668	0.006319	-0.003462	0.003663
22	0.107075	0.005000	2.009015	9.645265	-1.946451	-0.800028	-0.676786	0.912831	0.009893	-0.016552	0.004719
23	0.112075	0.005000	2.079720	9.579919	-1.776517	-0.799041	-0.676676	0.910993	0.006065	-0.010288	-0.002157
24	0.117075	0.005000	2.037066	9.617214	-1.890348	-0.798054	-0.676566	0.909156	0.013090	-0.018238	0.008168
25	0.122075	0.005000	2.001240	9.690260	-2.076690	-0.797066	-0.676456	0.907318	0.009782	-0.014965	0.003361
26	0.127075	0.005000	2.001240	9.690412	-1.962000	-0.796079	-0.676347	0.905480	0.012546	-0.014050	0.003313
27	0.132075	0.005000	2.122312	9.728168	-1.926112	-0.795092	-0.676237	0.903643	0.025694	-0.013988	0.000258
28	0.137075	0.005000	2.035185	9.619095	-1.771095	-0.794104	-0.676127	0.901805	0.013588	-0.005571	-0.009321
29	0.142075	0.005000	2.032779	9.755358	-1.812741	-0.793827	-0.676018	0.901440	0.015494	-0.014710	-0.000183
30	0.147075	0.005000	1.981291	9.800355	-1.893824	-0.793608	-0.675908	0.901195	0.011110	-0.010813	-0.011092
31	0.152075	0.005000	2.043541	9.704340	-1.883520	-0.793388	-0.675798	0.900950	0.012833	-0.011585	-0.007961
32	0.157075	0.005000	2.051130	9.692280	-1.833630	-0.793169	-0.675689	0.900705	0.008058	-0.010630	-0.002513
33	0.162075	0.005000	2.073292	9.702258	-1.769351	-0.792949	-0.675579	0.900460	0.014656	-0.009473	-0.005293
34	0.167075	0.005000	2.116903	9.692280	-1.745151	-0.792730	-0.675469	0.900215	0.011239	-0.012915	-0.001659
35	0.172075	0.005000	2.058959	9.676082	-1.765800	-0.792511	-0.675360	0.899970	0.009819	-0.005036	-0.009307
36	0.177075	0.005000	2.220343	9.590897	-1.772365	-0.792291	-0.675250	0.899725	0.012953	-0.018874	-0.001864
37	0.182075	0.005000	2.051468	9.667166	-1.841143	-0.792072	-0.675140	0.899480	0.010414	-0.007703	-0.002697
38	0.187075	0.005000	2.079720	9.692280	-1.867705	-0.791852	-0.675031	0.899235	0.007705	0.004536	-0.007027
39	0.192075	0.005000	2.109192	9.692280	-1.834512	-0.791633	-0.674921	0.898990	0.005953	-0.006831	-0.002320
40	0.197075	0.005000	2.133683	9.731520	-1.868797	-0.791414	-0.674811	0.898745	0.009087	-0.008246	-0.009544
41	0.202075	0.005000	2.035125	9.726165	-1.956645	-0.791194	-0.674702	0.898500	0.010576	-0.015663	-0.000635
42	0.207075	0.005000	2.079720	9.770760	-1.952998	-0.790940	-0.674592	0.898137	0.008688	-0.011847	0.003185
43	0.212075	0.005000	2.158200	9.730923	-1.805040	-0.790611	-0.674482	0.897524	0.011130	-0.011144	0.005630
44	0.217075	0.005000	2.120307	9.692280	-1.842933	-0.790281	-0.674372	0.896912	0.007709	-0.008688	0.002995
45	0.222075	0.005000	1.973164	9.688559	-1.726560	-0.789952	-0.674263	0.896299	0.009284	-0.004967	0.000209
46	0.227075	0.005000	1.989823	9.731520	-1.782925	-0.789623	-0.674153	0.895687	0.012835	-0.014944	0.014114
47	0.232075	0.005000	1.954830	9.801983	-1.797023	-0.789294	-0.674043	0.895074	0.013038	-0.017741	0.001763
48	0.237075	0.005000	2.069665	9.741575	-1.794985	-0.788965	-0.673933	0.894462	0.024331	-0.012906	0.009391
49	0.242075	0.005000	2.077867	9.758298	-1.819355	-0.788636	-0.673824	0.893849	0.014162	-0.008316	0.008871
50	0.247075	0.005000	2.040480	9.681854	-1.844280	-0.788306	-0.673714	0.893237	0.025867	-0.011555	0.002051
51	0.252075	0.005000	2.102141	9.675461	-1.894723	-0.787977	-0.673604	0.892624	0.025840	-0.016238	0.006731
52	0.257075	0.005000	2.040480	9.712757	-1.883520	-0.787648	-0.673494	0.892012	0.014767	-0.005371	0.004950
53	0.262075	0.005000	2.040480	9.653040	-1.844280	-0.787319	-0.673385	0.891399	0.027656	-0.015828	0.000084
54	0.267075	0.005000	1.955003	9.558438	-1.805040	-0.786990	-0.673275	0.890787	0.022151	-0.012540	0.003377
55	0.272075	0.005000	1.989425	9.705993	-1.856095	-0.786661	-0.673165	0.890174	0.023213	-0.012987	0.011138
56	0.277075	0.005000	2.040480	9.629774	-1.777433	-0.787116	-0.673134	0.890351	0.029322	-0.007939	0.008161
57	0.282075	0.005000	1.941469	9.653040	-1.775155	-0.787885	-0.673134	0.890841	0.026528	-0.003859	-0.003598
58	0.287075	0.005000	2.001240	9.634644	-1.908864	-0.788653	-0.673134	0.891331	0.022091	-0.012217	0.006218
59	0.292075	0.005000	1.991231	9.721511	-1.839276	-0.789421	-0.673134	0.891821	0.021829	-0.011086	-0.000032
60	0.297075	0.005000	1.930522	9.692280	-1.846867	-0.790190	-0.673134	0.892312	0.026839	-0.010546	0.001839
61	0.302075	0.005000	2.078419	9.770110	-1.960699	-0.790958	-0.673134	0.892802	0.025663	-0.003435	0.004031
62	0.307075	0.005000	2.113680	9.694040	-1.883520	-0.791726	-0.673134	0.893292	0.019098	-0.003882	0.003062
63	0.312075	0.005000	2.009469	9.696395	-1.962000	-0.792495	-0.673134	0.893783	0.013694	-0.009572	0.011457
64	0.317075	0.005000	2.013458	9.713194	-1.889629	-0.793263	-0.673134	0.894273	0.021223	-0.007905	-0.001046
65	0.322075	0.005000	1.962000	9.692280	-1.844280	-0.794031	-0.673134	0.894763	0.027329	-0.013545	-0.001866
66	0.327075	0.005000	2.066620	9.721052	-1.883520	-0.794800	-0.673134	0.895253	0.021986	-0.011839	-0.003418
67	0.332075	0.005000	2.079720	9.745316	-1.883520	-0.795568	-0.673134	0.895744	0.023948	-0.007136	0.000421
68	0.337075	0.005000	2.079720	9.707100	-1.927981	-0.796336	-0.673134	0.896234	0.025690	-0.005531	0.010198
69	0.342075	0.005000	1.996465	9.670273	-1.939993	-0.796977	-0.673160	0.896681	0.013420	-0.007324	-0.002001
70	0.347075	0.005000	2.020648	9.692704	-1.844280	-0.796648	-0.673379	0.896804	0.018598	-0.007573	0.003710
71	0.352075	0.005000	2.097373	9.692280	-1.930629	-0.796319	-0.673598	0.896926	0.017720	-0.001362	0.003726
72	0.357075	0.005000	2.127714	9.770760	-1.890009	-0.795990	-0.673818	0.897048	0.021323	-0.006223	0.002183
73	0.362075	0.005000	2.053626	9.731520	-1.935709	-0.795661	-0.674037	0.897171	0.012539	-0.014994	0.001234
74	0.367075	0.005000	2.068834	9.692280	-1.844280	-0.795332	-0.674256	0.897293	0.021796	-0.006683	-0.009138
75	0.372075	0.005000	2.010089	9.701129	-1.931609	-0.795003	-0.674475	0.897416	0.032844	-0.009555	0.003122
76	0.377075	0.005000	2.007699	9.653040	-1.935679	-0.794674	-0.674695	0.897538	0.024334	-0.007636	-0.001029
77	0.382075	0.005000	2.009504	9.609668	-1.883520	-0.794345	-0.674914	0.897660	0.022889	-0.010954	-0.004082
78	0.387075	0.005000	2.156485	9.540464	-1.956856	-0.794016	-0.675133	0.897783	0.018705	-0.004604	0.001043
79	0.392075	0.005000	2.157970	9.614030	-1.805270	-0.793687	-0.675353	0.897905	0.021779	-0.010033	-0.001713
80	0.397075	0.005000	2.079720	9.613800	-1.886122	-0.793358	-0.675572	0.898028	0.019107	-0.008411	0.003546
81	0.402075	0.005000	1.971155	9.726942	-1.888098	-0.793029	-0.675791	0.898150	0.022596	-0.002438	-0.000982
82	0.407075	0.005000	2.040480	9.653040	-1.844280	-0.792700	-0.676011	0.898273	0.019002	-0.006187	0.000071
83	0.412075	0.005000	1.982664	9.692280	-1.883520	-0.792315	-0.676064	0.898457	0.011368	-0.003687	-0.000916
84	0.417075	0.005000	2.029135	9.703625	-1.839075	-0.791876	-0.675954	0.898702	0.015766	-0.012459	0.005683
85	0.422075	0.005000	2.052521	9.653040	-1.818639	-0.791437	-0.675844	0.898947	0.009804	-0.018322	0.001856
86	0.427075	0.005000	2.016942	9.668742	-1.985538	-0.790999	-0.675735	0.899192	0.013462	-0.006686	0.001509
87	0.432075	0.005000	2.040480	9.631912	-1.962000	-0.790560	-0.675625	0.899437	0.019783	-0.013332	0.007000
88	0.437075	0.005000	2.177384	9.671351	-1.943689	-0.790121	-0.675515	0.899682	0.018126	-0.003128	0.007867
89	0.442075	0.005000	2.096500	9.753980	-1.962000	-0.789682	-0.675406	0.899927	0.030081	-0.014866	0.007894
90	0.447075	0.005000	1.976658	9.770760	-1.986582	-0.789243	-0.675296	0.900172	0.020207	-0.007887	0.000338
91	0.452075	0.005000	2.013667	9.758333	-1.937146	-0.788805	-0.675186	0.900417	0.017715	-0.007091	0.003120
92	0.457075	0.005000	2.109759	9.653040	-1.942786	-0.788366	-0.675077	0.900662	0.018912	-0.007360	-0.000100
93	0.462075	0.005000	2.110988	9.629744	-2.032508	-0.787927	-0.674967	0.900908	0.008270	0.002227	0.003351
94	0.467075	0.005000	2.034817	9.720195	-1.989915	-0.787488	-0.674857	0.901153	0.008474	-0.016325	-0.000611
95	0.472075	0.005000	1.930112	9.692280	-1.954648	-0.787049	-0.674748	0.901398	0.007139	-0.011619	-0.008381
96	0.477075	0.005000	2.117659	9.616403	-1.882219	-0.786610	-0.674638	0.901643	0.009883	-0.010328	0.002580
97	0.482075	0.005000	2.079720	9.615978	-1.767978	-0.786765	-0.674528	0.901667	0.014706	-0.011000	-0.004863
98	0.487075	0.005000	2.194393	9.686187	-1.880473	-0.786984	-0.674418	0.901667	0.010117	-0.009292	-0.003429
99	0.492075	0.005000	2.079720	9.759833	-1.883520	-0.787204	-0.674309	0.901667	0.014452	-0.017458	0.005176
100	0.497075	0.005000	2.094534	9.731520	-1.844280	-0.787423	-0.674199	0.901667	0.009736	-0.004505	-0.002158
101	0.502075	0.005000	2.138588	9.711908	-1.834466	-0.787642	-0.674089	0.901667	0.011666	-0.006153	0.002054
102	0.507075	0.005000	2.134027	9.677213	-1.765800	-0.787862	-0.673979	0.901667	0.017209	-0.010642	0.003348
103	0.512075	0.005000	2.183278	9.678118	-1.922760	-0.788081	-0.673870	0.901667	0.014979	-0.008617	0.004100
104	0.517075	0.005000	2.158200	9.692280	-1.922760	-0.788301	-0.673760	0.901667	0.001544	-0.016513	0.001915
105	0.522075	0.005000	2.121164	9.750038	-1.881316	-0.788520	-0.673650	0.901667	0.004633	-0.017119	-0.005141
106	0.527075	0.005000	2.158200	9.728902	-1.844280	-0.788739	-0.673540	0.901667	0.008458	-0.016944	0.007474
107	0.532075	0.005000	2.174567	9.636673	-1.877013	-0.788959	-0.673431	0.901667	-0.000378	-0.005910	0.001007
108	0.537075	0.005000	2.211397	9.680955	-1.866930	-0.789178	-0.673321	0.901667	0.000776	-0.012162	0.002923
109	0.542075	0.005000	2.173690	9.747010	-1.844280	-0.789398	-0.673211	0.901667	0.016465	-0.003693	-0.003927
110	0.547075	0.005000	2.070121	9.761161	-1.864321	-0.789617	-0.673329	0.901885	0.013351	-0.006761	-0.009624
111	0.552075	0.005000	2.055607	9.637913	-1.907633	-0.789836	-0.673987	0.902620	0.012217	-0.015786	-0.003784
112	0.557075	0.005000	2.045729	9.697529	-1.901763	-0.790056	-0.674646	0.903355	0.013925	-0.011500	-0.006116
113	0.562075	0.005000	2.004507	9.728253	-1.729827	-0.790275	-0.675304	0.904090	0.011017	-0.020180	-0.005356
114	0.567075	0.005000	2.038704	9.728856	-1.766688	-0.790495	-0.675962	0.904825	0.009304	-0.005704	0.001780
115	0.572075	0.005000	2.037485	9.613800	-1.842782	-0.790714	-0.676621	0.905560	0.011796	-0.011445	0.004282
116	0.577075	0.005000	2.001240	9.799620	-1.919300	-0.790933	-0.677279	0.906295	0.006236	-0.011028	-0.001410
117	0.582075	0.005000	2.056536	9.698076	-1.895112	-0.791153	-0.677937	0.907030	0.004159	-0.005693	-0.007109
118	0.587075	0.005000	2.079720	9.700088	-1.812848	-0.791372	-0.678595	0.907765	0.011869	-0.013267	0.002733
119	0.592075	0.005000	1.982446	9.702503	-1.844280	-0.791592	-0.679254	0.908500	0.001558	-0.008710	-0.002336
120	0.597075	0.005000	1.922760	9.707186	-1.844280	-0.791811	-0.679912	0.909235	0.006666	-0.019414	-0.005553
121	0.602075	0.005000	1.922760	9.716945	-1.844280	-0.792031	-0.680570	0.909970	0.016230	-0.006644	0.004581
122	0.607075	0.005000	1.945209	9.703414	-1.760142	-0.792250	-0.681229	0.910705	0.009902	-0.014727	-0.007651
123	0.612075	0.005000	1.962000	9.654417	-1.845657	-0.792469	-0.681887	0.911440	0.014692	-0.013729	0.005159
124	0.617075	0.005000	1.940913	9.807065	-1.847215	-0.792385	-0.681104	0.911159	0.000658	-0.010324	-0.013221
125	0.622075	0.005000	1.946047	9.699614	-1.946047	-0.792166	-0.679677	0.910424	0.009971	-0.013370	-0.002700
126	0.627075	0.005000	1.909216	9.719368	-1.856432	-0.791946	-0.678251	0.909689	0.012733	-0.008334	0.001833
127	0.632075	0.005000	1.984933	9.697121	-1.805040	-0.791727	-0.676825	0.908954	0.008816	-0.007299	-0.001548
128	0.637075	0.005000	2.012922	9.622986	-1.853466	-0.791508	-0.675399	0.908219	0.014708	-0.014136	0.000733
129	0.642075	0.005000	1.915980	9.692280	-1.844280	-0.791288	-0.673973	0.907483	0.014342	-0.007702	0.005417
130	0.647075	0.005000	1.966836	9.721848	-1.957164	-0.791069	-0.672547	0.906748	0.007598	-0.007185	0.010027
131	0.652075	0.005000	1.998821	9.653040	-1.881101	-0.790849	-0.671120	0.906013	-0.001022	-0.004349	0.003324
132	0.657075	0.005000	2.039990	9.692280	-1.881071	-0.790630	-0.669694	0.905278	0.017278	-0.018490	0.003501
133	0.662075	0.005000	2.075908	9.729614	-1.724654	-0.790411	-0.668268	0.904543	0.020271	-0.014678	0.001570
134	0.667075	0.005000	2.005521	9.653040	-1.691601	-0.790191	-0.666842	0.903808	0.030609	-0.007548	-0.003224
135	0.672075	0.005000	2.073443	9.646763	-1.819171	-0.789972	-0.665416	0.903073	0.025142	-0.005318	0.009609
136	0.677075	0.005000	2.118960	9.565968	-1.914168	-0.789752	-0.663989	0.902338	0.027240	-0.003687	0.004835
137	0.682075	0.005000	2.040480	9.692280	-1.894156	-0.789571	-0.662763	0.901688	0.036787	-0.010843	0.009217
138	0.687075	0.005000	2.079720	9.692280	-1.831392	-0.789790	-0.663641	0.901933	0.026347	-0.008467	-0.000983
139	0.692075	0.005000	2.109697	9.677291	-1.868531	-0.790010	-0.664518	0.902178	0.024979	-0.002275	0.003687
140	0.697075	0.005000	2.097121	9.731520	-1.979401	-0.790229	-0.665396	0.902423	0.016353	-0.002228	0.005308
141	0.702075	0.005000	2.001240	9.711074	-1.884071	-0.790449	-0.666274	0.902668	0.016151	-0.008796	-0.000998
142	0.707075	0.005000	2.053693	9.609528	-1.962000	-0.790668	-0.667151	0.902913	0.023480	-0.012189	-0.001979
143	0.712075	0.005000	2.095074	9.637686	-1.844280	-0.790888	-0.668029	0.903158	0.017948	-0.001201	0.002299
144	0.717075	0.005000	2.119113	9.666171	-1.857411	-0.791107	-0.668907	0.903403	0.019120	-0.007178	0.007208
145	0.722075	0.005000	2.186382	9.748644	-1.861404	-0.791326	-0.669784	0.903648	0.015002	-0.003115	0.007913
146	0.727075	0.005000	2.184554	9.692280	-1.913975	-0.791546	-0.670662	0.903893	0.017715	-0.012985	0.000619
147	0.732075	0.005000	2.197440	9.685911	-1.889889	-0.791765	-0.671540	0.904138	0.018888	-0.009505	0.000549
148	0.737075	0.005000	2.118960	9.696652	-1.839908	-0.791985	-0.672417	0.904383	0.016397	-0.007885	-0.007257
149	0.742075	0.005000	2.160220	9.690260	-1.918720	-0.792204	-0.673295	0.904628	0.029364	-0.010863	0.001707
150	0.747075	0.005000	2.080900	9.575347	-1.960820	-0.792423	-0.674173	0.904873	0.018440	-0.011305	0.001296
151	0.752075	0.005000	2.118960	9.729178	-1.925102	-0.793172	-0.674997	0.905177	0.019593	-0.008441	-0.000181
152	0.757075	0.005000	2.005929	9.618489	-1.819108	-0.794488	-0.675765	0.905545	0.029567	-0.015370	-0.004796
153	0.762075	0.005000	2.086411	9.718139	-1.902688	-0.795805	-0.676533	0.905912	0.018186	-0.007953	-0.004005
154	0.767075	0.005000	2.040480	9.622906	-1.922760	-0.797121	-0.677301	0.906280	0.008710	-0.006697	0.006063
155	0.772075	0.005000	2.079720	9.653040	-1.911384	-0.798438	-0.678069	0.906647	0.009018	-0.011416	-0.000344
156	0.777075	0.005000	2.066262	9.653040	-1.883520	-0.799754	-0.678837	0.907015	0.017328	-0.016192	-0.001071
157	0.782075	0.005000	2.079720	9.653040	-1.922760	-0.801071	-0.679605	0.907382	0.010414	-0.010127	0.004861
158	0.787075	0.005000	1.962000	9.735132	-1.879908	-0.802387	-0.680373	0.907750	0.011019	-0.008260	-0.000169
159	0.792075	0.005000	2.039754	9.731520	-1.844280	-0.803704	-0.681141	0.908117	0.003115	-0.013668	0.001298
160	0.797075	0.005000	2.040480	9.753680	-1.873358	-0.805021	-0.681909	0.908485	0.001935	-0.011432	0.000160
161	0.802075	0.005000	1.976667	9.657801	-1.962000	-0.806337	-0.682677	0.908852	0.009730	-0.012719	0.005127
162	0.807075	0.005000	2.118960	9.692280	-1.818834	-0.807654	-0.683445	0.909220	0.014299	-0.010478	0.007499
163	0.812075	0.005000	2.158200	9.741835	-1.815355	-0.808970	-0.684213	0.909587	0.013716	-0.012374	0.006698
164	0.817075	0.005000	2.063171	9.723245	-1.906211	-0.810287	-0.684981	0.909955	0.005192	-0.013487	0.013266
165	0.822075	0.005000	2.085676	9.719609	-1.816951	-0.809197	-0.684690	0.909248	-0.000664	-0.006046	0.001232
166	0.827075	0.005000	2.040480	9.727557	-1.954073	-0.807770	-0.684251	0.908390	0.003154	-0.010262	0.006814
167	0.832075	0.005000	1.999633	9.689066	-1.883520	-0.806344	-0.683812	0.907532	0.003731	-0.004542	-0.001500
168	0.837075	0.005000	2.038877	9.613800	-1.845082	-0.804918	-0.683373	0.906675	0.013943	-0.010769	-0.001000
169	0.842075	0.005000	2.074210	9.723256	-1.925515	-0.803492	-0.682934	0.905817	0.001524	-0.008291	0.002749
170	0.847075	0.005000	2.084818	9.697378	-1.859574	-0.802066	-0.682495	0.904960	0.002887	-0.006783	-0.007618
171	0.852075	0.005000	2.033376	9.724416	-1.876416	-0.800640	-0.682057	0.904102	0.002397	-0.014319	0.001073
172	0.857075	0.005000	2.148791	9.653040	-1.883520	-0.799213	-0.681618	0.903245	0.003678	-0.005031	-0.002214
173	0.862075	0.005000	2.047048	9.692280	-1.844280	-0.797787	-0.681179	0.902387	0.003271	-0.010573	0.006236
174	0.867075	0.005000	2.054185	9.627505	-1.805040	-0.796361	-0.680740	0.901529	-0.002934	-0.007638	0.005118
175	0.872075	0.005000	2.063911	9.692280	-1.922760	-0.794935	-0.680301	0.900672	0.004033	-0.010623	0.000076
176	0.877075	0.005000	2.121762	9.710499	-1.922760	-0.793509	-0.679862	0.899814	0.013897	-0.014449	-0.004747
177	0.882075	0.005000	2.080807	9.731520	-1.883520	-0.792082	-0.679423	0.898957	0.010700	-0.009812	-0.011101
178	0.887075	0.005000	2.113053	9.653040	-1.906094	-0.790955	-0.679014	0.898333	0.014037	-0.010639	0.002284
179	0.892075	0.005000	2.182888	9.584695	-1.893655	-0.790626	-0.678685	0.898333	0.009886	-0.004469	-0.012039
180	0.897075	0.005000	2.079720	9.665349	-1.858901	-0.790297	-0.678356	0.898333	0.015616	-0.007429	-0.004857
181	0.902075	0.005000	2.019998	9.673522	-1.883520	-0.789968	-0.678027	0.898333	0.001913	-0.007365	0.005511
182	0.907075	0.005000	2.095636	9.660998	-1.844280	-0.789639	-0.677698	0.898333	0.008267	-0.011674	-0.013348
183	0.912075	0.005000	2.163742	9.664125	-1.855365	-0.789310	-0.677369	0.898333	0.010218	-0.015988	-0.004621
184	0.917075	0.005000	2.222288	9.699476	-1.844280	-0.788980	-0.677040	0.898333	0.013536	-0.010256	-0.011341
185	0.922075	0.005000	2.080914	9.691086	-1.922760	-0.788651	-0.676711	0.898333	0.013780	-0.011517	-0.010016
186	0.927075	0.005000	2.080470	9.653040	-1.884270	-0.788322	-0.676382	0.898333	0.016092	-0.012229	-0.010650
187	0.932075	0.005000	2.194286	9.725212	-1.877212	-0.787993	-0.676053	0.898333	0.010906	-0.003793	-0.011872
188	0.937075	0.005000	2.050677	9.760563	-1.883520	-0.787664	-0.675723	0.898333	0.013394	-0.007728	-0.008459
189	0.942075	0.005000	2.096417	9.699794	-1.836766	-0.787335	-0.675394	0.898333	0.017265	-0.006652	-0.020056
190	0.947075	0.005000	2.089178	9.770760	-1.805040	-0.787005	-0.675065	0.898333	0.023646	0.004385	-0.022415
191	0.952075	0.005000	2.091585	9.719655	-1.832415	-0.786676	-0.674736	0.898333	0.008278	0.012882	-0.020408
192	0.957075	0.005000	2.079720	9.706394	-1.790926	-0.786640	-0.674554	0.898169	0.014983	0.019590	-0.032388
193	0.962075	0.005000	2.040480	9.777555	-1.765800	-0.786750	-0.674444	0.897924	0.003736	0.016499	-0.021459
194	0.967075	0.005000	2.160175	9.690305	-1.786408	-0.786860	-0.674334	0.897679	0.007590	0.025285	-0.027954
195	0.972075	0.005000	2.042840	9.770760	-1.823480	-0.786970	-0.674224	0.897434	0.004102	0.031042	-0.015726
196	0.977075	0.005000	1.968734	9.793747	-1.765800	-0.787079	-0.674115	0.897189	-0.002792	0.041887	-0.013264
197	0.982075	0.005000	1.908920	9.694561	-1.715001	-0.787189	-0.674005	0.896944	-0.007700	0.041684	-0.015577
198	0.987075	0.005000	1.946268	9.770760	-1.695095	-0.787299	-0.673895	0.896699	-0.010041	0.047653	-0.009607
199	0.992075	0.005000	1.921474	9.770760	-1.765800	-0.787408	-0.673786	0.896454	-0.019131	0.043399	-0.013846
200	0.997075	0.005000	1.836822	9.778218	-1.765800	-0.787518	-0.673676	0.896209	-0.018895	0.040622	0.007985
201	1.002075	0.005000	1.873262	9.799742	-1.789653	-0.787628	-0.673566	0.895964	-0.012207	0.041574	-0.004346
202	1.007075	0.005000	1.732010	9.692280	-1.807765	-0.787738	-0.673456	0.895719	-0.004429	0.033134	0.008595
203	1.012075	0.005000	1.765019	9.615362	-1.842718	-0.787847	-0.673347	0.895474	0.000307	0.035653	0.006886
204	1.017075	0.005000	1.726560	9.767553	-1.728163	-0.787957	-0.673237	0.895230	-0.000272	0.034543	0.002823
205	1.022075	0.005000	1.906786	9.649046	-1.883520	-0.788067	-0.673120	0.895054	0.003087	0.030279	0.013454
206	1.027075	0.005000	1.844280	9.653040	-1.822992	-0.788177	-0.672901	0.895911	-0.002448	0.033130	0.012601
207	1.032075	0.005000	1.844280	9.653040	-1.883520	-0.788286	-0.672682	0.896769	0.015923	0.022442	0.014575
208	1.037075	0.005000	1.837079	9.642360	-1.837079	-0.788396	-0.672462	0.897626	0.022502	0.033671	0.009360
209	1.042075	0.005000	1.936503	9.718772	-1.792292	-0.788505	-0.672243	0.898483	0.031898	0.020316	0.017776
210	1.047075	0.005000	2.001240	9.716363	-1.907603	-0.788615	-0.672024	0.899340	0.041783	0.018450	0.013019
211	1.052075	0.005000	1.896378	9.696788	-1.848788	-0.788725	-0.671804	0.900197	0.042629	0.010194	0.004696
212	1.057075	0.005000	1.765586	9.731734	-1.962000	-0.788834	-0.671585	0.901054	0.047506	0.009336	0.013744
213	1.062075	0.005000	1.900836	9.696888	-1.844280	-0.788944	-0.671366	0.901912	0.049447	0.014294	0.008868
214	1.067075	0.005000	1.837406	9.676909	-1.851154	-0.789053	-0.671146	0.902769	0.053166	0.004602	0.019199
215	1.072075	0.005000	1.739171	9.600485	-2.027517	-0.789163	-0.670927	0.903626	0.058303	0.002579	0.006821
216	1.077075	0.005000	1.883520	9.567995	-2.023023	-0.789273	-0.670708	0.904483	0.070659	-0.003172	0.002631
217	1.082075	0.005000	1.931376	9.692280	-2.027089	-0.789382	-0.670488	0.905340	0.063298	-0.003409	0.013061
218	1.087075	0.005000	2.007441	9.776961	-2.042516	-0.789492	-0.670269	0.906198	0.066402	0.006434	0.002607
219	1.092075	0.005000	1.992829	9.840829	-1.922760	-0.789651	-0.670298	0.906778	0.083926	0.002610	0.008552
220	1.097075	0.005000	2.077868	9.735224	-1.960148	-0.789871	-0.670627	0.907023	0.072851	-0.000427	-0.004324
221	1.102075	0.005000	2.040480	9.732639	-1.922760	-0.790090	-0.670956	0.907268	0.078775	-0.012312	0.001664
222	1.107075	0.005000	2.077210	9.770760	-2.037970	-0.790309	-0.671285	0.907513	0.065300	-0.012217	0.005437
223	1.112075	0.005000	2.050309	9.707024	-2.089549	-0.790529	-0.671615	0.907758	0.065625	-0.012278	0.009492
224	1.117075	0.005000	2.072861	9.613800	-2.093438	-0.790748	-0.671944	0.908003	0.067001	-0.012774	0.001826
225	1.122075	0.005000	2.049754	9.595251	-2.128234	-0.790968	-0.672273	0.908248	0.055042	-0.013639	-0.006544
226	1.127075	0.005000	2.028798	9.574560	-2.024603	-0.791187	-0.672602	0.908493	0.052983	-0.017591	0.006986
227	1.132075	0.005000	2.079720	9.627732	-2.065788	-0.791407	-0.672931	0.908738	0.053340	-0.010718	0.005775
228	1.137075	0.005000	2.056519	9.551359	-2.095759	-0.791626	-0.673260	0.908983	0.063282	-0.016807	0.005117
229	1.142075	0.005000	2.019689	9.551426	-2.139751	-0.791845	-0.673589	0.909228	0.039980	-0.019910	0.005487
230	1.147075	0.005000	2.098342	9.595178	-2.063095	-0.792065	-0.673919	0.909473	0.053979	-0.016378	-0.003054
231	1.152075	0.005000	2.158200	9.613800	-2.024037	-0.792284	-0.674248	0.909718	0.057444	-0.025373	0.002961
232	1.157075	0.005000	2.172234	9.549354	-2.065686	-0.792504	-0.674577	0.909963	0.058832	-0.029157	0.003733
233	1.162075	0.005000	2.236680	9.574560	-2.043449	-0.792165	-0.674627	0.909377	0.053168	-0.026669	-0.006691
234	1.167075	0.005000	2.286132	9.554672	-1.932436	-0.791726	-0.674627	0.908642	0.046417	-0.027112	-0.005188
235	1.172075	0.005000	2.205079	9.574560	-2.064442	-0.791287	-0.674627	0.907907	0.034670	-0.025969	-0.007011
236	1.177075	0.005000	2.291898	9.535320	-1.995914	-0.790849	-0.674627	0.907172	0.028299	-0.025003	0.000328
237	1.182075	0.005000	2.360218	9.577469	-2.118960	-0.790410	-0.674627	0.906437	0.013719	-0.025558	-0.001156
238	1.187075	0.005000	2.430974	9.534367	-2.152482	-0.789971	-0.674627	0.905702	0.013708	-0.031503	0.003495
239	1.192075	0.005000	2.240997	9.496080	-1.847158	-0.789532	-0.674627	0.904967	-0.004237	-0.027187	-0.009649
240	1.197075	0.005000	2.354400	9.456840	-1.918948	-0.789093	-0.674627	0.904232	0.001094	-0.032904	-0.016461
241	1.202075	0.005000	2.366001	9.474241	-1.922760	-0.788655	-0.674627	0.903497	0.006606	-0.029081	-0.007058
242	1.207075	0.005000	2.377227	9.465046	-1.898141	-0.788216	-0.674627	0.902762	0.008299	-0.025666	-0.009753
243	1.212075	0.005000	2.364898	9.524822	-1.844280	-0.787777	-0.674627	0.902027	0.012509	-0.028025	0.000244
244	1.217075	0.005000	2.327725	9.508645	-1.806586	-0.787338	-0.674627	0.901292	-0.001030	-0.024626	-0.010248
245	1.222075	0.005000	2.300366	9.486429	-1.829486	-0.786899	-0.674627	0.900557	0.010513	-0.033181	0.000356
246	1.227075	0.005000	2.309742	9.579978	-1.972835	-0.786540	-0.674627	0.899970	-0.008759	-0.030775	-0.004971
247	1.232075	0.005000	2.256599	9.614397	-1.962000	-0.786431	-0.674627	0.899848	-0.012110	-0.023213	-0.009659
248	1.237075	0.005000	2.297401	9.596041	-1.940519	-0.786321	-0.674627	0.899725	-0.016532	-0.029914	-0.003663
249	1.242075	0.005000	2.323271	9.550884	-2.008693	-0.786212	-0.674627	0.899603	-0.021456	-0.019214	-0.003696
250	1.247075	0.005000	2.275920	9.627263	-1.960850	-0.786102	-0.674627	0.899480	-0.024109	-0.025478	-0.000705
251	1.252075	0.005000	2.320779	9.737139	-1.855487	-0.785992	-0.674627	0.899358	-0.033386	-0.017370	-0.003658
252	1.257075	0.005000	2.162240	9.583360	-1.883520	-0.785883	-0.674627	0.899235	-0.025836	-0.021434	0.006343
253	1.262075	0.005000	2.093433	9.763904	-1.864849	-0.785773	-0.674627	0.899113	-0.034809	-0.022963	0.006750
254	1.267075	0.005000	2.236680	9.696720	-1.887960	-0.785663	-0.674627	0.898990	-0.031765	-0.015349	-0.004042
255	1.272075	0.005000	2.077254	9.621197	-1.962000	-0.785554	-0.674627	0.898868	-0.034119	-0.023896	0.002976
256	1.277075	0.005000	2.079904	9.692464	-1.883428	-0.785444	-0.674627	0.898746	-0.040526	-0.015997	0.003105
257	1.282075	0.005000	2.010437	9.696879	-1.770399	-0.785335	-0.674627	0.898623	-0.045204	-0.027943	0.008283
258	1.287075	0.005000	1.896330	9.766490	-1.905680	-0.785225	-0.674627	0.898501	-0.043982	-0.027655	0.011520
259	1.292075	0.005000	1.850875	9.731520	-1.837685	-0.785115	-0.674627	0.898378	-0.033610	-0.024560	0.010274
260	1.297075	0.005000	1.979233	9.753527	-1.944767	-0.785352	-0.674419	0.898256	-0.041805	-0.025711	0.006955
261	1.302075	0.005000	1.900713	9.748713	-1.866327	-0.785791	-0.674090	0.898133	-0.032909	-0.021153	0.009811
262	1.307075	0.005000	1.818345	9.770760	-1.870552	-0.786230	-0.673761	0.898011	-0.035329	-0.025065	0.012400
263	1.312075	0.005000	1.868139	9.707661	-1.883520	-0.786669	-0.673432	0.897888	-0.026556	-0.013463	0.005960
264	1.317075	0.005000	1.926844	9.731520	-1.861858	-0.787108	-0.673102	0.897766	-0.021019	-0.027270	0.010283
265	1.322075	0.005000	1.844510	9.692280	-1.805270	-0.787546	-0.672773	0.897643	-0.021875	-0.027561	0.002845
266	1.327075	0.005000	1.817853	9.770760	-1.787689	-0.787985	-0.672444	0.897521	-0.013558	-0.024717	-0.003102
267	1.332075	0.005000	1.883520	9.785911	-1.756862	-0.788424	-0.672115	0.897398	-0.000582	-0.027550	0.001788
268	1.337075	0.005000	1.818170	9.783815	-1.778855	-0.788863	-0.671786	0.897276	-0.010102	-0.025606	-0.003874
269	1.342075	0.005000	1.883520	9.810000	-1.883520	-0.789302	-0.671457	0.897153	-0.001404	-0.024558	0.001262
270	1.347075	0.005000	1.835893	9.700667	-1.889213	-0.789741	-0.671127	0.897031	0.001042	-0.026174	0.002225
271	1.352075	0.005000	1.844280	9.665926	-1.726560	-0.790179	-0.670798	0.896909	0.001381	-0.025218	0.000159
272	1.357075	0.005000	1.813093	9.700333	-1.652107	-0.790618	-0.670469	0.896786	0.002936	-0.029482	0.001394
273	1.362075	0.005000	1.963642	9.733162	-1.764158	-0.791045	-0.670152	0.896667	0.003072	-0.022626	-0.004921
274	1.367075	0.005000	1.962318	9.770760	-1.765482	-0.791045	-0.670262	0.896667	0.006153	-0.022695	-0.006196
275	1.372075	0.005000	1.809570	9.696810	-1.728825	-0.791045	-0.670371	0.896667	0.009735	-0.019816	-0.002866
276	1.377075	0.005000	1.952661	9.731520	-1.770470	-0.791045	-0.670481	0.896667	0.007512	-0.030014	0.005653
277	1.382075	0.005000	1.994626	9.770760	-1.798426	-0.791045	-0.670591	0.896667	0.021862	-0.018169	0.003748
278	1.387075	0.005000	1.971029	9.800971	-1.853309	-0.791045	-0.670701	0.896667	0.016702	-0.010000	0.006843
279	1.392075	0.005000	1.989940	9.787400	-1.777100	-0.791045	-0.670810	0.896667	0.020041	-0.017576	0.013288
280	1.397075	0.005000	1.974478	9.758282	-1.778278	-0.791045	-0.670920	0.896667	0.015169	-0.013587	0.005627
281	1.402075	0.005000	2.024869	9.700297	-1.805040	-0.791045	-0.671030	0.896667	0.032592	-0.016812	0.002156
282	1.407075	0.005000	2.001240	9.635302	-1.883520	-0.791045	-0.671140	0.896667	0.023886	-0.011248	0.000433
283	1.412075	0.005000	2.080295	9.652465	-1.824947	-0.791045	-0.671249	0.896667	0.025724	-0.011849	0.008130
284	1.417075	0.005000	2.101813	9.787907	-1.883520	-0.791045	-0.671359	0.896667	0.029293	-0.013277	0.014095
285	1.422075	0.005000	2.158200	9.795262	-1.873756	-0.791045	-0.671469	0.896667	0.025821	-0.007783	0.002336
286	1.427075	0.005000	2.223881	9.769918	-1.883520	-0.791045	-0.671579	0.896667	0.033489	-0.009082	0.008939
287	1.432075	0.005000	2.197440	9.661105	-1.922760	-0.790952	-0.671781	0.896926	0.031727	-0.006282	0.005577
288	1.437075	0.005000	2.141500	9.566210	-1.883520	-0.790733	-0.672110	0.897538	0.029664	-0.012632	0.002500
289	1.442075	0.005000	2.131024	9.619832	-1.850312	-0.790513	-0.672439	0.898151	0.031074	-0.009825	0.003356
290	1.447075	0.005000	2.236680	9.653040	-1.953922	-0.790294	-0.672768	0.898763	0.028156	-0.005628	-0.005979
291	1.452075	0.005000	2.234997	9.731520	-1.883520	-0.790075	-0.673097	0.899376	0.036525	-0.007403	0.001815
292	1.457075	0.005000	2.197440	9.654492	-1.883520	-0.789855	-0.673426	0.899988	0.027601	-0.001681	-0.005598
293	1.462075	0.005000	2.118960	9.686924	-1.760444	-0.789636	-0.673756	0.900601	0.037337	-0.004031	0.007045
294	1.467075	0.005000	2.192357	9.574560	-1.888603	-0.789416	-0.674085	0.901213	0.029793	-0.003110	0.000824
295	1.472075	0.005000	2.222625	9.646013	-1.844280	-0.789197	-0.674414	0.901826	0.027809	-0.012963	-0.004249
296	1.477075	0.005000	2.197440	9.682837	-1.922760	-0.788978	-0.674743	0.902438	0.022048	-0.009151	0.004711
297	1.482075	0.005000	2.154085	9.759052	-2.068012	-0.788758	-0.675072	0.903051	0.026583	0.000006	0.002883
298	1.487075	0.005000	2.146549	9.678486	-2.028829	-0.788539	-0.675401	0.903663	0.027101	-0.004471	-0.000668
299	1.492075	0.005000	2.079720	9.685454	-2.001240	-0.788319	-0.675730	0.904276	0.016663	-0.004773	0.005271
300	1.497075	0.005000	2.158200	9.713125	-1.920309	-0.788100	-0.676059	0.904888	0.016646	-0.017618	0.006261
301	1.502075	0.005000	2.176886	9.733387	-1.939579	-0.789137	-0.676657	0.906403	0.023321	-0.012959	0.002888
302	1.507075	0.005000	2.085862	9.692280	-2.011648	-0.790453	-0.677316	0.908118	0.013324	-0.019663	0.002464
303	1.512075	0.005000	2.051059	9.638710	-1.986910	-0.791769	-0.677974	0.909833	0.026587	-0.019927	-0.001712
304	1.517075	0.005000	2.040480	9.613800	-1.976764	-0.793086	-0.678632	0.911548	0.014498	-0.006104	-0.000267
305	1.522075	0.005000	2.030502	9.731520	-1.952695	-0.794402	-0.679291	0.913263	0.016703	-0.016912	0.004674
306	1.527075	0.005000	1.969563	9.598674	-2.032917	-0.795719	-0.679949	0.914978	0.011671	-0.014314	0.005056
307	1.532075	0.005000	2.034928	9.512735	-1.990137	-0.797035	-0.680607	0.916693	0.015588	-0.020091	0.002126
308	1.537075	0.005000	2.030838	9.607372	-2.001240	-0.798352	-0.681265	0.918408	0.011816	-0.025541	0.006319
309	1.542075	0.005000	1.962000	9.655551	-1.962000	-0.799668	-0.681924	0.920123	0.016689	-0.019352	0.007263
310	1.547075	0.005000	2.000092	9.731520	-1.962000	-0.800985	-0.682582	0.921838	0.024081	-0.027245	0.009678
311	1.552075	0.005000	2.036970	9.802981	-1.997730	-0.802301	-0.683240	0.923553	0.014852	-0.018563	0.002295
312	1.557075	0.005000	2.001240	9.770760	-1.889016	-0.803618	-0.683899	0.925268	0.016249	-0.019762	0.003788
313	1.562075	0.005000	2.001240	9.770760	-1.930672	-0.804934	-0.684557	0.926983	0.017306	-0.024129	0.007874
314	1.567075	0.005000	2.079720	9.682608	-1.863992	-0.805760	-0.684935	0.927994	0.006258	-0.022029	-0.007542
315	1.572075	0.005000	2.077256	9.665299	-1.937483	-0.804773	-0.684277	0.926402	0.018002	-0.024604	0.008383
316	1.577075	0.005000	2.001240	9.706482	-1.936962	-0.803786	-0.683619	0.924810	0.003594	-0.023360	-0.001369
317	1.582075	0.005000	1.945388	9.675668	-1.945388	-0.802799	-0.682961	0.923218	0.017259	-0.027585	0.000100
318	1.587075	0.005000	2.079720	9.670209	-1.922760	-0.801812	-0.682303	0.921627	0.005632	-0.020699	0.005084
319	1.592075	0.005000	2.003934	9.650346	-1.844280	-0.800825	-0.681645	0.920035	0.017988	-0.018703	0.004999
320	1.597075	0.005000	1.971182	9.629941	-1.899661	-0.799838	-0.680987	0.918443	0.013757	-0.013495	0.002662
321	1.602075	0.005000	2.118960	9.650529	-1.883520	-0.798851	-0.680329	0.916851	0.010494	-0.008094	-0.008443
322	1.607075	0.005000	2.135182	9.708502	-1.872011	-0.797864	-0.679671	0.915259	0.011747	-0.012432	0.002013
323	1.612075	0.005000	2.148635	9.653040	-1.825150	-0.796877	-0.679013	0.913668	0.012480	-0.008759	-0.004666
324	1.617075	0.005000	2.015540	9.699430	-1.851430	-0.795890	-0.678355	0.912076	0.020289	-0.012593	-0.006756
325	1.622075	0.005000	2.079720	9.658183	-1.883520	-0.794903	-0.677697	0.910484	0.023341	-0.004815	-0.000319
326	1.627075	0.005000	2.079720	9.692280	-1.964801	-0.793917	-0.677039	0.908892	0.021499	-0.002653	-0.005687
327	1.632075	0.005000	2.040480	9.653040	-1.883137	-0.792930	-0.676381	0.907300	0.030728	-0.002780	-0.006050
328	1.637075	0.005000	2.002801	9.615361	-1.881959	-0.792999	-0.676185	0.906372	0.023265	-0.004218	0.004915
329	1.642075	0.005000	1.926678	9.696198	-2.036562	-0.793767	-0.676295	0.905882	0.029754	-0.008331	-0.000389
330	1.647075	0.005000	2.022758	9.680465	-1.922760	-0.794535	-0.676405	0.905392	0.017603	-0.000455	0.000630
331	1.652075	0.005000	1.978428	9.778974	-2.001240	-0.795303	-0.676514	0.904902	0.017250	-0.004614	-0.005615
332	1.657075	0.005000	2.019964	9.781018	-1.933018	-0.796071	-0.676624	0.904412	0.012479	-0.005100	0.000424
333	1.662075	0.005000	2.038816	9.758235	-1.896045	-0.796839	-0.676734	0.903922	0.013134	0.006336	-0.004643
334	1.667075	0.005000	2.069711	9.682271	-1.873511	-0.797607	-0.676844	0.903432	0.022551	0.006648	-0.005450
335	1.672075	0.005000	1.917163	9.653040	-1.855504	-0.798375	-0.676953	0.902942	0.023892	0.003032	0.003722
336	1.677075	0.005000	1.924061	9.674612	-1.844280	-0.799143	-0.677063	0.902451	0.015744	-0.008297	0.000816
337	1.682075	0.005000	2.001240	9.674420	-1.865660	-0.799911	-0.677173	0.901961	0.013988	-0.001698	0.014435
338	1.687075	0.005000	1.954593	9.653040	-1.876113	-0.800679	-0.677283	0.901471	0.012413	-0.001900	0.004256
339	1.692075	0.005000	2.026976	9.692280	-1.962000	-0.801447	-0.677392	0.900981	0.007606	-0.005790	0.003212
340	1.697075	0.005000	2.056878	9.641619	-2.045457	-0.802215	-0.677502	0.900491	0.005346	-0.002709	0.000000
341	1.702075	0.005000	2.167352	9.583712	-1.989456	-0.802983	-0.677612	0.900001	0.023964	-0.005864	0.006659
342	1.707075	0.005000	2.065470	9.535320	-1.962000	-0.802110	-0.677721	0.899756	0.013321	-0.003672	0.006185
343	1.712075	0.005000	2.035674	9.628217	-1.947583	-0.801233	-0.677831	0.899511	0.016165	-0.006000	-0.001436
344	1.717075	0.005000	2.114183	9.726743	-1.812205	-0.800355	-0.677941	0.899266	0.010456	-0.009135	-0.002741
345	1.722075	0.005000	2.080164	9.693168	-1.883520	-0.799478	-0.678050	0.899021	0.008986	-0.007625	-0.004966
346	1.727075	0.005000	2.118960	9.733456	-1.846216	-0.798601	-0.678160	0.898776	0.007268	-0.010767	0.003137
347	1.732075	0.005000	2.040480	9.735424	-1.805040	-0.797724	-0.678269	0.898531	0.000159	-0.000433	0.004775
348	1.737075	0.005000	1.935255	9.758265	-1.916512	-0.796846	-0.678379	0.898286	0.007659	-0.003623	-0.000066
349	1.742075	0.005000	2.102431	9.731520	-2.007423	-0.795969	-0.678489	0.898042	0.014310	-0.002404	0.008937
350	1.747075	0.005000	2.108416	9.692280	-1.943847	-0.795092	-0.678598	0.897797	0.010578	-0.008100	0.002749
351	1.752075	0.005000	2.079720	9.692280	-1.896136	-0.794215	-0.678708	0.897552	0.003355	-0.003097	0.001609
352	1.757075	0.005000	2.070537	9.707309	-1.898549	-0.793338	-0.678818	0.897307	0.001782	0.003736	-0.002867
353	1.762075	0.005000	2.018470	9.631030	-1.883520	-0.792460	-0.678927	0.897062	0.009298	-0.013860	0.001107
354	1.767075	0.005000	2.020623	9.554703	-1.883520	-0.791583	-0.679037	0.896817	0.004410	-0.011713	0.000798
355	1.772075	0.005000	2.005082	9.653040	-1.787341	-0.790918	-0.678850	0.897046	-0.006255	-0.013611	0.002353
356	1.777075	0.005000	1.993018	9.590069	-1.915472	-0.790589	-0.678191	0.898026	0.007581	-0.013319	0.004312
357	1.782075	0.005000	2.001240	9.692280	-1.883520	-0.790259	-0.677533	0.899006	0.010427	-0.006860	0.005549
358	1.787075	0.005000	1.973028	9.653040	-2.029452	-0.789930	-0.676875	0.899986	0.008438	-0.012465	0.007941
359	1.792075	0.005000	1.970742	9.640026	-1.975014	-0.789601	-0.676217	0.900966	0.006699	-0.001744	0.006375
360	1.797075	0.005000	1.994904	9.646704	-1.910088	-0.789272	-0.675558	0.901946	0.014835	-0.007659	-0.002017
361	1.802075	0.005000	2.005632	9.696672	-1.848672	-0.788943	-0.674900	0.902926	0.017284	-0.006789	0.004612
362	1.807075	0.005000	2.118960	9.653040	-1.808990	-0.788614	-0.674242	0.903906	0.014965	-0.001788	-0.005884
363	1.812075	0.005000	2.079690	9.692310	-1.961939	-0.788285	-0.673584	0.904886	0.025749	-0.015975	0.003577
364	1.817075	0.005000	2.003613	9.694653	-1.883520	-0.787955	-0.672925	0.905866	0.014353	-0.002163	-0.003496
365	1.822075	0.005000	2.070250	9.805265	-1.844280	-0.787626	-0.672267	0.906846	0.024225	-0.009218	0.009318
366	1.827075	0.005000	2.125694	9.731520	-1.929494	-0.787297	-0.671609	0.907826	0.012966	-0.001222	0.005935
367	1.832075	0.005000	2.049511	9.631862	-1.826218	-0.786968	-0.670951	0.908806	0.017523	-0.010255	0.001800
368	1.837075	0.005000	2.118960	9.619786	-1.928746	-0.786639	-0.670292	0.909786	0.012888	-0.007183	-0.005619
369	1.842075	0.005000	2.027138	9.665596	-1.896862	-0.786653	-0.670321	0.909425	0.007225	-0.008598	-0.002510
370	1.847075	0.005000	1.962000	9.637323	-1.899237	-0.786763	-0.670540	0.908690	0.023408	-0.012038	-0.001973
371	1.852075	0.005000	2.044031	9.660141	-1.940605	-0.786872	-0.670759	0.907955	0.015696	-0.001586	0.001246
372	1.857075	0.005000	2.060493	9.711507	-1.883520	-0.786982	-0.670979	0.907220	0.019821	-0.007730	0.006059
373	1.862075	0.005000	2.062680	9.714480	-1.905720	-0.787092	-0.671198	0.906485	0.019865	0.001400	0.004732
374	1.867075	0.005000	2.040480	9.653040	-1.883520	-0.787202	-0.671418	0.905750	0.020107	-0.012352	-0.001205
375	1.872075	0.005000	2.158200	9.574560	-1.962000	-0.787311	-0.671637	0.905015	0.027544	-0.009363	0.007244
376	1.877075	0.005000	2.050753	9.566139	-1.893793	-0.787421	-0.671856	0.904280	0.020270	0.000653	0.005510
377	1.882075	0.005000	2.001240	9.723654	-1.844280	-0.787531	-0.672076	0.903545	0.025834	-0.004233	-0.003071
378	1.887075	0.005000	2.068012	9.680572	-1.855988	-0.787640	-0.672295	0.902810	0.020725	-0.009788	-0.008267
379	1.892075	0.005000	2.043986	9.767254	-1.926266	-0.787750	-0.672515	0.902075	0.024533	-0.012806	-0.003314
380	1.897075	0.005000	2.118960	9.692280	-1.883520	-0.787860	-0.672734	0.901340	0.021427	-0.009339	-0.000691
381	1.902075	0.005000	2.118960	9.730678	-1.883520	-0.787970	-0.672953	0.900605	0.014398	-0.008992	0.000680
382	1.907075	0.005000	2.154978	9.581004	-1.919538	-0.788041	-0.673115	0.899978	0.008400	-0.013252	0.008772
383	1.912075	0.005000	2.079720	9.603393	-1.927963	-0.787931	-0.673005	0.899856	0.014796	-0.009702	0.003894
384	1.917075	0.005000	2.079720	9.645431	-1.829062	-0.787821	-0.672895	0.899733	0.026411	-0.010560	0.003756
385	1.922075	0.005000	2.050373	9.643480	-1.893080	-0.787711	-0.672786	0.899611	0.027970	-0.008858	0.006799
386	1.927075	0.005000	2.079720	9.731520	-1.832323	-0.787602	-0.672676	0.899488	0.018751	-0.014122	-0.006066
387	1.932075	0.005000	2.129459	9.742019	-1.883520	-0.787492	-0.672566	0.899366	0.023828	-0.017762	0.011997
388	1.937075	0.005000	2.125041	9.742018	-1.978579	-0.787382	-0.672457	0.899243	0.012567	-0.005490	0.009814
389	1.942075	0.005000	2.003031	9.731520	-1.842489	-0.787272	-0.672347	0.899121	0.014404	-0.012458	0.003050
390	1.947075	0.005000	1.943895	9.749625	-1.922760	-0.787163	-0.672237	0.898998	0.015934	-0.010552	0.006925
391	1.952075	0.005000	1.977974	9.746103	-1.890811	-0.787053	-0.672128	0.898876	0.026730	-0.009294	0.008570
392	1.957075	0.005000	2.014989	9.719777	-1.687320	-0.786943	-0.672018	0.898753	0.029189	-0.012967	0.001385
393	1.962075	0.005000	2.040480	9.720180	-1.827721	-0.786833	-0.671908	0.898630	0.022269	-0.015421	-0.001255
394	1.967075	0.005000	2.029430	9.623197	-1.903966	-0.786724	-0.671799	0.898508	0.024924	-0.014238	0.003802
395	1.972075	0.005000	2.091034	9.692280	-1.858243	-0.786614	-0.671689	0.898385	0.007577	-0.009817	-0.006982
396	1.977075	0.005000	1.962000	9.726543	-2.001240	-0.786881	-0.671705	0.899035	0.015946	-0.020435	-0.004163
397	1.982075	0.005000	2.029951	9.728888	-1.930657	-0.787430	-0.671815	0.900260	0.017113	-0.014410	0.008552
398	1.987075	0.005000	2.001883	9.496509	-2.039837	-0.787979	-0.671924	0.901486	0.008629	-0.015324	0.006248
399	1.992075	0.005000	2.043939	9.537049	-1.847739	-0.788528	-0.672034	0.902711	0.012957	-0.011605	0.004057
400	1.997075	0.005000	2.001240	9.543584	-1.910364	-0.789076	-0.672144	0.903937	0.008899	-0.005486	-0.001660
401	2.002075	0.005000	2.066801	9.685821	-1.889979	-0.789625	-0.672253	0.905163	0.017927	-0.019031	0.000329
402	2.007075	0.005000	2.040480	9.591524	-1.962000	-0.790174	-0.672363	0.906388	0.006548	-0.006526	0.002540
403	2.012075	0.005000	2.108189	9.659968	-1.844280	-0.790723	-0.672473	0.907614	0.009337	-0.010855	0.000856
404	2.017075	0.005000	2.092560	9.639480	-1.923479	-0.791272	-0.672583	0.908840	0.009063	-0.008765	-0.001164
405	2.022075	0.005000	2.046987	9.701022	-1.938009	-0.791820	-0.672692	0.910065	0.007800	-0.011714	0.000249
406	2.027075	0.005000	2.057673	9.670233	-1.939953	-0.792369	-0.672802	0.911291	0.002970	-0.017125	0.006182
407	2.032075	0.005000	2.060115	9.613831	-1.883520	-0.792918	-0.672912	0.912517	0.000188	-0.007537	0.005954
408	2.037075	0.005000	2.079720	9.653040	-1.844280	-0.793467	-0.673021	0.913742	0.007725	-0.008526	-0.001820
409	2.042075	0.005000	2.103680	9.581159	-1.868240	-0.794016	-0.673131	0.914968	0.010796	-0.008380	-0.000881
410	2.047075	0.005000	2.027304	9.613513	-1.883520	-0.793816	-0.673348	0.913688	0.002208	-0.011084	-0.007231
411	2.052075	0.005000	2.001240	9.607342	-1.922760	-0.793597	-0.673567	0.912341	-0.000220	-0.016925	0.003092
412	2.057075	0.005000	1.939785	9.622312	-1.922760	-0.793378	-0.673786	0.910994	-0.005398	-0.010520	-0.000508
413	2.062075	0.005000	2.145064	9.587696	-1.922760	-0.793159	-0.674005	0.909648	-0.002507	-0.020211	0.005405
414	2.067075	0.005000	2.044644	9.657204	-1.918596	-0.792939	-0.674225	0.908301	-0.000651	-0.015936	-0.004488
415	2.072075	0.005000	2.121153	9.687893	-1.927147	-0.792720	-0.674444	0.906954	-0.006003	-0.012217	0.002040
416	2.077075	0.005000	2.119144	9.652856	-2.001240	-0.792501	-0.674663	0.905607	-0.006540	-0.015604	0.002650
417	2.082075	0.005000	2.079720	9.729392	-1.920632	-0.792281	-0.674883	0.904260	-0.002723	-0.007610	-0.013225
418	2.087075	0.005000	2.114415	9.726975	-1.848825	-0.792062	-0.675102	0.902913	-0.008308	-0.016272	0.013592
419	2.092075	0.005000	2.092698	9.770760	-1.811529	-0.791843	-0.675321	0.901566	-0.008494	-0.014733	0.007857
420	2.097075	0.005000	2.101170	9.692280	-1.765800	-0.791623	-0.675541	0.900219	-0.002148	-0.016703	-0.003551
421	2.102075	0.005000	2.197440	9.681101	-1.928463	-0.791404	-0.675760	0.898872	-0.004276	-0.015247	0.005710
422	2.107075	0.005000	2.014493	9.639787	-1.975253	-0.791185	-0.675979	0.897525	0.004132	-0.011841	0.001365
423	2.112075	0.005000	2.064245	9.629275	-1.970290	-0.791005	-0.676119	0.896667	0.012459	-0.012405	0.005475
424	2.117075	0.005000	2.058087	9.735547	-1.822647	-0.790895	-0.676119	0.896667	0.010895	-0.007094	0.004650
425	2.122075	0.005000	2.020462	9.711502	-1.844280	-0.790786	-0.676119	0.896667	0.010359	-0.012540	0.000663
426	2.127075	0.005000	2.040480	9.709359	-1.782879	-0.790676	-0.676119	0.896667	0.012260	-0.015968	0.004635
427	2.132075	0.005000	2.025614	9.731520	-1.928119	-0.790566	-0.676119	0.896667	0.000509	-0.019327	0.003088
428	2.137075	0.005000	1.922760	9.706595	-1.988778	-0.790456	-0.676119	0.896667	0.002558	-0.014233	0.004499
429	2.142075	0.005000	2.069202	9.731520	-1.962000	-0.790347	-0.676119	0.896667	0.012683	-0.008491	-0.007366
430	2.147075	0.005000	2.048591	9.700391	-1.891631	-0.790237	-0.676119	0.896667	-0.000271	-0.010296	-0.000503
431	2.152075	0.005000	2.022191	9.725424	-1.889616	-0.790127	-0.676119	0.896667	0.000715	-0.009584	-0.000479
432	2.157075	0.005000	1.937764	9.688529	-1.848031	-0.790017	-0.676119	0.896667	0.008691	-0.018035	0.005352
433	2.162075	0.005000	2.117613	9.728826	-1.883520	-0.789908	-0.676119	0.896667	0.001489	-0.014438	-0.004042
434	2.167075	0.005000	2.041077	9.614397	-1.922163	-0.789798	-0.676119	0.896667	0.008539	-0.016206	0.010832
435	2.172075	0.005000	2.043460	9.574560	-1.922760	-0.789688	-0.676119	0.896667	0.012192	-0.015799	0.004524
436	2.177075	0.005000	2.035521	9.682363	-2.030563	-0.789579	-0.676119	0.896667	0.007616	-0.014614	-0.001357
437	2.182075	0.005000	2.001240	9.684916	-1.890884	-0.789386	-0.675953	0.896760	0.011534	-0.018613	-0.004539
438	2.187075	0.005000	2.030814	9.701946	-1.952334	-0.789166	-0.675733	0.896882	0.012108	-0.010645	-0.005871
439	2.192075	0.005000	1.989517	9.774831	-1.899314	-0.788947	-0.675514	0.897005	0.022215	-0.011478	-0.001110
440	2.197075	0.005000	2.054442	9.692280	-1.908798	-0.788727	-0.675294	0.897127	0.016137	-0.017447	0.003862
441	2.202075	0.005000	2.079720	9.708356	-1.945924	-0.788508	-0.675075	0.897250	0.008906	-0.015285	0.005096
442	2.207075	0.005000	2.079720	9.731520	-1.941239	-0.788289	-0.674856	0.897372	0.017618	-0.021758	0.001709
443	2.212075	0.005000	2.001240	9.593376	-1.864704	-0.788069	-0.674636	0.897495	0.016616	-0.005976	0.001284
444	2.217075	0.005000	2.040480	9.708686	-1.775778	-0.787850	-0.674417	0.897617	0.017788	-0.008572	-0.007492
445	2.222075	0.005000	2.054775	9.692280	-1.829985	-0.787630	-0.674197	0.897740	0.014653	-0.021004	0.001965
446	2.227075	0.005000	2.040480	9.770760	-1.871471	-0.787411	-0.673978	0.897862	0.014939	-0.005765	0.001056
447	2.232075	0.005000	2.050464	9.760776	-1.844280	-0.787192	-0.673759	0.897984	0.016799	-0.015257	0.006969
448	2.237075	0.005000	2.055698	9.684671	-1.874716	-0.786972	-0.673539	0.898107	0.010382	-0.009227	-0.004784
449	2.242075	0.005000	2.017086	9.686998	-1.933324	-0.786753	-0.673320	0.898229	0.020159	-0.011535	-0.007401
450	2.247075	0.005000	2.158200	9.692280	-1.998363	-0.786786	-0.673269	0.898521	0.010556	0.000265	-0.001958
451	2.252075	0.005000	2.078797	9.693203	-1.844280	-0.788212	-0.674146	0.899746	0.016207	-0.007604	-0.005425
452	2.257075	0.005000	2.078235	9.731520	-1.882035	-0.789637	-0.675023	0.900970	0.021372	-0.010553	0.004583
453	2.262075	0.005000	2.072864	9.659896	-1.886948	-0.791063	-0.675901	0.902195	0.021841	-0.006587	-0.007584
454	2.267075	0.005000	2.113127	9.714020	-1.816706	-0.792488	-0.676778	0.903419	0.022886	-0.010730	0.005542
455	2.272075	0.005000	2.071566	9.605646	-1.937539	-0.793914	-0.677655	0.904644	0.028087	-0.010200	0.001820
456	2.277075	0.005000	2.108779	9.623981	-1.844280	-0.795339	-0.678533	0.905868	0.017747	-0.018460	-0.000579
457	2.282075	0.005000	2.183391	9.640445	-1.896115	-0.796765	-0.679410	0.907093	0.013944	-0.009982	0.001542
458	2.287075	0.005000	2.104135	9.623391	-1.888754	-0.798190	-0.680287	0.908317	0.010173	-0.005661	-0.003835
459	2.292075	0.005000	2.069033	9.647697	-1.939708	-0.799616	-0.681165	0.909542	0.004421	-0.009499	0.002236
460	2.297075	0.005000	2.041000	9.711640	-1.962000	-0.801041	-0.682042	0.910766	0.009163	-0.005973	0.002987
461	2.302075	0.005000	2.079720	9.710217	-1.919393	-0.802467	-0.682919	0.911991	0.013947	-0.017670	0.005803
462	2.307075	0.005000	2.127151	9.653040	-1.938285	-0.803892	-0.683796	0.913215	0.012092	-0.010223	0.005455
463	2.312075	0.005000	2.118960	9.731520	-1.910356	-0.805318	-0.684674	0.914440	0.022508	-0.010571	0.004868
464	2.317075	0.005000	2.085444	9.681108	-1.883520	-0.805613	-0.684718	0.914601	0.017983	-0.018428	0.007126
465	2.322075	0.005000	1.962000	9.692280	-1.844280	-0.804955	-0.684059	0.913866	0.019327	-0.006989	0.002292
466	2.327075	0.005000	1.982439	9.699093	-1.902321	-0.804296	-0.683401	0.913131	0.018755	-0.006059	-0.002703
467	2.332075	0.005000	2.153792	9.648632	-1.796225	-0.803638	-0.682743	0.912396	0.017743	-0.003059	-0.008505
468	2.337075	0.005000	2.153272	9.692280	-1.885984	-0.802980	-0.682085	0.911661	0.024369	-0.012361	0.002147
469	2.342075	0.005000	2.118914	9.653132	-2.001194	-0.802322	-0.681426	0.910926	0.020806	0.000529	0.004707
470	2.347075	0.005000	2.117077	9.656806	-1.962000	-0.801663	-0.680768	0.910191	0.005704	-0.012828	0.004437
471	2.352075	0.005000	2.044780	9.735820	-1.892121	-0.801005	-0.680110	0.909456	0.022031	-0.010121	0.008135
472	2.357075	0.005000	1.968244	9.725276	-1.856768	-0.800347	-0.679451	0.908721	0.023117	-0.002615	0.002168
473	2.362075	0.005000	1.983939	9.731520	-1.844280	-0.799689	-0.678793	0.907986	0.017099	-0.017404	0.006633
474	2.367075	0.005000	1.877091	9.731520	-1.911823	-0.799031	-0.678135	0.907251	0.011460	-0.014945	0.000256
475	2.372075	0.005000	2.014463	9.757751	-1.844280	-0.798372	-0.677476	0.906516	0.017140	-0.011479	0.004851
476	2.377075	0.005000	2.055897	9.660052	-1.891925	-0.797714	-0.676818	0.905781	0.014054	-0.005521	0.003732
477	2.382075	0.005000	1.918766	9.653040	-1.865897	-0.797056	-0.676160	0.905046	0.015195	-0.013540	0.000602
478	2.387075	0.005000	1.962306	9.653040	-1.864053	-0.796398	-0.676942	0.904885	0.012204	-0.012947	0.000021
479	2.392075	0.005000	2.084849	9.731520	-1.822096	-0.795739	-0.677820	0.904763	0.017744	-0.008535	0.000714
480	2.397075	0.005000	1.962000	9.731520	-1.811133	-0.795081	-0.678698	0.904640	0.012724	-0.013473	-0.005566
481	2.402075	0.005000	1.974702	9.745355	-1.883520	-0.794423	-0.679575	0.904517	0.015173	-0.013319	0.003774
482	2.407075	0.005000	2.100989	9.720886	-1.823011	-0.793765	-0.680453	0.904395	0.021660	-0.008342	-0.002254
483	2.412075	0.005000	2.093928	9.638832	-1.852624	-0.793106	-0.681331	0.904272	0.016515	-0.010690	0.014662
484	2.417075	0.005000	2.040480	9.698618	-1.902535	-0.792448	-0.682209	0.904150	0.013371	-0.015103	0.005529
485	2.422075	0.005000	2.075724	9.719532	-1.950012	-0.791790	-0.683086	0.904027	0.011566	-0.016268	0.003366
486	2.427075	0.005000	2.001240	9.692280	-1.885112	-0.791132	-0.683964	0.903905	0.010857	-0.009444	-0.004629
487	2.432075	0.005000	2.001240	9.692280	-2.000536	-0.790474	-0.684842	0.903782	0.007213	-0.020179	0.000508
488	2.437075	0.005000	2.004010	9.728750	-1.886290	-0.789815	-0.685719	0.903660	0.003159	-0.014734	0.006674
489	2.442075	0.005000	1.972226	9.702506	-1.844280	-0.789157	-0.686597	0.903537	0.002348	-0.006752	-0.007025
490	2.447075	0.005000	1.969119	9.678042	-1.805040	-0.788499	-0.687475	0.903415	0.003033	-0.012837	-0.002761
491	2.452075	0.005000	2.010775	9.673211	-1.873985	-0.788023	-0.687695	0.903211	-0.000217	-0.006621	-0.000872
492	2.457075	0.005000	2.079720	9.653040	-1.978284	-0.787914	-0.686598	0.902843	0.001322	-0.012267	-0.008130
493	2.462075	0.005000	2.015126	9.664507	-1.934227	-0.787804	-0.685501	0.902476	0.002338	-0.010648	0.001327
494	2.467075	0.005000	2.126539	9.629631	-1.977831	-0.787694	-0.684405	0.902109	-0.003524	-0.004565	-0.004900
495	2.472075	0.005000	2.058723	9.653040	-1.823283	-0.787585	-0.683308	0.901741	0.008703	-0.007617	0.001146
496	2.477075	0.005000	2.081293	9.692280	-1.844280	-0.787475	-0.682211	0.901374	0.004924	-0.005953	-0.003800
497	2.482075	0.005000	2.040480	9.714878	-1.799084	-0.787365	-0.681115	0.901006	0.007450	-0.002730	0.012421
498	2.487075	0.005000	2.079720	9.731520	-1.858808	-0.787256	-0.680018	0.900639	0.010071	-0.004983	0.000349
499	2.492075	0.005000	2.040480	9.719226	-1.920402	-0.787146	-0.678922	0.900272	0.001027	-0.007585	-0.000322
500	2.497075	0.005000	2.040480	9.760873	-1.912873	-0.787036	-0.677825	0.899904	0.003944	-0.012549	-0.003276
501	2.502075	0.005000	2.079720	9.676578	-2.001240	-0.786927	-0.676728	0.899537	-0.010690	-0.013613	-0.006070
502	2.507075	0.005000	2.113433	9.681226	-1.928287	-0.786817	-0.675632	0.899170	-0.010042	-0.016017	0.005874
503	2.512075	0.005000	2.072640	9.692280	-1.958460	-0.786707	-0.674535	0.898802	-0.005944	-0.009022	0.002543
504	2.517075	0.005000	2.040480	9.693458	-1.962000	-0.786597	-0.673438	0.898435	0.006768	-0.010054	0.002164
505	2.522075	0.005000	2.002465	9.693505	-1.962000	-0.786646	-0.673134	0.898333	-0.001058	-0.018711	0.003136
506	2.527075	0.005000	2.076537	9.806817	-1.968367	-0.786756	-0.673134	0.898333	-0.004660	-0.006127	-0.010414
507	2.532075	0.005000	2.074132	9.781936	-1.973176	-0.786866	-0.673134	0.898333	0.004391	-0.019055	-0.004033
508	2.537075	0.005000	2.048013	9.739053	-1.930293	-0.786975	-0.673134	0.898333	0.000198	-0.004764	-0.001708
509	2.542075	0.005000	2.089117	9.750865	-1.902865	-0.787085	-0.673134	0.898333	0.006353	-0.011727	0.007697
510	2.547075	0.005000	2.106752	9.677455	-1.832072	-0.787195	-0.673134	0.898333	0.008348	-0.006377	0.015955
511	2.552075	0.005000	2.104660	9.663681	-1.815681	-0.787305	-0.673134	0.898333	0.003747	-0.005783	0.006373
512	2.557075	0.005000	2.073518	9.692280	-1.833963	-0.787414	-0.673134	0.898333	-0.003463	-0.016791	0.003735
513	2.562075	0.005000	2.100312	9.712872	-1.842336	-0.787524	-0.673134	0.898333	-0.000792	-0.007034	0.001759
514	2.567075	0.005000	2.040480	9.731520	-1.862461	-0.787634	-0.673134	0.898333	0.008880	-0.007865	0.009607
515	2.572075	0.005000	2.040480	9.747570	-1.867470	-0.787744	-0.673134	0.898333	0.007471	-0.000829	0.013418
516	2.577075	0.005000	2.001240	9.770760	-1.830455	-0.787853	-0.673134	0.898333	0.011242	-0.005157	0.007905
517	2.582075	0.005000	2.056886	9.720103	-1.872103	-0.787963	-0.673134	0.898333	0.005666	-0.014720	0.000542
518	2.587075	0.005000	1.991876	9.653040	-1.784527	-0.788060	-0.673121	0.898333	0.014668	-0.014528	0.002120
519	2.592075	0.005000	2.008298	9.627916	-1.805040	-0.788060	-0.673011	0.898333	0.019988	-0.023931	0.005832
520	2.597075	0.005000	2.031175	9.726868	-1.904150	-0.788060	-0.672902	0.898333	0.013240	-0.015537	0.001686
521	2.602075	0.005000	2.035125	9.692280	-1.841602	-0.788060	-0.672792	0.898333	0.013134	-0.018021	0.010411
522	2.607075	0.005000	1.922760	9.730938	-1.844571	-0.788060	-0.672683	0.898333	0.013246	-0.015652	0.003603
523	2.612075	0.005000	1.922760	9.653040	-1.920672	-0.788060	-0.672573	0.898333	0.015636	-0.010310	-0.005311
524	2.617075	0.005000	2.036423	9.727463	-1.844280	-0.788060	-0.672463	0.898333	0.012533	-0.007351	-0.000433
525	2.622075	0.005000	1.974947	9.665987	-1.778747	-0.788060	-0.672354	0.898333	0.005823	-0.007079	-0.001266
526	2.627075	0.005000	1.970774	9.661814	-1.726560	-0.788060	-0.672244	0.898333	0.025546	-0.011589	0.010077
527	2.632075	0.005000	2.018174	9.703433	-1.889301	-0.788060	-0.672135	0.898333	0.015577	-0.005184	-0.002859
528	2.637075	0.005000	2.105288	9.718292	-1.857508	-0.788060	-0.672025	0.898333	0.028278	-0.019667	0.003466
529	2.642075	0.005000	2.064260	9.692280	-1.765800	-0.788060	-0.671915	0.898333	0.020685	-0.012982	0.002809
530	2.647075	0.005000	2.101375	9.670625	-1.787455	-0.788060	-0.671806	0.898333	0.029966	-0.011352	0.000101
531	2.652075	0.005000	2.079720	9.653312	-1.844008	-0.788060	-0.671696	0.898333	0.028270	-0.013185	0.010635
532	2.657075	0.005000	2.067058	9.618439	-1.935422	-0.788282	-0.671753	0.898395	0.029256	-0.004090	-0.001797
533	2.662075	0.005000	2.079720	9.638149	-1.878087	-0.788722	-0.671973	0.898518	0.021480	-0.012551	-0.002421
534	2.667075	0.005000	2.066922	9.705078	-1.909115	-0.789161	-0.672192	0.898640	0.020653	-0.006196	-0.002400
535	2.672075	0.005000	2.001240	9.710453	-1.912227	-0.789600	-0.672412	0.898763	0.020492	-0.009945	-0.007607
536	2.677075	0.005000	2.118960	9.731520	-1.805040	-0.790039	-0.672631	0.898885	0.026560	-0.012450	0.009438
537	2.682075	0.005000	2.106594	9.613800	-1.844280	-0.790478	-0.672851	0.899008	0.017240	-0.004832	0.003802
538	2.687075	0.005000	2.118960	9.727330	-1.900281	-0.790917	-0.673070	0.899131	0.023472	-0.007264	0.008572
539	2.692075	0.005000	2.035014	9.540786	-2.035014	-0.791356	-0.673290	0.899253	0.028100	0.004021	0.001233
540	2.697075	0.005000	2.000995	9.653040	-2.000995	-0.791795	-0.673509	0.899376	0.025867	-0.010713	0.008143
541	2.702075	0.005000	2.040480	9.653040	-1.962000	-0.792234	-0.673729	0.899498	0.030995	-0.006861	0.009989
542	2.707075	0.005000	2.114491	9.583498	-1.862155	-0.792673	-0.673948	0.899621	0.025975	-0.012114	-0.001828
543	2.712075	0.005000	2.014989	9.567686	-1.948251	-0.793112	-0.674168	0.899744	0.025569	-0.011509	0.006069
544	2.717075	0.005000	2.079720	9.673916	-1.941124	-0.793551	-0.674387	0.899866	0.019879	-0.004780	0.003445
545	2.722075	0.005000	2.079720	9.692280	-1.749027	-0.793990	-0.674607	0.899989	0.022149	-0.010292	0.011439
546	2.727075	0.005000	2.054121	9.627441	-1.921076	-0.793632	-0.674627	0.900000	0.019931	-0.002982	0.007169
547	2.732075	0.005000	2.142614	9.676694	-1.907174	-0.793193	-0.674627	0.900000	0.031867	-0.006078	0.006817
548	2.737075	0.005000	2.033991	9.710278	-1.997996	-0.792754	-0.674627	0.900000	0.028512	-0.006566	0.007254
549	2.742075	0.005000	1.962000	9.672981	-2.020539	-0.792316	-0.674627	0.900000	0.027394	-0.001815	0.001127
550	2.747075	0.005000	2.074254	9.602379	-1.933691	-0.791877	-0.674627	0.900000	0.025327	-0.015478	0.000391
551	2.752075	0.005000	2.104196	9.667804	-1.898284	-0.791439	-0.674627	0.900000	0.016334	-0.011939	-0.002428
552	2.757075	0.005000	2.093892	9.667212	-1.974534	-0.791000	-0.674627	0.900000	0.033343	-0.017546	0.001656
553	2.762075	0.005000	2.069600	9.682160	-1.951880	-0.790561	-0.674627	0.900000	0.020296	-0.015928	0.006173
554	2.767075	0.005000	2.048656	9.644864	-1.852456	-0.790123	-0.674627	0.900000	0.023779	-0.013034	-0.006675
555	2.772075	0.005000	2.040480	9.619572	-1.883520	-0.789684	-0.674627	0.900000	0.020384	-0.012003	-0.007035
556	2.777075	0.005000	2.115178	9.653040	-1.965782	-0.789245	-0.674627	0.900000	0.019656	-0.011289	-0.001365
557	2.782075	0.005000	2.123230	9.690857	-1.802193	-0.788807	-0.674627	0.900000	0.022005	-0.014265	0.007934
558	2.787075	0.005000	2.081802	9.614321	-1.726560	-0.788368	-0.674627	0.900000	0.017689	-0.007733	-0.000585
559	2.792075	0.005000	2.004178	9.692280	-1.913945	-0.788125	-0.674496	0.900000	0.020503	-0.009898	-0.000296
560	2.797075	0.005000	2.024642	9.624359	-1.883520	-0.788345	-0.674058	0.900000	0.011250	-0.014759	-0.003646
561	2.802075	0.005000	1.976575	9.660328	-1.915472	-0.788564	-0.673619	0.900000	0.004001	-0.003960	-0.002342
562	2.807075	0.005000	2.030777	9.662743	-1.873817	-0.788783	-0.673180	0.900000	0.013469	-0.008692	0.006844
563	2.812075	0.005000	2.052127	9.621146	-1.899467	-0.789003	-0.672741	0.900000	0.016690	-0.006720	-0.002007
564	2.817075	0.005000	1.908705	9.577484	-1.936815	-0.789222	-0.672302	0.900000	0.008680	-0.011067	0.001584
565	2.822075	0.005000	2.079720	9.676003	-1.962000	-0.789442	-0.671864	0.900000	0.015958	-0.007357	0.002381
566	2.827075	0.005000	2.176611	9.713109	-2.003658	-0.789661	-0.671425	0.900000	0.011827	-0.008167	-0.002772
567	2.832075	0.005000	2.195036	9.590574	-2.121364	-0.789881	-0.670986	0.900000	0.006183	-0.010714	0.003739
568	2.837075	0.005000	2.158200	9.630274	-2.001240	-0.790100	-0.670547	0.900000	0.011015	-0.004495	-0.006948
569	2.842075	0.005000	2.037510	9.602700	-1.908690	-0.790319	-0.670108	0.900000	0.010838	-0.015418	0.002206
570	2.847075	0.005000	1.958702	9.677002	-1.938038	-0.790539	-0.669670	0.900000	0.006015	-0.012596	-0.003717
571	2.852075	0.005000	2.070002	9.672844	-1.942196	-0.790758	-0.669231	0.900000	0.003502	-0.012175	-0.001126
572	2.857075	0.005000	1.977369	9.582245	-1.938946	-0.790978	-0.668792	0.900000	0.004940	-0.009383	-0.004390
573	2.862075	0.005000	2.152841	9.702997	-1.849639	-0.791045	-0.668809	0.900170	0.001542	-0.011264	0.005468
574	2.867075	0.005000	2.129080	9.692280	-1.965373	-0.791045	-0.669028	0.900415	-0.001479	-0.015713	0.002497
575	2.872075	0.005000	2.194410	9.613800	-1.958970	-0.791045	-0.669248	0.900660	0.002866	-0.010205	0.006537
576	2.877075	0.005000	2.041872	9.575952	-1.919977	-0.791045	-0.669467	0.900905	0.005627	-0.014695	0.007271
577	2.882075	0.005000	2.073017	9.685577	-1.886872	-0.791045	-0.669687	0.901150	0.003507	-0.014929	0.003262
578	2.887075	0.005000	2.046237	9.737277	-2.017453	-0.791045	-0.669906	0.901395	-0.008694	-0.006591	-0.001705
579	2.892075	0.005000	2.079720	9.653040	-1.898922	-0.791045	-0.670125	0.901640	-0.008756	-0.016433	0.005335
580	2.897075	0.005000	2.089836	9.692280	-1.893636	-0.791045	-0.670345	0.901885	-0.014080	-0.010818	0.000665
581	2.902075	0.005000	2.067660	9.731520	-1.895580	-0.791045	-0.670564	0.902130	-0.000396	-0.019853	0.009386
582	2.907075	0.005000	2.054948	9.692280	-1.947532	-0.791045	-0.670784	0.902375	-0.002659	-0.016962	0.004018
583	2.912075	0.005000	2.096390	9.720749	-1.984570	-0.791045	-0.671003	0.902620	-0.006536	-0.013744	-0.003502
584	2.917075	0.005000	2.020056	9.729912	-1.922760	-0.791045	-0.671222	0.902865	-0.003956	-0.011498	-0.002101
585	2.922075	0.005000	2.001240	9.692280	-1.883520	-0.791045	-0.671442	0.903110	-0.005286	-0.012026	-0.003375
586	2.927075	0.005000	2.063651	9.786829	-1.867451	-0.791016	-0.671652	0.903290	0.002223	-0.016405	-0.000177
587	2.932075	0.005000	2.093377	9.757103	-1.885250	-0.790687	-0.671761	0.902800	-0.007376	-0.011385	-0.001644
588	2.937075	0.005000	2.130672	9.664752	-1.855992	-0.790357	-0.671871	0.902310	-0.004538	-0.019077	0.002661
589	2.942075	0.005000	2.079720	9.692280	-1.883520	-0.790028	-0.671981	0.901819	-0.002443	-0.011682	-0.002578
590	2.947075	0.005000	2.094272	9.746072	-1.890796	-0.789699	-0.672091	0.901329	-0.013409	-0.015781	-0.008421
591	2.952075	0.005000	2.114015	9.731520	-1.765800	-0.789370	-0.672200	0.900839	0.003526	-0.015858	-0.004172
592	2.957075	0.005000	2.121925	9.695245	-1.877590	-0.789040	-0.672310	0.900349	-0.002250	-0.014033	0.006317
593	2.962075	0.005000	2.118363	9.692877	-1.882923	-0.788711	-0.672420	0.899859	0.004598	-0.006343	-0.000540
594	2.967075	0.005000	2.042280	9.694080	-1.844280	-0.788382	-0.672529	0.899368	-0.005686	-0.010822	-0.006181
595	2.972075	0.005000	1.989945	9.617565	-1.848045	-0.788052	-0.672639	0.898878	0.002962	-0.011474	-0.000393
596	2.977075	0.005000	2.146007	9.653040	-1.765800	-0.787723	-0.672749	0.898388	-0.002838	-0.014717	0.008757
597	2.982075	0.005000	2.110846	9.661154	-1.813154	-0.787394	-0.672859	0.897898	0.004766	-0.003919	-0.007050
598	2.987075	0.005000	2.029962	9.624318	-1.873002	-0.787065	-0.672968	0.897408	0.008769	-0.010081	0.002448
599	2.992075	0.005000	2.040480	9.693173	-1.935542	-0.786735	-0.673078	0.896917	0.008312	-0.007327	-0.002375
600	2.997075	0.005000	2.040480	9.667916	-1.893009	-0.787962	-0.673188	0.897745	0.017951	-0.013977	-0.006873
601	3.002075	0.005000	1.939839	9.692280	-1.922760	-0.790813	-0.673297	0.899949	0.013285	-0.008079	-0.002891
602	3.007075	0.005000	1.922760	9.751530	-1.903530	-0.793664	-0.673407	0.902154	0.007010	-0.010830	-0.006266
603	3.012075	0.005000	2.015550	9.731520	-1.826430	-0.796515	-0.673517	0.904358	0.006852	-0.017838	-0.001098
604	3.017075	0.005000	2.040480	9.676624	-1.883520	-0.799366	-0.673626	0.906562	0.016705	-0.004592	-0.001434
605	3.022075	0.005000	2.158200	9.719388	-1.845702	-0.802217	-0.673736	0.908766	0.014554	-0.008393	-0.002409
606	3.027075	0.005000	2.096362	9.742819	-1.765800	-0.805068	-0.673846	0.910970	0.005409	-0.006064	0.000538
607	3.032075	0.005000	2.019023	9.801108	-1.870955	-0.807920	-0.673956	0.913174	0.007643	-0.009563	0.002302
608	3.037075	0.005000	2.093456	9.731520	-1.973769	-0.810771	-0.674065	0.915378	0.013379	-0.013998	0.004198
609	3.042075	0.005000	2.075188	9.726988	-1.897115	-0.813622	-0.674175	0.917582	0.014636	-0.008222	-0.003247
610	3.047075	0.005000	2.116404	9.726407	-1.880964	-0.816473	-0.674285	0.919787	0.015889	-0.008024	-0.002787
611	3.052075	0.005000	2.040664	9.692280	-1.922760	-0.819324	-0.674394	0.921991	0.017104	-0.007636	-0.002199
612	3.057075	0.005000	2.153813	9.618187	-1.848667	-0.822175	-0.674504	0.924195	0.018642	-0.012179	-0.001411
613	3.062075	0.005000	2.009569	9.578724	-1.840116	-0.825026	-0.674614	0.926399	0.013586	-0.011798	0.003281
614	3.067075	0.005000	2.086225	9.613800	-1.805040	-0.823542	-0.674145	0.925053	0.011678	-0.008843	-0.008695
615	3.072075	0.005000	2.110436	9.635991	-1.844280	-0.821458	-0.673597	0.923215	0.013705	-0.012675	0.008894
616	3.077075	0.005000	2.023103	9.720589	-1.748423	-0.819373	-0.673048	0.921378	0.013271	-0.004472	0.002120
617	3.082075	0.005000	2.066844	9.770760	-1.792164	-0.817289	-0.672499	0.919540	0.027533	-0.013351	0.004594
618	3.087075	0.005000	2.001240	9.668329	-1.850907	-0.815204	-0.671951	0.917703	0.020652	-0.013413	-0.002336
619	3.092075	0.005000	1.939993	9.609025	-1.827047	-0.813120	-0.671402	0.915865	0.011674	-0.016657	-0.005673
620	3.097075	0.005000	2.001148	9.613800	-1.844234	-0.811036	-0.670854	0.914027	0.017962	-0.004528	0.002470
621	3.102075	0.005000	2.079720	9.696637	-1.866078	-0.808951	-0.670305	0.912190	0.016181	-0.012344	-0.005305
622	3.107075	0.005000	2.079720	9.653040	-1.844280	-0.806867	-0.669757	0.910352	0.012953	-0.009643	-0.001011
623	3.112075	0.005000	2.040283	9.626946	-1.857426	-0.804782	-0.669208	0.908515	0.013645	-0.008999	-0.003373
624	3.117075	0.005000	2.001240	9.624686	-1.883520	-0.802698	-0.668660	0.906677	0.017865	-0.014248	-0.003247
625	3.122075	0.005000	2.053172	9.661889	-1.970849	-0.800614	-0.668111	0.904839	0.004916	-0.005844	0.002157
626	3.127075	0.005000	2.047002	9.685743	-1.975075	-0.798529	-0.667562	0.903002	0.013029	-0.010880	0.003131
627	3.132075	0.005000	2.153662	9.583636	-1.913684	-0.796865	-0.667254	0.901768	0.011183	-0.021491	0.005308
628	3.137075	0.005000	2.121149	9.615989	-1.959811	-0.796316	-0.667583	0.902135	0.017444	-0.007894	0.002858
629	3.142075	0.005000	2.197213	9.614027	-1.961773	-0.795768	-0.667912	0.902503	0.019872	-0.010749	0.001553
630	3.147075	0.005000	2.123306	9.690107	-1.885693	-0.795219	-0.668242	0.902870	0.019426	-0.008897	0.006493
631	3.152075	0.005000	2.040480	9.653040	-1.888043	-0.794671	-0.668571	0.903238	0.018275	-0.010156	0.002087
632	3.157075	0.005000	2.145156	9.509124	-1.883520	-0.794122	-0.668900	0.903605	0.016251	-0.013968	0.003054
633	3.162075	0.005000	2.040480	9.574560	-1.844280	-0.793574	-0.669229	0.903973	0.021860	-0.016140	0.003054
634	3.167075	0.005000	2.079720	9.574560	-1.798444	-0.793025	-0.669558	0.904340	0.023911	-0.014966	0.010298
635	3.172075	0.005000	2.105671	9.626462	-1.818329	-0.792476	-0.669887	0.904708	0.016009	-0.021852	-0.001782
636	3.177075	0.005000	2.046941	9.629034	-1.931533	-0.791928	-0.670216	0.905075	0.011977	-0.015458	-0.004627
637	3.182075	0.005000	2.083668	9.653040	-1.962000	-0.791379	-0.670546	0.905443	0.011071	-0.010493	-0.006360
638	3.187075	0.005000	2.119037	9.731520	-2.001317	-0.790831	-0.670875	0.905810	0.014540	-0.010642	-0.005059
639	3.192075	0.005000	2.023232	9.618544	-2.005984	-0.790282	-0.671204	0.906178	0.012485	-0.018129	0.001637
640	3.197075	0.005000	2.064416	9.659713	-1.955327	-0.789734	-0.671533	0.906545	0.013393	-0.008736	-0.000342
641	3.202075	0.005000	2.080098	9.627006	-1.870314	-0.789405	-0.671715	0.906339	0.016754	-0.013658	-0.001956
642	3.207075	0.005000	2.118960	9.709626	-1.877120	-0.789186	-0.671825	0.905849	0.018194	-0.005544	-0.001198
643	3.212075	0.005000	2.018320	9.670120	-2.062640	-0.788966	-0.671935	0.905359	0.021626	-0.005513	-0.011176
644	3.217075	0.005000	2.053336	9.731520	-1.975192	-0.788747	-0.672044	0.904869	0.020379	-0.011605	0.000310
645	3.222075	0.005000	2.088079	9.700639	-1.887700	-0.788528	-0.672154	0.904379	0.018525	-0.003821	0.005078
646	3.227075	0.005000	2.118960	9.653040	-1.994534	-0.788308	-0.672264	0.903889	0.011497	-0.013856	0.005391
647	3.232075	0.005000	2.118960	9.613966	-1.883520	-0.788089	-0.672373	0.903399	0.012490	-0.016588	-0.006571
648	3.237075	0.005000	2.195327	9.692280	-1.918534	-0.787869	-0.672483	0.902909	0.005450	-0.015919	-0.001469
649	3.242075	0.005000	2.114482	9.687802	-1.957522	-0.787650	-0.672593	0.902419	0.002907	-0.013523	0.000748
650	3.247075	0.005000	2.086194	9.685806	-1.922760	-0.787431	-0.672702	0.901929	0.004301	-0.009665	-0.005569
651	3.252075	0.005000	2.010014	9.701054	-1.913986	-0.787211	-0.672812	0.901439	0.001941	-0.014116	0.008422
652	3.257075	0.005000	2.068896	9.653040	-1.865929	-0.786992	-0.672922	0.900949	0.004071	-0.006454	-0.003385
653	3.262075	0.005000	2.040480	9.627028	-1.779028	-0.786772	-0.673031	0.900459	0.006691	-0.010328	0.003659
654	3.267075	0.005000	2.040480	9.613800	-1.868060	-0.786588	-0.673113	0.900000	0.000213	-0.006991	-0.000450
655	3.272075	0.005000	2.079720	9.631385	-1.979585	-0.786917	-0.672784	0.900000	0.004814	-0.008784	-0.003243
656	3.277075	0.005000	2.021268	9.692280	-1.981484	-0.787246	-0.672455	0.900000	0.003188	-0.010719	-0.001283
657	3.282075	0.005000	2.057781	9.753459	-1.905459	-0.787575	-0.672126	0.900000	0.000585	-0.008666	-0.012680
658	3.287075	0.005000	2.064829	9.716629	-1.922760	-0.787904	-0.671797	0.900000	0.006399	-0.017521	0.001056
659	3.292075	0.005000	2.053278	9.601002	-1.844280	-0.788233	-0.671468	0.900000	0.000576	-0.016458	0.000019
660	3.297075	0.005000	2.158200	9.663573	-1.940933	-0.788562	-0.671139	0.900000	0.015225	-0.018983	-0.006897
661	3.302075	0.005000	2.079720	9.731520	-1.883520	-0.788891	-0.670810	0.900000	0.014966	-0.017188	-0.004386
662	3.307075	0.005000	2.001240	9.704646	-1.955817	-0.789220	-0.670481	0.900000	0.015132	-0.023951	-0.000191
663	3.312075	0.005000	2.001240	9.731520	-1.958234	-0.789549	-0.670153	0.900000	-0.004638	-0.019581	0.007863
664	3.317075	0.005000	2.042280	9.692280	-1.844280	-0.789878	-0.669824	0.900000	-0.007157	-0.015730	0.001442
665	3.322075	0.005000	2.157036	9.614964	-1.728305	-0.790207	-0.669495	0.900000	0.003474	-0.013541	0.002036
666	3.327075	0.005000	2.011345	9.689754	-1.878468	-0.790536	-0.669166	0.900000	0.002750	-0.019743	-0.003743
667	3.332075	0.005000	2.001240	9.692280	-1.957070	-0.790865	-0.668837	0.900000	0.006510	-0.016538	-0.006626
668	3.337075	0.005000	2.072459	9.667562	-1.851541	-0.790995	-0.668856	0.899944	0.005230	-0.008561	0.002874
669	3.342075	0.005000	2.001240	9.643750	-1.834990	-0.790886	-0.669295	0.899822	0.006382	-0.003203	-0.006530
670	3.347075	0.005000	1.989683	9.613800	-1.871963	-0.790776	-0.669734	0.899699	-0.002698	-0.010054	-0.005612
671	3.352075	0.005000	1.845964	9.690596	-1.857921	-0.790666	-0.670172	0.899577	-0.001473	-0.004543	-0.008817
672	3.357075	0.005000	1.928101	9.715466	-1.890652	-0.790556	-0.670611	0.899454	-0.001503	-0.009444	-0.008004
673	3.362075	0.005000	2.061722	9.617044	-1.904762	-0.790447	-0.671050	0.899332	0.000264	-0.006022	-0.001960
674	3.367075	0.005000	2.060888	9.673448	-1.940015	-0.790337	-0.671489	0.899209	-0.000801	-0.004212	0.001172
675	3.372075	0.005000	2.035014	9.647574	-1.933691	-0.790227	-0.671928	0.899087	0.001222	-0.008465	0.004259
676	3.377075	0.005000	2.118960	9.741804	-1.858758	-0.790117	-0.672366	0.898964	0.001480	-0.005263	-0.003533
677	3.382075	0.005000	2.053014	9.640506	-1.844280	-0.790008	-0.672805	0.898842	0.008321	-0.014050	-0.001922
678	3.387075	0.005000	2.108840	9.692280	-1.883520	-0.789898	-0.673244	0.898719	0.010801	-0.008515	-0.001033
679	3.392075	0.005000	2.017591	9.706993	-1.837743	-0.789788	-0.673683	0.898597	0.014827	-0.016190	-0.005542
680	3.397075	0.005000	2.101644	9.692280	-2.001240	-0.789678	-0.674122	0.898474	0.010838	-0.012426	0.002504
681	3.402075	0.005000	2.079720	9.653040	-1.962000	-0.789569	-0.674561	0.898352	-0.003596	-0.004778	-0.005463
682	3.407075	0.005000	2.078297	9.578830	-1.922760	-0.789738	-0.674627	0.898333	0.007370	-0.005998	0.002461
683	3.412075	0.005000	1.963041	9.692280	-1.884041	-0.789957	-0.674627	0.898333	-0.006795	-0.012333	-0.009122
684	3.417075	0.005000	2.152323	9.655978	-1.922760	-0.790177	-0.674627	0.898333	0.008393	-0.018286	-0.004077
685	3.422075	0.005000	2.084602	9.653040	-1.962000	-0.790396	-0.674627	0.898333	0.005099	-0.009774	-0.002284
686	3.427075	0.005000	2.047768	9.645752	-1.898095	-0.790615	-0.674627	0.898333	0.007636	-0.015761	-0.000479
687	3.432075	0.005000	2.099779	9.721929	-1.962000	-0.790835	-0.674627	0.898333	0.003273	-0.020461	-0.004154
688	3.437075	0.005000	2.063773	9.759113	-1.962000	-0.791054	-0.674627	0.898333	0.008640	-0.012047	-0.000766
689	3.442075	0.005000	2.065833	9.717633	-1.922760	-0.791273	-0.674627	0.898333	0.008247	-0.019716	0.002532
690	3.447075	0.005000	2.095719	9.560077	-1.876278	-0.791493	-0.674627	0.898333	0.012249	-0.011563	-0.002114
691	3.452075	0.005000	2.140002	9.595602	-1.781154	-0.791712	-0.674627	0.898333	0.001779	-0.014661	-0.002290
692	3.457075	0.005000	2.061053	9.673613	-1.765800	-0.791931	-0.674627	0.898333	0.007845	-0.009004	0.000848
693	3.462075	0.005000	2.001240	9.669514	-1.759508	-0.792151	-0.674627	0.898333	0.003323	-0.010488	-0.004007
694	3.467075	0.005000	2.011738	9.677909	-1.829909	-0.792370	-0.674627	0.898333	0.006968	-0.010747	-0.002115
695	3.472075	0.005000	1.962000	9.707269	-1.805040	-0.792667	-0.674705	0.898333	0.005722	-0.009900	0.000925
696	3.477075	0.005000	1.982119	9.702340	-1.815100	-0.793216	-0.675034	0.898333	0.007271	-0.017400	0.003803
697	3.482075	0.005000	2.080087	9.778535	-1.899069	-0.793765	-0.675363	0.898333	0.000663	-0.015468	0.005868
698	3.487075	0.005000	2.079720	9.770760	-1.967763	-0.794313	-0.675692	0.898333	0.012523	-0.008183	0.005552
699	3.492075	0.005000	2.076306	9.728106	-1.929588	-0.794862	-0.676022	0.898333	0.006300	-0.012865	0.010914
700	3.497075	0.005000	2.002692	9.615252	-1.960548	-0.795410	-0.676351	0.898333	0.008772	-0.009531	-0.005814
701	3.502075	0.005000	2.040480	9.576428	-1.846148	-0.795959	-0.676680	0.898333	0.006948	-0.015361	0.002350
702	3.507075	0.005000	2.033854	9.613800	-1.847593	-0.796507	-0.677009	0.898333	0.004528	-0.015876	0.000002
703	3.512075	0.005000	2.040480	9.647745	-1.844280	-0.797056	-0.677338	0.898333	0.013205	-0.022166	0.001110
704	3.517075	0.005000	2.001240	9.755542	-1.836671	-0.797604	-0.677667	0.898333	0.015859	-0.018515	0.003311
705	3.522075	0.005000	2.030835	9.770760	-1.972304	-0.798153	-0.677996	0.898333	0.007521	-0.018897	-0.002443
706	3.527075	0.005000	2.028560	9.782680	-1.910840	-0.798702	-0.678325	0.898333	0.004149	-0.014577	0.001645
707	3.532075	0.005000	2.015243	9.770760	-1.947997	-0.799250	-0.678654	0.898333	0.009708	-0.009685	-0.011014
708	3.537075	0.005000	2.033673	9.630016	-1.955193	-0.799799	-0.678983	0.898333	0.005897	-0.015303	-0.002388
709	3.542075	0.005000	2.061370	9.650500	-1.867711	-0.799584	-0.678757	0.898488	0.007330	-0.005216	0.001552
710	3.547075	0.005000	2.100233	9.595073	-1.846065	-0.798926	-0.678209	0.898733	0.006989	-0.012231	0.001162
711	3.552075	0.005000	2.102425	9.568390	-1.844280	-0.798268	-0.677660	0.898978	0.012361	-0.014407	0.002001
712	3.557075	0.005000	2.029492	9.642052	-1.830154	-0.797610	-0.677112	0.899223	0.005342	-0.010644	-0.003783
713	3.562075	0.005000	2.082836	9.656156	-1.696245	-0.796952	-0.676564	0.899468	0.013045	-0.022816	0.002162
714	3.567075	0.005000	1.883352	9.692280	-1.912992	-0.796294	-0.676016	0.899713	0.016946	-0.006436	-0.002795
715	3.572075	0.005000	2.008601	9.738881	-1.954639	-0.795636	-0.675468	0.899958	0.018377	-0.006453	-0.000280
716	3.577075	0.005000	2.085138	9.776178	-1.838862	-0.794978	-0.674919	0.900203	0.012289	-0.016470	0.003638
717	3.582075	0.005000	2.088722	9.773761	-1.762799	-0.794320	-0.674371	0.900448	0.012108	-0.008236	-0.007141
718	3.587075	0.005000	2.158200	9.729407	-1.729729	-0.793662	-0.673823	0.900693	0.008448	-0.010142	0.003958
719	3.592075	0.005000	2.006565	9.766766	-1.806371	-0.793004	-0.673275	0.900938	0.009207	-0.005124	-0.008754
720	3.597075	0.005000	2.079720	9.698863	-1.840988	-0.792346	-0.672726	0.901183	0.014144	-0.007397	-0.000162
721	3.602075	0.005000	2.040480	9.731520	-2.001240	-0.791688	-0.672178	0.901427	0.003114	-0.004009	0.009355
722	3.607075	0.005000	1.914079	9.660680	-1.883520	-0.791060	-0.671637	0.901667	0.006393	-0.002841	0.005628
723	3.612075	0.005000	1.912821	9.594437	-1.844280	-0.791718	-0.671418	0.901667	0.013199	-0.007478	-0.009235
724	3.617075	0.005000	1.962000	9.704279	-1.938003	-0.792376	-0.671198	0.901667	0.019707	-0.001168	0.002473
725	3.622075	0.005000	2.094127	9.681854	-1.769781	-0.793034	-0.670979	0.901667	0.014186	-0.015666	0.007335
726	3.627075	0.005000	2.118960	9.613800	-1.867169	-0.793693	-0.670759	0.901667	0.015412	-0.009590	0.007714
727	3.632075	0.005000	2.120674	9.712757	-1.803326	-0.794351	-0.670540	0.901667	0.023074	-0.016963	-0.002828
728	3.637075	0.005000	2.142483	9.710599	-1.799836	-0.795009	-0.670321	0.901667	0.009041	-0.015387	-0.003684
729	3.642075	0.005000	2.118960	9.715398	-1.883520	-0.795667	-0.670101	0.901667	0.013153	-0.006958	0.001792
730	3.647075	0.005000	2.015248	9.692280	-1.844280	-0.796325	-0.669882	0.901667	0.009094	-0.017883	0.004493
731	3.652075	0.005000	1.965933	9.719751	-1.867818	-0.796984	-0.669662	0.901667	0.015811	-0.011061	0.004224
732	3.657075	0.005000	1.883520	9.662395	-1.803218	-0.797642	-0.669443	0.901667	0.026958	-0.009273	-0.000616
733	3.662075	0.005000	1.986420	9.731520	-1.962000	-0.798300	-0.669224	0.901667	0.018411	-0.011557	0.008308
734	3.667075	0.005000	1.922760	9.692280	-1.967004	-0.798958	-0.669004	0.901667	0.017040	-0.003952	-0.002074
735	3.672075	0.005000	1.880495	9.656065	-1.916709	-0.799617	-0.668785	0.901667	0.011393	-0.006997	0.003184
736	3.677075	0.005000	2.039164	9.693596	-1.882862	-0.799679	-0.668794	0.901616	0.015082	-0.006340	-0.005550
737	3.682075	0.005000	1.924046	9.770760	-1.844280	-0.798911	-0.669123	0.901493	0.027750	-0.015969	0.002443
738	3.687075	0.005000	2.033073	9.692280	-1.954593	-0.798143	-0.669453	0.901371	0.022996	-0.010696	-0.007325
739	3.692075	0.005000	1.995593	9.720225	-1.883520	-0.797376	-0.669782	0.901248	0.019437	-0.004859	-0.004026
740	3.697075	0.005000	1.993187	9.676174	-1.860386	-0.796608	-0.670111	0.901126	0.023863	-0.011606	0.003758
741	3.702075	0.005000	1.972347	9.731520	-1.883520	-0.795840	-0.670440	0.901003	0.024666	-0.015364	0.000399
742	3.707075	0.005000	1.869103	9.704692	-1.910348	-0.795072	-0.670769	0.900881	0.026025	-0.010882	0.005733
743	3.712075	0.005000	1.937403	9.706923	-1.932714	-0.794304	-0.671098	0.900758	0.023084	-0.007025	-0.004435
744	3.717075	0.005000	1.967711	9.709045	-1.905995	-0.793536	-0.671427	0.900636	0.023174	-0.014772	0.004199
745	3.722075	0.005000	2.020194	9.575891	-1.841618	-0.792768	-0.671756	0.900513	0.020829	-0.007839	0.001179
746	3.727075	0.005000	2.079720	9.616800	-1.786920	-0.792000	-0.672085	0.900391	0.022733	-0.008541	-0.006840
747	3.732075	0.005000	1.969824	9.621624	-1.781508	-0.791232	-0.672414	0.900268	0.018326	-0.007279	0.002026
748	3.737075	0.005000	1.975764	9.602088	-1.858044	-0.790464	-0.672743	0.900145	0.021481	-0.007546	-0.000953
749	3.742075	0.005000	2.040480	9.759067	-1.844280	-0.789696	-0.673072	0.900023	0.025526	-0.005885	-0.001571
750	3.747075	0.005000	2.100128	9.712688	-1.825448	-0.790443	-0.674293	0.902588	0.017992	-0.003843	-0.002269
751	3.752075	0.005000	2.008249	9.632012	-1.844280	-0.791540	-0.675718	0.905771	0.022517	-0.008332	0.003781
752	3.757075	0.005000	2.069589	9.584691	-1.883520	-0.792637	-0.677144	0.908955	0.024152	-0.009388	0.008078
753	3.762075	0.005000	2.082369	9.689631	-1.886169	-0.793733	-0.678569	0.912139	0.017569	-0.000115	0.003209
754	3.767075	0.005000	2.194623	9.575264	-1.922760	-0.794830	-0.679995	0.915322	0.020844	-0.007875	0.005473
755	3.772075	0.005000	2.040480	9.688922	-1.810077	-0.795926	-0.681420	0.918506	0.018262	-0.006543	0.003922
756	3.777075	0.005000	2.222105	9.653040	-2.022261	-0.797023	-0.682846	0.921690	0.031341	-0.012401	-0.001796
757	3.782075	0.005000	2.058451	9.698270	-1.928750	-0.798120	-0.684271	0.924873	0.017610	-0.002902	-0.005069
758	3.787075	0.005000	2.110956	9.669048	-1.977228	-0.799216	-0.685697	0.928057	0.008820	-0.011241	0.001806
759	3.792075	0.005000	1.982573	9.642753	-1.990953	-0.800313	-0.687123	0.931241	0.016102	-0.015052	0.007180
760	3.797075	0.005000	2.003414	9.653040	-2.057183	-0.801409	-0.688548	0.934424	0.011208	-0.004460	0.000483
761	3.802075	0.005000	2.064951	9.716751	-1.952297	-0.802506	-0.689974	0.937608	0.007676	-0.008425	0.007811
762	3.807075	0.005000	2.001240	9.675568	-1.922760	-0.803603	-0.691399	0.940792	0.005611	-0.006778	0.005083
763	3.812075	0.005000	2.039470	9.692280	-1.844280	-0.804257	-0.692249	0.942740	0.008379	-0.006902	0.004165
764	3.817075	0.005000	2.019211	9.649742	-1.901491	-0.803159	-0.690823	0.939799	-0.001820	-0.003619	0.001012
765	3.822075	0.005000	2.134729	9.653040	-1.899289	-0.802062	-0.689397	0.936859	-0.001033	-0.008917	-0.003861
766	3.827075	0.005000	2.105300	9.600140	-1.857940	-0.800965	-0.687971	0.933919	0.006416	-0.021109	0.003168
767	3.832075	0.005000	2.091137	9.574560	-1.911343	-0.799868	-0.686544	0.930979	0.000279	-0.014577	0.000871
768	3.837075	0.005000	2.040480	9.622802	-1.934993	-0.798771	-0.685118	0.928039	-0.002710	-0.010652	-0.000228
769	3.842075	0.005000	2.047538	9.638924	-1.908644	-0.797674	-0.683692	0.925099	-0.004460	-0.008642	0.002063
770	3.847075	0.005000	2.158200	9.618452	-1.844280	-0.796577	-0.682266	0.922158	-0.012646	-0.014878	-0.002984
771	3.852075	0.005000	2.003918	9.647685	-1.849635	-0.795480	-0.680840	0.919218	-0.007979	-0.012914	0.002448
772	3.857075	0.005000	2.080593	9.653331	-1.883811	-0.794382	-0.679413	0.916278	-0.011116	-0.009834	-0.004890
773	3.862075	0.005000	2.159853	9.729867	-1.847586	-0.793285	-0.677987	0.913338	-0.003451	-0.009763	-0.004421
774	3.867075	0.005000	2.087737	9.590595	-1.879511	-0.792188	-0.676561	0.910398	-0.003536	-0.009216	0.002550
775	3.872075	0.005000	2.079720	9.641037	-1.922760	-0.791091	-0.675135	0.907457	-0.008277	-0.017427	-0.002896
776	3.877075	0.005000	2.149880	9.768400	-1.897800	-0.789994	-0.673708	0.904517	-0.012711	-0.016446	0.001057
777	3.882075	0.005000	2.100419	9.760410	-1.962000	-0.789879	-0.673069	0.903406	-0.011696	-0.012396	-0.015975
778	3.887075	0.005000	2.026472	9.704896	-1.935376	-0.790428	-0.672959	0.903529	-0.003694	-0.009114	0.008449
779	3.892075	0.005000	2.069895	9.682455	-1.922760	-0.790976	-0.672849	0.903651	-0.009920	-0.012359	0.000099
780	3.897075	0.005000	2.001240	9.692280	-1.861192	-0.791524	-0.672740	0.903774	-0.007165	-0.019641	0.008799
781	3.902075	0.005000	1.921642	9.712459	-1.922760	-0.792073	-0.672630	0.903896	-0.007724	-0.013122	0.004456
782	3.907075	0.005000	1.940777	9.734727	-1.790230	-0.792621	-0.672520	0.904019	-0.001022	-0.018855	0.004170
783	3.912075	0.005000	2.001240	9.637215	-1.812631	-0.793169	-0.672411	0.904141	-0.004276	-0.017257	0.003435
784	3.917075	0.005000	2.040480	9.678868	-1.818452	-0.793718	-0.672301	0.904263	-0.006665	-0.012703	0.000490
785	3.922075	0.005000	1.927598	9.703747	-1.749495	-0.794266	-0.672192	0.904386	0.006373	-0.013175	0.006940
786	3.927075	0.005000	1.853340	9.701340	-1.874460	-0.794814	-0.672082	0.904508	-0.004808	-0.012843	0.003942
787	3.932075	0.005000	1.922760	9.699314	-1.844280	-0.795363	-0.671972	0.904631	-0.001310	-0.010750	-0.003902
788	3.937075	0.005000	2.035780	9.766060	-1.878820	-0.795911	-0.671863	0.904753	0.007446	-0.011653	0.002958
789	3.942075	0.005000	2.079720	9.763873	-1.848871	-0.796459	-0.671753	0.904876	0.007605	-0.008363	-0.001659
790	3.947075	0.005000	2.000888	9.653744	-1.843224	-0.797007	-0.671644	0.904998	0.009449	-0.014531	0.008214
791	3.952075	0.005000	1.999213	9.768733	-1.838199	-0.796366	-0.671317	0.904517	0.007106	-0.009034	0.003102
792	3.957075	0.005000	2.150208	9.806004	-1.821024	-0.795708	-0.670988	0.904027	0.015577	-0.014049	-0.001040
793	3.962075	0.005000	2.046892	9.698692	-1.883520	-0.795049	-0.670659	0.903537	0.009221	-0.011445	0.001556
794	3.967075	0.005000	1.992884	9.762404	-1.992884	-0.794391	-0.670330	0.903047	0.010590	-0.005727	-0.006049
795	3.972075	0.005000	2.029717	9.810000	-1.837329	-0.793733	-0.670001	0.902556	0.017260	-0.010565	0.008132
796	3.977075	0.005000	2.093545	9.692280	-1.765800	-0.793075	-0.669672	0.902066	0.016249	-0.007758	0.005987
797	3.982075	0.005000	2.094841	9.692280	-1.898641	-0.792416	-0.669342	0.901576	0.022520	-0.012956	0.005937
798	3.987075	0.005000	2.057544	9.726408	-1.878408	-0.791758	-0.669013	0.901086	0.017994	-0.007166	0.005902
799	3.992075	0.005000	1.902704	9.731229	-1.844280	-0.791100	-0.668684	0.900596	0.024613	-0.004748	0.009307
800	3.997075	0.005000	2.036456	9.692280	-1.865912	-0.790442	-0.668355	0.900106	0.026835	-0.001301	0.003420
801	4.002075	0.005000	2.134371	9.716109	-1.883520	-0.789784	-0.668026	0.899616	0.026408	-0.000715	-0.004368
802	4.007075	0.005000	2.105648	9.744136	-1.922064	-0.789125	-0.667697	0.899126	0.027755	-0.010418	-0.001567
803	4.012075	0.005000	2.046558	9.641986	-1.866388	-0.788467	-0.667368	0.898636	0.029000	-0.003092	0.002757
804	4.017075	0.005000	1.962000	9.662056	-1.814056	-0.788060	-0.667248	0.898286	0.038228	-0.005725	0.000386
805	4.022075	0.005000	2.014652	9.678868	-1.837574	-0.788060	-0.667467	0.898164	0.022190	-0.005491	0.003105
806	4.027075	0.005000	2.084481	9.657801	-1.834757	-0.788060	-0.667686	0.898041	0.029652	-0.001884	-0.000365
807	4.032075	0.005000	2.155843	9.729163	-1.844280	-0.788060	-0.667906	0.897919	0.023890	-0.008163	0.003453
808	4.037075	0.005000	2.040480	9.652214	-1.805866	-0.788060	-0.668125	0.897797	0.020101	-0.003542	0.001709
809	4.042075	0.005000	2.040480	9.686335	-1.809003	-0.788060	-0.668344	0.897674	0.031895	-0.006387	-0.001218
810	4.047075	0.005000	2.154252	9.656988	-1.922760	-0.788060	-0.668564	0.897552	0.024764	-0.004908	0.006660
811	4.052075	0.005000	2.170756	9.653040	-2.021647	-0.788060	-0.668783	0.897429	0.026741	-0.007779	-0.001129
812	4.057075	0.005000	2.096316	9.683982	-1.962000	-0.788060	-0.669002	0.897307	0.023134	-0.009278	0.011195
813	4.062075	0.005000	2.158200	9.645567	-1.912171	-0.788060	-0.669221	0.897185	0.018418	-0.006933	-0.004309
814	4.067075	0.005000	2.106303	9.653040	-1.921490	-0.788060	-0.669441	0.897062	0.028088	-0.006221	-0.002186
815	4.072075	0.005000	1.947115	9.653040	-1.922760	-0.788060	-0.669660	0.896940	0.024673	-0.002738	0.000489
816	4.077075	0.005000	2.018250	9.675270	-1.951558	-0.788060	-0.669879	0.896817	0.028291	-0.006911	0.006028
817	4.082075	0.005000	2.020436	9.672236	-1.922760	-0.788060	-0.670099	0.896695	0.018734	-0.004623	0.004721
818	4.087075	0.005000	2.040480	9.734995	-1.886995	-0.788060	-0.670318	0.897517	0.025851	0.002062	-0.011216
819	4.092075	0.005000	2.024733	9.676533	-1.820787	-0.788060	-0.670538	0.898619	0.025668	-0.007566	0.007412
820	4.097075	0.005000	1.934942	9.653040	-1.962000	-0.788060	-0.670757	0.899722	0.019795	-0.007932	-0.002511
821	4.102075	0.005000	1.984230	9.692280	-1.990125	-0.788060	-0.670976	0.900825	0.029655	-0.005823	-0.000916
822	4.107075	0.005000	2.010411	9.643869	-2.022138	-0.788060	-0.671196	0.901927	0.027102	-0.011858	-0.003321
823	4.112075	0.005000	2.059427	9.659804	-1.883520	-0.788060	-0.671415	0.903030	0.028856	-0.008884	-0.000186
824	4.117075	0.005000	1.858742	9.726699	-1.893162	-0.788060	-0.671635	0.904132	0.027547	-0.012686	0.007102
825	4.122075	0.005000	1.927567	9.645829	-1.853895	-0.788060	-0.671854	0.905235	0.024068	-0.010340	0.002300
826	4.127075	0.005000	2.040480	9.653040	-1.960163	-0.788060	-0.672073	0.906337	0.028699	-0.014541	0.001457
827	4.132075	0.005000	2.115118	9.615721	-1.879678	-0.788060	-0.672293	0.907440	0.021965	-0.011660	-0.010239
828	4.137075	0.005000	2.083609	9.653040	-1.883520	-0.788060	-0.672512	0.908542	0.026107	-0.005910	-0.006747
829	4.142075	0.005000	2.007545	9.646735	-1.877215	-0.788060	-0.672732	0.909645	0.014051	0.002823	-0.000869
830	4.147075	0.005000	1.947507	9.622049	-1.931009	-0.788060	-0.672951	0.910747	0.020723	-0.006748	0.004396
831	4.152075	0.005000	2.001240	9.710208	-1.904832	-0.788042	-0.673170	0.911565	0.021789	-0.008380	0.005279
832	4.157075	0.005000	2.026431	9.731520	-1.976049	-0.787932	-0.673390	0.910953	0.024855	0.000660	-0.000526
833	4.162075	0.005000	2.046252	9.668044	-1.931992	-0.787822	-0.673609	0.910341	0.029947	-0.008902	-0.003810
834	4.167075	0.005000	2.079720	9.714572	-1.900468	-0.787713	-0.673828	0.909728	0.029239	-0.004747	0.003027
835	4.172075	0.005000	2.060881	9.672920	-1.902880	-0.787603	-0.674048	0.909116	0.025412	-0.000703	-0.004185
836	4.177075	0.005000	1.979729	9.731520	-1.883520	-0.787493	-0.674267	0.908504	0.017774	-0.005230	0.001006
837	4.182075	0.005000	2.079720	9.731520	-1.946475	-0.787384	-0.674486	0.907892	0.013729	-0.007258	-0.001760
838	4.187075	0.005000	2.106556	9.678862	-1.922760	-0.787274	-0.674706	0.907279	0.013531	-0.008662	0.003693
839	4.192075	0.005000	2.096616	9.596904	-1.956276	-0.787164	-0.674925	0.906667	0.006439	-0.005522	-0.003880
840	4.197075	0.005000	2.040480	9.671283	-2.019483	-0.787055	-0.675144	0.906055	0.013359	-0.011824	0.012002
841	4.202075	0.005000	2.033667	9.653040	-1.973988	-0.786945	-0.675364	0.905442	0.011251	-0.006534	-0.002324
842	4.207075	0.005000	2.045290	9.682659	-1.888330	-0.786835	-0.675583	0.904830	0.005898	-0.012092	-0.010654
843	4.212075	0.005000	2.006168	9.653040	-1.922760	-0.786725	-0.675802	0.904218	0.015595	-0.011176	0.001258
844	4.217075	0.005000	2.119006	9.574606	-1.883566	-0.786616	-0.676021	0.903605	0.014836	-0.009120	-0.000573
845	4.222075	0.005000	2.232914	9.576443	-1.848046	-0.786932	-0.675997	0.903197	0.015796	-0.014756	-0.000667
846	4.227075	0.005000	2.170952	9.583061	-1.957749	-0.787591	-0.675778	0.902952	0.007986	-0.011085	-0.006545
847	4.232075	0.005000	2.059212	9.607556	-1.994996	-0.788249	-0.675558	0.902707	-0.000395	-0.020117	-0.002850
848	4.237075	0.005000	2.110310	9.622450	-1.852930	-0.788907	-0.675339	0.902462	0.005056	-0.017494	0.005459
849	4.242075	0.005000	2.029885	9.681685	-1.922760	-0.789565	-0.675120	0.902217	0.011781	-0.010996	0.003141
850	4.247075	0.005000	2.027471	9.653040	-1.948777	-0.790224	-0.674900	0.901972	-0.000472	-0.013445	0.012281
851	4.252075	0.005000	2.118960	9.677047	-1.813814	-0.790882	-0.674681	0.901727	-0.002942	-0.012044	0.003434
852	4.257075	0.005000	2.075203	9.674918	-1.839763	-0.791540	-0.674461	0.901482	-0.004502	-0.016348	-0.005404
853	4.262075	0.005000	2.060327	9.672433	-1.863824	-0.792198	-0.674242	0.901237	-0.013443	-0.015506	0.009979
854	4.267075	0.005000	2.044673	9.653040	-1.896850	-0.792856	-0.674023	0.900992	-0.009036	-0.013212	-0.003675
855	4.272075	0.005000	1.907360	9.668440	-1.953559	-0.793515	-0.673803	0.900747	0.000322	-0.015268	0.003537
856	4.277075	0.005000	2.001500	9.666207	-1.962000	-0.794173	-0.673584	0.900502	-0.009655	-0.011487	-0.000469
857	4.282075	0.005000	2.107872	9.613800	-1.962000	-0.794831	-0.673364	0.900257	-0.009007	-0.014050	0.000690
858	4.287075	0.005000	1.970819	9.622619	-1.992421	-0.795489	-0.673145	0.900012	-0.005662	-0.009721	-0.004963
859	4.292075	0.005000	2.079720	9.692280	-1.902384	-0.795313	-0.673134	0.900000	-0.014186	-0.016669	-0.006442
860	4.297075	0.005000	2.114491	9.696749	-1.887989	-0.795094	-0.673134	0.900000	-0.004787	-0.021180	0.006034
861	4.302075	0.005000	2.006232	9.655536	-1.922760	-0.794875	-0.673134	0.900000	-0.008896	-0.016061	-0.006945
862	4.307075	0.005000	2.118746	9.731627	-1.922653	-0.794655	-0.673134	0.900000	-0.006201	-0.016856	0.006256
863	4.312075	0.005000	1.965673	9.770760	-1.920923	-0.794436	-0.673134	0.900000	-0.006905	-0.012642	0.000783
864	4.317075	0.005000	1.974723	9.700762	-1.935483	-0.794216	-0.673134	0.900000	-0.007898	-0.014062	0.007450
865	4.322075	0.005000	2.034295	9.731520	-1.844280	-0.793997	-0.673134	0.900000	-0.010963	-0.009682	0.004721
866	4.327075	0.005000	1.987803	9.700881	-1.835679	-0.793778	-0.673134	0.900000	-0.013634	-0.009523	-0.008588
867	4.332075	0.005000	2.029604	9.759884	-1.855156	-0.793558	-0.673134	0.900000	-0.003492	-0.023791	0.006906
868	4.337075	0.005000	1.975335	9.731137	-1.805040	-0.793339	-0.673134	0.900000	-0.011247	-0.009601	-0.000831
869	4.342075	0.005000	2.055668	9.707468	-1.883520	-0.793119	-0.673134	0.900000	-0.004802	-0.014465	-0.005010
870	4.347075	0.005000	2.092407	9.770760	-1.883520	-0.792900	-0.673134	0.900000	-0.005202	-0.019466	-0.000998
871	4.352075	0.005000	2.060236	9.751276	-1.824796	-0.792681	-0.673134	0.900000	0.006038	-0.014162	-0.006946
872	4.357075	0.005000	2.058056	9.713944	-1.887608	-0.792651	-0.673323	0.900000	-0.001516	-0.010962	-0.006175
873	4.362075	0.005000	2.016412	9.707452	-1.798763	-0.792980	-0.673872	0.900000	-0.001270	-0.009864	-0.009627
874	4.367075	0.005000	2.014024	9.731520	-1.726560	-0.793309	-0.674420	0.900000	0.012096	-0.014356	0.002201
875	4.372075	0.005000	2.001240	9.663860	-1.833460	-0.793638	-0.674968	0.900000	0.000931	-0.006109	-0.008719
876	4.377075	0.005000	2.018993	9.701156	-1.783553	-0.793967	-0.675517	0.900000	-0.003650	-0.011636	-0.002378
877	4.382075	0.005000	2.021097	9.653040	-1.837819	-0.794296	-0.676065	0.900000	0.006720	-0.016348	0.007941
878	4.387075	0.005000	1.975550	9.657557	-1.770317	-0.794625	-0.676613	0.900000	0.002350	-0.012300	-0.001490
879	4.392075	0.005000	2.114736	9.657264	-1.920648	-0.794954	-0.677162	0.900000	0.001171	-0.017243	0.005809
880	4.397075	0.005000	2.001408	9.731183	-1.961832	-0.795283	-0.677710	0.900000	0.000398	-0.013486	-0.004040
881	4.402075	0.005000	2.077496	9.653040	-1.922760	-0.795612	-0.678258	0.900000	0.016096	-0.017093	0.001956
882	4.407075	0.005000	1.935340	9.762373	-1.852667	-0.795941	-0.678807	0.900000	0.010030	-0.017697	-0.004064
883	4.412075	0.005000	2.007839	9.738119	-1.876921	-0.796270	-0.679355	0.900000	0.020051	-0.019573	-0.006156
884	4.417075	0.005000	2.023394	9.683737	-1.900606	-0.796599	-0.679903	0.900000	0.034319	-0.007084	-0.007161
885	4.422075	0.005000	1.972958	9.653040	-1.833322	-0.796928	-0.680452	0.900000	0.021456	-0.006885	0.000941
886	4.427075	0.005000	1.922760	9.692280	-1.805040	-0.797096	-0.680194	0.900000	0.030158	-0.010328	-0.001974
887	4.432075	0.005000	1.946696	9.661672	-1.876847	-0.797205	-0.679645	0.900000	0.022167	-0.005535	0.005436
888	4.437075	0.005000	1.983738	9.714018	-1.861782	-0.797315	-0.679097	0.900000	0.043315	-0.003971	-0.009930
889	4.442075	0.005000	1.981582	9.672698	-1.746218	-0.797425	-0.678548	0.900000	0.025989	-0.002113	0.001690
890	4.447075	0.005000	2.023053	9.574560	-1.787613	-0.797534	-0.678000	0.900000	0.020886	-0.001001	-0.001684
891	4.452075	0.005000	2.064492	9.637812	-1.829052	-0.797644	-0.677451	0.900000	0.022159	-0.002144	0.006490
892	4.457075	0.005000	1.974979	9.626930	-1.909630	-0.797754	-0.676903	0.900000	0.021641	-0.002959	0.000200
893	4.462075	0.005000	1.911890	9.692280	-1.883520	-0.797863	-0.676354	0.900000	0.025163	-0.011450	-0.000399
894	4.467075	0.005000	1.892339	9.692280	-1.805040	-0.797973	-0.675805	0.900000	0.031811	-0.000636	0.001783
895	4.472075	0.005000	1.935799	9.770760	-1.805040	-0.798083	-0.675257	0.900000	0.027878	-0.004286	0.002896
896	4.477075	0.005000	2.036377	9.797691	-1.836074	-0.798192	-0.674708	0.900000	0.030939	-0.010872	0.007709
897	4.482075	0.005000	2.077561	9.653040	-1.765800	-0.798302	-0.674160	0.900000	0.033198	-0.002560	-0.001997
898	4.487075	0.005000	2.040480	9.692038	-1.882794	-0.798412	-0.673611	0.900000	0.041291	-0.001959	0.005443
899	4.492075	0.005000	1.959811	9.770760	-1.770179	-0.798664	-0.673234	0.900302	0.028870	-0.002060	-0.003724
900	4.497075	0.005000	2.031294	9.696873	-1.844280	-0.799870	-0.674001	0.902629	0.036394	-0.013463	-0.007181
901	4.502075	0.005000	2.105885	9.698817	-1.726560	-0.801076	-0.674769	0.904956	0.024153	0.000173	-0.001363
902	4.507075	0.005000	2.061814	9.704661	-1.787134	-0.802283	-0.675537	0.907282	0.014513	-0.003410	-0.000916
903	4.512075	0.005000	2.169424	9.653040	-1.922760	-0.803489	-0.676304	0.909609	0.028608	-0.008144	0.005328
904	4.517075	0.005000	2.132265	9.665671	-1.987935	-0.804695	-0.677072	0.911936	0.028148	-0.011486	-0.003457
905	4.522075	0.005000	1.953831	9.724153	-1.914591	-0.805901	-0.677840	0.914262	0.031960	-0.009820	-0.003437
906	4.527075	0.005000	2.026737	9.688362	-1.883520	-0.807108	-0.678607	0.916589	0.031452	-0.001909	0.002849
907	4.532075	0.005000	2.058745	9.632968	-1.825112	-0.808314	-0.679375	0.918915	0.036384	-0.005227	-0.004270
908	4.537075	0.005000	2.074516	9.574560	-1.905742	-0.809520	-0.680142	0.921242	0.033583	-0.013472	-0.004236
909	4.542075	0.005000	2.079720	9.638226	-1.814651	-0.810726	-0.680910	0.923569	0.031101	-0.008096	-0.007841
910	4.547075	0.005000	2.106559	9.599362	-1.937198	-0.811933	-0.681678	0.925895	0.030695	-0.010502	0.001922
911	4.552075	0.005000	2.110716	9.595224	-1.836036	-0.813139	-0.682445	0.928222	0.015041	-0.000545	-0.004204
912	4.557075	0.005000	2.181340	9.661090	-1.789950	-0.814345	-0.683213	0.930548	0.019422	-0.004013	-0.006275
913	4.562075	0.005000	2.074086	9.647406	-1.883520	-0.814185	-0.683126	0.930458	0.021244	-0.003863	-0.004519
914	4.567075	0.005000	2.076059	9.621122	-1.919099	-0.812758	-0.682249	0.928131	0.003181	-0.011174	-0.000574
915	4.572075	0.005000	2.040480	9.770760	-1.886092	-0.811332	-0.681371	0.925803	0.018630	-0.008042	-0.002174
916	4.577075	0.005000	2.116751	9.770760	-1.923864	-0.809906	-0.680493	0.923475	0.014461	-0.010071	0.000924
917	4.582075	0.005000	2.046604	9.770760	-1.850404	-0.808480	-0.679616	0.921148	0.020473	-0.011120	0.004756
918	4.587075	0.005000	2.102523	9.703238	-1.849759	-0.807053	-0.678738	0.918820	0.010862	-0.005670	0.009251
919	4.592075	0.005000	2.189649	9.700071	-1.812831	-0.805627	-0.677860	0.916492	0.016392	-0.011743	0.004344
920	4.597075	0.005000	2.050309	9.702109	-2.020822	-0.804201	-0.676983	0.914165	0.013601	-0.011029	0.004238
921	4.602075	0.005000	2.016276	9.677244	-2.067618	-0.802775	-0.676105	0.911837	0.012897	-0.005064	-0.001647
922	4.607075	0.005000	2.118960	9.742386	-1.962000	-0.801349	-0.675228	0.909509	0.009849	-0.009680	0.006648
923	4.612075	0.005000	2.011789	9.725472	-1.883520	-0.799922	-0.674350	0.907182	0.001831	-0.000880	0.002881
924	4.617075	0.005000	2.139412	9.673492	-1.943212	-0.798496	-0.673472	0.904854	0.005205	-0.010146	-0.000514
925	4.622075	0.005000	2.098009	9.613800	-1.922760	-0.797070	-0.672595	0.902526	0.000174	-0.010803	-0.000094
926	4.627075	0.005000	2.056357	9.637163	-2.001240	-0.795644	-0.671717	0.900199	-0.007950	-0.006109	-0.007730
927	4.632075	0.005000	2.105028	9.666972	-1.911385	-0.794820	-0.671642	0.900336	-0.001190	-0.007535	-0.004649
928	4.637075	0.005000	2.118960	9.703809	-1.966654	-0.794052	-0.671642	0.900704	-0.004711	0.000182	-0.010756
929	4.642075	0.005000	2.010710	9.692280	-1.971470	-0.793284	-0.671642	0.901071	-0.005350	-0.007615	0.000875
930	4.647075	0.005000	2.094075	9.731520	-1.947645	-0.792516	-0.671642	0.901439	0.006055	-0.008858	-0.001744
931	4.652075	0.005000	2.192679	9.692280	-1.888281	-0.791748	-0.671642	0.901806	-0.000331	-0.007264	-0.006403
932	4.657075	0.005000	2.152633	9.697847	-1.807823	-0.790980	-0.671642	0.902174	0.011414	-0.009613	0.004325
933	4.662075	0.005000	2.079307	9.653866	-1.844280	-0.790212	-0.671642	0.902541	0.000402	-0.010385	-0.004971
934	4.667075	0.005000	2.040480	9.731520	-1.918797	-0.789444	-0.671642	0.902909	0.008270	-0.012711	0.003924
935	4.672075	0.005000	2.001240	9.660937	-1.887468	-0.788677	-0.671642	0.903276	-0.001055	-0.008588	0.001864
936	4.677075	0.005000	2.001240	9.508787	-1.850634	-0.787909	-0.671642	0.903644	-0.004621	-0.011315	0.000557
937	4.682075	0.005000	1.947654	9.574560	-1.875222	-0.787141	-0.671642	0.904011	0.010739	-0.014948	0.004290
938	4.687075	0.005000	1.990527	9.506793	-1.844280	-0.786373	-0.671642	0.904379	-0.009638	-0.014122	-0.002878
939	4.692075	0.005000	2.014204	9.666352	-1.857592	-0.785605	-0.671642	0.904746	0.009223	-0.012824	0.008913
940	4.697075	0.005000	2.025415	9.701390	-1.889476	-0.785279	-0.671710	0.904848	0.003798	-0.009460	0.003847
941	4.702075	0.005000	2.018515	9.709555	-1.888209	-0.785937	-0.671929	0.904358	0.004243	-0.018969	-0.000973
942	4.707075	0.005000	2.119358	9.691882	-1.903339	-0.786595	-0.672149	0.903868	-0.008467	-0.013537	-0.004606
943	4.712075	0.005000	2.097128	9.692280	-1.792057	-0.787254	-0.672368	0.903378	0.002858	-0.007178	0.003425
944	4.717075	0.005000	2.025007	9.731520	-1.772978	-0.787912	-0.672588	0.902888	0.006426	-0.013401	0.001023
945	4.722075	0.005000	2.014612	9.639668	-1.818412	-0.788570	-0.672807	0.902398	-0.006217	-0.009905	0.000523
946	4.727075	0.005000	2.018250	9.624915	-1.844280	-0.789228	-0.673026	0.901908	0.007793	-0.016355	0.006562
947	4.732075	0.005000	1.948884	9.622508	-1.752684	-0.789886	-0.673246	0.901418	0.001395	-0.011300	-0.001660
948	4.737075	0.005000	2.079720	9.699044	-1.811804	-0.790545	-0.673465	0.900928	0.009049	-0.022248	0.004039
949	4.742075	0.005000	1.922760	9.583256	-1.848628	-0.791203	-0.673685	0.900438	0.003650	-0.015671	0.004724
950	4.747075	0.005000	2.001240	9.650636	-1.881116	-0.791861	-0.673904	0.899948	0.010071	-0.003790	0.000125
951	4.752075	0.005000	2.001240	9.574560	-1.883520	-0.792519	-0.674123	0.899458	0.007087	-0.009448	0.011252
952	4.757075	0.005000	2.154311	9.615744	-1.965889	-0.793178	-0.674343	0.898968	0.005091	-0.011897	-0.000930
953	4.762075	0.005000	2.049203	9.696642	-1.927122	-0.793836	-0.674562	0.898478	0.003143	-0.014745	0.004095
954	4.767075	0.005000	1.929065	9.698585	-1.811345	-0.793412	-0.674550	0.898333	0.002553	-0.012327	0.008366
955	4.772075	0.005000	1.918366	9.679174	-1.931471	-0.792534	-0.674440	0.898333	0.014439	-0.008151	-0.000034
956	4.777075	0.005000	1.979928	9.720864	-1.901448	-0.791657	-0.674330	0.898333	0.009959	-0.020810	0.007563
957	4.782075	0.005000	2.079781	9.718460	-1.909639	-0.790780	-0.674221	0.898333	0.003228	-0.008953	-0.003240
958	4.787075	0.005000	2.040480	9.731520	-1.922760	-0.789903	-0.674111	0.898333	0.009115	-0.009764	0.007620
959	4.792075	0.005000	2.079720	9.613800	-1.966408	-0.789025	-0.674001	0.898333	0.001013	-0.006890	0.004482
960	4.797075	0.005000	2.020653	9.653453	-1.844280	-0.788148	-0.673892	0.898333	0.007977	-0.008637	0.005936
961	4.802075	0.005000	2.040480	9.631269	-1.844280	-0.787271	-0.673782	0.898333	0.000499	-0.012269	0.003717
962	4.807075	0.005000	2.070599	9.653040	-1.898579	-0.786394	-0.673672	0.898333	0.005705	-0.014897	0.003527
963	4.812075	0.005000	2.014356	9.757644	-1.831164	-0.785516	-0.673562	0.898333	0.017789	-0.015627	-0.003760
964	4.817075	0.005000	2.029778	9.642338	-1.969135	-0.784639	-0.673453	0.898333	0.015195	-0.009437	-0.006167
965	4.822075	0.005000	2.079720	9.700933	-1.883520	-0.783762	-0.673343	0.898333	0.007782	-0.008180	0.006737
966	4.827075	0.005000	2.027778	9.673226	-1.844280	-0.782885	-0.673233	0.898333	0.015735	-0.008026	0.004439
967	4.832075	0.005000	2.105890	9.544033	-1.874807	-0.782121	-0.673144	0.898345	0.011819	-0.017132	0.004483
968	4.837075	0.005000	2.001240	9.613800	-1.924750	-0.782450	-0.673254	0.898467	0.005179	-0.012649	0.001090
969	4.842075	0.005000	2.079811	9.692235	-2.040525	-0.782779	-0.673364	0.898589	0.011515	-0.005525	0.004010
970	4.847075	0.005000	2.121318	9.689922	-1.932191	-0.783108	-0.673473	0.898712	0.019734	-0.014142	0.005521
971	4.852075	0.005000	2.045185	9.726815	-1.853689	-0.783437	-0.673583	0.898834	0.000729	-0.007799	0.001597
972	4.857075	0.005000	2.079720	9.692280	-1.844280	-0.783766	-0.673693	0.898957	0.002186	-0.006417	0.007368
973	4.862075	0.005000	2.088736	9.671072	-1.913744	-0.784095	-0.673802	0.899079	0.006580	-0.014163	0.009435
974	4.867075	0.005000	2.029415	9.653040	-1.911695	-0.784423	-0.673912	0.899202	0.004932	-0.008094	-0.000700
975	4.872075	0.005000	2.105487	9.640746	-1.949706	-0.784752	-0.674022	0.899324	0.004813	-0.016963	0.003605
976	4.877075	0.005000	2.055897	9.598383	-1.898937	-0.785081	-0.674132	0.899447	0.002773	-0.010458	0.004187
977	4.882075	0.005000	2.101131	9.617381	-1.926341	-0.785410	-0.674241	0.899569	0.001792	-0.013788	0.012768
978	4.887075	0.005000	2.040480	9.633267	-1.922760	-0.785739	-0.674351	0.899692	0.006803	-0.013328	0.003860
979	4.892075	0.005000	2.045609	9.709336	-1.827224	-0.786068	-0.674461	0.899814	0.005949	-0.010566	0.006408
980	4.897075	0.005000	1.971379	9.707211	-1.795661	-0.786397	-0.674570	0.899937	0.006385	-0.003811	0.004293
981	4.902075	0.005000	2.067018	9.678445	-1.910058	-0.786620	-0.674627	0.899882	0.006161	-0.004338	0.002148
982	4.907075	0.005000	2.001240	9.710251	-1.862251	-0.786730	-0.674627	0.899637	0.007802	-0.015486	-0.000426
983	4.912075	0.005000	2.096408	9.560352	-1.883520	-0.786839	-0.674627	0.899392	0.005929	-0.002833	-0.002539
984	4.917075	0.005000	2.184763	9.685942	-1.889858	-0.786949	-0.674627	0.899147	0.006020	-0.017629	0.001833
985	4.922075	0.005000	2.158200	9.609804	-1.958004	-0.787059	-0.674627	0.898902	-0.001894	-0.014172	0.006510
986	4.927075	0.005000	2.158200	9.694307	-1.885547	-0.787168	-0.674627	0.898657	0.018983	-0.006859	0.003305
987	4.932075	0.005000	2.158200	9.770408	-1.922760	-0.787278	-0.674627	0.898412	0.015448	-0.008985	-0.002829
988	4.937075	0.005000	2.009454	9.689542	-1.852494	-0.787388	-0.674627	0.898167	0.005873	-0.006603	-0.001527
989	4.942075	0.005000	2.079720	9.657754	-1.874093	-0.787498	-0.674627	0.897923	-0.000833	-0.006684	-0.000376
990	4.947075	0.005000	2.197440	9.567526	-1.851314	-0.787607	-0.674627	0.897678	-0.000720	-0.010452	-0.000456
991	4.952075	0.005000	2.197440	9.583624	-1.943873	-0.787717	-0.674627	0.897433	0.007676	-0.012465	-0.002597
992	4.957075	0.005000	2.169678	9.613800	-1.855758	-0.787827	-0.674627	0.897188	0.020259	-0.010671	-0.000581
993	4.962075	0.005000	2.131356	9.718098	-1.780247	-0.787936	-0.674627	0.896943	0.013457	-0.006872	0.001645
994	4.967075	0.005000	2.142369	9.574560	-1.828449	-0.788046	-0.674627	0.896698	0.020681	-0.009493	0.005710
995	4.972075	0.005000	2.122137	9.631832	-1.883520	-0.788060	-0.674340	0.896881	0.022156	-0.010794	0.001833
996	4.977075	0.005000	2.139146	9.632854	-1.921627	-0.788060	-0.674011	0.897126	0.015230	-0.008901	-0.000611
997	4.982075	0.005000	2.158200	9.630712	-1.939672	-0.788060	-0.673681	0.897371	0.015016	-0.009552	0.003155
998	4.987075	0.005000	2.118960	9.677582	-1.947302	-0.788060	-0.673352	0.897616	0.005538	-0.001413	0.006737
999	4.992075	0.005000	2.052774	9.653040	-1.910466	-0.788060	-0.673023	0.897861	0.005272	-0.012185	0.011236
1000	4.997075	0.005000	2.087911	9.731520	-1.854630	-0.788060	-0.672694	0.898106	-0.003210	-0.005732	0.003711
1001	5.002075	0.005000	2.017850	9.723215	-1.869195	-0.788060	-0.672365	0.898351	0.001429	-0.008810	0.005328
1002	5.007075	0.005000	2.001240	9.625799	-1.989241	-0.788060	-0.672036	0.898596	0.005173	-0.006130	0.000198
1003	5.012075	0.005000	1.922760	9.763595	-1.965583	-0.788060	-0.671707	0.898841	0.011597	-0.013162	0.001973
1004	5.017075	0.005000	1.999621	9.692280	-1.960381	-0.788060	-0.671377	0.899086	0.014464	-0.011105	0.002671
1005	5.022075	0.005000	1.923526	9.730754	-1.845811	-0.788060	-0.671048	0.899331	0.015163	-0.013177	-0.000109
1006	5.027075	0.005000	1.917340	9.734230	-1.920050	-0.788060	-0.670719	0.899576	0.015140	-0.014338	0.003172
1007	5.032075	0.005000	1.980732	9.731520	-1.815294	-0.788060	-0.670390	0.899821	0.012967	-0.010191	0.005817
1008	5.037075	0.005000	1.890963	9.763317	-1.711675	-0.788324	-0.670384	0.900000	0.004144	-0.010210	0.006632
1009	5.042075	0.005000	1.933569	9.711234	-1.775277	-0.789312	-0.671262	0.900000	0.017362	-0.010113	-0.003413
1010	5.047075	0.005000	1.844280	9.758869	-1.883520	-0.790299	-0.672139	0.900000	0.023548	-0.007702	-0.003457
1011	5.052075	0.005000	1.885785	9.692280	-1.936595	-0.791287	-0.673017	0.900000	0.028632	-0.010268	0.000010
1012	5.057075	0.005000	1.922760	9.731520	-1.837528	-0.792274	-0.673895	0.900000	0.024188	0.000783	0.000199
1013	5.062075	0.005000	1.786859	9.695157	-1.841403	-0.793261	-0.674773	0.900000	0.020191	-0.008073	-0.002089
1014	5.067075	0.005000	1.782503	9.634392	-1.825632	-0.794249	-0.675650	0.900000	0.022205	-0.010242	0.000211
1015	5.072075	0.005000	1.956167	9.607967	-1.782503	-0.795236	-0.676528	0.900000	0.023018	-0.011521	0.005278
1016	5.077075	0.005000	1.947706	9.745814	-1.844280	-0.796223	-0.677406	0.900000	0.035671	-0.005257	0.010256
1017	5.082075	0.005000	1.947461	9.665390	-1.807229	-0.797211	-0.678283	0.900000	0.032549	0.001486	-0.000343
1018	5.087075	0.005000	1.942633	9.682344	-1.903393	-0.798198	-0.679161	0.900000	0.035967	-0.009811	0.006797
1019	5.092075	0.005000	1.875624	9.692280	-1.969896	-0.799186	-0.680039	0.900000	0.031984	0.000104	0.001245
1020	5.097075	0.005000	1.978896	9.725934	-1.956414	-0.800173	-0.680917	0.900000	0.026348	0.000746	-0.001438
1021	5.102075	0.005000	1.929961	9.624601	-2.029679	-0.801160	-0.681794	0.900000	0.029835	0.000248	-0.001769
1022	5.107075	0.005000	1.925210	9.730295	-1.920310	-0.801057	-0.681508	0.899919	0.020140	0.003322	-0.003671
1023	5.112075	0.005000	2.001240	9.654205	-1.920430	-0.800398	-0.680630	0.899796	0.017410	0.006139	0.000535
1024	5.117075	0.005000	2.109590	9.692280	-1.886643	-0.799740	-0.679753	0.899674	0.028632	-0.002699	-0.001962
1025	5.122075	0.005000	2.103757	9.653040	-1.810108	-0.799082	-0.678875	0.899551	0.030307	-0.005891	0.003137
1026	5.127075	0.005000	2.102134	9.684809	-1.939586	-0.798423	-0.677997	0.899429	0.024504	0.000357	-0.002641
1027	5.132075	0.005000	2.238257	9.604384	-1.972993	-0.797765	-0.677119	0.899306	0.013725	0.000092	0.000352
1028	5.137075	0.005000	2.260340	9.653040	-1.962000	-0.797107	-0.676242	0.899184	0.020130	0.002509	-0.001300
1029	5.142075	0.005000	2.250454	9.678506	-1.962000	-0.796448	-0.675364	0.899061	0.009767	0.002986	-0.003465
1030	5.147075	0.005000	2.236680	9.606926	-1.938943	-0.795790	-0.674486	0.898939	0.014552	0.002558	-0.001202
1031	5.152075	0.005000	2.275920	9.655521	-1.883520	-0.795132	-0.673609	0.898816	0.015960	0.001747	-0.006535
1032	5.157075	0.005000	2.197440	9.653040	-1.982538	-0.794473	-0.672731	0.898693	0.007365	-0.000271	-0.002844
1033	5.162075	0.005000	2.191329	9.607689	-1.922760	-0.793815	-0.671853	0.898571	0.002275	0.004186	0.002354
1034	5.167075	0.005000	2.275920	9.628146	-1.972549	-0.793157	-0.670975	0.898448	0.003645	-0.004011	-0.001008
1035	5.172075	0.005000	2.170453	9.707014	-1.935013	-0.792518	-0.670155	0.898333	0.000216	-0.010253	-0.004235
1036	5.177075	0.005000	2.168194	9.613800	-2.030486	-0.792189	-0.670265	0.898333	0.000932	-0.003552	-0.006726
1037	5.182075	0.005000	2.182071	9.708194	-1.914803	-0.791860	-0.670375	0.898333	-0.000848	-0.000555	-0.001159
1038	5.187075	0.005000	2.197440	9.731520	-2.006874	-0.791531	-0.670484	0.898333	0.000388	0.001466	-0.000957
1039	5.192075	0.005000	2.190118	9.727859	-1.969322	-0.791202	-0.670594	0.898333	-0.006436	-0.011045	-0.003196
1040	5.197075	0.005000	2.236680	9.653040	-1.844280	-0.790873	-0.670704	0.898333	-0.016917	-0.012504	0.004992
1041	5.202075	0.005000	2.198544	9.653040	-1.882416	-0.790544	-0.670814	0.898333	-0.014892	-0.010889	-0.008431
1042	5.207075	0.005000	2.161262	9.686156	-1.922760	-0.790215	-0.670923	0.898333	-0.016372	-0.022297	0.001806
1043	5.212075	0.005000	2.192024	9.647624	-1.995824	-0.789886	-0.671033	0.898333	-0.021449	-0.014258	-0.001554
1044	5.217075	0.005000	2.047903	9.581983	-1.954577	-0.789557	-0.671143	0.898333	-0.019091	-0.015669	0.008030
1045	5.222075	0.005000	2.040480	9.545149	-1.883520	-0.789229	-0.671252	0.898333	-0.020296	-0.017617	0.004737
1046	5.227075	0.005000	2.016933	9.629493	-1.805040	-0.788900	-0.671362	0.898333	-0.014855	-0.020194	0.000507
1047	5.232075	0.005000	2.065533	9.627987	-1.908573	-0.788571	-0.671472	0.898333	-0.011046	-0.020864	0.005892
1048	5.237075	0.005000	2.008219	9.708411	-1.828149	-0.788242	-0.671581	0.898333	-0.017057	-0.016686	0.001810
1049	5.242075	0.005000	1.980541	9.671581	-1.823581	-0.788747	-0.672672	0.899812	-0.003964	-0.026267	0.002900
1050	5.247075	0.005000	1.960270	9.752005	-1.805040	-0.790282	-0.674975	0.903118	-0.017519	-0.025618	0.001770
1051	5.252075	0.005000	1.945655	9.754415	-1.827935	-0.791817	-0.677278	0.906425	-0.009822	-0.026143	0.007409
1052	5.257075	0.005000	1.936995	9.692280	-1.855051	-0.793352	-0.679581	0.909731	-0.012722	-0.018515	0.010487
1053	5.262075	0.005000	1.946736	9.707544	-1.805040	-0.794888	-0.681883	0.913037	-0.016251	-0.018800	0.004645
1054	5.267075	0.005000	1.981363	9.672917	-1.775739	-0.796423	-0.684186	0.916343	-0.008509	-0.019126	0.004370
1055	5.272075	0.005000	1.993600	9.637760	-1.702600	-0.797958	-0.686489	0.919649	-0.004846	-0.012764	-0.001297
1056	5.277075	0.005000	1.990772	9.629502	-1.765800	-0.799493	-0.688792	0.922956	-0.005466	-0.026932	-0.004991
1057	5.282075	0.005000	1.929341	9.659621	-1.762510	-0.801028	-0.691095	0.926262	0.001541	-0.013615	0.011702
1058	5.287075	0.005000	2.000367	9.694025	-1.727433	-0.802563	-0.693398	0.929568	0.002239	-0.011417	0.009307
1059	5.292075	0.005000	1.962000	9.770760	-1.842137	-0.804099	-0.695700	0.932874	0.011976	-0.028168	0.022700
1060	5.297075	0.005000	1.883520	9.770760	-1.801565	-0.805634	-0.698003	0.936180	0.008479	-0.018933	0.008443
1061	5.302075	0.005000	1.977944	9.770760	-1.771624	-0.807169	-0.700306	0.939487	0.014902	-0.024810	-0.000077
1062	5.307075	0.005000	1.907027	9.707952	-1.860013	-0.808704	-0.702609	0.942793	0.014721	-0.015925	-0.003119
1063	5.312075	0.005000	1.883520	9.760640	-1.756920	-0.808496	-0.702067	0.942103	0.016609	-0.014432	-0.006460
1064	5.317075	0.005000	1.922760	9.797813	-1.726560	-0.807948	-0.700970	0.940633	0.024417	-0.016276	0.001980
1065	5.322075	0.005000	1.976600	9.770760	-1.765800	-0.807399	-0.699873	0.939163	0.014171	-0.008814	0.002487
1066	5.327075	0.005000	2.023936	9.787304	-1.765800	-0.806851	-0.698776	0.937693	0.020290	-0.013001	-0.002103
1067	5.332075	0.005000	2.040480	9.770760	-1.864566	-0.806302	-0.697679	0.936223	0.015774	-0.002676	0.004437
1068	5.337075	0.005000	2.022130	9.752410	-1.825930	-0.805754	-0.696582	0.934753	0.027135	-0.006774	-0.002952
1069	5.342075	0.005000	2.017178	9.692280	-1.805040	-0.805205	-0.695485	0.933283	0.025618	-0.007979	0.006418
1070	5.347075	0.005000	2.079720	9.745346	-1.846519	-0.804657	-0.694388	0.931813	0.025831	0.001383	0.006246
1071	5.352075	0.005000	2.072619	9.719935	-1.895105	-0.804108	-0.693291	0.930343	0.026481	-0.001527	0.004612
1072	5.357075	0.005000	1.992069	9.779931	-1.913589	-0.803560	-0.692194	0.928873	0.017410	-0.004468	-0.000067
1073	5.362075	0.005000	1.937213	9.724294	-1.969226	-0.803011	-0.691097	0.927402	0.029989	-0.010859	0.010242
1074	5.367075	0.005000	2.006061	9.726699	-2.001240	-0.802463	-0.690000	0.925932	0.035370	-0.000152	0.006076
1075	5.372075	0.005000	1.962000	9.653040	-1.847124	-0.801914	-0.688903	0.924462	0.043322	-0.003202	-0.004724
1076	5.377075	0.005000	1.924138	9.574560	-1.806418	-0.801340	-0.687857	0.923134	0.030517	-0.005449	0.002996
1077	5.382075	0.005000	2.078235	9.612315	-1.885005	-0.800682	-0.686979	0.922277	0.032617	-0.006414	0.000009
1078	5.387075	0.005000	2.044369	9.688391	-1.816706	-0.800024	-0.686102	0.921420	0.035482	-0.006568	0.002066
1079	5.392075	0.005000	2.052146	9.686447	-1.732393	-0.799366	-0.685225	0.920563	0.032019	-0.006934	0.003548
1080	5.397075	0.005000	2.141702	9.669538	-1.844280	-0.798708	-0.684347	0.919706	0.035189	-0.003720	0.002543
1081	5.402075	0.005000	2.147671	9.702809	-1.912231	-0.798050	-0.683470	0.918849	0.021875	-0.010041	0.000248
1082	5.407075	0.005000	2.184845	9.783355	-1.869471	-0.797392	-0.682593	0.917992	0.025102	-0.000399	0.003938
1083	5.412075	0.005000	2.109728	9.761528	-1.922760	-0.796734	-0.681715	0.917135	0.033251	-0.006537	0.007785
1084	5.417075	0.005000	2.023532	9.613800	-1.939708	-0.796076	-0.680838	0.916277	0.017346	-0.005788	0.010711
1085	5.422075	0.005000	2.060360	9.594440	-1.884040	-0.795418	-0.679961	0.915420	0.033152	-0.007831	0.003664
1086	5.427075	0.005000	2.079720	9.613800	-1.919393	-0.794760	-0.679083	0.914563	0.015725	0.000635	0.001907
1087	5.432075	0.005000	2.158200	9.707805	-1.899045	-0.794102	-0.678206	0.913706	0.019548	-0.004378	-0.001007
1088	5.437075	0.005000	2.158200	9.601720	-1.909180	-0.793444	-0.677329	0.912849	0.019560	0.000330	0.011081
1089	5.442075	0.005000	2.135856	9.636144	-1.816212	-0.792786	-0.676452	0.911992	0.013743	-0.012835	0.005792
1090	5.447075	0.005000	2.031358	9.713277	-1.883520	-0.792469	-0.675846	0.911134	0.025084	-0.010346	0.000721
1091	5.452075	0.005000	2.047293	9.600174	-1.929573	-0.792359	-0.675408	0.910277	0.008164	-0.006088	0.002290
1092	5.457075	0.005000	2.070099	9.579370	-2.001240	-0.792250	-0.674969	0.909419	0.012902	-0.009222	0.004693
1093	5.462075	0.005000	2.084648	9.650576	-1.927688	-0.792140	-0.674530	0.908562	0.017623	-0.006552	0.005135
