# FOX Logger (IMU file)
# (c) INRIA 2011-2014
# File created from file sensbiotk output
#
# File format:
# id	t	dt	ax	ay	az	mx	my	mz	gx	gy	gz
#
# Units:
#	Time: s
#	Acceleration: m.s^-2
#	Magneto: gauss
#	Gyrometer: rad/s
#
1	0.030975	0.030975	7.343417	-0.315766	-5.697182	0.032836	-0.152239	-0.658333	0.041522	0.010516	0.016815
2	0.035975	0.005000	7.342165	-0.239725	-5.912384	0.032836	-0.152808	-0.658460	0.039751	0.005040	0.016538
3	0.040975	0.005000	7.377120	-0.274680	-6.010800	0.032836	-0.153377	-0.658587	0.033454	0.003950	0.018506
4	0.045975	0.005000	7.279247	-0.274680	-5.876530	0.032836	-0.153946	-0.658714	0.043941	0.005005	0.014796
5	0.050975	0.005000	7.403593	-0.274680	-5.846760	0.032836	-0.154515	-0.658841	0.037068	0.021029	0.015688
6	0.055975	0.005000	7.439989	-0.274680	-5.823555	0.032836	-0.155083	-0.658968	0.039546	0.027425	0.009340
7	0.060975	0.005000	7.416360	-0.313920	-5.749825	0.032836	-0.155652	-0.659096	0.048017	0.033603	0.008378
8	0.065975	0.005000	7.391703	-0.278038	-5.725682	0.032836	-0.156221	-0.659223	0.051107	0.029407	0.017809
9	0.070975	0.005000	7.368439	-0.259400	-5.759599	0.032836	-0.156790	-0.659350	0.035618	0.041617	0.015862
10	0.075975	0.005000	7.454526	-0.235440	-5.781002	0.032836	-0.157359	-0.659477	0.044712	0.021054	0.021869
11	0.080975	0.005000	7.495112	-0.274680	-5.729040	0.032836	-0.157928	-0.659604	0.034047	0.027705	0.010882
12	0.085975	0.005000	7.448566	-0.249508	-5.664628	0.032836	-0.158497	-0.659731	0.044999	0.018052	0.009575
13	0.090975	0.005000	7.451410	-0.336399	-5.681420	0.032836	-0.159066	-0.659858	0.032189	0.013863	0.004979
14	0.095975	0.005000	7.454254	-0.238133	-5.844067	0.032836	-0.159635	-0.659985	0.033750	0.015577	0.020075
15	0.100975	0.005000	7.567330	-0.238435	-5.730538	0.033037	-0.159500	-0.659888	0.066498	0.015437	0.008875
16	0.105975	0.005000	7.704231	-0.239782	-5.755255	0.033265	-0.159272	-0.659761	0.043451	0.010662	0.009750
17	0.110975	0.005000	7.612560	-0.320730	-5.787089	0.033492	-0.159045	-0.659634	0.046757	0.004150	0.013755
18	0.115975	0.005000	7.563744	-0.293831	-5.778793	0.033720	-0.158817	-0.659506	0.031150	0.003436	0.008550
19	0.120975	0.005000	7.548481	-0.260279	-5.729040	0.033947	-0.158590	-0.659379	0.033275	0.006089	0.002849
20	0.125975	0.005000	7.558057	-0.305207	-5.698513	0.034175	-0.158362	-0.659252	0.043983	-0.003993	0.017410
21	0.130975	0.005000	7.491815	-0.271655	-5.668667	0.034403	-0.158134	-0.659125	0.035372	0.011860	0.006384
22	0.135975	0.005000	7.452938	-0.272018	-5.762955	0.034630	-0.157907	-0.658998	0.023588	-0.000965	0.007745
23	0.140975	0.005000	7.487428	-0.329834	-5.807520	0.034858	-0.157679	-0.658871	0.020759	-0.000972	0.000748
24	0.145975	0.005000	7.547180	-0.287750	-5.781410	0.035085	-0.157452	-0.658744	0.044545	-0.006063	-0.002855
25	0.150975	0.005000	7.523854	-0.274680	-5.737602	0.035313	-0.157224	-0.658617	0.033682	-0.008858	0.005217
26	0.155975	0.005000	7.629654	-0.203582	-5.768280	0.035540	-0.156997	-0.658490	0.031994	0.002576	-0.001581
27	0.160975	0.005000	7.455600	-0.279218	-5.812058	0.035768	-0.156769	-0.658363	0.030133	0.006328	0.004828
28	0.165975	0.005000	7.496988	-0.278976	-5.958036	0.035472	-0.156716	-0.658236	0.032545	0.001374	0.001018
29	0.170975	0.005000	7.572624	-0.237528	-5.808216	0.035017	-0.156716	-0.658109	0.036055	-0.004574	-0.009402
30	0.175975	0.005000	7.537606	-0.199726	-5.921714	0.034562	-0.156716	-0.657982	0.037916	0.009048	-0.010068
31	0.180975	0.005000	7.566951	-0.268311	-5.892369	0.034106	-0.156716	-0.657855	0.034942	0.011012	-0.020724
32	0.185975	0.005000	7.670225	-0.265468	-5.865185	0.033651	-0.156716	-0.657728	0.040516	0.003742	0.000180
33	0.190975	0.005000	7.675913	-0.329047	-5.792393	0.033196	-0.156716	-0.657600	0.032133	0.007397	-0.007502
34	0.195975	0.005000	7.680693	-0.260234	-5.836413	0.032741	-0.156716	-0.657473	0.043484	0.007737	-0.012962
35	0.200975	0.005000	7.703671	-0.200859	-5.780911	0.032286	-0.156716	-0.657346	0.027361	0.010100	-0.004197
36	0.205975	0.005000	7.650771	-0.177094	-5.905106	0.031831	-0.156716	-0.657219	0.023992	0.014829	-0.011370
37	0.210975	0.005000	7.534080	-0.140698	-5.886000	0.031375	-0.156716	-0.657092	0.038368	0.006428	-0.000728
38	0.215975	0.005000	7.509271	-0.182782	-5.860178	0.030920	-0.156716	-0.656965	0.033522	0.015019	-0.012602
39	0.220975	0.005000	7.534080	-0.224866	-5.896574	0.030465	-0.156716	-0.656838	0.030696	0.008384	-0.005513
40	0.225975	0.005000	7.573320	-0.235440	-5.900643	0.030010	-0.156716	-0.656711	0.028937	0.017730	-0.007008
41	0.230975	0.005000	7.557255	-0.285390	-5.807520	0.030295	-0.156420	-0.656832	0.020685	0.008436	-0.010277
42	0.235975	0.005000	7.521524	-0.201222	-5.878467	0.030978	-0.155965	-0.657086	0.045533	0.010898	0.004054
43	0.240975	0.005000	7.493509	-0.196866	-5.923909	0.031661	-0.155510	-0.657341	0.021544	0.013477	-0.001188
44	0.245975	0.005000	7.681510	-0.156960	-5.768280	0.032343	-0.155054	-0.657595	0.032615	-0.000040	-0.000887
45	0.250975	0.005000	7.467641	-0.235440	-5.774301	0.033026	-0.154599	-0.657849	0.025452	0.004910	-0.001342
46	0.255975	0.005000	7.363407	-0.218422	-5.833047	0.033709	-0.154144	-0.658103	0.037636	-0.001408	-0.003993
47	0.260975	0.005000	7.416360	-0.246695	-5.807520	0.034392	-0.153689	-0.658357	0.020451	0.007279	0.000929
48	0.265975	0.005000	7.363021	-0.210299	-5.854747	0.035074	-0.153234	-0.658611	0.035841	0.007873	0.001255
49	0.270975	0.005000	7.404773	-0.313920	-5.795933	0.035757	-0.152779	-0.658865	0.038291	0.008748	-0.001390
50	0.275975	0.005000	7.416360	-0.255226	-5.865881	0.036440	-0.152323	-0.659119	0.034530	0.008994	0.003237
51	0.280975	0.005000	7.410741	-0.291491	-5.914048	0.037123	-0.151868	-0.659373	0.039013	0.006767	0.008270
52	0.285975	0.005000	7.444829	-0.274680	-5.925240	0.037805	-0.151413	-0.659628	0.037878	0.017713	0.000521
53	0.290975	0.005000	7.534080	-0.302529	-5.791062	0.038488	-0.150958	-0.659882	0.033827	0.009522	-0.000613
54	0.295975	0.005000	7.385667	-0.266133	-5.846760	0.038745	-0.151111	-0.659796	0.015020	0.006025	-0.004200
55	0.300975	0.005000	7.500543	-0.241143	-5.729040	0.038631	-0.151793	-0.659415	0.043407	0.010365	-0.004604
56	0.305975	0.005000	7.447023	-0.162678	-5.801802	0.038518	-0.152475	-0.659034	0.043063	0.009155	0.007934
57	0.310975	0.005000	7.376656	-0.235440	-5.845833	0.038404	-0.153158	-0.658653	0.038347	0.011161	0.003531
58	0.315975	0.005000	7.411554	-0.161766	-5.694606	0.038290	-0.153840	-0.658272	0.039289	0.001115	0.000514
59	0.320975	0.005000	7.489621	-0.269461	-5.729040	0.038176	-0.154523	-0.657891	0.049735	0.006562	0.002405
60	0.325975	0.005000	7.494840	-0.024188	-5.869874	0.038063	-0.155205	-0.657510	0.049168	0.012090	0.005959
61	0.330975	0.005000	7.477413	-0.156960	-5.807520	0.037949	-0.155887	-0.657129	0.029817	0.018262	0.012149
62	0.335975	0.005000	7.494840	-0.196200	-5.784043	0.037835	-0.156570	-0.656748	0.021442	0.011253	0.004491
63	0.340975	0.005000	7.409761	-0.202799	-5.807520	0.037721	-0.157252	-0.656367	0.028353	0.007815	0.009542
64	0.345975	0.005000	7.493539	-0.274680	-5.807520	0.037607	-0.157935	-0.655986	0.029533	0.011126	0.003647
65	0.350975	0.005000	7.512267	-0.235440	-5.899040	0.037494	-0.158617	-0.655605	0.041108	0.005112	0.007125
66	0.355975	0.005000	7.622635	-0.313920	-5.935315	0.037380	-0.159299	-0.655224	0.035524	0.008272	0.003098
67	0.360975	0.005000	7.600821	-0.274680	-5.878285	0.037313	-0.159514	-0.655000	0.043269	-0.007918	-0.000074
68	0.365975	0.005000	7.534080	-0.187305	-5.855655	0.037313	-0.159059	-0.655000	0.030397	-0.007365	0.008973
69	0.370975	0.005000	7.501360	-0.235440	-5.761760	0.037313	-0.158603	-0.655000	0.021518	0.002892	0.001222
70	0.375975	0.005000	7.491164	-0.196200	-5.803844	0.037313	-0.158148	-0.655000	0.030241	0.005442	0.004514
71	0.380975	0.005000	7.533248	-0.193704	-5.729040	0.037313	-0.157693	-0.655000	0.042055	0.015343	0.006361
72	0.385975	0.005000	7.457612	-0.078480	-5.691812	0.037313	-0.157238	-0.655000	0.044709	0.011109	0.002291
73	0.390975	0.005000	7.642088	-0.117720	-5.763424	0.037313	-0.156783	-0.655000	0.025092	0.016211	0.012757
74	0.395975	0.005000	7.627052	-0.095982	-5.768280	0.037313	-0.156328	-0.655000	0.029962	0.015351	0.005399
75	0.400975	0.005000	7.525110	-0.126690	-5.749220	0.037313	-0.155872	-0.655000	0.042971	-0.000231	0.011573
76	0.405975	0.005000	7.521146	-0.143588	-5.820454	0.037313	-0.155417	-0.655000	0.037201	0.007730	0.011700
77	0.410975	0.005000	7.439822	-0.164645	-5.838667	0.037313	-0.154962	-0.655000	0.037236	0.003081	0.008612
78	0.415975	0.005000	7.554698	-0.117720	-5.848757	0.037313	-0.154507	-0.655000	0.048514	0.013111	0.008536
79	0.420975	0.005000	7.516091	-0.196200	-5.889261	0.037313	-0.154052	-0.655000	0.037797	0.021744	0.014622
80	0.425975	0.005000	7.503281	-0.165401	-5.870600	0.037279	-0.153865	-0.655075	0.055266	0.006075	0.013316
81	0.430975	0.005000	7.444618	-0.130276	-5.886000	0.037166	-0.154320	-0.655329	0.041756	0.002924	0.005845
82	0.435975	0.005000	7.445495	-0.147248	-5.974192	0.037052	-0.154775	-0.655583	0.045643	0.007888	0.001334
83	0.440975	0.005000	7.423228	-0.145191	-5.913471	0.036938	-0.155230	-0.655837	0.034474	0.016533	-0.000305
84	0.445975	0.005000	7.455600	-0.274680	-6.029527	0.036825	-0.155685	-0.656091	0.042742	0.015144	0.001770
85	0.450975	0.005000	7.336246	-0.271413	-5.925240	0.036711	-0.156140	-0.656345	0.034707	0.018624	0.002607
86	0.455975	0.005000	7.298640	-0.234230	-5.849180	0.036597	-0.156595	-0.656599	0.047323	0.030160	-0.003587
87	0.460975	0.005000	7.333826	-0.274680	-5.917132	0.036484	-0.157050	-0.656853	0.044953	0.019447	-0.001527
88	0.465975	0.005000	7.389978	-0.274680	-5.951622	0.036370	-0.157505	-0.657107	0.040134	0.030418	-0.005737
89	0.470975	0.005000	7.379268	-0.274680	-5.865306	0.036256	-0.157960	-0.657361	0.029881	0.036346	-0.002754
90	0.475975	0.005000	7.425588	-0.223323	-5.834643	0.036142	-0.158415	-0.657615	0.035654	0.038037	0.003612
91	0.480975	0.005000	7.534080	-0.259719	-5.783241	0.036029	-0.158870	-0.657869	0.041808	0.034271	-0.001798
92	0.485975	0.005000	7.541341	-0.178395	-5.750475	0.035915	-0.159325	-0.658123	0.039803	0.038075	-0.004657
93	0.490975	0.005000	7.494840	-0.196200	-5.687743	0.035880	-0.159642	-0.658311	0.019885	0.046433	-0.000910
94	0.495975	0.005000	7.557119	-0.196200	-5.823721	0.036221	-0.159301	-0.658184	0.036441	0.029272	0.000827
95	0.500975	0.005000	7.678515	-0.182843	-5.794163	0.036563	-0.158959	-0.658057	0.040651	0.035771	-0.002422
96	0.505975	0.005000	7.712067	-0.224927	-5.747253	0.036904	-0.158618	-0.657930	0.048389	0.033877	-0.004752
97	0.510975	0.005000	7.659469	-0.156960	-5.673568	0.037246	-0.158277	-0.657803	0.045291	0.021293	0.001998
98	0.515975	0.005000	7.720629	-0.156960	-5.689800	0.037587	-0.157935	-0.657676	0.043313	0.023517	-0.005505
99	0.520975	0.005000	7.730280	-0.154509	-5.576981	0.037928	-0.157594	-0.657549	0.027759	0.023482	-0.001507
100	0.525975	0.005000	7.807973	-0.078873	-5.611713	0.038270	-0.157253	-0.657422	0.026485	0.017767	0.002716
101	0.530975	0.005000	7.805523	-0.156960	-5.722566	0.038611	-0.156912	-0.657295	0.040537	0.003471	-0.000165
102	0.535975	0.005000	7.670043	-0.196200	-5.689800	0.038953	-0.156570	-0.657168	0.042280	-0.006329	0.005705
103	0.540975	0.005000	7.621485	-0.156960	-5.641635	0.039294	-0.156229	-0.657041	0.036555	-0.013258	0.002384
104	0.545975	0.005000	7.589022	-0.133422	-5.693733	0.039635	-0.155888	-0.656914	0.045420	-0.017177	0.004948
105	0.550975	0.005000	7.665944	-0.182056	-5.821664	0.039977	-0.155546	-0.656787	0.033948	-0.010304	0.000671
106	0.555975	0.005000	7.590308	-0.134708	-5.701524	0.040293	-0.155237	-0.656674	0.056126	-0.012684	0.003113
107	0.560975	0.005000	7.612560	-0.156960	-5.748448	0.040179	-0.155464	-0.656801	0.044398	-0.010092	-0.000823
108	0.565975	0.005000	7.645689	-0.218876	-5.819743	0.040065	-0.155692	-0.656928	0.043757	-0.011495	0.004026
109	0.570975	0.005000	7.624359	-0.194279	-5.715320	0.039951	-0.155919	-0.657055	0.052212	-0.012308	0.000281
110	0.575975	0.005000	7.634313	-0.196200	-5.550327	0.039838	-0.156147	-0.657182	0.052654	-0.004535	-0.000005
111	0.580975	0.005000	7.674067	-0.226954	-5.575272	0.039724	-0.156374	-0.657309	0.036091	0.007286	0.003546
112	0.585975	0.005000	7.623588	-0.196200	-5.975765	0.039610	-0.156602	-0.657436	0.009943	0.019730	-0.003535
113	0.590975	0.005000	7.483646	-0.084077	-6.155083	0.039496	-0.156829	-0.657563	0.032527	-0.021388	0.003465
114	0.595975	0.005000	7.377075	-0.235349	-6.003811	0.039382	-0.157057	-0.657690	0.043661	-0.035405	0.007777
115	0.600975	0.005000	7.487579	-0.313920	-5.814781	0.039269	-0.157284	-0.657817	0.034178	0.008936	0.001672
116	0.605975	0.005000	7.714487	-0.201464	-5.689800	0.039155	-0.157511	-0.657944	0.022916	0.034812	-0.000373
117	0.610975	0.005000	7.738388	-0.086588	-5.884699	0.039041	-0.157739	-0.658071	0.029491	-0.003460	-0.004927
118	0.615975	0.005000	7.392641	-0.196200	-6.042960	0.038927	-0.157966	-0.658198	0.060940	-0.032307	0.000115
119	0.620975	0.005000	7.335732	-0.196200	-5.964480	0.038814	-0.158194	-0.658325	0.046374	0.010115	-0.000611
120	0.625975	0.005000	7.564002	-0.180014	-5.823706	0.038594	-0.158209	-0.658214	0.018451	0.043663	0.004860
121	0.630975	0.005000	7.573320	-0.197380	-5.826550	0.038366	-0.158209	-0.658087	0.037092	0.003464	-0.000110
122	0.635975	0.005000	7.377120	-0.252806	-5.842252	0.038138	-0.158209	-0.657960	0.051851	-0.019840	0.005803
123	0.640975	0.005000	7.293649	-0.284524	-5.954636	0.037911	-0.158209	-0.657833	0.040464	0.001041	0.003504
124	0.645975	0.005000	7.440654	-0.196200	-5.913093	0.037683	-0.158209	-0.657706	0.018032	0.038718	-0.002849
125	0.650975	0.005000	7.564017	-0.166263	-5.858090	0.037456	-0.158209	-0.657579	0.044957	0.020878	-0.003199
126	0.655975	0.005000	7.534080	-0.124179	-5.774739	0.037228	-0.158209	-0.657452	0.059559	-0.003054	0.003360
127	0.660975	0.005000	7.420429	-0.227302	-5.784557	0.037001	-0.158209	-0.657325	0.042247	0.010436	-0.002338
128	0.665975	0.005000	7.422487	-0.193749	-5.809971	0.036773	-0.158209	-0.657198	0.045872	0.032246	-0.001428
129	0.670975	0.005000	7.650181	-0.080099	-5.886000	0.036545	-0.158209	-0.657071	0.049175	0.034895	-0.003895
130	0.675975	0.005000	7.608097	-0.156960	-5.807520	0.036318	-0.158209	-0.656944	0.041192	0.024856	0.001601
131	0.680975	0.005000	7.558707	-0.171573	-5.861373	0.036090	-0.158209	-0.656817	0.043364	0.020507	0.010287
132	0.685975	0.005000	7.554381	-0.117720	-5.817670	0.035863	-0.158209	-0.656690	0.034418	0.016150	-0.001728
133	0.690975	0.005000	7.612560	-0.130704	-5.873016	0.035542	-0.158581	-0.656252	0.023481	0.020571	-0.000746
134	0.695975	0.005000	7.455600	-0.093849	-5.855261	0.035201	-0.159036	-0.655743	0.026928	0.023422	0.001331
135	0.700975	0.005000	7.494840	-0.120534	-5.886000	0.034859	-0.159491	-0.655235	0.044626	0.007097	0.008112
136	0.705975	0.005000	7.591503	-0.235440	-5.886000	0.034518	-0.159946	-0.654727	0.034032	0.011483	0.001779
137	0.710975	0.005000	7.627899	-0.266118	-5.770065	0.034176	-0.160401	-0.654219	0.042847	0.009905	0.000872
138	0.715975	0.005000	7.585815	-0.262185	-5.702295	0.033835	-0.160857	-0.653710	0.056605	0.011285	-0.004975
139	0.720975	0.005000	7.563669	-0.265029	-5.729040	0.033494	-0.161312	-0.653202	0.046383	0.006186	0.002319
140	0.725975	0.005000	7.573320	-0.267790	-5.821299	0.033152	-0.161767	-0.652694	0.046352	-0.003220	0.004276
141	0.730975	0.005000	7.468897	-0.226575	-5.807520	0.032811	-0.162222	-0.652185	0.032970	0.001377	-0.000709
142	0.735975	0.005000	7.532492	-0.156960	-5.807520	0.032469	-0.162677	-0.651677	0.052440	-0.004359	0.001311
143	0.740975	0.005000	7.456856	-0.156960	-5.845504	0.032128	-0.163132	-0.651169	0.032697	0.004249	0.004604
144	0.745975	0.005000	7.424559	-0.125919	-5.877801	0.031787	-0.163588	-0.650660	0.051596	0.000898	-0.002934
145	0.750975	0.005000	7.520193	-0.143073	-5.846760	0.031445	-0.164043	-0.650152	0.059095	-0.000521	0.011985
146	0.755975	0.005000	7.534080	-0.186867	-5.758947	0.030625	-0.164737	-0.648932	0.058875	0.002368	0.007752
147	0.760975	0.005000	7.573320	-0.129897	-5.701977	0.029601	-0.165534	-0.647407	0.042921	0.011520	0.000875
148	0.765975	0.005000	7.636779	-0.156960	-5.729040	0.028577	-0.166330	-0.645882	0.047593	0.001320	-0.003692
149	0.770975	0.005000	7.666156	-0.135585	-5.782636	0.027553	-0.167127	-0.644357	0.052345	-0.001622	-0.002149
150	0.775975	0.005000	7.497018	-0.117720	-5.749749	0.026529	-0.167923	-0.642832	0.040735	0.005659	0.003986
151	0.780975	0.005000	7.455600	-0.133407	-5.799654	0.025505	-0.168720	-0.641308	0.041882	0.005382	-0.007675
152	0.785975	0.005000	7.429203	-0.248283	-5.886711	0.024481	-0.169516	-0.639783	0.053763	-0.005335	-0.006619
153	0.790975	0.005000	7.484496	-0.225096	-5.857104	0.023457	-0.170313	-0.638258	0.044144	0.004691	-0.003277
154	0.795975	0.005000	7.377120	-0.220957	-5.903515	0.022432	-0.171110	-0.636733	0.042349	-0.008299	0.002191
155	0.800975	0.005000	7.333100	-0.191420	-5.812300	0.021408	-0.171906	-0.635208	0.044228	-0.018009	-0.003533
156	0.805975	0.005000	7.339816	-0.111911	-5.919431	0.020384	-0.172703	-0.633684	0.057589	-0.006330	-0.003712
157	0.810975	0.005000	7.453785	-0.153329	-5.769188	0.019360	-0.173499	-0.632159	0.058154	0.005701	-0.001661
158	0.815975	0.005000	7.494840	-0.196200	-5.768280	0.018336	-0.174296	-0.630634	0.045798	0.006091	0.004986
159	0.820975	0.005000	7.527485	-0.196200	-5.886000	0.018242	-0.174295	-0.630742	0.068164	-0.013312	0.000052
160	0.825975	0.005000	7.377120	-0.175141	-5.837669	0.018811	-0.173726	-0.632013	0.051967	-0.010676	-0.000247
161	0.830975	0.005000	7.537832	-0.196200	-5.740869	0.019380	-0.173157	-0.633284	0.058933	-0.012589	-0.001200
162	0.835975	0.005000	7.484947	-0.196200	-5.871327	0.019949	-0.172588	-0.634554	0.050598	0.006462	0.007773
163	0.840975	0.005000	7.534080	-0.078480	-5.764075	0.020518	-0.172019	-0.635825	0.050554	0.011931	-0.002018
164	0.845975	0.005000	7.573320	-0.076998	-5.670921	0.021087	-0.171450	-0.637096	0.041002	0.010644	0.006192
165	0.850975	0.005000	7.541250	-0.087345	-5.777145	0.021656	-0.170881	-0.638367	0.048380	0.019322	0.004564
166	0.855975	0.005000	7.534080	-0.130911	-5.742231	0.022225	-0.170312	-0.639637	0.049941	0.027020	0.002698
167	0.860975	0.005000	7.573320	-0.185728	-5.797048	0.022794	-0.169743	-0.640908	0.043828	0.023816	0.003669
168	0.865975	0.005000	7.542052	-0.156960	-5.697152	0.023363	-0.169174	-0.642179	0.051657	0.028667	-0.002496
169	0.870975	0.005000	7.656928	-0.180816	-5.665944	0.023932	-0.168605	-0.643449	0.049559	0.029037	-0.005729
170	0.875975	0.005000	7.647232	-0.080764	-5.726756	0.024501	-0.168036	-0.644720	0.038422	0.031773	0.000570
171	0.880975	0.005000	7.689361	-0.040359	-5.651120	0.025070	-0.167467	-0.645991	0.061690	0.027438	0.006484
172	0.885975	0.005000	7.726876	-0.117720	-5.536244	0.025426	-0.167164	-0.646845	0.044456	0.041086	0.001137
173	0.890975	0.005000	7.730280	-0.051735	-5.506095	0.025540	-0.167164	-0.647227	0.072844	0.029242	-0.004807
174	0.895975	0.005000	7.791515	-0.087103	-5.572080	0.025654	-0.167164	-0.647608	0.056054	0.034000	-0.006157
175	0.900975	0.005000	7.820226	-0.117720	-5.578706	0.025768	-0.167164	-0.647989	0.045811	0.042289	-0.017661
176	0.905975	0.005000	7.833690	-0.171270	-5.482981	0.025882	-0.167164	-0.648370	0.053345	0.037298	-0.011701
177	0.910975	0.005000	7.887240	-0.213354	-5.493600	0.025995	-0.167164	-0.648751	0.051743	0.051621	-0.010274
178	0.915975	0.005000	7.790275	-0.176202	-5.532840	0.026109	-0.167164	-0.649133	0.077376	0.044186	-0.006821
179	0.920975	0.005000	7.736724	-0.251838	-5.572080	0.026223	-0.167164	-0.649514	0.058476	0.043615	-0.015437
180	0.925975	0.005000	7.795206	-0.327474	-5.691222	0.026337	-0.167164	-0.649895	0.058192	0.049786	-0.026533
181	0.930975	0.005000	7.719445	-0.313920	-5.746609	0.026451	-0.167164	-0.650276	0.052452	0.058115	-0.031911
182	0.935975	0.005000	7.738600	-0.322240	-5.714760	0.026564	-0.167164	-0.650657	0.048127	0.055720	-0.025831
183	0.940975	0.005000	7.719328	-0.353160	-5.880524	0.026678	-0.167164	-0.651038	0.042596	0.061877	-0.033441
184	0.945975	0.005000	7.688408	-0.272048	-5.763016	0.026792	-0.167164	-0.651420	0.033110	0.072475	-0.035392
185	0.950975	0.005000	7.651800	-0.352525	-5.767856	0.026906	-0.167204	-0.651845	0.035367	0.092734	-0.058146
186	0.955975	0.005000	7.615616	-0.310864	-5.879889	0.027020	-0.167318	-0.652354	0.033156	0.114401	-0.058964
187	0.960975	0.005000	7.506639	-0.341361	-5.846760	0.027133	-0.167432	-0.652862	0.032414	0.112671	-0.066901
188	0.965975	0.005000	7.550629	-0.305645	-5.846760	0.027247	-0.167545	-0.653370	0.033438	0.131212	-0.057335
189	0.970975	0.005000	7.657684	-0.089599	-5.790517	0.027361	-0.167659	-0.653878	-0.000310	0.154096	-0.061311
190	0.975975	0.005000	7.640485	-0.196200	-5.765633	0.027475	-0.167773	-0.654387	0.012200	0.156041	-0.071918
191	0.980975	0.005000	7.696667	-0.156960	-5.829954	0.027588	-0.167887	-0.654895	0.009763	0.177235	-0.063130
192	0.985975	0.005000	7.828410	-0.156960	-5.787930	0.027702	-0.168001	-0.655403	0.015486	0.184338	-0.072855
193	0.990975	0.005000	7.825506	-0.140214	-5.762532	0.027816	-0.168115	-0.655911	0.018624	0.185023	-0.071128
194	0.995975	0.005000	7.836889	-0.171025	-5.821585	0.027930	-0.168228	-0.656419	0.003891	0.192268	-0.075783
195	1.000975	0.005000	7.836488	-0.133936	-5.634344	0.028043	-0.168342	-0.656928	0.004283	0.194704	-0.064858
196	1.005975	0.005000	7.826096	-0.026004	-5.619988	0.028157	-0.168456	-0.657436	0.002034	0.197892	-0.065358
197	1.010975	0.005000	7.814584	0.000000	-5.622968	0.028271	-0.168570	-0.657944	0.024391	0.192532	-0.067196
198	1.015975	0.005000	7.799820	-0.042220	-5.653540	0.028358	-0.168523	-0.658452	0.013116	0.196393	-0.050589
199	1.020975	0.005000	7.691448	-0.156688	-5.611728	0.028358	-0.167954	-0.658961	0.015421	0.195158	-0.047153
200	1.025975	0.005000	7.772228	-0.041948	-5.619443	0.028358	-0.167385	-0.659469	0.011389	0.196787	-0.039095
201	1.030975	0.005000	7.779685	0.000000	-5.611320	0.028358	-0.166816	-0.659977	0.017917	0.197912	-0.044187
202	1.035975	0.005000	7.698967	0.078480	-5.548693	0.028358	-0.166247	-0.660486	0.032846	0.193344	-0.037284
203	1.040975	0.005000	7.719509	0.050011	-5.611320	0.028358	-0.165678	-0.660994	0.023868	0.206697	-0.027847
204	1.045975	0.005000	7.755906	0.156960	-5.611320	0.028358	-0.165110	-0.661502	0.027582	0.203941	-0.023335
205	1.050975	0.005000	7.658123	0.140502	-5.477142	0.028358	-0.164541	-0.662010	0.018696	0.206399	-0.012900
206	1.055975	0.005000	7.709707	0.177533	-5.552778	0.028358	-0.163972	-0.662519	0.024352	0.208874	-0.020415
207	1.060975	0.005000	7.668894	0.252534	-5.560039	0.028358	-0.163403	-0.663027	0.026688	0.206599	-0.004236
208	1.065975	0.005000	7.691040	0.274680	-5.523038	0.028358	-0.162834	-0.663535	0.018964	0.207083	-0.003961
209	1.070975	0.005000	7.597070	0.286555	-5.548330	0.028358	-0.162265	-0.664044	0.032837	0.197130	-0.001580
210	1.075975	0.005000	7.691040	0.205231	-5.442213	0.028358	-0.161696	-0.664552	0.044866	0.201039	0.009533
211	1.080975	0.005000	7.521706	0.196200	-5.584454	0.028345	-0.161194	-0.665060	0.050359	0.199212	0.015431
212	1.085975	0.005000	7.576663	0.271337	-5.575423	0.028231	-0.161194	-0.665568	0.051876	0.192161	0.025826
213	1.090975	0.005000	7.534080	0.195695	-5.375880	0.028117	-0.161194	-0.666077	0.055329	0.186739	0.018038
214	1.095975	0.005000	7.496731	0.194309	-5.338531	0.028003	-0.161194	-0.666585	0.059813	0.185498	0.028569
215	1.100975	0.005000	7.421095	0.196200	-5.474661	0.027890	-0.161194	-0.667093	0.053052	0.179688	0.029926
216	1.105975	0.005000	7.558163	0.243019	-5.430277	0.027776	-0.161194	-0.667602	0.071662	0.170469	0.031971
217	1.110975	0.005000	7.630955	0.177805	-5.375880	0.027662	-0.161194	-0.668110	0.070250	0.160794	0.037195
218	1.115975	0.005000	7.651800	0.222173	-5.336640	0.027548	-0.161194	-0.668618	0.070917	0.152934	0.045043
219	1.120975	0.005000	7.691040	0.149003	-5.375880	0.027435	-0.161194	-0.669126	0.072414	0.136004	0.053926
220	1.125975	0.005000	7.730280	0.175445	-5.410582	0.027321	-0.161194	-0.669635	0.073304	0.127395	0.047467
221	1.130975	0.005000	7.715788	0.196200	-5.336640	0.027207	-0.161194	-0.670143	0.083916	0.103362	0.057724
222	1.135975	0.005000	7.775480	0.235440	-5.384987	0.027093	-0.161194	-0.670651	0.089330	0.087017	0.051056
223	1.140975	0.005000	7.793966	0.208423	-5.493600	0.026980	-0.161194	-0.671160	0.096117	0.063019	0.054352
224	1.145975	0.005000	7.789783	0.058217	-5.385369	0.026866	-0.161194	-0.671667	0.114265	0.049778	0.051428
225	1.150975	0.005000	7.751246	0.032251	-5.454360	0.026638	-0.160966	-0.671667	0.095355	0.028077	0.049339
226	1.155975	0.005000	7.769520	-0.030950	-5.524550	0.026410	-0.160738	-0.671667	0.105550	0.005184	0.049798
227	1.160975	0.005000	7.732882	0.077179	-5.416421	0.026183	-0.160511	-0.671667	0.119068	-0.005599	0.050455
228	1.165975	0.005000	7.771063	-0.036154	-5.341269	0.025955	-0.160283	-0.671667	0.126502	-0.027841	0.054267
229	1.170975	0.005000	7.769520	0.008774	-5.332253	0.025728	-0.160056	-0.671667	0.105944	-0.035298	0.050565
230	1.175975	0.005000	7.801529	0.046471	-5.400658	0.025500	-0.159828	-0.671667	0.100378	-0.053301	0.053020
231	1.180975	0.005000	7.759445	0.039240	-5.474509	0.025273	-0.159601	-0.671667	0.104160	-0.066869	0.046482
232	1.185975	0.005000	7.835550	-0.026790	-5.532840	0.025045	-0.159373	-0.671667	0.104497	-0.072732	0.043677
233	1.190975	0.005000	7.824054	-0.054534	-5.556786	0.024817	-0.159145	-0.671667	0.109145	-0.089341	0.048289
234	1.195975	0.005000	7.929445	-0.078480	-5.532840	0.024590	-0.158918	-0.671667	0.101210	-0.110679	0.043211
235	1.200975	0.005000	7.965720	-0.099461	-5.475341	0.024362	-0.158690	-0.671667	0.120727	-0.116469	0.041386
236	1.205975	0.005000	7.832585	-0.117720	-5.517425	0.024135	-0.158463	-0.671667	0.107981	-0.125687	0.027232
237	1.210975	0.005000	7.795403	-0.183175	-5.454194	0.023907	-0.158235	-0.671667	0.094044	-0.139817	0.020769
238	1.215975	0.005000	7.866879	-0.167141	-5.493600	0.024284	-0.158209	-0.671555	0.081774	-0.133385	0.026403
239	1.220975	0.005000	7.879900	-0.164300	-5.586759	0.024739	-0.158209	-0.671427	0.094588	-0.145178	0.023921
240	1.225975	0.005000	7.852508	-0.165976	-5.724532	0.025194	-0.158209	-0.671300	0.115518	-0.157244	0.022234
241	1.230975	0.005000	7.810424	-0.274680	-5.688136	0.025649	-0.158209	-0.671173	0.105407	-0.154802	0.008879
242	1.235975	0.005000	7.809495	-0.236175	-5.573549	0.026104	-0.158209	-0.671046	0.103770	-0.157960	0.005625
243	1.240975	0.005000	7.844430	-0.231870	-5.614890	0.026559	-0.158209	-0.670919	0.116308	-0.164917	0.008548
244	1.245975	0.005000	7.854414	-0.241854	-5.689800	0.027013	-0.158209	-0.670792	0.087311	-0.160990	-0.001582
245	1.250975	0.005000	7.848000	-0.244698	-5.729040	0.027468	-0.158209	-0.670665	0.099263	-0.168870	-0.000862
246	1.255975	0.005000	7.793724	-0.313920	-5.729040	0.027923	-0.158209	-0.670538	0.090297	-0.176443	0.005626
247	1.260975	0.005000	7.808760	-0.250092	-5.665212	0.028378	-0.158209	-0.670411	0.087334	-0.180096	0.005299
248	1.265975	0.005000	7.786841	-0.252761	-5.851359	0.028833	-0.158209	-0.670284	0.075176	-0.181908	0.002090
249	1.270975	0.005000	7.828925	-0.254515	-5.846760	0.029288	-0.158209	-0.670157	0.081087	-0.180525	-0.002152
250	1.275975	0.005000	7.642345	-0.235440	-5.839983	0.029743	-0.158209	-0.670030	0.079533	-0.172405	0.006797
251	1.280975	0.005000	7.547468	-0.248828	-5.847683	0.030025	-0.158643	-0.669128	0.062402	-0.171419	0.003290
252	1.285975	0.005000	7.512746	-0.196200	-5.903906	0.030252	-0.159212	-0.667984	0.071920	-0.163687	0.004608
253	1.290975	0.005000	7.502994	-0.196200	-5.846760	0.030480	-0.159781	-0.666840	0.065975	-0.164235	0.011476
254	1.295975	0.005000	7.534080	-0.156960	-5.886000	0.030707	-0.160350	-0.665697	0.066383	-0.158158	0.007313
255	1.300975	0.005000	7.565923	-0.235440	-5.888466	0.030935	-0.160919	-0.664553	0.063456	-0.153818	0.014716
256	1.305975	0.005000	7.416738	-0.274302	-5.964102	0.031162	-0.161488	-0.663410	0.050773	-0.144554	0.018298
257	1.310975	0.005000	7.265844	-0.349938	-5.961258	0.031390	-0.162057	-0.662266	0.061648	-0.141708	0.013258
258	1.315975	0.005000	7.293043	-0.241037	-5.829908	0.031618	-0.162626	-0.661122	0.048902	-0.129688	0.018945
259	1.320975	0.005000	7.220160	-0.336278	-5.902882	0.031845	-0.163195	-0.659979	0.057965	-0.124462	0.020879
260	1.325975	0.005000	7.236830	-0.341875	-5.886000	0.032073	-0.163764	-0.658835	0.059510	-0.104608	0.023098
261	1.330975	0.005000	7.259400	-0.145978	-5.875018	0.032300	-0.164333	-0.657692	0.063297	-0.083064	0.018426
262	1.335975	0.005000	7.315613	-0.240735	-5.824493	0.032528	-0.164902	-0.656548	0.075510	-0.080566	0.019978
263	1.340975	0.005000	7.180920	-0.235440	-5.826369	0.032756	-0.165471	-0.655404	0.064388	-0.077053	0.021828
264	1.345975	0.005000	7.214986	-0.279854	-5.723866	0.032983	-0.165304	-0.655575	0.074339	-0.060006	0.022455
265	1.350975	0.005000	7.312829	-0.303059	-5.875139	0.033211	-0.164735	-0.656464	0.047010	-0.038478	0.026085
266	1.355975	0.005000	7.331738	-0.313920	-5.897345	0.033438	-0.164166	-0.657354	0.061797	-0.041046	0.018781
267	1.360975	0.005000	7.228661	-0.353160	-5.925240	0.033666	-0.163597	-0.658243	0.076083	-0.048830	0.020444
268	1.365975	0.005000	7.304767	-0.241567	-5.768280	0.033893	-0.163028	-0.659133	0.067023	-0.022646	0.013786
269	1.370975	0.005000	7.337880	-0.238723	-5.774845	0.034121	-0.162459	-0.660022	0.049032	-0.024460	0.024141
270	1.375975	0.005000	7.416799	-0.156960	-5.806204	0.034349	-0.161890	-0.660912	0.054642	-0.014389	0.013359
271	1.380975	0.005000	7.381930	-0.193795	-5.763470	0.034576	-0.161321	-0.661801	0.050810	-0.001345	0.020556
272	1.385975	0.005000	7.405862	-0.185702	-5.831013	0.034804	-0.160752	-0.662691	0.053234	0.002573	0.021775
273	1.390975	0.005000	7.416360	-0.235440	-5.761412	0.035031	-0.160183	-0.663580	0.066354	-0.005139	0.019556
274	1.395975	0.005000	7.455600	-0.256629	-5.807520	0.035259	-0.159614	-0.664470	0.065984	-0.004446	0.016873
275	1.400975	0.005000	7.351192	-0.144344	-5.742352	0.035486	-0.159045	-0.665359	0.050890	0.000305	0.020281
276	1.405975	0.005000	7.423288	-0.147732	-5.682872	0.035714	-0.158476	-0.666249	0.060159	-0.001744	0.022804
277	1.410975	0.005000	7.415120	-0.216440	-5.670800	0.035821	-0.158269	-0.666465	0.070084	0.012801	0.016632
278	1.415975	0.005000	7.368225	-0.218044	-5.707196	0.035821	-0.158383	-0.666084	0.056825	0.022902	0.024114
279	1.420975	0.005000	7.509563	-0.235440	-5.743763	0.035821	-0.158497	-0.665703	0.057448	0.012116	0.027158
280	1.425975	0.005000	7.479925	-0.301758	-5.834598	0.035821	-0.158611	-0.665321	0.046905	0.012273	0.028159
281	1.430975	0.005000	7.525112	-0.322888	-5.828823	0.035821	-0.158724	-0.664940	0.066310	0.003567	0.025531
282	1.435975	0.005000	7.534080	-0.274680	-5.807520	0.035821	-0.158838	-0.664559	0.055162	0.010578	0.025158
283	1.440975	0.005000	7.427252	-0.274680	-5.761019	0.035821	-0.158952	-0.664178	0.054540	0.011518	0.022601
284	1.445975	0.005000	7.495627	-0.235440	-5.770640	0.035821	-0.159066	-0.663797	0.054413	0.003480	0.034236
285	1.450975	0.005000	7.609345	-0.235440	-5.923632	0.035821	-0.159179	-0.663415	0.057869	0.017657	0.021380
286	1.455975	0.005000	7.538512	-0.274680	-5.733472	0.035821	-0.159293	-0.663034	0.054625	0.034579	0.033052
287	1.460975	0.005000	7.541356	-0.203476	-5.832208	0.035821	-0.159407	-0.662653	0.053868	0.026633	0.031877
288	1.465975	0.005000	7.631560	-0.186080	-5.729040	0.035821	-0.159521	-0.662272	0.058311	0.004939	0.025131
289	1.470975	0.005000	7.625524	-0.182888	-5.820484	0.035821	-0.159634	-0.661891	0.051044	-0.001261	0.025872
290	1.475975	0.005000	7.675686	-0.235440	-5.744394	0.035915	-0.159701	-0.661509	0.038458	0.009393	0.027707
291	1.480975	0.005000	7.597206	-0.274680	-5.771124	0.036143	-0.159701	-0.661128	0.036817	0.004648	0.028243
292	1.485975	0.005000	7.657488	-0.274680	-5.792166	0.036370	-0.159701	-0.660747	0.051418	-0.003093	0.018238
293	1.490975	0.005000	7.604400	-0.259140	-5.791980	0.036598	-0.159701	-0.660366	0.049088	-0.010353	0.026808
294	1.495975	0.005000	7.573320	-0.248722	-5.729040	0.036825	-0.159701	-0.659985	0.030752	-0.012716	0.023245
295	1.500975	0.005000	7.563185	-0.165794	-5.699935	0.037053	-0.159701	-0.659603	0.046791	-0.016385	0.018415
296	1.505975	0.005000	7.541371	-0.100354	-5.782863	0.037281	-0.159701	-0.659222	0.037963	-0.021991	0.026534
297	1.510975	0.005000	7.499287	-0.313920	-5.877105	0.037508	-0.159701	-0.658841	0.041233	-0.020615	0.033152
298	1.515975	0.005000	7.494840	-0.273077	-5.810727	0.037736	-0.159701	-0.658460	0.050329	-0.024285	0.029940
299	1.520975	0.005000	7.456840	-0.273440	-5.961999	0.037963	-0.159701	-0.658079	0.035437	-0.023280	0.027496
300	1.525975	0.005000	7.455600	-0.235440	-5.772364	0.038191	-0.159701	-0.657697	0.049571	-0.023594	0.027851
301	1.530975	0.005000	7.488366	-0.202674	-5.807520	0.038418	-0.159701	-0.657316	0.046787	-0.031790	0.024740
302	1.535975	0.005000	7.414393	-0.235440	-5.858045	0.038646	-0.159701	-0.656935	0.040968	-0.029322	0.022447
303	1.540975	0.005000	7.377120	-0.247602	-5.792605	0.038874	-0.159566	-0.656743	0.034359	-0.031878	0.032643
304	1.545975	0.005000	7.425588	-0.298914	-5.822526	0.039101	-0.159110	-0.656997	0.027284	-0.034002	0.031054
305	1.550975	0.005000	7.337880	-0.249750	-5.725500	0.039329	-0.158655	-0.657251	0.033549	-0.042616	0.027393
306	1.555975	0.005000	7.377120	-0.253986	-5.786826	0.039557	-0.158200	-0.657505	0.029885	-0.031701	0.020649
307	1.560975	0.005000	7.337880	-0.258509	-5.862931	0.039784	-0.157744	-0.657759	0.054469	-0.031448	0.029164
308	1.565975	0.005000	7.337880	-0.222113	-5.794193	0.040012	-0.157289	-0.658014	0.044168	-0.023681	0.034816
309	1.570975	0.005000	7.377120	-0.167443	-5.700283	0.040240	-0.156834	-0.658268	0.028820	-0.024833	0.028864
310	1.575975	0.005000	7.431638	-0.203839	-5.768280	0.040467	-0.156378	-0.658522	0.037682	-0.031068	0.032441
311	1.580975	0.005000	7.411565	-0.269885	-5.763485	0.040695	-0.155923	-0.658776	0.032678	-0.019906	0.036652
312	1.585975	0.005000	7.339855	-0.276655	-5.772230	0.040923	-0.155467	-0.659031	0.038179	-0.034155	0.025324
313	1.590975	0.005000	7.377120	-0.236287	-5.885576	0.041150	-0.155012	-0.659285	0.044832	-0.025755	0.029005
314	1.595975	0.005000	7.416360	-0.268145	-5.810787	0.041378	-0.154557	-0.659539	0.040363	-0.021750	0.025517
315	1.600975	0.005000	7.383231	-0.307809	-5.852871	0.041606	-0.154101	-0.659793	0.041213	-0.024746	0.025357
316	1.605975	0.005000	7.298640	-0.244395	-5.994765	0.041749	-0.153731	-0.660047	0.020390	-0.016489	0.016720
317	1.610975	0.005000	7.377120	-0.262881	-5.909598	0.041521	-0.153731	-0.660302	0.035845	-0.019856	0.017510
318	1.615975	0.005000	7.402005	-0.245969	-5.960654	0.041293	-0.153731	-0.660556	0.029145	-0.014581	0.018921
319	1.620975	0.005000	7.522220	-0.201374	-5.863793	0.041066	-0.153731	-0.660810	0.033644	-0.012640	0.018970
320	1.625975	0.005000	7.514717	-0.235954	-5.847274	0.040838	-0.153731	-0.661064	0.032120	-0.011920	0.021646
321	1.630975	0.005000	7.455600	-0.274680	-5.751761	0.040611	-0.153731	-0.661318	0.034528	-0.016695	0.013411
322	1.635975	0.005000	7.494840	-0.261005	-5.834870	0.040383	-0.153731	-0.661572	0.061406	-0.023715	0.018916
323	1.640975	0.005000	7.534080	-0.246740	-5.830120	0.040155	-0.153731	-0.661826	0.043415	-0.020769	0.017545
324	1.645975	0.005000	7.455600	-0.266224	-5.891416	0.039928	-0.153731	-0.662080	0.048607	-0.026639	0.008552
325	1.650975	0.005000	7.382732	-0.184976	-5.785117	0.039700	-0.153731	-0.662334	0.047252	-0.023083	0.006707
326	1.655975	0.005000	7.301408	-0.117720	-5.916935	0.039473	-0.153731	-0.662589	0.041617	-0.013502	0.003602
327	1.660975	0.005000	7.337880	-0.117720	-5.964177	0.039245	-0.153731	-0.662843	0.045976	-0.008713	0.000495
328	1.665975	0.005000	7.489909	-0.237906	-5.964480	0.039018	-0.153731	-0.663097	0.044084	-0.002342	0.004072
329	1.670975	0.005000	7.528770	-0.285299	-5.802210	0.038806	-0.153739	-0.663297	0.063266	-0.011537	0.005728
330	1.675975	0.005000	7.579946	-0.188046	-5.784587	0.038806	-0.153853	-0.662789	0.054188	-0.008375	-0.004107
331	1.680975	0.005000	7.455600	-0.185203	-5.846760	0.038806	-0.153967	-0.662281	0.051646	-0.007781	-0.005634
332	1.685975	0.005000	7.532717	-0.247612	-5.845397	0.038806	-0.154080	-0.661773	0.036886	-0.007247	-0.004285
333	1.690975	0.005000	7.557104	-0.297704	-5.948264	0.038806	-0.154194	-0.661264	0.034480	-0.007827	-0.014762
334	1.695975	0.005000	7.532961	-0.274680	-5.965599	0.038806	-0.154308	-0.660756	0.047852	-0.005994	-0.004404
335	1.700975	0.005000	7.573320	-0.296584	-5.964480	0.038806	-0.154422	-0.660248	0.057691	-0.002295	-0.014042
336	1.705975	0.005000	7.548572	-0.196200	-5.900492	0.038806	-0.154536	-0.659740	0.066156	-0.001741	-0.010854
337	1.710975	0.005000	7.627596	-0.156960	-5.901036	0.038806	-0.154650	-0.659232	0.044617	0.004416	-0.012753
338	1.715975	0.005000	7.485582	-0.235440	-5.897466	0.038806	-0.154763	-0.658723	0.061451	0.006532	-0.006552
339	1.720975	0.005000	7.482012	-0.169788	-5.826762	0.038806	-0.154877	-0.658215	0.057050	0.007025	-0.004287
340	1.725975	0.005000	7.419930	-0.231870	-5.921670	0.038806	-0.154991	-0.657707	0.053370	0.000304	-0.012177
341	1.730975	0.005000	7.496310	-0.119190	-5.924505	0.038806	-0.155105	-0.657199	0.056032	-0.002414	-0.011459
342	1.735975	0.005000	7.460547	-0.196200	-5.848409	0.038806	-0.155219	-0.656690	0.062725	0.006816	-0.014355
343	1.740975	0.005000	7.346866	-0.230947	-5.842267	0.038697	-0.155441	-0.657273	0.077351	0.006022	-0.017862
344	1.745975	0.005000	7.387013	-0.260007	-5.672570	0.038584	-0.155669	-0.657909	0.061212	0.004653	-0.008229
345	1.750975	0.005000	7.494840	-0.206381	-5.768280	0.038470	-0.155897	-0.658544	0.058378	0.007615	-0.016372
346	1.755975	0.005000	7.494840	-0.209225	-5.807686	0.038356	-0.156124	-0.659180	0.068662	0.005746	-0.021964
347	1.760975	0.005000	7.455600	-0.172360	-5.855201	0.038242	-0.156352	-0.659816	0.052877	0.006472	-0.019375
348	1.765975	0.005000	7.416360	-0.214443	-5.943483	0.038128	-0.156580	-0.660451	0.079064	-0.002408	-0.015939
349	1.770975	0.005000	7.434513	-0.175113	-5.928175	0.038014	-0.156807	-0.661087	0.046441	0.019839	-0.014883
350	1.775975	0.005000	7.558011	-0.266057	-5.816143	0.037900	-0.157035	-0.661722	0.053114	0.012011	-0.016188
351	1.780975	0.005000	7.480530	-0.262215	-5.753970	0.037786	-0.157263	-0.662358	0.057545	0.006869	-0.017022
352	1.785975	0.005000	7.554078	-0.117720	-5.758659	0.037672	-0.157490	-0.662994	0.041836	0.020361	-0.015779
353	1.790975	0.005000	7.527224	-0.184385	-5.872287	0.037559	-0.157718	-0.663629	0.052220	0.015410	-0.018147
354	1.795975	0.005000	7.564546	-0.196200	-5.807520	0.037445	-0.157946	-0.664265	0.043068	0.010995	-0.018173
355	1.800975	0.005000	7.496383	-0.080023	-5.843674	0.037331	-0.158173	-0.664900	0.053585	0.010698	-0.014986
356	1.805975	0.005000	7.496141	-0.155659	-5.730341	0.037313	-0.158113	-0.664786	0.050483	0.015048	-0.021039
357	1.810975	0.005000	7.643510	-0.192055	-5.790941	0.037313	-0.157999	-0.664532	0.043507	0.018278	-0.021575
358	1.815975	0.005000	7.691040	-0.203189	-5.736029	0.037313	-0.157885	-0.664277	0.054544	0.004826	-0.018842
359	1.820975	0.005000	7.571535	-0.196200	-5.798156	0.037313	-0.157772	-0.664023	0.033751	0.012068	-0.019263
360	1.825975	0.005000	7.546288	-0.156960	-5.780488	0.037313	-0.157658	-0.663769	0.052931	0.012523	-0.015212
361	1.830975	0.005000	7.485703	-0.205337	-5.813435	0.037313	-0.157544	-0.663515	0.034646	0.008206	-0.006600
362	1.835975	0.005000	7.476945	-0.214095	-5.846760	0.037313	-0.157430	-0.663261	0.037266	-0.007582	-0.007268
363	1.840975	0.005000	7.494840	-0.198006	-5.846760	0.037313	-0.157316	-0.663007	0.038865	-0.002164	-0.005530
364	1.845975	0.005000	7.517970	-0.110701	-5.784390	0.037313	-0.157202	-0.662753	0.033132	0.003229	-0.021091
365	1.850975	0.005000	7.547347	-0.183493	-5.742307	0.037313	-0.157089	-0.662499	0.048538	-0.004508	-0.002762
366	1.855975	0.005000	7.630955	-0.232989	-5.760308	0.037313	-0.156975	-0.662245	0.035607	-0.002845	-0.005369
367	1.860975	0.005000	7.588477	-0.188621	-5.744197	0.037313	-0.156861	-0.661990	0.044298	-0.011203	-0.004739
368	1.865975	0.005000	7.528876	-0.185792	-5.783891	0.037313	-0.156747	-0.661736	0.050396	-0.011974	-0.006109
369	1.870975	0.005000	7.494840	-0.193840	-5.888360	0.037313	-0.156799	-0.661759	0.055845	-0.000240	-0.000345
370	1.875975	0.005000	7.417328	-0.118204	-5.886484	0.037313	-0.156913	-0.661886	0.031026	-0.018632	0.014878
371	1.880975	0.005000	7.380448	-0.042568	-5.774936	0.037313	-0.157026	-0.662013	0.039401	-0.012013	0.010519
372	1.885975	0.005000	7.489055	-0.084265	-5.807520	0.037313	-0.157140	-0.662140	0.045520	-0.011494	0.007001
373	1.890975	0.005000	7.564758	-0.156960	-5.838198	0.037313	-0.157254	-0.662267	0.017486	-0.013865	0.009055
374	1.895975	0.005000	7.467006	-0.212628	-5.768280	0.037313	-0.157368	-0.662394	0.033240	-0.014391	-0.000627
375	1.900975	0.005000	7.427100	-0.206940	-5.882490	0.037313	-0.157482	-0.662521	0.039877	-0.015181	0.012536
376	1.905975	0.005000	7.460683	-0.213279	-5.824599	0.037313	-0.157596	-0.662648	0.040857	-0.004253	0.015107
377	1.910975	0.005000	7.514914	-0.117720	-5.787749	0.037313	-0.157709	-0.662775	0.048746	-0.003505	0.008981
378	1.915975	0.005000	7.556393	-0.117720	-5.768280	0.037313	-0.157823	-0.662902	0.036570	0.005660	0.013719
379	1.920975	0.005000	7.573320	-0.131803	-5.793437	0.037313	-0.157937	-0.663030	0.053010	-0.003455	0.017295
380	1.925975	0.005000	7.506080	-0.184960	-5.858000	0.037313	-0.158051	-0.663157	0.046539	-0.005084	0.012468
381	1.930975	0.005000	7.556326	-0.126217	-5.894497	0.037313	-0.158165	-0.663284	0.030009	-0.003187	0.010557
382	1.935975	0.005000	7.540101	-0.229419	-5.904062	0.037452	-0.158278	-0.663255	0.021356	-0.010591	0.017341
383	1.940975	0.005000	7.566967	-0.117720	-6.000543	0.037680	-0.158392	-0.663128	0.024704	-0.010672	-0.001689
384	1.945975	0.005000	7.651800	-0.195867	-6.041962	0.037908	-0.158506	-0.663001	0.037650	-0.010039	-0.000038
385	1.950975	0.005000	7.615071	-0.193689	-5.851782	0.038135	-0.158620	-0.662874	0.022491	-0.009254	0.012440
386	1.955975	0.005000	7.421715	-0.196200	-5.778990	0.038363	-0.158734	-0.662747	0.034261	-0.004206	0.005301
387	1.960975	0.005000	7.424196	-0.188364	-5.752608	0.038591	-0.158848	-0.662620	0.028837	-0.006557	0.008759
388	1.965975	0.005000	7.369647	-0.167549	-5.718451	0.038819	-0.158961	-0.662493	0.045252	-0.001801	0.008159
389	1.970975	0.005000	7.362628	-0.196200	-5.819894	0.039046	-0.159075	-0.662366	0.043700	-0.004540	0.009765
390	1.975975	0.005000	7.517803	-0.140683	-5.876409	0.039274	-0.159189	-0.662239	0.035060	-0.004967	0.006880
391	1.980975	0.005000	7.457085	-0.156960	-5.846760	0.039502	-0.159303	-0.662112	0.053944	-0.006612	0.004887
392	1.985975	0.005000	7.459352	-0.117720	-5.789776	0.039730	-0.159417	-0.661985	0.043578	0.000946	0.005559
393	1.990975	0.005000	7.494840	-0.196200	-5.798081	0.039957	-0.159530	-0.661858	0.036110	-0.000936	0.003586
394	1.995975	0.005000	7.479995	-0.129917	-5.834563	0.040185	-0.159644	-0.661731	0.038382	-0.000726	0.010811
395	2.000975	0.005000	7.455600	-0.098387	-5.807520	0.040071	-0.159758	-0.661603	0.004438	0.001178	0.011809
396	2.005975	0.005000	7.383942	-0.124542	-5.872355	0.039616	-0.159872	-0.661476	0.029774	-0.001505	0.005773
397	2.010975	0.005000	7.459578	-0.196200	-5.956523	0.039161	-0.159986	-0.661349	0.038303	0.006437	0.008463
398	2.015975	0.005000	7.340177	-0.235440	-5.807520	0.038706	-0.160099	-0.661222	0.050064	-0.000546	-0.003845
399	2.020975	0.005000	7.378360	-0.273440	-5.807520	0.038250	-0.160213	-0.661095	0.033292	0.001085	0.001726
400	2.025975	0.005000	7.521827	-0.204369	-5.850844	0.037795	-0.160327	-0.660968	0.044882	0.009410	0.000437
401	2.030975	0.005000	7.501768	-0.196200	-5.879072	0.037340	-0.160441	-0.660841	0.030387	-0.001879	0.002013
402	2.035975	0.005000	7.465027	-0.177345	-5.837333	0.036885	-0.160555	-0.660714	0.032135	0.005781	0.000311
403	2.040975	0.005000	7.401445	-0.142045	-5.807520	0.036429	-0.160669	-0.660587	0.049056	0.006910	-0.003221
404	2.045975	0.005000	7.440594	-0.126948	-5.861766	0.035974	-0.160782	-0.660460	0.042111	0.003462	0.003800
405	2.050975	0.005000	7.377120	-0.156960	-5.811060	0.035519	-0.160896	-0.660333	0.030279	0.005474	-0.002344
406	2.055975	0.005000	7.439202	-0.117720	-5.848908	0.035064	-0.161010	-0.660205	0.039780	-0.002511	0.003695
407	2.060975	0.005000	7.408524	-0.133422	-5.846760	0.034609	-0.161124	-0.660078	0.040713	0.009293	0.004371
408	2.065975	0.005000	7.442586	-0.209214	-5.833746	0.033804	-0.161718	-0.659171	0.039175	-0.003360	0.006072
409	2.070975	0.005000	7.465963	-0.156960	-5.945967	0.032438	-0.163084	-0.657011	0.030567	0.011002	-0.001492
410	2.075975	0.005000	7.541719	-0.149321	-5.854399	0.031073	-0.164449	-0.654851	0.039463	0.012461	-0.000570
411	2.080975	0.005000	7.656595	-0.112925	-5.876409	0.029708	-0.165814	-0.652691	0.038626	0.007636	0.002248
412	2.085975	0.005000	7.610609	-0.233489	-5.805569	0.028342	-0.167180	-0.650531	0.037470	0.011628	-0.003130
413	2.090975	0.005000	7.573320	-0.157389	-5.729469	0.026977	-0.168545	-0.648371	0.029025	0.002631	0.000929
414	2.095975	0.005000	7.537347	-0.117720	-5.768280	0.025611	-0.169911	-0.646210	0.029065	0.002814	0.002587
415	2.100975	0.005000	7.534080	-0.156960	-5.807520	0.024246	-0.171276	-0.644050	0.031635	0.004753	0.009034
416	2.105975	0.005000	7.525125	-0.156960	-5.746951	0.022880	-0.172642	-0.641890	0.039341	0.004931	0.011508
417	2.110975	0.005000	7.596918	-0.141318	-5.889842	0.021515	-0.174007	-0.639730	0.032887	0.002443	0.003260
418	2.115975	0.005000	7.548269	-0.078480	-5.846760	0.020149	-0.175373	-0.637570	0.035416	0.000855	0.009441
419	2.120975	0.005000	7.534080	-0.085166	-5.763106	0.018784	-0.176738	-0.635410	0.030042	-0.002138	-0.002985
420	2.125975	0.005000	7.494840	-0.059117	-5.807520	0.017419	-0.178103	-0.633250	0.045981	-0.003229	0.005988
421	2.130975	0.005000	7.432879	0.006202	-5.762078	0.016509	-0.178921	-0.631667	0.058487	-0.009425	-0.003798
422	2.135975	0.005000	7.573320	-0.117720	-5.740930	0.016851	-0.178238	-0.631667	0.056071	-0.000129	0.006478
423	2.140975	0.005000	7.534080	-0.085227	-5.722293	0.017192	-0.177555	-0.631667	0.043492	0.001543	0.013134
424	2.145975	0.005000	7.519091	-0.165044	-5.807520	0.017534	-0.176872	-0.631667	0.032595	0.003065	-0.001495
425	2.150975	0.005000	7.584544	-0.190588	-5.807520	0.017876	-0.176189	-0.631667	0.042489	-0.001865	0.000274
426	2.155975	0.005000	7.565015	-0.148655	-5.768280	0.018217	-0.175506	-0.631667	0.043816	0.009302	0.002099
427	2.160975	0.005000	7.338107	-0.039240	-5.807444	0.018559	-0.174823	-0.631667	0.047654	0.007194	0.009299
428	2.165975	0.005000	7.491920	-0.187441	-5.813359	0.018900	-0.174140	-0.631667	0.043280	-0.005133	0.003320
429	2.170975	0.005000	7.494840	-0.223913	-5.840997	0.019242	-0.173457	-0.631667	0.044903	-0.000506	-0.000766
430	2.175975	0.005000	7.551295	-0.187593	-5.746255	0.019583	-0.172774	-0.631667	0.042739	-0.005181	0.003079
431	2.180975	0.005000	7.545077	-0.174205	-5.785525	0.019925	-0.172091	-0.631667	0.032625	-0.002971	0.000222
432	2.185975	0.005000	7.480999	-0.106163	-5.731324	0.020266	-0.171408	-0.631667	0.044357	-0.003129	0.013607
433	2.190975	0.005000	7.511525	-0.173645	-5.689800	0.020608	-0.170725	-0.631667	0.044737	-0.009163	0.012286
434	2.195975	0.005000	7.553972	-0.176671	-5.631212	0.020985	-0.170167	-0.631866	0.050646	-0.010129	0.007435
435	2.200975	0.005000	7.556453	-0.156960	-5.768280	0.021554	-0.170281	-0.633137	0.063911	-0.010326	0.003524
436	2.205975	0.005000	7.559127	-0.196200	-5.793327	0.022123	-0.170395	-0.634408	0.046328	-0.008400	0.004996
437	2.210975	0.005000	7.545728	-0.168608	-5.740688	0.022692	-0.170508	-0.635678	0.062485	-0.006316	0.007619
438	2.215975	0.005000	7.603756	-0.126524	-5.759476	0.023261	-0.170622	-0.636949	0.031892	-0.002347	0.009822
439	2.220975	0.005000	7.494840	-0.084440	-5.740960	0.023830	-0.170736	-0.638220	0.043209	-0.008229	0.015687
440	2.225975	0.005000	7.576436	-0.156960	-5.774512	0.024399	-0.170850	-0.639490	0.039788	-0.009905	0.001869
441	2.230975	0.005000	7.612015	-0.117720	-5.768552	0.024968	-0.170964	-0.640761	0.047010	-0.001239	0.004850
442	2.235975	0.005000	7.534080	-0.117720	-5.807520	0.025536	-0.171077	-0.642031	0.038842	-0.010799	0.008608
443	2.240975	0.005000	7.567904	-0.146129	-5.729040	0.026105	-0.171191	-0.643302	0.031692	-0.009917	0.003880
444	2.245975	0.005000	7.573320	-0.086365	-5.736925	0.026674	-0.171305	-0.644573	0.046706	-0.008758	0.008914
445	2.250975	0.005000	7.516109	-0.021269	-5.700434	0.027243	-0.171419	-0.645843	0.027657	-0.011666	0.010385
446	2.255975	0.005000	7.494840	-0.156960	-5.832087	0.027812	-0.171533	-0.647114	0.050141	-0.014806	-0.002237
447	2.260975	0.005000	7.517758	-0.078480	-5.886000	0.028372	-0.171619	-0.648354	0.060786	-0.011034	0.001467
448	2.265975	0.005000	7.534988	-0.135979	-5.845852	0.028713	-0.171050	-0.648862	0.062076	-0.003602	0.001110
449	2.270975	0.005000	7.481786	-0.100289	-5.833706	0.029055	-0.170481	-0.649370	0.057015	-0.014548	0.004132
450	2.275975	0.005000	7.563760	-0.068920	-5.919961	0.029396	-0.169912	-0.649878	0.040828	-0.012530	0.000401
451	2.280975	0.005000	7.588568	-0.105724	-5.780276	0.029737	-0.169343	-0.650387	0.060110	-0.010318	-0.001226
452	2.285975	0.005000	7.452968	-0.108568	-5.749976	0.030079	-0.168774	-0.650895	0.048364	-0.004729	0.011933
453	2.290975	0.005000	7.540388	-0.138036	-5.708724	0.030420	-0.168205	-0.651403	0.040893	-0.004258	-0.003953
454	2.295975	0.005000	7.687107	-0.011799	-5.815386	0.030762	-0.167636	-0.651912	0.073502	-0.012513	0.003944
455	2.300975	0.005000	7.571142	-0.115542	-5.923062	0.031103	-0.167067	-0.652420	0.045340	-0.008464	0.000352
456	2.305975	0.005000	7.457355	-0.039240	-5.884245	0.031444	-0.166498	-0.652928	0.054816	-0.016377	0.009352
457	2.310975	0.005000	7.390916	-0.073881	-5.886000	0.031786	-0.165929	-0.653436	0.042576	-0.011993	0.007742
458	2.315975	0.005000	7.448157	-0.149517	-5.814963	0.032127	-0.165360	-0.653945	0.050922	-0.017222	-0.000482
459	2.320975	0.005000	7.455600	-0.167247	-5.855140	0.032469	-0.164791	-0.654453	0.056540	-0.018132	-0.004454
460	2.325975	0.005000	7.377120	-0.131607	-5.780957	0.032810	-0.164222	-0.654961	0.048652	-0.011039	-0.004537
461	2.330975	0.005000	7.534957	-0.180679	-5.846760	0.033362	-0.163864	-0.654765	0.045092	-0.013633	-0.000744
462	2.335975	0.005000	7.534080	-0.078480	-5.888511	0.033931	-0.163522	-0.654511	0.048852	-0.010867	0.005691
463	2.340975	0.005000	7.558465	-0.039240	-5.828728	0.034500	-0.163181	-0.654257	0.043927	-0.014175	0.004635
464	2.345975	0.005000	7.446735	-0.030375	-5.792332	0.035069	-0.162839	-0.654003	0.048850	-0.006351	-0.002233
465	2.350975	0.005000	7.534080	-0.078480	-5.792968	0.035638	-0.162498	-0.653749	0.056189	-0.000914	0.002111
466	2.355975	0.005000	7.524580	-0.177200	-5.886000	0.036207	-0.162157	-0.653495	0.055054	-0.014100	0.004811
467	2.360975	0.005000	7.509090	-0.092730	-5.925240	0.036776	-0.161815	-0.653241	0.043864	-0.013790	-0.004850
468	2.365975	0.005000	7.459881	-0.113439	-5.816082	0.037345	-0.161474	-0.652986	0.058927	-0.016642	-0.000438
469	2.370975	0.005000	7.496277	-0.156960	-5.804646	0.037914	-0.161132	-0.652732	0.041947	-0.012444	0.008115
470	2.375975	0.005000	7.534080	-0.119127	-5.804706	0.038483	-0.160791	-0.652478	0.051053	-0.021819	0.005588
471	2.380975	0.005000	7.463194	-0.082277	-5.768280	0.039052	-0.160449	-0.652224	0.046244	-0.017877	0.001097
472	2.385975	0.005000	7.448959	-0.150319	-5.840119	0.039621	-0.160108	-0.651970	0.048249	-0.016437	0.005152
473	2.390975	0.005000	7.544866	-0.156960	-5.906270	0.040190	-0.159767	-0.651716	0.049535	-0.020447	0.003202
474	2.395975	0.005000	7.573320	-0.088555	-5.873671	0.040299	-0.159977	-0.651975	0.030422	-0.016237	-0.004946
475	2.400975	0.005000	7.470773	-0.093653	-5.822693	0.040299	-0.160318	-0.652356	0.045126	-0.029778	0.007327
476	2.405975	0.005000	7.534080	-0.156960	-5.789972	0.040299	-0.160660	-0.652737	0.041825	-0.022704	0.003141
477	2.410975	0.005000	7.455600	-0.117720	-5.846760	0.040299	-0.161001	-0.653118	0.041822	-0.020202	-0.004072
478	2.415975	0.005000	7.487609	-0.156960	-5.814751	0.040299	-0.161342	-0.653500	0.059861	-0.020511	-0.001900
479	2.420975	0.005000	7.494840	-0.222279	-5.755119	0.040299	-0.161684	-0.653881	0.055726	-0.010319	0.003588
480	2.425975	0.005000	7.445283	-0.154933	-5.749674	0.040299	-0.162025	-0.654262	0.052149	-0.020758	0.005038
481	2.430975	0.005000	7.400476	-0.047182	-5.878058	0.040299	-0.162367	-0.654643	0.038504	-0.022336	0.006972
482	2.435975	0.005000	7.465796	-0.151862	-5.880902	0.040299	-0.162708	-0.655024	0.038211	-0.023047	0.006097
483	2.440975	0.005000	7.490332	-0.113212	-5.812028	0.040299	-0.163049	-0.655406	0.030975	-0.019532	0.006028
484	2.445975	0.005000	7.455010	-0.039240	-5.963300	0.040299	-0.163391	-0.655787	0.038263	-0.017177	0.002789
485	2.450975	0.005000	7.494840	-0.081914	-5.967914	0.040299	-0.163732	-0.656168	0.045593	-0.022561	0.012426
486	2.455975	0.005000	7.494840	-0.051796	-5.780836	0.040299	-0.164074	-0.656549	0.040317	-0.012828	0.005742
487	2.460975	0.005000	7.425028	-0.139624	-5.851328	0.040378	-0.163943	-0.656667	0.054728	-0.020121	0.011617
488	2.465975	0.005000	7.483328	-0.161665	-5.835248	0.040491	-0.163601	-0.656667	0.039693	-0.012930	0.006482
489	2.470975	0.005000	7.509196	-0.067951	-5.871644	0.040605	-0.163260	-0.656667	0.044120	-0.014324	0.005101
490	2.475975	0.005000	7.556120	-0.039240	-5.881159	0.040719	-0.162918	-0.656667	0.047901	-0.012591	0.012483
491	2.480975	0.005000	7.592516	-0.117720	-5.964480	0.040833	-0.162577	-0.656667	0.034826	-0.016493	0.008483
492	2.485975	0.005000	7.527545	-0.117720	-5.892535	0.040947	-0.162235	-0.656667	0.048128	-0.021155	0.004742
493	2.490975	0.005000	7.610784	-0.092152	-5.911568	0.041060	-0.161894	-0.656667	0.036232	-0.015882	0.010156
494	2.495975	0.005000	7.584454	-0.111881	-5.857894	0.041174	-0.161552	-0.656667	0.055826	-0.017377	0.003316
495	2.500975	0.005000	7.525790	-0.156960	-5.871629	0.041288	-0.161210	-0.656667	0.038936	-0.026384	0.011323
496	2.505975	0.005000	7.478503	-0.140623	-5.875108	0.041402	-0.160869	-0.656667	0.047001	-0.024065	-0.000761
497	2.510975	0.005000	7.450396	-0.005204	-5.851964	0.041516	-0.160527	-0.656667	0.053765	-0.019572	0.005828
498	2.515975	0.005000	7.416118	-0.195474	-5.964238	0.041629	-0.160186	-0.656667	0.044767	-0.013371	0.006464
499	2.520975	0.005000	7.524822	0.026896	-5.895258	0.041743	-0.159844	-0.656667	0.045256	-0.022215	0.012695
500	2.525975	0.005000	7.455600	-0.105860	-5.840830	0.041791	-0.160164	-0.656150	0.061921	-0.025341	0.004090
501	2.530975	0.005000	7.416360	-0.026321	-5.886000	0.041791	-0.160960	-0.655261	0.041914	-0.019031	0.012875
502	2.535975	0.005000	7.416360	-0.050404	-5.874836	0.041791	-0.161757	-0.654371	0.047174	-0.020693	0.009357
503	2.540975	0.005000	7.455600	-0.168184	-5.911232	0.041791	-0.162553	-0.653482	0.036567	-0.014417	0.002283
504	2.545975	0.005000	7.461137	-0.067165	-5.869148	0.041791	-0.163350	-0.652592	0.053336	-0.027174	0.002222
505	2.550975	0.005000	7.474993	-0.156809	-5.925240	0.041791	-0.164146	-0.651703	0.040426	-0.009061	-0.001534
506	2.555975	0.005000	7.517380	-0.173660	-5.857621	0.041791	-0.164943	-0.650813	0.044946	-0.021626	0.008402
507	2.560975	0.005000	7.497170	-0.180014	-5.899857	0.041791	-0.165739	-0.649924	0.040033	-0.025021	0.005668
508	2.565975	0.005000	7.584802	-0.112925	-5.897482	0.041791	-0.166536	-0.649035	0.047443	-0.021923	0.008494
509	2.570975	0.005000	7.569372	-0.039240	-5.855398	0.041791	-0.167333	-0.648145	0.064469	-0.028964	0.005493
510	2.575975	0.005000	7.444013	-0.045034	-5.897587	0.041791	-0.168129	-0.647256	0.051618	-0.021107	0.005946
511	2.580975	0.005000	7.419310	-0.084380	-5.894849	0.041791	-0.168926	-0.646366	0.057073	-0.026140	-0.000919
512	2.585975	0.005000	7.416467	-0.078587	-5.885786	0.041791	-0.169722	-0.645477	0.048702	-0.022916	0.011015
513	2.590975	0.005000	7.381658	-0.117720	-5.844491	0.041685	-0.169779	-0.645531	0.063013	-0.032618	0.003011
514	2.595975	0.005000	7.342993	-0.117720	-5.744379	0.041458	-0.168982	-0.646675	0.051101	-0.029056	0.004581
515	2.600975	0.005000	7.369163	0.015369	-5.932652	0.041230	-0.168185	-0.647819	0.048719	-0.018538	0.009388
516	2.605975	0.005000	7.341843	-0.067679	-5.907602	0.041002	-0.167388	-0.648964	0.051572	-0.023597	-0.001274
517	2.610975	0.005000	7.285449	-0.091338	-5.846760	0.040775	-0.166591	-0.650108	0.053009	-0.019906	-0.004961
518	2.615975	0.005000	7.423530	-0.007170	-5.987685	0.040547	-0.165794	-0.651252	0.057978	-0.018937	-0.006350
519	2.620975	0.005000	7.475961	-0.058119	-5.887482	0.040319	-0.164997	-0.652396	0.059543	-0.014090	-0.007268
520	2.625975	0.005000	7.438083	-0.117720	-5.846760	0.040092	-0.164201	-0.653540	0.054687	-0.015487	0.002720
521	2.630975	0.005000	7.425898	-0.196200	-5.925240	0.039864	-0.163404	-0.654684	0.059369	-0.019460	0.005688
522	2.635975	0.005000	7.416360	-0.093123	-5.886000	0.039636	-0.162607	-0.655828	0.056371	-0.008431	0.009493
523	2.640975	0.005000	7.416360	-0.136629	-5.914364	0.039408	-0.161810	-0.656973	0.079909	-0.010481	-0.002986
524	2.645975	0.005000	7.357712	-0.196200	-5.892611	0.039181	-0.161013	-0.658117	0.048771	-0.010242	0.009905
525	2.650975	0.005000	7.373353	-0.153193	-5.929007	0.038953	-0.160216	-0.659261	0.052202	-0.012693	-0.003400
526	2.655975	0.005000	7.297717	-0.118643	-5.967248	0.038887	-0.159741	-0.659910	0.072625	-0.019999	0.005564
527	2.660975	0.005000	7.334038	-0.082322	-5.970243	0.039114	-0.159855	-0.659656	0.059316	-0.014787	0.004824
528	2.665975	0.005000	7.431775	-0.127250	-6.038195	0.039342	-0.159969	-0.659402	0.059628	-0.017532	0.008488
529	2.670975	0.005000	7.487685	-0.110565	-6.003720	0.039570	-0.160083	-0.659147	0.056132	-0.011904	0.001307
530	2.675975	0.005000	7.416360	-0.117720	-5.974479	0.039797	-0.160197	-0.658893	0.055819	-0.012046	0.000895
531	2.680975	0.005000	7.298834	-0.169910	-5.898950	0.040025	-0.160311	-0.658639	0.042429	-0.022047	0.009997
532	2.685975	0.005000	7.337880	-0.125541	-5.901687	0.040253	-0.160425	-0.658385	0.051762	-0.013791	0.009702
533	2.690975	0.005000	7.416360	-0.080658	-5.945949	0.040480	-0.160538	-0.658130	0.056370	-0.023742	0.013721
534	2.695975	0.005000	7.337880	0.021375	-5.982345	0.040708	-0.160652	-0.657876	0.059683	-0.025313	0.005230
535	2.700975	0.005000	7.322859	-0.093501	-6.057981	0.040936	-0.160766	-0.657622	0.066539	-0.018993	0.002082
536	2.705975	0.005000	7.298640	-0.143013	-6.002419	0.041163	-0.160880	-0.657368	0.047953	-0.011059	0.006256
537	2.710975	0.005000	7.347682	-0.186398	-6.003720	0.041391	-0.160994	-0.657114	0.063236	-0.006790	0.007582
538	2.715975	0.005000	7.298640	-0.096844	-6.024596	0.041619	-0.161108	-0.656859	0.061541	-0.009991	0.009238
539	2.720975	0.005000	7.294525	-0.008229	-6.069856	0.041819	-0.161166	-0.656636	0.064709	-0.019719	0.010279
540	2.725975	0.005000	7.299911	-0.235440	-5.926511	0.041933	-0.161052	-0.656509	0.066986	-0.013075	0.014928
541	2.730975	0.005000	7.262546	-0.197773	-6.002147	0.042046	-0.160939	-0.656382	0.052990	-0.007942	0.005953
542	2.735975	0.005000	7.263363	-0.192237	-5.854687	0.042160	-0.160825	-0.656255	0.071233	-0.013241	0.014889
543	2.740975	0.005000	7.305447	-0.117720	-5.867182	0.042274	-0.160711	-0.656128	0.058252	-0.012544	0.012488
544	2.745975	0.005000	7.357182	-0.186549	-5.895651	0.042388	-0.160597	-0.656001	0.060430	-0.012606	0.004832
545	2.750975	0.005000	7.364625	-0.222945	-5.991225	0.042502	-0.160483	-0.655873	0.067740	-0.007453	0.009751
546	2.755975	0.005000	7.401021	-0.133059	-6.019059	0.042616	-0.160369	-0.655746	0.057686	-0.004724	0.011994
547	2.760975	0.005000	7.377120	-0.085247	-6.042960	0.042729	-0.160256	-0.655619	0.052799	0.003954	0.014671
548	2.765975	0.005000	7.339756	-0.156960	-5.986914	0.042843	-0.160142	-0.655492	0.046166	0.004088	0.011411
549	2.770975	0.005000	7.251836	-0.141122	-5.948642	0.042957	-0.160028	-0.655365	0.050139	-0.001788	0.003870
550	2.775975	0.005000	7.272394	-0.065229	-5.964480	0.043071	-0.159914	-0.655238	0.061156	-0.010422	0.006777
551	2.780975	0.005000	7.269550	-0.108931	-6.072050	0.043185	-0.159800	-0.655111	0.059693	0.000312	0.005250
552	2.785975	0.005000	7.345186	-0.110414	-5.961772	0.043298	-0.159701	-0.654951	0.079039	0.001840	0.010276
553	2.790975	0.005000	7.440806	-0.098206	-6.121440	0.043412	-0.159701	-0.654570	0.063082	0.010750	0.004488
554	2.795975	0.005000	7.342055	-0.161135	-6.007895	0.043526	-0.159701	-0.654189	0.066614	-0.002603	0.008108
555	2.800975	0.005000	7.377876	-0.196956	-6.043716	0.043640	-0.159701	-0.653807	0.048066	0.005075	0.002894
556	2.805975	0.005000	7.416360	-0.082080	-6.121440	0.043754	-0.159701	-0.653426	0.057740	0.000377	0.004797
557	2.810975	0.005000	7.390008	-0.189756	-5.931684	0.043867	-0.159701	-0.653045	0.067891	0.004601	0.000851
558	2.815975	0.005000	7.356456	-0.216864	-5.955192	0.043981	-0.159701	-0.652663	0.052401	0.005486	0.010286
559	2.820975	0.005000	7.365442	-0.235440	-5.941124	0.044095	-0.159701	-0.652282	0.059229	-0.003505	0.007817
560	2.825975	0.005000	7.362598	-0.249962	-5.999394	0.044209	-0.159701	-0.651900	0.044984	0.007612	0.014101
561	2.830975	0.005000	7.394486	-0.113212	-6.008228	0.044323	-0.159701	-0.651519	0.051135	0.002571	0.016350
562	2.835975	0.005000	7.375940	-0.175990	-5.985870	0.044437	-0.159701	-0.651138	0.050702	0.001697	0.017156
563	2.840975	0.005000	7.501316	-0.173342	-5.958004	0.044550	-0.159701	-0.650756	0.048984	0.008101	0.009992
564	2.845975	0.005000	7.520269	-0.117720	-6.080007	0.044664	-0.159701	-0.650375	0.057644	0.003462	0.009898
565	2.850975	0.005000	7.405393	-0.178894	-5.992753	0.044768	-0.159714	-0.649994	0.055465	0.010216	0.014934
566	2.855975	0.005000	7.298640	-0.242187	-5.894123	0.044313	-0.160511	-0.649612	0.061598	0.002564	0.012938
567	2.860975	0.005000	7.332601	-0.112441	-5.969759	0.043858	-0.161308	-0.649231	0.059784	-0.000166	0.019992
568	2.865975	0.005000	7.337880	-0.083351	-5.922805	0.043403	-0.162104	-0.648850	0.049382	0.006183	0.014478
569	2.870975	0.005000	7.376712	-0.156960	-5.924832	0.042948	-0.162901	-0.648469	0.041604	0.004300	0.020985
570	2.875975	0.005000	7.380372	-0.009757	-5.850012	0.042493	-0.163697	-0.648088	0.039792	0.008887	0.011326
571	2.880975	0.005000	7.343976	-0.105527	-5.886000	0.042037	-0.164494	-0.647706	0.055715	-0.005520	0.004046
572	2.885975	0.005000	7.428779	-0.139080	-5.976899	0.041582	-0.165290	-0.647325	0.042833	0.001827	0.005790
573	2.890975	0.005000	7.393434	-0.129183	-5.953017	0.041127	-0.166087	-0.646944	0.044456	0.008769	0.005900
574	2.895975	0.005000	7.483948	-0.142786	-6.014612	0.040672	-0.166883	-0.646563	0.042909	0.009411	0.009948
575	2.900975	0.005000	7.411156	-0.095498	-5.954072	0.040217	-0.167680	-0.646182	0.041290	0.004980	0.011750
576	2.905975	0.005000	7.377604	-0.137098	-5.924756	0.039762	-0.168477	-0.645800	0.045037	0.002416	0.006573
577	2.910975	0.005000	7.449428	-0.084652	-6.032598	0.039306	-0.169273	-0.645419	0.038715	0.009268	0.000660
578	2.915975	0.005000	7.493010	-0.105860	-5.952620	0.038851	-0.170070	-0.645038	0.046017	0.012930	0.012624
579	2.920975	0.005000	7.551628	-0.167806	-5.936086	0.038806	-0.169329	-0.645458	0.051979	0.021075	0.013066
580	2.925975	0.005000	7.400355	-0.156960	-6.019725	0.038806	-0.168418	-0.645966	0.049670	0.014999	0.011029
581	2.930975	0.005000	7.353355	-0.162118	-6.027485	0.038806	-0.167508	-0.646475	0.035940	0.016695	0.014850
582	2.935975	0.005000	7.447250	-0.117720	-6.009287	0.038806	-0.166597	-0.646983	0.040091	0.010428	0.010718
583	2.940975	0.005000	7.376597	-0.117720	-5.966050	0.038806	-0.165686	-0.647492	0.043680	0.017472	0.017899
584	2.945975	0.005000	7.446887	-0.075576	-6.031342	0.038806	-0.164775	-0.648001	0.039884	0.013328	0.017121
585	2.950975	0.005000	7.349377	-0.089977	-6.082200	0.038806	-0.163865	-0.648509	0.047520	0.010335	0.009324
586	2.955975	0.005000	7.421231	-0.069888	-6.020905	0.038806	-0.162954	-0.649018	0.041012	0.006297	0.014801
587	2.960975	0.005000	7.416360	-0.168396	-5.890931	0.038806	-0.162043	-0.649526	0.038017	0.015292	0.015608
588	2.965975	0.005000	7.443982	-0.182389	-5.911429	0.038806	-0.161132	-0.650035	0.056002	0.014148	0.016808
589	2.970975	0.005000	7.416360	-0.078480	-5.914515	0.038806	-0.160222	-0.650543	0.038410	0.018362	0.018917
590	2.975975	0.005000	7.357379	-0.098221	-5.886000	0.038806	-0.159311	-0.651052	0.041823	0.008150	0.007591
591	2.980975	0.005000	7.371674	-0.095377	-5.807520	0.038806	-0.158400	-0.651560	0.038452	0.014854	0.008076
592	2.985975	0.005000	7.455600	-0.092533	-5.886000	0.039076	-0.157939	-0.651567	0.038333	0.020371	0.018222
593	2.990975	0.005000	7.472421	-0.117720	-5.919628	0.039417	-0.157598	-0.651440	0.046455	0.007359	0.017732
594	2.995975	0.005000	7.464063	-0.070017	-5.908314	0.039759	-0.157256	-0.651312	0.042367	0.014581	0.013973
595	3.000975	0.005000	7.325929	-0.117720	-5.780231	0.040100	-0.156915	-0.651185	0.045157	0.003362	0.016640
596	3.005975	0.005000	7.530949	-0.009394	-5.853023	0.040441	-0.156574	-0.651058	0.046127	0.008293	0.016624
597	3.010975	0.005000	7.377982	-0.156385	-5.924665	0.040783	-0.156232	-0.650931	0.051609	0.001823	0.014444
598	3.015975	0.005000	7.458156	-0.151847	-5.920127	0.041124	-0.155891	-0.650804	0.032423	0.005993	0.025344
599	3.020975	0.005000	7.387921	-0.083880	-5.886000	0.041466	-0.155549	-0.650677	0.040576	0.006656	0.025904
600	3.025975	0.005000	7.400621	-0.180461	-6.027221	0.041807	-0.155208	-0.650550	0.041451	0.007277	0.025020
601	3.030975	0.005000	7.405741	-0.110338	-5.914621	0.042148	-0.154867	-0.650423	0.021852	0.013246	0.018299
602	3.035975	0.005000	7.402897	-0.196200	-5.886000	0.042490	-0.154525	-0.650296	0.038146	0.001839	0.018251
603	3.040975	0.005000	7.471907	-0.156960	-6.033279	0.042831	-0.154184	-0.650169	0.061187	0.007111	0.022246
604	3.045975	0.005000	7.494840	-0.138747	-6.001844	0.043173	-0.153842	-0.650041	0.069564	0.015338	0.020948
605	3.050975	0.005000	7.421110	-0.134965	-5.785525	0.043284	-0.153961	-0.650257	0.050805	0.006784	0.026515
606	3.055975	0.005000	7.412397	-0.185762	-5.879526	0.043284	-0.154303	-0.650638	0.049980	0.009579	0.023338
607	3.060975	0.005000	7.467157	-0.207757	-5.897557	0.043284	-0.154644	-0.651020	0.057216	0.007775	0.027874
608	3.065975	0.005000	7.433990	-0.205015	-5.934055	0.043284	-0.154986	-0.651401	0.056862	0.011416	0.012637
609	3.070975	0.005000	7.422683	-0.156960	-5.925240	0.043284	-0.155327	-0.651782	0.056710	0.008821	0.010512
610	3.075975	0.005000	7.455600	-0.107282	-5.921761	0.043284	-0.155669	-0.652164	0.055983	0.013096	0.015460
611	3.080975	0.005000	7.454329	-0.079115	-5.925875	0.043284	-0.156010	-0.652545	0.054823	0.005851	0.019097
612	3.085975	0.005000	7.414151	-0.117720	-5.853386	0.043284	-0.156352	-0.652927	0.055315	0.001525	0.015661
613	3.090975	0.005000	7.411308	-0.136750	-5.910083	0.043284	-0.156694	-0.653308	0.060101	0.004068	0.014696
614	3.095975	0.005000	7.431395	-0.093515	-5.996203	0.043284	-0.157035	-0.653689	0.056774	0.008676	0.014045
615	3.100975	0.005000	7.426631	0.000000	-5.964480	0.043284	-0.157377	-0.654071	0.054476	0.005704	0.010891
616	3.105975	0.005000	7.350995	-0.156854	-5.977489	0.043284	-0.157718	-0.654452	0.063311	0.008444	0.006235
617	3.110975	0.005000	7.407722	-0.133679	-5.901959	0.043284	-0.158060	-0.654833	0.069025	0.006760	0.017116
618	3.115975	0.005000	7.515277	-0.197834	-6.082200	0.043028	-0.158337	-0.655072	0.054520	0.009135	0.023538
619	3.120975	0.005000	7.377120	-0.156960	-5.942833	0.042572	-0.158565	-0.655199	0.067348	0.009369	0.017759
620	3.125975	0.005000	7.274327	-0.211127	-6.091585	0.042117	-0.158792	-0.655326	0.060312	0.012530	0.019875
621	3.130975	0.005000	7.362628	-0.169334	-5.991346	0.041662	-0.159020	-0.655453	0.056531	0.011580	0.014698
622	3.135975	0.005000	7.377120	-0.166490	-5.895530	0.041207	-0.159247	-0.655580	0.078248	0.006573	0.017341
623	3.140975	0.005000	7.337880	-0.085166	-5.951108	0.040751	-0.159475	-0.655707	0.064458	0.012349	0.010048
624	3.145975	0.005000	7.369435	-0.117720	-5.999878	0.040296	-0.159703	-0.655834	0.070258	0.002509	0.021805
625	3.150975	0.005000	7.375123	-0.117720	-5.926238	0.039841	-0.159930	-0.655961	0.045419	0.012609	0.009688
626	3.155975	0.005000	7.298640	-0.117720	-6.040144	0.039386	-0.160158	-0.656088	0.059864	0.012565	0.016435
627	3.160975	0.005000	7.342116	-0.156960	-5.925240	0.038931	-0.160385	-0.656215	0.054966	0.016065	0.016706
628	3.165975	0.005000	7.352039	-0.117720	-5.918160	0.038475	-0.160613	-0.656343	0.065421	0.018447	0.007547
629	3.170975	0.005000	7.367197	-0.166883	-5.866607	0.038020	-0.160841	-0.656470	0.070016	0.013783	0.009449
630	3.175975	0.005000	7.429127	-0.130487	-5.912473	0.037565	-0.161068	-0.656597	0.055145	0.015633	0.004670
631	3.180975	0.005000	7.416360	-0.117720	-5.964480	0.037466	-0.161245	-0.656497	0.070140	0.011762	0.010525
632	3.185975	0.005000	7.377120	-0.138974	-6.024974	0.037807	-0.161359	-0.656115	0.064169	0.018405	0.020245
633	3.190975	0.005000	7.356290	-0.217030	-5.886000	0.038148	-0.161473	-0.655734	0.067792	0.019990	0.009976
634	3.195975	0.005000	7.471166	-0.141394	-5.815628	0.038490	-0.161586	-0.655353	0.077756	0.021380	0.019102
635	3.200975	0.005000	7.350751	-0.131218	-5.963853	0.038831	-0.161700	-0.654972	0.066446	0.020325	0.013440
636	3.205975	0.005000	7.395696	-0.059904	-6.032628	0.039173	-0.161814	-0.654591	0.063416	0.015806	0.017829
637	3.210975	0.005000	7.360344	-0.117720	-6.035472	0.039514	-0.161928	-0.654210	0.050464	0.012740	0.016810
638	3.215975	0.005000	7.372476	-0.083124	-5.842116	0.039855	-0.162042	-0.653828	0.048749	0.007347	0.006118
639	3.220975	0.005000	7.377120	-0.194400	-5.966280	0.040197	-0.162155	-0.653447	0.057292	0.018519	0.013509
640	3.225975	0.005000	7.415316	-0.080568	-6.003720	0.040538	-0.162269	-0.653066	0.062937	0.024024	0.018832
641	3.230975	0.005000	7.341299	-0.156960	-5.964480	0.040880	-0.162383	-0.652685	0.058338	0.021004	0.018074
642	3.235975	0.005000	7.370857	-0.130245	-5.904788	0.041221	-0.162497	-0.652304	0.046876	0.017933	0.020846
643	3.240975	0.005000	7.365200	-0.126827	-5.955373	0.041562	-0.162611	-0.651922	0.064851	0.012599	0.009234
644	3.245975	0.005000	7.381466	-0.156960	-5.858391	0.041753	-0.162612	-0.651835	0.069293	0.015623	0.022559
645	3.250975	0.005000	7.441259	-0.153178	-5.925240	0.041640	-0.162384	-0.652343	0.054262	0.010027	0.011574
646	3.255975	0.005000	7.529209	-0.156960	-5.868815	0.041526	-0.162156	-0.652852	0.056706	0.008662	0.013505
647	3.260975	0.005000	7.436388	-0.097692	-6.002086	0.041412	-0.161929	-0.653360	0.062003	0.009509	0.005980
648	3.265975	0.005000	7.393488	-0.206063	-5.970985	0.041298	-0.161701	-0.653869	0.069259	0.007577	0.014513
649	3.270975	0.005000	7.416360	-0.170484	-5.950956	0.041184	-0.161473	-0.654377	0.056359	0.016348	0.003235
650	3.275975	0.005000	7.343674	-0.156960	-5.790578	0.041071	-0.161245	-0.654886	0.052770	0.006242	0.015100
651	3.280975	0.005000	7.290335	-0.173570	-5.824130	0.040957	-0.161017	-0.655394	0.040771	0.011201	0.017769
652	3.285975	0.005000	7.371659	-0.263758	-6.037499	0.040843	-0.160790	-0.655903	0.044571	0.012232	0.011296
653	3.290975	0.005000	7.413743	-0.238057	-5.917389	0.040729	-0.160562	-0.656411	0.063692	0.011565	0.014458
654	3.295975	0.005000	7.299094	-0.235667	-5.885546	0.040615	-0.160334	-0.656919	0.042128	0.014898	0.015689
655	3.300975	0.005000	7.404077	-0.202342	-5.882929	0.040502	-0.160106	-0.657428	0.046060	0.008742	0.019177
656	3.305975	0.005000	7.449685	-0.196200	-5.897829	0.040388	-0.159879	-0.657936	0.051438	0.009233	0.003831
657	3.310975	0.005000	7.463890	-0.140381	-5.939611	0.040249	-0.159676	-0.658221	0.067813	0.013637	0.006134
658	3.315975	0.005000	7.281667	-0.089614	-5.975614	0.040021	-0.159562	-0.657713	0.048089	0.012997	0.010391
659	3.320975	0.005000	7.273378	-0.193507	-6.068222	0.039794	-0.159449	-0.657205	0.048130	0.022847	0.008554
660	3.325975	0.005000	7.298640	-0.213021	-6.003720	0.039566	-0.159335	-0.656697	0.066330	0.023183	0.018465
661	3.330975	0.005000	7.377120	-0.235440	-5.964480	0.039339	-0.159221	-0.656189	0.048135	0.016927	0.024561
662	3.335975	0.005000	7.359935	-0.235440	-5.986535	0.039111	-0.159108	-0.655681	0.053653	0.012816	0.018878
663	3.340975	0.005000	7.323539	-0.153178	-5.921458	0.038884	-0.158994	-0.655173	0.057442	0.003206	0.010937
664	3.345975	0.005000	7.388617	-0.145463	-5.897497	0.038656	-0.158880	-0.654665	0.065745	0.015720	0.011599
665	3.350975	0.005000	7.346533	-0.148307	-5.964480	0.038429	-0.158766	-0.654157	0.059224	0.013980	0.011096
666	3.355975	0.005000	7.449791	-0.156960	-5.970289	0.038201	-0.158653	-0.653649	0.046470	0.018880	0.013066
667	3.360975	0.005000	7.458565	-0.081445	-5.888965	0.037973	-0.158539	-0.653141	0.055683	0.011739	0.020377
668	3.365975	0.005000	7.455010	-0.078480	-5.886590	0.037746	-0.158425	-0.652633	0.048575	0.016516	0.010894
669	3.370975	0.005000	7.453346	-0.152452	-5.999212	0.037518	-0.158312	-0.652126	0.037034	0.016386	0.014737
670	3.375975	0.005000	7.382218	-0.191102	-5.925240	0.037346	-0.158231	-0.651692	0.029157	0.015056	0.014637
671	3.380975	0.005000	7.424302	-0.133604	-5.878058	0.037688	-0.158459	-0.651946	0.027260	0.022409	0.008668
672	3.385975	0.005000	7.320211	-0.167746	-5.936026	0.038029	-0.158687	-0.652200	0.046842	0.015009	0.013884
673	3.390975	0.005000	7.273030	-0.196200	-6.053292	0.038371	-0.158914	-0.652454	0.048541	0.025934	0.010434
674	3.395975	0.005000	7.439126	-0.111427	-6.082200	0.038713	-0.159142	-0.652709	0.050027	0.018278	0.016467
675	3.400975	0.005000	7.475523	-0.137037	-6.003720	0.039054	-0.159370	-0.652963	0.042197	0.028674	0.022176
676	3.405975	0.005000	7.459775	-0.135252	-5.921065	0.039396	-0.159597	-0.653217	0.035697	0.020113	0.016888
677	3.410975	0.005000	7.416360	-0.196200	-5.930066	0.039737	-0.159825	-0.653471	0.037092	0.019230	0.017397
678	3.415975	0.005000	7.349725	-0.141409	-5.960774	0.040079	-0.160053	-0.653726	0.045183	0.020953	0.016738
679	3.420975	0.005000	7.437599	-0.057241	-5.964480	0.040420	-0.160280	-0.653980	0.050627	0.026447	0.018904
680	3.425975	0.005000	7.350194	-0.123877	-6.042960	0.040762	-0.160508	-0.654234	0.051551	0.019727	0.021655
681	3.430975	0.005000	7.524021	-0.196200	-6.118087	0.041103	-0.160736	-0.654488	0.051087	0.025450	0.013965
682	3.435975	0.005000	7.414484	-0.196200	-6.078448	0.041445	-0.160963	-0.654742	0.040854	0.027326	0.024489
683	3.440975	0.005000	7.375214	-0.158866	-5.962574	0.041787	-0.161191	-0.654997	0.026812	0.027184	0.009177
684	3.445975	0.005000	7.293890	-0.156960	-6.008470	0.040893	-0.162766	-0.653370	0.032588	0.023171	0.015217
685	3.450975	0.005000	7.220160	-0.196200	-5.964480	0.039982	-0.164360	-0.651718	0.055384	0.030260	0.011729
686	3.455975	0.005000	7.277764	-0.146522	-5.946116	0.039072	-0.165953	-0.650066	0.046561	0.025416	0.014437
687	3.460975	0.005000	7.324902	-0.065502	-6.029982	0.038162	-0.167546	-0.648414	0.047330	0.029222	0.035983
688	3.465975	0.005000	7.314303	-0.172623	-5.972395	0.037251	-0.169139	-0.646762	0.038552	0.028406	0.026501
689	3.470975	0.005000	7.337880	-0.138459	-6.082200	0.036341	-0.170732	-0.645110	0.059745	0.031515	0.022714
690	3.475975	0.005000	7.337880	-0.199649	-6.025065	0.035431	-0.172325	-0.643458	0.050092	0.035964	0.025046
691	3.480975	0.005000	7.322828	-0.111805	-5.979532	0.034520	-0.173918	-0.641806	0.067251	0.036085	0.033503
692	3.485975	0.005000	7.391659	-0.130070	-5.976830	0.033610	-0.175511	-0.640154	0.049832	0.042056	0.027994
693	3.490975	0.005000	7.347698	-0.215835	-6.033142	0.032700	-0.177104	-0.638502	0.060924	0.036785	0.022610
694	3.495975	0.005000	7.298640	-0.189226	-5.978427	0.031789	-0.178698	-0.636851	0.058712	0.032505	0.028740
695	3.500975	0.005000	7.337880	-0.192070	-5.956221	0.030879	-0.180291	-0.635199	0.056952	0.042641	0.021238
696	3.505975	0.005000	7.263257	-0.158246	-5.964480	0.029969	-0.181884	-0.633547	0.057953	0.032030	0.030796
697	3.510975	0.005000	7.339438	-0.045472	-5.964480	0.029851	-0.181595	-0.633333	0.041522	0.037778	0.021014
698	3.515975	0.005000	7.157603	-0.003981	-5.964480	0.029851	-0.181026	-0.633333	0.055665	0.035290	0.020989
699	3.520975	0.005000	7.324326	-0.189423	-6.095754	0.029851	-0.180457	-0.633333	0.064410	0.036998	0.017949
700	3.525975	0.005000	7.328259	-0.166581	-5.964480	0.029851	-0.179888	-0.633333	0.072497	0.043211	0.013773
701	3.530975	0.005000	7.337880	-0.183735	-5.978790	0.029851	-0.179319	-0.633333	0.074531	0.039775	0.019953
702	3.535975	0.005000	7.298640	-0.172269	-5.877377	0.029851	-0.178750	-0.633333	0.059338	0.044276	0.015038
703	3.540975	0.005000	7.295705	-0.175113	-5.870782	0.029851	-0.178181	-0.633333	0.071991	0.038122	0.014934
704	3.545975	0.005000	7.377120	-0.198953	-5.750037	0.029851	-0.177612	-0.633333	0.070133	0.044638	0.011317
705	3.550975	0.005000	7.353460	-0.133300	-5.744620	0.029851	-0.177043	-0.633333	0.068372	0.041172	0.011731
706	3.555975	0.005000	7.416148	-0.117720	-5.768280	0.029851	-0.176474	-0.633333	0.068569	0.037848	0.015380
707	3.560975	0.005000	7.435269	-0.088645	-5.826429	0.029851	-0.175905	-0.633333	0.063274	0.041380	0.019887
708	3.565975	0.005000	7.384442	-0.132363	-5.854082	0.029851	-0.175336	-0.633333	0.082950	0.032449	0.015934
709	3.570975	0.005000	7.538558	-0.200678	-5.816475	0.029851	-0.174767	-0.633333	0.067701	0.044594	0.011446
710	3.575975	0.005000	7.610926	-0.194566	-5.810787	0.029937	-0.173941	-0.633620	0.057500	0.031248	0.013651
711	3.580975	0.005000	7.611350	-0.156960	-5.847970	0.030051	-0.173030	-0.634002	0.066652	0.028060	0.003213
712	3.585975	0.005000	7.651800	-0.227332	-5.760172	0.030164	-0.172120	-0.634383	0.075477	0.031700	0.005618
713	3.590975	0.005000	7.638942	-0.078480	-5.807520	0.030278	-0.171210	-0.634764	0.078802	0.028645	0.013744
714	3.595975	0.005000	7.681767	-0.147687	-5.867454	0.030392	-0.170299	-0.635145	0.069980	0.029268	0.018032
715	3.600975	0.005000	7.636794	-0.196200	-5.858877	0.030506	-0.169389	-0.635526	0.058116	0.013389	0.009181
716	3.605975	0.005000	7.627521	-0.087798	-5.904637	0.030619	-0.168479	-0.635908	0.077523	0.013674	0.001978
717	3.610975	0.005000	7.608929	-0.121351	-5.882369	0.030733	-0.167568	-0.636289	0.081929	0.006106	0.000611
718	3.615975	0.005000	7.573320	-0.159017	-5.768280	0.030847	-0.166658	-0.636670	0.078992	0.010500	0.008057
719	3.620975	0.005000	7.667547	-0.211947	-5.839015	0.030961	-0.165748	-0.637051	0.077656	0.002635	0.006196
720	3.625975	0.005000	7.652632	-0.235440	-5.885168	0.031074	-0.164838	-0.637432	0.088190	0.001142	0.009028
721	3.630975	0.005000	7.719767	-0.206713	-5.818033	0.031188	-0.163927	-0.637814	0.075079	0.014948	0.002844
722	3.635975	0.005000	7.651800	-0.227771	-5.760611	0.031302	-0.163017	-0.638195	0.090190	0.002909	0.009710
723	3.640975	0.005000	7.612560	-0.235440	-5.807520	0.031561	-0.162542	-0.639387	0.082011	-0.010482	0.000311
724	3.645975	0.005000	7.571338	-0.274680	-5.805538	0.031902	-0.162314	-0.641039	0.065267	-0.000033	-0.002492
725	3.650975	0.005000	7.572473	-0.236287	-5.768280	0.032244	-0.162086	-0.642692	0.076840	0.005691	0.000926
726	3.655975	0.005000	7.504665	-0.235440	-5.768280	0.032585	-0.161859	-0.644345	0.075389	0.004706	-0.003866
727	3.660975	0.005000	7.467762	-0.156960	-5.768280	0.032927	-0.161631	-0.645997	0.094771	-0.003467	0.010829
728	3.665975	0.005000	7.455600	-0.235440	-5.798595	0.033269	-0.161403	-0.647650	0.071936	0.002459	0.015089
729	3.670975	0.005000	7.534080	-0.219738	-5.819289	0.033610	-0.161175	-0.649303	0.091740	0.005531	-0.004400
730	3.675975	0.005000	7.686441	-0.171573	-5.797506	0.033952	-0.160947	-0.650955	0.084714	0.002862	0.000611
731	3.680975	0.005000	7.668993	-0.213393	-5.758573	0.034293	-0.160720	-0.652608	0.099360	0.008584	-0.011513
732	3.685975	0.005000	7.573320	-0.215608	-5.787688	0.034635	-0.160492	-0.654261	0.082343	0.004134	-0.004085
733	3.690975	0.005000	7.612560	-0.179636	-5.863324	0.034976	-0.160264	-0.655913	0.071545	0.007941	-0.002301
734	3.695975	0.005000	7.638080	-0.198121	-5.978200	0.035318	-0.160036	-0.657566	0.069726	-0.000011	-0.010320
735	3.700975	0.005000	7.595073	-0.274680	-6.014596	0.035660	-0.159809	-0.659219	0.085343	0.014425	0.000473
736	3.705975	0.005000	7.509700	-0.258427	-5.886000	0.036241	-0.159641	-0.659933	0.110297	0.007707	-0.003241
737	3.710975	0.005000	7.466885	-0.168245	-5.891642	0.037038	-0.159527	-0.659806	0.078263	0.003310	0.001268
738	3.715975	0.005000	7.455600	-0.196200	-5.958883	0.037834	-0.159414	-0.659679	0.073718	0.012720	-0.009014
739	3.720975	0.005000	7.455600	-0.235395	-6.042778	0.038631	-0.159300	-0.659552	0.077523	0.011095	0.009049
740	3.725975	0.005000	7.449821	-0.313920	-5.894668	0.039427	-0.159186	-0.659425	0.062493	0.014574	0.008828
741	3.730975	0.005000	7.455600	-0.319653	-5.846760	0.040224	-0.159072	-0.659298	0.074121	0.003220	0.000425
742	3.735975	0.005000	7.501255	-0.243646	-5.902413	0.041020	-0.158959	-0.659170	0.057278	0.005790	0.002408
743	3.740975	0.005000	7.540464	-0.257344	-5.779232	0.041817	-0.158845	-0.659043	0.066146	0.005979	0.005323
744	3.745975	0.005000	7.494840	-0.235440	-5.846760	0.042613	-0.158731	-0.658916	0.074181	0.005111	0.010153
745	3.750975	0.005000	7.416360	-0.291320	-5.840800	0.043410	-0.158617	-0.658789	0.076938	0.018075	0.003227
746	3.755975	0.005000	7.416360	-0.235440	-5.768280	0.044207	-0.158504	-0.658662	0.076195	0.013297	0.004178
747	3.760975	0.005000	7.416360	-0.347744	-5.835929	0.045003	-0.158390	-0.658535	0.052659	0.010607	0.005811
748	3.765975	0.005000	7.416360	-0.299852	-5.897103	0.045800	-0.158276	-0.658408	0.067720	0.015466	0.000839
749	3.770975	0.005000	7.433151	-0.274680	-5.869209	0.045988	-0.158162	-0.658281	0.079714	0.016133	0.000697
750	3.775975	0.005000	7.402556	-0.283159	-5.838281	0.045305	-0.158048	-0.658154	0.053270	0.017016	-0.004381
751	3.780975	0.005000	7.494840	-0.353160	-5.813510	0.044622	-0.157934	-0.658027	0.049259	0.009279	0.002744
752	3.785975	0.005000	7.452454	-0.241733	-5.964480	0.043939	-0.157821	-0.657900	0.054263	0.008480	0.006347
753	3.790975	0.005000	7.377725	-0.274377	-6.002812	0.043256	-0.157707	-0.657772	0.059905	0.014167	0.000697
754	3.795975	0.005000	7.418901	-0.308837	-5.775904	0.042573	-0.157593	-0.657645	0.057686	0.015621	0.002568
755	3.800975	0.005000	7.612560	-0.318896	-5.841784	0.041890	-0.157479	-0.657518	0.053260	0.026495	0.003491
756	3.805975	0.005000	7.510361	-0.258721	-5.948959	0.041207	-0.157365	-0.657391	0.049205	0.020525	0.004886
757	3.810975	0.005000	7.562716	-0.228013	-6.050387	0.040523	-0.157251	-0.657264	0.031564	0.018914	0.000611
758	3.815975	0.005000	7.585664	-0.261232	-5.938688	0.039840	-0.157137	-0.657137	0.060953	0.010155	0.007426
759	3.820975	0.005000	7.527424	-0.313920	-6.017032	0.039157	-0.157023	-0.657010	0.043036	0.011392	0.001542
760	3.825975	0.005000	7.574774	-0.354614	-5.926694	0.038474	-0.156910	-0.656883	0.053071	0.001527	0.001325
761	3.830975	0.005000	7.551809	-0.278462	-5.854324	0.037791	-0.156796	-0.656756	0.056799	0.006763	0.001800
762	3.835975	0.005000	7.602501	-0.328511	-5.743631	0.037347	-0.156784	-0.656514	0.061554	0.016493	-0.006189
763	3.840975	0.005000	7.588477	-0.325961	-5.886000	0.037461	-0.157012	-0.656006	0.053307	0.012523	0.001170
764	3.845975	0.005000	7.594165	-0.265483	-5.835112	0.037575	-0.157240	-0.655498	0.041559	0.007949	0.013117
765	3.850975	0.005000	7.449172	-0.248296	-5.886000	0.037689	-0.157467	-0.654989	0.047849	0.008655	0.008548
766	3.855975	0.005000	7.424287	-0.278643	-5.889963	0.037803	-0.157695	-0.654481	0.041773	0.006107	0.010307
767	3.860975	0.005000	7.572201	-0.273561	-5.964480	0.037916	-0.157922	-0.653973	0.031243	0.013596	0.011409
768	3.865975	0.005000	7.534080	-0.272955	-5.964480	0.038030	-0.158150	-0.653465	0.044790	-0.000094	0.009522
769	3.870975	0.005000	7.460168	-0.274680	-5.925240	0.038144	-0.158377	-0.652956	0.044266	0.000968	0.004306
770	3.875975	0.005000	7.423303	-0.242383	-5.782167	0.038258	-0.158605	-0.652448	0.040922	0.002673	0.009801
771	3.880975	0.005000	7.524293	-0.196200	-5.778067	0.038372	-0.158833	-0.651940	0.040045	0.004710	0.000447
772	3.885975	0.005000	7.442969	-0.196200	-5.768280	0.038485	-0.159060	-0.651431	0.051671	0.002480	0.005497
773	3.890975	0.005000	7.471075	-0.235440	-5.902579	0.038599	-0.159288	-0.650923	0.056099	0.005059	0.006228
774	3.895975	0.005000	7.434225	-0.274680	-5.925240	0.038713	-0.159515	-0.650415	0.035190	0.007876	0.003227
775	3.900975	0.005000	7.412003	-0.216909	-5.927418	0.038869	-0.159659	-0.650094	0.032279	0.009545	0.005906
776	3.905975	0.005000	7.486974	-0.196200	-5.988033	0.039210	-0.159431	-0.650602	0.034537	0.007809	0.001140
777	3.910975	0.005000	7.403362	-0.156960	-5.951482	0.039552	-0.159204	-0.651111	0.045135	0.009019	0.009126
778	3.915975	0.005000	7.426828	-0.245908	-5.896468	0.039894	-0.158976	-0.651619	0.036788	0.008451	0.005294
779	3.920975	0.005000	7.392368	-0.203824	-5.854384	0.040235	-0.158748	-0.652128	0.035102	0.011943	0.004476
780	3.925975	0.005000	7.377120	-0.156960	-5.939581	0.040577	-0.158521	-0.652636	0.045409	0.002934	0.009653
781	3.930975	0.005000	7.418296	-0.239313	-5.999847	0.040918	-0.158293	-0.653145	0.035928	0.008343	-0.002894
782	3.935975	0.005000	7.416819	-0.275139	-5.925240	0.041260	-0.158065	-0.653653	0.028108	0.012089	0.003023
783	3.940975	0.005000	7.341178	-0.196200	-5.964480	0.041601	-0.157838	-0.654162	0.039018	0.019687	0.003272
784	3.945975	0.005000	7.488698	-0.183917	-6.063775	0.041943	-0.157610	-0.654670	0.041303	0.019184	-0.002521
785	3.950975	0.005000	7.386106	-0.096451	-6.042960	0.042284	-0.157382	-0.655179	0.045996	0.016374	0.005600
786	3.955975	0.005000	7.298640	-0.211781	-6.042960	0.042626	-0.157155	-0.655687	0.039932	0.013612	0.004348
787	3.960975	0.005000	7.372340	-0.250113	-5.954587	0.042968	-0.156927	-0.656196	0.050459	0.018470	0.003423
788	3.965975	0.005000	7.508152	-0.148549	-5.956069	0.043250	-0.156716	-0.656695	0.040602	0.023764	-0.002917
789	3.970975	0.005000	7.377120	-0.136827	-6.023853	0.042795	-0.156716	-0.657076	0.021877	0.014559	-0.004138
790	3.975975	0.005000	7.387391	-0.026775	-5.925240	0.042340	-0.156716	-0.657457	0.030979	0.016283	0.006414
791	3.980975	0.005000	7.414620	-0.182540	-6.003720	0.041885	-0.156716	-0.657839	0.036926	0.020555	-0.003236
792	3.985975	0.005000	7.416360	-0.110928	-5.960456	0.041430	-0.156716	-0.658220	0.036257	0.019499	0.008306
793	3.990975	0.005000	7.337880	-0.188228	-5.815492	0.040974	-0.156716	-0.658601	0.045552	0.020241	0.002198
794	3.995975	0.005000	7.528483	-0.201797	-5.874806	0.040519	-0.156716	-0.658982	0.051838	0.021471	-0.001400
795	4.000975	0.005000	7.424619	-0.266421	-5.891506	0.040064	-0.156716	-0.659363	0.047980	0.017170	0.000119
796	4.005975	0.005000	7.612378	-0.196109	-5.925331	0.039609	-0.156716	-0.659745	0.043188	0.025186	-0.000043
797	4.010975	0.005000	7.606691	-0.156960	-5.849695	0.039153	-0.156716	-0.660126	0.064389	0.018566	0.007000
798	4.015975	0.005000	7.460925	-0.156960	-5.909266	0.038698	-0.156716	-0.660507	0.048527	0.020701	0.003484
799	4.020975	0.005000	7.486671	-0.109551	-5.877831	0.038243	-0.156716	-0.660888	0.052148	0.011786	0.017234
800	4.025975	0.005000	7.427373	-0.106707	-5.897013	0.037788	-0.156716	-0.661269	0.055034	0.014489	0.010836
801	4.030975	0.005000	7.568661	-0.182343	-5.860617	0.037332	-0.156716	-0.661651	0.052917	-0.005327	0.005730
802	4.035975	0.005000	7.606176	-0.088523	-5.745468	0.037640	-0.156716	-0.661545	0.046886	0.000582	-0.001940
803	4.040975	0.005000	7.554245	-0.118809	-5.829863	0.037981	-0.156716	-0.661418	0.056967	0.002353	-0.001056
804	4.045975	0.005000	7.477519	-0.200799	-5.842161	0.038323	-0.156716	-0.661291	0.075660	-0.006698	0.007672
805	4.050975	0.005000	7.391597	-0.156960	-5.900477	0.038664	-0.156716	-0.661164	0.058834	0.002053	0.005172
806	4.055975	0.005000	7.483207	-0.172934	-5.920898	0.039005	-0.156716	-0.661037	0.082766	0.002883	0.007041
807	4.060975	0.005000	7.446811	-0.126509	-5.855549	0.039347	-0.156716	-0.660910	0.050859	-0.004940	0.014971
808	4.065975	0.005000	7.410345	-0.241455	-5.937269	0.039688	-0.156716	-0.660783	0.059523	-0.006299	0.003801
809	4.070975	0.005000	7.330770	-0.160515	-5.878890	0.040030	-0.156716	-0.660656	0.064646	0.001131	0.003862
810	4.075975	0.005000	7.299351	-0.234018	-5.886000	0.040371	-0.156716	-0.660529	0.079367	-0.001222	0.004460
811	4.080975	0.005000	7.412094	-0.231174	-5.848893	0.040712	-0.156716	-0.660402	0.079110	0.001650	-0.004154
812	4.085975	0.005000	7.628988	-0.274680	-5.807520	0.041054	-0.156716	-0.660274	0.058001	0.002151	-0.007434
813	4.090975	0.005000	7.509544	-0.267328	-5.910536	0.041395	-0.156716	-0.660147	0.065655	0.001262	-0.007409
814	4.095975	0.005000	7.544276	-0.196200	-5.827911	0.041737	-0.156716	-0.660020	0.062673	0.003585	-0.010970
815	4.100975	0.005000	7.520919	-0.248480	-5.807399	0.041408	-0.157099	-0.659359	0.090125	0.006030	-0.008925
816	4.105975	0.005000	7.573320	-0.274680	-5.800047	0.040953	-0.157554	-0.658596	0.059910	0.002503	-0.007045
817	4.110975	0.005000	7.589542	-0.233175	-5.904487	0.040497	-0.158010	-0.657833	0.047497	-0.007061	-0.002572
818	4.115975	0.005000	7.594438	-0.196200	-5.852750	0.040042	-0.158465	-0.657070	0.063291	-0.011619	-0.022987
819	4.120975	0.005000	7.534080	-0.235440	-5.783558	0.039587	-0.158921	-0.656308	0.054179	-0.001487	-0.009724
820	4.125975	0.005000	7.509211	-0.262245	-5.886000	0.039131	-0.159376	-0.655545	0.067919	-0.006636	-0.022449
821	4.130975	0.005000	7.504431	-0.245031	-5.886000	0.038676	-0.159832	-0.654782	0.064953	-0.010830	-0.009034
822	4.135975	0.005000	7.423576	-0.242656	-5.839544	0.038221	-0.160287	-0.654019	0.048472	-0.003999	-0.012222
823	4.140975	0.005000	7.433847	-0.274680	-5.846760	0.037765	-0.160742	-0.653257	0.047570	-0.010795	-0.010385
824	4.145975	0.005000	7.571792	-0.273152	-5.846760	0.037310	-0.161198	-0.652494	0.048080	-0.003717	-0.019363
825	4.150975	0.005000	7.420308	-0.311288	-5.732988	0.036854	-0.161653	-0.651731	0.040869	-0.013194	-0.017168
826	4.155975	0.005000	7.494840	-0.313920	-5.968216	0.036399	-0.162109	-0.650968	0.047013	0.002453	-0.013744
827	4.160975	0.005000	7.318245	-0.287750	-5.859830	0.035944	-0.162564	-0.650206	0.031290	0.004310	-0.020151
828	4.165975	0.005000	7.464979	-0.274680	-5.738419	0.036070	-0.162354	-0.650464	0.086560	-0.003917	-0.025477
829	4.170975	0.005000	7.467823	-0.274680	-5.925240	0.036412	-0.161899	-0.651099	0.031131	-0.003087	-0.026229
830	4.175975	0.005000	7.455600	-0.226333	-5.958520	0.036753	-0.161444	-0.651735	0.039027	-0.007840	-0.031222
831	4.180975	0.005000	7.483767	-0.235440	-5.886000	0.037095	-0.160989	-0.652370	0.025237	0.009826	-0.016326
832	4.185975	0.005000	7.515595	-0.216955	-5.844491	0.037436	-0.160534	-0.653005	0.043109	-0.001777	-0.023939
833	4.190975	0.005000	7.478745	-0.235440	-5.996671	0.037777	-0.160078	-0.653641	0.025240	0.009101	-0.017158
834	4.195975	0.005000	7.403623	-0.327171	-6.003720	0.038119	-0.159623	-0.654276	0.027593	0.009123	-0.012136
835	4.200975	0.005000	7.455600	-0.245848	-5.867575	0.038460	-0.159168	-0.654911	0.021302	0.005125	-0.020754
836	4.205975	0.005000	7.573320	-0.251989	-5.956916	0.038802	-0.158713	-0.655547	0.009136	0.002138	-0.020344
837	4.210975	0.005000	7.450880	-0.196200	-5.920520	0.039143	-0.158257	-0.656182	0.021022	0.002751	-0.024450
838	4.215975	0.005000	7.450911	-0.193855	-5.964480	0.039484	-0.157802	-0.656817	0.038062	0.006283	-0.016466
839	4.220975	0.005000	7.377120	-0.156960	-5.886998	0.039826	-0.157347	-0.657452	0.025356	0.010395	-0.023217
840	4.225975	0.005000	7.305326	-0.160303	-6.000377	0.040167	-0.156892	-0.658088	0.033862	0.007252	-0.012325
841	4.230975	0.005000	7.304827	-0.130094	-5.997533	0.040159	-0.157065	-0.658333	0.037202	0.010059	-0.014175
842	4.235975	0.005000	7.355942	-0.147929	-5.982542	0.039932	-0.157634	-0.658333	0.031914	0.004504	-0.013746
843	4.240975	0.005000	7.282242	-0.117720	-5.953059	0.039704	-0.158203	-0.658333	0.023798	0.012021	-0.010674
844	4.245975	0.005000	7.337880	-0.103455	-5.846760	0.039476	-0.158772	-0.658333	0.024408	0.010569	-0.009422
845	4.250975	0.005000	7.320771	-0.100611	-5.891022	0.039249	-0.159341	-0.658333	0.020948	0.004403	-0.006734
846	4.255975	0.005000	7.319258	-0.118386	-6.023007	0.039021	-0.159910	-0.658333	0.015523	0.012511	-0.004196
847	4.260975	0.005000	7.344233	-0.124073	-5.980923	0.038793	-0.160479	-0.658333	0.016889	0.016572	-0.002470
848	4.265975	0.005000	7.315673	-0.182132	-6.017788	0.038566	-0.161048	-0.658333	0.017017	0.031335	0.009883
849	4.270975	0.005000	7.393911	-0.117720	-6.059751	0.038338	-0.161617	-0.658333	0.020736	0.025204	-0.004050
850	4.275975	0.005000	7.360359	-0.117720	-6.090580	0.038110	-0.162186	-0.658333	0.029571	0.019023	0.012764
851	4.280975	0.005000	7.293039	-0.044841	-6.127072	0.037883	-0.162755	-0.658333	0.025923	0.013393	0.006751
852	4.285975	0.005000	7.265693	-0.075334	-6.000574	0.037655	-0.163324	-0.658333	0.030883	0.006209	0.006957
853	4.290975	0.005000	7.415755	-0.118023	-6.003720	0.037427	-0.163893	-0.658333	0.020101	0.011846	0.002872
854	4.295975	0.005000	7.374579	-0.156960	-6.003720	0.037426	-0.163953	-0.658270	0.021297	0.010247	0.000829
855	4.300975	0.005000	7.343265	-0.050011	-5.969865	0.037654	-0.163497	-0.658143	0.027908	0.019493	0.002499
856	4.305975	0.005000	7.314348	-0.172638	-6.019398	0.037882	-0.163042	-0.658016	0.021496	0.016072	0.006235
857	4.310975	0.005000	7.348484	-0.196200	-5.975084	0.038109	-0.162587	-0.657889	0.031343	0.011469	0.014589
858	4.315975	0.005000	7.455600	-0.183856	-5.991376	0.038337	-0.162132	-0.657762	0.028835	0.023358	0.007403
859	4.320975	0.005000	7.508152	-0.179908	-5.902292	0.038565	-0.161677	-0.657635	0.031209	0.022943	0.004848
860	4.325975	0.005000	7.453664	-0.136856	-5.945344	0.038792	-0.161222	-0.657508	0.017816	0.019153	0.011008
861	4.330975	0.005000	7.298640	-0.191480	-5.999000	0.039020	-0.160767	-0.657381	0.037594	0.025091	0.011680
862	4.335975	0.005000	7.323289	-0.177078	-6.009247	0.039247	-0.160311	-0.657254	0.031937	0.028442	0.008880
863	4.340975	0.005000	7.377120	-0.102563	-5.873959	0.039475	-0.159856	-0.657127	0.032025	0.020527	0.019446
864	4.345975	0.005000	7.434755	-0.108523	-5.816717	0.039703	-0.159401	-0.657000	0.038336	0.024845	0.020518
865	4.350975	0.005000	7.429067	-0.091187	-5.879647	0.039930	-0.158946	-0.656873	0.039225	0.019287	0.020038
866	4.355975	0.005000	7.459110	-0.067951	-5.818049	0.040158	-0.158491	-0.656746	0.035620	0.018883	0.014796
867	4.360975	0.005000	7.454927	-0.039240	-5.848107	0.040429	-0.158209	-0.656715	0.026342	0.030856	0.014661
868	4.365975	0.005000	7.491391	-0.076755	-5.887725	0.040771	-0.158209	-0.656842	0.033370	0.020318	0.014474
869	4.370975	0.005000	7.598855	0.073912	-5.802952	0.041112	-0.158209	-0.656970	0.028506	0.021498	0.013349
870	4.375975	0.005000	7.558495	0.031828	-5.903003	0.041454	-0.158209	-0.657097	0.022477	0.018962	0.013102
871	4.380975	0.005000	7.602654	-0.029334	-5.905429	0.041795	-0.158209	-0.657224	0.038291	0.013826	0.014132
872	4.385975	0.005000	7.573320	-0.053218	-5.939218	0.042137	-0.158209	-0.657351	0.021910	0.019768	0.006776
873	4.390975	0.005000	7.423545	-0.054715	-5.995430	0.042478	-0.158209	-0.657478	0.029788	0.017046	0.018397
874	4.395975	0.005000	7.458202	-0.020921	-5.985401	0.042819	-0.158209	-0.657605	0.032984	0.014717	0.011290
875	4.400975	0.005000	7.476763	0.036154	-5.907163	0.043161	-0.158209	-0.657732	0.040048	0.013082	0.002667
876	4.405975	0.005000	7.361887	0.024007	-5.886000	0.043502	-0.158209	-0.657859	0.041292	0.008138	0.012172
877	4.410975	0.005000	7.482451	-0.012389	-5.898389	0.043844	-0.158209	-0.657986	0.039748	0.005150	0.010963
878	4.415975	0.005000	7.475749	-0.068935	-5.934785	0.044185	-0.158209	-0.658113	0.040440	0.005684	0.005747
879	4.420975	0.005000	7.391430	-0.007155	-5.967944	0.044527	-0.158209	-0.658240	0.042481	0.011048	0.017663
880	4.425975	0.005000	7.407737	-0.078480	-5.846760	0.044653	-0.158271	-0.658333	0.050420	0.017250	0.015128
881	4.430975	0.005000	7.339347	-0.194733	-5.964480	0.044198	-0.158498	-0.658333	0.049617	0.008825	0.019532
882	4.435975	0.005000	7.377120	-0.156960	-5.964480	0.043743	-0.158726	-0.658333	0.047549	0.007379	0.005694
883	4.440975	0.005000	7.302860	-0.121940	-5.929460	0.043287	-0.158953	-0.658333	0.049471	0.008052	0.005433
884	4.445975	0.005000	7.213485	-0.085155	-5.892675	0.042832	-0.159181	-0.658333	0.056200	0.018665	-0.002009
885	4.450975	0.005000	7.328441	-0.138081	-5.915801	0.042377	-0.159408	-0.658333	0.059012	0.013176	0.001823
886	4.455975	0.005000	7.350163	-0.115330	-5.886000	0.041922	-0.159636	-0.658333	0.070916	0.023946	0.002188
887	4.460975	0.005000	7.534080	-0.102593	-5.861887	0.041467	-0.159864	-0.658333	0.059088	0.026560	-0.005167
888	4.465975	0.005000	7.412565	-0.139238	-5.889795	0.041012	-0.160091	-0.658333	0.054729	0.020685	0.005134
889	4.470975	0.005000	7.377120	-0.119202	-5.868604	0.040556	-0.160319	-0.658333	0.058270	0.031341	-0.000152
890	4.475975	0.005000	7.526910	-0.071310	-5.823555	0.040101	-0.160546	-0.658333	0.057448	0.016326	0.004027
891	4.480975	0.005000	7.455600	-0.065289	-5.729040	0.039646	-0.160774	-0.658333	0.043881	0.026196	0.007087
892	4.485975	0.005000	7.319334	-0.090975	-5.826066	0.039191	-0.161002	-0.658333	0.058775	0.026716	-0.001239
893	4.490975	0.005000	7.455600	-0.181012	-5.886000	0.038753	-0.161141	-0.658353	0.050794	0.032071	0.003519
894	4.495975	0.005000	7.494840	-0.083608	-5.886000	0.038412	-0.160800	-0.658480	0.052223	0.021218	0.002188
895	4.500975	0.005000	7.418644	-0.189347	-5.920672	0.038070	-0.160458	-0.658607	0.066009	0.015750	0.002509
896	4.505975	0.005000	7.378239	-0.117160	-5.808080	0.037729	-0.160117	-0.658734	0.066516	0.025976	0.007438
897	4.510975	0.005000	7.498244	-0.107509	-5.983298	0.037387	-0.159775	-0.658861	0.052717	0.020952	0.006375
898	4.515975	0.005000	7.521585	-0.111472	-5.840512	0.037046	-0.159434	-0.658988	0.062077	0.025357	0.003360
899	4.520975	0.005000	7.455600	-0.087103	-5.864005	0.036704	-0.159092	-0.659116	0.059307	0.022694	-0.004062
900	4.525975	0.005000	7.416360	-0.161801	-5.835294	0.036362	-0.158750	-0.659243	0.068656	0.006944	0.000839
901	4.530975	0.005000	7.494840	-0.181890	-5.910930	0.036021	-0.158409	-0.659370	0.064457	0.015195	-0.009102
902	4.535975	0.005000	7.377120	-0.161891	-5.908086	0.035679	-0.158067	-0.659497	0.074965	0.015085	0.004961
903	4.540975	0.005000	7.357122	-0.117720	-5.867515	0.035338	-0.157726	-0.659624	0.056400	0.021772	0.007691
904	4.545975	0.005000	7.466915	-0.072943	-5.829908	0.034996	-0.157384	-0.659751	0.063078	0.014672	0.004064
905	4.550975	0.005000	7.492057	-0.131728	-5.886000	0.034655	-0.157043	-0.659878	0.058481	0.015816	-0.002749
906	4.555975	0.005000	7.483676	-0.089644	-5.818684	0.034338	-0.156786	-0.659972	0.047954	0.023050	-0.005762
907	4.560975	0.005000	7.377120	-0.148640	-5.981120	0.034566	-0.158379	-0.659337	0.059871	0.020232	0.005273
908	4.565975	0.005000	7.494840	-0.201676	-6.026532	0.034793	-0.159972	-0.658702	0.052804	0.025827	0.002529
909	4.570975	0.005000	7.421688	-0.198864	-5.836104	0.035021	-0.161565	-0.658066	0.048933	0.016829	-0.001331
910	4.575975	0.005000	7.533566	-0.157217	-5.730069	0.035248	-0.163158	-0.657431	0.060022	0.014072	0.002337
911	4.580975	0.005000	7.492253	-0.196200	-5.922653	0.035476	-0.164751	-0.656796	0.053576	0.015786	-0.003330
912	4.585975	0.005000	7.450169	-0.128581	-5.886000	0.035703	-0.166344	-0.656160	0.048545	0.014778	0.010988
913	4.590975	0.005000	7.472149	-0.148685	-5.846760	0.035931	-0.167938	-0.655525	0.036949	0.021600	-0.004650
914	4.595975	0.005000	7.472603	-0.044474	-5.818639	0.036159	-0.169531	-0.654890	0.052560	0.010309	-0.000969
915	4.600975	0.005000	7.547589	-0.169183	-5.858983	0.036386	-0.171124	-0.654254	0.052734	0.016492	-0.006833
916	4.605975	0.005000	7.449065	-0.156960	-5.925240	0.036614	-0.172717	-0.653619	0.048675	0.007398	-0.007552
917	4.610975	0.005000	7.534080	-0.078480	-5.885153	0.036841	-0.174310	-0.652984	0.059385	0.012574	0.002343
918	4.615975	0.005000	7.455600	-0.134920	-5.790320	0.037069	-0.175903	-0.652348	0.040563	0.012816	0.002029
919	4.620975	0.005000	7.534080	-0.132249	-5.782809	0.037296	-0.177496	-0.651713	0.058749	0.001919	0.010112
920	4.625975	0.005000	7.470878	-0.172238	-5.874019	0.037207	-0.176556	-0.652139	0.038601	0.005522	0.004651
921	4.630975	0.005000	7.513114	-0.156960	-5.759143	0.037094	-0.175418	-0.652647	0.047447	0.014028	0.003440
922	4.635975	0.005000	7.475961	-0.105134	-5.807520	0.036980	-0.174279	-0.653155	0.050370	0.010654	0.012977
923	4.640975	0.005000	7.337880	-0.081969	-5.764791	0.036866	-0.173141	-0.653664	0.040165	0.004765	0.003390
924	4.645975	0.005000	7.456659	-0.001059	-5.690859	0.036752	-0.172003	-0.654172	0.034875	0.008964	0.014661
925	4.650975	0.005000	7.494840	-0.076695	-5.803950	0.036638	-0.170864	-0.654681	0.039267	0.000698	0.005778
926	4.655975	0.005000	7.464858	-0.083109	-5.812149	0.036525	-0.169726	-0.655189	0.042853	0.000855	0.015879
927	4.660975	0.005000	7.408887	-0.117720	-5.895349	0.036411	-0.168587	-0.655698	0.040084	0.001943	0.007149
928	4.665975	0.005000	7.474914	-0.117720	-5.925240	0.036297	-0.167449	-0.656206	0.053484	0.002630	0.005701
929	4.670975	0.005000	7.429052	-0.169652	-5.951788	0.036183	-0.166311	-0.656715	0.046617	0.002160	0.016247
930	4.675975	0.005000	7.471136	-0.133256	-5.917071	0.036069	-0.165172	-0.657223	0.040228	0.009077	0.014331
931	4.680975	0.005000	7.377120	-0.039240	-5.844279	0.035956	-0.164034	-0.657732	0.038810	0.003305	0.023084
932	4.685975	0.005000	7.416360	-0.081687	-5.786297	0.035842	-0.162895	-0.658240	0.022252	0.004537	0.007180
933	4.690975	0.005000	7.407465	-0.148065	-5.916345	0.036379	-0.162594	-0.657918	0.055012	-0.006109	0.012602
934	4.695975	0.005000	7.482362	-0.156960	-5.927047	0.037062	-0.162480	-0.657410	0.042427	0.010117	0.011609
935	4.700975	0.005000	7.406406	-0.117720	-5.886000	0.037744	-0.162366	-0.656901	0.024890	0.011819	0.015917
936	4.705975	0.005000	7.377120	-0.039240	-5.832540	0.038427	-0.162253	-0.656393	0.046381	0.006346	0.017896
937	4.710975	0.005000	7.377120	-0.161226	-5.886000	0.039110	-0.162139	-0.655885	0.031953	0.004906	0.007013
938	4.715975	0.005000	7.344990	-0.117720	-5.967324	0.039792	-0.162025	-0.655377	0.046791	0.001889	0.007190
939	4.720975	0.005000	7.534080	-0.117720	-6.005142	0.040475	-0.161911	-0.654868	0.046765	0.011099	0.010045
940	4.725975	0.005000	7.451743	-0.196200	-5.886000	0.041158	-0.161797	-0.654360	0.037869	0.017383	0.016561
941	4.730975	0.005000	7.377120	-0.156960	-5.860072	0.041841	-0.161683	-0.653852	0.034563	0.011953	0.010563
942	4.735975	0.005000	7.406860	-0.156960	-5.867000	0.042523	-0.161570	-0.653344	0.040697	0.011398	0.015845
943	4.740975	0.005000	7.507184	-0.169304	-5.886000	0.043206	-0.161456	-0.652836	0.023891	0.019990	0.022846
944	4.745975	0.005000	7.425225	-0.156960	-5.886000	0.043889	-0.161342	-0.652327	0.026340	0.027066	0.018712
945	4.750975	0.005000	7.431215	-0.117720	-5.949625	0.044572	-0.161228	-0.651819	0.035328	0.018476	0.003528
946	4.755975	0.005000	7.335813	-0.194133	-6.005787	0.044457	-0.161194	-0.651578	0.047331	0.021594	0.029122
947	4.760975	0.005000	7.369859	-0.196200	-5.980469	0.044002	-0.161194	-0.651451	0.029733	0.020477	0.014088
948	4.765975	0.005000	7.403214	-0.144011	-5.964283	0.043547	-0.161194	-0.651324	0.009597	0.017162	0.014732
949	4.770975	0.005000	7.288338	-0.175597	-5.974782	0.043092	-0.161194	-0.651197	0.022101	0.022658	0.011592
950	4.775975	0.005000	7.369526	-0.117720	-5.987897	0.042636	-0.161194	-0.651070	0.039699	0.017407	0.019537
951	4.780975	0.005000	7.445465	-0.146825	-5.964480	0.042181	-0.161194	-0.650942	0.020172	0.032932	0.008866
952	4.785975	0.005000	7.370449	-0.034793	-5.927464	0.041726	-0.161194	-0.650815	0.035418	0.031763	0.016990
953	4.790975	0.005000	7.298020	-0.115239	-5.925860	0.041271	-0.161194	-0.650688	0.032658	0.032838	0.020538
954	4.795975	0.005000	7.302104	-0.078480	-6.000256	0.040816	-0.161194	-0.650561	0.041196	0.042663	0.025387
955	4.800975	0.005000	7.337880	-0.145282	-6.037121	0.040361	-0.161194	-0.650434	0.046083	0.041608	0.019772
956	4.805975	0.005000	7.220160	-0.165643	-6.051643	0.039906	-0.161194	-0.650307	0.029955	0.044891	0.015269
957	4.810975	0.005000	7.220160	-0.050767	-6.149153	0.039450	-0.161194	-0.650180	0.042398	0.039590	0.012580
958	4.815975	0.005000	7.238403	-0.049738	-6.135811	0.038995	-0.161194	-0.650053	0.060387	0.054109	0.014681
959	4.820975	0.005000	7.224970	-0.095695	-6.121440	0.037942	-0.162324	-0.649109	0.058685	0.050462	0.021176
960	4.825975	0.005000	7.337880	-0.117720	-6.102259	0.036463	-0.164259	-0.647584	0.056483	0.041915	0.022226
961	4.830975	0.005000	7.383290	-0.016535	-6.115270	0.034983	-0.166193	-0.646060	0.068902	0.045962	0.012458
962	4.835975	0.005000	7.351842	-0.131682	-6.003720	0.033504	-0.168127	-0.644535	0.060290	0.048909	0.020092
963	4.840975	0.005000	7.326761	-0.050359	-6.071081	0.032025	-0.170062	-0.643010	0.043254	0.051697	0.020519
964	4.845975	0.005000	7.290365	-0.047515	-6.090475	0.030545	-0.171996	-0.641485	0.052463	0.051056	0.019983
965	4.850975	0.005000	7.264831	-0.089341	-6.048391	0.029066	-0.173931	-0.639960	0.041262	0.060547	0.005584
966	4.855975	0.005000	7.222777	-0.193583	-5.969714	0.027587	-0.175865	-0.638436	0.051903	0.054001	0.007615
967	4.860975	0.005000	7.219767	-0.235637	-6.081610	0.026107	-0.177800	-0.636911	0.071651	0.053257	0.006888
968	4.865975	0.005000	7.141680	-0.164902	-5.927887	0.024628	-0.179734	-0.635386	0.049967	0.050215	-0.001031
969	4.870975	0.005000	7.315915	-0.185218	-5.936222	0.023149	-0.181669	-0.633861	0.055675	0.060701	0.003248
970	4.875975	0.005000	7.273635	-0.109385	-5.925240	0.021670	-0.183603	-0.632336	0.052868	0.065807	0.007455
971	4.880975	0.005000	7.304343	-0.106541	-6.048663	0.020190	-0.185537	-0.630812	0.072181	0.049122	0.000582
972	4.885975	0.005000	7.262229	-0.117720	-5.992526	0.019084	-0.186035	-0.630416	0.063035	0.057917	-0.002634
973	4.890975	0.005000	7.304146	-0.022373	-5.886000	0.018401	-0.184897	-0.631306	0.059749	0.076359	-0.006368
974	4.895975	0.005000	7.494840	-0.078771	-5.866235	0.017718	-0.183759	-0.632195	0.073964	0.076004	-0.008089
975	4.900975	0.005000	7.556166	-0.117720	-5.790366	0.017035	-0.182621	-0.633085	0.075495	0.065542	-0.001687
976	4.905975	0.005000	7.587630	-0.039240	-5.704110	0.016353	-0.181483	-0.633974	0.073540	0.047499	-0.010313
977	4.910975	0.005000	7.534080	0.094787	-5.560614	0.015670	-0.180345	-0.634864	0.072973	0.054222	-0.001528
978	4.915975	0.005000	7.612560	0.000000	-5.471605	0.014987	-0.179207	-0.635753	0.065285	0.074081	-0.012523
979	4.920975	0.005000	7.691040	-0.078480	-5.454360	0.014305	-0.178070	-0.636642	0.079565	0.051825	0.002354
980	4.925975	0.005000	7.769520	0.003388	-5.500377	0.013622	-0.176932	-0.637532	0.064838	0.045762	-0.008329
981	4.930975	0.005000	7.848545	-0.077391	-5.570991	0.012939	-0.175794	-0.638421	0.079937	0.030845	0.000609
982	4.935975	0.005000	7.924181	-0.036941	-5.419719	0.012256	-0.174656	-0.639311	0.074617	0.029980	0.002069
983	4.940975	0.005000	7.926480	0.023810	-5.420263	0.011574	-0.173518	-0.640200	0.074207	0.016723	0.008702
984	4.945975	0.005000	7.949746	0.078480	-5.344627	0.010891	-0.172380	-0.641090	0.065340	0.003837	0.010572
985	4.950975	0.005000	8.101018	0.010831	-5.365049	0.011047	-0.171442	-0.641890	0.042975	0.001518	0.004022
986	4.955975	0.005000	8.175286	0.051748	-5.414263	0.012754	-0.170873	-0.642525	0.068937	-0.012308	0.008428
987	4.960975	0.005000	8.037060	0.016050	-5.391930	0.014461	-0.170304	-0.643161	0.073594	-0.028251	0.012440
988	4.965975	0.005000	7.986066	0.000000	-5.455812	0.016168	-0.169735	-0.643796	0.089978	-0.036360	0.013816
989	4.970975	0.005000	7.952453	-0.021738	-5.497836	0.017875	-0.169166	-0.644431	0.078059	-0.036288	0.027232
990	4.975975	0.005000	7.936403	-0.053898	-5.473753	0.019582	-0.168597	-0.645067	0.085823	-0.037702	0.014246
991	4.980975	0.005000	7.859814	-0.039240	-5.650560	0.021289	-0.168028	-0.645702	0.076534	-0.039460	0.029618
992	4.985975	0.005000	7.808760	0.060539	-5.698770	0.022996	-0.167459	-0.646337	0.070932	-0.055790	0.024014
993	4.990975	0.005000	7.763393	-0.006127	-5.572080	0.024702	-0.166890	-0.646973	0.077041	-0.056602	0.017221
994	4.995975	0.005000	7.848000	-0.009963	-5.575401	0.026409	-0.166321	-0.647608	0.076171	-0.049687	0.018672
995	5.000975	0.005000	7.808760	-0.115935	-5.691585	0.028116	-0.165752	-0.648243	0.087820	-0.056954	0.020985
996	5.005975	0.005000	7.696894	-0.151106	-5.768280	0.029823	-0.165183	-0.648879	0.082808	-0.067734	0.024786
997	5.010975	0.005000	7.612560	-0.230645	-5.837169	0.031530	-0.164614	-0.649514	0.082449	-0.037603	0.018448
998	5.015975	0.005000	7.502464	-0.172208	-5.870752	0.032809	-0.164206	-0.650030	0.094374	-0.041369	0.026335
999	5.020975	0.005000	7.555016	-0.167428	-5.914772	0.032695	-0.164320	-0.650157	0.092161	-0.048184	0.021554
1000	5.025975	0.005000	7.508152	-0.196200	-5.964480	0.032582	-0.164433	-0.650284	0.100933	-0.037807	0.023335
1001	5.030975	0.005000	7.455600	-0.156960	-6.019876	0.032468	-0.164547	-0.650411	0.080163	-0.032247	0.018760
1002	5.035975	0.005000	7.356643	-0.255917	-5.945717	0.032354	-0.164661	-0.650538	0.080353	-0.029387	0.014868
1003	5.040975	0.005000	7.387891	-0.253290	-6.003720	0.032240	-0.164775	-0.650665	0.098224	-0.022284	0.011891
1004	5.045975	0.005000	7.386348	-0.211206	-6.018726	0.032126	-0.164889	-0.650792	0.076006	-0.010241	0.011630
1005	5.050975	0.005000	7.301393	-0.286842	-6.057875	0.032012	-0.165003	-0.650919	0.103077	-0.017500	0.012867
1006	5.055975	0.005000	7.289322	-0.293317	-6.024323	0.031899	-0.165116	-0.651047	0.086980	-0.010480	0.021826
1007	5.060975	0.005000	7.252926	-0.268206	-6.042960	0.031785	-0.165230	-0.651174	0.073859	-0.007409	0.010902
1008	5.065975	0.005000	7.294541	-0.270581	-5.999621	0.031671	-0.165344	-0.651301	0.069170	0.015655	-0.000777
1009	5.070975	0.005000	7.217649	-0.313920	-6.155658	0.031557	-0.165458	-0.651428	0.072825	0.023973	-0.004589
1010	5.075975	0.005000	7.216983	-0.313920	-5.966068	0.031443	-0.165572	-0.651555	0.069432	0.020247	-0.001553
1011	5.080975	0.005000	7.259400	-0.313920	-5.934105	0.031410	-0.165618	-0.651772	0.084377	0.036955	0.001047
1012	5.085975	0.005000	7.323328	-0.313920	-5.949928	0.031980	-0.165163	-0.652662	0.068226	0.041663	0.004032
1013	5.090975	0.005000	7.298640	-0.245560	-5.916360	0.032549	-0.164707	-0.653552	0.063174	0.035134	0.004616
1014	5.095975	0.005000	7.311150	-0.288900	-5.871780	0.033118	-0.164252	-0.654442	0.058198	0.045733	-0.002724
1015	5.100975	0.005000	7.283286	-0.266148	-5.831406	0.033687	-0.163796	-0.655332	0.062129	0.047886	0.009431
1016	5.105975	0.005000	7.199118	-0.175158	-5.870646	0.034257	-0.163341	-0.656221	0.050961	0.059688	0.007289
1017	5.110975	0.005000	7.356078	-0.235440	-5.904198	0.034826	-0.162885	-0.657111	0.060095	0.052301	0.014377
1018	5.115975	0.005000	7.416360	-0.219900	-5.815680	0.035395	-0.162430	-0.658001	0.038865	0.064602	0.006556
1019	5.120975	0.005000	7.468882	-0.183221	-5.768280	0.035964	-0.161975	-0.658891	0.062786	0.048691	0.000972
1020	5.125975	0.005000	7.435330	-0.186065	-5.798686	0.036534	-0.161519	-0.659781	0.058372	0.049358	0.006414
1021	5.130975	0.005000	7.470183	-0.132303	-5.832177	0.037103	-0.161064	-0.660671	0.056669	0.046508	0.006301
1022	5.135975	0.005000	7.529633	-0.161407	-5.759385	0.037672	-0.160608	-0.661560	0.051536	0.035031	0.009326
1023	5.140975	0.005000	7.606146	-0.232233	-5.766677	0.038241	-0.160153	-0.662450	0.031368	0.036689	0.026273
1024	5.145975	0.005000	7.493600	-0.156960	-5.729040	0.038804	-0.159703	-0.663332	0.047040	0.022973	0.014156
1025	5.150975	0.005000	7.530449	-0.203461	-5.811151	0.038577	-0.159930	-0.663205	0.048821	0.025539	0.019339
1026	5.155975	0.005000	7.449050	-0.170060	-5.742140	0.038349	-0.160158	-0.663078	0.037874	0.018326	0.014355
1027	5.160975	0.005000	7.573320	-0.226122	-5.807520	0.038121	-0.160386	-0.662951	0.047700	0.010642	0.015325
1028	5.165975	0.005000	7.534080	-0.247602	-5.756118	0.037894	-0.160613	-0.662824	0.054851	0.004902	0.015413
1029	5.170975	0.005000	7.509846	-0.147732	-5.807520	0.037666	-0.160841	-0.662697	0.048946	-0.000840	0.029016
1030	5.175975	0.005000	7.469910	-0.174810	-5.746890	0.037439	-0.161069	-0.662570	0.028306	0.000389	0.031431
1031	5.180975	0.005000	7.437054	-0.214746	-5.749734	0.037211	-0.161296	-0.662443	0.041473	-0.006544	0.017682
1032	5.185975	0.005000	7.432531	-0.267782	-5.735938	0.036984	-0.161524	-0.662316	0.043522	-0.011280	0.015238
1033	5.190975	0.005000	7.443014	-0.300593	-5.689800	0.036756	-0.161752	-0.662189	0.036403	-0.012673	0.024041
1034	5.195975	0.005000	7.541871	-0.253714	-5.818003	0.036528	-0.161979	-0.662062	0.051335	-0.017386	0.027867
1035	5.200975	0.005000	7.479562	-0.203839	-5.759597	0.036301	-0.162207	-0.661935	0.055956	-0.011424	0.025830
1036	5.205975	0.005000	7.391506	-0.225849	-5.974071	0.036073	-0.162435	-0.661808	0.043478	-0.020545	0.029512
1037	5.210975	0.005000	7.497260	-0.122561	-5.883580	0.035846	-0.162662	-0.661681	0.028437	-0.010971	0.013160
1038	5.215975	0.005000	7.572896	-0.196200	-5.846760	0.035922	-0.162991	-0.661554	0.021071	-0.024153	0.018993
1039	5.220975	0.005000	7.573320	-0.120987	-5.918705	0.036036	-0.163333	-0.661427	0.041314	-0.026963	0.024696
1040	5.225975	0.005000	7.639577	-0.217106	-5.919129	0.036150	-0.163674	-0.661300	0.042325	-0.022414	0.024370
1041	5.230975	0.005000	7.503795	-0.214111	-5.894955	0.036264	-0.164015	-0.661172	0.050350	-0.025801	0.023810
1042	5.235975	0.005000	7.428159	-0.102078	-5.795721	0.036377	-0.164357	-0.661045	0.035145	-0.032847	0.024711
1043	5.240975	0.005000	7.445071	-0.167489	-5.896529	0.036491	-0.164698	-0.660918	0.040845	-0.037279	0.028593
1044	5.245975	0.005000	7.455600	-0.179167	-5.903033	0.036605	-0.165039	-0.660791	0.043617	-0.038200	0.028506
1045	5.250975	0.005000	7.553443	-0.156960	-5.925754	0.036719	-0.165381	-0.660664	0.030978	-0.030204	0.028229
1046	5.255975	0.005000	7.579522	-0.117720	-5.925240	0.036832	-0.165722	-0.660537	0.040727	-0.033329	0.030097
1047	5.260975	0.005000	7.402685	-0.182525	-5.886000	0.036946	-0.166063	-0.660410	0.042272	-0.034629	0.022416
1048	5.265975	0.005000	7.298640	-0.117720	-5.971227	0.037060	-0.166405	-0.660283	0.041692	-0.034061	0.030622
1049	5.270975	0.005000	7.377120	-0.086564	-5.854844	0.037174	-0.166746	-0.660156	0.028994	-0.021949	0.033524
1050	5.275975	0.005000	7.343492	-0.201812	-5.958868	0.037287	-0.167087	-0.660029	0.038549	-0.021719	0.036700
1051	5.280975	0.005000	7.270473	-0.269143	-5.928008	0.037401	-0.166546	-0.660000	0.034395	-0.027556	0.034132
1052	5.285975	0.005000	7.338031	-0.196200	-5.925316	0.037515	-0.165749	-0.660000	0.033784	-0.017449	0.031795
1053	5.290975	0.005000	7.304479	-0.193280	-6.000800	0.037629	-0.164953	-0.660000	0.049531	-0.014160	0.039624
1054	5.295975	0.005000	7.265163	-0.129247	-6.048723	0.037743	-0.164156	-0.660000	0.020422	-0.003214	0.027504
1055	5.300975	0.005000	7.290033	-0.187593	-6.003720	0.037857	-0.163359	-0.660000	0.045926	-0.007438	0.026710
1056	5.305975	0.005000	7.270526	-0.263554	-5.981468	0.037971	-0.162562	-0.660000	0.041870	0.000084	0.027162
1057	5.310975	0.005000	7.298640	-0.196200	-5.860601	0.038085	-0.161765	-0.660000	0.035837	0.002603	0.018122
1058	5.315975	0.005000	7.214291	-0.196200	-5.953664	0.038198	-0.160968	-0.660000	0.050930	0.009318	0.022830
1059	5.320975	0.005000	7.298822	-0.255151	-5.925240	0.038312	-0.160171	-0.660000	0.041689	0.019879	0.020519
1060	5.325975	0.005000	7.343386	-0.257813	-5.930746	0.038426	-0.159374	-0.660000	0.061116	0.019670	0.008171
1061	5.330975	0.005000	7.326686	-0.249463	-5.911217	0.038540	-0.158577	-0.660000	0.045514	0.023225	0.012513
1062	5.335975	0.005000	7.405181	-0.246619	-5.818699	0.038654	-0.157780	-0.660000	0.047037	0.031460	0.008223
1063	5.340975	0.005000	7.412336	-0.313920	-5.912412	0.038768	-0.156983	-0.660000	0.035034	0.031163	0.017728
1064	5.345975	0.005000	7.528120	-0.268720	-5.985840	0.038655	-0.156716	-0.659747	0.028365	0.030328	0.004050
1065	5.350975	0.005000	7.491724	-0.160076	-5.915891	0.038427	-0.156716	-0.659365	0.046180	0.032687	0.010779
1066	5.355975	0.005000	7.455055	-0.196200	-5.807792	0.038200	-0.156716	-0.658984	0.055183	0.034441	0.007399
1067	5.360975	0.005000	7.450457	-0.196200	-5.810092	0.037972	-0.156716	-0.658603	0.050084	0.030221	-0.008817
1068	5.365975	0.005000	7.444769	-0.235440	-5.739871	0.037744	-0.156716	-0.658222	0.048652	0.032215	0.001729
1069	5.370975	0.005000	7.587782	-0.196200	-5.799261	0.037517	-0.156716	-0.657841	0.039512	0.040943	-0.008473
1070	5.375975	0.005000	7.651800	-0.264046	-5.893337	0.037289	-0.156716	-0.657459	0.049966	0.029922	0.000823
1071	5.380975	0.005000	7.600277	-0.248918	-5.769475	0.037062	-0.156716	-0.657078	0.034804	0.034042	-0.003898
1072	5.385975	0.005000	7.658395	-0.173282	-5.823842	0.036834	-0.156716	-0.656697	0.050162	0.023163	-0.005851
1073	5.390975	0.005000	7.534080	-0.215366	-5.827594	0.036607	-0.156716	-0.656316	0.037234	0.016064	-0.001953
1074	5.395975	0.005000	7.590550	-0.218210	-5.819970	0.036379	-0.156716	-0.655935	0.043323	0.022296	-0.007137
1075	5.400975	0.005000	7.603000	-0.181360	-5.817080	0.036151	-0.156716	-0.655553	0.058961	0.019216	-0.003711
1076	5.405975	0.005000	7.561324	-0.102472	-5.753032	0.035924	-0.156716	-0.655172	0.059855	0.022977	-0.011200
1077	5.410975	0.005000	7.603408	-0.057544	-5.786584	0.035946	-0.156654	-0.654791	0.053737	0.024655	-0.006262
1078	5.415975	0.005000	7.658108	-0.130336	-5.761972	0.036174	-0.156540	-0.654410	0.046902	0.019276	-0.010860
1079	5.420975	0.005000	7.576784	-0.196200	-5.771744	0.036401	-0.156426	-0.654028	0.050915	0.017589	-0.002371
1080	5.425975	0.005000	7.612560	-0.156960	-5.768908	0.036629	-0.156312	-0.653647	0.041749	0.015319	-0.008591
1081	5.430975	0.005000	7.650045	-0.156960	-5.845005	0.036857	-0.156198	-0.653265	0.045786	0.022719	-0.016857
1082	5.435975	0.005000	7.534080	-0.187003	-5.837563	0.037084	-0.156085	-0.652884	0.055667	0.012348	-0.008360
1083	5.440975	0.005000	7.548965	-0.181315	-5.721597	0.037312	-0.155971	-0.652503	0.061920	0.020861	-0.009976
1084	5.445975	0.005000	7.525700	-0.107433	-5.875713	0.037540	-0.155857	-0.652121	0.047966	0.009023	-0.015118
1085	5.450975	0.005000	7.482012	-0.117720	-5.846760	0.037767	-0.155743	-0.651740	0.058761	0.014779	-0.012961
1086	5.455975	0.005000	7.487004	-0.109854	-5.831058	0.037995	-0.155629	-0.651358	0.047743	0.017000	-0.018696
1087	5.460975	0.005000	7.476476	-0.198711	-5.964480	0.038223	-0.155516	-0.650977	0.061181	0.020253	-0.016032
1088	5.465975	0.005000	7.548935	-0.174992	-5.907208	0.038450	-0.155402	-0.650596	0.058967	0.024755	-0.019838
1089	5.470975	0.005000	7.431548	-0.235440	-5.979668	0.038678	-0.155288	-0.650214	0.062740	0.015954	-0.024195
1090	5.475975	0.005000	7.364776	-0.183856	-5.925240	0.038806	-0.155373	-0.650334	0.045148	0.006753	-0.025189
1091	5.480975	0.005000	7.347849	-0.186231	-5.876031	0.038806	-0.155715	-0.651096	0.053145	0.006351	-0.025890
1092	5.485975	0.005000	7.501965	-0.117720	-5.743290	0.038806	-0.156056	-0.651858	0.054725	0.017066	-0.016514
1093	5.490975	0.005000	7.455600	-0.156960	-5.811801	0.038806	-0.156397	-0.652620	0.057261	0.020418	-0.022900
