# FOX Logger (IMU file)
# (c) INRIA 2011-2014
# File created from file sensbiotk output
#
# File format:
# id	t	dt	ax	ay	az	mx	my	mz	gx	gy	gz
#
# Units:
#	Time: s
#	Acceleration: m.s^-2
#	Magneto: gauss
#	Gyrometer: rad/s
#
1	0.041718	0.041718	1.688681	9.830301	0.293619	-0.750746	-0.640299	0.808333	0.026856	-0.015577	0.004112
2	0.046718	0.005000	1.569600	9.865989	0.330669	-0.751295	-0.640080	0.808333	0.024336	-0.013505	0.004953
3	0.051718	0.005000	1.569600	9.834612	0.353160	-0.751843	-0.639860	0.808333	0.025727	-0.014990	-0.001014
4	0.056718	0.005000	1.596444	9.900876	0.313920	-0.752392	-0.639641	0.808333	0.021424	-0.016734	0.001988
5	0.061718	0.005000	1.559268	9.888480	0.225108	-0.752940	-0.639421	0.808333	0.022830	-0.007895	0.000155
6	0.066718	0.005000	1.648080	9.888480	0.204238	-0.753489	-0.639202	0.808333	0.028426	-0.005945	0.011072
7	0.071718	0.005000	1.590778	9.888480	0.144919	-0.754037	-0.638982	0.808333	0.021838	-0.010323	-0.000616
8	0.076718	0.005000	1.505873	9.852928	0.121408	-0.754586	-0.638763	0.808333	0.015748	-0.007501	-0.000692
9	0.081718	0.005000	1.572141	9.885939	0.121532	-0.755135	-0.638543	0.808333	0.011301	-0.017272	-0.005888
10	0.086718	0.005000	1.648080	9.810000	0.235440	-0.755683	-0.638324	0.808333	0.009485	-0.018951	-0.003478
11	0.091718	0.005000	1.611881	9.843159	0.304798	-0.756232	-0.638104	0.808333	0.008716	-0.012533	0.003159
12	0.096718	0.005000	1.564580	9.893500	0.269660	-0.756780	-0.637885	0.808333	0.007533	-0.010113	0.001968
13	0.101718	0.005000	1.562263	9.778097	0.228103	-0.757329	-0.637665	0.808333	0.007781	-0.017539	0.003786
14	0.106718	0.005000	1.578970	9.830500	0.254180	-0.757877	-0.637446	0.808333	0.010499	-0.016894	0.005870
15	0.111718	0.005000	1.557952	9.833296	0.263032	-0.758252	-0.637487	0.808333	0.009058	-0.014450	-0.004487
16	0.116718	0.005000	1.516632	9.847296	0.353160	-0.758362	-0.637925	0.808333	0.013117	-0.006482	-0.005701
17	0.121718	0.005000	1.601488	9.810000	0.290624	-0.758472	-0.638364	0.808333	0.008801	-0.012407	-0.004859
18	0.126718	0.005000	1.651157	9.788841	0.316997	-0.758581	-0.638803	0.808333	0.008570	-0.022369	-0.001096
19	0.131718	0.005000	1.588585	9.849240	0.294935	-0.758691	-0.639242	0.808333	0.015331	-0.024034	-0.004759
20	0.136718	0.005000	1.597668	9.843608	0.213004	-0.758801	-0.639681	0.808333	0.006071	-0.029813	0.009179
21	0.141718	0.005000	1.491120	9.810000	0.221048	-0.758910	-0.640120	0.808333	-0.002275	-0.026299	0.006077
22	0.146718	0.005000	1.567702	9.849240	0.051687	-0.759020	-0.640559	0.808333	0.007126	-0.037093	0.005362
23	0.151718	0.005000	1.687320	9.898523	0.284723	-0.759130	-0.640998	0.808333	-0.000598	-0.032447	-0.003289
24	0.156718	0.005000	1.671122	9.849240	0.274680	-0.759239	-0.641437	0.808333	-0.002831	-0.030561	-0.004546
25	0.161718	0.005000	1.642387	9.843547	0.179120	-0.759349	-0.641875	0.808333	0.009284	-0.034534	-0.003603
26	0.166718	0.005000	1.562101	9.817499	0.000000	-0.759459	-0.642314	0.808333	0.002165	-0.039785	0.000013
27	0.171718	0.005000	1.492452	9.889812	0.043236	-0.759568	-0.642753	0.808333	-0.007330	-0.040098	-0.005450
28	0.176718	0.005000	1.530360	9.966348	0.156960	-0.759678	-0.643192	0.808333	0.008831	-0.044165	-0.004721
29	0.181718	0.005000	1.605824	9.819048	0.156960	-0.759701	-0.643111	0.807752	-0.004614	-0.039232	-0.017065
30	0.186718	0.005000	1.603880	9.770760	0.230480	-0.759701	-0.642891	0.807017	0.014727	-0.048593	-0.012063
31	0.191718	0.005000	1.569600	9.827110	0.203577	-0.759701	-0.642672	0.806283	0.015078	-0.042940	-0.005474
32	0.196718	0.005000	1.578920	9.849240	0.265360	-0.759701	-0.642453	0.805548	0.026289	-0.040615	0.004639
33	0.201718	0.005000	1.542088	9.904265	0.211985	-0.759701	-0.642233	0.804813	0.025053	-0.031929	0.008932
34	0.206718	0.005000	1.542256	9.941392	0.247336	-0.759701	-0.642014	0.804079	0.050134	-0.033877	0.007672
35	0.211718	0.005000	1.576671	9.849240	0.337075	-0.759701	-0.641795	0.803344	0.062405	-0.032970	0.008874
36	0.216718	0.005000	1.551326	9.906754	0.428947	-0.759701	-0.641575	0.802609	0.076723	-0.028967	0.002660
37	0.221718	0.005000	1.513197	9.849240	0.257517	-0.759701	-0.641356	0.801874	0.088256	-0.030331	-0.006627
38	0.226718	0.005000	1.530360	9.810000	0.263909	-0.759701	-0.641137	0.801140	0.077754	-0.022378	-0.009624
39	0.231718	0.005000	1.544813	9.770760	0.249893	-0.759701	-0.640918	0.800405	0.080791	-0.020904	-0.000680
40	0.236718	0.005000	1.662602	9.873958	0.144601	-0.759701	-0.640698	0.799670	0.060360	-0.024243	-0.006409
41	0.241718	0.005000	1.637979	9.917619	0.117720	-0.759701	-0.640479	0.798936	0.055415	-0.030147	-0.012494
42	0.246718	0.005000	1.561537	9.991148	0.289732	-0.759800	-0.640516	0.798862	0.059144	-0.026863	-0.000578
43	0.251718	0.005000	1.536101	9.933461	0.229699	-0.760348	-0.641723	0.801802	0.057778	-0.028228	-0.000473
44	0.256718	0.005000	1.562097	9.888480	0.227937	-0.760897	-0.642929	0.804742	0.069550	-0.020464	-0.004958
45	0.261718	0.005000	1.491120	9.847847	0.114935	-0.761445	-0.644136	0.807682	0.067607	-0.021828	-0.002715
46	0.266718	0.005000	1.375053	9.810000	0.116618	-0.761994	-0.645343	0.810622	0.063479	-0.011684	-0.005115
47	0.271718	0.005000	1.563662	9.773729	0.156960	-0.762542	-0.646549	0.813562	0.049781	-0.017421	-0.003521
48	0.276718	0.005000	1.417950	9.810000	0.224821	-0.763091	-0.647756	0.816502	0.027779	-0.015431	-0.008310
49	0.281718	0.005000	1.373400	9.760793	0.125038	-0.763640	-0.648963	0.819443	0.030170	-0.019363	0.003387
50	0.286718	0.005000	1.383777	9.810756	0.136962	-0.764188	-0.650170	0.822383	0.035874	0.000455	-0.000691
51	0.291718	0.005000	1.585507	9.821666	0.145294	-0.764737	-0.651376	0.825323	0.045500	-0.003419	-0.003928
52	0.296718	0.005000	1.608840	9.784840	0.260600	-0.765285	-0.652583	0.828263	0.064284	0.001736	-0.005111
53	0.301718	0.005000	1.562407	9.934913	0.337136	-0.765834	-0.653790	0.831203	0.068989	0.004276	-0.007908
54	0.306718	0.005000	1.511927	9.890853	0.392400	-0.766382	-0.654996	0.834143	0.090153	0.002731	-0.003905
55	0.311718	0.005000	1.434534	9.927720	0.334298	-0.766931	-0.656203	0.837083	0.068705	0.015220	0.000415
56	0.316718	0.005000	1.406304	9.944172	0.375948	-0.767542	-0.656590	0.837699	0.072569	0.001050	-0.001060
57	0.321718	0.005000	1.587722	9.991859	0.338819	-0.768201	-0.656370	0.836596	0.069762	0.000584	0.001345
58	0.326718	0.005000	1.623890	9.903530	0.380305	-0.768859	-0.656151	0.835494	0.072047	0.011757	0.001462
59	0.331718	0.005000	1.608840	9.879328	0.382371	-0.769517	-0.655932	0.834391	0.072370	0.011243	0.005982
60	0.336718	0.005000	1.561856	9.967480	0.180712	-0.770175	-0.655712	0.833289	0.063132	0.012016	0.011011
61	0.341718	0.005000	1.569600	9.810000	0.130320	-0.770834	-0.655493	0.832186	0.039923	-0.001616	0.016039
62	0.346718	0.005000	1.569600	9.810000	-0.085247	-0.771492	-0.655273	0.831084	0.027115	0.004986	0.008643
63	0.351718	0.005000	1.607861	9.811959	0.039240	-0.772150	-0.655054	0.829981	0.028938	-0.001589	0.013415
64	0.356718	0.005000	1.646151	9.850205	0.115791	-0.772808	-0.654835	0.828878	0.029823	-0.004848	0.003012
65	0.361718	0.005000	1.572928	9.744832	0.003328	-0.773467	-0.654615	0.827776	0.039275	-0.014015	0.003831
66	0.366718	0.005000	1.603527	9.838615	0.033927	-0.774125	-0.654396	0.826673	0.056155	-0.005276	0.010152
67	0.371718	0.005000	1.718921	9.856879	0.078480	-0.774783	-0.654176	0.825571	0.058602	-0.001734	0.008219
68	0.376718	0.005000	1.618512	9.888480	0.127392	-0.775441	-0.653957	0.824468	0.051423	-0.013326	0.004305
69	0.381718	0.005000	1.648080	9.876400	0.105640	-0.776100	-0.653737	0.823366	0.039594	-0.006632	-0.002025
70	0.386718	0.005000	1.673296	9.810000	0.014024	-0.775055	-0.653199	0.822026	0.044182	-0.008717	-0.006710
71	0.391718	0.005000	1.546797	9.810000	0.000000	-0.773958	-0.652651	0.820679	0.034914	-0.010165	-0.001669
72	0.396718	0.005000	1.608840	9.849240	-0.036761	-0.772862	-0.652103	0.819332	0.017556	-0.018617	-0.004504
73	0.401718	0.005000	1.585706	9.830791	-0.002342	-0.771765	-0.651554	0.817985	0.016198	-0.013344	0.001759
74	0.406718	0.005000	1.608840	9.793496	0.039240	-0.770669	-0.651006	0.816638	0.012925	-0.005875	-0.004384
75	0.411718	0.005000	1.583695	9.795905	-0.036194	-0.769572	-0.650458	0.815291	0.003853	-0.012532	0.002461
76	0.416718	0.005000	1.596688	9.810000	-0.039240	-0.768476	-0.649910	0.813944	0.002542	-0.007906	0.000157
77	0.421718	0.005000	1.569309	9.760732	-0.088508	-0.767379	-0.649361	0.812597	-0.013295	-0.015438	0.002590
78	0.426718	0.005000	1.679515	9.872655	0.023415	-0.766283	-0.648813	0.811251	-0.005897	-0.022202	-0.005055
79	0.431718	0.005000	1.558822	9.927720	0.078480	-0.765186	-0.648265	0.809904	-0.015862	-0.014645	-0.002826
80	0.436718	0.005000	1.497927	9.888480	0.039240	-0.764090	-0.647717	0.808557	-0.014563	-0.013694	0.001106
81	0.441718	0.005000	1.568559	9.888480	-0.040281	-0.762993	-0.647168	0.807210	-0.033663	-0.013308	-0.002378
82	0.446718	0.005000	1.530360	9.850143	0.074867	-0.761896	-0.646620	0.805863	-0.040623	-0.024024	-0.005977
83	0.451718	0.005000	1.487799	9.881838	0.003321	-0.761076	-0.646111	0.804956	-0.041948	-0.021358	-0.006027
84	0.456718	0.005000	1.559071	9.899009	0.101926	-0.760747	-0.645672	0.804833	-0.037084	-0.018021	-0.007183
85	0.461718	0.005000	1.601170	9.896150	0.156960	-0.760417	-0.645234	0.804711	-0.034625	-0.026545	0.005192
86	0.466718	0.005000	1.638465	9.888480	0.048855	-0.760088	-0.644795	0.804588	-0.036700	-0.032552	-0.003943
87	0.471718	0.005000	1.487967	9.837211	-0.008876	-0.759759	-0.644356	0.804466	-0.032161	-0.019775	-0.006190
88	0.476718	0.005000	1.541070	9.785025	0.171225	-0.759430	-0.643917	0.804343	-0.032817	-0.024606	-0.003513
89	0.481718	0.005000	1.592458	9.787142	0.196200	-0.759101	-0.643478	0.804221	-0.035415	-0.024858	-0.019995
90	0.486718	0.005000	1.629286	9.789554	0.295126	-0.758772	-0.643040	0.804098	-0.032342	-0.022534	-0.007059
91	0.491718	0.005000	1.417109	9.849240	0.193966	-0.758442	-0.642601	0.803976	-0.035926	-0.015691	-0.005611
92	0.496718	0.005000	1.412640	9.865331	0.212291	-0.758113	-0.642162	0.803853	-0.029740	-0.029737	-0.010750
93	0.501718	0.005000	1.516367	9.913727	0.193462	-0.757784	-0.641723	0.803731	-0.035466	-0.017300	-0.005124
94	0.506718	0.005000	1.463623	9.915977	0.262937	-0.757455	-0.641284	0.803608	-0.038103	-0.017696	-0.006205
95	0.511718	0.005000	1.471243	9.790637	0.234926	-0.757126	-0.640845	0.803486	-0.033336	-0.015531	-0.002161
96	0.516718	0.005000	1.483728	9.778152	0.282072	-0.756797	-0.640407	0.803363	-0.033028	-0.013496	-0.005690
97	0.521718	0.005000	1.456856	9.819952	0.245392	-0.756550	-0.640382	0.803333	-0.035239	-0.011282	0.000612
98	0.526718	0.005000	1.491120	9.957974	0.238435	-0.756331	-0.640491	0.803333	-0.025505	-0.011712	-0.005897
99	0.531718	0.005000	1.570227	9.966333	0.315175	-0.756112	-0.640601	0.803333	-0.029877	-0.014449	-0.007961
100	0.536718	0.005000	1.532993	9.813950	0.392400	-0.755893	-0.640711	0.803333	-0.015301	-0.011580	-0.004004
101	0.541718	0.005000	1.459348	9.852974	0.388666	-0.755673	-0.640820	0.803333	-0.022501	-0.008318	-0.000258
102	0.546718	0.005000	1.530360	9.888480	0.325276	-0.755454	-0.640930	0.803333	-0.019668	-0.014599	0.001006
103	0.551718	0.005000	1.491120	9.958876	0.368149	-0.755235	-0.641039	0.803333	-0.019556	-0.013418	-0.002622
104	0.556718	0.005000	1.219058	10.024511	0.333104	-0.755015	-0.641149	0.803333	-0.004997	-0.018326	0.001303
105	0.561718	0.005000	0.982913	9.623380	0.222998	-0.754796	-0.641259	0.803333	-0.011543	-0.012577	0.010523
106	0.566718	0.005000	1.279365	8.630090	0.018265	-0.754577	-0.641368	0.803333	0.020296	0.046447	0.052358
107	0.571718	0.005000	1.255680	9.384222	-0.302794	-0.754357	-0.641478	0.803333	-0.078392	0.017823	0.039879
108	0.576718	0.005000	1.987834	9.929495	-0.392400	-0.754138	-0.641588	0.803333	-0.160063	-0.049883	0.005546
109	0.581718	0.005000	1.853420	9.526547	-1.071299	-0.753919	-0.641697	0.803333	-0.287266	-0.117335	-0.011992
110	0.586718	0.005000	2.609747	8.444496	-2.782667	-0.753731	-0.641838	0.803280	-1.106107	-0.166246	0.013299
111	0.591718	0.005000	2.603400	11.681950	-2.597431	-0.753731	-0.642167	0.802913	-1.888224	-0.537450	0.127985
112	0.596718	0.005000	0.989501	11.660709	0.090037	-0.753731	-0.642497	0.802545	-0.100040	-0.485696	0.106010
113	0.601718	0.005000	1.531248	9.710162	2.205126	-0.753731	-0.642826	0.802178	0.902157	0.203427	-0.044532
114	0.606718	0.005000	2.629080	9.012886	1.746316	-0.753731	-0.643155	0.801810	-0.005023	0.260517	-0.122784
115	0.611718	0.005000	2.033364	9.751660	0.239434	-0.753731	-0.643484	0.801443	-1.012350	-0.221736	-0.093610
116	0.616718	0.005000	0.923434	9.726284	0.125605	-0.753731	-0.643813	0.801075	-1.007630	-0.317129	-0.051463
117	0.621718	0.005000	0.946419	9.693611	1.463195	-0.753731	-0.644142	0.800707	-0.624981	-0.038998	-0.044120
118	0.626718	0.005000	1.328970	9.845780	2.456550	-0.753731	-0.644472	0.800340	-0.288308	0.135721	-0.044247
119	0.631718	0.005000	1.597817	9.742543	2.846148	-0.753731	-0.644801	0.799972	0.035528	0.117822	-0.034673
120	0.636718	0.005000	1.397713	9.595566	2.897682	-0.753731	-0.645130	0.799605	0.258423	0.054055	-0.048154
121	0.641718	0.005000	1.342183	9.723497	2.284815	-0.753731	-0.645459	0.799237	0.448489	0.030583	-0.041199
122	0.646718	0.005000	1.362963	9.836293	1.760382	-0.753731	-0.645788	0.798870	0.546988	0.062416	-0.029312
123	0.651718	0.005000	1.372235	10.178181	1.267207	-0.753731	-0.646117	0.798502	0.512710	0.064268	-0.007398
124	0.656718	0.005000	1.319370	10.305330	0.804719	-0.753731	-0.646269	0.798399	0.394657	0.051659	0.013558
125	0.661718	0.005000	1.294920	10.381597	0.477415	-0.753731	-0.646269	0.798522	0.319783	0.023990	0.020820
126	0.666718	0.005000	1.335109	10.319171	0.174208	-0.753731	-0.646269	0.798644	0.326450	0.003531	0.038371
127	0.671718	0.005000	1.376338	10.277942	-0.102508	-0.753731	-0.646269	0.798767	0.337471	-0.010960	0.039209
128	0.676718	0.005000	1.318421	10.233663	-0.039240	-0.753731	-0.646269	0.798889	0.347967	-0.028394	0.028456
129	0.681718	0.005000	1.308714	10.096331	-0.064686	-0.753731	-0.646269	0.799012	0.321349	-0.047656	0.034435
130	0.686718	0.005000	1.334160	9.927720	-0.011386	-0.753731	-0.646269	0.799134	0.302176	-0.062387	0.031194
131	0.691718	0.005000	1.384312	9.888480	0.105339	-0.753731	-0.646269	0.799257	0.259869	-0.051657	0.023027
132	0.696718	0.005000	1.341187	9.874425	0.385373	-0.753731	-0.646269	0.799379	0.200529	-0.039585	0.014146
133	0.701718	0.005000	1.535456	9.775856	0.274680	-0.753731	-0.646269	0.799502	0.140472	-0.031913	0.021304
134	0.706718	0.005000	1.457239	9.773439	0.232761	-0.753731	-0.646269	0.799624	0.087881	-0.009356	0.004256
135	0.711718	0.005000	1.491120	9.770025	0.234705	-0.753731	-0.646269	0.799747	0.069952	0.017377	-0.007061
136	0.716718	0.005000	1.491120	9.731520	0.196200	-0.753731	-0.646269	0.799869	0.084587	0.045809	-0.004801
137	0.721718	0.005000	1.491120	9.731520	0.082093	-0.753731	-0.646269	0.799992	0.110004	0.053790	-0.001924
138	0.726718	0.005000	1.451880	9.580590	-0.184140	-0.753424	-0.646167	0.800114	0.122707	0.060036	-0.012751
139	0.731718	0.005000	1.640107	9.637093	-0.055187	-0.753095	-0.646057	0.800237	0.106406	0.065908	-0.015453
140	0.736718	0.005000	1.648080	9.729239	-0.060001	-0.752766	-0.645947	0.800359	0.105006	0.057747	-0.019834
141	0.741718	0.005000	1.672729	9.797675	-0.012325	-0.752437	-0.645837	0.800482	0.086596	0.057605	-0.009654
142	0.746718	0.005000	1.751062	9.819764	0.034266	-0.752108	-0.645728	0.800604	0.066474	0.054390	-0.006954
143	0.751718	0.005000	1.799163	9.905162	0.156960	-0.751779	-0.645618	0.800727	0.052658	0.052219	0.006012
144	0.756718	0.005000	1.825188	9.908628	0.236496	-0.751450	-0.645508	0.800849	0.043736	0.050042	0.010798
145	0.761718	0.005000	1.940964	9.966960	0.274680	-0.751121	-0.645399	0.800972	0.030565	0.042089	0.029367
146	0.766718	0.005000	1.922760	9.927720	0.329714	-0.750792	-0.645289	0.801094	0.015514	0.031540	0.023732
147	0.771718	0.005000	1.883520	9.927720	0.339304	-0.750463	-0.645179	0.801217	0.004164	0.023840	0.016981
148	0.776718	0.005000	1.754352	9.888480	0.196200	-0.750134	-0.645070	0.801339	0.005426	0.017879	0.016727
149	0.781718	0.005000	1.786032	9.810000	0.186696	-0.749805	-0.644960	0.801462	0.019631	0.013273	0.019832
150	0.786718	0.005000	1.758711	9.795823	0.117720	-0.749476	-0.644850	0.801584	0.028328	0.002391	0.020576
151	0.791718	0.005000	1.603696	9.697424	0.073336	-0.749360	-0.644670	0.801627	0.046824	0.004870	0.016923
152	0.796718	0.005000	1.687320	9.697759	0.075741	-0.749690	-0.644340	0.801505	0.050163	-0.000276	0.010334
153	0.801718	0.005000	1.688116	9.848444	0.079276	-0.750019	-0.644011	0.801382	0.054414	0.002002	0.000803
154	0.806718	0.005000	1.613650	9.734727	0.117720	-0.750348	-0.643682	0.801260	0.064765	-0.003279	-0.009463
155	0.811718	0.005000	1.719428	9.727954	0.078480	-0.750677	-0.643353	0.801137	0.096211	-0.012649	-0.005667
156	0.816718	0.005000	1.575571	9.664982	0.033269	-0.751006	-0.643024	0.801015	0.109464	-0.015868	-0.012336
157	0.821718	0.005000	1.561685	9.723605	0.156960	-0.751335	-0.642695	0.800892	0.109811	-0.030367	-0.013085
158	0.826718	0.005000	1.666659	9.820330	0.156960	-0.751664	-0.642366	0.800770	0.110730	-0.033107	-0.008329
159	0.831718	0.005000	1.662772	9.839384	0.169234	-0.751993	-0.642037	0.800647	0.097607	-0.038927	-0.006324
160	0.836718	0.005000	1.687320	9.913038	0.269873	-0.752322	-0.641708	0.800525	0.090439	-0.037473	-0.006520
161	0.841718	0.005000	1.670438	9.927720	0.347684	-0.752651	-0.641379	0.800402	0.106656	-0.037557	-0.013123
162	0.846718	0.005000	1.648080	9.927720	0.293711	-0.752980	-0.641050	0.800280	0.117827	-0.040963	-0.013326
163	0.851718	0.005000	1.476220	9.888480	0.259780	-0.753309	-0.640721	0.800157	0.126688	-0.045285	-0.008331
164	0.856718	0.005000	1.553745	9.966960	0.290535	-0.753638	-0.640392	0.800034	0.138589	-0.048439	-0.008839
165	0.861718	0.005000	1.569600	9.860979	0.288431	-0.753810	-0.640141	0.800616	0.152438	-0.052195	-0.007749
166	0.866718	0.005000	1.541858	9.648294	0.274680	-0.753920	-0.639922	0.801474	0.154976	-0.037285	0.009136
167	0.871718	0.005000	1.541282	9.819439	0.254319	-0.754029	-0.639702	0.802332	0.124631	-0.018772	0.018847
168	0.876718	0.005000	1.444733	9.888480	0.235440	-0.754139	-0.639483	0.803189	0.124786	-0.001226	0.002871
169	0.881718	0.005000	1.451880	9.898767	0.180770	-0.754249	-0.639263	0.804047	0.115355	-0.002111	0.009274
170	0.886718	0.005000	1.535933	9.891266	0.008359	-0.754359	-0.639044	0.804904	0.101290	0.011147	0.012081
171	0.891718	0.005000	1.568835	9.887715	0.038857	-0.754468	-0.638824	0.805762	0.105143	0.013747	0.013298
172	0.896718	0.005000	1.453442	9.847678	-0.113035	-0.754578	-0.638605	0.806619	0.076086	0.009468	0.017104
173	0.901718	0.005000	1.487187	9.813933	-0.219708	-0.754688	-0.638385	0.807477	0.024015	-0.013352	0.003159
174	0.906718	0.005000	1.524450	9.882570	-0.425730	-0.754798	-0.638166	0.808335	-0.023366	-0.004780	0.016234
175	0.911718	0.005000	1.475442	9.770760	-0.298212	-0.754907	-0.637946	0.809192	-0.069568	0.005913	0.013658
176	0.916718	0.005000	1.480851	9.770760	-0.284949	-0.755017	-0.637727	0.810050	-0.061399	0.000270	0.017754
177	0.921718	0.005000	1.464093	9.810000	-0.102906	-0.755127	-0.637507	0.810907	-0.053889	0.001001	0.017158
178	0.926718	0.005000	1.540358	9.873859	0.000000	-0.755211	-0.637300	0.811653	-0.031074	0.005121	0.004977
179	0.931718	0.005000	1.479850	9.776463	-0.089614	-0.755102	-0.637191	0.811531	-0.031691	-0.002279	0.006475
180	0.936718	0.005000	1.491120	9.889766	0.020263	-0.754992	-0.637081	0.811408	-0.047401	-0.014354	0.001529
181	0.941718	0.005000	1.415665	9.909613	0.156960	-0.754882	-0.636972	0.811286	-0.054478	-0.017449	0.002976
182	0.946718	0.005000	1.499602	9.888480	0.156960	-0.754773	-0.636862	0.811163	-0.056758	-0.006314	0.000157
183	0.951718	0.005000	1.491120	9.836997	0.221942	-0.754663	-0.636752	0.811041	-0.046613	-0.013136	-0.001430
184	0.956718	0.005000	1.491120	9.837819	0.246861	-0.754553	-0.636643	0.810918	-0.040453	-0.008862	-0.007850
185	0.961718	0.005000	1.481980	9.779900	0.334880	-0.754444	-0.636533	0.810796	-0.028363	0.001775	-0.010697
186	0.966718	0.005000	1.523250	9.849240	0.267570	-0.754334	-0.636424	0.810673	-0.022383	-0.009974	-0.005030
187	0.971718	0.005000	1.525570	9.854030	0.240230	-0.754224	-0.636314	0.810551	-0.009823	-0.014681	0.001993
188	0.976718	0.005000	1.493507	9.888480	0.385238	-0.754115	-0.636204	0.810428	0.007841	-0.016349	-0.003770
189	0.981718	0.005000	1.451880	9.927276	0.195756	-0.754005	-0.636095	0.810306	0.005909	-0.012501	-0.008385
190	0.986718	0.005000	1.489169	9.963057	0.231537	-0.753895	-0.635985	0.810183	0.006273	-0.019282	-0.013696
191	0.991718	0.005000	1.416558	9.853158	0.231522	-0.753785	-0.635875	0.810061	-0.000609	-0.015702	-0.011387
192	0.996718	0.005000	1.569600	9.836594	0.137991	-0.753841	-0.636207	0.809938	-0.007708	-0.010735	-0.024304
193	1.001718	0.005000	1.507655	9.888480	0.173495	-0.754061	-0.636975	0.809816	-0.017005	-0.013446	-0.006532
194	1.006718	0.005000	1.462562	9.888480	0.096355	-0.754280	-0.637743	0.809693	-0.009314	-0.012563	-0.009668
195	1.011718	0.005000	1.504054	9.783694	0.065985	-0.754499	-0.638510	0.809571	-0.015036	-0.018561	-0.007683
196	1.016718	0.005000	1.578771	9.921856	0.151096	-0.754719	-0.639278	0.809448	-0.011281	-0.001830	-0.001284
197	1.021718	0.005000	1.626085	9.844490	0.174205	-0.754938	-0.640045	0.809326	-0.010028	0.004563	-0.016132
198	1.026718	0.005000	1.510970	9.849240	0.196200	-0.755157	-0.640813	0.809204	-0.005656	-0.005803	-0.004494
199	1.031718	0.005000	1.565237	9.831802	0.331358	-0.755377	-0.641581	0.809081	-0.010825	-0.003056	-0.006582
200	1.036718	0.005000	1.632586	9.864734	0.313920	-0.755596	-0.642348	0.808959	-0.018926	-0.002954	-0.002549
201	1.041718	0.005000	1.529437	9.888480	0.197123	-0.755815	-0.643116	0.808836	-0.017634	0.008513	0.000715
202	1.046718	0.005000	1.519214	9.821146	0.296972	-0.756034	-0.643884	0.808714	-0.025438	-0.001047	-0.000305
203	1.051718	0.005000	1.539099	9.975699	0.383661	-0.756254	-0.644651	0.808591	-0.020336	-0.001045	0.006125
204	1.056718	0.005000	1.537076	9.927720	0.353160	-0.756473	-0.645419	0.808469	-0.020813	0.008455	0.001896
205	1.061718	0.005000	1.534739	9.897237	0.305163	-0.756692	-0.646186	0.808346	-0.019746	-0.008148	0.004812
206	1.066718	0.005000	1.606435	9.930125	0.235440	-0.757695	-0.646758	0.809207	-0.009441	0.002984	0.002864
207	1.071718	0.005000	1.569631	9.927689	0.235471	-0.758791	-0.647306	0.810187	-0.007610	0.007732	-0.002346
208	1.076718	0.005000	1.534188	9.888480	0.349332	-0.759888	-0.647855	0.811167	-0.001197	-0.003288	-0.005919
209	1.081718	0.005000	1.635087	9.932051	0.388069	-0.760985	-0.648403	0.812146	0.006115	0.001744	0.000266
210	1.086718	0.005000	1.524085	9.927720	0.202475	-0.762081	-0.648951	0.813126	0.019519	-0.003983	0.005338
211	1.091718	0.005000	1.670166	9.989046	0.296766	-0.763178	-0.649499	0.814106	0.025971	-0.001880	-0.004834
212	1.096718	0.005000	1.658705	10.009461	0.410389	-0.764274	-0.650048	0.815085	0.037706	-0.010520	-0.007850
213	1.101718	0.005000	1.779263	10.085255	0.483768	-0.765371	-0.650596	0.816065	0.043644	-0.006293	-0.007435
214	1.106718	0.005000	1.853554	10.338669	0.368143	-0.766468	-0.651144	0.817045	0.096283	-0.028379	-0.006810
215	1.111718	0.005000	1.822225	10.678151	0.309049	-0.767564	-0.651692	0.818024	0.166026	-0.047348	-0.009170
216	1.116718	0.005000	1.764637	10.495246	0.135305	-0.768661	-0.652241	0.819004	0.246686	-0.055143	-0.030874
217	1.121718	0.005000	1.551841	10.038845	-0.167277	-0.769758	-0.652789	0.819984	0.333191	-0.065991	-0.023680
218	1.126718	0.005000	1.373400	9.520469	-0.384270	-0.770854	-0.653337	0.820963	0.329226	-0.058886	-0.011628
219	1.131718	0.005000	1.228784	9.206848	-0.420400	-0.771302	-0.653484	0.821288	0.137642	-0.041050	-0.001285
220	1.136718	0.005000	1.266883	8.952352	-0.829550	-0.770095	-0.652606	0.819940	-0.190911	-0.001370	0.010786
221	1.141718	0.005000	1.364248	8.771456	-1.688576	-0.768889	-0.651729	0.818592	-0.684175	0.033346	0.025156
222	1.146718	0.005000	1.269367	8.842687	-2.176909	-0.767682	-0.650851	0.817245	-1.158378	0.044145	0.037201
223	1.151718	0.005000	1.308235	9.165111	-1.423843	-0.766475	-0.649973	0.815897	-1.168441	0.082449	0.029962
224	1.156718	0.005000	1.496109	9.498575	0.626692	-0.765268	-0.649096	0.814549	-0.603777	0.127643	0.016448
225	1.161718	0.005000	1.648233	9.614030	2.747948	-0.764061	-0.648218	0.813202	0.065547	0.148124	-0.010396
226	1.166718	0.005000	1.763933	9.806266	3.634383	-0.762855	-0.647340	0.811854	0.423646	0.102003	-0.025904
227	1.171718	0.005000	1.730780	9.954299	3.325703	-0.761648	-0.646463	0.810507	0.486801	0.017284	-0.019081
228	1.176718	0.005000	1.660512	10.216776	2.395967	-0.760441	-0.645585	0.809159	0.412953	-0.025255	-0.016729
229	1.181718	0.005000	1.687320	10.543681	1.405679	-0.759234	-0.644708	0.807811	0.291928	-0.021130	-0.005162
230	1.186718	0.005000	1.540924	10.798548	0.680660	-0.758028	-0.643830	0.806464	0.177992	0.019277	0.008066
231	1.191718	0.005000	1.569600	10.791000	0.221850	-0.756821	-0.642952	0.805116	0.102477	0.045316	0.018924
232	1.196718	0.005000	1.554678	10.654486	0.005525	-0.755614	-0.642075	0.803769	0.087461	0.037638	0.034925
233	1.201718	0.005000	1.539515	10.367536	-0.152382	-0.755669	-0.641717	0.803499	0.133888	0.005173	0.050664
234	1.206718	0.005000	1.549636	10.004133	-0.039929	-0.756327	-0.641607	0.803744	0.212599	-0.046420	0.054196
235	1.211718	0.005000	1.434326	9.735652	-0.004132	-0.756985	-0.641498	0.803989	0.249445	-0.075291	0.047962
236	1.216718	0.005000	1.436270	9.637430	0.117720	-0.757643	-0.641388	0.804234	0.261434	-0.095628	0.051447
237	1.221718	0.005000	1.386245	9.626997	0.248285	-0.758301	-0.641278	0.804479	0.214158	-0.078799	0.030397
238	1.226718	0.005000	1.412640	9.580332	0.224187	-0.758959	-0.641169	0.804724	0.178037	-0.057865	0.027683
239	1.231718	0.005000	1.334160	9.613800	0.060788	-0.759617	-0.641059	0.804968	0.130410	-0.034840	0.016452
240	1.236718	0.005000	1.419462	9.699102	0.006822	-0.760275	-0.640949	0.805213	0.095355	0.002552	0.009026
241	1.241718	0.005000	1.534846	9.539806	-0.057184	-0.760933	-0.640840	0.805458	0.070888	0.015841	0.008595
242	1.246718	0.005000	1.493631	9.535320	-0.394911	-0.761591	-0.640730	0.805703	0.062972	0.032928	-0.000020
243	1.251718	0.005000	1.608840	9.653040	-0.471293	-0.762249	-0.640621	0.805948	0.047145	0.038239	0.002197
244	1.256718	0.005000	1.608840	9.653040	-0.588600	-0.762907	-0.640511	0.806193	0.027928	0.055327	-0.001899
245	1.261718	0.005000	1.648080	9.688070	-0.514330	-0.763564	-0.640401	0.806438	0.007174	0.059605	-0.002394
246	1.266718	0.005000	1.628430	9.679180	-0.405500	-0.764085	-0.640285	0.806635	-0.002420	0.074129	0.013469
247	1.271718	0.005000	1.617410	9.762190	-0.291821	-0.762659	-0.640065	0.806145	-0.016905	0.078232	0.008887
248	1.276718	0.005000	1.715714	9.753212	-0.089326	-0.761232	-0.639846	0.805655	-0.022681	0.062307	0.016585
249	1.281718	0.005000	1.739482	9.823396	0.013396	-0.759806	-0.639626	0.805165	-0.031178	0.052808	0.013486
250	1.286718	0.005000	1.711225	9.816764	0.148390	-0.758380	-0.639407	0.804674	-0.037720	0.041020	0.006969
251	1.291718	0.005000	1.748522	9.831962	0.139682	-0.756954	-0.639187	0.804184	-0.047822	0.026097	0.015974
252	1.296718	0.005000	1.726698	9.829689	0.039378	-0.755528	-0.638968	0.803694	-0.050987	0.008323	0.011695
253	1.301718	0.005000	1.643633	9.810000	-0.039240	-0.754102	-0.638748	0.803204	-0.062622	-0.000503	0.019688
254	1.306718	0.005000	1.608840	9.864437	0.096172	-0.752675	-0.638529	0.802714	-0.060374	0.016599	0.005277
255	1.311718	0.005000	1.595800	9.862340	-0.026140	-0.751249	-0.638309	0.802224	-0.038007	0.002467	0.002690
256	1.316718	0.005000	1.608840	9.866801	0.000000	-0.749823	-0.638090	0.801734	-0.031676	-0.008168	0.011912
257	1.321718	0.005000	1.560796	9.810000	0.000000	-0.748397	-0.637870	0.801244	-0.003049	-0.008557	0.002139
258	1.326718	0.005000	1.556617	9.783743	-0.019765	-0.746971	-0.637651	0.800754	0.014343	-0.026878	0.000331
259	1.331718	0.005000	1.561428	9.845154	0.078480	-0.745544	-0.637431	0.800264	0.003933	-0.021406	-0.006599
260	1.336718	0.005000	1.569600	9.774996	-0.006353	-0.744877	-0.637768	0.800226	-0.017255	-0.038715	-0.006263
261	1.341718	0.005000	1.608565	9.810275	-0.039791	-0.745097	-0.638756	0.800716	-0.023055	-0.034480	-0.012512
262	1.346718	0.005000	1.611059	9.849240	0.030364	-0.745316	-0.639743	0.801206	-0.027826	-0.027714	-0.022635
263	1.351718	0.005000	1.613464	9.780007	-0.029993	-0.745535	-0.640731	0.801696	-0.038019	-0.033128	-0.016348
264	1.356718	0.005000	1.530360	9.803432	0.032672	-0.745755	-0.641718	0.802186	-0.037640	-0.033815	-0.018703
265	1.361718	0.005000	1.512393	9.779744	0.238746	-0.745974	-0.642705	0.802676	-0.046829	-0.046122	-0.013125
266	1.366718	0.005000	1.569600	9.854716	0.179469	-0.746194	-0.643693	0.803166	-0.046839	-0.039395	-0.021247
267	1.371718	0.005000	1.621410	9.875145	0.144390	-0.746413	-0.644680	0.803656	-0.050063	-0.043530	-0.018234
268	1.376718	0.005000	1.608840	9.896588	0.188742	-0.746632	-0.645667	0.804146	-0.049961	-0.039992	-0.011606
269	1.381718	0.005000	1.548052	9.888480	0.288515	-0.746852	-0.646655	0.804637	-0.062917	-0.026579	-0.024126
270	1.386718	0.005000	1.608840	9.946858	0.253613	-0.747071	-0.647642	0.805127	-0.061723	-0.037154	-0.019583
271	1.391718	0.005000	1.547562	9.932556	0.235440	-0.747291	-0.648630	0.805617	-0.058139	-0.025068	-0.022625
272	1.396718	0.005000	1.491120	9.824790	0.304259	-0.747510	-0.649617	0.806107	-0.047342	-0.021385	-0.013114
273	1.401718	0.005000	1.451880	10.006904	0.353864	-0.747730	-0.650604	0.806597	-0.054564	-0.018623	-0.012117
274	1.406718	0.005000	1.480683	9.985325	0.350650	-0.748137	-0.649994	0.806352	-0.064050	-0.015066	-0.010127
275	1.411718	0.005000	1.521866	9.958466	0.204694	-0.748576	-0.649117	0.805985	-0.049431	-0.012347	0.001536
276	1.416718	0.005000	1.563522	9.927720	0.332154	-0.749015	-0.648239	0.805617	-0.033470	-0.007810	-0.003967
277	1.421718	0.005000	1.491120	9.971044	0.439809	-0.749453	-0.647361	0.805250	-0.027480	-0.009664	0.000116
278	1.426718	0.005000	1.567871	10.041981	0.504932	-0.749892	-0.646484	0.804882	-0.019781	-0.003360	-0.006666
279	1.431718	0.005000	1.530360	9.927934	0.392400	-0.750331	-0.645606	0.804515	-0.014061	-0.010862	-0.005556
280	1.436718	0.005000	1.425802	9.925088	0.651286	-0.750770	-0.644728	0.804147	-0.006899	-0.006568	0.001684
281	1.441718	0.005000	1.530360	9.858392	0.519272	-0.751209	-0.643851	0.803780	0.010397	-0.004298	0.003954
282	1.446718	0.005000	1.394344	9.927720	0.431640	-0.751647	-0.642973	0.803412	0.010969	-0.005140	0.000802
283	1.451718	0.005000	1.442954	9.888480	0.519046	-0.752086	-0.642096	0.803045	0.011756	0.014410	0.004832
284	1.456718	0.005000	1.546941	9.911139	0.470880	-0.752525	-0.641218	0.802677	0.015807	0.004889	0.005421
285	1.461718	0.005000	1.543634	9.927720	0.392400	-0.752964	-0.640340	0.802309	0.008954	0.003573	0.002324
286	1.466718	0.005000	1.546047	9.864927	0.368847	-0.753403	-0.639463	0.801942	0.018758	0.010186	0.007430
287	1.471718	0.005000	1.451880	9.810000	0.392400	-0.753814	-0.638861	0.801790	0.016936	0.002611	0.010364
288	1.476718	0.005000	1.431839	9.887638	0.333119	-0.754143	-0.639081	0.802280	0.027618	-0.000638	0.002749
289	1.481718	0.005000	1.525217	9.888480	0.363447	-0.754472	-0.639300	0.802770	0.035950	0.000730	0.000809
290	1.486718	0.005000	1.589740	9.834395	0.289525	-0.754801	-0.639519	0.803260	0.040978	0.000515	0.006494
291	1.491718	0.005000	1.661816	9.888480	0.222688	-0.755130	-0.639739	0.803750	0.051496	-0.002129	0.007599
292	1.496718	0.005000	1.559113	9.849240	0.271970	-0.755460	-0.639958	0.804240	0.045203	-0.004964	0.000225
293	1.501718	0.005000	1.555683	9.927720	0.165401	-0.755789	-0.640178	0.804730	0.075732	0.005798	-0.003352
294	1.506718	0.005000	1.602703	9.915446	0.223166	-0.756118	-0.640397	0.805220	0.064381	-0.003312	0.013384
295	1.511718	0.005000	1.530360	9.888480	0.165250	-0.756447	-0.640617	0.805710	0.062206	-0.006516	0.003766
296	1.516718	0.005000	1.532136	9.813552	0.042792	-0.756776	-0.640836	0.806200	0.059323	-0.011835	0.003203
297	1.521718	0.005000	1.608220	9.888480	0.117720	-0.757105	-0.641055	0.806690	0.048649	0.002874	-0.001266
298	1.526718	0.005000	1.650652	9.812572	0.078480	-0.757435	-0.641275	0.807180	0.040877	-0.004377	-0.002215
299	1.531718	0.005000	1.648080	9.746269	0.034324	-0.757764	-0.641494	0.807670	0.040779	-0.011008	0.009923
300	1.536718	0.005000	1.537280	9.856160	0.163880	-0.758093	-0.641714	0.808160	0.038873	-0.002368	0.002800
301	1.541718	0.005000	1.509791	9.789431	0.097151	-0.757783	-0.641791	0.808095	0.053553	-0.012015	0.004684
302	1.546718	0.005000	1.563723	9.837961	0.089759	-0.757125	-0.641791	0.807728	0.050877	-0.016259	0.000358
303	1.551718	0.005000	1.518495	9.862927	0.131407	-0.756467	-0.641791	0.807360	0.048207	-0.013288	-0.007382
304	1.556718	0.005000	1.569600	9.833608	0.133352	-0.755808	-0.641791	0.806993	0.054622	-0.011046	-0.004656
305	1.561718	0.005000	1.527207	9.788804	0.156960	-0.755150	-0.641791	0.806625	0.060796	-0.013140	-0.009422
306	1.566718	0.005000	1.549613	9.869227	0.234705	-0.754492	-0.641791	0.806258	0.068893	-0.016690	0.003508
307	1.571718	0.005000	1.608840	9.871639	0.252281	-0.753834	-0.641791	0.805890	0.058189	-0.010477	-0.002289
308	1.576718	0.005000	1.608840	9.913001	0.259961	-0.753175	-0.641791	0.805523	0.049238	-0.018790	-0.002587
309	1.581718	0.005000	1.582088	9.770760	0.144472	-0.752517	-0.641791	0.805155	0.029275	-0.017098	0.000605
310	1.586718	0.005000	1.548755	9.838817	0.099325	-0.751859	-0.641791	0.804788	0.018165	-0.019422	0.001707
311	1.591718	0.005000	1.482990	9.787019	0.156960	-0.751201	-0.641791	0.804420	0.017114	-0.017264	0.006714
312	1.596718	0.005000	1.591662	9.810000	0.162686	-0.750543	-0.641791	0.804052	0.012444	-0.015891	0.009102
313	1.601718	0.005000	1.608840	9.766978	0.168305	-0.749884	-0.641791	0.803685	0.019043	-0.020260	0.010392
314	1.606718	0.005000	1.646703	9.773515	0.234063	-0.749254	-0.641800	0.803349	0.023330	-0.005540	0.002937
315	1.611718	0.005000	1.570166	9.926587	0.273547	-0.749254	-0.642020	0.803716	0.040066	-0.011755	0.007378
316	1.616718	0.005000	1.651064	9.888480	0.238424	-0.749254	-0.642239	0.804084	0.038029	-0.007450	0.004121
317	1.621718	0.005000	1.530360	9.815325	0.274680	-0.749254	-0.642459	0.804451	0.047944	-0.007336	0.003697
318	1.626718	0.005000	1.562266	9.849240	0.132387	-0.749254	-0.642678	0.804819	0.032219	-0.011852	0.008041
319	1.631718	0.005000	1.539996	9.918084	0.000000	-0.749254	-0.642897	0.805186	0.031511	-0.002645	-0.001832
320	1.636718	0.005000	1.624695	9.900172	0.062625	-0.749254	-0.643117	0.805554	0.036192	-0.012048	0.000920
321	1.641718	0.005000	1.518984	9.849240	0.117720	-0.749254	-0.643336	0.805921	0.034241	-0.004575	-0.004780
322	1.646718	0.005000	1.537510	9.779655	0.071330	-0.749254	-0.643556	0.806289	0.019022	-0.009489	0.000937
323	1.651718	0.005000	1.629623	9.810000	0.039240	-0.749254	-0.643775	0.806656	0.010996	-0.012981	0.003972
324	1.656718	0.005000	1.608840	9.770760	0.100442	-0.749254	-0.643994	0.807024	0.000271	-0.008247	0.000405
325	1.661718	0.005000	1.507548	9.793572	0.016428	-0.749254	-0.644214	0.807391	-0.013098	-0.015957	0.001619
326	1.666718	0.005000	1.462134	9.799746	0.249933	-0.749254	-0.644433	0.807759	-0.009034	-0.000574	0.007323
327	1.671718	0.005000	1.530360	9.834159	0.274680	-0.749254	-0.644653	0.808126	0.005639	0.001788	0.004280
328	1.676718	0.005000	1.617674	10.035305	0.274680	-0.749494	-0.644680	0.808119	0.008877	-0.011858	-0.004345
329	1.681718	0.005000	1.569600	9.959231	0.274680	-0.750042	-0.644461	0.807629	0.036220	-0.005227	0.003026
330	1.686718	0.005000	1.642295	10.006200	0.207770	-0.750591	-0.644241	0.807139	0.043356	-0.017493	0.001848
331	1.691718	0.005000	1.654816	9.999464	0.346424	-0.751139	-0.644022	0.806649	0.036854	-0.008348	-0.000101
332	1.696718	0.005000	1.608840	9.888480	0.274680	-0.751688	-0.643802	0.806159	0.029390	-0.017403	0.002389
333	1.701718	0.005000	1.608840	9.735439	0.236420	-0.752236	-0.643583	0.805669	0.005144	-0.018162	0.001817
334	1.706718	0.005000	1.569600	9.846316	0.042164	-0.752785	-0.643364	0.805179	-0.037670	-0.013043	0.003046
335	1.711718	0.005000	1.598158	9.820682	-0.044581	-0.753333	-0.643144	0.804689	-0.048869	-0.002500	0.011187
336	1.716718	0.005000	1.569600	9.920435	0.039240	-0.753882	-0.642925	0.804199	-0.054780	0.000977	0.000527
337	1.721718	0.005000	1.599149	9.829383	0.097863	-0.754430	-0.642705	0.803709	-0.020680	-0.009666	0.002443
338	1.726718	0.005000	1.487777	9.731520	0.187577	-0.754979	-0.642486	0.803219	0.007449	-0.014121	0.002924
339	1.731718	0.005000	1.516321	9.810000	0.210239	-0.755527	-0.642267	0.802729	0.025496	-0.025195	-0.003511
340	1.736718	0.005000	1.418976	9.810000	0.359496	-0.756076	-0.642047	0.802239	0.034763	-0.013969	0.008189
341	1.741718	0.005000	1.449431	9.789156	0.334764	-0.756624	-0.641828	0.801749	0.021115	-0.007933	0.002179
342	1.746718	0.005000	1.410267	9.888480	0.295487	-0.757173	-0.641882	0.801973	0.009455	-0.014337	0.012529
343	1.751718	0.005000	1.546384	9.904504	0.203393	-0.757721	-0.641992	0.802341	0.005548	-0.004837	0.001575
344	1.756718	0.005000	1.491120	9.874400	0.120720	-0.758270	-0.642102	0.802708	-0.003492	-0.011848	0.000974
345	1.761718	0.005000	1.440214	9.770760	0.129386	-0.758819	-0.642212	0.803076	-0.002523	-0.018229	0.001314
346	1.766718	0.005000	1.461486	9.829212	0.009606	-0.759367	-0.642321	0.803443	-0.017865	-0.018546	0.003834
347	1.771718	0.005000	1.537675	9.849240	0.186222	-0.759916	-0.642431	0.803811	-0.018488	-0.021712	0.013282
348	1.776718	0.005000	1.501739	9.854550	0.274680	-0.760464	-0.642541	0.804178	-0.028720	-0.020390	0.004904
349	1.781718	0.005000	1.572555	9.852195	0.353160	-0.761013	-0.642651	0.804546	-0.009222	-0.024625	0.008949
350	1.786718	0.005000	1.608289	9.850342	0.275231	-0.761561	-0.642760	0.804913	-0.000326	-0.017435	-0.000798
351	1.791718	0.005000	1.531753	9.852026	0.389614	-0.762110	-0.642870	0.805281	0.008024	-0.027307	0.005440
352	1.796718	0.005000	1.565833	9.849240	0.227907	-0.762658	-0.642980	0.805648	0.002580	-0.032073	0.001776
353	1.801718	0.005000	1.675811	9.888480	0.168469	-0.763207	-0.643090	0.806016	-0.011877	-0.029009	-0.000901
354	1.806718	0.005000	1.679257	9.888480	0.195126	-0.763756	-0.643199	0.806383	-0.006901	-0.023801	-0.000227
355	1.811718	0.005000	1.629042	9.830202	0.206301	-0.764254	-0.643409	0.807198	0.008126	-0.013861	-0.003907
356	1.816718	0.005000	1.542719	9.849240	0.103198	-0.764583	-0.643958	0.809526	0.025647	-0.019177	-0.000388
357	1.821718	0.005000	1.579934	9.923602	0.039240	-0.764912	-0.644506	0.811853	0.037490	-0.008777	0.003171
358	1.826718	0.005000	1.564090	9.849240	0.218575	-0.765242	-0.645055	0.814181	0.037205	-0.009578	0.003803
359	1.831718	0.005000	1.530360	9.828809	0.116098	-0.765571	-0.645603	0.816508	0.034741	-0.009504	0.009013
360	1.836718	0.005000	1.527160	9.810000	0.114520	-0.765900	-0.646152	0.818836	0.014860	-0.001058	0.001762
361	1.841718	0.005000	1.608840	9.810000	0.078480	-0.766229	-0.646700	0.821164	0.006020	-0.007439	-0.002743
362	1.846718	0.005000	1.687320	9.796333	0.039240	-0.766558	-0.647249	0.823491	-0.003510	-0.001091	-0.012401
363	1.851718	0.005000	1.659803	9.798277	0.172754	-0.766887	-0.647797	0.825819	-0.007905	-0.005917	-0.003639
364	1.856718	0.005000	1.687320	9.839931	0.207514	-0.767216	-0.648346	0.828146	-0.001778	-0.005744	-0.007226
365	1.861718	0.005000	1.608840	9.841876	0.203564	-0.767546	-0.648894	0.830474	-0.012195	-0.001831	-0.007326
366	1.866718	0.005000	1.638163	9.844281	0.122679	-0.767875	-0.649442	0.832801	0.002681	-0.007598	-0.000108
367	1.871718	0.005000	1.563640	9.812980	0.238420	-0.768204	-0.649991	0.835129	-0.005353	-0.007991	-0.011475
368	1.876718	0.005000	1.569600	9.849852	0.234828	-0.768533	-0.650539	0.837456	0.000788	-0.008471	-0.011574
369	1.881718	0.005000	1.531692	9.926388	0.272016	-0.768452	-0.650131	0.836806	-0.000136	-0.005610	-0.015048
370	1.886718	0.005000	1.573350	9.923970	0.235440	-0.768123	-0.649144	0.834357	0.015327	-0.002553	-0.013849
371	1.891718	0.005000	1.602759	9.960879	0.202281	-0.767794	-0.648157	0.831908	0.019366	0.006269	-0.016312
372	1.896718	0.005000	1.648080	9.834297	0.079735	-0.767465	-0.647170	0.829459	0.018088	0.001310	-0.017213
373	1.901718	0.005000	1.551145	9.791545	0.128112	-0.767136	-0.646183	0.827010	0.030588	-0.004196	-0.005711
374	1.906718	0.005000	1.503578	9.822458	0.249765	-0.766807	-0.645196	0.824561	0.021960	-0.009055	-0.013767
375	1.911718	0.005000	1.540223	9.849240	0.299231	-0.766478	-0.644209	0.822112	-0.001359	-0.006231	-0.009851
376	1.916718	0.005000	1.631269	9.849240	0.252251	-0.766149	-0.643222	0.819663	-0.008976	-0.007107	-0.003419
377	1.921718	0.005000	1.669561	9.888480	0.177200	-0.765820	-0.642235	0.817214	-0.004899	-0.004582	-0.021671
378	1.926718	0.005000	1.548434	9.831166	0.335086	-0.765491	-0.641248	0.814765	-0.002548	-0.010617	-0.010191
379	1.931718	0.005000	1.530360	9.810000	0.219778	-0.765162	-0.640261	0.812316	0.012600	0.002284	-0.010981
380	1.936718	0.005000	1.532274	9.823718	0.302116	-0.764833	-0.639274	0.809867	0.009894	-0.006962	0.000300
381	1.941718	0.005000	1.676006	9.877166	0.313920	-0.764504	-0.638288	0.807418	0.013925	0.000611	-0.004616
382	1.946718	0.005000	1.648080	9.858147	0.265773	-0.764171	-0.637310	0.804997	0.000256	-0.003429	-0.018170
383	1.951718	0.005000	1.615803	9.874553	0.242403	-0.763513	-0.637091	0.804752	0.005554	-0.009450	-0.011245
384	1.956718	0.005000	1.617934	9.784401	0.235440	-0.762855	-0.636872	0.804507	0.009540	0.005462	-0.005026
385	1.961718	0.005000	1.650652	9.849240	0.232868	-0.762197	-0.636652	0.804262	0.011582	0.003581	-0.010390
386	1.966718	0.005000	1.686723	9.849439	0.196200	-0.761539	-0.636433	0.804017	0.012443	0.012073	-0.008909
387	1.971718	0.005000	1.643693	9.851433	0.159153	-0.760881	-0.636214	0.803773	0.008619	0.003904	-0.021102
388	1.976718	0.005000	1.565437	9.774923	0.095131	-0.760223	-0.635994	0.803528	0.002231	0.003619	-0.007702
389	1.981718	0.005000	1.471584	9.849240	0.045808	-0.759565	-0.635775	0.803283	0.006008	0.013667	-0.017382
390	1.986718	0.005000	1.561088	9.879968	0.179175	-0.758907	-0.635556	0.803038	0.010407	-0.005329	-0.013922
391	1.991718	0.005000	1.530360	9.945106	0.224513	-0.758249	-0.635336	0.802793	0.012741	0.014453	-0.010110
392	1.996718	0.005000	1.504296	9.940608	0.287568	-0.757591	-0.635117	0.802548	0.024033	0.003386	-0.001961
393	2.001718	0.005000	1.460561	9.888480	0.093760	-0.756933	-0.634898	0.802303	0.015445	0.007735	-0.003079
394	2.006718	0.005000	1.530360	9.845383	0.178508	-0.756276	-0.634679	0.802058	0.006657	0.006787	-0.004007
395	2.011718	0.005000	1.569585	9.849240	0.137348	-0.755618	-0.634459	0.801813	0.006621	0.006569	-0.004663
396	2.016718	0.005000	1.586802	9.905682	0.279516	-0.755048	-0.634504	0.801618	-0.004919	0.008377	-0.013374
397	2.021718	0.005000	1.602834	10.021282	0.329002	-0.754609	-0.634943	0.801495	-0.004370	0.001433	-0.003594
398	2.026718	0.005000	1.544217	10.006200	0.327777	-0.754170	-0.635382	0.801373	-0.003586	0.006117	-0.008678
399	2.031718	0.005000	1.519923	9.927720	0.342723	-0.753731	-0.635821	0.801250	-0.000381	-0.000932	-0.008140
400	2.036718	0.005000	1.538756	9.919324	0.266284	-0.753292	-0.636260	0.801128	0.003211	0.002140	-0.004274
401	2.041718	0.005000	1.584527	9.915564	0.150882	-0.752854	-0.636699	0.801005	0.002757	-0.001723	-0.010041
402	2.046718	0.005000	1.534033	9.852913	0.196200	-0.752415	-0.637138	0.800883	0.005815	0.005747	-0.015215
403	2.051718	0.005000	1.496248	9.808291	0.117720	-0.751976	-0.637577	0.800760	0.014683	0.010222	-0.022858
404	2.056718	0.005000	1.531737	9.732209	0.117720	-0.751537	-0.638015	0.800638	0.007465	0.002864	-0.006199
405	2.061718	0.005000	1.569600	9.810000	0.190089	-0.751098	-0.638454	0.800515	-0.000754	0.009531	0.001723
406	2.066718	0.005000	1.569600	9.893517	0.308883	-0.750660	-0.638893	0.800392	0.005791	0.012872	-0.005011
407	2.071718	0.005000	1.498573	9.888480	0.282133	-0.750221	-0.639332	0.800270	0.009200	0.005535	-0.005356
408	2.076718	0.005000	1.560203	9.789554	0.254234	-0.749782	-0.639771	0.800147	0.008990	0.015021	-0.011600
409	2.081718	0.005000	1.608840	9.900284	0.262876	-0.749343	-0.640210	0.800025	0.007730	0.000759	-0.006922
410	2.086718	0.005000	1.530360	9.899644	0.299882	-0.749167	-0.640212	0.800195	-0.001428	0.006383	-0.005971
411	2.091718	0.005000	1.507272	9.904632	0.353160	-0.749057	-0.640102	0.800440	0.008272	0.007916	-0.006282
412	2.096718	0.005000	1.472556	9.849240	0.251892	-0.748947	-0.639992	0.800685	0.002323	0.002540	0.003164
413	2.101718	0.005000	1.548876	9.867756	0.175476	-0.748837	-0.639882	0.800930	0.004894	0.006713	-0.011532
414	2.106718	0.005000	1.546681	9.872159	0.235440	-0.748728	-0.639773	0.801175	0.007330	-0.002772	-0.002802
415	2.111718	0.005000	1.476916	9.941924	0.249644	-0.748618	-0.639663	0.801420	0.015150	0.007682	-0.006518
416	2.116718	0.005000	1.451880	9.927720	0.250744	-0.748508	-0.639553	0.801665	0.021291	-0.002317	0.008749
417	2.121718	0.005000	1.501028	9.937628	0.206108	-0.748398	-0.639443	0.801910	0.017372	0.004483	-0.000923
418	2.126718	0.005000	1.561991	9.998591	0.259462	-0.748289	-0.639334	0.802155	0.008191	-0.005150	-0.004125
419	2.131718	0.005000	1.496323	9.922517	0.117720	-0.748179	-0.639224	0.802400	0.012760	0.000136	-0.001133
420	2.136718	0.005000	1.491120	9.927720	0.199422	-0.748069	-0.639114	0.802645	0.022928	0.001697	-0.009163
421	2.141718	0.005000	1.491120	9.925194	0.117720	-0.747959	-0.639004	0.802890	0.020854	0.005954	0.001442
422	2.146718	0.005000	1.491120	9.810000	0.193996	-0.747850	-0.638895	0.803135	0.016108	0.014010	-0.000664
423	2.151718	0.005000	1.491120	9.845734	0.203212	-0.747761	-0.638806	0.803286	0.020208	0.004545	-0.000992
424	2.156718	0.005000	1.485672	9.883032	0.196200	-0.747761	-0.638806	0.803041	0.034295	-0.007862	-0.004187
425	2.161718	0.005000	1.522506	9.857094	0.251148	-0.747761	-0.638806	0.802796	0.022740	-0.009497	-0.010314
426	2.166718	0.005000	1.540510	9.830301	0.177261	-0.747761	-0.638806	0.802551	0.028666	-0.010061	-0.009611
427	2.171718	0.005000	1.503333	9.849240	0.078480	-0.747761	-0.638806	0.802306	0.026512	0.003665	-0.009800
428	2.176718	0.005000	1.505566	9.977307	0.103274	-0.747761	-0.638806	0.802062	0.025086	-0.002106	0.003063
429	2.181718	0.005000	1.445771	9.905046	0.342703	-0.747761	-0.638806	0.801817	0.021150	-0.005014	-0.006499
430	2.186718	0.005000	1.472362	9.828758	0.216682	-0.747761	-0.638806	0.801572	0.024158	-0.006042	-0.002102
431	2.191718	0.005000	1.485917	9.791681	0.298203	-0.747761	-0.638806	0.801327	0.020141	-0.008817	-0.009023
432	2.196718	0.005000	1.474934	9.849240	0.133906	-0.747761	-0.638806	0.801082	0.018281	-0.008077	-0.002928
433	2.201718	0.005000	1.502434	9.810000	0.142997	-0.747761	-0.638806	0.800837	0.020065	-0.012367	0.009057
434	2.206718	0.005000	1.620715	9.864730	0.208075	-0.747761	-0.638806	0.800592	0.016831	-0.007513	-0.003959
435	2.211718	0.005000	1.559989	9.849240	0.215422	-0.747761	-0.638806	0.800347	0.021965	-0.014021	-0.007417
436	2.216718	0.005000	1.569600	9.888480	0.140456	-0.747761	-0.638806	0.800103	0.022154	-0.010807	0.008954
437	2.221718	0.005000	1.564349	9.961709	0.235440	-0.748016	-0.638870	0.799929	0.014026	0.001801	-0.004519
438	2.226718	0.005000	1.491120	9.921155	0.150395	-0.748455	-0.638980	0.799806	0.009363	-0.010185	0.000891
439	2.231718	0.005000	1.414447	9.887577	0.155153	-0.748894	-0.639089	0.799684	0.010062	-0.005780	0.003354
440	2.236718	0.005000	1.414721	9.963838	0.078480	-0.749333	-0.639199	0.799561	0.009701	-0.020219	-0.001294
441	2.241718	0.005000	1.523470	9.856130	0.146626	-0.749771	-0.639309	0.799439	0.007926	-0.009356	-0.007105
442	2.246718	0.005000	1.496914	9.843446	0.072686	-0.750210	-0.639419	0.799316	-0.001592	-0.015933	-0.001979
443	2.251718	0.005000	1.444075	9.888480	0.062655	-0.750649	-0.639528	0.799194	0.001981	-0.010024	0.006127
444	2.256718	0.005000	1.569600	9.810000	0.000000	-0.751088	-0.639638	0.799071	-0.003055	-0.004276	0.002967
445	2.261718	0.005000	1.557444	9.849240	0.054167	-0.751527	-0.639748	0.798949	0.006511	-0.011301	0.000484
446	2.266718	0.005000	1.491120	9.874079	0.088918	-0.751965	-0.639857	0.798826	-0.004246	-0.011420	0.009446
447	2.271718	0.005000	1.474607	9.826513	0.212713	-0.752404	-0.639967	0.798703	-0.003469	-0.011913	0.008358
448	2.276718	0.005000	1.412640	9.869557	0.078480	-0.752843	-0.640077	0.798581	-0.003659	-0.013744	0.009962
449	2.281718	0.005000	1.431012	9.865117	0.075984	-0.753282	-0.640187	0.798458	-0.009898	-0.011822	-0.003134
450	2.286718	0.005000	1.484343	9.989968	0.196200	-0.753721	-0.640296	0.798336	0.004988	-0.017350	0.002402
451	2.291718	0.005000	1.544384	9.913696	0.235440	-0.753624	-0.640406	0.798811	0.011733	-0.011294	-0.001766
452	2.296718	0.005000	1.573992	9.833232	0.196200	-0.753514	-0.640516	0.799301	0.001507	-0.019940	0.008698
453	2.301718	0.005000	1.540919	9.810000	0.323480	-0.753405	-0.640625	0.799791	-0.009886	-0.015241	0.006587
454	2.306718	0.005000	1.469349	9.824514	0.210714	-0.753295	-0.640735	0.800281	-0.007460	-0.019540	-0.000680
455	2.311718	0.005000	1.535211	9.927720	0.313920	-0.753185	-0.640845	0.800771	-0.006004	-0.020926	0.012784
456	2.316718	0.005000	1.491120	9.924812	0.271772	-0.753076	-0.640954	0.801261	-0.008512	-0.022398	-0.001620
457	2.321718	0.005000	1.491120	9.926740	0.196690	-0.752966	-0.641064	0.801750	0.001006	-0.027165	-0.004083
458	2.326718	0.005000	1.566692	9.849240	0.273226	-0.752857	-0.641173	0.802240	0.000042	-0.017962	0.003726
459	2.331718	0.005000	1.538076	9.892338	0.345444	-0.752747	-0.641283	0.802730	0.007570	-0.014402	0.007662
460	2.336718	0.005000	1.575802	9.888480	0.175566	-0.752637	-0.641393	0.803220	-0.001540	-0.019344	0.004712
461	2.341718	0.005000	1.530360	9.810000	0.227222	-0.752528	-0.641502	0.803710	-0.002461	-0.017404	0.002694
462	2.346718	0.005000	1.558975	9.788749	0.232179	-0.752418	-0.641612	0.804200	0.007983	-0.019956	0.007943
463	2.351718	0.005000	1.516897	9.810000	0.326808	-0.752309	-0.641721	0.804689	0.000910	-0.010780	0.007168
464	2.356718	0.005000	1.578874	9.755777	0.268972	-0.752119	-0.641751	0.804821	0.007875	-0.018021	-0.000046
465	2.361718	0.005000	1.586785	9.814871	0.257495	-0.751789	-0.641641	0.804330	0.015104	-0.016889	-0.003919
466	2.366718	0.005000	1.491702	9.849240	0.313920	-0.751460	-0.641531	0.803840	0.020523	-0.011057	0.000427
467	2.371718	0.005000	1.491120	9.866999	0.296161	-0.751131	-0.641422	0.803350	0.013427	-0.012694	-0.004740
468	2.376718	0.005000	1.545915	9.872925	0.156960	-0.750801	-0.641312	0.802860	0.002474	-0.012647	-0.000427
469	2.381718	0.005000	1.557256	9.901928	0.132272	-0.750472	-0.641202	0.802369	0.005840	-0.015700	0.006790
470	2.386718	0.005000	1.535992	9.938923	0.285883	-0.750143	-0.641093	0.801879	0.006128	-0.007108	-0.002770
471	2.391718	0.005000	1.499908	9.879692	0.244228	-0.749813	-0.640983	0.801389	0.014715	-0.018020	-0.004193
472	2.396718	0.005000	1.581793	9.934482	0.281442	-0.749484	-0.640873	0.800898	0.021078	-0.009072	0.009642
473	2.401718	0.005000	1.491120	9.844802	0.239878	-0.749155	-0.640763	0.800408	0.007735	-0.007382	-0.005605
474	2.406718	0.005000	1.455922	9.774802	0.307857	-0.748826	-0.640654	0.799918	0.017240	-0.008065	0.002914
475	2.411718	0.005000	1.569600	9.849317	0.235593	-0.748496	-0.640544	0.799428	0.008552	-0.008377	-0.008860
476	2.416718	0.005000	1.532227	9.813734	0.239174	-0.748167	-0.640434	0.798937	0.013063	-0.005029	-0.000116
477	2.421718	0.005000	1.643808	9.770760	-0.017882	-0.747838	-0.640325	0.798447	0.009977	-0.003054	0.002319
478	2.426718	0.005000	1.615056	9.810000	0.171336	-0.748013	-0.640720	0.798521	0.013934	-0.006724	-0.002311
479	2.431718	0.005000	1.460500	9.810000	0.226820	-0.748342	-0.641268	0.798766	0.016361	-0.004816	0.001395
480	2.436718	0.005000	1.558693	9.877573	0.224533	-0.748671	-0.641816	0.799011	0.015063	-0.000167	-0.007937
481	2.441718	0.005000	1.635102	9.862218	0.222462	-0.749000	-0.642364	0.799256	0.009666	-0.009485	-0.002896
482	2.446718	0.005000	1.551931	9.849240	0.241809	-0.749329	-0.642913	0.799501	0.008970	0.000521	0.003315
483	2.451718	0.005000	1.596087	9.923142	0.353160	-0.749658	-0.643461	0.799746	0.020383	-0.008650	0.002300
484	2.456718	0.005000	1.608628	9.888692	0.255166	-0.749987	-0.644009	0.799991	0.019298	-0.008744	-0.003054
485	2.461718	0.005000	1.451880	9.888480	0.178646	-0.750316	-0.644557	0.800236	0.016204	-0.009168	-0.005629
486	2.466718	0.005000	1.506262	9.873338	0.108764	-0.750645	-0.645106	0.800481	0.012716	-0.010669	0.003485
487	2.471718	0.005000	1.543557	9.849240	0.248285	-0.750974	-0.645654	0.800726	0.022514	-0.004664	-0.004501
488	2.476718	0.005000	1.501909	9.888480	0.174621	-0.751303	-0.646202	0.800970	0.014068	-0.012085	0.000489
489	2.481718	0.005000	1.530360	9.879634	0.205046	-0.751632	-0.646750	0.801215	0.016060	-0.008857	-0.001672
490	2.486718	0.005000	1.543879	9.901341	0.124150	-0.751961	-0.647299	0.801460	0.012529	-0.014636	-0.008577
491	2.491718	0.005000	1.465338	9.879508	0.152474	-0.752239	-0.647658	0.801571	0.018981	-0.015577	-0.002603
492	2.496718	0.005000	1.530360	9.774923	0.156960	-0.752239	-0.647000	0.800959	0.014222	-0.010615	-0.001775
493	2.501718	0.005000	1.491120	9.849102	0.235302	-0.752239	-0.646342	0.800346	0.000321	-0.015331	0.006109
494	2.506718	0.005000	1.491120	9.772999	0.196200	-0.752239	-0.645683	0.799733	0.001501	-0.006758	0.000938
495	2.511718	0.005000	1.561179	9.853450	0.191990	-0.752239	-0.645025	0.799121	-0.000276	-0.018341	-0.004015
496	2.516718	0.005000	1.504373	9.881853	0.150333	-0.752239	-0.644367	0.798508	0.006487	-0.016230	-0.001749
497	2.521718	0.005000	1.508261	9.975530	0.187630	-0.752239	-0.643709	0.797896	0.003012	-0.007699	-0.004003
498	2.526718	0.005000	1.513075	9.888480	0.145983	-0.752239	-0.643050	0.797283	0.015397	-0.017146	-0.003953
499	2.531718	0.005000	1.491120	9.875558	0.222518	-0.752239	-0.642392	0.796671	0.001445	-0.009252	-0.004230
500	2.536718	0.005000	1.491120	9.857810	0.196200	-0.752239	-0.641734	0.796058	0.014214	-0.016680	-0.000240
501	2.541718	0.005000	1.503715	9.849240	0.235440	-0.752239	-0.641076	0.795445	0.008486	-0.014279	0.002968
502	2.546718	0.005000	1.549911	9.810000	0.215889	-0.752239	-0.640418	0.794833	0.016276	-0.008787	0.002024
503	2.551718	0.005000	1.530360	9.792393	0.235440	-0.752239	-0.639759	0.794220	0.011625	-0.017069	-0.003899
504	2.556718	0.005000	1.602489	9.825197	0.220243	-0.752239	-0.639101	0.793608	0.001110	-0.008202	-0.009585
505	2.561718	0.005000	1.530360	9.914620	0.156899	-0.753207	-0.639230	0.794549	0.016544	-0.016086	-0.005803
506	2.566718	0.005000	1.580440	9.860080	0.100159	-0.754962	-0.639998	0.796754	0.008078	-0.010247	-0.005519
507	2.571718	0.005000	1.521556	9.858044	0.213808	-0.756718	-0.640766	0.798960	0.012275	-0.008602	-0.002080
508	2.576718	0.005000	1.569600	9.842748	0.182926	-0.758473	-0.641534	0.801165	0.013284	-0.007964	0.006244
509	2.581718	0.005000	1.530360	9.805507	0.274680	-0.760228	-0.642301	0.803370	0.013059	-0.003906	-0.004777
510	2.586718	0.005000	1.493263	9.810000	0.159103	-0.761984	-0.643069	0.805575	0.018398	-0.010349	-0.002299
511	2.591718	0.005000	1.491317	9.849240	0.235440	-0.763739	-0.643837	0.807780	0.007809	-0.006981	-0.003360
512	2.596718	0.005000	1.604402	9.886261	0.161398	-0.765494	-0.644605	0.809985	0.018090	-0.010878	0.009093
513	2.601718	0.005000	1.648080	9.879343	0.156960	-0.767249	-0.645373	0.812190	0.011700	-0.004276	0.005781
514	2.606718	0.005000	1.569600	9.888480	0.085048	-0.769005	-0.646141	0.814395	0.016519	-0.007306	0.000570
515	2.611718	0.005000	1.539344	9.818984	0.030256	-0.770760	-0.646909	0.816600	0.011726	-0.013214	0.003958
516	2.616718	0.005000	1.480193	9.820927	0.095866	-0.772515	-0.647677	0.818805	0.009302	-0.007698	-0.001885
517	2.621718	0.005000	1.543695	9.835905	0.222105	-0.774270	-0.648445	0.821011	0.018756	-0.008750	0.003360
518	2.626718	0.005000	1.499228	9.872914	0.062264	-0.776026	-0.649213	0.823216	0.014499	-0.002030	-0.002276
519	2.631718	0.005000	1.483407	9.849240	0.043097	-0.774769	-0.648423	0.822405	0.025502	-0.004746	-0.007330
520	2.636718	0.005000	1.432018	9.888480	0.117720	-0.773342	-0.647545	0.821425	0.015130	-0.010462	0.007558
521	2.641718	0.005000	1.508322	9.888480	0.191364	-0.771916	-0.646668	0.820445	0.015755	-0.006007	0.001358
522	2.646718	0.005000	1.560524	9.888480	0.181118	-0.770490	-0.645790	0.819465	0.013887	-0.010259	0.004239
523	2.651718	0.005000	1.582445	9.874930	0.144115	-0.769064	-0.644912	0.818485	0.006387	-0.005292	0.005542
524	2.656718	0.005000	1.580371	9.810000	0.167731	-0.767638	-0.644034	0.817505	0.010928	-0.008518	0.006380
525	2.661718	0.005000	1.583358	9.801506	0.134708	-0.766211	-0.643157	0.816525	0.010797	-0.013542	0.007523
526	2.666718	0.005000	1.457958	9.810000	0.229362	-0.764785	-0.642279	0.815545	0.009261	-0.013090	-0.006698
527	2.671718	0.005000	1.495254	9.845106	0.183799	-0.763359	-0.641401	0.814565	0.005759	-0.007941	0.000172
528	2.676718	0.005000	1.567871	9.847511	0.274680	-0.761933	-0.640524	0.813585	-0.004900	-0.011656	-0.005645
529	2.681718	0.005000	1.608411	9.849026	0.118577	-0.760507	-0.639646	0.812605	-0.015833	-0.019619	-0.001658
530	2.686718	0.005000	1.608840	9.778566	0.122924	-0.759080	-0.638768	0.811625	-0.003476	-0.017795	-0.000389
531	2.691718	0.005000	1.534936	9.805424	0.196200	-0.757654	-0.637890	0.810645	0.005852	-0.014050	0.000347
532	2.696718	0.005000	1.555637	9.913757	0.242421	-0.756603	-0.637426	0.809623	0.013480	-0.016119	0.004421
533	2.701718	0.005000	1.551024	9.918432	0.097056	-0.756275	-0.637755	0.808521	0.005925	-0.011944	0.004538
534	2.706718	0.005000	1.608840	9.927720	0.212781	-0.755946	-0.638084	0.807419	0.015643	-0.018337	-0.000489
535	2.711718	0.005000	1.620912	9.862824	0.300336	-0.755617	-0.638413	0.806317	0.006786	-0.010445	-0.009617
536	2.716718	0.005000	1.624527	9.864927	0.274680	-0.755288	-0.638742	0.805215	0.001459	-0.011243	0.007436
537	2.721718	0.005000	1.566121	9.870600	0.214080	-0.754959	-0.639071	0.804113	-0.014616	-0.018120	0.002567
538	2.726718	0.005000	1.491120	9.829199	0.236282	-0.754630	-0.639400	0.803011	-0.004780	-0.013068	-0.000906
539	2.731718	0.005000	1.418303	9.944509	0.235440	-0.754301	-0.639729	0.801909	0.004710	-0.016380	-0.002588
540	2.736718	0.005000	1.501013	9.903153	0.220767	-0.753972	-0.640058	0.800806	0.004788	-0.020869	-0.003099
541	2.741718	0.005000	1.530360	9.940152	0.221064	-0.753643	-0.640387	0.799704	-0.001943	-0.017958	-0.002075
542	2.746718	0.005000	1.511844	9.906996	0.324282	-0.753314	-0.640716	0.798602	0.001471	-0.013855	-0.006554
543	2.751718	0.005000	1.577681	9.919639	0.361241	-0.752985	-0.641045	0.797500	0.002466	-0.019542	-0.006286
544	2.756718	0.005000	1.563534	9.810000	0.301788	-0.752656	-0.641374	0.796398	0.014997	-0.013858	-0.002340
545	2.761718	0.005000	1.644360	9.781921	0.203641	-0.752327	-0.641703	0.795296	0.011527	-0.019359	0.000580
546	2.766718	0.005000	1.569600	9.772515	0.274680	-0.752239	-0.641711	0.795448	0.018952	-0.020296	0.006097
547	2.771718	0.005000	1.608212	9.848612	0.274680	-0.752239	-0.641601	0.796060	0.003847	-0.010468	-0.007859
548	2.776718	0.005000	1.608840	9.960939	0.386379	-0.752239	-0.641491	0.796673	0.006551	-0.011741	-0.009001
549	2.781718	0.005000	1.569600	9.922744	0.166912	-0.752239	-0.641382	0.797285	0.010433	-0.004484	0.003665
550	2.786718	0.005000	1.458800	9.906959	0.203120	-0.752239	-0.641272	0.797898	0.008737	-0.003736	0.002233
551	2.791718	0.005000	1.461216	9.888480	0.244776	-0.752239	-0.641162	0.798510	0.010700	-0.010348	-0.001418
552	2.796718	0.005000	1.597561	9.955681	0.235440	-0.752239	-0.641053	0.799123	0.010113	-0.006613	-0.000577
553	2.801718	0.005000	1.569600	9.888480	0.247305	-0.752239	-0.640943	0.799735	0.010904	-0.011930	0.000374
554	2.806718	0.005000	1.546274	9.951046	0.219526	-0.752239	-0.640833	0.800348	0.003278	-0.003102	0.000886
555	2.811718	0.005000	1.630036	9.906524	0.214244	-0.752239	-0.640724	0.800960	0.008492	-0.011757	0.003571
556	2.816718	0.005000	1.629050	9.848060	0.296070	-0.752239	-0.640614	0.801573	0.001222	-0.012455	0.004785
557	2.821718	0.005000	1.547201	9.866081	0.291521	-0.752239	-0.640504	0.802186	0.001956	-0.003963	0.002978
558	2.826718	0.005000	1.569600	9.795281	0.191284	-0.752239	-0.640395	0.802798	0.010637	-0.013134	0.006843
559	2.831718	0.005000	1.598127	9.810000	0.181936	-0.752225	-0.640271	0.803364	0.008320	-0.008604	-0.004929
560	2.836718	0.005000	1.569600	9.752609	0.128265	-0.752115	-0.640052	0.803609	0.010079	-0.011640	-0.001866
561	2.841718	0.005000	1.476269	9.818130	0.227310	-0.752006	-0.639832	0.803854	0.012789	-0.002349	0.002033
562	2.846718	0.005000	1.635827	9.843113	0.262427	-0.751896	-0.639613	0.804099	0.008490	-0.018757	-0.006215
563	2.851718	0.005000	1.534142	9.806218	0.125283	-0.751786	-0.639393	0.804344	0.015160	-0.017078	0.001726
564	2.856718	0.005000	1.492935	9.851055	0.196200	-0.751676	-0.639174	0.804589	0.003694	-0.011744	-0.006007
565	2.861718	0.005000	1.569034	9.849806	0.157526	-0.751567	-0.638954	0.804834	0.007253	-0.020866	-0.000261
566	2.866718	0.005000	1.567089	9.885969	0.313920	-0.751457	-0.638735	0.805079	-0.001970	-0.014419	-0.005799
567	2.871718	0.005000	1.579456	9.878624	0.245296	-0.751347	-0.638515	0.805325	-0.006730	-0.017871	-0.004130
568	2.876718	0.005000	1.555108	9.810000	0.228194	-0.751237	-0.638296	0.805570	0.012221	-0.004811	0.003968
569	2.881718	0.005000	1.569600	9.810000	0.196200	-0.751128	-0.638076	0.805815	0.007687	-0.017787	0.001977
570	2.886718	0.005000	1.546486	9.849240	0.235440	-0.751018	-0.637857	0.806060	0.012362	-0.014459	0.011068
571	2.891718	0.005000	1.581568	9.953324	0.261044	-0.750908	-0.637637	0.806305	0.005154	-0.013276	0.004569
572	2.896718	0.005000	1.553747	9.865093	0.156960	-0.750798	-0.637418	0.806550	0.010611	-0.016428	0.007844
573	2.901718	0.005000	1.370139	9.970221	0.192939	-0.750746	-0.637313	0.806475	0.007205	-0.012497	0.009703
574	2.906718	0.005000	1.451880	9.928809	0.155871	-0.750746	-0.637313	0.806108	0.009859	-0.018869	0.008298
575	2.911718	0.005000	1.468782	9.883045	0.230005	-0.750746	-0.637313	0.805740	0.011659	-0.012414	0.003844
576	2.916718	0.005000	1.437101	9.824779	0.343479	-0.750746	-0.637313	0.805373	0.003495	-0.005301	-0.000882
577	2.921718	0.005000	1.412640	9.847648	0.340611	-0.750746	-0.637313	0.805005	0.010343	-0.014831	0.001079
578	2.926718	0.005000	1.422775	9.947991	0.244274	-0.750746	-0.637313	0.804638	0.007662	-0.008618	-0.001714
579	2.931718	0.005000	1.507502	9.958769	0.251822	-0.750746	-0.637313	0.804270	0.006514	-0.005790	0.001215
580	2.936718	0.005000	1.524575	9.955390	0.268895	-0.750746	-0.637313	0.803903	0.004001	-0.010382	0.003702
581	2.941718	0.005000	1.534201	9.853081	0.349319	-0.750746	-0.637313	0.803535	0.012919	-0.006602	0.004211
582	2.946718	0.005000	1.569600	9.927720	0.313920	-0.750746	-0.637313	0.803168	0.020671	-0.007493	-0.000547
583	2.951718	0.005000	1.492161	9.889000	0.197761	-0.750746	-0.637313	0.802800	0.028972	-0.002002	-0.003159
584	2.956718	0.005000	1.527436	9.849240	0.193276	-0.750746	-0.637313	0.802433	0.022564	-0.011332	0.001963
585	2.961718	0.005000	1.599103	9.819737	0.264943	-0.750746	-0.637313	0.802065	0.014298	-0.000363	0.003146
586	2.966718	0.005000	1.537645	9.863810	0.345875	-0.750746	-0.637313	0.801698	0.017526	-0.005733	0.001575
587	2.971718	0.005000	1.539588	9.810000	0.362388	-0.750645	-0.637414	0.801892	0.011422	-0.009521	-0.001803
588	2.976718	0.005000	1.514391	9.916084	0.297951	-0.750536	-0.637523	0.802136	0.011597	-0.002941	-0.008793
589	2.981718	0.005000	1.465460	9.914140	0.313920	-0.750426	-0.637633	0.802381	0.035577	-0.004772	0.002559
590	2.986718	0.005000	1.498392	9.934992	0.249985	-0.750317	-0.637743	0.802626	0.035745	0.004763	-0.003952
591	2.991718	0.005000	1.572474	9.927720	0.334977	-0.750207	-0.637852	0.802871	0.032777	0.000543	-0.000893
592	2.996718	0.005000	1.588501	9.849240	0.373499	-0.750097	-0.637962	0.803116	0.025547	0.004619	0.002101
593	3.001718	0.005000	1.648080	9.849240	0.313920	-0.749988	-0.638072	0.803361	0.030217	0.002706	-0.000811
594	3.006718	0.005000	1.584145	9.888480	0.235440	-0.749878	-0.638181	0.803606	0.032489	0.000176	0.000999
595	3.011718	0.005000	1.542496	9.861376	0.274680	-0.749769	-0.638291	0.803851	0.019090	-0.001375	-0.003801
596	3.016718	0.005000	1.492650	9.839047	0.215055	-0.749659	-0.638401	0.804095	0.031836	-0.003120	0.000222
597	3.021718	0.005000	1.703227	9.849240	0.219885	-0.749549	-0.638511	0.804340	0.029843	0.000154	0.000493
598	3.026718	0.005000	1.636553	9.927720	0.084243	-0.749440	-0.638620	0.804585	0.024873	-0.004512	-0.004875
599	3.031718	0.005000	1.598556	9.927720	0.114292	-0.749330	-0.638730	0.804830	0.018384	-0.009223	0.010029
600	3.036718	0.005000	1.569600	9.849240	0.081449	-0.749355	-0.638873	0.804888	0.015871	-0.002509	0.003431
601	3.041718	0.005000	1.569600	9.810923	0.195277	-0.749684	-0.639092	0.804520	0.023921	-0.015465	0.007837
602	3.046718	0.005000	1.533237	9.958328	0.165592	-0.750013	-0.639312	0.804153	0.021503	-0.009397	-0.001148
603	3.051718	0.005000	1.491120	9.951114	0.167524	-0.750342	-0.639531	0.803785	0.021003	-0.009337	0.005144
604	3.056718	0.005000	1.562006	9.888480	0.227846	-0.750670	-0.639750	0.803418	0.032816	-0.003079	0.001954
605	3.061718	0.005000	1.559970	9.858870	0.255420	-0.750999	-0.639970	0.803051	0.022092	-0.005906	-0.000987
606	3.066718	0.005000	1.530360	9.876575	0.298490	-0.751328	-0.640189	0.802683	0.027021	-0.015207	0.006889
607	3.071718	0.005000	1.594852	9.849240	0.145696	-0.751657	-0.640408	0.802316	0.013718	-0.011449	0.001172
608	3.076718	0.005000	1.546561	9.833039	0.156960	-0.751986	-0.640628	0.801949	0.031143	-0.003848	0.000392
609	3.081718	0.005000	1.590498	9.927720	0.256338	-0.752315	-0.640847	0.801581	0.015148	-0.012675	0.001161
610	3.086718	0.005000	1.530360	9.830513	0.295193	-0.752644	-0.641066	0.801214	0.011410	-0.018690	0.004690
611	3.091718	0.005000	1.524208	9.816152	0.218896	-0.752973	-0.641286	0.800847	0.012238	-0.018243	0.001364
612	3.096718	0.005000	1.491120	9.784891	0.224463	-0.753302	-0.641505	0.800479	0.014260	-0.009868	-0.002443
613	3.101718	0.005000	1.478933	9.885801	0.196200	-0.753631	-0.641724	0.800112	0.015867	-0.018572	0.000835
614	3.106718	0.005000	1.481218	9.878701	0.156960	-0.753655	-0.642096	0.800000	0.022722	-0.005167	0.007537
615	3.111718	0.005000	1.561764	9.880644	0.125556	-0.753545	-0.642535	0.800000	0.020822	-0.012508	-0.004536
616	3.116718	0.005000	1.530360	9.854660	0.196200	-0.753435	-0.642974	0.800000	0.017829	-0.010586	0.006999
617	3.121718	0.005000	1.533809	9.820347	0.128067	-0.753326	-0.643413	0.800000	0.013202	-0.013991	0.004306
618	3.126718	0.005000	1.488977	9.888480	0.272537	-0.753216	-0.643851	0.800000	0.016294	-0.006424	-0.010308
619	3.131718	0.005000	1.412640	9.850556	0.158276	-0.753106	-0.644290	0.800000	0.007477	-0.012431	-0.004982
620	3.136718	0.005000	1.559771	9.774036	0.160236	-0.752997	-0.644729	0.800000	0.012346	-0.012434	0.004539
621	3.141718	0.005000	1.608840	9.837985	0.280307	-0.752887	-0.645168	0.800000	0.013007	-0.006652	0.002551
622	3.146718	0.005000	1.537997	9.856877	0.235440	-0.752777	-0.645607	0.800000	0.013190	-0.011254	-0.001996
623	3.151718	0.005000	1.520437	9.849240	0.196200	-0.752668	-0.646045	0.800000	0.017962	-0.011926	0.002971
624	3.156718	0.005000	1.557612	9.770760	0.262692	-0.752558	-0.646484	0.800000	0.015341	-0.007894	-0.002483
625	3.161718	0.005000	1.491120	9.874079	0.156960	-0.752448	-0.646923	0.800000	0.011553	-0.008309	0.007907
626	3.166718	0.005000	1.497141	9.843219	0.229419	-0.752339	-0.647362	0.800000	0.009366	-0.006266	-0.007496
627	3.171718	0.005000	1.453610	9.869725	0.233710	-0.752239	-0.647731	0.800033	0.018348	-0.004727	-0.004519
628	3.176718	0.005000	1.566998	9.888480	0.172677	-0.752239	-0.647402	0.800401	0.015057	0.002263	0.005264
629	3.181718	0.005000	1.458859	9.826131	0.235440	-0.752239	-0.647073	0.800768	0.005585	-0.007376	-0.010575
630	3.186718	0.005000	1.555577	9.863263	0.221417	-0.752239	-0.646744	0.801135	0.013691	-0.009748	-0.001527
631	3.191718	0.005000	1.530360	9.849240	0.235440	-0.752239	-0.646415	0.801503	0.006979	-0.005483	0.000680
632	3.196718	0.005000	1.589054	9.878753	0.225713	-0.752239	-0.646087	0.801870	0.010600	-0.011451	0.000802
633	3.201718	0.005000	1.569600	9.873629	0.252404	-0.752239	-0.645758	0.802237	0.011556	-0.005064	-0.005704
634	3.206718	0.005000	1.554541	9.883460	0.225400	-0.752239	-0.645429	0.802605	0.008350	-0.009863	0.002298
635	3.211718	0.005000	1.494196	9.849240	0.193124	-0.752239	-0.645100	0.802972	0.016155	-0.010889	0.006692
636	3.216718	0.005000	1.451880	9.849240	0.155643	-0.752239	-0.644771	0.803339	0.007768	-0.007528	0.004292
637	3.221718	0.005000	1.451880	9.887194	0.154389	-0.752239	-0.644442	0.803707	0.012667	-0.012459	0.003922
638	3.226718	0.005000	1.523069	9.924074	0.074834	-0.752239	-0.644113	0.804074	0.004077	-0.005454	0.002453
639	3.231718	0.005000	1.446246	9.961326	0.162395	-0.752239	-0.643784	0.804442	0.012389	-0.018845	-0.001155
640	3.236718	0.005000	1.389314	9.927720	0.212114	-0.752239	-0.643455	0.804809	0.010218	-0.010933	-0.004998
641	3.241718	0.005000	1.461139	9.888480	0.303926	-0.752292	-0.643231	0.804824	0.009802	-0.007875	0.002618
642	3.246718	0.005000	1.476386	9.876227	0.286933	-0.752401	-0.643122	0.804456	0.009998	-0.021528	0.006028
643	3.251718	0.005000	1.555254	9.838691	0.274680	-0.752511	-0.643012	0.804089	-0.001077	-0.015631	-0.002962
644	3.256718	0.005000	1.524231	9.832684	0.258124	-0.752621	-0.642902	0.803721	0.009148	-0.016928	0.001965
645	3.261718	0.005000	1.532213	9.851093	0.173801	-0.752730	-0.642792	0.803354	0.006232	-0.013491	0.001670
646	3.266718	0.005000	1.454849	9.870345	0.099585	-0.752840	-0.642683	0.802986	0.003584	-0.015352	-0.002547
647	3.271718	0.005000	1.553408	9.881624	0.055432	-0.752950	-0.642573	0.802619	0.015501	-0.010843	0.007985
648	3.276718	0.005000	1.530360	9.925623	0.131499	-0.753059	-0.642463	0.802251	0.012847	-0.007210	0.000488
649	3.281718	0.005000	1.463715	9.888480	0.184365	-0.753169	-0.642353	0.801884	0.007382	-0.006508	0.007592
650	3.286718	0.005000	1.472265	9.858667	0.166387	-0.753279	-0.642244	0.801516	0.004221	-0.007706	0.001597
651	3.291718	0.005000	1.491120	9.778244	0.227956	-0.753388	-0.642134	0.801148	0.012461	-0.005923	-0.005553
652	3.296718	0.005000	1.462015	9.731520	0.201268	-0.753498	-0.642024	0.800781	0.005106	-0.001708	0.002155
653	3.301718	0.005000	1.615012	9.810000	0.247784	-0.753608	-0.641914	0.800413	0.010510	-0.002087	0.008830
654	3.306718	0.005000	1.529641	9.929878	0.157679	-0.753717	-0.641805	0.800046	0.009204	-0.011789	0.003023
655	3.311718	0.005000	1.491120	9.932757	0.233761	-0.755651	-0.642559	0.801286	0.000771	-0.004075	0.004864
656	3.316718	0.005000	1.565958	9.927720	0.239082	-0.757845	-0.643437	0.802756	0.024879	-0.007902	-0.005667
657	3.321718	0.005000	1.503071	9.849240	0.129671	-0.760039	-0.644314	0.804227	0.021962	-0.003575	0.001004
658	3.326718	0.005000	1.459872	9.880488	0.086472	-0.762233	-0.645192	0.805697	0.013067	-0.010352	-0.009899
659	3.331718	0.005000	1.470329	9.935773	0.107324	-0.764428	-0.646070	0.807167	0.014950	-0.013787	0.004083
660	3.336718	0.005000	1.530360	9.900820	0.076260	-0.766622	-0.646947	0.808637	0.004024	-0.014913	0.003392
661	3.341718	0.005000	1.554847	9.839507	0.156960	-0.768816	-0.647825	0.810107	0.003626	-0.012520	-0.001648
662	3.346718	0.005000	1.598190	9.950002	0.117720	-0.771010	-0.648702	0.811577	-0.000866	-0.009112	-0.011269
663	3.351718	0.005000	1.529334	9.946827	0.235440	-0.773204	-0.649580	0.813047	0.006996	-0.017670	-0.003683
664	3.356718	0.005000	1.509091	9.909749	0.253411	-0.775399	-0.650458	0.814517	-0.000483	-0.011723	0.008714
665	3.361718	0.005000	1.553821	9.888480	0.259315	-0.777593	-0.651335	0.815987	0.005237	-0.010454	0.002225
666	3.366718	0.005000	1.555925	9.862915	0.302030	-0.779787	-0.652213	0.817457	0.012022	-0.015577	0.004290
667	3.371718	0.005000	1.486144	9.860661	0.207621	-0.781981	-0.653091	0.818927	0.013596	-0.000813	-0.001396
668	3.376718	0.005000	1.550873	9.897844	0.216713	-0.782989	-0.653434	0.819669	0.008196	-0.014624	-0.003679
669	3.381718	0.005000	1.516219	9.920649	0.189129	-0.780796	-0.652338	0.818444	0.009587	-0.013156	-0.006257
670	3.386718	0.005000	1.456534	9.858549	0.009309	-0.778603	-0.651241	0.817220	0.007912	-0.015093	-0.002591
671	3.391718	0.005000	1.561470	9.851950	0.117720	-0.776409	-0.650145	0.815995	0.004665	-0.012423	0.009229
672	3.396718	0.005000	1.491426	9.810000	0.039852	-0.774216	-0.649048	0.814771	-0.001051	-0.012565	-0.003720
673	3.401718	0.005000	1.567962	9.847602	0.155322	-0.772023	-0.647952	0.813546	0.009196	-0.015165	0.006617
674	3.406718	0.005000	1.499107	9.994219	0.160954	-0.769830	-0.646855	0.812322	0.012387	-0.010037	0.005998
675	3.411718	0.005000	1.596867	9.906439	0.156960	-0.767637	-0.645759	0.811097	0.012160	-0.016227	-0.004591
676	3.416718	0.005000	1.516035	9.857545	0.126025	-0.765443	-0.644662	0.809873	0.006892	-0.018253	-0.000460
677	3.421718	0.005000	1.530360	9.888480	0.264334	-0.763250	-0.643565	0.808648	0.011694	-0.010751	-0.004802
678	3.426718	0.005000	1.544093	9.796267	0.248193	-0.761057	-0.642469	0.807423	0.012084	-0.013764	0.011931
679	3.431718	0.005000	1.505818	9.863938	0.274680	-0.758864	-0.641372	0.806199	0.017491	-0.007398	-0.000037
680	3.436718	0.005000	1.586710	9.866350	0.201220	-0.756671	-0.640276	0.804974	0.012627	-0.011226	0.006518
681	3.441718	0.005000	1.549647	9.889146	0.215487	-0.754478	-0.639179	0.803750	0.008320	-0.013532	-0.002766
682	3.446718	0.005000	1.530360	9.909945	0.192510	-0.753659	-0.638878	0.803171	0.013561	0.001312	0.001872
683	3.451718	0.005000	1.506762	9.849240	0.211842	-0.753549	-0.638988	0.802927	0.014532	-0.004257	0.004850
684	3.456718	0.005000	1.569600	9.822396	0.169356	-0.753439	-0.639098	0.802682	0.010575	-0.005308	-0.001112
685	3.461718	0.005000	1.525156	9.849240	0.106375	-0.753330	-0.639207	0.802437	0.012367	-0.007684	0.007948
686	3.466718	0.005000	1.639005	9.927720	0.144946	-0.753220	-0.639317	0.802192	0.003456	-0.011438	-0.002331
687	3.471718	0.005000	1.601791	9.895529	0.156960	-0.753111	-0.639427	0.801947	0.013708	-0.015411	-0.001508
688	3.476718	0.005000	1.437733	9.844524	0.171107	-0.753001	-0.639536	0.801702	0.018325	-0.011797	0.010726
689	3.481718	0.005000	1.382644	9.886169	0.276991	-0.752891	-0.639646	0.801457	0.016739	-0.004670	-0.000209
690	3.486718	0.005000	1.491487	9.928087	0.353895	-0.752782	-0.639756	0.801212	0.021641	-0.011867	-0.003447
691	3.491718	0.005000	1.493147	9.892534	0.357214	-0.752672	-0.639866	0.800968	0.013439	0.005512	-0.002063
692	3.496718	0.005000	1.479137	9.806006	0.313920	-0.752563	-0.639975	0.800723	0.012153	-0.009036	0.004746
693	3.501718	0.005000	1.504761	9.882080	0.235440	-0.752453	-0.640085	0.800478	0.004307	-0.010675	0.002745
694	3.506718	0.005000	1.507808	9.896824	0.187856	-0.752343	-0.640195	0.800233	0.007485	-0.008505	0.001682
695	3.511718	0.005000	1.537323	9.899239	0.224681	-0.752266	-0.640310	0.800012	0.010423	-0.012910	-0.000393
696	3.516718	0.005000	1.583435	9.770760	0.182365	-0.752814	-0.640529	0.800257	0.013005	-0.009251	-0.004279
697	3.521718	0.005000	1.554489	9.794889	0.172071	-0.753363	-0.640748	0.800502	0.003707	-0.004696	-0.007534
698	3.526718	0.005000	1.552279	9.910399	0.178879	-0.753911	-0.640968	0.800747	0.005416	-0.000094	-0.004740
699	3.531718	0.005000	1.412640	9.868707	0.137493	-0.754460	-0.641187	0.800992	0.014138	-0.008260	-0.007863
700	3.536718	0.005000	1.491120	9.849240	0.192206	-0.755008	-0.641407	0.801237	0.018740	-0.008093	-0.005382
701	3.541718	0.005000	1.530360	9.864667	0.211627	-0.755557	-0.641626	0.801482	0.021063	0.002902	-0.002422
702	3.546718	0.005000	1.491120	9.823327	0.235440	-0.756105	-0.641846	0.801727	0.014433	-0.012300	-0.006195
703	3.551718	0.005000	1.569600	9.877411	0.235440	-0.756654	-0.642065	0.801972	0.014522	0.002149	0.004871
704	3.556718	0.005000	1.542553	9.858256	0.235440	-0.757202	-0.642284	0.802217	0.016691	-0.004334	0.005504
705	3.561718	0.005000	1.516923	9.810000	0.202919	-0.757751	-0.642504	0.802462	0.003705	-0.005976	0.001362
706	3.566718	0.005000	1.451880	9.849240	0.231138	-0.758299	-0.642723	0.802707	0.006715	-0.015231	0.007101
707	3.571718	0.005000	1.456539	9.849240	0.085469	-0.758848	-0.642943	0.802952	0.010856	-0.012238	0.007040
708	3.576718	0.005000	1.491166	9.849240	0.157006	-0.759396	-0.643162	0.803197	0.008796	-0.007182	-0.001624
709	3.581718	0.005000	1.571590	9.849240	0.160941	-0.759409	-0.643333	0.803170	0.018058	-0.012179	0.001145
710	3.586718	0.005000	1.486712	9.923312	0.078480	-0.758751	-0.643442	0.802802	0.011968	-0.009901	0.001346
711	3.591718	0.005000	1.516897	9.888480	0.189468	-0.758092	-0.643552	0.802435	0.026566	-0.008394	0.002138
712	3.596718	0.005000	1.539117	9.888480	0.204957	-0.757434	-0.643662	0.802067	0.014430	-0.007444	-0.000610
713	3.601718	0.005000	1.519188	9.888480	0.246612	-0.756776	-0.643771	0.801700	0.011467	-0.015456	-0.005026
714	3.606718	0.005000	1.478014	9.953854	0.300814	-0.756118	-0.643881	0.801332	0.009959	-0.014297	0.001821
715	3.611718	0.005000	1.593322	9.864758	0.282883	-0.755459	-0.643991	0.800965	0.015350	-0.007258	-0.000422
716	3.616718	0.005000	1.544262	9.810000	0.296206	-0.754801	-0.644100	0.800597	0.016832	-0.013503	0.003424
717	3.621718	0.005000	1.392767	9.828862	0.216073	-0.754143	-0.644210	0.800230	0.013398	-0.007900	0.002310
718	3.626718	0.005000	1.434665	9.966960	0.139745	-0.753485	-0.644320	0.799862	0.019053	-0.009503	0.002093
719	3.631718	0.005000	1.418440	9.912707	0.229640	-0.752827	-0.644429	0.799495	0.012363	-0.004370	0.002863
720	3.636718	0.005000	1.517760	9.927720	0.144360	-0.752168	-0.644539	0.799127	0.012969	-0.002912	-0.002278
721	3.641718	0.005000	1.491120	9.877824	0.235440	-0.751510	-0.644649	0.798760	0.027822	-0.012389	0.008696
722	3.646718	0.005000	1.608840	9.857489	0.204449	-0.750852	-0.644758	0.798392	0.013515	-0.012786	0.003346
723	3.651718	0.005000	1.542825	9.876015	0.210510	-0.750562	-0.644592	0.798539	0.015427	-0.014633	0.002894
724	3.656718	0.005000	1.561822	9.774649	0.184534	-0.750343	-0.644373	0.798784	0.004193	-0.006899	0.008398
725	3.661718	0.005000	1.491120	9.770760	0.162723	-0.750123	-0.644153	0.799028	0.010898	-0.007995	0.002360
726	3.666718	0.005000	1.374778	9.848321	0.197119	-0.749904	-0.643934	0.799273	0.019949	-0.004393	-0.000646
727	3.671718	0.005000	1.456687	9.888480	0.237844	-0.749685	-0.643715	0.799518	0.011530	-0.012866	-0.002062
728	3.676718	0.005000	1.491120	9.858855	0.156960	-0.749465	-0.643495	0.799763	0.014857	-0.012832	0.003360
729	3.681718	0.005000	1.466160	9.913440	0.067800	-0.749246	-0.643276	0.800008	0.014707	-0.016143	-0.002749
730	3.686718	0.005000	1.491120	9.858407	0.156960	-0.749027	-0.643057	0.800253	0.017672	-0.013455	0.000027
731	3.691718	0.005000	1.597404	9.877044	0.240371	-0.748807	-0.642837	0.800498	0.015679	-0.007458	0.003678
732	3.696718	0.005000	1.518158	9.901999	0.224554	-0.748588	-0.642618	0.800743	0.007946	-0.005970	0.005567
733	3.701718	0.005000	1.404895	9.872733	0.251187	-0.748369	-0.642399	0.800988	0.020464	-0.010879	-0.000741
734	3.706718	0.005000	1.494609	9.810000	0.217565	-0.748150	-0.642180	0.801233	0.019062	-0.006739	0.000270
735	3.711718	0.005000	1.489788	9.888480	0.175914	-0.747930	-0.641960	0.801478	0.019709	-0.011960	0.004759
736	3.716718	0.005000	1.552794	9.866046	0.291486	-0.747936	-0.641841	0.801611	0.010529	-0.009490	0.007639
737	3.721718	0.005000	1.544960	9.849240	0.284720	-0.748704	-0.642061	0.801366	0.019653	-0.008233	0.006005
738	3.726718	0.005000	1.544580	9.835020	0.131940	-0.749472	-0.642280	0.801121	0.019080	-0.015584	0.013938
739	3.731718	0.005000	1.550845	9.917477	0.138205	-0.750240	-0.642499	0.800876	0.018970	-0.005912	0.004009
740	3.736718	0.005000	1.601004	9.959124	0.219707	-0.751008	-0.642719	0.800631	0.021020	-0.002024	0.002619
741	3.741718	0.005000	1.569600	9.955171	0.268786	-0.751776	-0.642938	0.800386	0.020199	-0.003492	0.000520
742	3.746718	0.005000	1.569600	9.813489	0.267701	-0.752544	-0.643158	0.800141	0.017704	-0.009205	-0.003645
743	3.751718	0.005000	1.568054	9.927720	0.233894	-0.753312	-0.643377	0.799896	0.021037	-0.012485	-0.001360
744	3.756718	0.005000	1.530360	9.889342	0.157822	-0.754080	-0.643596	0.799651	0.009102	0.001629	-0.003868
745	3.761718	0.005000	1.603208	9.812816	0.193384	-0.754848	-0.643816	0.799405	0.011992	-0.009139	0.000452
746	3.766718	0.005000	1.653301	9.810000	0.185758	-0.755616	-0.644035	0.799160	0.016427	-0.008676	0.003021
747	3.771718	0.005000	1.608840	9.881315	0.221110	-0.756384	-0.644255	0.798915	0.011494	-0.009275	-0.000276
748	3.776718	0.005000	1.569600	9.780230	0.158321	-0.757152	-0.644474	0.798670	0.017757	-0.005110	0.001120
749	3.781718	0.005000	1.530360	9.849240	0.267824	-0.757920	-0.644693	0.798425	0.013404	-0.003516	0.003943
750	3.786718	0.005000	1.569600	9.863172	0.249372	-0.757867	-0.644502	0.798104	0.010996	-0.023566	0.010188
751	3.791718	0.005000	1.530360	9.841753	0.274680	-0.757319	-0.644064	0.797737	0.014473	-0.006449	0.003089
752	3.796718	0.005000	1.548649	9.791711	0.253729	-0.756770	-0.643625	0.797369	0.013559	-0.009232	0.000799
753	3.801718	0.005000	1.570824	9.830232	0.177192	-0.756222	-0.643187	0.797002	0.003536	-0.009033	0.005956
754	3.806718	0.005000	1.625436	9.826596	0.140364	-0.755674	-0.642748	0.796634	0.002957	-0.010601	-0.003427
755	3.811718	0.005000	1.701812	9.770760	0.063988	-0.755125	-0.642309	0.796267	0.014853	-0.005491	0.005412
756	3.816718	0.005000	1.557352	9.888480	0.117720	-0.754577	-0.641871	0.795900	0.010464	-0.011937	0.001853
757	3.821718	0.005000	1.540541	9.849240	0.146779	-0.754029	-0.641432	0.795532	0.018515	-0.010479	0.001810
758	3.826718	0.005000	1.522463	9.966960	0.141411	-0.753481	-0.640993	0.795165	0.007138	-0.009898	0.005973
759	3.831718	0.005000	1.581369	9.921836	0.135373	-0.752932	-0.640555	0.794798	0.009420	-0.011435	0.000210
760	3.836718	0.005000	1.526823	9.881407	0.306847	-0.752384	-0.640116	0.794430	0.006310	-0.016759	-0.000513
761	3.841718	0.005000	1.491120	9.808427	0.306054	-0.751836	-0.639678	0.794063	0.002656	-0.007594	-0.004097
762	3.846718	0.005000	1.452691	9.770760	0.271434	-0.751287	-0.639239	0.793696	0.010743	-0.015976	0.006109
763	3.851718	0.005000	1.484736	9.803616	0.081672	-0.750749	-0.638813	0.793341	0.006949	-0.007615	0.000345
764	3.856718	0.005000	1.598494	9.804827	0.117720	-0.750968	-0.639362	0.793953	0.007205	-0.010456	0.000177
765	3.861718	0.005000	1.594607	9.874247	0.274680	-0.751188	-0.639910	0.794566	0.005539	-0.012559	-0.004442
766	3.866718	0.005000	1.539883	9.888480	0.205723	-0.751407	-0.640459	0.795179	0.006466	-0.012288	-0.003940
767	3.871718	0.005000	1.507425	9.805162	0.152122	-0.751626	-0.641007	0.795791	0.007780	-0.009257	0.001609
768	3.876718	0.005000	1.555719	9.784641	0.106242	-0.751846	-0.641556	0.796404	0.004822	-0.011039	-0.005772
769	3.881718	0.005000	1.601231	9.872665	0.172775	-0.752065	-0.642104	0.797016	0.010041	-0.019412	-0.000007
770	3.886718	0.005000	1.467322	9.891265	0.177973	-0.752285	-0.642653	0.797629	0.010888	-0.010436	-0.001581
771	3.891718	0.005000	1.491120	9.928822	0.156960	-0.752504	-0.643201	0.798241	0.018060	-0.014741	-0.004515
772	3.896718	0.005000	1.530360	9.865897	0.140303	-0.752723	-0.643750	0.798854	0.012963	-0.009182	0.000841
773	3.901718	0.005000	1.565228	9.873943	0.249977	-0.752943	-0.644299	0.799467	0.010869	-0.015882	-0.002053
774	3.906718	0.005000	1.518055	9.861545	0.223135	-0.753162	-0.644847	0.800079	0.004513	-0.007508	0.012852
775	3.911718	0.005000	1.491120	9.879963	0.185959	-0.753382	-0.645396	0.800692	0.011352	-0.008083	-0.005271
776	3.916718	0.005000	1.507012	9.880534	0.235440	-0.753601	-0.645944	0.801304	0.001659	-0.018100	0.007747
777	3.921718	0.005000	1.491120	9.870690	0.156960	-0.753507	-0.646135	0.801567	0.006575	-0.013484	-0.005534
778	3.926718	0.005000	1.519571	9.817193	0.050029	-0.752959	-0.645806	0.801322	0.000975	-0.009300	-0.004915
779	3.931718	0.005000	1.417541	9.888480	0.122621	-0.752411	-0.645477	0.801077	0.004184	-0.015716	0.003130
780	3.936718	0.005000	1.530360	9.888480	0.273915	-0.751863	-0.645148	0.800832	0.011270	-0.013833	0.004440
781	3.941718	0.005000	1.606131	9.885771	0.162378	-0.751314	-0.644819	0.800587	0.011579	-0.020859	0.010433
782	3.946718	0.005000	1.486006	9.912379	0.225213	-0.750766	-0.644490	0.800342	-0.000120	-0.012060	-0.002619
783	3.951718	0.005000	1.468838	9.888480	0.218482	-0.750218	-0.644161	0.800097	0.000016	-0.010167	-0.004220
784	3.956718	0.005000	1.520898	9.879018	0.166422	-0.749670	-0.643832	0.799852	0.005642	-0.013583	0.007708
785	3.961718	0.005000	1.530360	9.810000	0.117720	-0.749121	-0.643503	0.799607	0.006854	-0.014304	-0.002968
786	3.966718	0.005000	1.451880	9.810000	0.300100	-0.748573	-0.643174	0.799362	0.013021	-0.023552	0.001602
787	3.971718	0.005000	1.546589	9.849240	0.212429	-0.748025	-0.642845	0.799118	0.015953	-0.004331	0.001855
788	3.976718	0.005000	1.608840	9.870307	0.138787	-0.747477	-0.642516	0.798873	0.012030	-0.011385	0.004598
789	3.981718	0.005000	1.608840	9.808072	0.216784	-0.746928	-0.642187	0.798628	0.008628	-0.011243	-0.001154
790	3.986718	0.005000	1.552888	9.865952	0.016712	-0.746380	-0.641858	0.798383	0.013935	-0.013382	-0.000802
791	3.991718	0.005000	1.512401	9.888480	0.181900	-0.746706	-0.642666	0.798821	0.003030	-0.010948	0.001049
792	3.996718	0.005000	1.397815	9.900688	0.286888	-0.747255	-0.643763	0.799434	0.010335	-0.008618	-0.008219
793	4.001718	0.005000	1.491120	9.878532	0.264732	-0.747803	-0.644860	0.800047	0.007280	-0.008942	0.002973
794	4.006718	0.005000	1.475297	9.786583	0.321832	-0.748352	-0.645957	0.800659	0.006777	-0.007544	0.000629
795	4.011718	0.005000	1.418228	9.854828	0.269092	-0.748900	-0.647054	0.801272	0.004417	-0.014032	0.000593
796	4.016718	0.005000	1.487935	9.963775	0.307551	-0.749449	-0.648151	0.801884	0.008075	-0.015379	-0.001380
797	4.021718	0.005000	1.567120	9.927720	0.198680	-0.749997	-0.649248	0.802497	0.014406	-0.012402	-0.003904
798	4.026718	0.005000	1.529210	9.889630	0.274680	-0.750546	-0.650345	0.803109	0.010671	-0.011368	0.007530
799	4.031718	0.005000	1.569600	9.924612	0.307704	-0.751094	-0.651442	0.803722	0.011734	-0.008605	-0.002765
800	4.036718	0.005000	1.597918	9.820922	0.386939	-0.751643	-0.652539	0.804335	0.012192	-0.011768	-0.000203
801	4.041718	0.005000	1.593903	9.912783	0.338223	-0.752191	-0.653636	0.804947	0.016458	-0.012312	0.000676
802	4.046718	0.005000	1.549874	9.888480	0.186443	-0.752740	-0.654733	0.805560	0.012793	-0.009586	-0.002290
803	4.051718	0.005000	1.545961	9.904081	0.184381	-0.753288	-0.655830	0.806172	0.012083	-0.014215	0.000305
804	4.056718	0.005000	1.555367	9.838466	0.381626	-0.754090	-0.656653	0.807186	0.023788	-0.000056	-0.003642
805	4.061718	0.005000	1.553423	9.708457	0.274680	-0.755955	-0.656324	0.809881	0.015695	-0.008165	0.004588
806	4.066718	0.005000	1.489053	9.826520	0.254027	-0.757820	-0.655995	0.812576	0.012221	-0.006664	-0.003599
807	4.071718	0.005000	1.569600	9.828709	0.312098	-0.759685	-0.655665	0.815271	0.022815	-0.013069	0.001408
808	4.076718	0.005000	1.608840	9.858897	0.281322	-0.761550	-0.655336	0.817966	0.016211	-0.014179	-0.004505
809	4.081718	0.005000	1.505475	9.927720	0.181845	-0.763415	-0.655007	0.820661	0.025938	-0.013579	0.002881
810	4.086718	0.005000	1.518418	9.876538	0.117720	-0.765280	-0.654678	0.823356	0.027054	-0.021040	0.003340
811	4.091718	0.005000	1.540369	9.878471	0.156164	-0.767145	-0.654349	0.826051	0.025575	-0.006612	0.008741
812	4.096718	0.005000	1.593652	9.880886	0.125314	-0.769010	-0.654020	0.828746	0.019840	-0.013392	0.013864
813	4.101718	0.005000	1.620004	9.927720	0.061568	-0.770875	-0.653691	0.831442	0.020211	-0.005902	0.007061
814	4.106718	0.005000	1.530360	9.891724	0.048973	-0.772740	-0.653362	0.834137	0.011990	-0.017031	0.002138
815	4.111718	0.005000	1.531646	9.888480	0.037954	-0.774605	-0.653033	0.836832	0.017597	-0.013332	0.006215
816	4.116718	0.005000	1.417109	9.888480	0.076246	-0.776470	-0.652704	0.839527	0.012203	-0.002381	0.007505
817	4.121718	0.005000	1.491120	9.731520	0.190078	-0.778335	-0.652375	0.842222	0.022774	-0.012466	-0.000501
818	4.126718	0.005000	1.524960	9.838439	0.078480	-0.778008	-0.651981	0.841749	0.027729	-0.007864	-0.002115
819	4.131718	0.005000	1.505940	9.817410	0.220620	-0.776143	-0.651542	0.839054	0.023566	-0.007902	0.005477
820	4.136718	0.005000	1.530360	9.859065	0.235440	-0.774278	-0.651103	0.836359	0.023333	-0.005413	0.008907
821	4.141718	0.005000	1.463649	9.806067	0.262911	-0.772413	-0.650665	0.833664	0.025478	-0.003119	0.005127
822	4.146718	0.005000	1.502006	9.784937	0.210377	-0.770548	-0.650226	0.830969	0.021573	-0.007636	0.013681
823	4.151718	0.005000	1.563156	9.832842	0.235440	-0.768683	-0.649787	0.828273	0.009396	-0.007052	-0.003644
824	4.156718	0.005000	1.551075	9.830715	0.156960	-0.766818	-0.649348	0.825578	0.011174	-0.013143	0.006254
825	4.161718	0.005000	1.509666	9.927720	0.196200	-0.764953	-0.648909	0.822883	0.009211	-0.001994	-0.004351
826	4.166718	0.005000	1.569600	9.810000	0.268160	-0.763088	-0.648471	0.820188	0.013744	-0.014017	-0.000530
827	4.171718	0.005000	1.530360	9.785010	0.231930	-0.761223	-0.648032	0.817493	0.012388	-0.011903	-0.001680
828	4.176718	0.005000	1.518357	9.810000	0.129723	-0.759358	-0.647593	0.814798	0.017232	-0.012438	0.002850
829	4.181718	0.005000	1.471757	9.869117	0.176837	-0.757493	-0.647154	0.812103	0.010978	-0.009674	0.007801
830	4.186718	0.005000	1.608840	9.944004	0.235440	-0.755628	-0.646715	0.809408	0.005656	-0.010013	-0.005415
831	4.191718	0.005000	1.637608	9.844004	0.122956	-0.753763	-0.646276	0.806713	0.010875	-0.012834	0.003747
832	4.196718	0.005000	1.605548	9.810000	0.147085	-0.753408	-0.646053	0.806426	0.006038	-0.019943	0.001373
833	4.201718	0.005000	1.530360	9.811775	0.197088	-0.753078	-0.645834	0.806181	0.009404	-0.012056	-0.004244
834	4.206718	0.005000	1.492176	9.850296	0.197256	-0.752749	-0.645615	0.805936	0.021964	-0.013134	0.005151
835	4.211718	0.005000	1.533834	9.920772	0.189252	-0.752420	-0.645395	0.805691	0.019136	-0.006002	-0.005106
836	4.216718	0.005000	1.603422	9.995365	0.066328	-0.752091	-0.645176	0.805446	0.023145	-0.009156	0.004351
837	4.221718	0.005000	1.608840	9.896210	0.109990	-0.751762	-0.644956	0.805201	0.016103	-0.001695	0.005275
838	4.226718	0.005000	1.500884	9.839476	0.137432	-0.751433	-0.644737	0.804956	0.023860	-0.008639	0.002749
839	4.231718	0.005000	1.581626	9.779625	0.168986	-0.751104	-0.644517	0.804711	0.017805	-0.016014	0.011294
840	4.236718	0.005000	1.544476	9.770760	0.131836	-0.750775	-0.644298	0.804466	0.010455	-0.006217	0.001941
841	4.241718	0.005000	1.592503	9.934285	0.212537	-0.750446	-0.644079	0.804221	0.017953	-0.011027	0.000575
842	4.246718	0.005000	1.606544	9.870008	0.156960	-0.750117	-0.643859	0.803975	0.015597	-0.004887	0.006213
843	4.251718	0.005000	1.532387	9.810000	0.196200	-0.749788	-0.643640	0.803730	0.020322	-0.005767	0.006788
844	4.256718	0.005000	1.458295	9.757930	0.111305	-0.749459	-0.643420	0.803485	0.000675	-0.001412	0.007117
845	4.261718	0.005000	1.491120	9.902775	0.210495	-0.749337	-0.643201	0.803240	0.000016	-0.009105	-0.009763
846	4.266718	0.005000	1.518300	9.849240	0.090540	-0.749556	-0.642982	0.802995	0.014177	-0.011061	0.009619
847	4.271718	0.005000	1.511118	9.937719	0.136962	-0.749776	-0.642762	0.802750	0.014373	-0.002368	0.004414
848	4.276718	0.005000	1.538061	9.856941	0.086181	-0.749995	-0.642543	0.802505	0.001593	-0.008852	0.001168
849	4.281718	0.005000	1.553714	9.883185	0.196200	-0.750215	-0.642323	0.802260	0.012551	-0.006247	-0.001603
850	4.286718	0.005000	1.494473	9.852593	0.153607	-0.750434	-0.642104	0.802015	0.012175	-0.010270	0.000220
851	4.291718	0.005000	1.569600	9.889429	0.120567	-0.750653	-0.641885	0.801770	0.007843	-0.013929	0.006685
852	4.296718	0.005000	1.569600	9.927720	0.158950	-0.750873	-0.641665	0.801525	0.014500	-0.013453	0.003302
853	4.301718	0.005000	1.530360	9.888480	0.117720	-0.751092	-0.641446	0.801280	0.011491	-0.017733	0.004230
854	4.306718	0.005000	1.603484	9.854596	0.196200	-0.751312	-0.641226	0.801035	0.017728	-0.016291	0.005192
855	4.311718	0.005000	1.608840	9.880811	0.235440	-0.751531	-0.641007	0.800790	0.018972	-0.011233	0.001522
856	4.316718	0.005000	1.461587	9.799880	0.255267	-0.751751	-0.640787	0.800545	-0.000693	-0.007944	0.007100
857	4.321718	0.005000	1.506398	9.864518	0.180922	-0.751970	-0.640568	0.800300	0.012120	-0.004428	-0.008093
858	4.326718	0.005000	1.541471	9.824065	0.196200	-0.752189	-0.640349	0.800055	0.003780	-0.019124	0.000980
859	4.331718	0.005000	1.546834	9.842948	0.134194	-0.752069	-0.640638	0.800095	0.001220	-0.010486	-0.014966
860	4.336718	0.005000	1.491120	9.807596	0.198604	-0.751850	-0.641077	0.800217	0.007319	-0.016571	-0.004000
861	4.341718	0.005000	1.567182	9.791589	0.293091	-0.751630	-0.641516	0.800340	-0.000802	-0.011881	0.006046
862	4.346718	0.005000	1.575905	9.803695	0.258213	-0.751411	-0.641955	0.800462	0.006810	-0.008967	-0.000152
863	4.351718	0.005000	1.544415	9.899611	0.210255	-0.751192	-0.642394	0.800585	0.011268	-0.016018	-0.001525
864	4.356718	0.005000	1.542326	9.861206	0.223474	-0.750972	-0.642833	0.800707	0.005925	-0.012317	-0.007787
865	4.361718	0.005000	1.569600	9.849240	0.127840	-0.750753	-0.643271	0.800830	0.018212	-0.012658	0.000221
866	4.366718	0.005000	1.601171	9.872248	0.101488	-0.750533	-0.643710	0.800953	0.012263	-0.002210	-0.003827
867	4.371718	0.005000	1.525004	9.877767	0.156960	-0.750314	-0.644149	0.801075	0.013185	-0.010560	-0.004551
868	4.376718	0.005000	1.487747	9.852613	0.150213	-0.750095	-0.644588	0.801198	0.001571	-0.006527	0.006313
869	4.381718	0.005000	1.491120	9.965965	0.274680	-0.749875	-0.645027	0.801320	0.004925	-0.008297	-0.001894
870	4.386718	0.005000	1.529411	9.927720	0.312971	-0.749656	-0.645465	0.801443	0.003160	-0.012133	0.002123
871	4.391718	0.005000	1.569600	9.924367	0.167019	-0.749436	-0.645904	0.801565	0.004036	-0.001017	0.001390
872	4.396718	0.005000	1.536063	9.888480	0.151257	-0.749235	-0.646176	0.801626	-0.003569	-0.009223	-0.002194
873	4.401718	0.005000	1.498833	9.920007	0.290780	-0.749126	-0.645628	0.801381	0.009190	-0.010858	-0.000330
874	4.406718	0.005000	1.549602	9.907722	0.372402	-0.749016	-0.645079	0.801136	0.016634	-0.013814	-0.001716
875	4.411718	0.005000	1.463944	9.876416	0.322938	-0.748906	-0.644531	0.800890	0.012842	-0.010398	0.007945
876	4.416718	0.005000	1.501739	9.824310	0.249750	-0.748797	-0.643982	0.800645	0.013680	-0.000270	0.000763
877	4.421718	0.005000	1.553179	9.832819	0.134141	-0.748687	-0.643434	0.800400	0.019891	-0.008162	-0.000341
878	4.426718	0.005000	1.513105	9.886903	0.178945	-0.748577	-0.642885	0.800155	0.014387	-0.011472	-0.006149
879	4.431718	0.005000	1.569600	9.867499	0.138701	-0.748467	-0.642337	0.799910	0.014282	-0.010416	-0.000068
880	4.436718	0.005000	1.608840	9.911660	0.251500	-0.748358	-0.641788	0.799665	0.019709	-0.005301	0.000971
881	4.441718	0.005000	1.606238	9.927720	0.235440	-0.748248	-0.641239	0.799420	0.016743	-0.011644	-0.000120
882	4.446718	0.005000	1.608840	9.837532	0.223732	-0.748138	-0.640691	0.799175	0.012998	-0.009484	0.002395
883	4.451718	0.005000	1.599189	9.810000	0.216138	-0.748028	-0.640142	0.798930	0.015179	-0.006480	-0.002328
884	4.456718	0.005000	1.554902	9.802651	0.181502	-0.747919	-0.639594	0.798685	0.010804	-0.014913	-0.003800
885	4.461718	0.005000	1.417980	9.838560	0.146280	-0.747809	-0.639045	0.798440	0.013744	-0.008524	-0.004220
886	4.466718	0.005000	1.602841	9.849240	0.165959	-0.747761	-0.638992	0.798333	0.021497	-0.017517	0.000520
887	4.471718	0.005000	1.570644	9.927720	0.195156	-0.747761	-0.639321	0.798333	0.015830	-0.014452	0.004179
888	4.476718	0.005000	1.533084	9.927720	0.156960	-0.747761	-0.639650	0.798333	0.010850	-0.009884	0.001551
889	4.481718	0.005000	1.530360	9.852961	0.199921	-0.747761	-0.639979	0.798333	0.010244	-0.013295	0.006521
890	4.486718	0.005000	1.496831	9.854951	0.184779	-0.747761	-0.640308	0.798333	0.008773	-0.009764	0.011743
891	4.491718	0.005000	1.491120	9.818033	0.125753	-0.747761	-0.640637	0.798333	0.007543	-0.014469	0.006222
892	4.496718	0.005000	1.530360	9.936784	0.088539	-0.747761	-0.640966	0.798333	0.010461	-0.013401	0.006191
893	4.501718	0.005000	1.461955	9.834657	0.183871	-0.747761	-0.641295	0.798333	0.012088	-0.010171	-0.002184
894	4.506718	0.005000	1.501527	9.834823	0.167367	-0.747761	-0.641624	0.798333	0.016340	-0.010385	0.003364
895	4.511718	0.005000	1.479139	9.894470	0.089114	-0.747761	-0.641953	0.798333	0.005105	-0.006982	-0.000860
896	4.516718	0.005000	1.412640	9.927720	0.158659	-0.747761	-0.642282	0.798333	0.013267	-0.016608	-0.003951
897	4.521718	0.005000	1.412640	9.927720	0.156960	-0.747761	-0.642611	0.798333	0.003892	-0.004803	-0.003828
898	4.526718	0.005000	1.530360	9.888480	0.173075	-0.747761	-0.642940	0.798333	0.012736	-0.012722	-0.004156
899	4.531718	0.005000	1.558703	9.810000	0.271405	-0.747761	-0.643269	0.798333	0.011580	-0.008274	0.000783
900	4.536718	0.005000	1.553876	9.813965	0.207958	-0.748075	-0.643075	0.798333	0.011275	-0.008468	-0.004036
901	4.541718	0.005000	1.589447	9.819697	0.137567	-0.748404	-0.642855	0.798333	0.007071	-0.017335	-0.003025
902	4.546718	0.005000	1.537767	9.856647	0.132534	-0.748733	-0.642636	0.798333	0.001111	-0.005720	0.002207
903	4.551718	0.005000	1.535760	9.849240	0.162360	-0.749062	-0.642417	0.798333	0.008193	-0.016016	-0.001350
904	4.556718	0.005000	1.461020	9.846193	0.196200	-0.749391	-0.642197	0.798333	0.009911	-0.013326	-0.000852
905	4.561718	0.005000	1.566333	9.771849	0.194022	-0.749720	-0.641978	0.798333	0.012918	-0.015055	-0.003450
906	4.566718	0.005000	1.527757	9.847939	0.155659	-0.750050	-0.641758	0.798333	0.014595	-0.016498	-0.001198
907	4.571718	0.005000	1.527116	9.855729	0.160204	-0.750379	-0.641539	0.798333	0.006333	-0.014692	-0.007499
908	4.576718	0.005000	1.536009	9.810000	0.067181	-0.750708	-0.641320	0.798333	0.003365	-0.015007	0.002980
909	4.581718	0.005000	1.632892	9.810000	0.156960	-0.751037	-0.641100	0.798333	0.003874	-0.006314	0.000046
910	4.586718	0.005000	1.569600	9.780769	0.146951	-0.751366	-0.640881	0.798333	0.008543	-0.011141	-0.008586
911	4.591718	0.005000	1.545695	9.876527	0.274680	-0.751695	-0.640661	0.798333	0.013395	-0.018962	0.001517
912	4.596718	0.005000	1.544721	9.853083	0.245958	-0.752025	-0.640442	0.798333	0.008833	-0.006109	0.002929
913	4.601718	0.005000	1.553295	9.770760	0.173265	-0.752354	-0.640146	0.798376	0.001135	-0.008102	0.001170
914	4.606718	0.005000	1.549077	9.811806	0.136437	-0.752683	-0.639707	0.798498	0.007777	-0.005876	0.002065
915	4.611718	0.005000	1.509699	9.867819	0.156960	-0.753012	-0.639268	0.798621	0.012265	-0.013181	0.004042
916	4.616718	0.005000	1.530360	9.849240	0.313920	-0.753341	-0.638829	0.798743	0.003194	-0.002501	0.001062
917	4.621718	0.005000	1.530360	9.874257	0.238869	-0.753670	-0.638391	0.798866	0.012642	-0.011049	-0.003140
918	4.626718	0.005000	1.545970	9.876665	0.290290	-0.753999	-0.637952	0.798988	0.006990	-0.019655	0.003008
919	4.631718	0.005000	1.530360	9.917845	0.225565	-0.754328	-0.637513	0.799111	0.006387	-0.008233	-0.005412
920	4.636718	0.005000	1.537828	9.888480	0.284046	-0.754657	-0.637074	0.799233	0.011800	-0.013107	-0.000884
921	4.641718	0.005000	1.564139	9.849240	0.112259	-0.754986	-0.636635	0.799356	0.020321	-0.006251	0.003441
922	4.646718	0.005000	1.605732	9.816216	0.087804	-0.755315	-0.636196	0.799478	0.012843	-0.014875	0.003238
923	4.651718	0.005000	1.569600	9.850648	0.234032	-0.755644	-0.635757	0.799601	0.013727	-0.014187	0.001608
924	4.656718	0.005000	1.493600	10.003720	0.156960	-0.755974	-0.635318	0.799724	0.012902	-0.015166	-0.004065
925	4.661718	0.005000	1.526745	9.931335	0.231825	-0.756303	-0.634879	0.799846	0.015667	-0.005002	0.003835
926	4.666718	0.005000	1.435045	9.860443	0.190599	-0.756632	-0.634440	0.799969	0.011463	-0.005273	0.003020
927	4.671718	0.005000	1.499032	9.919808	0.258857	-0.756390	-0.634654	0.800273	0.011370	-0.007833	-0.004071
928	4.676718	0.005000	1.451880	9.849240	0.264728	-0.755951	-0.635093	0.800641	0.019114	-0.002718	-0.000827
929	4.681718	0.005000	1.503343	9.837017	0.129943	-0.755512	-0.635532	0.801008	0.018768	-0.012499	0.002876
930	4.686718	0.005000	1.569600	9.927720	0.078480	-0.755073	-0.635971	0.801376	0.015776	-0.021468	0.006555
931	4.691718	0.005000	1.597924	9.888480	0.280483	-0.754634	-0.636410	0.801743	0.014915	-0.004753	-0.004798
932	4.696718	0.005000	1.568178	9.907389	0.196200	-0.754196	-0.636849	0.802111	0.020329	-0.009298	-0.004107
933	4.701718	0.005000	1.551427	9.933507	0.138787	-0.753757	-0.637288	0.802478	0.004132	-0.007806	0.008526
934	4.706718	0.005000	1.435845	9.865275	0.156960	-0.753318	-0.637727	0.802846	0.013010	-0.008858	0.003837
935	4.711718	0.005000	1.451880	9.927720	0.221620	-0.752879	-0.638166	0.803213	0.016107	-0.009553	0.001960
936	4.716718	0.005000	1.506883	9.880765	0.219677	-0.752440	-0.638604	0.803581	0.018403	-0.009218	0.004773
937	4.721718	0.005000	1.511437	9.879018	0.244902	-0.752001	-0.639043	0.803949	0.020344	-0.013864	0.005692
938	4.726718	0.005000	1.451880	9.856667	0.321347	-0.751563	-0.639482	0.804316	0.018681	-0.005770	0.002732
939	4.731718	0.005000	1.535472	9.854352	0.269568	-0.751124	-0.639921	0.804684	0.014873	-0.013530	0.004157
940	4.736718	0.005000	1.602577	9.849240	0.160091	-0.750700	-0.640299	0.804932	0.005359	-0.012715	0.001483
941	4.741718	0.005000	1.530360	9.809250	0.234690	-0.750371	-0.640299	0.804442	0.014654	-0.008816	0.001963
942	4.746718	0.005000	1.454267	9.884899	0.196200	-0.750042	-0.640299	0.803952	0.008569	-0.017037	0.002071
943	4.751718	0.005000	1.533958	9.774358	0.149764	-0.749713	-0.640299	0.803462	0.012867	-0.012628	-0.002034
944	4.756718	0.005000	1.451880	9.804458	0.207729	-0.749385	-0.640299	0.802973	0.015070	-0.013831	0.002775
945	4.761718	0.005000	1.514444	9.778718	0.235440	-0.749056	-0.640299	0.802483	0.021129	-0.002830	0.001602
946	4.766718	0.005000	1.510924	9.780662	0.049142	-0.748727	-0.640299	0.801993	0.015401	-0.009981	0.007795
947	4.771718	0.005000	1.410314	9.849240	0.171591	-0.748398	-0.640299	0.801503	0.015140	-0.014870	0.005282
948	4.776718	0.005000	1.501864	9.824248	0.092728	-0.748069	-0.640299	0.801013	0.013980	-0.005716	-0.001535
949	4.781718	0.005000	1.497045	9.826657	0.039240	-0.747740	-0.640299	0.800523	0.020221	-0.008680	-0.001769
950	4.786718	0.005000	1.470482	9.810000	0.156960	-0.747411	-0.640299	0.800034	0.014924	-0.001498	0.006816
951	4.791718	0.005000	1.509347	9.870253	0.105063	-0.747082	-0.640299	0.799544	0.011863	-0.017886	0.005841
952	4.796718	0.005000	1.601791	9.934769	0.032191	-0.746753	-0.640299	0.799054	0.013345	-0.004746	0.006931
953	4.801718	0.005000	1.594969	9.826244	0.117720	-0.746424	-0.640299	0.798564	0.014214	-0.009833	-0.003234
954	4.806718	0.005000	1.491120	9.853128	0.117720	-0.747254	-0.640936	0.799174	0.024048	-0.017152	0.000880
955	4.811718	0.005000	1.491120	9.849240	0.254478	-0.749119	-0.642143	0.800767	-0.000045	-0.014756	0.007203
956	4.816718	0.005000	1.537464	9.881376	0.331848	-0.750984	-0.643350	0.802359	0.007025	-0.006298	-0.001142
957	4.821718	0.005000	1.564440	9.810000	0.191040	-0.752849	-0.644557	0.803952	0.013765	-0.009081	-0.005966
958	4.826718	0.005000	1.533115	9.888480	0.086744	-0.754714	-0.645763	0.805545	0.008647	-0.015250	-0.004403
959	4.831718	0.005000	1.531162	9.849240	0.157762	-0.756579	-0.646970	0.807137	0.008558	-0.010388	0.013398
960	4.836718	0.005000	1.456701	9.849240	0.309099	-0.758444	-0.648177	0.808730	0.009229	-0.007925	0.001676
961	4.841718	0.005000	1.487583	9.810000	0.196200	-0.760309	-0.649383	0.810322	0.013744	-0.014784	0.003666
962	4.846718	0.005000	1.530360	9.843287	0.241393	-0.762174	-0.650590	0.811915	0.012181	-0.015474	-0.001043
963	4.851718	0.005000	1.569600	9.919823	0.149063	-0.764039	-0.651797	0.813508	0.003046	-0.012150	0.000916
964	4.856718	0.005000	1.627719	9.937901	0.254319	-0.765904	-0.653003	0.815100	0.006834	-0.004597	0.004183
965	4.861718	0.005000	1.491120	9.876232	0.142216	-0.767769	-0.654210	0.816693	0.009895	-0.014476	-0.009284
966	4.866718	0.005000	1.491120	9.898397	0.142299	-0.769634	-0.655417	0.818285	0.007614	-0.012166	-0.002350
967	4.871718	0.005000	1.530360	9.866107	0.269174	-0.771499	-0.656624	0.819878	0.005845	-0.008040	0.002154
968	4.876718	0.005000	1.627855	9.867046	0.234230	-0.770629	-0.655906	0.818982	0.011808	-0.016158	-0.000413
969	4.881718	0.005000	1.626654	9.870666	0.253254	-0.769532	-0.655028	0.817879	0.006159	-0.005004	-0.002710
970	4.886718	0.005000	1.616339	9.794130	0.313920	-0.768435	-0.654150	0.816777	0.013850	-0.008621	-0.003571
971	4.891718	0.005000	1.504578	9.770760	0.261222	-0.767338	-0.653273	0.815674	0.007592	-0.010039	-0.000918
972	4.896718	0.005000	1.592627	9.849240	0.101507	-0.766240	-0.652395	0.814572	0.002470	-0.005201	-0.001702
973	4.901718	0.005000	1.530360	9.909508	0.235440	-0.765143	-0.651517	0.813469	0.007748	-0.008969	0.005610
974	4.906718	0.005000	1.537440	9.874321	0.214201	-0.764046	-0.650640	0.812367	0.000246	-0.010032	-0.005941
975	4.911718	0.005000	1.569600	9.775520	0.196200	-0.762949	-0.649762	0.811264	0.004669	-0.012829	-0.003971
976	4.916718	0.005000	1.527544	9.776392	0.204648	-0.761852	-0.648885	0.810161	0.009187	-0.016258	0.004888
977	4.921718	0.005000	1.452278	9.887684	0.273884	-0.760755	-0.648007	0.809059	0.014883	-0.008169	0.007434
978	4.926718	0.005000	1.604203	9.885389	0.196200	-0.759658	-0.647129	0.807956	0.006214	-0.014996	0.001222
979	4.931718	0.005000	1.569600	9.810000	0.231537	-0.758561	-0.646252	0.806854	0.021162	-0.012319	0.003156
980	4.936718	0.005000	1.451880	9.843346	0.308026	-0.757464	-0.645374	0.805751	0.012828	-0.017327	0.005442
981	4.941718	0.005000	1.412640	9.857454	0.204414	-0.756786	-0.644811	0.804922	0.005441	-0.012263	-0.000203
982	4.946718	0.005000	1.540614	9.888480	0.225186	-0.757005	-0.644921	0.804677	0.010368	-0.017016	0.000846
983	4.951718	0.005000	1.635570	9.888480	0.315629	-0.757225	-0.645030	0.804432	0.004712	-0.011606	0.001525
984	4.956718	0.005000	1.515754	9.873874	0.328526	-0.757444	-0.645140	0.804187	0.005774	-0.010189	-0.000467
985	4.961718	0.005000	1.608840	9.871462	0.257662	-0.757664	-0.645250	0.803942	0.013954	-0.010329	-0.001358
986	4.966718	0.005000	1.608840	9.927720	0.296274	-0.757883	-0.645360	0.803697	0.011903	-0.012394	0.001699
987	4.971718	0.005000	1.612346	9.852746	0.274680	-0.758102	-0.645469	0.803452	0.009846	-0.004327	0.006709
988	4.976718	0.005000	1.593093	9.786507	0.353160	-0.758322	-0.645579	0.803207	0.009458	-0.007408	0.001781
989	4.981718	0.005000	1.465399	9.811317	0.194883	-0.758541	-0.645689	0.802962	0.005898	-0.010456	-0.002396
990	4.986718	0.005000	1.541471	9.866258	0.128831	-0.758761	-0.645799	0.802717	0.011533	-0.012779	0.007016
991	4.991718	0.005000	1.548482	9.858301	0.166021	-0.758980	-0.645908	0.802472	0.008253	-0.010767	0.000869
992	4.996718	0.005000	1.634576	9.874976	0.228688	-0.759199	-0.646018	0.802227	0.014892	-0.017579	0.003014
993	5.001718	0.005000	1.535110	9.819500	0.147460	-0.759419	-0.646128	0.801982	0.009297	-0.013054	0.012174
994	5.006718	0.005000	1.495926	9.856448	0.044046	-0.759638	-0.646238	0.801737	0.017342	-0.011332	-0.003273
995	5.011718	0.005000	1.491574	9.849694	0.236348	-0.759466	-0.645956	0.801667	0.023860	-0.003498	0.002223
996	5.016718	0.005000	1.567641	9.888480	0.239358	-0.759137	-0.645517	0.801667	0.016876	-0.008625	0.000136
997	5.021718	0.005000	1.421263	9.884169	0.204823	-0.758808	-0.645079	0.801667	0.017549	-0.013187	0.002052
998	5.026718	0.005000	1.484812	9.849240	0.268372	-0.758479	-0.644640	0.801667	0.012434	-0.009942	0.000937
999	5.031718	0.005000	1.530360	9.927720	0.274680	-0.758150	-0.644201	0.801667	0.023518	-0.008208	0.003119
1000	5.036718	0.005000	1.558933	9.966960	0.363827	-0.757821	-0.643763	0.801667	0.013951	-0.004606	0.001197
1001	5.041718	0.005000	1.504210	9.862315	0.209260	-0.757493	-0.643324	0.801667	0.013598	-0.002799	0.001222
1002	5.046718	0.005000	1.506414	9.746814	0.141666	-0.757164	-0.642885	0.801667	0.018293	-0.017377	0.008894
1003	5.051718	0.005000	1.569600	9.853634	0.178777	-0.756835	-0.642447	0.801667	0.011047	-0.002868	0.008441
1004	5.056718	0.005000	1.549995	9.790395	0.117690	-0.756506	-0.642008	0.801667	0.013199	-0.012083	0.006227
1005	5.061718	0.005000	1.473658	9.766444	0.235440	-0.756177	-0.641570	0.801667	0.008198	-0.012385	0.001774
1006	5.066718	0.005000	1.506459	9.825339	0.078480	-0.755848	-0.641131	0.801667	0.016177	-0.009322	0.001412
1007	5.071718	0.005000	1.569600	9.823106	0.078557	-0.755519	-0.640692	0.801667	0.019372	-0.004312	0.003416
1008	5.076718	0.005000	1.412640	9.849240	0.089178	-0.755269	-0.640299	0.801692	0.014699	-0.005183	-0.004710
1009	5.081718	0.005000	1.491120	9.849240	0.126474	-0.755708	-0.640299	0.801937	0.012355	-0.015095	0.005337
1010	5.086718	0.005000	1.464557	9.888480	0.229102	-0.756147	-0.640299	0.802182	0.012491	-0.011824	0.006635
1011	5.091718	0.005000	1.530360	9.844846	0.130902	-0.756586	-0.640299	0.802427	0.011621	-0.019795	0.000799
1012	5.096718	0.005000	1.567610	9.810000	0.123689	-0.757025	-0.640299	0.802672	0.017341	-0.009143	0.000286
1013	5.101718	0.005000	1.530360	9.810000	0.235395	-0.757463	-0.640299	0.802917	0.019493	-0.014839	-0.001313
1014	5.106718	0.005000	1.530360	9.846868	0.269936	-0.757902	-0.640299	0.803162	0.015842	-0.014340	0.001218
1015	5.111718	0.005000	1.466039	9.819439	0.240160	-0.758341	-0.640299	0.803407	0.017277	-0.007596	0.000558
1016	5.116718	0.005000	1.537081	9.842519	0.196200	-0.758780	-0.640299	0.803652	0.010109	-0.012755	0.006961
1017	5.121718	0.005000	1.500136	9.849240	0.105527	-0.759219	-0.640299	0.803897	-0.000995	-0.009857	-0.003457
1018	5.126718	0.005000	1.541429	9.838171	0.134821	-0.759657	-0.640299	0.804142	0.008208	-0.008242	-0.000366
1019	5.131718	0.005000	1.530360	9.849240	0.287266	-0.760096	-0.640299	0.804387	0.004352	-0.016334	0.003971
1020	5.136718	0.005000	1.663507	9.786187	0.218667	-0.760535	-0.640299	0.804632	0.008640	-0.011790	-0.001093
1021	5.141718	0.005000	1.547983	9.827623	0.257057	-0.760974	-0.640299	0.804877	0.006700	-0.014069	-0.003349
1022	5.146718	0.005000	1.549819	9.829459	0.274358	-0.760757	-0.640299	0.804878	0.015867	-0.007002	-0.005133
1023	5.151718	0.005000	1.564458	9.832191	0.291729	-0.759880	-0.640299	0.804633	0.018008	-0.007806	0.001170
1024	5.156718	0.005000	1.506225	9.864345	0.226411	-0.759002	-0.640299	0.804388	0.017115	-0.006562	0.011192
1025	5.161718	0.005000	1.582292	9.744212	0.222748	-0.758125	-0.640299	0.804143	0.014109	-0.004667	-0.000520
1026	5.166718	0.005000	1.598092	9.792255	0.203197	-0.757248	-0.640299	0.803898	0.009484	-0.013775	0.007538
1027	5.171718	0.005000	1.507802	9.880139	0.078480	-0.756371	-0.640299	0.803654	0.004111	-0.007824	-0.008546
1028	5.176718	0.005000	1.563605	9.855235	0.005995	-0.755493	-0.640299	0.803409	0.006006	-0.012230	0.003482
1029	5.181718	0.005000	1.644099	9.853221	0.086441	-0.754616	-0.640299	0.803164	0.005364	-0.013243	0.000653
1030	5.186718	0.005000	1.606813	9.847213	0.156960	-0.753739	-0.640299	0.802919	0.014836	-0.007645	-0.001074
1031	5.191718	0.005000	1.491855	9.848873	0.079215	-0.752862	-0.640299	0.802674	0.003037	-0.002349	0.008969
1032	5.196718	0.005000	1.571911	9.775382	0.078480	-0.751984	-0.640299	0.802429	0.010471	-0.003743	0.003656
1033	5.201718	0.005000	1.535076	9.844524	0.265249	-0.751107	-0.640299	0.802184	0.020212	-0.018433	0.003054
1034	5.206718	0.005000	1.412640	9.959911	0.203249	-0.750230	-0.640299	0.801939	0.016999	-0.005800	-0.007443
1035	5.211718	0.005000	1.551449	9.906631	0.214351	-0.749353	-0.640299	0.801695	0.011221	-0.007701	-0.002875
1036	5.216718	0.005000	1.586149	9.888480	0.251989	-0.749546	-0.640299	0.801667	0.016285	-0.008017	0.000319
1037	5.221718	0.005000	1.517974	9.901907	0.288107	-0.749875	-0.640299	0.801667	0.019256	-0.011440	-0.004254
1038	5.226718	0.005000	1.451880	9.959230	0.361087	-0.750204	-0.640299	0.801667	0.021976	-0.019236	0.000622
1039	5.231718	0.005000	1.491120	9.902590	0.235440	-0.750533	-0.640299	0.801667	0.012405	-0.008317	-0.000933
1040	5.236718	0.005000	1.567303	9.849240	0.195052	-0.750862	-0.640299	0.801667	0.017965	-0.019985	0.000490
1041	5.241718	0.005000	1.564154	9.888480	0.218543	-0.751191	-0.640299	0.801667	0.005798	-0.008771	0.004897
1042	5.246718	0.005000	1.569600	9.863932	0.245296	-0.751521	-0.640299	0.801667	0.009468	-0.008036	-0.002854
1043	5.251718	0.005000	1.530360	9.927720	0.235440	-0.751850	-0.640299	0.801667	0.011269	-0.003554	-0.001495
1044	5.256718	0.005000	1.551051	9.859586	0.216891	-0.752179	-0.640299	0.801667	0.014530	-0.005242	0.002638
1045	5.261718	0.005000	1.592979	9.872619	0.219579	-0.752508	-0.640299	0.801667	0.006658	-0.012140	0.006327
1046	5.266718	0.005000	1.557627	9.888480	0.202186	-0.752837	-0.640299	0.801667	0.012435	-0.009681	-0.001866
1047	5.271718	0.005000	1.459042	9.849240	0.310339	-0.753166	-0.640299	0.801667	0.016874	-0.013777	0.001865
1048	5.276718	0.005000	1.531998	9.932633	0.197838	-0.753495	-0.640299	0.801667	0.016260	-0.016309	-0.001365
1049	5.281718	0.005000	1.569600	9.968503	0.196971	-0.753607	-0.640268	0.801736	0.022242	-0.014204	-0.007201
1050	5.286718	0.005000	1.606116	9.815448	0.198924	-0.753168	-0.640158	0.801981	0.018631	-0.021079	-0.001515
1051	5.291718	0.005000	1.535428	9.893548	0.156960	-0.752730	-0.640049	0.802226	0.017240	-0.009971	-0.002091
1052	5.296718	0.005000	1.562527	9.952813	0.149887	-0.752291	-0.639939	0.802471	0.012153	-0.018380	0.008461
1053	5.301718	0.005000	1.599351	9.888480	0.216463	-0.751852	-0.639829	0.802716	0.008093	-0.015559	0.003721
1054	5.306718	0.005000	1.636648	9.921231	0.251816	-0.751414	-0.639720	0.802961	0.013644	-0.016701	0.000212
1055	5.311718	0.005000	1.581159	9.863080	0.156960	-0.750975	-0.639610	0.803206	0.008798	-0.007472	0.001007
1056	5.316718	0.005000	1.569600	9.927720	0.211985	-0.750537	-0.639500	0.803450	0.000311	-0.007488	0.002310
1057	5.321718	0.005000	1.512172	9.927720	0.274680	-0.750098	-0.639390	0.803695	0.014178	-0.009265	-0.000840
1058	5.326718	0.005000	1.571082	9.889962	0.276162	-0.749659	-0.639281	0.803940	0.011818	-0.007540	0.001812
1059	5.331718	0.005000	1.575446	9.849240	0.151114	-0.749221	-0.639171	0.804185	0.008933	-0.015828	0.003826
1060	5.336718	0.005000	1.505404	9.888480	0.167631	-0.748782	-0.639061	0.804430	0.016875	-0.013190	0.009753
1061	5.341718	0.005000	1.557260	9.876140	0.220880	-0.748343	-0.638952	0.804675	0.019064	-0.007941	-0.001731
1062	5.346718	0.005000	1.628215	9.819932	0.127163	-0.747905	-0.638842	0.804920	0.017736	-0.016777	0.000003
1063	5.351718	0.005000	1.538349	9.841251	0.180926	-0.747982	-0.638880	0.805000	0.016967	-0.000630	0.006527
1064	5.356718	0.005000	1.491120	9.877334	0.241013	-0.748312	-0.638990	0.805000	0.023160	-0.010849	0.007279
1065	5.361718	0.005000	1.480365	9.802830	0.271095	-0.748641	-0.639099	0.805000	0.011680	-0.001527	0.001451
1066	5.366718	0.005000	1.377073	9.770760	0.234216	-0.748970	-0.639209	0.805000	0.012959	-0.008366	0.011822
1067	5.371718	0.005000	1.567240	9.846880	0.234260	-0.749299	-0.639319	0.805000	0.017485	-0.013312	0.010009
1068	5.376718	0.005000	1.569600	9.852377	0.350023	-0.749629	-0.639429	0.805000	0.024444	-0.003980	-0.000926
1069	5.381718	0.005000	1.524884	9.854716	0.269204	-0.749958	-0.639539	0.805000	0.023005	-0.011523	0.005295
1070	5.386718	0.005000	1.562113	9.927720	0.188713	-0.750287	-0.639648	0.805000	0.009554	-0.004049	-0.000026
1071	5.391718	0.005000	1.599053	9.829575	0.264893	-0.750617	-0.639758	0.805000	0.016003	-0.007507	0.003861
1072	5.396718	0.005000	1.608840	9.837405	0.223605	-0.750946	-0.639868	0.805000	0.014621	-0.005065	0.002852
1073	5.401718	0.005000	1.633832	9.913472	0.192695	-0.751275	-0.639978	0.805000	0.018480	-0.006826	-0.000103
1074	5.406718	0.005000	1.562744	9.950768	0.297728	-0.751605	-0.640087	0.805000	0.016779	-0.014655	0.007307
1075	5.411718	0.005000	1.548962	9.849240	0.196200	-0.751934	-0.640197	0.805000	0.013110	-0.014355	-0.003102
1076	5.416718	0.005000	1.493419	9.909250	0.198499	-0.752239	-0.640307	0.804973	0.016647	-0.019345	-0.001986
1077	5.421718	0.005000	1.576273	9.888480	0.117720	-0.752239	-0.640417	0.804606	0.018396	-0.011371	-0.015652
1078	5.426718	0.005000	1.633906	9.874306	0.224548	-0.752239	-0.640526	0.804238	0.020167	-0.012222	-0.006479
1079	5.431718	0.005000	1.620767	9.861167	0.298533	-0.752239	-0.640636	0.803870	0.015017	-0.016874	0.004656
1080	5.436718	0.005000	1.520841	9.829038	0.324602	-0.752239	-0.640746	0.803503	0.010996	-0.006423	0.001370
1081	5.441718	0.005000	1.537936	9.864391	0.267104	-0.752239	-0.640855	0.803135	0.021570	-0.013895	0.006333
1082	5.446718	0.005000	1.525200	9.888480	0.206519	-0.752239	-0.640965	0.802768	0.020972	-0.004685	-0.005087
1083	5.451718	0.005000	1.527183	9.882127	0.310743	-0.752239	-0.641075	0.802400	0.006592	-0.015837	0.009878
1084	5.456718	0.005000	1.490309	9.849240	0.274680	-0.752239	-0.641184	0.802033	0.010175	-0.010646	0.002551
1085	5.461718	0.005000	1.451880	9.849240	0.312787	-0.752239	-0.641294	0.801665	0.007338	-0.007686	-0.002948
1086	5.466718	0.005000	1.494657	9.845703	0.199737	-0.752239	-0.641404	0.801298	0.023791	-0.007624	0.010669
1087	5.471718	0.005000	1.530360	9.877518	0.336717	-0.752239	-0.641513	0.800930	0.015346	-0.007270	0.003444
1088	5.476718	0.005000	1.506914	9.833691	0.274680	-0.752239	-0.641623	0.800563	0.014355	-0.014048	0.000659
1089	5.481718	0.005000	1.559759	9.800159	0.147119	-0.752239	-0.641733	0.800195	0.013747	-0.012581	0.003192
1090	5.486718	0.005000	1.515616	9.888480	0.156960	-0.752496	-0.641945	0.800344	0.009430	-0.010082	-0.004923
1091	5.491718	0.005000	1.579856	9.849240	0.171452	-0.753045	-0.642274	0.801079	0.022306	-0.015538	0.005318
1092	5.496718	0.005000	1.563570	9.793395	0.268650	-0.753593	-0.642604	0.801815	0.008249	-0.010844	-0.001529
1093	5.501718	0.005000	1.571264	9.850904	0.197864	-0.754141	-0.642933	0.802550	0.025775	-0.013055	0.010474
1094	5.506718	0.005000	1.608840	9.885801	0.259079	-0.754690	-0.643262	0.803285	0.017200	-0.005278	-0.000626
1095	5.511718	0.005000	1.474979	9.842281	0.244622	-0.755238	-0.643591	0.804020	0.020391	-0.007241	-0.001927
1096	5.516718	0.005000	1.491120	9.874553	0.145574	-0.755787	-0.643920	0.804755	0.012319	-0.007280	0.004836
1097	5.521718	0.005000	1.514809	9.861085	0.094031	-0.756335	-0.644249	0.805490	0.007803	-0.009638	-0.005960
1098	5.526718	0.005000	1.471018	9.918151	0.019138	-0.756884	-0.644578	0.806225	0.019567	-0.014349	-0.002094
1099	5.531718	0.005000	1.522812	9.856788	0.125268	-0.757432	-0.644908	0.806960	0.015724	-0.006438	-0.000427
1100	5.536718	0.005000	1.491120	9.849240	0.196200	-0.757981	-0.645237	0.807695	0.022450	-0.016341	0.008603
1101	5.541718	0.005000	1.491120	9.806763	0.192963	-0.758529	-0.645566	0.808430	0.019127	-0.009758	0.003481
1102	5.546718	0.005000	1.530360	9.811745	-0.035751	-0.759078	-0.645895	0.809165	0.011915	-0.008745	-0.003766
