# FOX Logger (IMU file)
# (c) INRIA 2011-2014
# File created from file sensbiotk output
#
# File format:
# id	t	dt	ax	ay	az	mx	my	mz	gx	gy	gz
#
# Units:
#	Time: s
#	Acceleration: m.s^-2
#	Magneto: gauss
#	Gyrometer: rad/s
#
1	0.002197	0.002197	9.525639	-0.108039	1.947221	0.503023	-0.126866	-0.311710	0.014050	-0.018021	0.019242
2	0.007197	0.005000	9.579491	-0.056394	1.900674	0.503246	-0.126866	-0.311958	0.011019	-0.004733	0.005375
3	0.012197	0.005000	9.672507	-0.039240	1.883520	0.503469	-0.126866	-0.312207	0.006139	-0.012952	0.014438
4	0.017197	0.005000	9.635984	-0.017056	1.962000	0.503692	-0.126866	-0.312456	0.010227	-0.008710	-0.001155
5	0.022197	0.005000	9.589206	-0.053886	1.912812	0.503915	-0.126866	-0.312705	0.008197	-0.015105	0.014543
6	0.027197	0.005000	9.589334	-0.090713	1.856513	0.504138	-0.126866	-0.312954	0.003046	-0.007241	0.013254
7	0.032197	0.005000	9.623512	-0.186488	1.873415	0.504361	-0.126866	-0.313203	0.001107	-0.015185	0.002854
8	0.037197	0.005000	9.589203	-0.117720	2.001240	0.504583	-0.126866	-0.313452	0.000419	-0.013842	0.010404
9	0.042197	0.005000	9.613800	-0.034293	1.922760	0.504806	-0.126866	-0.313701	0.002902	-0.004774	0.000649
10	0.047197	0.005000	9.574560	-0.036684	1.998684	0.505029	-0.126866	-0.313950	0.014570	-0.011219	0.003641
11	0.052197	0.005000	9.574560	-0.038953	1.962000	0.505252	-0.126866	-0.314198	0.005937	-0.009536	0.013604
12	0.057197	0.005000	9.574560	-0.002662	1.925422	0.505475	-0.126866	-0.314447	0.004205	-0.010716	0.014733
13	0.062197	0.005000	9.579612	0.000000	2.025323	0.505698	-0.126866	-0.314696	-0.004215	-0.009355	0.011436
14	0.067197	0.005000	9.645613	-0.007427	1.883520	0.505921	-0.126866	-0.314945	-0.000333	-0.004609	0.001773
15	0.072197	0.005000	9.496080	-0.107799	1.922760	0.505883	-0.127040	-0.314126	-0.000454	-0.011782	0.008437
16	0.077197	0.005000	9.601465	-0.105385	1.976570	0.505772	-0.127263	-0.313005	0.005297	-0.006329	0.003014
17	0.082197	0.005000	9.550064	-0.078480	2.025736	0.505660	-0.127486	-0.311883	0.008838	-0.010836	0.007861
18	0.087197	0.005000	9.635884	-0.078480	2.023324	0.505548	-0.127709	-0.310762	0.003385	-0.012988	0.006841
19	0.092197	0.005000	9.653040	-0.078480	1.922760	0.505437	-0.127932	-0.309641	0.000378	-0.004377	0.012013
20	0.097197	0.005000	9.653040	-0.117720	2.035367	0.505325	-0.128156	-0.308520	0.011010	-0.007612	0.009711
21	0.102197	0.005000	9.599127	-0.053913	2.001240	0.505214	-0.128379	-0.307399	0.006251	-0.005631	0.006414
22	0.107197	0.005000	9.599157	-0.117720	1.988942	0.505102	-0.128602	-0.306278	0.008333	-0.015036	0.006441
23	0.112197	0.005000	9.682715	-0.039240	1.952435	0.504991	-0.128825	-0.305156	0.009373	-0.007161	0.003007
24	0.117197	0.005000	9.613800	-0.046390	1.897820	0.504879	-0.129048	-0.304035	0.012893	-0.007266	-0.000444
25	0.122197	0.005000	9.574560	-0.078480	1.922760	0.504768	-0.129271	-0.302914	0.001282	-0.001641	0.011133
26	0.127197	0.005000	9.535320	-0.078480	2.079720	0.504656	-0.129494	-0.301793	0.011389	-0.007059	0.010773
27	0.132197	0.005000	9.535320	-0.000151	2.079720	0.504545	-0.129717	-0.300672	0.010484	-0.014966	0.001655
28	0.137197	0.005000	9.645556	-0.002495	1.962000	0.504523	-0.129672	-0.300449	0.000819	-0.009122	0.003120
29	0.142197	0.005000	9.653040	-0.039240	2.025782	0.504634	-0.129226	-0.301571	0.003919	-0.006988	-0.002635
30	0.147197	0.005000	9.549951	0.039240	2.001240	0.504746	-0.128780	-0.302692	0.008686	-0.007835	0.008515
31	0.152197	0.005000	9.574560	-0.009722	1.962000	0.504857	-0.128333	-0.303813	-0.002238	-0.009152	-0.004471
32	0.157197	0.005000	9.522870	-0.039240	1.935210	0.504969	-0.127887	-0.304934	0.003536	-0.015148	0.002106
33	0.162197	0.005000	9.510905	-0.014825	1.937585	0.505080	-0.127441	-0.306055	0.002497	-0.006640	-0.000602
34	0.167197	0.005000	9.461650	-0.073670	1.944785	0.505192	-0.126995	-0.307176	0.004996	-0.011589	0.001021
35	0.172197	0.005000	9.535320	-0.137431	1.922699	0.505303	-0.126549	-0.308298	0.005889	-0.004374	-0.000025
36	0.177197	0.005000	9.574560	-0.117720	1.922760	0.505415	-0.126102	-0.309419	0.000782	-0.006762	0.007588
37	0.182197	0.005000	9.549911	-0.093071	1.962000	0.505526	-0.125656	-0.310540	0.007882	-0.014113	0.011301
38	0.187197	0.005000	9.571866	-0.051422	1.886214	0.505638	-0.125210	-0.311661	0.004087	-0.010920	-0.002749
39	0.192197	0.005000	9.525552	-0.088416	1.942296	0.505749	-0.124764	-0.312782	0.006188	-0.002324	0.005502
40	0.197197	0.005000	9.542596	-0.117720	1.937312	0.505861	-0.124317	-0.313903	0.005234	0.003644	0.010628
41	0.202197	0.005000	9.657926	-0.034354	2.065062	0.505987	-0.123876	-0.315000	0.010219	-0.009475	0.000080
42	0.207197	0.005000	9.679724	-0.005022	1.959489	0.506768	-0.123653	-0.315000	0.006143	-0.008608	0.004584
43	0.212197	0.005000	9.574318	-0.039240	2.001361	0.507548	-0.123430	-0.315000	0.015412	-0.004343	-0.003115
44	0.217197	0.005000	9.605631	-0.112274	2.003963	0.508329	-0.123207	-0.315000	0.019381	-0.007828	-0.000305
45	0.222197	0.005000	9.506276	-0.078480	2.035382	0.509109	-0.122984	-0.315000	0.019036	-0.007407	-0.003667
46	0.227197	0.005000	9.606312	-0.031752	1.993752	0.509890	-0.122761	-0.315000	0.024413	-0.006425	-0.000044
47	0.232197	0.005000	9.515806	-0.009863	2.069857	0.510671	-0.122538	-0.315000	0.018529	0.008634	0.005470
48	0.237197	0.005000	9.628247	-0.080531	2.067324	0.511451	-0.122315	-0.315000	0.016562	0.007283	0.001698
49	0.242197	0.005000	9.579735	-0.068850	2.064915	0.512232	-0.122092	-0.315000	0.024201	-0.000772	0.005168
50	0.247197	0.005000	9.535320	-0.112914	2.040480	0.513012	-0.121869	-0.315000	0.006674	-0.006036	0.008072
51	0.252197	0.005000	9.594422	-0.078480	2.060342	0.513793	-0.121646	-0.315000	0.011903	-0.014915	0.010291
52	0.257197	0.005000	9.530086	-0.039240	2.084954	0.514574	-0.121423	-0.315000	-0.005057	-0.008517	0.006453
53	0.262197	0.005000	9.593832	-0.014628	2.094348	0.515354	-0.121200	-0.315000	0.009468	-0.012660	-0.001517
54	0.267197	0.005000	9.650514	-0.090718	1.991528	0.516135	-0.120977	-0.315000	0.010495	-0.014502	0.010359
55	0.272197	0.005000	9.643532	-0.097495	1.981015	0.515992	-0.120967	-0.314921	0.025449	-0.010403	0.010029
56	0.277197	0.005000	9.631737	-0.110619	2.015442	0.515323	-0.121078	-0.314796	0.013447	-0.015219	0.009953
57	0.282197	0.005000	9.657725	-0.029870	2.118960	0.514654	-0.121190	-0.314672	0.005025	-0.009380	0.018011
58	0.287197	0.005000	9.646278	0.078480	1.964254	0.513985	-0.121301	-0.314547	0.009948	-0.022823	0.012786
59	0.292197	0.005000	9.652627	0.000275	2.001240	0.513316	-0.121413	-0.314423	0.003484	-0.021374	0.012353
60	0.297197	0.005000	9.653040	-0.078480	2.001240	0.512647	-0.121524	-0.314298	0.005107	-0.023881	0.012099
61	0.302197	0.005000	9.662957	-0.009917	2.079720	0.511978	-0.121636	-0.314173	0.013935	-0.026464	0.014680
62	0.307197	0.005000	9.503444	-0.071116	2.101813	0.511309	-0.121747	-0.314049	0.006543	-0.022103	0.009212
63	0.312197	0.005000	9.535320	-0.049019	2.040480	0.510640	-0.121859	-0.313924	0.011325	-0.017566	0.019556
64	0.317197	0.005000	9.546121	-0.051750	2.054700	0.509971	-0.121970	-0.313800	0.019358	-0.018283	0.025025
65	0.322197	0.005000	9.574560	-0.039240	2.070250	0.509302	-0.122082	-0.313675	0.019338	-0.039113	0.011667
66	0.327197	0.005000	9.561974	-0.043929	1.839591	0.508633	-0.122193	-0.313551	0.011078	-0.026559	0.018923
67	0.332197	0.005000	9.554910	-0.098070	1.942350	0.507964	-0.122305	-0.313426	0.006885	-0.020454	0.018289
68	0.337197	0.005000	9.557360	-0.134920	1.966841	0.507519	-0.122444	-0.313364	0.007841	-0.026815	0.015640
69	0.342197	0.005000	9.653040	-0.171489	1.972181	0.507742	-0.122667	-0.313489	-0.002956	-0.020440	0.012609
70	0.347197	0.005000	9.668038	-0.196200	1.991996	0.507965	-0.122890	-0.313614	0.003073	-0.028053	0.013406
71	0.352197	0.005000	9.633604	-0.147242	1.873435	0.508189	-0.123114	-0.313738	-0.003483	-0.035561	0.014951
72	0.357197	0.005000	9.528017	-0.110417	1.954697	0.508412	-0.123337	-0.313863	-0.003037	-0.026023	0.016650
73	0.362197	0.005000	9.432122	-0.083321	1.819562	0.508635	-0.123560	-0.313987	-0.002946	-0.023071	0.013941
74	0.367197	0.005000	9.537800	-0.117720	1.844280	0.508858	-0.123783	-0.314112	-0.001333	-0.022002	0.012411
75	0.372197	0.005000	9.417677	-0.196123	1.765800	0.509081	-0.124006	-0.314237	0.010535	-0.019546	0.017110
76	0.377197	0.005000	9.382989	-0.120034	1.765800	0.509304	-0.124229	-0.314361	0.003217	-0.011518	0.007031
77	0.382197	0.005000	9.505572	-0.073734	1.878774	0.509527	-0.124452	-0.314486	0.007436	-0.018275	0.006184
78	0.387197	0.005000	9.645878	-0.142635	1.844280	0.509750	-0.124675	-0.314610	0.010017	-0.020805	0.018279
79	0.392197	0.005000	9.692280	-0.137822	1.844280	0.509973	-0.124898	-0.314735	0.004329	-0.008011	0.006196
80	0.397197	0.005000	9.574560	-0.130018	1.895818	0.510197	-0.125122	-0.314860	0.015863	-0.011116	0.000560
81	0.402197	0.005000	9.599111	-0.107857	1.805040	0.510420	-0.125345	-0.314984	0.010333	-0.011791	0.005030
82	0.407197	0.005000	9.574560	-0.073367	1.770913	0.510545	-0.125470	-0.315435	0.000203	-0.008016	-0.001947
83	0.412197	0.005000	9.614133	-0.118053	1.864066	0.510657	-0.125582	-0.315933	0.001080	-0.011718	0.000358
84	0.417197	0.005000	9.613800	-0.196200	1.861691	0.510768	-0.125693	-0.316431	-0.002241	0.006888	-0.001052
85	0.422197	0.005000	9.622997	-0.102699	1.853477	0.510880	-0.125805	-0.316929	0.006399	0.001912	0.005611
86	0.427197	0.005000	9.481489	-0.078480	1.959734	0.510991	-0.125917	-0.317427	0.003665	0.005253	0.012277
87	0.432197	0.005000	9.603883	-0.088397	1.893437	0.511103	-0.126028	-0.317925	-0.000763	-0.005113	-0.005437
88	0.437197	0.005000	9.550324	-0.078480	1.946996	0.511214	-0.126140	-0.318423	0.001943	0.003301	-0.002335
89	0.442197	0.005000	9.682083	-0.141665	1.951803	0.511326	-0.126251	-0.318922	-0.000920	0.006317	-0.013951
90	0.447197	0.005000	9.650378	-0.115058	1.880858	0.511437	-0.126363	-0.319420	-0.006356	0.008883	-0.000109
91	0.452197	0.005000	9.573199	-0.078480	1.883792	0.511549	-0.126474	-0.319918	-0.000655	0.008285	-0.002564
92	0.457197	0.005000	9.489696	-0.115592	1.959872	0.511660	-0.126586	-0.320416	0.000084	0.010838	-0.005583
93	0.462197	0.005000	9.526229	-0.043785	1.957455	0.511771	-0.126697	-0.320914	-0.009207	0.006240	0.000479
94	0.467197	0.005000	9.496080	-0.007337	1.925316	0.511883	-0.126809	-0.321412	-0.004723	0.006540	0.003301
95	0.472197	0.005000	9.427312	-0.059057	1.922760	0.511777	-0.126757	-0.321424	-0.012357	0.007229	0.006265
96	0.477197	0.005000	9.535320	-0.078480	1.962000	0.511442	-0.126534	-0.320926	-0.006745	0.017675	-0.008823
97	0.482197	0.005000	9.570370	-0.078480	1.997050	0.511107	-0.126311	-0.320427	0.003563	0.009907	-0.000756
98	0.487197	0.005000	9.636173	-0.056107	2.018107	0.510773	-0.126088	-0.319929	0.000305	0.010125	0.003524
99	0.492197	0.005000	9.731811	-0.078480	1.941944	0.510438	-0.125865	-0.319431	0.010130	0.009484	-0.002782
100	0.497197	0.005000	9.714165	-0.043770	1.896345	0.510104	-0.125642	-0.318932	0.005856	0.015577	0.007479
101	0.502197	0.005000	9.686692	0.000000	2.001240	0.509769	-0.125418	-0.318434	0.013554	0.011490	-0.001760
102	0.507197	0.005000	9.613800	-0.026851	2.052869	0.509434	-0.125195	-0.317936	0.001340	0.008411	0.004793
103	0.512197	0.005000	9.633042	-0.009999	2.040480	0.509100	-0.124972	-0.317437	0.008198	0.012559	-0.003653
104	0.517197	0.005000	9.559312	0.031616	2.048104	0.508765	-0.124749	-0.316939	0.012202	0.006139	-0.005192
105	0.522197	0.005000	9.501314	-0.034006	2.050948	0.508430	-0.124526	-0.316441	0.010750	0.003704	0.000902
106	0.527197	0.005000	9.613800	0.000000	2.121379	0.508096	-0.124303	-0.315942	0.007730	0.007308	-0.001595
107	0.532197	0.005000	9.574591	-0.000046	2.197394	0.507761	-0.124080	-0.315444	0.013616	0.009093	0.000836
108	0.537197	0.005000	9.616175	-0.080855	1.969125	0.507512	-0.123869	-0.315000	0.003540	0.009494	-0.002918
109	0.542197	0.005000	9.584175	-0.039240	2.035673	0.507958	-0.123757	-0.315000	0.015208	0.003615	0.009027
110	0.547197	0.005000	9.456840	-0.024818	2.086931	0.508404	-0.123646	-0.315000	-0.002471	0.005338	0.002481
111	0.552197	0.005000	9.535320	-0.048866	2.040480	0.508850	-0.123534	-0.315000	-0.001541	0.001408	0.008866
112	0.557197	0.005000	9.504975	-0.027206	2.137271	0.509297	-0.123422	-0.315000	0.002333	0.001540	0.014249
113	0.562197	0.005000	7.853416	-0.710979	2.021087	0.509743	-0.123311	-0.315000	0.008656	-0.041855	0.009460
114	0.567197	0.005000	8.015640	-0.507276	1.110852	0.510189	-0.123199	-0.315000	-0.057198	-0.066500	0.038296
115	0.572197	0.005000	9.164355	-0.235198	1.334402	0.510635	-0.123088	-0.315000	-0.078097	0.103153	0.023144
116	0.577197	0.005000	9.844702	-0.061129	1.665431	0.511081	-0.122976	-0.315000	-0.095393	0.084683	0.026105
117	0.582197	0.005000	10.071792	0.149759	1.717272	0.511528	-0.122864	-0.315000	-0.104727	0.019217	0.035181
118	0.587197	0.005000	10.756780	0.782382	1.944890	0.511974	-0.122753	-0.315000	-0.073453	0.028813	0.042078
119	0.592197	0.005000	11.527098	0.696261	2.315359	0.512420	-0.122641	-0.315000	0.007003	0.058180	0.037844
120	0.597197	0.005000	11.729255	0.244867	2.417974	0.512866	-0.122530	-0.315000	0.053217	0.033288	-0.003845
121	0.602197	0.005000	10.681241	-0.103665	2.122941	0.513313	-0.122418	-0.315000	0.045829	-0.037707	-0.024225
122	0.607197	0.005000	9.741804	-0.473512	1.640183	0.513433	-0.122795	-0.315364	-0.011252	-0.045565	-0.032867
123	0.612197	0.005000	9.023914	-0.432712	1.530789	0.513433	-0.123353	-0.315862	-0.116211	-0.023886	-0.030813
124	0.617197	0.005000	8.641453	-0.627840	1.497610	0.513433	-0.123910	-0.316360	-0.147879	-0.004080	-0.034799
125	0.622197	0.005000	8.450260	-0.609627	1.664554	0.513433	-0.124468	-0.316858	-0.068468	0.033043	-0.024555
126	0.627197	0.005000	8.625872	-0.581672	1.881190	0.513433	-0.125025	-0.317356	0.038074	0.059632	-0.003480
127	0.632197	0.005000	8.780344	-0.420647	2.150361	0.513433	-0.125583	-0.317854	0.088669	0.069120	-0.000332
128	0.637197	0.005000	8.989710	-0.243521	2.209270	0.513433	-0.126141	-0.318352	0.083217	0.047042	0.004010
129	0.642197	0.005000	9.178685	-0.014238	2.286683	0.513433	-0.126698	-0.318850	0.067272	0.025538	-0.010031
130	0.647197	0.005000	9.198811	0.022589	2.259269	0.513433	-0.127256	-0.319348	0.060507	-0.003350	-0.005626
131	0.652197	0.005000	9.260640	0.137899	2.255741	0.513433	-0.127813	-0.319847	0.069111	-0.001111	0.013967
132	0.657197	0.005000	9.343235	0.409963	2.354400	0.513433	-0.128371	-0.320345	0.075921	0.010105	0.008794
133	0.662197	0.005000	9.408705	0.446813	2.502465	0.513433	-0.128928	-0.320843	0.097922	0.019092	0.016892
134	0.667197	0.005000	9.535320	0.484525	2.720358	0.513433	-0.129486	-0.321341	0.121484	0.020798	0.023831
135	0.672197	0.005000	9.624208	0.429250	2.668320	0.513394	-0.129697	-0.321495	0.143838	0.018377	0.023923
136	0.677197	0.005000	9.669105	0.281790	2.746800	0.513283	-0.129251	-0.320997	0.125372	0.013991	0.031990
137	0.682197	0.005000	9.821285	0.140033	2.701918	0.513171	-0.128805	-0.320498	0.110603	0.007258	0.027183
138	0.687197	0.005000	9.885648	-0.011330	2.584175	0.513060	-0.128358	-0.320000	0.068215	-0.004500	0.024228
139	0.692197	0.005000	9.928149	-0.235869	2.353971	0.512948	-0.127912	-0.319502	0.037867	-0.009009	0.029932
140	0.697197	0.005000	10.004233	-0.311953	2.277887	0.512837	-0.127466	-0.319003	-0.005529	-0.042546	0.029592
141	0.702197	0.005000	10.010542	-0.322603	2.197440	0.512725	-0.127020	-0.318505	-0.046879	-0.041667	0.043049
142	0.707197	0.005000	9.966960	-0.424830	2.269110	0.512613	-0.126573	-0.318007	-0.075368	-0.056460	0.034901
143	0.712197	0.005000	9.768387	-0.392400	2.236680	0.512502	-0.126127	-0.317508	-0.079631	-0.074570	0.037821
144	0.717197	0.005000	9.648694	-0.286311	2.024502	0.512390	-0.125681	-0.317010	-0.078747	-0.084311	0.030453
145	0.722197	0.005000	9.638699	-0.132061	2.069161	0.512279	-0.125235	-0.316512	-0.073932	-0.102499	0.042760
146	0.727197	0.005000	9.535320	-0.078480	1.860996	0.512167	-0.124789	-0.316013	-0.063095	-0.102689	0.034400
147	0.732197	0.005000	9.415482	0.001059	1.922760	0.512055	-0.124342	-0.315515	-0.048734	-0.108262	0.019264
148	0.737197	0.005000	9.431638	0.085923	1.965721	0.511944	-0.123896	-0.315017	-0.050430	-0.101683	0.023790
149	0.742197	0.005000	9.424513	0.000000	1.900462	0.511832	-0.123881	-0.314880	-0.034537	-0.087370	0.016354
150	0.747197	0.005000	9.522633	-0.012687	1.739247	0.511721	-0.123881	-0.314755	-0.002573	-0.077361	0.022515
151	0.752197	0.005000	9.543741	-0.049513	1.716287	0.511609	-0.123881	-0.314630	0.013725	-0.067401	0.023213
152	0.757197	0.005000	9.543186	-0.078480	1.844280	0.511498	-0.123881	-0.314506	0.022500	-0.054699	0.023518
153	0.762197	0.005000	9.535320	-0.117720	1.844280	0.511386	-0.123881	-0.314381	0.015819	-0.039780	0.016507
154	0.767197	0.005000	9.649994	-0.114674	1.868292	0.511275	-0.123881	-0.314257	0.021525	-0.036151	0.012948
155	0.772197	0.005000	9.689769	-0.118975	1.688575	0.511163	-0.123881	-0.314132	0.032874	-0.031421	0.014693
156	0.777197	0.005000	9.497835	-0.233685	1.765800	0.511052	-0.123881	-0.314007	0.016848	-0.032511	0.005549
157	0.782197	0.005000	9.609607	-0.305533	1.683127	0.510940	-0.123881	-0.313883	0.024059	-0.043938	0.027524
158	0.787197	0.005000	9.626997	-0.320519	1.504317	0.510829	-0.123881	-0.313758	0.013134	-0.033009	0.017305
159	0.792197	0.005000	9.781909	-0.401764	1.539724	0.510717	-0.123881	-0.313634	0.010672	-0.037406	-0.003322
160	0.797197	0.005000	9.676548	-0.404154	1.542114	0.510606	-0.123881	-0.313509	0.004688	-0.039344	0.006251
161	0.802197	0.005000	9.667169	-0.378271	1.580582	0.510494	-0.123881	-0.313384	-0.000821	-0.029867	0.002150
162	0.807197	0.005000	9.483676	-0.324237	1.648080	0.510514	-0.123815	-0.313333	-0.005677	-0.031901	-0.001828
163	0.812197	0.005000	9.497532	-0.156960	1.608840	0.510625	-0.123704	-0.313333	-0.013972	-0.023188	-0.008321
164	0.817197	0.005000	9.499906	-0.078480	1.630373	0.510737	-0.123592	-0.313333	-0.008579	-0.029609	0.000792
165	0.822197	0.005000	9.535320	-0.087130	1.632785	0.510848	-0.123481	-0.313333	-0.012464	-0.011673	0.001938
166	0.827197	0.005000	9.508971	-0.026349	1.725994	0.510960	-0.123369	-0.313333	0.005381	-0.014372	-0.009004
167	0.832197	0.005000	9.467323	-0.010483	1.833797	0.511071	-0.123257	-0.313333	0.010013	-0.007679	0.004037
168	0.837197	0.005000	9.582532	0.109748	1.875548	0.511183	-0.123146	-0.313333	0.011944	0.008289	-0.004371
169	0.842197	0.005000	9.501677	0.000000	2.018092	0.511294	-0.123034	-0.313333	0.036786	0.009322	-0.018058
170	0.847197	0.005000	9.525699	0.000000	2.001240	0.511406	-0.122923	-0.313333	0.047526	0.016034	-0.010462
171	0.852197	0.005000	9.613800	-0.078480	2.080087	0.511517	-0.122811	-0.313333	0.047280	0.006536	-0.010507
172	0.857197	0.005000	9.576572	-0.078480	2.081732	0.511629	-0.122700	-0.313333	0.059374	0.020442	-0.000422
173	0.862197	0.005000	9.535320	-0.152558	2.114558	0.511740	-0.122588	-0.313333	0.055099	0.021231	-0.011923
174	0.867197	0.005000	9.574560	-0.150183	2.079720	0.511852	-0.122476	-0.313333	0.066014	0.004412	-0.007688
175	0.872197	0.005000	9.547059	-0.166127	2.118960	0.511801	-0.122481	-0.313307	0.060480	0.002584	-0.015420
176	0.877197	0.005000	9.563018	-0.145418	2.040480	0.511132	-0.122927	-0.313183	0.050216	-0.003180	-0.014278
177	0.882197	0.005000	9.510012	-0.078480	2.105028	0.510463	-0.123373	-0.313058	0.033481	-0.008147	-0.003253
178	0.887197	0.005000	9.580791	-0.072249	2.085951	0.509793	-0.123819	-0.312934	0.021031	-0.016127	-0.009799
179	0.892197	0.005000	9.653040	-0.098804	2.100044	0.509124	-0.124265	-0.312809	0.011143	-0.014493	-0.003421
180	0.897197	0.005000	9.553233	-0.075066	2.022567	0.508455	-0.124711	-0.312685	-0.012770	-0.019903	-0.021234
181	0.902197	0.005000	9.574560	-0.039240	2.055804	0.507786	-0.125157	-0.312560	-0.025386	-0.026232	-0.009151
182	0.907197	0.005000	9.548254	-0.012934	1.988306	0.507117	-0.125603	-0.312436	-0.046033	-0.028477	-0.000838
183	0.912197	0.005000	9.524761	-0.039240	1.901642	0.506448	-0.126049	-0.312311	-0.057077	-0.031846	0.000955
184	0.917197	0.005000	9.551688	-0.047424	1.930944	0.505779	-0.126495	-0.312187	-0.065880	-0.027548	-0.004758
185	0.922197	0.005000	9.608398	-0.073078	1.951195	0.505110	-0.126941	-0.312062	-0.066498	-0.026617	-0.008683
186	0.927197	0.005000	9.644084	0.005971	1.802055	0.504441	-0.127387	-0.311938	-0.061903	-0.026219	-0.007359
187	0.932197	0.005000	9.535902	-0.039240	1.764637	0.503772	-0.127833	-0.311813	-0.062804	-0.012077	0.002823
188	0.937197	0.005000	9.686834	-0.039240	1.762169	0.503103	-0.128279	-0.311689	-0.054466	-0.014722	0.000464
189	0.942197	0.005000	9.473601	0.004190	1.734940	0.502066	-0.129368	-0.310026	-0.037159	-0.008800	0.004226
190	0.947197	0.005000	9.613800	0.078480	1.746301	0.500951	-0.130596	-0.308033	-0.029485	-0.006263	-0.003269
191	0.952197	0.005000	9.604736	0.009064	1.648080	0.499835	-0.131823	-0.306039	-0.008861	-0.001540	0.009689
192	0.957197	0.005000	9.708564	0.089958	1.715082	0.498720	-0.133050	-0.304046	0.001432	0.008820	-0.005757
193	0.962197	0.005000	9.588446	0.039240	1.818926	0.497604	-0.134277	-0.302053	0.019969	0.008589	0.011417
194	0.967197	0.005000	9.613800	-0.022676	1.860844	0.496489	-0.135504	-0.300060	0.040534	0.015841	0.011017
195	0.972197	0.005000	9.517697	-0.018954	1.825326	0.495373	-0.136731	-0.298066	0.061945	0.015979	0.003226
196	0.977197	0.005000	9.520828	0.021329	1.962000	0.494257	-0.137959	-0.296073	0.057213	0.029128	0.007288
197	0.982197	0.005000	9.566361	-0.039240	1.946479	0.493142	-0.139186	-0.294080	0.057222	0.028809	0.001222
198	0.987197	0.005000	9.639894	0.000000	1.922563	0.492026	-0.140413	-0.292087	0.064776	0.019996	0.003208
199	0.992197	0.005000	9.595404	-0.028818	2.011662	0.490911	-0.141640	-0.290093	0.060364	0.012942	0.006310
200	0.997197	0.005000	9.645033	-0.086487	2.079720	0.489795	-0.142867	-0.288100	0.035796	0.016893	0.008904
201	1.002197	0.005000	9.658641	-0.173764	2.158200	0.488680	-0.144094	-0.286107	0.030637	0.019605	0.015117
202	1.007197	0.005000	9.626538	-0.225886	2.118960	0.488457	-0.144478	-0.285775	0.006713	0.013509	0.001157
203	1.012197	0.005000	9.729958	-0.040021	2.118960	0.489349	-0.143809	-0.287519	-0.004922	0.005106	0.010697
204	1.017197	0.005000	9.690677	-0.078480	2.118960	0.490242	-0.143140	-0.289263	-0.017372	0.002905	0.007264
205	1.022197	0.005000	9.649046	-0.082474	2.162194	0.491134	-0.142470	-0.291007	-0.015529	-0.002492	0.007453
206	1.027197	0.005000	9.607354	0.026349	2.079720	0.492027	-0.141801	-0.292751	-0.030074	-0.009879	0.014413
207	1.032197	0.005000	9.610005	0.008861	2.127821	0.492919	-0.141132	-0.294495	-0.036343	-0.016800	0.010083
208	1.037197	0.005000	9.574560	-0.106452	2.068452	0.493811	-0.140462	-0.296239	-0.036549	-0.013653	0.017817
209	1.042197	0.005000	9.571867	-0.067195	2.091005	0.494704	-0.139793	-0.297983	-0.035453	-0.006753	0.008054
210	1.047197	0.005000	9.584423	-0.039240	2.073215	0.495596	-0.139124	-0.299727	-0.027001	-0.013783	0.011378
211	1.052197	0.005000	9.632543	0.039240	1.982497	0.496489	-0.138454	-0.301471	-0.035619	-0.007466	0.011690
212	1.057197	0.005000	9.598718	-0.039240	2.043505	0.497381	-0.137785	-0.303215	-0.026100	-0.014914	0.010748
213	1.062197	0.005000	9.582335	0.000000	2.024748	0.498274	-0.137116	-0.304959	-0.018824	-0.005205	0.009055
214	1.067197	0.005000	9.587902	-0.078480	1.936102	0.499166	-0.136446	-0.306703	-0.006840	0.002549	0.004036
215	1.072197	0.005000	9.580898	-0.100414	1.940066	0.500007	-0.135828	-0.308308	-0.000098	-0.005524	0.005335
216	1.077197	0.005000	9.520735	-0.109502	1.953782	0.500119	-0.135940	-0.307935	0.002967	0.006131	0.008463
217	1.082197	0.005000	9.607997	-0.072677	1.956197	0.500231	-0.136051	-0.307561	0.022363	-0.003434	0.011155
218	1.087197	0.005000	9.574560	-0.003398	2.004638	0.500342	-0.136163	-0.307187	0.023224	-0.002591	0.000702
219	1.092197	0.005000	9.535320	-0.080440	2.001240	0.500454	-0.136274	-0.306814	0.029787	0.003483	0.002092
220	1.097197	0.005000	9.535320	-0.156960	2.076906	0.500565	-0.136386	-0.306440	0.031462	-0.005191	0.002139
221	1.102197	0.005000	9.531479	-0.164643	2.072037	0.500677	-0.136497	-0.306066	0.022193	-0.005297	-0.000881
222	1.107197	0.005000	9.712780	-0.111473	2.007487	0.500788	-0.136609	-0.305692	0.027550	-0.009800	0.013927
223	1.112197	0.005000	9.661690	-0.139659	2.093009	0.500900	-0.136720	-0.305319	0.021237	0.002288	0.006175
224	1.117197	0.005000	9.557450	-0.145895	2.068655	0.501012	-0.136832	-0.304945	0.021308	-0.016982	0.007382
225	1.122197	0.005000	9.445162	-0.184522	2.093501	0.501123	-0.136944	-0.304571	0.004498	-0.014414	0.011680
226	1.127197	0.005000	9.260640	-0.103863	2.056636	0.501235	-0.137055	-0.304198	-0.012367	-0.005733	0.006446
227	1.132197	0.005000	9.322722	-0.016398	2.038332	0.501346	-0.137167	-0.303824	-0.013299	-0.009086	0.005549
228	1.137197	0.005000	9.592879	0.020921	2.061401	0.501458	-0.137278	-0.303450	-0.004362	-0.007645	-0.000664
229	1.142197	0.005000	9.730355	-0.094409	1.906831	0.502029	-0.136547	-0.304017	0.009023	-0.007578	0.003260
230	1.147197	0.005000	9.600557	-0.170203	1.844280	0.502810	-0.135432	-0.305013	-0.004265	-0.006957	0.005329
231	1.152197	0.005000	9.513649	-0.313920	1.883520	0.503590	-0.134317	-0.306010	-0.037684	-0.017609	-0.009486
232	1.157197	0.005000	9.465261	-0.370001	1.751822	0.504371	-0.133202	-0.307006	-0.055680	-0.017583	0.004080
233	1.162197	0.005000	9.462855	-0.268665	1.850295	0.505151	-0.132087	-0.308002	-0.078527	-0.010687	0.003119
234	1.167197	0.005000	9.613800	-0.153405	1.847835	0.505932	-0.130972	-0.308998	-0.087380	-0.015893	0.003665
235	1.172197	0.005000	9.657760	-0.039240	1.920400	0.506712	-0.129857	-0.309994	-0.082004	-0.018733	0.007549
236	1.177197	0.005000	9.848016	0.036791	1.806264	0.507493	-0.128742	-0.310991	-0.067410	-0.010791	0.014275
237	1.182197	0.005000	9.881223	0.260166	1.958371	0.508273	-0.127627	-0.311987	-0.040717	-0.021185	0.019029
238	1.187197	0.005000	9.803955	0.280725	2.034435	0.509054	-0.126512	-0.312983	-0.002325	-0.023422	0.021619
239	1.192197	0.005000	9.552222	0.353160	2.180538	0.509834	-0.125397	-0.313979	0.043882	-0.022602	0.018742
240	1.197197	0.005000	9.539500	0.527650	2.406990	0.510615	-0.124282	-0.314975	0.090363	-0.013050	0.011629
241	1.202197	0.005000	9.456840	0.443742	2.328729	0.511395	-0.123167	-0.315971	0.129549	-0.012189	0.014720
242	1.207197	0.005000	9.417600	0.377757	2.409599	0.511940	-0.122354	-0.316629	0.157689	-0.001266	0.019329
243	1.212197	0.005000	9.496080	0.115148	2.275920	0.511940	-0.122243	-0.316505	0.157205	0.010615	0.019325
244	1.217197	0.005000	9.454631	-0.092579	2.236680	0.511940	-0.122131	-0.316380	0.154695	0.011892	0.031406
245	1.222197	0.005000	9.488563	-0.338125	2.275920	0.511940	-0.122020	-0.316256	0.134002	0.007613	0.007528
246	1.227197	0.005000	9.653040	-0.602052	2.224345	0.511940	-0.121908	-0.316131	0.101075	0.004297	0.014099
247	1.232197	0.005000	9.613800	-0.660956	2.253843	0.511940	-0.121797	-0.316007	0.051709	0.006386	0.022859
248	1.237197	0.005000	9.675017	-0.750274	2.188808	0.511940	-0.121686	-0.315882	0.013149	-0.015262	0.018219
249	1.242197	0.005000	9.592985	-0.477022	2.079720	0.511940	-0.121574	-0.315758	-0.016983	-0.037507	0.021223
250	1.247197	0.005000	9.688513	-0.416573	2.118960	0.511940	-0.121463	-0.315633	-0.062607	-0.068995	0.013734
251	1.252197	0.005000	9.608294	-0.154207	1.998487	0.511940	-0.121351	-0.315509	-0.068839	-0.090564	0.025742
252	1.257197	0.005000	9.533299	-0.078480	1.884530	0.511940	-0.121240	-0.315384	-0.079200	-0.096320	0.023974
253	1.262197	0.005000	9.502936	-0.075052	1.897233	0.511940	-0.121128	-0.315259	-0.086703	-0.106703	0.022550
254	1.267197	0.005000	9.535320	-0.033407	1.738226	0.511940	-0.121017	-0.315135	-0.089352	-0.091654	0.021790
255	1.272197	0.005000	9.465447	-0.039240	1.748585	0.511940	-0.120905	-0.315010	-0.095906	-0.085107	0.005911
256	1.277197	0.005000	9.389357	0.000000	1.787795	0.511326	-0.120896	-0.314772	-0.088087	-0.068172	0.017838
257	1.282197	0.005000	9.561188	0.013372	1.726560	0.510657	-0.120896	-0.314523	-0.094764	-0.041015	0.002257
258	1.287197	0.005000	9.597853	-0.046586	1.655426	0.509988	-0.120896	-0.314273	-0.079889	-0.033842	0.001614
259	1.292197	0.005000	9.634683	-0.099363	1.564548	0.509318	-0.120896	-0.314024	-0.069303	-0.018863	0.007604
260	1.297197	0.005000	9.692280	-0.080761	1.451880	0.508649	-0.120896	-0.313775	-0.051848	-0.003533	0.004103
261	1.302197	0.005000	9.676211	-0.165928	1.421608	0.507980	-0.120896	-0.313526	-0.014693	-0.000507	0.006839
262	1.307197	0.005000	9.680353	-0.235440	1.465537	0.507310	-0.120896	-0.313277	-0.007078	-0.004020	0.005002
263	1.312197	0.005000	9.658924	-0.162844	1.429643	0.506641	-0.120896	-0.313028	0.017294	0.013419	0.008473
264	1.317197	0.005000	9.565832	-0.017457	1.416966	0.505972	-0.120896	-0.312779	0.034308	0.025072	0.006441
265	1.322197	0.005000	9.521494	-0.084833	1.392460	0.505302	-0.120896	-0.312530	0.050122	0.024450	-0.000601
266	1.327197	0.005000	9.570597	-0.086407	1.538287	0.504633	-0.120896	-0.312280	0.059042	0.029463	0.001597
267	1.332197	0.005000	9.535320	-0.116132	1.651257	0.503964	-0.120896	-0.312031	0.060341	0.025869	-0.001428
268	1.337197	0.005000	9.496891	-0.078480	1.726560	0.503294	-0.120896	-0.311782	0.067424	0.028802	0.000932
269	1.342197	0.005000	9.567269	-0.114074	1.733851	0.503345	-0.121076	-0.311868	0.061553	0.038064	-0.001475
270	1.347197	0.005000	9.568539	-0.117720	1.922760	0.504014	-0.121410	-0.312241	0.058513	0.036442	-0.012975
271	1.352197	0.005000	9.456840	-0.086891	2.048891	0.504683	-0.121745	-0.312615	0.053282	0.044775	0.008959
272	1.357197	0.005000	9.506866	-0.135389	2.001240	0.505352	-0.122079	-0.312989	0.050396	0.041609	-0.000709
273	1.362197	0.005000	9.613513	-0.222264	2.079433	0.506021	-0.122414	-0.313362	0.036616	0.040145	0.001589
274	1.367197	0.005000	9.700418	-0.156960	2.111548	0.506690	-0.122748	-0.313736	0.016484	0.049666	0.001399
275	1.372197	0.005000	9.689342	-0.135871	2.140049	0.507359	-0.123083	-0.314109	0.006266	0.040120	0.000434
276	1.377197	0.005000	9.651157	-0.039240	2.274037	0.508028	-0.123417	-0.314483	-0.007528	0.042124	0.003729
277	1.382197	0.005000	9.659743	-0.088045	2.236680	0.508697	-0.123752	-0.314856	-0.019941	0.033077	-0.001833
278	1.387197	0.005000	9.627495	-0.223591	2.236680	0.509366	-0.124086	-0.315230	-0.028094	0.019553	-0.001225
279	1.392197	0.005000	9.692280	-0.235440	2.225365	0.510035	-0.124421	-0.315603	-0.031842	0.015663	-0.005244
280	1.397197	0.005000	9.683340	-0.139080	2.127900	0.510704	-0.124755	-0.315977	-0.022332	0.009476	0.009053
281	1.402197	0.005000	9.554910	-0.071930	2.197440	0.511373	-0.125090	-0.316351	-0.014775	0.014291	-0.000817
282	1.407197	0.005000	9.491905	-0.047590	2.189090	0.511940	-0.125356	-0.316743	-0.019066	0.005109	-0.007170
283	1.412197	0.005000	9.572775	-0.039240	2.158200	0.511940	-0.125244	-0.317241	-0.013012	0.001653	-0.002435
284	1.417197	0.005000	9.612606	-0.039240	2.042271	0.511940	-0.125133	-0.317740	-0.010132	0.000133	0.002912
285	1.422197	0.005000	9.544365	-0.039240	2.227635	0.511940	-0.125021	-0.318238	-0.001444	-0.004804	0.001222
286	1.427197	0.005000	9.641392	-0.033416	2.185792	0.511940	-0.124910	-0.318736	-0.001913	0.000073	-0.003400
287	1.432197	0.005000	9.543519	-0.031041	2.174598	0.511940	-0.124798	-0.319234	-0.003204	-0.012662	0.008544
288	1.437197	0.005000	9.535320	0.018062	2.040480	0.511940	-0.124687	-0.319733	-0.001813	-0.001162	-0.003323
289	1.442197	0.005000	9.614148	0.012964	2.040480	0.511940	-0.124575	-0.320231	-0.000268	-0.000767	-0.004113
290	1.447197	0.005000	9.676746	-0.071119	2.142666	0.511940	-0.124464	-0.320729	0.001918	-0.004765	0.008050
291	1.452197	0.005000	9.653040	-0.075127	2.204146	0.511940	-0.124352	-0.321227	-0.003449	-0.010584	-0.000157
292	1.457197	0.005000	9.653040	-0.039240	2.139315	0.511940	-0.124241	-0.321726	-0.001098	-0.016319	0.010219
293	1.462197	0.005000	9.597326	-0.022766	2.079720	0.511940	-0.124129	-0.322224	-0.004759	-0.012714	0.004326
294	1.467197	0.005000	9.588625	-0.039240	2.076766	0.511940	-0.124018	-0.322722	-0.001147	-0.025413	0.000758
295	1.472197	0.005000	9.602288	-0.023024	2.185928	0.511940	-0.123906	-0.323220	0.002016	-0.023078	0.003706
296	1.477197	0.005000	9.565423	-0.078480	2.100686	0.511509	-0.123881	-0.322851	-0.007638	-0.031178	0.012521
297	1.482197	0.005000	9.600276	-0.039240	2.072958	0.510951	-0.123881	-0.322229	-0.001296	-0.034530	0.018310
298	1.487197	0.005000	9.578932	-0.074108	1.922760	0.510394	-0.123881	-0.321606	0.000581	-0.021127	0.009301
299	1.492197	0.005000	9.647050	-0.078480	2.001240	0.509836	-0.123881	-0.320984	0.003535	-0.024521	0.017235
300	1.497197	0.005000	9.535320	-0.040087	2.039633	0.509279	-0.123881	-0.320361	-0.005573	-0.020928	0.009258
301	1.502197	0.005000	9.653040	0.000000	2.001240	0.508721	-0.123881	-0.319738	-0.001264	-0.019826	0.003182
302	1.507197	0.005000	9.647428	-0.039240	1.990016	0.508164	-0.123881	-0.319116	0.012769	-0.024561	0.003884
303	1.512197	0.005000	9.512085	-0.062475	1.962000	0.507606	-0.123881	-0.318493	0.011262	-0.022878	0.007903
304	1.517197	0.005000	9.650269	-0.039240	1.962000	0.507049	-0.123881	-0.317871	0.016737	-0.018491	0.015447
305	1.522197	0.005000	9.535320	-0.091397	1.988323	0.506491	-0.123881	-0.317248	0.019239	-0.014845	0.008251
306	1.527197	0.005000	9.526731	-0.165549	1.914171	0.505934	-0.123881	-0.316626	0.025948	-0.018617	0.013897
307	1.532197	0.005000	9.517582	-0.117720	1.965765	0.505376	-0.123881	-0.316003	0.024007	-0.017031	0.011790
308	1.537197	0.005000	9.632664	-0.135071	2.004265	0.504819	-0.123881	-0.315381	0.016494	-0.012217	0.010690
309	1.542197	0.005000	9.630289	-0.140471	1.968263	0.504608	-0.124228	-0.315145	0.020078	-0.021208	0.009959
310	1.547197	0.005000	9.549419	-0.106677	1.990197	0.504943	-0.125120	-0.315519	-0.001493	-0.009218	0.000696
311	1.552197	0.005000	9.496080	-0.145236	1.962000	0.505277	-0.126013	-0.315893	0.015782	-0.023657	0.008782
312	1.557197	0.005000	9.565227	-0.166293	1.980667	0.505612	-0.126905	-0.316266	0.001573	-0.012175	0.017106
313	1.562197	0.005000	9.489121	-0.117720	1.987323	0.505947	-0.127798	-0.316640	0.002243	-0.010525	0.013483
314	1.567197	0.005000	9.491917	-0.113557	1.931085	0.506281	-0.128690	-0.317014	0.003110	-0.012438	0.014207
315	1.572197	0.005000	9.497825	-0.076735	2.040480	0.506616	-0.129583	-0.317388	0.000798	-0.018449	0.007600
316	1.577197	0.005000	9.689678	-0.116419	2.040480	0.506951	-0.130475	-0.317761	-0.007250	-0.016814	0.021852
317	1.582197	0.005000	9.580611	-0.078480	1.965025	0.507285	-0.131368	-0.318135	-0.001210	-0.014355	0.008653
318	1.587197	0.005000	9.529904	-0.078480	2.024233	0.507620	-0.132260	-0.318509	0.002799	-0.014575	0.012300
319	1.592197	0.005000	9.613800	-0.047125	1.906991	0.507954	-0.133153	-0.318883	-0.002350	-0.012390	0.012616
320	1.597197	0.005000	9.624100	-0.057881	2.040480	0.508289	-0.134045	-0.319256	0.001082	-0.008535	0.010446
321	1.602197	0.005000	9.574560	0.000000	2.015065	0.508624	-0.134937	-0.319630	0.013429	-0.009912	0.007970
322	1.607197	0.005000	9.568438	-0.069481	1.946879	0.508957	-0.135811	-0.319998	0.009479	-0.009507	0.008173
323	1.612197	0.005000	9.596010	-0.042901	1.862070	0.509180	-0.134807	-0.319748	0.010449	-0.015252	0.014977
324	1.617197	0.005000	9.671026	-0.097555	2.001240	0.509403	-0.133803	-0.319499	0.011948	-0.008540	0.012559
325	1.622197	0.005000	9.692280	-0.111851	1.978685	0.509627	-0.132799	-0.319250	0.018467	-0.008599	0.009539
326	1.627197	0.005000	9.663659	-0.156960	1.976310	0.509850	-0.131795	-0.319001	0.015108	-0.007895	0.015061
327	1.632197	0.005000	9.535320	-0.117720	2.028560	0.510073	-0.130791	-0.318752	0.009975	-0.007444	0.007548
328	1.637197	0.005000	9.544865	-0.039240	2.011844	0.510296	-0.129787	-0.318503	0.011064	-0.012695	0.010126
329	1.642197	0.005000	9.645885	-0.021466	1.976310	0.510519	-0.128783	-0.318254	0.012784	-0.004748	0.008761
330	1.647197	0.005000	9.674826	-0.152597	2.005603	0.510742	-0.127779	-0.318005	0.015961	-0.008884	0.007558
331	1.652197	0.005000	9.537279	-0.039240	1.963959	0.510965	-0.126775	-0.317755	0.009100	-0.007895	0.007296
332	1.657197	0.005000	9.613346	-0.078026	2.040026	0.511188	-0.125771	-0.317506	0.011096	-0.014280	-0.003988
333	1.662197	0.005000	9.577389	-0.120549	2.076891	0.511411	-0.124767	-0.317257	0.010197	-0.011368	0.012447
334	1.667197	0.005000	9.760322	-0.073261	2.124179	0.511635	-0.123763	-0.317008	0.001789	-0.012567	0.006153
335	1.672197	0.005000	9.731520	-0.093668	1.874655	0.511858	-0.122758	-0.316759	0.003297	-0.014061	0.011522
336	1.677197	0.005000	9.663009	-0.156960	1.932729	0.511940	-0.122599	-0.316588	-0.015850	-0.014957	0.004559
337	1.682197	0.005000	9.574560	-0.156960	1.883520	0.511940	-0.122934	-0.316464	-0.002001	-0.013324	0.009412
338	1.687197	0.005000	9.510992	-0.147544	1.892936	0.511940	-0.123268	-0.316339	-0.003810	-0.009776	0.014109
339	1.692197	0.005000	9.557236	-0.095804	1.888111	0.511940	-0.123603	-0.316215	-0.019467	-0.003785	0.012556
340	1.697197	0.005000	9.594065	-0.039240	1.922530	0.511940	-0.123937	-0.316090	-0.013857	-0.018618	0.013758
341	1.702197	0.005000	9.748417	-0.061583	1.888966	0.511940	-0.124272	-0.315966	-0.000551	-0.015699	0.006473
342	1.707197	0.005000	9.648759	0.000000	2.001240	0.511940	-0.124606	-0.315841	0.010610	-0.014998	0.011140
343	1.712197	0.005000	9.601668	-0.090612	1.910628	0.511940	-0.124941	-0.315717	0.005604	-0.009813	0.014427
344	1.717197	0.005000	9.653040	-0.147218	1.893262	0.511940	-0.125276	-0.315592	0.006534	-0.010817	0.006548
345	1.722197	0.005000	9.535320	-0.149593	1.890887	0.511940	-0.125610	-0.315468	0.008807	-0.016137	0.008591
346	1.727197	0.005000	9.486928	-0.048392	1.913608	0.511940	-0.125945	-0.315343	-0.000115	-0.011330	0.001225
347	1.732197	0.005000	9.491763	-0.115561	1.885679	0.511940	-0.126279	-0.315218	0.002792	-0.010120	0.012466
348	1.737197	0.005000	9.417600	-0.117478	2.000756	0.511940	-0.126614	-0.315094	0.012802	-0.004765	0.017567
349	1.742197	0.005000	9.537952	-0.078480	1.925392	0.511775	-0.126866	-0.315031	-0.005376	0.000168	0.009509
350	1.747197	0.005000	9.496080	-0.044308	1.962000	0.511106	-0.126866	-0.315155	0.009275	-0.005158	0.016381
351	1.752197	0.005000	9.638072	-0.007484	2.167505	0.510437	-0.126866	-0.315280	0.006519	0.006071	0.020859
352	1.757197	0.005000	9.545210	-0.058699	2.021021	0.509767	-0.126866	-0.315404	0.012751	-0.005726	0.017259
353	1.762197	0.005000	9.584496	0.002358	2.003598	0.509098	-0.126866	-0.315529	0.008054	-0.003298	0.015334
354	1.767197	0.005000	9.628791	0.000000	1.962000	0.508429	-0.126866	-0.315654	0.007152	-0.011983	0.011100
355	1.772197	0.005000	9.674899	-0.021859	2.044958	0.507759	-0.126866	-0.315778	-0.002650	-0.007550	0.016224
356	1.777197	0.005000	9.692280	0.019484	2.040480	0.507090	-0.126866	-0.315903	-0.002469	-0.007792	0.011890
357	1.782197	0.005000	9.579612	-0.005052	1.962000	0.506421	-0.126866	-0.316027	-0.007065	-0.014534	0.015076
358	1.787197	0.005000	9.628222	-0.024818	1.962000	0.505751	-0.126866	-0.316152	-0.007624	-0.005425	0.011191
359	1.792197	0.005000	9.601786	-0.117720	1.922760	0.505082	-0.126866	-0.316277	-0.014176	-0.013159	0.018745
360	1.797197	0.005000	9.505679	-0.117720	2.030881	0.504413	-0.126866	-0.316401	-0.009922	-0.001374	0.014404
361	1.802197	0.005000	9.660150	-0.110610	2.118960	0.503743	-0.126866	-0.316526	-0.002847	-0.007191	0.006915
362	1.807197	0.005000	9.638881	-0.078480	2.139321	0.503074	-0.126866	-0.316650	-0.002555	-0.012970	0.022056
363	1.812197	0.005000	9.648351	-0.078480	2.075031	0.503178	-0.126576	-0.316559	-0.003540	-0.016275	0.011158
364	1.817197	0.005000	9.496172	-0.078480	2.001240	0.503401	-0.126241	-0.316434	0.001718	-0.010074	0.012143
365	1.822197	0.005000	9.501859	-0.039240	1.964889	0.503624	-0.125907	-0.316310	-0.001588	-0.004933	0.008728
366	1.827197	0.005000	9.637247	-0.044504	1.985447	0.503847	-0.125572	-0.316185	0.002636	-0.011407	0.013545
367	1.832197	0.005000	9.621454	-0.078480	1.969654	0.504070	-0.125238	-0.316061	0.007584	-0.007563	0.014997
368	1.837197	0.005000	9.545349	-0.049269	1.903579	0.504293	-0.124903	-0.315936	0.008367	-0.012362	0.019367
369	1.842197	0.005000	9.653040	-0.026821	1.937161	0.504516	-0.124569	-0.315812	0.012699	-0.008813	0.008990
370	1.847197	0.005000	9.589354	-0.024446	1.976794	0.504739	-0.124234	-0.315687	0.006562	-0.007892	0.014296
371	1.852197	0.005000	9.552706	-0.100334	1.944614	0.504962	-0.123899	-0.315563	0.008202	-0.006288	0.010012
372	1.857197	0.005000	9.614152	-0.097924	1.902964	0.505185	-0.123565	-0.315438	0.014245	0.001688	0.013032
373	1.862197	0.005000	9.473880	-0.213240	1.944960	0.505409	-0.123230	-0.315314	0.010711	-0.005277	0.011148
374	1.867197	0.005000	9.535320	-0.156960	1.898151	0.505632	-0.122896	-0.315189	0.008647	0.001454	0.016062
375	1.872197	0.005000	9.538345	-0.105648	1.832208	0.505855	-0.122561	-0.315064	0.004276	0.006270	0.003518
376	1.877197	0.005000	9.495626	-0.196200	1.873823	0.505432	-0.123033	-0.313439	0.022615	-0.002325	0.010996
377	1.882197	0.005000	9.684974	-0.142347	1.937373	0.504317	-0.124371	-0.310201	0.009249	-0.001934	0.002559
378	1.887197	0.005000	9.609283	-0.270163	2.044997	0.503202	-0.125710	-0.306964	0.002147	-0.009335	0.005024
379	1.892197	0.005000	9.576672	-0.196200	2.079720	0.502087	-0.127048	-0.303727	0.013315	-0.012343	0.008747
380	1.897197	0.005000	9.574863	-0.157263	2.118657	0.500972	-0.128386	-0.300489	0.007201	-0.003373	-0.000652
381	1.902197	0.005000	9.571850	-0.078480	2.043190	0.499857	-0.129724	-0.297252	0.008375	-0.015523	0.005921
382	1.907197	0.005000	9.501207	-0.162087	1.996113	0.498742	-0.131062	-0.294014	0.011829	-0.003538	-0.005852
383	1.912197	0.005000	9.669682	-0.172025	2.111427	0.497627	-0.132400	-0.290777	0.026270	-0.004412	0.001987
384	1.917197	0.005000	9.603852	-0.088428	2.040480	0.496512	-0.133738	-0.287539	0.024825	-0.013144	0.002762
385	1.922197	0.005000	9.587237	-0.064593	2.026593	0.495397	-0.135077	-0.284302	0.027682	-0.006030	-0.006105
386	1.927197	0.005000	9.583697	-0.093532	2.025428	0.494282	-0.136415	-0.281065	0.032820	-0.017460	-0.007914
387	1.932197	0.005000	9.565847	-0.122077	2.062278	0.493167	-0.137753	-0.277827	0.023710	-0.010956	-0.008236
388	1.937197	0.005000	9.553631	-0.196200	2.062282	0.492052	-0.139091	-0.274590	0.022564	-0.012570	-0.004283
389	1.942197	0.005000	9.647347	-0.218667	1.832894	0.491034	-0.140277	-0.271897	0.021194	-0.011837	-0.003360
390	1.947197	0.005000	9.485562	-0.103359	2.054841	0.490923	-0.140054	-0.274264	0.028898	-0.017284	-0.015093
391	1.952197	0.005000	9.570763	-0.090294	2.067906	0.490811	-0.139831	-0.276631	0.015713	-0.019651	0.002044
392	1.957197	0.005000	9.594921	-0.018879	2.059359	0.490699	-0.139608	-0.278998	0.012388	-0.017349	-0.014343
393	1.962197	0.005000	9.581233	-0.150287	2.033807	0.490588	-0.139385	-0.281364	0.019530	-0.024221	-0.000370
394	1.967197	0.005000	9.618056	-0.117720	2.106191	0.490476	-0.139161	-0.283731	0.021949	-0.025999	-0.008764
395	1.972197	0.005000	9.608245	-0.115868	2.042332	0.490365	-0.138938	-0.286098	0.016436	-0.027218	-0.012079
396	1.977197	0.005000	9.612121	-0.155841	2.041040	0.490253	-0.138715	-0.288465	0.011190	-0.027993	0.000305
397	1.982197	0.005000	9.580429	-0.081415	2.001240	0.490141	-0.138492	-0.290832	0.012110	-0.027411	-0.016868
398	1.987197	0.005000	9.681630	-0.112395	2.069070	0.490030	-0.138269	-0.293199	0.001418	-0.021605	-0.007633
399	1.992197	0.005000	9.558419	-0.007700	1.985099	0.489918	-0.138045	-0.295565	0.008806	-0.024092	-0.011392
400	1.997197	0.005000	9.594976	-0.029032	1.932968	0.489807	-0.137822	-0.297932	0.009831	-0.034436	-0.005086
401	2.002197	0.005000	9.679664	-0.051856	1.947991	0.489695	-0.137599	-0.300299	0.003015	-0.025202	-0.010361
402	2.007197	0.005000	9.565377	-0.048423	1.992057	0.489583	-0.137376	-0.302666	0.011283	-0.032100	-0.009696
403	2.012197	0.005000	9.599943	-0.078480	1.940459	0.490273	-0.137313	-0.303154	0.015781	-0.030720	-0.006285
404	2.017197	0.005000	9.633874	-0.098554	1.863446	0.491276	-0.137313	-0.302905	0.011994	-0.022380	-0.006854
405	2.022197	0.005000	9.552096	-0.039240	1.922760	0.492280	-0.137313	-0.302656	0.022478	-0.029495	-0.001711
406	2.027197	0.005000	9.574560	-0.064079	1.962000	0.493284	-0.137313	-0.302407	0.029936	-0.029357	-0.008761
407	2.032197	0.005000	9.535320	-0.024022	1.962000	0.494287	-0.137313	-0.302158	0.029833	-0.031530	-0.010755
408	2.037197	0.005000	9.604522	-0.078480	1.952722	0.495291	-0.137313	-0.301909	0.026204	-0.021618	-0.010568
409	2.042197	0.005000	9.509823	-0.078480	1.890392	0.496294	-0.137313	-0.301660	0.029554	-0.021662	-0.013904
410	2.047197	0.005000	9.491625	-0.152505	1.918305	0.497298	-0.137313	-0.301411	0.031305	-0.019065	-0.004656
411	2.052197	0.005000	9.496080	-0.078480	1.844280	0.498301	-0.137313	-0.301162	0.026615	-0.025533	-0.023363
412	2.057197	0.005000	9.534972	0.038196	1.960956	0.499305	-0.137313	-0.300913	0.035159	-0.038431	-0.013808
413	2.062197	0.005000	9.540796	-0.036502	1.930974	0.500309	-0.137313	-0.300664	0.027482	-0.029946	-0.014916
414	2.067197	0.005000	9.569385	-0.073305	1.893870	0.501312	-0.137313	-0.300415	0.018611	-0.027527	-0.011894
415	2.072197	0.005000	9.606209	-0.110129	1.859462	0.502316	-0.137313	-0.300166	0.019054	-0.032877	-0.006889
416	2.077197	0.005000	9.663038	-0.098475	1.981245	0.502985	-0.137016	-0.300083	0.017442	-0.026169	-0.004480
417	2.082197	0.005000	9.626212	-0.064063	2.001240	0.502985	-0.136123	-0.300332	0.013449	-0.040420	0.001424
418	2.087197	0.005000	9.550140	-0.014820	1.947180	0.502985	-0.135231	-0.300581	0.002291	-0.045356	-0.001833
419	2.092197	0.005000	9.469298	-0.022007	1.954317	0.502985	-0.134338	-0.300830	0.005611	-0.038519	-0.010402
420	2.097197	0.005000	9.496080	-0.039240	1.962000	0.502985	-0.133446	-0.301079	0.000184	-0.034955	-0.005992
421	2.102197	0.005000	9.591548	-0.061492	1.844280	0.502985	-0.132553	-0.301329	-0.006191	-0.032353	-0.020695
422	2.107197	0.005000	9.623844	-0.024642	1.805040	0.502985	-0.131661	-0.301578	0.003458	-0.035241	-0.013781
423	2.112197	0.005000	9.613800	-0.078480	1.778023	0.502985	-0.130769	-0.301827	-0.007135	-0.030863	-0.011449
424	2.117197	0.005000	9.594135	-0.029407	1.863945	0.502985	-0.129876	-0.302076	-0.002213	-0.027625	0.001245
425	2.122197	0.005000	9.520405	-0.071022	1.954542	0.502985	-0.128984	-0.302325	0.006269	-0.022617	-0.008988
426	2.127197	0.005000	9.613800	-0.087816	1.922760	0.502985	-0.128091	-0.302574	0.010996	-0.026267	-0.007025
427	2.132197	0.005000	9.687779	-0.036989	1.920509	0.502985	-0.127199	-0.302823	0.008462	-0.020013	-0.003292
428	2.137197	0.005000	9.613800	0.039089	1.961697	0.502985	-0.126306	-0.303072	-0.000861	-0.015462	-0.008121
429	2.142197	0.005000	9.689739	0.039240	1.810123	0.502985	-0.125414	-0.303322	0.009888	-0.025470	-0.001547
430	2.147197	0.005000	9.653040	0.004974	1.986318	0.503411	-0.126118	-0.303809	0.015366	-0.025796	-0.003877
431	2.152197	0.005000	9.628559	0.039240	1.905659	0.503857	-0.126899	-0.304307	0.013010	-0.027056	0.005309
432	2.157197	0.005000	9.623595	0.039240	1.834485	0.504303	-0.127680	-0.304805	-0.004581	-0.029391	0.000443
433	2.162197	0.005000	9.520484	-0.039240	1.898356	0.504749	-0.128461	-0.305303	-0.009790	-0.035297	-0.012464
434	2.167197	0.005000	9.441940	-0.024340	1.874081	0.505196	-0.129242	-0.305802	0.002337	-0.037599	-0.001242
435	2.172197	0.005000	9.596510	-0.039240	1.817671	0.505642	-0.130023	-0.306300	0.006131	-0.011307	0.001207
436	2.177197	0.005000	9.613891	-0.039240	2.001240	0.506088	-0.130804	-0.306798	0.019442	-0.012824	0.001151
437	2.182197	0.005000	9.591486	-0.039240	1.978926	0.506534	-0.131585	-0.307297	0.010514	-0.005153	0.007441
438	2.187197	0.005000	9.535320	-0.053754	1.932972	0.506981	-0.132366	-0.307795	0.020189	-0.006864	0.002741
439	2.192197	0.005000	9.574560	-0.105614	1.832174	0.507427	-0.133147	-0.308293	0.007537	-0.012842	0.010694
440	2.197197	0.005000	9.525629	-0.088171	1.756109	0.507873	-0.133928	-0.308792	-0.008970	-0.019094	0.004372
441	2.202197	0.005000	9.559990	0.000000	1.819610	0.508319	-0.134708	-0.309290	-0.002944	-0.021470	0.007863
442	2.207197	0.005000	9.402412	-0.108099	1.814661	0.508766	-0.135489	-0.309788	-0.003194	-0.009464	-0.006363
443	2.212197	0.005000	9.574560	-0.004871	1.731431	0.508827	-0.135372	-0.310072	0.013720	-0.019658	0.004580
444	2.217197	0.005000	9.574651	-0.078480	1.844280	0.508604	-0.134591	-0.310196	0.006988	-0.006536	0.015539
445	2.222197	0.005000	9.689922	-0.115362	1.954927	0.508381	-0.133811	-0.310321	0.008227	-0.015218	0.004290
446	2.227197	0.005000	9.569785	-0.112945	1.814590	0.508158	-0.133030	-0.310445	0.004967	-0.013615	-0.000402
447	2.232197	0.005000	9.565574	-0.039240	1.844280	0.507935	-0.132250	-0.310570	-0.010149	0.000146	-0.004268
448	2.237197	0.005000	9.496080	-0.039240	1.765800	0.507712	-0.131469	-0.310694	-0.007934	-0.012244	-0.000714
449	2.242197	0.005000	9.589173	-0.053853	1.883520	0.507489	-0.130688	-0.310819	-0.010473	-0.004579	0.003815
450	2.247197	0.005000	9.574560	-0.014704	1.873687	0.507266	-0.129908	-0.310943	0.004767	-0.016014	0.003677
451	2.252197	0.005000	9.547316	0.000000	1.866441	0.507043	-0.129127	-0.311068	0.003515	-0.008159	0.013511
452	2.257197	0.005000	9.476309	-0.019771	1.824509	0.506820	-0.128347	-0.311193	0.001907	-0.000633	0.010082
453	2.262197	0.005000	9.417600	-0.022108	1.726560	0.506597	-0.127566	-0.311317	0.007162	-0.006928	0.018288
454	2.267197	0.005000	9.525525	0.000000	1.726560	0.506374	-0.126786	-0.311442	0.002741	-0.005237	0.014624
455	2.272197	0.005000	9.547629	0.024619	1.881208	0.506151	-0.126005	-0.311566	0.003435	-0.003716	0.013550
456	2.277197	0.005000	9.545107	0.000000	1.854067	0.505949	-0.125352	-0.311714	0.014318	-0.010994	0.007005
457	2.282197	0.005000	9.567163	-0.071083	1.859074	0.505837	-0.125240	-0.311964	0.010275	0.000308	0.013603
458	2.287197	0.005000	9.642996	-0.015067	1.951956	0.505726	-0.125129	-0.312213	0.004104	0.003812	0.014782
459	2.292197	0.005000	9.543216	-0.033976	1.883520	0.505614	-0.125017	-0.312462	-0.000971	0.005538	0.017799
460	2.297197	0.005000	9.614057	-0.000257	1.844023	0.505503	-0.124906	-0.312711	0.008491	0.005486	0.009151
461	2.302197	0.005000	9.579734	-0.039240	1.878346	0.505391	-0.124794	-0.312960	0.004627	0.004626	0.013527
462	2.307197	0.005000	9.540297	-0.073503	1.888497	0.505280	-0.124683	-0.313209	0.002508	0.004868	0.012615
463	2.312197	0.005000	9.591745	-0.206033	1.954648	0.505168	-0.124571	-0.313458	0.003932	0.016376	0.008597
464	2.317197	0.005000	9.613800	-0.186458	1.873778	0.505057	-0.124460	-0.313707	-0.005260	0.006315	0.011975
465	2.322197	0.005000	9.535320	-0.129837	1.910643	0.504945	-0.124348	-0.313957	0.001786	-0.004685	0.021646
466	2.327197	0.005000	9.662927	-0.117720	1.962000	0.504834	-0.124237	-0.314206	-0.000949	0.010750	0.018034
467	2.332197	0.005000	9.608732	-0.056326	1.962000	0.504722	-0.124125	-0.314455	-0.001355	0.000882	0.013633
468	2.337197	0.005000	9.496080	-0.098230	1.942510	0.504611	-0.124014	-0.314704	0.003847	0.000706	0.013823
469	2.342197	0.005000	9.574560	-0.117720	1.940100	0.504499	-0.123902	-0.314953	-0.002446	-0.003027	0.004349
470	2.347197	0.005000	9.555790	-0.063553	1.962000	0.505021	-0.124424	-0.314697	-0.007792	-0.002745	0.018583
471	2.352197	0.005000	9.562186	-0.078480	2.013614	0.505690	-0.125093	-0.314323	0.000112	0.001538	0.014415
472	2.357197	0.005000	9.545304	-0.117720	1.971984	0.506360	-0.125763	-0.313949	0.008179	-0.003877	0.015309
473	2.362197	0.005000	9.542929	-0.078480	2.079720	0.507029	-0.126432	-0.313576	0.003127	-0.001366	0.019511
474	2.367197	0.005000	9.647821	-0.112501	2.035261	0.507698	-0.127101	-0.313202	0.002605	-0.009899	0.008073
475	2.372197	0.005000	9.686592	-0.069948	2.076876	0.508368	-0.127771	-0.312828	0.009048	-0.012219	0.008560
476	2.377197	0.005000	9.692280	-0.000908	1.962454	0.509037	-0.128440	-0.312454	-0.002324	-0.002409	-0.006286
477	2.382197	0.005000	9.654984	-0.041184	2.038536	0.509707	-0.129110	-0.312081	0.006265	0.002747	0.001075
478	2.387197	0.005000	9.657805	-0.004765	2.035715	0.510376	-0.129779	-0.311707	0.009850	0.003732	0.008382
479	2.392197	0.005000	9.606645	-0.007155	2.026170	0.511045	-0.130448	-0.311333	0.008600	-0.009313	0.015173
480	2.397197	0.005000	9.535320	-0.059420	2.030950	0.511715	-0.131118	-0.310960	0.010574	-0.002553	0.013898
481	2.402197	0.005000	9.547240	-0.090400	2.016640	0.512384	-0.131787	-0.310586	0.002213	-0.013477	0.007732
482	2.407197	0.005000	9.599332	-0.092948	1.990936	0.513053	-0.132456	-0.310212	0.005257	-0.014773	0.016068
483	2.412197	0.005000	9.647561	-0.078480	2.012198	0.513047	-0.132691	-0.310108	-0.004967	-0.004276	0.009675
484	2.417197	0.005000	9.613800	-0.059189	2.118302	0.512155	-0.132357	-0.310357	-0.003364	-0.009941	0.001234
485	2.422197	0.005000	9.574560	-0.095816	2.040480	0.511263	-0.132022	-0.310606	0.003115	-0.012382	0.009260
486	2.427197	0.005000	9.638079	-0.117720	1.902157	0.510371	-0.131688	-0.310855	-0.000137	-0.013103	0.005530
487	2.432197	0.005000	9.574560	-0.144389	1.856851	0.509479	-0.131353	-0.311104	0.002202	-0.014243	0.004936
488	2.437197	0.005000	9.535320	-0.117720	1.903911	0.508587	-0.131019	-0.311353	0.000124	-0.009947	0.003740
489	2.442197	0.005000	9.581998	-0.078480	2.025604	0.507695	-0.130684	-0.311602	0.002980	-0.011856	0.006519
490	2.447197	0.005000	9.574560	-0.156960	1.888542	0.506803	-0.130349	-0.311851	-0.000216	-0.016139	-0.000487
491	2.452197	0.005000	9.574560	-0.081097	1.959383	0.505911	-0.130015	-0.312100	0.007662	-0.012398	0.008635
492	2.457197	0.005000	9.613800	-0.039633	1.962000	0.505019	-0.129680	-0.312349	-0.009322	-0.006036	0.005252
493	2.462197	0.005000	9.502694	-0.080685	1.887929	0.504127	-0.129346	-0.312598	-0.003200	-0.003958	0.000406
494	2.467197	0.005000	9.431466	-0.078480	1.858146	0.503235	-0.129011	-0.312847	0.002126	-0.014746	0.006463
495	2.472197	0.005000	9.463867	-0.085507	1.876493	0.502343	-0.128677	-0.313096	-0.003938	-0.013867	0.001467
496	2.477197	0.005000	9.546232	-0.059595	1.903875	0.501504	-0.128353	-0.313309	-0.001869	-0.010821	0.004184
497	2.482197	0.005000	9.578250	-0.027390	1.934610	0.501727	-0.128241	-0.312811	0.006981	-0.005734	0.009791
498	2.487197	0.005000	9.574560	-0.024976	1.780064	0.501950	-0.128130	-0.312313	0.002588	-0.006468	0.007276
499	2.492197	0.005000	9.597127	-0.140287	1.951222	0.502173	-0.128018	-0.311815	0.001981	-0.004379	0.000408
500	2.497197	0.005000	9.554637	-0.097797	1.843675	0.502396	-0.127907	-0.311317	0.005026	-0.003904	-0.001494
501	2.502197	0.005000	9.657215	-0.039240	1.901052	0.502619	-0.127795	-0.310819	0.002030	-0.008438	0.015315
502	2.507197	0.005000	9.646808	-0.030315	1.907603	0.502842	-0.127684	-0.310321	-0.003381	-0.001716	0.008150
503	2.512197	0.005000	9.640273	-0.039240	1.909993	0.503065	-0.127572	-0.309823	-0.009962	-0.013142	0.002686
504	2.517197	0.005000	9.702672	-0.028848	1.972392	0.503288	-0.127461	-0.309325	-0.002757	-0.006753	0.005332
505	2.522197	0.005000	9.589840	-0.031600	1.969640	0.503511	-0.127349	-0.308827	-0.001062	0.002800	0.007516
506	2.527197	0.005000	9.530086	-0.078480	1.917526	0.503734	-0.127238	-0.308329	0.009954	-0.004722	0.011912
507	2.532197	0.005000	9.571777	-0.042023	1.922760	0.503957	-0.127127	-0.307831	0.002737	-0.005536	0.004672
508	2.537197	0.005000	9.614208	-0.038423	1.922760	0.504180	-0.127015	-0.307333	0.003677	-0.001492	0.008094
509	2.542197	0.005000	9.727510	0.039240	1.997230	0.504403	-0.126904	-0.306835	0.012537	-0.001282	0.007405
510	2.547197	0.005000	9.609391	-0.104492	2.005649	0.504700	-0.126718	-0.306997	0.011896	-0.004549	0.002691
511	2.552197	0.005000	9.595037	-0.085306	2.001240	0.505034	-0.126495	-0.307495	0.014172	-0.003360	0.014903
512	2.557197	0.005000	9.625344	-0.078480	1.823504	0.505369	-0.126272	-0.307994	0.017343	-0.005338	0.009615
513	2.562197	0.005000	9.578860	-0.106073	1.943007	0.505704	-0.126049	-0.308492	0.002691	-0.010233	0.005490
514	2.567197	0.005000	9.653040	-0.128249	1.976356	0.506038	-0.125826	-0.308990	0.008289	-0.002140	0.007386
515	2.572197	0.005000	9.630531	-0.117720	2.046259	0.506373	-0.125603	-0.309488	0.006389	-0.010548	0.011828
516	2.577197	0.005000	9.673159	0.000000	2.118960	0.506707	-0.125380	-0.309987	0.012032	-0.010177	0.016123
517	2.582197	0.005000	9.696032	-0.013993	2.001240	0.507042	-0.125156	-0.310485	0.001141	-0.013734	0.014119
518	2.587197	0.005000	9.692280	-0.108629	2.010331	0.507377	-0.124933	-0.310983	0.006326	-0.017672	0.008682
519	2.592197	0.005000	9.547982	-0.065818	2.001240	0.507711	-0.124710	-0.311481	0.008048	-0.012888	0.007255
520	2.597197	0.005000	9.642786	-0.068226	1.980732	0.508046	-0.124487	-0.311980	0.002788	-0.012226	0.007557
521	2.602197	0.005000	9.629524	-0.109881	1.946322	0.508381	-0.124264	-0.312478	0.006098	-0.006254	0.009694
522	2.607197	0.005000	9.647670	-0.039240	1.922760	0.508715	-0.124041	-0.312976	0.006066	-0.014438	0.004061
523	2.612197	0.005000	9.538300	-0.005960	1.959020	0.508955	-0.123881	-0.313474	0.019832	-0.015523	0.005994
524	2.617197	0.005000	9.458655	-0.117720	1.962000	0.508955	-0.123881	-0.313972	-0.004479	-0.006018	0.002034
525	2.622197	0.005000	9.724355	-0.117720	1.962000	0.508955	-0.123881	-0.314470	-0.003150	-0.009887	0.008526
526	2.627197	0.005000	9.618009	-0.078480	1.848489	0.508955	-0.123881	-0.314969	-0.006975	-0.001906	0.014927
527	2.632197	0.005000	9.541934	-0.039240	1.837666	0.508955	-0.123881	-0.315467	-0.007382	-0.004073	-0.002748
528	2.637197	0.005000	9.535320	-0.029861	1.834901	0.508955	-0.123881	-0.315965	0.011679	-0.009578	0.004936
529	2.642197	0.005000	9.680511	-0.133422	1.899222	0.508955	-0.123881	-0.316463	0.005194	-0.005538	0.008854
530	2.647197	0.005000	9.653040	-0.067528	1.833328	0.508955	-0.123881	-0.316961	0.001626	-0.001362	0.012498
531	2.652197	0.005000	9.737692	-0.022706	1.889692	0.508955	-0.123881	-0.317459	0.001927	-0.001601	0.007163
532	2.657197	0.005000	9.672178	-0.058378	1.863418	0.508955	-0.123881	-0.317957	0.007234	-0.011971	0.004459
533	2.662197	0.005000	9.639205	-0.078480	1.887377	0.508955	-0.123881	-0.318455	0.005307	-0.013611	0.016640
534	2.667197	0.005000	9.478718	-0.087161	1.805040	0.508955	-0.123881	-0.318953	0.007868	-0.007709	0.007389
535	2.672197	0.005000	9.626522	-0.012722	1.790170	0.508955	-0.123881	-0.319451	0.014396	-0.007695	0.012878
536	2.677197	0.005000	9.613800	-0.057816	1.776132	0.508955	-0.123881	-0.319949	0.012404	-0.002726	0.000818
537	2.682197	0.005000	9.496080	-0.117720	1.954588	0.509155	-0.123881	-0.319104	0.007716	-0.001813	0.006819
538	2.687197	0.005000	9.540887	-0.089614	1.990106	0.509379	-0.123881	-0.318108	0.008875	0.002084	0.004341
539	2.692197	0.005000	9.538512	-0.084864	1.925952	0.509602	-0.123881	-0.317111	-0.002248	-0.003062	0.002513
540	2.697197	0.005000	9.614602	-0.194597	1.884322	0.509825	-0.123881	-0.316115	-0.000890	-0.000079	0.011027
541	2.702197	0.005000	9.653040	-0.042425	1.922760	0.510048	-0.123881	-0.315118	-0.002117	0.006151	-0.003547
542	2.707197	0.005000	9.613800	-0.003996	1.777788	0.510271	-0.123881	-0.314122	-0.000593	-0.001843	0.016170
543	2.712197	0.005000	9.502872	-0.046032	1.883520	0.510494	-0.123881	-0.313125	-0.000460	-0.010216	0.007709
544	2.717197	0.005000	9.574560	-0.011693	1.962000	0.510717	-0.123881	-0.312128	0.000365	0.000409	0.003679
545	2.722197	0.005000	9.609232	-0.027683	2.001240	0.510940	-0.123881	-0.311132	-0.001209	-0.003692	-0.002981
546	2.727197	0.005000	9.627747	0.002602	2.079720	0.511164	-0.123881	-0.310135	0.000096	0.004233	0.007433
547	2.732197	0.005000	9.597478	-0.045835	2.096042	0.511387	-0.123881	-0.309139	0.013121	-0.001004	0.016749
548	2.737197	0.005000	9.613800	0.022343	2.019952	0.511610	-0.123881	-0.308142	-0.000370	0.003942	0.005104
549	2.742197	0.005000	9.631698	-0.039240	1.940658	0.511833	-0.123881	-0.307146	-0.003636	-0.001941	0.009429
550	2.747197	0.005000	9.629288	-0.023752	1.875256	0.511650	-0.124113	-0.307056	-0.012366	0.000950	0.013195
551	2.752197	0.005000	9.600881	-0.091883	1.896439	0.511092	-0.124559	-0.307803	-0.000090	-0.002910	0.009498
552	2.757197	0.005000	9.564016	-0.089024	1.954391	0.510535	-0.125005	-0.308550	0.004077	-0.005604	0.020066
553	2.762197	0.005000	9.504234	-0.070326	2.118960	0.509977	-0.125452	-0.309298	-0.001701	-0.005411	0.006417
554	2.767197	0.005000	9.541099	-0.039240	2.028923	0.509419	-0.125898	-0.310045	0.010477	0.000249	0.003588
555	2.772197	0.005000	9.548874	-0.042628	1.958612	0.508861	-0.126344	-0.310793	0.010302	0.002008	0.000684
556	2.777197	0.005000	9.614902	-0.078480	2.001791	0.508304	-0.126790	-0.311540	0.012357	-0.003249	0.009968
557	2.782197	0.005000	9.654870	-0.041070	2.003070	0.507746	-0.127236	-0.312288	-0.001430	-0.004377	0.010803
558	2.787197	0.005000	9.648820	-0.004220	2.036260	0.507188	-0.127683	-0.313035	0.001128	-0.008272	0.009375
559	2.792197	0.005000	9.646445	-0.078480	1.903306	0.506630	-0.128129	-0.313782	-0.001747	-0.010932	0.011208
560	2.797197	0.005000	9.592531	-0.069494	1.962000	0.506073	-0.128575	-0.314530	-0.001342	-0.003548	0.012528
561	2.802197	0.005000	9.535320	-0.027742	1.957254	0.505515	-0.129021	-0.315277	0.007797	-0.008710	0.001623
562	2.807197	0.005000	9.549222	-0.039240	2.026578	0.504957	-0.129468	-0.316025	0.007232	-0.007404	0.008613
563	2.812197	0.005000	9.551634	-0.124331	2.040480	0.504494	-0.129804	-0.316562	-0.005734	-0.012290	0.000254
564	2.817197	0.005000	9.593530	-0.097450	1.941730	0.504605	-0.129469	-0.315815	0.009059	-0.012851	0.012593
565	2.822197	0.005000	9.520874	-0.099825	1.904865	0.504717	-0.129135	-0.315068	0.008540	-0.006911	0.001884
566	2.827197	0.005000	9.487851	-0.141455	1.922760	0.504828	-0.128800	-0.314320	0.012593	-0.018823	0.018698
567	2.832197	0.005000	9.600821	-0.143981	1.935739	0.504940	-0.128466	-0.313573	0.009756	-0.007548	0.006778
568	2.837197	0.005000	9.574560	-0.174719	1.865761	0.505051	-0.128131	-0.312826	-0.007210	-0.013629	0.009814
569	2.842197	0.005000	9.543685	-0.078480	1.922760	0.505163	-0.127797	-0.312079	-0.000971	-0.005453	0.014086
570	2.847197	0.005000	9.580535	-0.111745	2.001240	0.505274	-0.127462	-0.311332	-0.011930	-0.017158	-0.000971
571	2.852197	0.005000	9.659378	-0.111382	2.004409	0.505385	-0.127127	-0.310585	0.001760	-0.016568	0.002599
572	2.857197	0.005000	9.694576	-0.000765	1.922760	0.505497	-0.126793	-0.309838	-0.005207	-0.008207	0.004272
573	2.862197	0.005000	9.772394	-0.039240	2.035579	0.505608	-0.126458	-0.309091	0.001863	-0.015532	0.003465
574	2.867197	0.005000	9.692280	-0.035231	1.926769	0.505720	-0.126124	-0.308344	-0.007932	-0.010986	0.003665
575	2.872197	0.005000	9.593756	0.032841	2.034081	0.505831	-0.125789	-0.307597	0.005555	-0.008552	0.007924
576	2.877197	0.005000	9.387240	-0.069600	1.931640	0.505943	-0.125455	-0.306849	0.013586	-0.011093	0.008225
577	2.882197	0.005000	9.496080	-0.039240	1.906109	0.505043	-0.126890	-0.306008	0.014531	-0.008665	0.003184
578	2.887197	0.005000	9.549023	0.027405	1.962000	0.503816	-0.128897	-0.305137	0.009236	-0.009302	0.002689
579	2.892197	0.005000	9.629915	-0.101605	1.938875	0.502590	-0.130904	-0.304265	0.013891	-0.009604	0.002214
580	2.897197	0.005000	9.612106	-0.018773	1.900599	0.501363	-0.132912	-0.303393	0.012123	-0.007316	0.000677
581	2.902197	0.005000	9.535320	-0.042296	1.919704	0.500137	-0.134919	-0.302522	0.013956	-0.004267	0.004293
582	2.907197	0.005000	9.464646	-0.039240	2.032674	0.498910	-0.136926	-0.301650	0.006029	-0.001399	0.004206
583	2.912197	0.005000	9.548647	0.000000	2.092306	0.497683	-0.138933	-0.300778	0.005767	-0.010783	0.002864
584	2.917197	0.005000	9.478744	-0.050192	1.962000	0.496457	-0.140940	-0.299907	0.003229	-0.008226	0.009884
585	2.922197	0.005000	9.613800	-0.148757	1.922760	0.495230	-0.142947	-0.299035	0.006374	-0.012393	0.011288
586	2.927197	0.005000	9.625374	-0.066906	2.007027	0.494004	-0.144955	-0.298163	0.010375	-0.008754	0.008540
587	2.932197	0.005000	9.692280	-0.006764	2.004622	0.492777	-0.146962	-0.297292	0.010801	-0.003347	0.007929
588	2.937197	0.005000	9.730555	-0.080409	2.000275	0.491550	-0.148969	-0.296420	0.010388	-0.004497	0.024388
589	2.942197	0.005000	9.730098	-0.119142	1.999818	0.490324	-0.150976	-0.295548	-0.003109	-0.005832	0.010661
590	2.947197	0.005000	9.621424	-0.082292	1.840468	0.489842	-0.151701	-0.295277	0.018193	-0.010605	0.013452
591	2.952197	0.005000	9.712734	-0.084742	1.955738	0.490622	-0.150251	-0.296025	0.011099	0.000976	0.007628
592	2.957197	0.005000	9.653040	-0.109043	1.900875	0.491403	-0.148801	-0.296772	0.008303	-0.013162	0.015225
593	2.962197	0.005000	9.670111	-0.039240	1.855365	0.492184	-0.147350	-0.297519	0.009837	-0.014134	0.017568
594	2.967197	0.005000	9.640797	-0.064982	1.884775	0.492965	-0.145900	-0.298267	0.010217	-0.008552	0.010003
595	2.972197	0.005000	9.558653	-0.078480	1.899427	0.493746	-0.144450	-0.299014	0.005740	-0.011273	0.017191
596	2.977197	0.005000	9.551763	-0.140517	1.941321	0.494527	-0.143000	-0.299762	0.013805	-0.011729	0.007452
597	2.982197	0.005000	9.532658	-0.175249	1.959338	0.495308	-0.141549	-0.300509	0.017599	-0.020664	0.002218
598	2.987197	0.005000	9.535320	-0.109219	1.954588	0.496089	-0.140099	-0.301257	0.008511	-0.021339	0.005099
599	2.992197	0.005000	9.627339	0.000000	2.026941	0.496870	-0.138649	-0.302004	0.010958	-0.021087	0.011858
600	2.997197	0.005000	9.535320	-0.039240	1.990091	0.497651	-0.137199	-0.302752	0.007616	-0.012713	0.015175
601	3.002197	0.005000	9.574560	-0.047645	1.900331	0.498432	-0.135748	-0.303499	-0.004188	-0.011780	0.010261
602	3.007197	0.005000	9.547319	-0.190201	2.007239	0.499213	-0.134298	-0.304246	0.003902	-0.015949	0.020311
603	3.012197	0.005000	9.649457	-0.185452	1.887103	0.499994	-0.132848	-0.304994	0.013387	-0.010568	0.012453
604	3.017197	0.005000	9.575738	-0.115363	2.000062	0.500664	-0.132172	-0.305617	0.000743	-0.014656	-0.001049
605	3.022197	0.005000	9.651815	-0.077255	2.076044	0.501333	-0.131503	-0.306240	-0.000377	-0.027832	0.013381
606	3.027197	0.005000	9.613800	-0.114076	1.933691	0.502002	-0.130834	-0.306863	0.006187	-0.016421	0.020025
607	3.032197	0.005000	9.568500	-0.006060	1.928820	0.502671	-0.130165	-0.307485	0.001490	-0.027037	0.005741
608	3.037197	0.005000	9.675347	-0.030773	1.922760	0.503340	-0.129496	-0.308108	-0.006989	-0.015577	0.002100
609	3.042197	0.005000	9.647428	-0.078480	1.855489	0.504009	-0.128827	-0.308730	0.003853	-0.022777	-0.000121
610	3.047197	0.005000	9.613800	-0.131319	1.818639	0.504678	-0.128158	-0.309353	0.005191	-0.015230	-0.002357
611	3.052197	0.005000	9.644357	-0.085771	1.860254	0.505347	-0.127489	-0.309975	0.006404	-0.013501	0.005130
612	3.057197	0.005000	9.553684	-0.039240	1.828427	0.506016	-0.126820	-0.310598	0.012920	-0.012431	0.005262
613	3.062197	0.005000	9.556059	-0.059979	1.865019	0.506685	-0.126151	-0.311221	0.004141	-0.010959	0.002761
614	3.067197	0.005000	9.574560	-0.031680	1.883520	0.507354	-0.125482	-0.311843	0.007647	-0.017125	-0.001585
615	3.072197	0.005000	9.522934	-0.196200	1.962000	0.508023	-0.124813	-0.312466	0.017821	-0.011603	0.002345
616	3.077197	0.005000	9.546339	-0.196200	1.933779	0.508692	-0.124144	-0.313088	0.024132	-0.010459	0.007416
617	3.082197	0.005000	9.543924	-0.087084	1.992636	0.509023	-0.124084	-0.313409	0.013905	-0.017844	0.012890
618	3.087197	0.005000	9.568359	-0.117720	1.850481	0.509134	-0.124419	-0.313533	0.008744	-0.002593	0.015063
619	3.092197	0.005000	9.503671	-0.039240	1.887315	0.509246	-0.124753	-0.313658	0.012427	-0.015831	0.013626
620	3.097197	0.005000	9.538043	-0.001361	1.999879	0.509357	-0.125088	-0.313782	0.004353	0.005535	0.020138
621	3.102197	0.005000	9.652014	-0.039240	1.923786	0.509469	-0.125423	-0.313907	0.007330	-0.012273	0.008885
622	3.107197	0.005000	9.571117	0.032353	1.994353	0.509581	-0.125757	-0.314032	0.008504	-0.007587	0.005594
623	3.112197	0.005000	9.713975	-0.066783	2.007088	0.509692	-0.126092	-0.314156	0.008710	-0.011383	0.005951
624	3.117197	0.005000	9.605536	-0.086744	2.094167	0.509804	-0.126426	-0.314281	0.013788	-0.011005	0.004119
625	3.122197	0.005000	9.613800	-0.153515	2.129631	0.509915	-0.126761	-0.314405	0.003051	-0.002102	0.005874
626	3.127197	0.005000	9.587948	-0.039240	1.962000	0.510027	-0.127096	-0.314530	0.002296	-0.012581	0.009944
627	3.132197	0.005000	9.551098	-0.055018	1.962000	0.510139	-0.127430	-0.314655	0.003570	-0.017535	0.005932
628	3.137197	0.005000	9.511298	-0.039240	1.922760	0.510250	-0.127765	-0.314779	0.001786	-0.010972	0.001770
629	3.142197	0.005000	9.516623	-0.039240	1.982543	0.510362	-0.128100	-0.314904	0.008330	-0.006707	0.011689
630	3.147197	0.005000	9.590882	0.000000	2.001240	0.510372	-0.128333	-0.315000	-0.006207	-0.006636	-0.002823
631	3.152197	0.005000	9.509716	-0.064844	1.962000	0.510037	-0.128221	-0.315000	0.001058	-0.023724	0.008536
632	3.157197	0.005000	9.557765	-0.067258	1.922760	0.509702	-0.128110	-0.315000	-0.002073	-0.013564	0.003707
633	3.162197	0.005000	9.556930	-0.078480	1.861910	0.509368	-0.127998	-0.315000	0.004657	-0.016894	0.002653
634	3.167197	0.005000	9.469639	-0.104921	1.955600	0.509033	-0.127887	-0.315000	0.003677	-0.011832	0.011595
635	3.172197	0.005000	9.680297	-0.003994	2.032491	0.508698	-0.127775	-0.315000	-0.000373	-0.012387	0.014762
636	3.177197	0.005000	9.576118	0.000000	1.924318	0.508363	-0.127663	-0.315000	0.006946	-0.012217	0.009864
637	3.182197	0.005000	9.729040	-0.076827	1.962000	0.508029	-0.127552	-0.315000	0.000038	-0.009585	0.011945
638	3.187197	0.005000	9.653040	-0.039240	1.965230	0.507694	-0.127440	-0.315000	0.007888	-0.012861	0.000916
639	3.192197	0.005000	9.692280	-0.033593	1.995593	0.507359	-0.127329	-0.315000	0.008404	-0.013096	0.012927
640	3.197197	0.005000	9.574560	-0.039240	2.063614	0.507025	-0.127217	-0.315000	-0.000150	-0.007804	0.009369
641	3.202197	0.005000	9.545788	0.000000	2.019544	0.506690	-0.127106	-0.315000	0.010918	-0.014616	0.016965
642	3.207197	0.005000	9.534987	-0.130578	1.896711	0.506355	-0.126994	-0.315000	0.004311	-0.009773	0.000143
643	3.212197	0.005000	9.637474	-0.109612	1.742126	0.506021	-0.126883	-0.315000	0.005006	-0.003349	0.004848
644	3.217197	0.005000	9.517364	-0.035912	1.844280	0.506065	-0.126582	-0.314894	0.013648	0.012641	0.007307
645	3.222197	0.005000	9.632709	-0.039240	1.864611	0.506176	-0.126247	-0.314770	0.005807	-0.001828	0.002748
646	3.227197	0.005000	9.574560	-0.022721	1.827761	0.506288	-0.125913	-0.314645	0.003531	-0.015551	0.011323
647	3.232197	0.005000	9.546879	-0.027681	1.805040	0.506399	-0.125578	-0.314521	0.003837	-0.000634	0.004792
648	3.237197	0.005000	9.518944	-0.078480	1.867144	0.506511	-0.125244	-0.314396	0.006148	-0.000897	0.001000
649	3.242197	0.005000	9.553355	-0.069462	1.980035	0.506622	-0.124909	-0.314272	0.006696	-0.004276	0.004981
650	3.247197	0.005000	9.659651	-0.098314	2.007851	0.506734	-0.124575	-0.314147	0.001257	-0.006393	0.007207
651	3.252197	0.005000	9.582950	-0.144375	2.036285	0.506845	-0.124240	-0.314022	0.000271	-0.003202	0.013010
652	3.257197	0.005000	9.537090	-0.080250	2.076180	0.506957	-0.123906	-0.313898	0.001758	0.000719	0.004747
653	3.262197	0.005000	9.613173	-0.079107	1.924015	0.507069	-0.123571	-0.313773	0.011653	-0.014307	0.013793
654	3.267197	0.005000	9.650009	-0.153929	1.925791	0.507180	-0.123236	-0.313649	0.008023	-0.000141	0.015486
655	3.272197	0.005000	9.546190	-0.016305	1.972870	0.507292	-0.122902	-0.313524	0.013435	-0.010683	0.014043
656	3.277197	0.005000	9.558873	-0.039240	1.954149	0.507403	-0.122567	-0.313400	0.006364	-0.010339	0.008074
657	3.282197	0.005000	9.535320	-0.078480	1.990636	0.507463	-0.122647	-0.313391	0.025552	-0.006219	0.002970
658	3.287197	0.005000	9.614103	-0.104741	1.987958	0.507463	-0.123205	-0.313515	0.019156	-0.006652	0.008796
659	3.292197	0.005000	9.637671	-0.109219	1.977369	0.507463	-0.123762	-0.313640	0.012814	0.004745	0.005953
660	3.297197	0.005000	9.538642	-0.075158	1.997918	0.507463	-0.124320	-0.313765	0.008043	-0.009233	0.012070
661	3.302197	0.005000	9.533820	0.000000	1.982370	0.507463	-0.124878	-0.313889	-0.006034	0.002160	0.006028
662	3.307197	0.005000	9.558102	-0.062022	1.844280	0.507463	-0.125436	-0.314014	0.000742	-0.009722	0.005842
663	3.312197	0.005000	9.560673	-0.039240	1.975887	0.507463	-0.125994	-0.314138	0.010471	-0.012097	0.010155
664	3.317197	0.005000	9.613800	-0.184703	2.045230	0.507463	-0.126552	-0.314263	0.006487	-0.005828	-0.004740
665	3.322197	0.005000	9.653040	-0.117720	1.862523	0.507463	-0.127109	-0.314388	0.002901	-0.014666	0.012828
666	3.327197	0.005000	9.646308	-0.078480	1.902565	0.507463	-0.127667	-0.314512	-0.006180	-0.005988	0.007167
667	3.332197	0.005000	9.657397	-0.082837	1.770157	0.507463	-0.128225	-0.314637	0.004558	-0.014645	0.009493
668	3.337197	0.005000	9.764638	-0.116190	1.883520	0.507463	-0.128783	-0.314761	-0.003054	-0.009671	0.003554
669	3.342197	0.005000	9.537075	-0.040117	1.921883	0.507463	-0.129341	-0.314886	-0.002864	-0.002920	0.003643
670	3.347197	0.005000	9.538572	0.032735	1.883520	0.507482	-0.129803	-0.314989	0.007857	-0.009397	0.006771
671	3.352197	0.005000	9.568852	-0.100595	1.922760	0.507705	-0.129246	-0.314865	-0.001422	-0.002000	-0.001450
672	3.357197	0.005000	9.574560	-0.062445	1.907572	0.507928	-0.128688	-0.314740	0.003183	-0.013735	0.014157
673	3.362197	0.005000	9.613800	-0.078480	1.844280	0.508151	-0.128131	-0.314616	0.004946	-0.006175	0.014231
674	3.367197	0.005000	9.574560	-0.091846	1.948634	0.508374	-0.127573	-0.314491	0.003496	-0.014056	0.010354
675	3.372197	0.005000	9.583118	-0.109162	1.835722	0.508597	-0.127016	-0.314367	0.009157	0.000193	0.018754
676	3.377197	0.005000	9.653040	-0.078480	1.787287	0.508820	-0.126458	-0.314242	0.008065	0.000771	0.000894
677	3.382197	0.005000	9.614887	-0.116633	1.824116	0.509043	-0.125901	-0.314118	0.006873	-0.011244	0.008221
678	3.387197	0.005000	9.502373	-0.084773	1.860754	0.509266	-0.125343	-0.313993	-0.003811	-0.002058	0.008738
679	3.392197	0.005000	9.588643	-0.078480	1.886530	0.509489	-0.124785	-0.313869	0.005988	-0.007316	0.006584
680	3.397197	0.005000	9.653040	-0.117720	1.938583	0.509712	-0.124228	-0.313744	0.000835	-0.006591	0.004237
681	3.402197	0.005000	9.563275	-0.039240	1.892838	0.509935	-0.123670	-0.313619	-0.000309	-0.008799	0.000673
682	3.407197	0.005000	9.548426	-0.039240	1.929313	0.510158	-0.123113	-0.313495	0.007169	-0.005691	0.006835
683	3.412197	0.005000	9.543615	-0.043387	1.949558	0.510381	-0.122555	-0.313370	0.011205	-0.003214	0.005192
684	3.417197	0.005000	9.647850	-0.076750	1.927950	0.510370	-0.122466	-0.313682	0.007297	0.000591	0.005850
685	3.422197	0.005000	9.573894	-0.000666	2.040480	0.510258	-0.122578	-0.314180	-0.005638	0.002815	-0.003840
686	3.427197	0.005000	9.722246	-0.036149	1.853554	0.510147	-0.122689	-0.314678	0.003053	-0.005915	-0.001108
687	3.432197	0.005000	9.546313	-0.044736	1.917264	0.510035	-0.122801	-0.315176	-0.001151	-0.008381	0.007357
688	3.437197	0.005000	9.597975	-0.078480	1.969912	0.509924	-0.122912	-0.315674	-0.002647	-0.005393	0.002817
689	3.442197	0.005000	9.584879	-0.078480	1.902122	0.509812	-0.123024	-0.316172	0.002419	-0.006770	0.007586
690	3.447197	0.005000	9.574560	-0.039240	1.830506	0.509701	-0.123135	-0.316670	-0.002206	-0.000801	0.000927
691	3.452197	0.005000	9.574560	0.000000	1.946858	0.509589	-0.123247	-0.317168	0.004580	-0.006763	-0.002138
692	3.457197	0.005000	9.588734	-0.060675	1.901325	0.509478	-0.123358	-0.317667	-0.001094	-0.014846	0.005107
693	3.462197	0.005000	9.593613	-0.039240	1.882385	0.509366	-0.123470	-0.318165	0.009781	-0.009736	0.012354
694	3.467197	0.005000	9.658940	-0.039240	1.972771	0.509254	-0.123582	-0.318663	-0.002868	-0.006298	0.009658
695	3.472197	0.005000	9.706575	-0.024945	1.951350	0.509143	-0.123693	-0.319161	-0.007713	-0.010070	0.015855
696	3.477197	0.005000	9.574560	-0.051145	2.013145	0.509031	-0.123805	-0.319659	-0.002530	-0.009654	0.015788
697	3.482197	0.005000	9.603150	-0.108190	1.981060	0.508885	-0.123986	-0.319882	-0.004813	-0.000052	0.002179
698	3.487197	0.005000	9.750467	-0.071716	1.980947	0.508662	-0.124321	-0.319508	-0.005382	0.005156	0.010216
699	3.492197	0.005000	9.578908	-0.152612	1.883520	0.508438	-0.124656	-0.319135	0.003891	-0.007124	0.008817
700	3.497197	0.005000	9.613800	-0.043127	1.962000	0.508215	-0.124990	-0.318761	0.002060	-0.008591	0.004629
701	3.502197	0.005000	9.613800	-0.040178	1.962000	0.507992	-0.125325	-0.318387	0.005957	-0.013780	0.006685
702	3.507197	0.005000	9.568803	-0.072723	2.073963	0.507769	-0.125660	-0.318014	-0.006240	0.000129	0.003363
703	3.512197	0.005000	9.472726	-0.146369	1.899406	0.507546	-0.125994	-0.317640	0.009948	-0.003075	-0.000903
704	3.517197	0.005000	9.511482	-0.117720	1.875819	0.507323	-0.126329	-0.317266	0.001378	-0.007035	0.009953
705	3.522197	0.005000	9.554328	-0.078480	1.893636	0.507100	-0.126664	-0.316892	0.003658	-0.008623	0.007540
706	3.527197	0.005000	9.575271	-0.117720	1.884231	0.506877	-0.126998	-0.316519	0.001351	-0.015963	0.006784
707	3.532197	0.005000	9.659454	-0.078480	2.016458	0.506654	-0.127333	-0.316145	-0.006667	-0.004334	-0.000806
708	3.537197	0.005000	9.596192	-0.078480	2.022872	0.506430	-0.127667	-0.315771	0.006007	-0.013909	0.013872
709	3.542197	0.005000	9.514611	-0.078480	1.942743	0.506207	-0.128002	-0.315398	0.004365	-0.008676	0.006207
710	3.547197	0.005000	9.596933	-0.095347	2.029119	0.505984	-0.128337	-0.315024	0.007253	-0.006496	0.009259
711	3.552197	0.005000	9.588753	-0.039240	1.951145	0.506179	-0.128671	-0.314883	0.005694	-0.003215	0.013155
712	3.557197	0.005000	9.558898	-0.047155	1.899182	0.506402	-0.129006	-0.314759	0.005263	-0.006948	0.004502
713	3.562197	0.005000	9.623181	-0.156960	1.894616	0.506625	-0.129340	-0.314634	0.017889	-0.010658	0.003149
714	3.567197	0.005000	9.653040	-0.214542	1.897452	0.506848	-0.129675	-0.314510	-0.003291	0.000053	0.001865
715	3.572197	0.005000	9.648532	-0.039240	1.892536	0.507071	-0.130009	-0.314385	0.009637	-0.008726	0.012508
716	3.577197	0.005000	9.576678	-0.039240	2.001240	0.507294	-0.130344	-0.314261	0.008191	-0.007487	0.008145
717	3.582197	0.005000	9.613800	-0.039240	2.040220	0.507517	-0.130679	-0.314136	-0.001800	-0.005878	0.006165
718	3.587197	0.005000	9.613800	-0.036562	1.886198	0.507740	-0.131013	-0.314012	0.006203	-0.012387	0.008627
719	3.592197	0.005000	9.658123	-0.039240	1.985991	0.507963	-0.131348	-0.313887	0.002808	-0.010697	0.007493
720	3.597197	0.005000	9.628798	-0.078480	1.898518	0.508186	-0.131682	-0.313763	0.012197	-0.001535	0.000821
721	3.602197	0.005000	9.653040	-0.097909	1.952094	0.508409	-0.132017	-0.313638	0.010798	-0.002697	0.006121
722	3.607197	0.005000	9.640720	-0.090800	1.871200	0.508632	-0.132351	-0.313513	0.000681	-0.005738	0.015666
723	3.612197	0.005000	9.550048	-0.093208	1.741288	0.508855	-0.132686	-0.313389	0.001079	-0.007244	0.023001
724	3.617197	0.005000	9.601618	-0.112761	1.854197	0.508832	-0.132652	-0.313402	0.006787	-0.001727	0.002682
725	3.622197	0.005000	9.711734	-0.078480	1.883187	0.508609	-0.132317	-0.313526	0.010544	-0.006479	0.005858
726	3.627197	0.005000	9.692280	-0.095559	1.866441	0.508386	-0.131982	-0.313651	0.002915	-0.011161	0.004454
727	3.632197	0.005000	9.721657	-0.063791	1.834417	0.508163	-0.131647	-0.313775	0.008994	-0.011961	0.002816
728	3.637197	0.005000	9.706893	0.000000	1.935074	0.507940	-0.131313	-0.313900	0.001178	-0.009827	0.006533
729	3.642197	0.005000	9.496080	-0.029317	2.011163	0.507716	-0.130978	-0.314025	-0.000185	-0.004996	0.011426
730	3.647197	0.005000	9.503628	-0.078480	2.025383	0.507493	-0.130643	-0.314149	0.011788	-0.014171	0.015575
731	3.652197	0.005000	9.624147	-0.039240	1.849454	0.507270	-0.130309	-0.314274	-0.001234	-0.001897	0.007740
732	3.657197	0.005000	9.618514	-0.039240	1.809754	0.507047	-0.129974	-0.314398	0.006389	-0.012852	0.006612
733	3.662197	0.005000	9.653101	-0.078419	1.805161	0.506824	-0.129639	-0.314523	0.007074	-0.011146	0.006870
734	3.667197	0.005000	9.616235	-0.002435	1.881085	0.506601	-0.129304	-0.314648	0.011960	-0.002946	0.008408
735	3.672197	0.005000	9.574560	-0.142483	1.863582	0.506378	-0.128970	-0.314772	-0.003182	-0.005437	0.011662
736	3.677197	0.005000	9.584998	-0.221039	1.986839	0.506155	-0.128635	-0.314897	-0.006121	-0.009552	-0.003887
737	3.682197	0.005000	9.593741	-0.107252	1.971591	0.506028	-0.128339	-0.314957	0.005663	-0.013447	0.009858
738	3.687197	0.005000	9.565359	-0.132739	1.962000	0.506362	-0.128227	-0.314708	0.002213	0.000051	0.015017
739	3.692197	0.005000	9.574560	-0.127913	1.780324	0.506697	-0.128116	-0.314459	0.003794	-0.018418	0.010673
740	3.697197	0.005000	9.574560	-0.056173	1.810414	0.507031	-0.128004	-0.314210	0.004343	-0.015530	0.004209
741	3.702197	0.005000	9.555215	-0.019895	1.884071	0.507366	-0.127893	-0.313961	0.005575	-0.006893	0.004139
742	3.707197	0.005000	9.513355	-0.061205	1.957311	0.507700	-0.127781	-0.313712	0.010585	-0.011455	-0.001079
743	3.712197	0.005000	9.677380	-0.078480	1.962000	0.508035	-0.127670	-0.313463	0.010724	-0.007466	-0.001764
744	3.717197	0.005000	9.601290	-0.039240	1.922760	0.508370	-0.127559	-0.313214	0.015086	-0.009631	0.008157
745	3.722197	0.005000	9.446705	-0.049375	2.011375	0.508704	-0.127447	-0.312965	0.007456	-0.008088	0.006885
746	3.727197	0.005000	9.496080	-0.078480	1.938250	0.509039	-0.127336	-0.312716	0.014538	-0.004817	0.002207
747	3.732197	0.005000	9.569190	-0.083850	1.922760	0.509373	-0.127224	-0.312467	0.004294	-0.009124	0.017628
748	3.737197	0.005000	9.580520	-0.117720	2.010180	0.509708	-0.127113	-0.312218	0.008239	-0.009808	0.013979
749	3.742197	0.005000	9.535596	-0.039102	1.961724	0.510042	-0.127001	-0.311969	0.006805	-0.014294	0.006023
750	3.747197	0.005000	9.539798	-0.037001	1.957522	0.510377	-0.126890	-0.311720	0.010808	-0.012734	0.009210
751	3.752197	0.005000	9.687666	-0.043854	1.848894	0.510360	-0.126778	-0.312157	0.013645	-0.003169	0.013381
752	3.757197	0.005000	9.660044	-0.007004	1.915756	0.510249	-0.126667	-0.312780	0.011708	-0.013948	0.001532
753	3.762197	0.005000	9.613800	-0.087859	1.872417	0.510137	-0.126555	-0.313403	0.010561	-0.008196	0.009062
754	3.767197	0.005000	9.574560	-0.094182	1.879587	0.510025	-0.126443	-0.314026	0.007918	-0.012219	0.000800
755	3.772197	0.005000	9.610608	-0.053384	1.933712	0.509914	-0.126332	-0.314649	0.001788	-0.009424	0.005180
756	3.777197	0.005000	9.558026	-0.039240	1.945466	0.509802	-0.126220	-0.315272	0.000998	-0.012217	0.003047
757	3.782197	0.005000	9.437702	0.000000	1.904587	0.509691	-0.126109	-0.315894	0.001723	-0.013254	0.010765
758	3.787197	0.005000	9.517628	-0.113863	1.901212	0.509579	-0.125997	-0.316517	-0.002774	-0.015958	0.005924
759	3.792197	0.005000	9.535320	-0.087161	1.876921	0.509467	-0.125885	-0.317140	0.002532	-0.015278	0.018767
760	3.797197	0.005000	9.548191	-0.091351	1.922760	0.509356	-0.125774	-0.317763	-0.002138	-0.010585	-0.002330
761	3.802197	0.005000	9.574560	-0.060154	1.805040	0.509244	-0.125662	-0.318386	-0.008820	-0.007929	0.000361
762	3.807197	0.005000	9.613800	-0.165010	1.773850	0.509133	-0.125551	-0.319009	-0.002323	-0.003014	0.002556
763	3.812197	0.005000	9.585694	-0.067346	1.810607	0.509021	-0.125439	-0.319632	0.005344	-0.010583	0.008704
764	3.817197	0.005000	9.695472	-0.075288	1.850664	0.508226	-0.125965	-0.318678	0.005396	-0.008798	0.002542
765	3.822197	0.005000	9.653040	-0.117720	1.961198	0.506442	-0.127415	-0.315440	-0.006143	-0.003798	0.005214
766	3.827197	0.005000	9.690238	-0.080522	1.885562	0.504658	-0.128864	-0.312203	0.006026	-0.005252	0.012001
767	3.832197	0.005000	9.727103	-0.039240	1.879103	0.502874	-0.130314	-0.308966	0.011430	0.003939	0.004067
768	3.837197	0.005000	9.653040	-0.052824	1.980864	0.501090	-0.131763	-0.305728	0.009669	-0.005636	0.012640
769	3.842197	0.005000	9.604618	-0.078480	1.941124	0.499306	-0.133213	-0.302491	0.012076	-0.002947	0.001839
770	3.847197	0.005000	9.546877	-0.050797	1.962000	0.497522	-0.134663	-0.299253	0.008947	-0.002405	-0.004060
771	3.852197	0.005000	9.664059	-0.014110	1.950981	0.495738	-0.136112	-0.296016	0.007119	-0.004064	0.001436
772	3.857197	0.005000	9.675760	-0.055760	2.046681	0.493954	-0.137562	-0.292778	-0.001134	-0.002569	-0.001657
773	3.862197	0.005000	9.612423	-0.117720	1.960623	0.492170	-0.139011	-0.289541	0.000394	-0.012235	-0.001594
774	3.867197	0.005000	9.556662	-0.081925	1.904862	0.490386	-0.140461	-0.286304	-0.007305	-0.006853	0.014809
775	3.872197	0.005000	9.622423	-0.039240	1.883520	0.488601	-0.141911	-0.283066	0.005582	-0.004383	0.002967
776	3.877197	0.005000	9.600881	-0.091883	1.896923	0.486817	-0.143360	-0.279829	0.002234	-0.010179	0.013151
777	3.882197	0.005000	9.624344	-0.164569	1.815584	0.485098	-0.144755	-0.276696	-0.003973	-0.006492	0.000757
778	3.887197	0.005000	9.669347	-0.078480	1.891674	0.486102	-0.143863	-0.277941	-0.002542	-0.010584	0.009850
779	3.892197	0.005000	9.613800	-0.084259	1.922760	0.487106	-0.142971	-0.279186	-0.000002	-0.006906	0.001900
780	3.897197	0.005000	9.623965	-0.075092	1.965388	0.488109	-0.142079	-0.280432	-0.001163	-0.004694	0.003234
781	3.902197	0.005000	9.614814	-0.077466	1.921746	0.489113	-0.141187	-0.281677	-0.002247	-0.009912	0.006657
782	3.907197	0.005000	9.653040	-0.001393	1.921367	0.490116	-0.140295	-0.282922	-0.000621	-0.004816	0.006434
783	3.912197	0.005000	9.613800	-0.109279	1.926980	0.491120	-0.139403	-0.284167	0.009728	-0.007449	0.013799
784	3.917197	0.005000	9.496080	-0.071885	1.896711	0.492123	-0.138511	-0.285412	0.000746	-0.012028	0.006175
785	3.922197	0.005000	9.574560	-0.078480	1.883520	0.493127	-0.137619	-0.286657	0.009069	-0.009554	0.008126
786	3.927197	0.005000	9.579718	-0.061961	1.973361	0.494130	-0.136727	-0.287902	0.002803	-0.004849	0.002405
787	3.932197	0.005000	9.690313	-0.090249	1.936496	0.495134	-0.135835	-0.289147	0.003261	-0.007627	-0.005609
788	3.937197	0.005000	9.590686	-0.016126	2.033491	0.496137	-0.134943	-0.290393	0.008496	-0.006745	0.007131
789	3.942197	0.005000	9.572321	-0.041479	2.058981	0.497141	-0.134051	-0.291638	0.007655	-0.014678	-0.007097
790	3.947197	0.005000	9.631905	-0.117720	1.958970	0.498144	-0.133159	-0.292883	0.005758	-0.008201	0.014355
791	3.952197	0.005000	9.558867	-0.062787	1.930614	0.498578	-0.132907	-0.293651	-0.004768	-0.004276	0.004450
792	3.957197	0.005000	9.639756	-0.039240	1.962612	0.498690	-0.133019	-0.294149	0.004685	-0.001827	0.001537
793	3.962197	0.005000	9.613800	-0.010870	2.047109	0.498801	-0.133130	-0.294647	-0.001728	-0.004381	0.010137
794	3.967197	0.005000	9.653040	-0.047605	1.992875	0.498913	-0.133242	-0.295145	0.001262	-0.008070	0.000305
795	3.972197	0.005000	9.607825	-0.084455	1.956025	0.499024	-0.133353	-0.295643	0.003745	-0.014652	0.007459
796	3.977197	0.005000	9.695880	-0.039240	2.004840	0.499136	-0.133465	-0.296141	0.001967	-0.001507	0.005336
797	3.982197	0.005000	9.653040	-0.040450	1.959580	0.499247	-0.133576	-0.296640	0.004340	-0.015044	0.008264
798	3.987197	0.005000	9.576918	-0.116541	1.883520	0.499359	-0.133687	-0.297138	-0.000827	-0.007762	-0.003570
799	3.992197	0.005000	9.578156	-0.042836	1.994047	0.499471	-0.133799	-0.297636	-0.006405	-0.008638	0.000081
800	3.997197	0.005000	9.462842	-0.006002	1.989237	0.499582	-0.133910	-0.298134	0.006788	-0.013872	0.009808
801	4.002197	0.005000	9.482092	-0.039240	1.900355	0.499694	-0.134022	-0.298632	0.001764	-0.012010	-0.002693
802	4.007197	0.005000	9.574560	-0.078480	1.872696	0.499805	-0.134133	-0.299130	0.005040	-0.018398	0.002290
803	4.012197	0.005000	9.613800	-0.026476	1.909522	0.499917	-0.134245	-0.299628	0.005789	-0.010493	-0.003716
804	4.017197	0.005000	9.590207	-0.094127	2.024833	0.500085	-0.134130	-0.300379	0.005808	-0.013189	0.001777
805	4.022197	0.005000	9.571421	-0.099669	2.001240	0.500419	-0.133350	-0.301873	0.010819	-0.008627	0.001982
806	4.027197	0.005000	9.572877	-0.078480	1.982462	0.500754	-0.132569	-0.303367	0.007929	-0.008252	0.004451
807	4.032197	0.005000	9.659547	-0.084987	1.962000	0.501088	-0.131789	-0.304861	0.011456	-0.009270	0.015357
808	4.037197	0.005000	9.625448	-0.078480	1.962000	0.501423	-0.131008	-0.306355	0.008963	-0.009218	0.014797
809	4.042197	0.005000	9.558132	-0.016428	1.967022	0.501758	-0.130228	-0.307850	0.013676	-0.014589	0.012996
810	4.047197	0.005000	9.622831	-0.069449	1.931791	0.502092	-0.129447	-0.309344	0.004673	-0.011414	-0.001615
811	4.052197	0.005000	9.646399	0.025958	1.975282	0.502427	-0.128667	-0.310838	0.007475	-0.008819	-0.000838
812	4.057197	0.005000	9.622332	-0.109188	1.970532	0.502761	-0.127886	-0.312332	0.009195	-0.005004	0.007668
813	4.062197	0.005000	9.694156	-0.042992	1.930263	0.503096	-0.127106	-0.313827	0.000825	-0.019421	0.011139
814	4.067197	0.005000	9.615316	-0.078985	2.040985	0.503430	-0.126325	-0.315321	0.011223	-0.018821	0.013247
815	4.072197	0.005000	9.607954	-0.042163	2.037557	0.503765	-0.125545	-0.316815	0.000980	-0.010510	0.007208
816	4.077197	0.005000	9.613800	0.000000	1.771128	0.504099	-0.124764	-0.318309	0.002973	-0.009526	0.003966
817	4.082197	0.005000	9.708288	-0.031496	1.875776	0.504434	-0.123984	-0.319803	0.004504	-0.016533	0.010734
818	4.087197	0.005000	9.653040	-0.059541	1.844280	0.504672	-0.123978	-0.319567	0.004086	-0.012873	0.001758
819	4.092197	0.005000	9.469713	-0.079100	1.884140	0.504895	-0.124089	-0.319069	0.009177	-0.012589	0.001931
820	4.097197	0.005000	9.535320	-0.117720	1.883520	0.505118	-0.124201	-0.318571	0.004419	-0.003886	0.013667
821	4.102197	0.005000	9.635402	-0.035277	1.918797	0.505341	-0.124312	-0.318072	0.009670	-0.007632	0.001523
822	4.107197	0.005000	9.556165	0.000000	1.961183	0.505564	-0.124424	-0.317574	0.008286	-0.005656	0.011459
823	4.112197	0.005000	9.557723	-0.112153	1.855550	0.505787	-0.124535	-0.317076	0.007648	-0.011824	0.000505
824	4.117197	0.005000	9.599338	-0.117720	1.922760	0.506010	-0.124647	-0.316577	0.005550	-0.007326	0.014122
825	4.122197	0.005000	9.550417	-0.027168	1.895592	0.506234	-0.124758	-0.316079	-0.003765	-0.009504	0.004177
826	4.127197	0.005000	9.555167	-0.117720	1.922760	0.506457	-0.124870	-0.315581	0.004044	-0.015361	0.011761
827	4.132197	0.005000	9.528387	-0.110787	2.093586	0.506680	-0.124982	-0.315082	0.001758	-0.010462	0.009540
828	4.137197	0.005000	9.631866	-0.039240	2.114443	0.506903	-0.125093	-0.314584	0.010354	-0.004408	0.013700
829	4.142197	0.005000	9.731520	-0.041352	1.953552	0.507126	-0.125205	-0.314086	0.004235	-0.014054	0.016154
830	4.147197	0.005000	9.653645	-0.195292	1.766103	0.507349	-0.125316	-0.313587	0.003429	-0.008974	0.001182
831	4.152197	0.005000	9.543450	-0.050080	1.951160	0.507518	-0.125646	-0.313394	0.010424	-0.013195	0.012292
832	4.157197	0.005000	9.608673	-0.039240	1.810167	0.507629	-0.126203	-0.313518	0.004164	-0.006479	0.017509
833	4.162197	0.005000	9.550385	-0.149427	1.679787	0.507740	-0.126761	-0.313643	0.009697	-0.009592	0.014231
834	4.167197	0.005000	9.623748	-0.059135	1.814437	0.507852	-0.127319	-0.313768	-0.000817	-0.005902	0.012221
835	4.172197	0.005000	9.627687	-0.065803	1.936647	0.507963	-0.127876	-0.313892	0.002900	-0.010009	0.006529
836	4.177197	0.005000	9.674006	-0.093532	1.907708	0.508075	-0.128434	-0.314017	0.004637	-0.006013	0.007731
837	4.182197	0.005000	9.600715	-0.061038	1.909675	0.508186	-0.128991	-0.314141	0.006204	-0.009869	-0.000662
838	4.187197	0.005000	9.614193	-0.039240	1.883127	0.508298	-0.129549	-0.314266	0.008179	-0.010676	0.013051
839	4.192197	0.005000	9.596767	-0.017033	1.910900	0.508409	-0.130106	-0.314390	-0.007792	-0.012429	0.003740
840	4.197197	0.005000	9.628458	-0.078480	1.819698	0.508521	-0.130664	-0.314515	0.007866	-0.005358	0.002498
841	4.202197	0.005000	9.679997	-0.066197	1.922760	0.508632	-0.131222	-0.314639	0.015262	-0.006674	0.012580
842	4.207197	0.005000	9.564667	-0.098266	1.991347	0.508744	-0.131779	-0.314764	-0.000611	-0.010851	0.017692
843	4.212197	0.005000	9.496080	-0.124855	1.994105	0.508855	-0.132337	-0.314888	0.013813	-0.009785	0.015985
844	4.217197	0.005000	9.623258	-0.147502	1.863196	0.508955	-0.132755	-0.314974	0.012524	-0.008823	-0.006516
845	4.222197	0.005000	9.689968	-0.078480	2.001240	0.508955	-0.131974	-0.314725	0.010633	-0.009676	0.007900
846	4.227197	0.005000	9.574742	-0.117629	2.001240	0.508955	-0.131193	-0.314476	0.012741	-0.005637	0.008499
847	4.232197	0.005000	9.577041	-0.115239	1.959519	0.508955	-0.130413	-0.314227	0.010547	-0.006720	0.000482
848	4.237197	0.005000	9.535320	-0.117720	1.913048	0.508955	-0.129632	-0.313978	0.011229	-0.010721	0.011958
849	4.242197	0.005000	9.542566	-0.078480	2.040480	0.508955	-0.128852	-0.313729	0.006071	-0.015490	0.002119
850	4.247197	0.005000	9.574560	-0.039240	1.873783	0.508955	-0.128071	-0.313480	0.002961	-0.016255	0.006986
851	4.252197	0.005000	9.562408	-0.051392	1.989088	0.508955	-0.127290	-0.313231	-0.000877	-0.007056	0.008278
852	4.257197	0.005000	9.584680	-0.068360	1.922760	0.508955	-0.126510	-0.312982	0.016621	-0.004512	-0.000070
853	4.262197	0.005000	9.609020	0.000000	1.861510	0.508955	-0.125729	-0.312733	0.002232	-0.011281	0.005889
854	4.267197	0.005000	9.476460	-0.019620	1.824660	0.508955	-0.124949	-0.312484	-0.003400	-0.009529	0.007606
855	4.272197	0.005000	9.569810	-0.061235	1.900765	0.508955	-0.124168	-0.312235	0.004606	-0.017878	0.012547
856	4.277197	0.005000	9.589415	-0.054095	1.907905	0.508955	-0.123388	-0.311986	-0.002110	-0.013106	0.005697
857	4.282197	0.005000	9.522840	-0.198000	1.935240	0.508955	-0.122607	-0.311737	0.005353	-0.009747	0.007517
858	4.287197	0.005000	9.427349	-0.078480	1.932509	0.509035	-0.122789	-0.311846	0.006576	-0.008314	0.001318
859	4.292197	0.005000	9.596561	-0.078480	1.930094	0.509147	-0.123347	-0.312095	-0.001191	-0.015277	-0.001124
860	4.297197	0.005000	9.726590	0.000000	1.888450	0.509258	-0.123905	-0.312344	-0.001417	-0.013111	0.012028
861	4.302197	0.005000	9.687230	-0.036715	1.925285	0.509370	-0.124463	-0.312594	-0.000284	0.000089	-0.010740
862	4.307197	0.005000	9.653146	0.000000	2.001452	0.509482	-0.125021	-0.312843	-0.000552	-0.006135	0.004029
863	4.312197	0.005000	9.618393	-0.073887	1.968890	0.509593	-0.125578	-0.313092	0.005642	-0.006643	0.009651
864	4.317197	0.005000	9.535320	0.064339	1.927474	0.509705	-0.126136	-0.313341	0.005801	-0.009769	0.011606
865	4.322197	0.005000	9.645921	-0.007119	1.954881	0.509816	-0.126694	-0.313590	0.003911	-0.009680	0.012932
866	4.327197	0.005000	9.554389	-0.029705	1.922760	0.509928	-0.127252	-0.313839	0.001265	-0.003743	0.004157
867	4.332197	0.005000	9.562618	-0.093836	1.934702	0.510040	-0.127810	-0.314088	0.011415	-0.009234	0.008888
868	4.337197	0.005000	9.574560	-0.014355	1.965826	0.510151	-0.128368	-0.314337	-0.003250	-0.006678	0.015820
869	4.342197	0.005000	9.530146	-0.078480	1.944967	0.510263	-0.128925	-0.314587	0.012133	-0.004673	0.009587
870	4.347197	0.005000	9.516335	-0.019832	1.961576	0.510374	-0.129483	-0.314836	0.012439	-0.003847	0.006266
871	4.352197	0.005000	9.635598	-0.056682	2.005597	0.510334	-0.129889	-0.315000	-0.000293	-0.010766	0.006490
872	4.357197	0.005000	9.677213	-0.039240	1.971107	0.509999	-0.130000	-0.315000	0.004696	-0.006501	0.014133
873	4.362197	0.005000	9.508446	-0.039240	1.947492	0.509665	-0.130112	-0.315000	0.002404	-0.002599	0.000201
874	4.367197	0.005000	9.564608	-0.069095	1.981337	0.509330	-0.130223	-0.315000	0.004973	-0.008384	0.009896
875	4.372197	0.005000	9.479475	-0.102630	2.025390	0.508996	-0.130335	-0.315000	-0.000626	0.001206	0.011256
876	4.377197	0.005000	9.618929	-0.073351	1.951742	0.508661	-0.130446	-0.315000	0.002443	-0.007059	-0.000533
877	4.382197	0.005000	9.608352	-0.041964	1.883520	0.508327	-0.130558	-0.315000	-0.004947	-0.007661	0.007668
878	4.387197	0.005000	9.574257	-0.078177	1.922760	0.507992	-0.130669	-0.315000	-0.009769	-0.007533	0.007817
879	4.392197	0.005000	9.609605	-0.113525	1.959903	0.507658	-0.130781	-0.315000	0.012210	-0.008411	0.012643
880	4.397197	0.005000	9.662042	-0.004501	1.957499	0.507323	-0.130892	-0.315000	-0.003402	-0.009681	0.006980
881	4.402197	0.005000	9.535320	-0.025405	1.800388	0.506989	-0.131004	-0.315000	-0.000500	-0.014245	0.008929
882	4.407197	0.005000	9.604476	-0.078480	1.894788	0.506654	-0.131115	-0.315000	0.007153	-0.004703	0.002450
883	4.412197	0.005000	9.668803	-0.027502	2.017003	0.506319	-0.131227	-0.315000	0.005121	-0.004607	0.010565
884	4.417197	0.005000	9.603453	-0.024794	1.937206	0.505985	-0.131338	-0.315000	0.006257	-0.014699	0.012796
885	4.422197	0.005000	9.596979	-0.039240	1.962000	0.506077	-0.130810	-0.314762	-0.008992	-0.004177	0.008863
886	4.427197	0.005000	9.534503	-0.058452	2.060508	0.506188	-0.130253	-0.314513	0.005363	-0.007939	0.005672
887	4.432197	0.005000	9.552973	-0.043173	1.962000	0.506300	-0.129695	-0.314264	0.003730	-0.005795	0.009839
888	4.437197	0.005000	9.535320	-0.156960	1.907497	0.506411	-0.129138	-0.314015	0.012602	-0.009496	0.010963
889	4.442197	0.005000	9.600912	-0.078480	1.870057	0.506523	-0.128580	-0.313766	0.018150	-0.009501	0.006704
890	4.447197	0.005000	9.555644	-0.087234	1.943084	0.506634	-0.128023	-0.313517	0.001520	-0.004383	0.002973
891	4.452197	0.005000	9.613800	-0.007747	2.032733	0.506746	-0.127465	-0.313268	0.001855	-0.014267	0.004606
892	4.457197	0.005000	9.647699	-0.073139	1.956659	0.506857	-0.126908	-0.313019	-0.002612	0.001180	0.011618
893	4.462197	0.005000	9.459729	-0.081369	1.886409	0.506969	-0.126350	-0.312770	-0.004776	-0.011767	0.003723
894	4.467197	0.005000	9.535320	-0.040269	1.923789	0.507080	-0.125793	-0.312521	0.006828	-0.002938	0.008474
895	4.472197	0.005000	9.535320	-0.117720	2.001240	0.507192	-0.125235	-0.312272	-0.002664	-0.009709	0.002789
896	4.477197	0.005000	9.531018	-0.148356	1.892124	0.507304	-0.124678	-0.312023	0.004748	-0.007936	0.012345
897	4.482197	0.005000	9.502786	-0.150254	1.994534	0.507415	-0.124120	-0.311774	-0.001497	-0.006428	0.013997
898	4.487197	0.005000	9.556317	-0.156960	1.874399	0.507463	-0.124263	-0.311880	-0.010010	-0.007406	0.013762
899	4.492197	0.005000	9.559039	-0.141439	1.859801	0.507463	-0.124932	-0.312254	0.002001	-0.014254	0.005229
900	4.497197	0.005000	9.574560	-0.042704	1.819275	0.507463	-0.125601	-0.312627	0.002504	-0.014354	0.008486
901	4.502197	0.005000	9.496080	-0.078480	1.788415	0.507463	-0.126270	-0.313001	0.000541	-0.000313	0.004399
902	4.507197	0.005000	9.536560	-0.020240	1.726560	0.507463	-0.126939	-0.313374	0.001849	0.003103	0.001029
903	4.512197	0.005000	9.645960	-0.078480	1.840740	0.507463	-0.127608	-0.313748	0.006388	-0.010815	0.009780
904	4.517197	0.005000	9.622665	-0.039240	1.859468	0.507463	-0.128277	-0.314121	-0.009157	-0.007852	0.009529
905	4.522197	0.005000	9.560878	-0.104941	1.817819	0.507463	-0.128946	-0.314495	0.011106	-0.011218	0.008079
906	4.527197	0.005000	9.603435	-0.078480	1.815405	0.507463	-0.129615	-0.314869	0.009022	-0.007070	0.005311
907	4.532197	0.005000	9.653040	-0.141044	1.969958	0.507463	-0.130284	-0.315242	0.013591	-0.008480	0.004011
908	4.537197	0.005000	9.585645	-0.067395	1.906133	0.507463	-0.130953	-0.315616	0.006363	-0.015430	0.015191
909	4.542197	0.005000	9.695417	-0.078480	1.886657	0.507463	-0.131622	-0.315989	-0.001210	-0.002873	0.005989
910	4.547197	0.005000	9.611667	-0.079191	1.920627	0.507463	-0.132291	-0.316363	0.003450	-0.012814	0.001833
911	4.552197	0.005000	9.571192	-0.117720	1.880152	0.507484	-0.132815	-0.316667	-0.001345	-0.007648	0.006121
912	4.557197	0.005000	9.657142	0.031037	1.997138	0.507595	-0.132704	-0.316667	0.007614	-0.004501	0.005657
913	4.562197	0.005000	9.600786	0.039240	1.870307	0.507707	-0.132592	-0.316667	0.009514	-0.000780	0.007272
914	4.567197	0.005000	9.692280	-0.008922	1.883520	0.507818	-0.132481	-0.316667	0.004627	-0.007095	0.003725
915	4.572197	0.005000	9.597219	-0.089810	2.001240	0.507930	-0.132369	-0.316667	0.008469	-0.010896	0.006151
916	4.577197	0.005000	9.445676	-0.117720	1.976038	0.508041	-0.132257	-0.316667	-0.004439	-0.007462	0.009693
917	4.582197	0.005000	9.518907	-0.156960	1.893519	0.508153	-0.132146	-0.316667	0.003323	-0.013147	0.000666
918	4.587197	0.005000	9.673477	-0.076846	1.900689	0.508264	-0.132034	-0.316667	0.000110	-0.006948	0.019886
919	4.592197	0.005000	9.653040	-0.054186	1.922760	0.508376	-0.131923	-0.316667	0.001142	-0.006088	-0.005718
920	4.597197	0.005000	9.543216	-0.023568	2.024808	0.508487	-0.131811	-0.316667	0.016799	-0.012509	0.009140
921	4.602197	0.005000	9.508772	-0.078480	1.974983	0.508599	-0.131699	-0.316667	0.003798	-0.006069	0.000135
922	4.607197	0.005000	9.624375	-0.089055	2.019330	0.508710	-0.131588	-0.316667	0.008861	-0.011772	0.002605
923	4.612197	0.005000	9.621960	-0.062159	1.962000	0.508822	-0.131476	-0.316667	-0.000404	-0.013442	0.006748
924	4.617197	0.005000	9.641531	-0.078480	1.934269	0.508933	-0.131365	-0.316667	0.003839	-0.008912	0.003146
925	4.622197	0.005000	9.531982	-0.114382	1.926098	0.508955	-0.130893	-0.316567	0.014037	-0.013714	0.015846
926	4.627197	0.005000	9.534386	-0.039240	1.923694	0.508955	-0.130336	-0.316442	0.004233	-0.005223	0.002413
927	4.632197	0.005000	9.533853	-0.039240	1.924227	0.508955	-0.129778	-0.316317	0.005349	-0.011902	0.003119
928	4.637197	0.005000	9.539209	-0.078480	1.918871	0.508955	-0.129221	-0.316193	-0.005030	-0.006891	0.007258
929	4.642197	0.005000	9.646735	-0.006305	1.929065	0.508955	-0.128663	-0.316068	0.010323	-0.006434	-0.007419
930	4.647197	0.005000	9.544031	-0.039240	1.992529	0.508955	-0.128106	-0.315944	0.012969	-0.011587	0.009083
931	4.652197	0.005000	9.591548	-0.039240	2.040480	0.508955	-0.127548	-0.315819	0.003976	-0.009476	-0.003039
932	4.657197	0.005000	9.548854	-0.052774	2.001240	0.508955	-0.126991	-0.315695	0.006885	-0.007131	0.008803
933	4.662197	0.005000	9.496080	-0.117720	1.938707	0.508955	-0.126433	-0.315570	0.008728	-0.004080	0.002006
934	4.667197	0.005000	9.516963	-0.099363	1.943643	0.508955	-0.125876	-0.315446	0.009012	-0.008880	0.004872
935	4.672197	0.005000	9.616081	-0.041521	1.964281	0.508955	-0.125318	-0.315321	0.000826	-0.007974	0.008561
936	4.677197	0.005000	9.606327	-0.039240	2.017124	0.508955	-0.124761	-0.315197	-0.009439	-0.012610	-0.005197
937	4.682197	0.005000	9.535320	-0.105467	1.960760	0.508955	-0.124203	-0.315072	0.004502	-0.007092	0.005816
938	4.687197	0.005000	9.585679	-0.067361	1.928644	0.509002	-0.123975	-0.314528	0.003272	-0.004815	0.004560
939	4.692197	0.005000	9.683552	-0.039240	2.014295	0.509114	-0.124198	-0.313407	0.003796	-0.016450	0.011344
940	4.697197	0.005000	9.692280	-0.012707	1.982180	0.509225	-0.124421	-0.312286	-0.000092	-0.004751	0.009368
941	4.702197	0.005000	9.653040	-0.117720	1.965963	0.509337	-0.124644	-0.311166	0.003338	-0.005471	0.007276
942	4.707197	0.005000	9.611534	-0.116587	1.921627	0.509448	-0.124867	-0.310045	0.002681	-0.014201	0.001530
943	4.712197	0.005000	9.573304	-0.116464	1.959489	0.509560	-0.125090	-0.308924	-0.002548	-0.011478	0.001487
944	4.717197	0.005000	9.581851	-0.078480	1.962000	0.509671	-0.125313	-0.307804	0.005466	-0.013405	0.009906
945	4.722197	0.005000	9.607779	-0.051281	2.040480	0.509783	-0.125536	-0.306683	0.007281	-0.005923	0.002619
946	4.727197	0.005000	9.683869	-0.008411	2.001240	0.509894	-0.125759	-0.305562	0.008109	-0.006055	0.005625
947	4.732197	0.005000	9.603014	-0.039240	1.962000	0.510006	-0.125982	-0.304442	0.003682	-0.007073	0.013356
948	4.737197	0.005000	9.600624	-0.026064	1.949112	0.510117	-0.126205	-0.303321	0.005308	-0.004735	0.001764
949	4.742197	0.005000	9.644902	-0.054791	2.001240	0.510229	-0.126428	-0.302200	0.009717	-0.002933	0.007636
950	4.747197	0.005000	9.653040	-0.018151	1.977212	0.510341	-0.126651	-0.301080	0.008704	-0.004484	0.005611
951	4.752197	0.005000	9.634362	-0.018678	1.920877	0.510428	-0.126874	-0.300027	0.012105	-0.010153	0.007349
952	4.757197	0.005000	9.574560	-0.045943	1.909354	0.509870	-0.127097	-0.300774	0.005652	0.000560	0.010181
953	4.762197	0.005000	9.613800	-0.053096	1.922760	0.509312	-0.127320	-0.301522	0.005157	-0.013611	-0.001343
954	4.767197	0.005000	9.625115	-0.078480	1.934075	0.508755	-0.127543	-0.302269	0.013725	-0.004931	0.009186
955	4.772197	0.005000	9.640621	-0.087420	1.953060	0.508197	-0.127766	-0.303016	0.010401	-0.010757	0.003888
956	4.777197	0.005000	9.685730	-0.078480	1.955450	0.507640	-0.127989	-0.303763	0.010563	-0.013705	0.008199
957	4.782197	0.005000	9.574560	-0.105195	1.856805	0.507082	-0.128212	-0.304510	-0.005087	-0.007474	0.006369
958	4.787197	0.005000	9.533535	-0.039240	1.885305	0.506525	-0.128435	-0.305257	0.003557	-0.009539	0.009510
959	4.792197	0.005000	9.573366	-0.116526	1.922760	0.505967	-0.128658	-0.306004	-0.001802	-0.010155	0.010572
960	4.797197	0.005000	9.538754	-0.124588	1.962000	0.505410	-0.128881	-0.306751	-0.002199	-0.009025	0.006368
961	4.802197	0.005000	9.607976	-0.033416	1.855928	0.504852	-0.129104	-0.307498	0.002639	-0.013998	0.008426
962	4.807197	0.005000	9.628443	-0.039240	1.976643	0.504294	-0.129327	-0.308245	0.008655	-0.012455	-0.000460
963	4.812197	0.005000	9.613800	-0.028651	1.951411	0.503737	-0.129550	-0.308993	0.004404	-0.013069	0.006784
964	4.817197	0.005000	9.534972	0.000000	1.935724	0.503179	-0.129773	-0.309740	0.001876	-0.011039	0.001062
965	4.822197	0.005000	9.589914	0.039240	1.907406	0.502040	-0.130142	-0.309107	0.001726	-0.015693	0.009132
966	4.827197	0.005000	9.589151	-0.021296	1.822984	0.500590	-0.130588	-0.307737	0.009426	-0.014653	0.011500
967	4.832197	0.005000	9.613800	-0.077011	1.826864	0.499139	-0.131034	-0.306367	0.000004	-0.001525	0.004536
968	4.837197	0.005000	9.646748	-0.124012	1.910175	0.497689	-0.131480	-0.304996	0.005392	-0.014313	0.004536
969	4.842197	0.005000	9.653040	-0.078480	2.026415	0.496239	-0.131927	-0.303626	-0.006744	0.002374	0.013489
970	4.847197	0.005000	9.558622	-0.094418	1.989589	0.494789	-0.132373	-0.302256	0.002485	-0.005748	0.004040
971	4.852197	0.005000	9.517046	-0.039240	1.922760	0.493338	-0.132819	-0.300885	0.009763	-0.008247	-0.000455
972	4.857197	0.005000	9.607038	-0.039240	1.929522	0.491888	-0.133265	-0.299515	0.012672	-0.003185	0.002269
973	4.862197	0.005000	9.544064	-0.074108	2.027365	0.490438	-0.133712	-0.298145	0.006554	-0.015977	0.006531
974	4.867197	0.005000	9.615797	-0.039240	1.807037	0.488988	-0.134158	-0.296775	-0.005348	-0.002402	-0.002030
975	4.872197	0.005000	9.653040	-0.116026	1.844280	0.487537	-0.134604	-0.295404	0.008715	-0.010446	0.002437
976	4.877197	0.005000	9.646566	-0.111246	1.916286	0.486087	-0.135050	-0.294034	0.009363	-0.002493	0.004528
977	4.882197	0.005000	9.580172	-0.089704	1.855504	0.484637	-0.135496	-0.292664	0.013112	0.000116	0.002401
978	4.887197	0.005000	9.456840	-0.078480	1.868287	0.484008	-0.135669	-0.291939	-0.003801	-0.008858	0.004498
979	4.892197	0.005000	9.574560	-0.088983	1.922760	0.485569	-0.135111	-0.292935	-0.004666	-0.000654	-0.003850
980	4.897197	0.005000	9.521914	-0.117720	1.936166	0.487130	-0.134554	-0.293931	0.007924	-0.008861	0.009448
981	4.902197	0.005000	9.550645	-0.087069	1.938085	0.488691	-0.133996	-0.294927	-0.001750	-0.002971	0.007552
982	4.907197	0.005000	9.574560	-0.078480	1.940498	0.490252	-0.133439	-0.295923	0.001664	-0.000801	0.006663
983	4.912197	0.005000	9.612744	-0.116664	1.903668	0.491813	-0.132881	-0.296919	0.006190	-0.006979	0.005225
984	4.917197	0.005000	9.659303	-0.117720	1.893746	0.493374	-0.132324	-0.297915	0.004349	-0.005422	0.001980
985	4.922197	0.005000	9.577616	-0.078480	1.919704	0.494936	-0.131766	-0.298911	0.004648	-0.011237	0.003355
986	4.927197	0.005000	9.523596	-0.050964	1.962000	0.496497	-0.131208	-0.299907	0.003150	-0.012430	0.002560
987	4.932197	0.005000	9.486747	-0.039240	1.913427	0.498058	-0.130651	-0.300904	0.002311	-0.013491	0.006148
988	4.937197	0.005000	9.626936	-0.078480	1.896656	0.499619	-0.130093	-0.301900	-0.004237	-0.003915	0.009804
989	4.942197	0.005000	9.727357	-0.074317	1.962000	0.501180	-0.129536	-0.302896	0.006809	-0.008584	0.000616
990	4.947197	0.005000	9.572815	-0.039240	1.881775	0.502741	-0.128978	-0.303892	0.005409	-0.012939	0.016594
991	4.952197	0.005000	9.612499	-0.039240	1.998638	0.504303	-0.128421	-0.304888	0.001357	-0.004408	0.011575
992	4.957197	0.005000	9.613800	-0.036215	1.889571	0.504478	-0.127962	-0.305221	0.012376	-0.004940	0.004704
993	4.962197	0.005000	9.686864	-0.033824	1.990409	0.504478	-0.127516	-0.305470	0.010434	-0.004015	0.013271
994	4.967197	0.005000	9.754991	-0.031355	1.993355	0.504478	-0.127069	-0.305719	0.014997	-0.005528	0.011436
995	4.972197	0.005000	9.566219	-0.049540	1.962000	0.504478	-0.126623	-0.305969	0.007561	-0.001384	0.016348
996	4.977197	0.005000	9.561853	-0.105013	1.881285	0.504478	-0.126177	-0.306218	0.002063	-0.007865	0.004811
997	4.982197	0.005000	9.565561	-0.078480	1.829159	0.504478	-0.125731	-0.306467	0.001882	-0.006100	0.011507
998	4.987197	0.005000	9.596010	-0.096270	2.022690	0.504478	-0.125285	-0.306716	0.005490	-0.004820	0.008184
999	4.992197	0.005000	9.594725	-0.001089	1.903685	0.504478	-0.124838	-0.306965	0.002564	-0.012060	0.013421
1000	4.997197	0.005000	9.568691	0.039240	1.906075	0.504478	-0.124392	-0.307214	0.002919	-0.013636	0.011543
1001	5.002197	0.005000	9.628110	0.000000	1.933379	0.504478	-0.123946	-0.307463	-0.002045	-0.014413	0.001295
1002	5.007197	0.005000	9.583001	-0.090400	1.934680	0.504478	-0.123500	-0.307712	-0.006345	-0.016671	0.010952
1003	5.012197	0.005000	9.692280	-0.156960	1.922760	0.504478	-0.123053	-0.307962	-0.003582	-0.000418	0.006318
1004	5.017197	0.005000	9.645885	-0.149805	1.947690	0.504478	-0.122607	-0.308211	0.001016	-0.011936	0.010058
1005	5.022197	0.005000	9.574560	-0.078480	1.917980	0.504478	-0.122388	-0.308523	-0.002635	-0.016742	0.005080
1006	5.027197	0.005000	9.496080	-0.153042	1.883520	0.504478	-0.122388	-0.308897	0.005548	-0.010028	0.007908
1007	5.032197	0.005000	9.534866	-0.117266	1.844734	0.504478	-0.122388	-0.309270	-0.003019	-0.010882	0.017798
1008	5.037197	0.005000	9.535320	-0.114891	1.889178	0.504478	-0.122388	-0.309644	0.007825	-0.014831	0.006183
1009	5.042197	0.005000	9.535320	-0.078480	1.839061	0.504478	-0.122388	-0.310017	0.013845	-0.008698	0.004042
1010	5.047197	0.005000	9.527726	-0.054428	1.915166	0.504478	-0.122388	-0.310391	0.000899	-0.014243	0.006422
1011	5.052197	0.005000	9.584529	-0.107751	2.000605	0.504478	-0.122388	-0.310764	0.003524	-0.011747	0.007064
1012	5.057197	0.005000	9.574560	-0.039240	1.974359	0.504478	-0.122388	-0.311138	0.003076	-0.005509	0.005806
1013	5.062197	0.005000	9.525397	-0.053974	1.868786	0.504478	-0.122388	-0.311511	-0.006682	-0.010160	-0.001345
1014	5.067197	0.005000	9.648048	0.000000	1.944876	0.504478	-0.122388	-0.311885	-0.007202	-0.011322	0.004155
1015	5.072197	0.005000	9.614030	-0.078710	2.059756	0.504478	-0.122388	-0.312259	0.002609	-0.006638	0.004747
1016	5.077197	0.005000	9.635945	-0.044290	2.001240	0.504478	-0.122388	-0.312632	0.000186	-0.019377	0.007695
1017	5.082197	0.005000	9.599118	-0.014682	1.868838	0.504478	-0.122388	-0.313006	-0.000361	-0.005812	0.011773
1018	5.087197	0.005000	9.559868	0.039240	1.925178	0.504519	-0.122429	-0.313333	0.004379	-0.004613	0.013617
1019	5.092197	0.005000	9.701941	-0.058960	1.844280	0.504854	-0.122764	-0.313333	0.006462	-0.000659	0.004497
1020	5.097197	0.005000	9.660493	-0.039240	1.922760	0.505189	-0.123099	-0.313333	-0.004028	-0.003464	-0.000974
1021	5.102197	0.005000	9.648003	-0.049314	1.917723	0.505523	-0.123434	-0.313333	0.004984	-0.004410	0.021709
1022	5.107197	0.005000	9.616402	-0.039240	1.920158	0.505858	-0.123768	-0.313333	0.009028	-0.008196	0.005498
1023	5.112197	0.005000	9.574136	-0.078268	1.922760	0.506193	-0.124103	-0.313333	0.014661	-0.009254	0.006427
1024	5.117197	0.005000	9.496080	-0.002189	1.959811	0.506527	-0.124438	-0.313333	0.005469	-0.002796	0.015787
1025	5.122197	0.005000	9.574560	-0.078480	1.927367	0.506862	-0.124772	-0.313333	0.008550	-0.003056	0.002584
1026	5.127197	0.005000	9.528308	0.007012	1.929772	0.507196	-0.125107	-0.313333	0.003846	-0.002296	0.013250
1027	5.132197	0.005000	9.544736	-0.039240	1.991824	0.507531	-0.125442	-0.313333	0.001404	-0.000802	0.008611
1028	5.137197	0.005000	9.629380	-0.027410	1.907180	0.507866	-0.125776	-0.313333	0.005598	-0.006835	0.006655
1029	5.142197	0.005000	9.642277	-0.103482	1.805040	0.508200	-0.126111	-0.313333	0.002214	-0.010217	0.008807
1030	5.147197	0.005000	9.630451	-0.089193	1.912047	0.508535	-0.126446	-0.313333	0.004849	-0.008833	0.004623
1031	5.152197	0.005000	9.573925	0.000635	1.961365	0.508870	-0.126781	-0.313333	-0.004832	-0.011072	0.011268
1032	5.157197	0.005000	9.592123	-0.017563	1.918645	0.508955	-0.126783	-0.313704	0.001387	-0.009007	-0.001066
1033	5.162197	0.005000	9.550493	-0.102547	1.868347	0.508955	-0.126671	-0.314202	0.009203	-0.011110	0.009316
1034	5.167197	0.005000	9.508878	-0.012798	1.896318	0.508955	-0.126560	-0.314701	-0.006841	-0.005928	0.007697
1035	5.172197	0.005000	9.477655	-0.107312	1.970017	0.508955	-0.126448	-0.315199	-0.001943	-0.004249	0.013744
1036	5.177197	0.005000	9.613800	-0.007655	1.883520	0.508955	-0.126337	-0.315697	0.009688	-0.006295	0.004166
1037	5.182197	0.005000	9.642541	-0.083729	1.883520	0.508955	-0.126225	-0.316196	0.010701	-0.008899	-0.001965
1038	5.187197	0.005000	9.580225	-0.078480	1.925592	0.508955	-0.126113	-0.316694	0.007623	-0.016967	0.012399
1039	5.192197	0.005000	9.613371	-0.078051	1.883520	0.508955	-0.126002	-0.317192	-0.002604	-0.009614	0.003860
1040	5.197197	0.005000	9.574560	-0.039240	1.846247	0.508955	-0.125890	-0.317691	0.004793	-0.012222	0.006933
1041	5.202197	0.005000	9.530926	-0.043634	1.922760	0.508955	-0.125779	-0.318189	0.004386	-0.005532	0.006791
1042	5.207197	0.005000	9.606990	-0.064859	1.955190	0.508955	-0.125667	-0.318687	0.003731	-0.005239	-0.002058
1043	5.212197	0.005000	9.623376	-0.078480	2.079720	0.508955	-0.125555	-0.319186	-0.000312	-0.014212	0.006935
1044	5.217197	0.005000	9.617188	-0.117720	2.013191	0.508955	-0.125444	-0.319684	-0.005943	-0.007709	-0.001888
1045	5.222197	0.005000	9.717179	-0.132061	1.990681	0.508955	-0.125210	-0.319681	-0.008293	-0.009560	0.008462
1046	5.227197	0.005000	9.591276	-0.055956	1.962000	0.508955	-0.124764	-0.318809	-0.003860	-0.005511	0.002248
1047	5.232197	0.005000	9.515401	0.000000	1.904036	0.508955	-0.124318	-0.317938	-0.000997	-0.017860	-0.000529
1048	5.237197	0.005000	9.539544	-0.095988	1.887744	0.508955	-0.123872	-0.317066	-0.000616	-0.007862	0.008607
1049	5.242197	0.005000	9.511176	-0.117720	1.913712	0.508955	-0.123426	-0.316194	0.005494	-0.003330	0.001523
1050	5.247197	0.005000	9.626487	-0.026553	1.884698	0.508955	-0.122980	-0.315323	0.016661	-0.011845	0.006615
1051	5.252197	0.005000	9.613800	-0.078480	1.895646	0.508955	-0.122534	-0.314451	0.006720	-0.003867	0.001697
1052	5.257197	0.005000	9.519679	-0.078480	2.001240	0.508955	-0.122088	-0.313579	0.006696	-0.012806	0.011505
1053	5.262197	0.005000	9.563659	-0.117720	1.883520	0.508955	-0.121642	-0.312708	0.008489	-0.011681	0.016580
1054	5.267197	0.005000	9.568469	-0.039240	1.995149	0.508955	-0.121196	-0.311836	0.009004	-0.015906	-0.002844
1055	5.272197	0.005000	9.536575	-0.003139	1.922760	0.508955	-0.120750	-0.310965	0.002889	-0.018831	0.017722
1056	5.277197	0.005000	9.613800	-0.196200	1.847790	0.508955	-0.120304	-0.310093	-0.004448	-0.004783	0.003760
1057	5.282197	0.005000	9.578705	-0.126010	2.019756	0.508955	-0.119857	-0.309221	0.011515	-0.015795	0.005784
1058	5.287197	0.005000	9.685681	-0.045839	1.916161	0.508955	-0.119411	-0.308350	0.000391	-0.012375	0.005577
1059	5.292197	0.005000	9.595772	-0.030226	1.971014	0.508846	-0.119841	-0.308699	-0.001676	-0.011996	0.004696
1060	5.297197	0.005000	9.574560	-0.039240	1.878544	0.508734	-0.120287	-0.309073	0.001663	-0.011132	0.013609
1061	5.302197	0.005000	9.627635	-0.064645	1.936595	0.508623	-0.120733	-0.309447	0.004490	-0.014038	0.006370
1062	5.307197	0.005000	9.591079	-0.022721	1.860799	0.508511	-0.121179	-0.309820	0.013400	-0.007966	-0.001616
1063	5.312197	0.005000	9.594906	0.000000	1.884972	0.508400	-0.121625	-0.310194	-0.001726	-0.003774	0.006016
1064	5.317197	0.005000	9.653040	-0.057196	1.922760	0.508288	-0.122071	-0.310567	0.010302	-0.009062	0.008353
1065	5.322197	0.005000	9.558979	-0.078480	1.985659	0.508177	-0.122517	-0.310941	0.002786	-0.002310	0.011033
1066	5.327197	0.005000	9.640212	-0.039240	1.962000	0.508065	-0.122963	-0.311314	0.003854	-0.002709	0.006127
1067	5.332197	0.005000	9.624616	-0.078480	1.972816	0.507954	-0.123409	-0.311688	0.012108	-0.011553	0.001725
1068	5.337197	0.005000	9.653040	-0.095362	2.110519	0.507842	-0.123855	-0.312061	0.010721	-0.000256	0.011420
1069	5.342197	0.005000	9.640938	-0.135873	2.073669	0.507731	-0.124301	-0.312435	0.007343	-0.007051	0.010557
1070	5.347197	0.005000	9.613800	-0.156960	1.997994	0.507620	-0.124747	-0.312808	0.007350	-0.007656	0.007037
1071	5.352197	0.005000	9.651357	-0.079322	1.922760	0.507508	-0.125193	-0.313182	0.001163	-0.001626	0.002295
1072	5.357197	0.005000	9.612242	-0.117720	1.960442	0.507463	-0.125439	-0.313185	-0.002292	-0.016088	0.004374
1073	5.362197	0.005000	9.574560	-0.082461	1.848261	0.507463	-0.125551	-0.312935	-0.003618	-0.006438	0.005077
1074	5.367197	0.005000	9.620197	-0.072083	1.864329	0.507463	-0.125663	-0.312686	-0.006578	-0.014120	0.003641
1075	5.372197	0.005000	9.513687	-0.078480	1.874717	0.507463	-0.125774	-0.312437	-0.005100	-0.009412	0.003448
1076	5.377197	0.005000	9.585778	-0.106502	1.866716	0.507463	-0.125886	-0.312188	0.002730	-0.015771	0.009393
1077	5.382197	0.005000	9.509706	-0.013626	1.936386	0.507463	-0.125997	-0.311939	-0.000080	-0.004424	0.007544
1078	5.387197	0.005000	9.551359	0.032078	1.915598	0.507463	-0.126109	-0.311690	-0.007731	-0.008016	0.008977
1079	5.392197	0.005000	9.537662	-0.039240	1.883520	0.507463	-0.126221	-0.311441	-0.001966	-0.010974	0.014080
1080	5.397197	0.005000	9.511981	-0.039240	1.846759	0.507463	-0.126332	-0.311192	-0.002149	-0.009480	0.004397
1081	5.402197	0.005000	9.551289	-0.031937	1.938729	0.507463	-0.126444	-0.310942	0.010284	-0.004677	0.001742
1082	5.407197	0.005000	9.509640	-0.090601	1.857840	0.507463	-0.126555	-0.310693	0.001343	-0.001758	0.003803
1083	5.412197	0.005000	9.613800	-0.050386	1.928563	0.507463	-0.126667	-0.310444	0.004889	0.001208	0.007638
1084	5.417197	0.005000	9.596525	-0.039240	1.883520	0.507463	-0.126779	-0.310195	0.003919	-0.014199	0.011165
1085	5.422197	0.005000	9.634252	-0.078480	1.955737	0.507439	-0.126818	-0.310108	0.002012	-0.013662	-0.005269
1086	5.427197	0.005000	9.574560	-0.007745	1.930505	0.507327	-0.126595	-0.310606	0.003921	-0.009234	0.004802
1087	5.432197	0.005000	9.577555	-0.039240	1.999742	0.507216	-0.126372	-0.311104	0.001209	-0.013206	0.012790
1088	5.437197	0.005000	9.576366	-0.039240	1.962000	0.507104	-0.126149	-0.311602	0.011236	-0.013186	0.016493
1089	5.442197	0.005000	9.610493	-0.006614	2.037173	0.506993	-0.125926	-0.312100	0.007711	-0.006292	0.006832
1090	5.447197	0.005000	9.541044	-0.145512	1.928484	0.506881	-0.125703	-0.312599	0.001271	-0.010878	0.000934
1091	5.452197	0.005000	9.636781	-0.171811	1.970130	0.506770	-0.125480	-0.313097	0.005128	-0.010300	0.013332
1092	5.457197	0.005000	9.624345	-0.128265	1.922760	0.506658	-0.125257	-0.313595	0.004902	-0.011740	0.001409
1093	5.462197	0.005000	9.627067	-0.078480	1.962000	0.506546	-0.125034	-0.314093	0.003223	-0.016519	0.009231
1094	5.467197	0.005000	9.645083	-0.102078	1.828638	0.506435	-0.124811	-0.314591	0.002864	-0.008982	0.014975
1095	5.472197	0.005000	9.595768	-0.078480	1.958823	0.506323	-0.124587	-0.315089	0.009117	-0.002197	0.009136
1096	5.477197	0.005000	9.634207	-0.039240	1.980833	0.506212	-0.124364	-0.315587	0.013433	-0.014346	0.014285
