# FOX Logger (IMU file)
# (c) INRIA 2011-2014
# File created from file sensbiotk output
#
# File format:
# id	t	dt	ax	ay	az	mx	my	mz	gx	gy	gz
#
# Units:
#	Time: s
#	Acceleration: m.s^-2
#	Magneto: gauss
#	Gyrometer: rad/s
#
1	0.017853	0.017853	7.010572	-0.052628	-6.382732	0.055224	-0.167164	-0.631667	0.066653	0.003066	-0.009317
2	0.022853	0.005000	7.040192	0.016232	-6.425905	0.054882	-0.167392	-0.631158	0.052279	-0.002883	-0.014013
3	0.027853	0.005000	7.005128	-0.097312	-6.495008	0.054541	-0.167619	-0.630650	0.067644	0.002496	-0.012661
4	0.032853	0.005000	7.023960	-0.099930	-6.517501	0.054199	-0.167847	-0.630141	0.049435	-0.001388	-0.016158
5	0.037853	0.005000	7.029557	-0.181254	-6.513840	0.053858	-0.168075	-0.629633	0.057280	-0.003413	-0.011226
6	0.042853	0.005000	7.038996	-0.105618	-6.474600	0.053516	-0.168302	-0.629124	0.056810	0.004161	-0.010915
7	0.047853	0.005000	7.003236	-0.177684	-6.504582	0.053175	-0.168530	-0.628616	0.063982	0.007616	-0.012985
8	0.052853	0.005000	7.017092	-0.078480	-6.421624	0.052833	-0.168758	-0.628107	0.061198	0.008427	-0.004936
9	0.057853	0.005000	6.988744	-0.121744	-6.400144	0.052492	-0.168985	-0.627599	0.059092	0.007025	-0.010270
10	0.062853	0.005000	6.907420	-0.118900	-6.360420	0.052150	-0.169213	-0.627090	0.054149	-0.000641	-0.011367
11	0.067853	0.005000	6.945480	-0.156960	-6.474600	0.051808	-0.169441	-0.626582	0.061527	0.001731	-0.008417
12	0.072853	0.005000	6.980212	-0.087496	-6.361388	0.051467	-0.169669	-0.626073	0.045936	0.002095	-0.013744
13	0.077853	0.005000	6.984720	-0.071128	-6.442712	0.051125	-0.169896	-0.625565	0.064828	0.000945	-0.009230
14	0.082853	0.005000	7.023960	-0.049436	-6.406316	0.050784	-0.170124	-0.625056	0.058741	0.009150	-0.006435
15	0.087853	0.005000	6.984599	-0.039119	-6.422199	0.051050	-0.169643	-0.625339	0.061521	-0.008432	-0.005321
16	0.092853	0.005000	6.992193	-0.125193	-6.529724	0.051391	-0.169074	-0.625720	0.051962	0.001178	-0.010527
17	0.097853	0.005000	7.083713	-0.097207	-6.454087	0.051733	-0.168505	-0.626102	0.060668	-0.011665	-0.003779
18	0.102853	0.005000	7.045062	-0.096618	-6.417222	0.052074	-0.167936	-0.626483	0.066252	0.002481	-0.006243
19	0.107853	0.005000	7.078494	-0.023946	-6.428719	0.052415	-0.167367	-0.626864	0.057461	-0.002697	-0.017312
20	0.112853	0.005000	7.065091	-0.090930	-6.462150	0.052757	-0.166798	-0.627245	0.059773	-0.000454	-0.017158
21	0.117853	0.005000	7.033566	-0.108114	-6.396120	0.053098	-0.166229	-0.627626	0.053192	0.006404	-0.015708
22	0.122853	0.005000	6.991482	-0.071718	-6.428598	0.053440	-0.165661	-0.628008	0.048853	-0.012804	-0.008896
23	0.127853	0.005000	7.016124	-0.078480	-6.431442	0.053781	-0.165092	-0.628389	0.056241	-0.021305	-0.007289
24	0.132853	0.005000	7.103983	-0.040783	-6.399206	0.054122	-0.164523	-0.628770	0.060270	-0.016846	-0.007700
25	0.137853	0.005000	7.065802	-0.040541	-6.512539	0.054464	-0.163954	-0.629151	0.050816	-0.012167	-0.020619
26	0.142853	0.005000	7.110730	-0.008290	-6.482890	0.054805	-0.163385	-0.629532	0.075034	-0.006415	-0.019039
27	0.147853	0.005000	7.102440	0.057514	-6.499862	0.055147	-0.162816	-0.629914	0.074815	-0.024386	-0.017169
28	0.152853	0.005000	7.053367	0.039240	-6.386287	0.054960	-0.163215	-0.630196	0.078451	-0.026421	-0.026902
29	0.157853	0.005000	7.025170	-0.012677	-6.435360	0.054619	-0.163897	-0.630450	0.084483	-0.034463	-0.022167
30	0.162853	0.005000	7.071399	-0.047439	-6.380599	0.054278	-0.164579	-0.630704	0.085315	-0.027043	-0.025813
31	0.167853	0.005000	7.099440	-0.099600	-6.356880	0.053936	-0.165262	-0.630958	0.066293	-0.028638	-0.021816
32	0.172853	0.005000	6.989258	-0.078480	-6.396120	0.053595	-0.165944	-0.631212	0.084699	-0.038771	-0.026157
33	0.177853	0.005000	6.906240	-0.086437	-6.396120	0.053254	-0.166627	-0.631466	0.075902	-0.023894	-0.028331
34	0.182853	0.005000	6.931835	-0.026442	-6.487398	0.052913	-0.167309	-0.631720	0.083004	-0.023032	-0.012170
35	0.187853	0.005000	6.945480	-0.049194	-6.543701	0.052571	-0.167992	-0.631974	0.071736	-0.013350	-0.017038
36	0.192853	0.005000	7.031070	-0.046350	-6.520950	0.052230	-0.168674	-0.632228	0.080597	-0.028166	-0.016108
37	0.197853	0.005000	6.989037	-0.078480	-6.474600	0.051889	-0.169356	-0.632482	0.091742	-0.020159	-0.020102
38	0.202853	0.005000	6.980938	-0.117720	-6.549298	0.051548	-0.170039	-0.632736	0.093426	-0.022602	-0.022175
39	0.207853	0.005000	6.867953	-0.117720	-6.474600	0.051206	-0.170721	-0.632990	0.093561	-0.025313	-0.022415
40	0.212853	0.005000	6.945480	-0.153163	-6.372068	0.050865	-0.171404	-0.633244	0.079847	-0.018898	-0.014966
41	0.217853	0.005000	6.912881	-0.222158	-6.461318	0.050894	-0.171494	-0.633250	0.077208	-0.023823	-0.015460
42	0.222853	0.005000	6.876485	-0.166445	-6.366365	0.051122	-0.171266	-0.633123	0.063487	-0.024526	-0.005240
43	0.227853	0.005000	6.933605	-0.266421	-6.481831	0.051350	-0.171038	-0.632996	0.076864	-0.017733	-0.007941
44	0.232853	0.005000	6.950396	-0.147158	-6.459881	0.051577	-0.170811	-0.632869	0.085751	-0.014736	-0.002405
45	0.237853	0.005000	6.867000	-0.017563	-6.417797	0.051805	-0.170583	-0.632742	0.064606	-0.007720	0.000126
46	0.242853	0.005000	6.926647	-0.039240	-6.454193	0.052033	-0.170355	-0.632615	0.060162	-0.009016	-0.000475
47	0.247853	0.005000	6.906240	-0.046501	-6.412109	0.052260	-0.170128	-0.632488	0.078428	0.001033	0.000223
48	0.252853	0.005000	6.867000	-0.091111	-6.357554	0.052488	-0.169900	-0.632361	0.071967	-0.007059	0.002198
49	0.257853	0.005000	6.895469	-0.039240	-6.385349	0.052716	-0.169672	-0.632234	0.084584	-0.006357	-0.001561
50	0.262853	0.005000	6.859467	-0.007927	-6.404047	0.052943	-0.169445	-0.632107	0.064418	0.001242	0.007192
51	0.267853	0.005000	7.008712	-0.083563	-6.542915	0.053171	-0.169217	-0.631980	0.086571	-0.003732	0.010991
52	0.272853	0.005000	6.943241	-0.152482	-6.393881	0.053399	-0.168989	-0.631852	0.076254	0.002950	0.004447
53	0.277853	0.005000	6.983510	-0.155750	-6.511420	0.053626	-0.168762	-0.631725	0.087822	-0.002133	0.002818
54	0.282853	0.005000	6.981271	-0.196200	-6.360329	0.053915	-0.168718	-0.631667	0.068353	0.011733	0.006079
55	0.287853	0.005000	6.958066	-0.084773	-6.323933	0.054257	-0.168832	-0.631667	0.089261	0.003038	0.001068
56	0.292853	0.005000	6.936343	-0.138686	-6.435360	0.054598	-0.168946	-0.631667	0.092150	-0.000336	0.005406
57	0.297853	0.005000	6.996247	-0.156960	-6.474600	0.054940	-0.169060	-0.631667	0.091346	0.011238	0.002484
58	0.302853	0.005000	7.023960	-0.142604	-6.410476	0.055281	-0.169173	-0.631667	0.090545	0.000251	-0.004604
59	0.307853	0.005000	6.984720	-0.213400	-6.540721	0.055622	-0.169287	-0.631667	0.089804	0.010017	0.004473
60	0.312853	0.005000	6.887044	-0.254636	-6.495491	0.055964	-0.169401	-0.631667	0.104618	0.017177	0.000277
61	0.317853	0.005000	6.906240	-0.219087	-6.451713	0.056305	-0.169515	-0.631667	0.090044	0.006961	0.003899
62	0.322853	0.005000	6.894017	-0.209709	-6.382611	0.056647	-0.169628	-0.631667	0.072258	0.013072	0.000843
63	0.327853	0.005000	6.900356	-0.185081	-6.536077	0.056988	-0.169742	-0.631667	0.074750	0.008404	0.010803
64	0.332853	0.005000	6.970304	-0.204475	-6.559222	0.057329	-0.169856	-0.631667	0.058444	0.013852	0.005888
65	0.337853	0.005000	7.113301	-0.230009	-6.513840	0.057671	-0.169970	-0.631667	0.051418	0.018329	0.012936
66	0.342853	0.005000	7.175746	-0.230266	-6.469426	0.058012	-0.170083	-0.631667	0.041532	0.020775	0.019098
67	0.347853	0.005000	7.063457	-0.273909	-6.396120	0.058016	-0.169811	-0.631721	0.018003	0.022622	0.019979
68	0.352853	0.005000	7.017831	-0.277744	-6.399184	0.057561	-0.169014	-0.631848	0.034246	0.018624	0.028547
69	0.357853	0.005000	7.057724	-0.269204	-6.396120	0.057105	-0.168217	-0.631975	0.018227	0.026483	0.019909
70	0.362853	0.005000	7.063200	-0.120080	-6.513840	0.056650	-0.167420	-0.632102	0.019083	0.025053	0.039062
71	0.367853	0.005000	6.973556	-0.162708	-6.368044	0.056195	-0.166624	-0.632229	0.000477	0.031307	0.030619
72	0.372853	0.005000	6.934256	-0.103712	-6.368104	0.055739	-0.165827	-0.632356	0.009001	0.021605	0.038125
73	0.377853	0.005000	7.007108	-0.123257	-6.390583	0.055284	-0.165030	-0.632483	-0.005646	0.015824	0.039491
74	0.382853	0.005000	7.083198	-0.136205	-6.356124	0.054828	-0.164233	-0.632610	0.007404	0.027380	0.043922
75	0.387853	0.005000	7.119594	-0.129943	-6.285691	0.054373	-0.163436	-0.632737	-0.007356	0.031822	0.052898
76	0.392853	0.005000	7.073819	-0.092790	-6.371190	0.053918	-0.162639	-0.632865	-0.017510	0.011022	0.053547
77	0.397853	0.005000	7.063200	-0.106254	-6.356880	0.053462	-0.161842	-0.632992	-0.019624	0.001332	0.051186
78	0.402853	0.005000	7.032583	-0.100475	-6.435360	0.053007	-0.161045	-0.633119	-0.016752	0.019019	0.057345
79	0.407853	0.005000	7.029739	-0.174296	-6.390341	0.052552	-0.160248	-0.633246	-0.015596	0.027364	0.050992
80	0.412853	0.005000	7.030767	-0.185989	-6.392716	0.052346	-0.159879	-0.633293	-0.038830	0.003424	0.058834
81	0.417853	0.005000	6.908479	-0.001119	-6.437039	0.052687	-0.160448	-0.633166	-0.034216	0.001247	0.061243
82	0.422853	0.005000	7.100156	-0.078480	-6.516124	0.053029	-0.161017	-0.633039	-0.022585	0.003676	0.059781
83	0.427853	0.005000	7.097312	-0.102336	-6.401248	0.053370	-0.161586	-0.632912	-0.009672	0.013371	0.055521
84	0.432853	0.005000	7.071172	0.031268	-6.199920	0.053711	-0.162155	-0.632785	-0.010246	0.000090	0.060460
85	0.437853	0.005000	7.055410	0.018273	-6.385637	0.054053	-0.162724	-0.632658	-0.006630	-0.000379	0.067873
86	0.442853	0.005000	7.089234	-0.039240	-6.344052	0.054394	-0.163293	-0.632531	-0.016106	-0.000204	0.060823
87	0.447853	0.005000	7.056060	0.048150	-6.167820	0.054735	-0.163862	-0.632404	0.003208	0.003142	0.056883
88	0.452853	0.005000	7.042854	0.058134	-6.220266	0.055077	-0.164431	-0.632277	-0.015585	0.003889	0.060275
89	0.457853	0.005000	6.997987	-0.039240	-6.160680	0.055418	-0.165000	-0.632150	-0.001898	0.001123	0.040008
90	0.462853	0.005000	7.069342	0.030254	-6.224033	0.055759	-0.165569	-0.632023	-0.006475	0.001174	0.052776
91	0.467853	0.005000	7.036243	-0.014673	-6.251443	0.056101	-0.166138	-0.631896	0.004982	-0.000719	0.046153
92	0.472853	0.005000	7.102440	0.128642	-6.256556	0.056442	-0.166707	-0.631769	0.009595	-0.000054	0.055295
93	0.477853	0.005000	7.135085	0.052098	-6.461409	0.056694	-0.167030	-0.631642	-0.000184	-0.001223	0.040725
94	0.482853	0.005000	7.106192	-0.149457	-6.467097	0.056580	-0.166347	-0.631515	0.014145	-0.009892	0.048517
95	0.487853	0.005000	7.024879	-0.076643	-6.395201	0.056466	-0.165665	-0.631388	0.001949	-0.008577	0.043446
96	0.492853	0.005000	7.100973	0.113318	-6.243562	0.056353	-0.164982	-0.631261	0.030972	-0.006302	0.034541
97	0.497853	0.005000	7.141680	-0.030617	-6.352569	0.056239	-0.164300	-0.631134	0.038043	-0.004737	0.036007
98	0.502853	0.005000	7.120214	-0.128339	-6.396120	0.056125	-0.163617	-0.631007	0.033879	-0.008488	0.035751
99	0.507853	0.005000	7.160922	-0.079236	-6.386121	0.056011	-0.162935	-0.630880	0.036898	-0.017805	0.031235
100	0.512853	0.005000	7.088886	-0.104877	-6.448914	0.055898	-0.162253	-0.630753	0.023592	-0.014143	0.030721
101	0.517853	0.005000	7.063200	-0.109854	-6.545214	0.055784	-0.161570	-0.630626	0.044100	-0.015481	0.029494
102	0.522853	0.005000	6.966431	-0.136009	-6.555743	0.055670	-0.160888	-0.630499	0.033289	-0.009874	0.026062
103	0.527853	0.005000	6.963799	-0.020921	-6.471998	0.055557	-0.160205	-0.630372	0.034225	-0.008213	0.028645
104	0.532853	0.005000	7.023960	-0.078480	-6.459125	0.055443	-0.159523	-0.630245	0.050653	-0.006056	0.023838
105	0.537853	0.005000	6.920218	0.025262	-6.527818	0.055329	-0.158841	-0.630118	0.045416	-0.005498	0.023852
106	0.542853	0.005000	6.876878	-0.029453	-6.415695	0.055241	-0.158209	-0.629972	0.060286	-0.010774	0.022085
107	0.547853	0.005000	6.841647	-0.071537	-6.592320	0.055469	-0.158209	-0.629590	0.050285	0.004860	0.034348
108	0.552853	0.005000	6.862851	0.043389	-6.584022	0.055696	-0.158209	-0.629209	0.045109	0.015956	0.021054
109	0.557853	0.005000	6.872174	0.075031	-6.365503	0.055924	-0.158209	-0.628828	0.056860	0.011069	0.022553
110	0.562853	0.005000	6.870358	-0.038121	-6.553080	0.056151	-0.158209	-0.628447	0.060261	0.014884	0.019655
111	0.567853	0.005000	6.906240	-0.035277	-6.561007	0.056379	-0.158209	-0.628066	0.067622	0.024621	0.032988
112	0.572853	0.005000	6.971106	-0.064866	-6.525851	0.056606	-0.158209	-0.627684	0.066812	0.035504	0.019350
113	0.577853	0.005000	7.004658	-0.097782	-6.396120	0.056834	-0.158209	-0.627303	0.074621	0.027725	0.017746
114	0.582853	0.005000	7.063200	-0.105538	-6.474600	0.057062	-0.158209	-0.626922	0.094048	0.034080	0.008818
115	0.587853	0.005000	7.057784	-0.102835	-6.425890	0.057289	-0.158209	-0.626541	0.086215	0.027870	-0.002997
116	0.592853	0.005000	7.084711	-0.099991	-6.378391	0.057517	-0.158209	-0.626160	0.092698	0.021879	-0.013692
117	0.597853	0.005000	7.102440	-0.022479	-6.435360	0.057744	-0.158209	-0.625778	0.097059	0.026085	-0.015763
118	0.602853	0.005000	7.149274	0.070886	-6.317640	0.057972	-0.158209	-0.625397	0.109919	0.018500	-0.007768
119	0.607853	0.005000	6.984720	0.170249	-6.343591	0.058199	-0.158209	-0.625016	0.101385	0.019293	-0.009263
120	0.612853	0.005000	6.956084	0.264076	-6.328244	0.058100	-0.158536	-0.625730	0.103079	0.010515	-0.010236
121	0.617853	0.005000	6.874760	0.211721	-6.427600	0.057986	-0.158877	-0.626493	0.136258	0.004657	-0.001908
122	0.622853	0.005000	6.876833	0.230524	-6.435360	0.057872	-0.159219	-0.627255	0.134164	0.007898	-0.008320
123	0.627853	0.005000	6.949625	0.196200	-6.472528	0.057758	-0.159560	-0.628018	0.148057	0.004736	-0.006287
124	0.632853	0.005000	6.985491	0.234669	-6.396891	0.057645	-0.159902	-0.628780	0.143694	0.017452	0.001006
125	0.637853	0.005000	6.912563	0.153798	-6.399282	0.057531	-0.160243	-0.629542	0.133838	0.013259	-0.000243
126	0.642853	0.005000	6.761291	0.045246	-6.374897	0.057417	-0.160584	-0.630305	0.148787	0.007872	-0.002714
127	0.647853	0.005000	6.918932	-0.148111	-6.456901	0.057303	-0.160926	-0.631067	0.132710	0.015509	-0.003368
128	0.652853	0.005000	6.973042	-0.207878	-6.608204	0.057189	-0.161267	-0.631830	0.135521	0.016424	0.007990
129	0.657853	0.005000	6.906240	-0.249962	-6.631560	0.057076	-0.161609	-0.632592	0.119596	0.027229	-0.010818
130	0.662853	0.005000	7.029376	-0.297008	-6.597736	0.056962	-0.161950	-0.633354	0.122954	0.026334	-0.005426
131	0.667853	0.005000	7.063472	-0.372644	-6.631560	0.056848	-0.162292	-0.634117	0.107522	0.032660	-0.007057
132	0.672853	0.005000	7.057240	-0.425680	-6.592320	0.056734	-0.162633	-0.634879	0.094313	0.024746	-0.005501
133	0.677853	0.005000	7.049404	-0.496324	-6.670800	0.056525	-0.162304	-0.635000	0.093131	0.017968	0.002784
134	0.682853	0.005000	7.052248	-0.431640	-6.631560	0.056297	-0.161849	-0.635000	0.081753	0.023408	-0.005700
135	0.687853	0.005000	6.945480	-0.392400	-6.662223	0.056070	-0.161394	-0.635000	0.077860	0.019883	0.001981
136	0.692853	0.005000	6.911973	-0.386667	-6.525306	0.055842	-0.160939	-0.635000	0.071603	0.022032	-0.003017
137	0.697853	0.005000	6.939701	-0.277569	-6.550191	0.055615	-0.160484	-0.635000	0.061741	0.024793	-0.003732
138	0.702853	0.005000	7.023824	-0.353115	-6.553171	0.055387	-0.160029	-0.635000	0.042827	0.023797	0.007956
139	0.707853	0.005000	6.942681	-0.386803	-6.558677	0.055160	-0.159574	-0.635000	0.051918	0.021992	0.007026
140	0.712853	0.005000	6.794162	-0.285965	-6.441002	0.054932	-0.159119	-0.635000	0.043048	0.028221	0.006327
141	0.717853	0.005000	6.875033	-0.290745	-6.537015	0.054705	-0.158664	-0.635000	0.047007	0.028541	0.002243
142	0.722853	0.005000	6.895364	-0.235440	-6.513840	0.054477	-0.158209	-0.635000	0.042759	0.035281	0.006644
143	0.727853	0.005000	6.867000	-0.196200	-6.423561	0.054250	-0.157754	-0.635000	0.034720	0.041240	0.004883
144	0.732853	0.005000	6.749280	-0.212764	-6.418796	0.054022	-0.157299	-0.635000	0.037139	0.041125	0.002000
145	0.737853	0.005000	6.768688	-0.117720	-6.396120	0.053795	-0.156844	-0.635000	0.043989	0.041200	0.002256
146	0.742853	0.005000	6.844748	-0.134708	-6.244424	0.053895	-0.156961	-0.634635	0.046246	0.041719	0.001256
147	0.747853	0.005000	6.852856	-0.156960	-6.317640	0.054122	-0.157303	-0.634126	0.048545	0.039084	0.007801
148	0.752853	0.005000	6.867000	-0.140593	-6.317640	0.054350	-0.157644	-0.633618	0.047557	0.037711	0.005779
149	0.757853	0.005000	6.884850	-0.187275	-6.287325	0.054577	-0.157986	-0.633110	0.060785	0.037117	0.015956
150	0.762853	0.005000	6.978639	-0.072399	-6.239160	0.054805	-0.158327	-0.632601	0.069394	0.044808	0.010423
151	0.767853	0.005000	6.906240	-0.114483	-6.324114	0.055033	-0.158668	-0.632093	0.062165	0.043363	0.008173
152	0.772853	0.005000	6.984327	-0.038847	-6.434967	0.055260	-0.159010	-0.631585	0.072759	0.045651	0.016569
153	0.777853	0.005000	7.019059	0.073579	-6.285752	0.055488	-0.159351	-0.631076	0.071224	0.048687	0.017608
154	0.782853	0.005000	6.990015	0.073185	-6.430065	0.055715	-0.159693	-0.630568	0.077623	0.037493	0.008332
155	0.787853	0.005000	7.009135	-0.022963	-6.365018	0.055943	-0.160034	-0.630060	0.075663	0.030432	0.017965
156	0.792853	0.005000	7.013308	0.060543	-6.317640	0.056170	-0.160376	-0.629552	0.077942	0.030230	0.012471
157	0.797853	0.005000	6.984720	0.091852	-6.382748	0.056398	-0.160717	-0.629043	0.081654	0.032587	0.037199
158	0.802853	0.005000	7.093031	-0.013614	-6.442167	0.056626	-0.161058	-0.628535	0.082539	0.039124	0.028857
159	0.807853	0.005000	7.221279	-0.118839	-6.396120	0.056922	-0.161125	-0.628792	0.070216	0.033619	0.040010
160	0.812853	0.005000	7.154447	-0.139624	-6.405257	0.057263	-0.161012	-0.629555	0.069666	0.032312	0.029696
161	0.817853	0.005000	7.215399	-0.156960	-6.371547	0.057605	-0.160898	-0.630317	0.080346	0.021235	0.040773
162	0.822853	0.005000	7.208043	-0.105603	-6.501723	0.057946	-0.160784	-0.631080	0.078867	0.029422	0.045628
163	0.827853	0.005000	7.171647	-0.196200	-6.405393	0.058287	-0.160670	-0.631842	0.085048	0.023349	0.030460
164	0.832853	0.005000	7.096011	-0.163389	-6.441789	0.058629	-0.160556	-0.632604	0.088226	0.015010	0.040581
165	0.837853	0.005000	6.991890	-0.114135	-6.474600	0.058970	-0.160442	-0.633367	0.062272	0.025463	0.033204
166	0.842853	0.005000	7.063200	-0.042871	-6.396120	0.059312	-0.160329	-0.634129	0.086491	0.032412	0.033436
167	0.847853	0.005000	7.100806	-0.232173	-6.396120	0.059653	-0.160215	-0.634892	0.068471	0.042650	0.038752
168	0.852853	0.005000	7.132725	-0.196200	-6.352402	0.059994	-0.160101	-0.635654	0.076518	0.034661	0.039946
169	0.857853	0.005000	7.149002	-0.196200	-6.332283	0.060336	-0.159987	-0.636416	0.064580	0.039050	0.033598
170	0.862853	0.005000	7.092615	-0.186375	-6.239160	0.060677	-0.159873	-0.637179	0.067264	0.046988	0.033273
171	0.867853	0.005000	7.259400	-0.196200	-6.185791	0.061019	-0.159759	-0.637941	0.072915	0.038006	0.026739
172	0.872853	0.005000	7.117840	-0.235440	-6.208361	0.061028	-0.159867	-0.638209	0.047618	0.033849	0.034180
173	0.877853	0.005000	7.159923	-0.193447	-6.260157	0.060687	-0.160208	-0.637955	0.070379	0.028875	0.028394
174	0.882853	0.005000	7.182917	-0.177578	-6.317640	0.060345	-0.160550	-0.637701	0.079339	0.031717	0.017526
175	0.887853	0.005000	7.149365	-0.101942	-6.278400	0.060004	-0.160891	-0.637447	0.081657	0.024783	0.020096
176	0.892853	0.005000	7.076134	-0.144026	-6.304268	0.059662	-0.161233	-0.637193	0.077893	0.018207	0.021905
177	0.897853	0.005000	7.201100	-0.117720	-6.396120	0.059321	-0.161574	-0.636939	0.072839	0.025476	0.021425
178	0.902853	0.005000	7.173220	-0.164660	-6.325340	0.058980	-0.161915	-0.636685	0.078769	0.023787	0.025283
179	0.907853	0.005000	7.136824	-0.122576	-6.322496	0.058638	-0.162257	-0.636431	0.074473	0.038206	0.019853
180	0.912853	0.005000	7.139668	-0.154948	-6.235136	0.058297	-0.162598	-0.636177	0.083217	0.032851	0.016949
181	0.917853	0.005000	7.217664	-0.156128	-6.160680	0.057955	-0.162940	-0.635923	0.085948	0.025916	0.017883
182	0.922853	0.005000	7.252048	-0.192524	-6.271048	0.057614	-0.163281	-0.635668	0.070829	0.028602	0.008316
183	0.927853	0.005000	7.233200	-0.202720	-6.455041	0.057273	-0.163622	-0.635414	0.059070	0.021021	0.012351
184	0.932853	0.005000	7.121167	-0.196200	-6.384971	0.056931	-0.163964	-0.635160	0.066068	0.023485	0.008932
185	0.937853	0.005000	7.180920	-0.129928	-6.420535	0.056590	-0.164137	-0.634765	0.067046	0.019896	-0.001463
186	0.942853	0.005000	7.141680	-0.063721	-6.302881	0.056249	-0.164023	-0.634130	0.070838	0.019438	0.006905
187	0.947853	0.005000	7.137293	-0.139533	-6.217347	0.055908	-0.163910	-0.633495	0.066337	0.027990	-0.005037
188	0.952853	0.005000	7.082170	-0.117720	-6.201221	0.055566	-0.163796	-0.632860	0.054540	0.024215	0.007097
189	0.957853	0.005000	7.086314	-0.117720	-6.137566	0.055225	-0.163682	-0.632225	0.050983	0.025537	-0.012210
190	0.962853	0.005000	6.998456	-0.078480	-6.239160	0.054884	-0.163568	-0.631590	0.041642	0.025419	-0.003401
191	0.967853	0.005000	7.074092	-0.089372	-6.221703	0.054543	-0.163455	-0.630955	0.029091	0.021111	-0.005765
192	0.972853	0.005000	7.141680	-0.109672	-6.216015	0.054202	-0.163341	-0.630320	0.026768	0.022127	-0.012973
193	0.977853	0.005000	7.102440	-0.156960	-6.267867	0.053861	-0.163227	-0.629685	0.028503	0.029695	-0.008571
194	0.982853	0.005000	7.068858	-0.112062	-6.365366	0.053519	-0.163114	-0.629050	0.023632	0.025990	-0.016891
195	0.987853	0.005000	7.102455	-0.000015	-6.435375	0.053178	-0.163000	-0.628415	0.032076	0.026962	-0.015787
196	0.992853	0.005000	7.138821	0.069903	-6.393261	0.052837	-0.162886	-0.627780	0.038830	0.025273	-0.031312
197	0.997853	0.005000	7.102440	0.112017	-6.463194	0.052496	-0.162773	-0.627145	0.037385	0.032057	-0.022358
198	1.002853	0.005000	7.080294	0.187653	-6.421761	0.051901	-0.162828	-0.626447	0.082608	0.022947	-0.014771
199	1.007853	0.005000	7.080596	0.196200	-6.481074	0.050536	-0.163397	-0.625558	0.086898	0.027926	-0.032920
200	1.012853	0.005000	7.116206	0.221674	-6.488366	0.049170	-0.163965	-0.624668	0.074368	0.024412	-0.017209
201	1.017853	0.005000	7.114481	0.218830	-6.317640	0.047805	-0.164534	-0.623779	0.086400	0.027294	-0.023778
202	1.022853	0.005000	7.140088	0.216218	-6.396120	0.046439	-0.165103	-0.622889	0.114152	0.017598	-0.017240
203	1.027853	0.005000	7.102440	0.235440	-6.361327	0.045074	-0.165672	-0.622000	0.108267	0.026177	-0.027652
204	1.032853	0.005000	7.195472	0.171512	-6.352463	0.043708	-0.166241	-0.621110	0.123242	0.024585	-0.023107
205	1.037853	0.005000	7.153388	0.133543	-6.352765	0.042343	-0.166810	-0.620221	0.137800	0.021548	-0.012302
206	1.042853	0.005000	7.220160	0.169606	-6.378391	0.040977	-0.167379	-0.619331	0.148862	0.019337	-0.022560
207	1.047853	0.005000	7.174430	0.032750	-6.271910	0.039612	-0.167948	-0.618442	0.157917	0.004292	-0.023237
208	1.052853	0.005000	7.063200	-0.078480	-6.360526	0.038246	-0.168517	-0.617552	0.166034	0.005580	-0.022736
209	1.057853	0.005000	7.064803	-0.156158	-6.432955	0.036881	-0.169086	-0.616663	0.179104	0.005493	-0.020784
210	1.062853	0.005000	7.141680	-0.117720	-6.317640	0.035515	-0.169654	-0.615773	0.164959	-0.004930	-0.024147
211	1.067853	0.005000	6.974948	-0.088252	-6.327412	0.034402	-0.170134	-0.615166	0.171348	-0.011823	-0.025806
212	1.072853	0.005000	6.984720	-0.071119	-6.317640	0.034972	-0.170020	-0.616437	0.172179	-0.009872	-0.028632
213	1.077853	0.005000	7.023960	-0.215200	-6.502479	0.035541	-0.169907	-0.617709	0.195719	-0.000220	-0.034262
214	1.082853	0.005000	7.010648	-0.130684	-6.422048	0.036110	-0.169793	-0.618980	0.212054	-0.009426	-0.020173
215	1.087853	0.005000	6.874624	-0.180392	-6.333448	0.036679	-0.169679	-0.620251	0.198844	-0.006757	-0.019721
216	1.092853	0.005000	6.827760	-0.235440	-6.319576	0.037249	-0.169565	-0.621523	0.200884	0.009796	-0.012627
217	1.097853	0.005000	6.998713	-0.274680	-6.399872	0.037818	-0.169451	-0.622794	0.220828	-0.002338	-0.014336
218	1.102853	0.005000	6.978718	-0.298839	-6.287479	0.038387	-0.169338	-0.624065	0.199140	0.005118	-0.015422
219	1.107853	0.005000	6.968867	-0.392400	-6.276736	0.038956	-0.169224	-0.625336	0.205600	0.001507	0.007357
220	1.112853	0.005000	7.004597	-0.421959	-6.288081	0.039526	-0.169110	-0.626608	0.194517	0.016608	-0.005262
221	1.117853	0.005000	6.977882	-0.353160	-6.160680	0.040095	-0.168996	-0.627879	0.205562	0.002682	0.000327
222	1.122853	0.005000	6.902246	-0.431640	-6.090187	0.040664	-0.168882	-0.629150	0.195102	-0.008552	0.009575
223	1.127853	0.005000	6.946643	-0.392400	-6.316477	0.041233	-0.168768	-0.630422	0.206075	0.003121	0.021737
224	1.132853	0.005000	6.984720	-0.392400	-6.354399	0.041814	-0.168638	-0.631672	0.185400	0.009746	0.024819
225	1.137853	0.005000	7.015791	-0.396484	-6.286569	0.042952	-0.167728	-0.631926	0.189825	0.003796	0.020172
226	1.142853	0.005000	7.017032	-0.528575	-6.343023	0.044089	-0.166819	-0.632180	0.205376	0.000869	0.028022
227	1.147853	0.005000	6.945480	-0.519892	-6.376424	0.045226	-0.165909	-0.632434	0.177299	0.008815	0.047173
228	1.152853	0.005000	6.957774	-0.576306	-6.332292	0.046364	-0.164999	-0.632688	0.177773	0.011080	0.049886
229	1.157853	0.005000	6.975462	-0.612849	-6.405378	0.047501	-0.164089	-0.632942	0.164787	0.011460	0.060992
230	1.162853	0.005000	7.066770	-0.649245	-6.413955	0.048638	-0.163179	-0.633196	0.146472	0.011001	0.055826
231	1.167853	0.005000	7.102440	-0.704202	-6.398238	0.049776	-0.162269	-0.633450	0.140042	0.005761	0.076051
232	1.172853	0.005000	7.196827	-0.674505	-6.426878	0.050913	-0.161359	-0.633704	0.114019	0.004462	0.088146
233	1.177853	0.005000	7.155022	-0.575258	-6.396120	0.052050	-0.160449	-0.633958	0.119883	0.001278	0.095157
234	1.182853	0.005000	7.141680	-0.677578	-6.398873	0.053188	-0.159539	-0.634212	0.103250	0.009975	0.095976
235	1.187853	0.005000	7.141680	-0.706320	-6.498531	0.054325	-0.158629	-0.634466	0.094809	0.001527	0.101284
236	1.192853	0.005000	7.116871	-0.740750	-6.543459	0.055462	-0.157719	-0.634720	0.084676	0.000263	0.099971
237	1.197853	0.005000	7.184899	-0.669070	-6.513840	0.056600	-0.156809	-0.634974	0.072961	-0.001107	0.098693
238	1.202853	0.005000	7.181767	-0.706320	-6.513840	0.056614	-0.156716	-0.635456	0.077295	-0.003944	0.097589
239	1.207853	0.005000	7.216893	-0.631107	-6.477867	0.056500	-0.156716	-0.635964	0.047197	-0.001758	0.089937
240	1.212853	0.005000	7.036183	-0.648746	-6.474600	0.056387	-0.156716	-0.636472	0.062345	-0.002556	0.090927
241	1.217853	0.005000	7.102440	-0.627840	-6.444315	0.056273	-0.156716	-0.636980	0.041773	-0.000743	0.090449
242	1.222853	0.005000	7.129881	-0.533718	-6.553080	0.056159	-0.156716	-0.637488	0.043265	-0.005697	0.082990
243	1.227853	0.005000	7.033914	-0.559314	-6.567723	0.056045	-0.156716	-0.637996	0.035695	-0.000706	0.077717
244	1.232853	0.005000	7.035774	-0.487898	-6.547876	0.055932	-0.156716	-0.638504	0.012023	-0.000872	0.065015
245	1.237853	0.005000	6.905756	-0.451986	-6.533218	0.055818	-0.156716	-0.639013	0.016452	-0.010861	0.063640
246	1.242853	0.005000	6.922774	-0.415106	-6.480772	0.055704	-0.156716	-0.639521	0.001805	0.001386	0.052999
247	1.247853	0.005000	6.959170	-0.431640	-6.435360	0.055591	-0.156716	-0.640029	0.002951	0.002720	0.047071
248	1.252853	0.005000	6.927932	-0.324766	-6.356880	0.055477	-0.156716	-0.640537	-0.007763	0.012037	0.050911
249	1.257853	0.005000	6.875002	-0.345158	-6.372113	0.055363	-0.156716	-0.641045	-0.013241	0.009165	0.035414
250	1.262853	0.005000	6.900628	-0.263456	-6.384896	0.055250	-0.156716	-0.641553	0.001500	0.008961	0.030926
251	1.267853	0.005000	7.029497	-0.159728	-6.325945	0.055312	-0.156716	-0.641667	-0.006411	0.009820	0.029062
252	1.272853	0.005000	6.984947	-0.196200	-6.396196	0.055426	-0.156716	-0.641667	0.003941	0.005976	0.027136
253	1.277853	0.005000	6.875759	-0.156960	-6.317640	0.055540	-0.156716	-0.641667	-0.005576	0.010454	0.016877
254	1.282853	0.005000	6.894713	-0.050767	-6.378830	0.055653	-0.156716	-0.641667	0.010520	0.010919	0.010808
255	1.287853	0.005000	6.836367	-0.170378	-6.356880	0.055767	-0.156716	-0.641667	0.020049	0.005048	0.008195
256	1.292853	0.005000	6.850663	-0.184749	-6.317640	0.055881	-0.156716	-0.641667	0.007346	0.012201	0.014654
257	1.297853	0.005000	6.829999	-0.131546	-6.239160	0.055994	-0.156716	-0.641667	0.025061	-0.007178	0.001833
258	1.302853	0.005000	6.945480	-0.179530	-6.183250	0.056108	-0.156716	-0.641667	0.026952	-0.003504	0.000809
259	1.307853	0.005000	6.886726	-0.157172	-6.297914	0.056222	-0.156716	-0.641667	0.029016	-0.002296	-0.006650
260	1.312853	0.005000	6.945480	-0.162436	-6.317640	0.056335	-0.156716	-0.641667	0.026566	0.000255	-0.003756
261	1.317853	0.005000	6.942606	-0.156960	-6.368044	0.056449	-0.156716	-0.641667	0.019374	0.003405	-0.012043
262	1.322853	0.005000	6.911898	-0.185006	-6.278400	0.056563	-0.156716	-0.641667	0.025506	-0.000023	-0.014499
263	1.327853	0.005000	6.892051	-0.196200	-6.334340	0.056677	-0.156716	-0.641667	0.013121	-0.001274	-0.012510
264	1.332853	0.005000	6.906240	-0.185187	-6.396120	0.056865	-0.156716	-0.641584	0.007037	-0.003224	-0.015198
265	1.337853	0.005000	6.864338	-0.120382	-6.427373	0.057092	-0.156716	-0.641457	0.027254	-0.006955	-0.011748
266	1.342853	0.005000	6.905877	-0.235077	-6.473874	0.057320	-0.156716	-0.641330	0.033157	-0.008760	-0.015140
267	1.347853	0.005000	6.979607	-0.277236	-6.513840	0.057547	-0.156716	-0.641203	0.037495	-0.010489	-0.005442
268	1.352853	0.005000	6.984720	-0.201600	-6.328441	0.057775	-0.156716	-0.641076	0.023385	-0.001731	-0.016006
269	1.357853	0.005000	7.032204	-0.212689	-6.544836	0.058002	-0.156716	-0.640949	0.021030	-0.014838	-0.014507
270	1.362853	0.005000	7.001784	-0.274680	-6.592320	0.058230	-0.156716	-0.640822	0.005050	-0.014793	-0.016034
271	1.367853	0.005000	6.973344	-0.274680	-6.539148	0.058458	-0.156716	-0.640694	0.025522	-0.008377	-0.008192
272	1.372853	0.005000	6.911928	-0.257904	-6.631560	0.058685	-0.156716	-0.640567	0.029991	-0.004987	0.001932
273	1.377853	0.005000	7.023960	-0.235440	-6.651180	0.058913	-0.156716	-0.640440	0.014884	-0.008943	-0.003217
274	1.382853	0.005000	7.006988	-0.189818	-6.715335	0.059140	-0.156716	-0.640313	0.016288	-0.011912	0.003763
275	1.387853	0.005000	6.920626	-0.103334	-6.649864	0.059368	-0.156716	-0.640186	0.019834	-0.003014	0.009347
276	1.392853	0.005000	6.894698	-0.168502	-6.670800	0.059595	-0.156716	-0.640059	0.025563	0.003387	0.004288
277	1.397853	0.005000	6.936782	-0.135116	-6.583622	0.059579	-0.157265	-0.639455	0.022776	0.002520	0.013821
278	1.402853	0.005000	6.888677	-0.229586	-6.553080	0.059352	-0.158289	-0.638439	0.009398	0.003648	0.009451
279	1.407853	0.005000	6.794541	-0.156960	-6.589310	0.059124	-0.159312	-0.637423	0.017850	0.007157	0.015176
280	1.412853	0.005000	6.827926	-0.157293	-6.592320	0.058897	-0.160336	-0.636407	0.022023	0.006821	0.020228
281	1.417853	0.005000	6.941009	-0.309449	-6.703334	0.058669	-0.161359	-0.635391	0.035829	0.015925	0.015351
282	1.422853	0.005000	6.940428	-0.250597	-6.670800	0.058442	-0.162383	-0.634375	0.026200	0.025359	0.025810
283	1.427853	0.005000	6.859346	-0.235440	-6.717936	0.058214	-0.163407	-0.633359	0.023936	0.029195	0.016980
284	1.432853	0.005000	6.895500	-0.235440	-6.624541	0.057987	-0.164430	-0.632343	0.031090	0.029451	0.031367
285	1.437853	0.005000	6.945480	-0.313920	-6.684084	0.057759	-0.165454	-0.631327	0.008733	0.038179	0.022104
286	1.442853	0.005000	6.882974	-0.244123	-6.577737	0.057532	-0.166478	-0.630311	0.030462	0.037144	0.023463
287	1.447853	0.005000	6.826157	-0.233837	-6.614345	0.057304	-0.167501	-0.629295	0.025441	0.056621	0.024856
288	1.452853	0.005000	6.945480	-0.253018	-6.613982	0.057077	-0.168525	-0.628279	0.037147	0.051798	0.030167
289	1.457853	0.005000	6.911202	-0.250174	-6.602092	0.056849	-0.169549	-0.627263	0.024396	0.043379	0.021916
290	1.462853	0.005000	6.988290	-0.286570	-6.462710	0.056716	-0.169584	-0.627193	0.039655	0.056200	0.018027
291	1.467853	0.005000	6.927388	-0.196200	-6.513840	0.056716	-0.168218	-0.628464	0.036646	0.056174	0.015600
292	1.472853	0.005000	6.873277	-0.202477	-6.336472	0.056716	-0.166852	-0.629735	0.031567	0.067998	0.033185
293	1.477853	0.005000	6.913894	-0.274680	-6.470773	0.056716	-0.165486	-0.631006	0.034003	0.061654	0.030541
294	1.482853	0.005000	6.906240	-0.274680	-6.476567	0.056716	-0.164120	-0.632278	0.034882	0.068999	0.033869
295	1.487853	0.005000	6.831481	-0.199921	-6.478321	0.056716	-0.162754	-0.633549	0.048161	0.069231	0.027792
296	1.492853	0.005000	6.862295	-0.304511	-6.405529	0.056716	-0.161387	-0.634820	0.032747	0.073706	0.034514
297	1.497853	0.005000	6.874548	-0.274680	-6.459503	0.056716	-0.160021	-0.636091	0.025823	0.074830	0.032660
298	1.502853	0.005000	6.877392	-0.196200	-6.396120	0.056716	-0.158655	-0.637362	0.030112	0.074742	0.029866
299	1.507853	0.005000	6.827760	-0.261898	-6.449035	0.056716	-0.157289	-0.638634	0.039959	0.076014	0.041600
300	1.512853	0.005000	6.843771	-0.259063	-6.466988	0.056716	-0.155923	-0.639905	0.042859	0.070948	0.034629
301	1.517853	0.005000	6.848545	-0.216985	-6.472270	0.056716	-0.154557	-0.641176	0.037088	0.083787	0.033644
302	1.522853	0.005000	6.938764	-0.235440	-6.438718	0.056716	-0.153191	-0.642447	0.036383	0.087797	0.025264
303	1.527853	0.005000	6.999817	-0.250537	-6.356880	0.056544	-0.152308	-0.643294	0.056091	0.084246	0.038265
304	1.532853	0.005000	6.906240	-0.301667	-6.317640	0.055975	-0.152536	-0.643167	0.036329	0.094223	0.026902
305	1.537853	0.005000	6.965902	-0.254258	-6.385107	0.055406	-0.152763	-0.643040	0.048360	0.092377	0.039688
306	1.542853	0.005000	6.892202	-0.339122	-6.492783	0.054837	-0.152991	-0.642913	0.049210	0.103319	0.028794
307	1.547853	0.005000	6.796870	-0.231265	-6.439535	0.054268	-0.153218	-0.642786	0.048245	0.097130	0.033657
308	1.552853	0.005000	6.792514	-0.235440	-6.436691	0.053699	-0.153446	-0.642659	0.050630	0.096621	0.040269
309	1.557853	0.005000	6.906240	-0.273167	-6.512327	0.053130	-0.153673	-0.642532	0.061586	0.108687	0.029293
310	1.562853	0.005000	6.902305	-0.270745	-6.513840	0.052561	-0.153901	-0.642405	0.065113	0.115596	0.028755
311	1.567853	0.005000	6.821028	-0.242172	-6.657337	0.051992	-0.154129	-0.642278	0.061155	0.111614	0.022078
312	1.572853	0.005000	6.906240	-0.215351	-6.543504	0.051423	-0.154356	-0.642151	0.062642	0.118194	0.022677
313	1.577853	0.005000	6.906240	-0.274680	-6.487019	0.050854	-0.154584	-0.642024	0.061049	0.125421	0.024433
314	1.582853	0.005000	6.890977	-0.265967	-6.402670	0.050286	-0.154811	-0.641897	0.060757	0.127940	0.023896
315	1.587853	0.005000	6.930398	-0.274680	-6.531947	0.049717	-0.155039	-0.641770	0.069450	0.124617	0.033742
316	1.592853	0.005000	6.945480	-0.159622	-6.589658	0.049339	-0.155182	-0.641525	0.067838	0.132863	0.015130
317	1.597853	0.005000	7.000346	-0.172586	-6.498214	0.049794	-0.154954	-0.640763	0.080336	0.131319	0.023311
318	1.602853	0.005000	6.945556	-0.183145	-6.487655	0.050249	-0.154727	-0.640001	0.084021	0.135430	0.016391
319	1.607853	0.005000	6.916451	-0.225229	-6.486414	0.050704	-0.154499	-0.639239	0.092274	0.129685	0.007690
320	1.612853	0.005000	6.891506	-0.228073	-6.599687	0.051159	-0.154272	-0.638476	0.090871	0.136258	0.016863
321	1.617853	0.005000	6.906240	-0.196200	-6.479123	0.051614	-0.154044	-0.637714	0.083014	0.145624	0.008180
322	1.622853	0.005000	6.790199	-0.235440	-6.435360	0.052069	-0.153817	-0.636952	0.089695	0.139387	0.009531
323	1.627853	0.005000	6.941986	-0.197365	-6.511510	0.052524	-0.153589	-0.636190	0.084214	0.152190	0.000388
324	1.632853	0.005000	6.945480	-0.270671	-6.439369	0.052979	-0.153362	-0.635428	0.096536	0.154400	0.006187
325	1.637853	0.005000	6.952333	-0.346307	-6.520693	0.053433	-0.153134	-0.634666	0.109067	0.158488	-0.003021
326	1.642853	0.005000	7.033657	-0.264983	-6.435360	0.053888	-0.152907	-0.633904	0.086556	0.163514	-0.001226
327	1.647853	0.005000	6.955110	-0.262462	-6.444990	0.054343	-0.152679	-0.633142	0.087219	0.163370	-0.000295
328	1.652853	0.005000	6.994129	-0.284089	-6.308231	0.054798	-0.152452	-0.632380	0.092331	0.174609	0.001229
329	1.657853	0.005000	7.006201	-0.270959	-6.370918	0.055180	-0.152239	-0.631749	0.102485	0.172589	-0.007869
330	1.662853	0.005000	7.044563	-0.274680	-6.356880	0.054497	-0.152239	-0.633019	0.091593	0.178144	-0.000566
331	1.667853	0.005000	7.047407	-0.251233	-6.387982	0.053815	-0.152239	-0.634290	0.099843	0.185829	-0.009727
332	1.672853	0.005000	6.998062	-0.261338	-6.396120	0.053132	-0.152239	-0.635560	0.093461	0.186777	0.001226
333	1.677853	0.005000	6.985900	-0.274680	-6.416330	0.052449	-0.152239	-0.636831	0.094152	0.196935	0.002611
334	1.682853	0.005000	7.094725	-0.321635	-6.412215	0.051767	-0.152239	-0.638102	0.088872	0.200667	0.013742
335	1.687853	0.005000	6.911111	-0.269809	-6.327382	0.051084	-0.152239	-0.639372	0.080218	0.199006	0.009234
336	1.692853	0.005000	6.941424	-0.239496	-6.319668	0.050401	-0.152239	-0.640643	0.089873	0.199864	0.002102
337	1.697853	0.005000	6.982315	-0.352358	-6.433757	0.049718	-0.152239	-0.641914	0.083981	0.205478	0.000113
338	1.702853	0.005000	6.945480	-0.388754	-6.367817	0.049036	-0.152239	-0.643184	0.089601	0.215581	-0.003410
339	1.707853	0.005000	6.991210	-0.287659	-6.383141	0.048353	-0.152239	-0.644455	0.094103	0.213988	0.001347
340	1.712853	0.005000	6.915573	-0.295253	-6.465267	0.047670	-0.152239	-0.645725	0.087716	0.221856	0.003533
341	1.717853	0.005000	6.878724	-0.392400	-6.447084	0.046987	-0.152239	-0.646996	0.089130	0.226136	0.000558
342	1.722853	0.005000	7.087872	-0.313920	-6.460032	0.046305	-0.152239	-0.648267	0.095172	0.241264	-0.007472
343	1.727853	0.005000	7.119851	-0.287674	-6.335051	0.045945	-0.152023	-0.648815	0.106335	0.238648	-0.009297
344	1.732853	0.005000	7.161935	-0.236711	-6.179665	0.045604	-0.151796	-0.649324	0.088659	0.243375	-0.007682
345	1.737853	0.005000	7.125539	-0.235440	-6.253077	0.045262	-0.151568	-0.649832	0.079685	0.248230	-0.002237
346	1.742853	0.005000	7.114765	-0.261222	-6.225702	0.044921	-0.151340	-0.650341	0.103006	0.241678	-0.006439
347	1.747853	0.005000	7.045804	-0.246362	-6.278400	0.044579	-0.151112	-0.650849	0.098973	0.246937	-0.006230
348	1.752853	0.005000	7.047044	-0.266602	-6.294556	0.044237	-0.150885	-0.651358	0.093400	0.253367	-0.012931
349	1.757853	0.005000	6.945480	-0.245908	-6.205154	0.043896	-0.150657	-0.651866	0.075682	0.252826	-0.002874
350	1.762853	0.005000	7.060810	-0.277070	-6.276010	0.043554	-0.150429	-0.652375	0.097802	0.264566	-0.020974
351	1.767853	0.005000	7.101532	-0.391492	-6.355519	0.043213	-0.150202	-0.652883	0.102618	0.268444	-0.005463
352	1.772853	0.005000	7.023960	-0.392400	-6.402715	0.042871	-0.149974	-0.653392	0.091382	0.275558	-0.015468
353	1.777853	0.005000	7.029714	-0.392400	-6.239160	0.042530	-0.149746	-0.653900	0.091872	0.270120	-0.014245
354	1.782853	0.005000	7.071732	-0.221795	-6.147035	0.042188	-0.149519	-0.654409	0.101294	0.276558	-0.013895
355	1.787853	0.005000	7.063200	-0.291169	-6.334129	0.041847	-0.149291	-0.654917	0.117746	0.281875	-0.017674
356	1.792853	0.005000	7.099021	-0.235440	-6.264180	0.041315	-0.149254	-0.655638	0.128596	0.292817	-0.014551
357	1.797853	0.005000	7.058087	-0.336096	-6.334704	0.040746	-0.149254	-0.656401	0.096700	0.298907	-0.019293
358	1.802853	0.005000	7.004627	-0.353160	-6.356880	0.040177	-0.149254	-0.657163	0.104776	0.294792	-0.018900
359	1.807853	0.005000	6.961969	-0.291169	-6.373369	0.039608	-0.149254	-0.657926	0.088355	0.321408	-0.020623
360	1.812853	0.005000	6.841570	-0.313920	-6.301641	0.039039	-0.149254	-0.658688	0.098574	0.322627	-0.025982
361	1.817853	0.005000	7.051930	-0.302650	-6.306370	0.038470	-0.149254	-0.659450	0.088597	0.331014	-0.028598
362	1.822853	0.005000	7.080052	-0.313920	-6.286826	0.037901	-0.149254	-0.660213	0.103950	0.325102	-0.029241
363	1.827853	0.005000	7.068782	-0.392400	-6.278400	0.037332	-0.149254	-0.660975	0.100491	0.338154	-0.030278
364	1.832853	0.005000	7.102440	-0.389662	-6.233684	0.036763	-0.149254	-0.661738	0.105391	0.349179	-0.032885
365	1.837853	0.005000	7.180708	-0.314026	-6.043278	0.036194	-0.149254	-0.662500	0.099580	0.343806	-0.028274
366	1.842853	0.005000	7.141680	-0.345584	-6.199920	0.035625	-0.149254	-0.663262	0.079083	0.342869	-0.024162
367	1.847853	0.005000	7.068540	-0.353160	-6.155340	0.035056	-0.149254	-0.664025	0.082670	0.336742	-0.026745
368	1.852853	0.005000	7.133496	-0.313920	-6.067511	0.034487	-0.149254	-0.664787	0.088147	0.351751	-0.023790
369	1.857853	0.005000	7.209132	-0.313920	-6.060145	0.033836	-0.149090	-0.665549	0.080458	0.357851	-0.030842
370	1.862853	0.005000	7.245528	-0.288552	-6.135312	0.033154	-0.148863	-0.666311	0.092590	0.351118	-0.027726
371	1.867853	0.005000	7.158396	-0.212916	-6.076391	0.032471	-0.148635	-0.667074	0.090920	0.364936	-0.030340
372	1.872853	0.005000	7.122121	-0.196200	-5.925240	0.031789	-0.148408	-0.667836	0.084797	0.362130	-0.033256
373	1.877853	0.005000	7.063200	-0.330960	-5.969640	0.031106	-0.148180	-0.668598	0.076007	0.368422	-0.029949
374	1.882853	0.005000	7.131363	-0.274680	-5.964480	0.030424	-0.147953	-0.669360	0.073807	0.381230	-0.029991
375	1.887853	0.005000	7.220160	-0.274680	-5.964480	0.029742	-0.147725	-0.670122	0.081914	0.381499	-0.017939
376	1.892853	0.005000	7.220160	-0.274680	-6.016639	0.029059	-0.147498	-0.670884	0.076782	0.389099	-0.032768
377	1.897853	0.005000	7.292710	-0.196200	-5.903790	0.028377	-0.147270	-0.671646	0.088352	0.391124	-0.030694
378	1.902853	0.005000	7.298640	-0.202372	-5.994462	0.027694	-0.147043	-0.672408	0.069673	0.401915	-0.031926
379	1.907853	0.005000	7.259884	-0.314162	-5.924756	0.027012	-0.146815	-0.673170	0.079774	0.401166	-0.026594
380	1.912853	0.005000	7.374518	-0.353160	-5.846760	0.026329	-0.146588	-0.673932	0.079289	0.408849	-0.020097
381	1.917853	0.005000	7.382157	-0.426603	-5.831649	0.025647	-0.146360	-0.674694	0.069472	0.416742	-0.031432
382	1.922853	0.005000	7.361478	-0.321741	-5.689800	0.025101	-0.146405	-0.675608	0.071943	0.418082	-0.029127
383	1.927853	0.005000	7.444935	-0.331831	-5.621985	0.024646	-0.146633	-0.676624	0.070469	0.426322	-0.037755
384	1.932853	0.005000	7.494840	-0.339651	-5.559857	0.024191	-0.146860	-0.677640	0.072531	0.431538	-0.050379
385	1.937853	0.005000	7.478487	-0.330273	-5.663630	0.023736	-0.147088	-0.678656	0.073284	0.434918	-0.040002
386	1.942853	0.005000	7.534927	-0.352313	-5.631364	0.023281	-0.147315	-0.679672	0.067915	0.442419	-0.037649
387	1.947853	0.005000	7.520360	-0.335507	-5.650560	0.022826	-0.147542	-0.680688	0.080241	0.434318	-0.030290
388	1.952853	0.005000	7.597750	-0.299110	-5.660181	0.022371	-0.147770	-0.681704	0.063457	0.436861	-0.038474
389	1.957853	0.005000	7.648457	-0.259371	-5.665869	0.021916	-0.147997	-0.682720	0.070624	0.429394	-0.033114
390	1.962853	0.005000	7.769520	-0.353160	-5.583955	0.021461	-0.148225	-0.683736	0.070785	0.434171	-0.044340
391	1.967853	0.005000	7.736558	-0.419084	-5.487322	0.021006	-0.148452	-0.684752	0.079317	0.435499	-0.044986
392	1.972853	0.005000	7.887240	-0.399351	-5.382831	0.020551	-0.148680	-0.685768	0.084530	0.435931	-0.042191
393	1.977853	0.005000	7.925421	-0.351042	-5.335581	0.020096	-0.148907	-0.686784	0.079405	0.430671	-0.037568
394	1.982853	0.005000	7.887240	-0.199770	-5.259945	0.019641	-0.149135	-0.687800	0.081913	0.420457	-0.038365
395	1.987853	0.005000	7.931109	-0.313920	-5.449731	0.019186	-0.149362	-0.688635	0.083043	0.418818	-0.040282
396	1.992853	0.005000	7.848000	-0.353160	-5.368407	0.018731	-0.149590	-0.689271	0.072259	0.423110	-0.039530
397	1.997853	0.005000	7.936797	-0.363477	-5.210630	0.018276	-0.149817	-0.689906	0.053199	0.420239	-0.026520
398	2.002853	0.005000	7.939641	-0.274680	-5.127279	0.017821	-0.150045	-0.690541	0.064393	0.417992	-0.041755
399	2.007853	0.005000	7.981725	-0.313920	-5.170906	0.017366	-0.150273	-0.691177	0.076121	0.411282	-0.050499
400	2.012853	0.005000	8.023570	-0.334550	-5.134380	0.016911	-0.150500	-0.691812	0.062149	0.419079	-0.047076
401	2.017853	0.005000	7.965720	-0.317157	-5.076724	0.016456	-0.150728	-0.692448	0.074467	0.405442	-0.036683
402	2.022853	0.005000	7.980877	-0.226515	-5.101200	0.016000	-0.150955	-0.693083	0.071251	0.405201	-0.026308
403	2.027853	0.005000	8.002661	-0.274680	-5.101200	0.015545	-0.151183	-0.693718	0.061380	0.407215	-0.038658
404	2.032853	0.005000	8.053670	-0.265210	-5.022720	0.015090	-0.151410	-0.694354	0.073582	0.398390	-0.042018
405	2.037853	0.005000	8.118913	-0.274680	-5.040676	0.014635	-0.151638	-0.694989	0.062638	0.404913	-0.056370
406	2.042853	0.005000	8.253152	-0.283181	-4.830771	0.014180	-0.151866	-0.695625	0.069823	0.391672	-0.037883
407	2.047853	0.005000	8.278233	-0.313920	-4.982073	0.013725	-0.152093	-0.696260	0.038520	0.407263	-0.051346
408	2.052853	0.005000	8.164794	-0.313920	-4.906437	0.013188	-0.152239	-0.696850	0.054971	0.395543	-0.034841
409	2.057853	0.005000	8.275359	-0.353160	-4.765164	0.012505	-0.152239	-0.697358	0.048701	0.392351	-0.037497
410	2.062853	0.005000	8.240400	-0.313920	-4.794405	0.011822	-0.152239	-0.697866	0.046997	0.383281	-0.042369
411	2.067853	0.005000	8.318880	-0.293680	-4.796780	0.011139	-0.152239	-0.698374	0.063384	0.374147	-0.042226
412	2.072853	0.005000	8.397360	-0.274680	-4.644872	0.010457	-0.152239	-0.698883	0.052080	0.381268	-0.049577
413	2.077853	0.005000	8.358120	-0.298732	-4.684748	0.009774	-0.152239	-0.699391	0.056200	0.372684	-0.041845
414	2.082853	0.005000	8.418568	-0.331952	-4.551840	0.009091	-0.152239	-0.699899	0.049115	0.368164	-0.040281
415	2.087853	0.005000	8.397360	-0.293044	-4.570204	0.008408	-0.152239	-0.700407	0.035330	0.357206	-0.049331
416	2.092853	0.005000	8.523279	-0.259159	-4.567361	0.007726	-0.152239	-0.700915	0.035801	0.346207	-0.039467
417	2.097853	0.005000	8.474630	-0.313920	-4.603757	0.007043	-0.152239	-0.701424	0.040450	0.329126	-0.045961
418	2.102853	0.005000	8.515080	-0.284513	-4.767615	0.006360	-0.152239	-0.701932	0.051233	0.313351	-0.032681
419	2.107853	0.005000	8.540342	-0.281669	-4.598069	0.005678	-0.152239	-0.702440	0.033770	0.299859	-0.030256
420	2.112853	0.005000	8.510887	-0.262100	-4.539260	0.004995	-0.152239	-0.702948	0.039993	0.288332	-0.039943
421	2.117853	0.005000	8.591805	-0.197955	-4.396635	0.004367	-0.152267	-0.703487	0.028268	0.292569	-0.028067
422	2.122853	0.005000	8.554320	-0.349893	-4.472271	0.003912	-0.152380	-0.704123	0.033761	0.280582	-0.031218
423	2.127853	0.005000	8.511147	-0.239373	-4.402746	0.003457	-0.152494	-0.704758	0.045961	0.263672	-0.026046
424	2.132853	0.005000	8.554320	-0.346383	-4.584303	0.003002	-0.152608	-0.705394	0.039930	0.265844	-0.032652
425	2.137853	0.005000	8.563941	-0.186579	-4.551840	0.002546	-0.152722	-0.706029	0.055055	0.242430	-0.019961
426	2.142853	0.005000	8.516926	-0.183735	-4.500135	0.002091	-0.152835	-0.706664	0.039068	0.238380	-0.019536
427	2.147853	0.005000	8.672040	-0.171800	-4.503040	0.001636	-0.152949	-0.707300	0.044155	0.219104	-0.016164
428	2.152853	0.005000	8.728964	-0.196200	-4.512600	0.001181	-0.153063	-0.707935	0.048048	0.214304	-0.016489
429	2.157853	0.005000	8.614088	-0.231809	-4.493888	0.000726	-0.153177	-0.708571	0.042965	0.207798	-0.027755
430	2.162853	0.005000	8.538452	-0.274680	-4.489228	0.000270	-0.153290	-0.709206	0.047461	0.192348	-0.014824
431	2.167853	0.005000	8.606751	-0.326945	-4.434120	-0.000185	-0.153404	-0.709841	0.028253	0.188026	-0.022384
432	2.172853	0.005000	8.564501	-0.303739	-4.483541	-0.000640	-0.153518	-0.710477	0.051288	0.171755	-0.015458
433	2.177853	0.005000	8.561657	-0.196200	-4.488033	-0.001095	-0.153632	-0.711112	0.042878	0.171391	-0.009719
434	2.182853	0.005000	8.607038	-0.239933	-4.669560	-0.001536	-0.153745	-0.711635	0.041430	0.152672	-0.021794
435	2.187853	0.005000	8.595663	-0.274680	-4.624012	-0.001878	-0.153859	-0.711381	0.034911	0.141387	-0.006315
436	2.192853	0.005000	8.594301	-0.274680	-4.551099	-0.002219	-0.153973	-0.711126	0.037693	0.139607	-0.009862
437	2.197853	0.005000	8.550735	-0.124890	-4.551840	-0.002560	-0.154087	-0.710872	0.056140	0.119570	-0.016014
438	2.202853	0.005000	8.613513	-0.241869	-4.702371	-0.002902	-0.154201	-0.710618	0.043571	0.120965	-0.014469
439	2.207853	0.005000	8.434452	-0.283953	-4.630320	-0.003243	-0.154315	-0.710364	0.049427	0.114265	-0.013792
440	2.212853	0.005000	8.464051	-0.184411	-4.575418	-0.003584	-0.154428	-0.710110	0.040839	0.111128	-0.007833
441	2.217853	0.005000	8.515080	-0.142468	-4.620064	-0.003925	-0.154542	-0.709856	0.048674	0.110039	-0.014633
442	2.222853	0.005000	8.493176	-0.252776	-4.517168	-0.004267	-0.154656	-0.709601	0.048564	0.104970	-0.009892
443	2.227853	0.005000	8.534140	-0.235440	-4.551840	-0.004608	-0.154770	-0.709347	0.049786	0.107784	-0.017390
444	2.232853	0.005000	8.515080	-0.290896	-4.568056	-0.004949	-0.154884	-0.709093	0.059133	0.102955	-0.009042
445	2.237853	0.005000	8.488335	-0.234563	-4.539345	-0.005291	-0.154997	-0.708839	0.051891	0.106254	-0.003547
446	2.242853	0.005000	8.386704	-0.110448	-4.640976	-0.005632	-0.155111	-0.708585	0.042232	0.100552	-0.003412
447	2.247853	0.005000	8.452907	-0.134027	-4.630320	-0.005975	-0.155225	-0.708334	0.056472	0.089898	-0.000004
448	2.252853	0.005000	8.533081	-0.201510	-4.651559	-0.006430	-0.155339	-0.708461	0.052078	0.096440	-0.003105
449	2.257853	0.005000	8.360586	-0.159426	-4.708800	-0.006885	-0.155453	-0.708588	0.052229	0.094078	-0.000914
450	2.262853	0.005000	8.358498	-0.196200	-4.669938	-0.007340	-0.155566	-0.708716	0.055049	0.093355	-0.010079
451	2.267853	0.005000	8.318880	-0.160182	-4.636764	-0.007795	-0.155680	-0.708843	0.050163	0.086726	-0.009649
452	2.272853	0.005000	8.312814	-0.202266	-4.603212	-0.008250	-0.155794	-0.708970	0.062670	0.087502	-0.013596
453	2.277853	0.005000	8.257510	-0.156960	-4.599635	-0.008705	-0.155908	-0.709097	0.056466	0.079362	-0.002432
454	2.282853	0.005000	8.251700	-0.263380	-4.658260	-0.009161	-0.156021	-0.709224	0.061418	0.086861	0.005524
455	2.287853	0.005000	8.318880	-0.274680	-4.737088	-0.009616	-0.156135	-0.709351	0.036748	0.091540	0.001185
456	2.292853	0.005000	8.330604	-0.269416	-4.797809	-0.010071	-0.156249	-0.709478	0.056540	0.076759	-0.006195
457	2.297853	0.005000	8.437024	-0.215608	-4.689392	-0.010526	-0.156363	-0.709605	0.063065	0.075427	-0.014021
458	2.302853	0.005000	8.475840	-0.274680	-4.759900	-0.010981	-0.156476	-0.709732	0.060665	0.077683	-0.012660
459	2.307853	0.005000	8.372309	-0.217923	-4.851571	-0.011436	-0.156590	-0.709859	0.064236	0.081313	0.000679
460	2.312853	0.005000	8.346775	-0.112516	-4.680905	-0.011892	-0.156704	-0.709986	0.050469	0.076636	-0.006143
461	2.317853	0.005000	8.240400	-0.196200	-4.599581	-0.012245	-0.157835	-0.708865	0.071886	0.080474	-0.001091
462	2.322853	0.005000	8.307565	-0.229782	-4.630320	-0.012586	-0.159086	-0.707594	0.056987	0.085338	-0.006768
463	2.327853	0.005000	8.234707	-0.238287	-4.714493	-0.012928	-0.160338	-0.706323	0.061392	0.073091	-0.007117
464	2.332853	0.005000	8.279640	-0.195353	-4.786856	-0.013269	-0.161590	-0.705052	0.061185	0.079627	0.001420
465	2.337853	0.005000	8.279640	-0.154540	-4.821679	-0.013611	-0.162841	-0.703782	0.055636	0.081640	-0.000855
466	2.342853	0.005000	8.263847	-0.162224	-4.742776	-0.013952	-0.164093	-0.702511	0.072626	0.072880	0.000531
467	2.347853	0.005000	8.279640	-0.274680	-4.708800	-0.014294	-0.165345	-0.701240	0.051180	0.082533	-0.005764
468	2.352853	0.005000	8.347168	-0.246392	-4.708800	-0.014635	-0.166597	-0.699970	0.051976	0.069188	-0.009389
469	2.357853	0.005000	8.436600	-0.209688	-4.708800	-0.014976	-0.167848	-0.698699	0.065521	0.072587	0.001443
470	2.362853	0.005000	8.459669	-0.196200	-4.748040	-0.015318	-0.169100	-0.697428	0.070150	0.073465	-0.013264
471	2.367853	0.005000	8.456825	-0.175975	-4.649335	-0.015659	-0.170352	-0.696158	0.075740	0.071812	-0.007179
472	2.372853	0.005000	8.340739	-0.235440	-4.691419	-0.016001	-0.171603	-0.694887	0.053561	0.073775	-0.004003
473	2.377853	0.005000	8.279640	-0.167125	-4.586708	-0.016342	-0.172855	-0.693616	0.058904	0.066629	-0.000902
474	2.382853	0.005000	8.345973	-0.129867	-4.657413	-0.016683	-0.174018	-0.693530	0.062786	0.077802	-0.000973
475	2.387853	0.005000	8.408690	-0.283983	-4.660257	-0.017024	-0.175155	-0.693785	0.071645	0.072576	-0.013270
476	2.392853	0.005000	8.246859	-0.301001	-4.695881	-0.017366	-0.176293	-0.694039	0.066535	0.070617	-0.005103
477	2.397853	0.005000	8.322495	-0.235440	-4.662329	-0.017707	-0.177430	-0.694293	0.060348	0.068313	-0.002663
478	2.402853	0.005000	8.395817	-0.234669	-4.707257	-0.018048	-0.178568	-0.694547	0.081572	0.064441	-0.001999
479	2.407853	0.005000	8.356048	-0.121865	-4.741823	-0.018389	-0.179705	-0.694801	0.049560	0.064302	-0.004014
480	2.412853	0.005000	8.318880	-0.191753	-4.787280	-0.018731	-0.180843	-0.695055	0.060916	0.052944	0.003667
481	2.417853	0.005000	8.500497	-0.125011	-4.716091	-0.019072	-0.181980	-0.695309	0.060018	0.050245	0.005202
482	2.422853	0.005000	8.436600	-0.186065	-4.688530	-0.019413	-0.183117	-0.695563	0.068010	0.050057	-0.003503
483	2.427853	0.005000	8.397360	-0.261701	-4.722082	-0.019754	-0.184255	-0.695817	0.064047	0.060796	0.003527
484	2.432853	0.005000	8.342297	-0.156960	-4.717029	-0.020096	-0.185392	-0.696071	0.072939	0.055768	-0.003929
485	2.437853	0.005000	8.316974	-0.198106	-4.632226	-0.020437	-0.186530	-0.696325	0.079060	0.060170	-0.005204
486	2.442853	0.005000	8.358120	-0.253169	-4.605027	-0.020778	-0.187667	-0.696579	0.066320	0.054797	0.003778
487	2.447853	0.005000	8.436600	-0.181315	-4.660090	-0.021417	-0.187092	-0.696417	0.061925	0.054595	0.000916
488	2.452853	0.005000	8.463330	-0.196200	-4.669560	-0.022214	-0.185612	-0.696036	0.068940	0.058611	0.001683
489	2.457853	0.005000	8.417267	-0.166626	-4.738374	-0.023010	-0.184133	-0.695655	0.077278	0.056131	-0.008716
490	2.462853	0.005000	8.397360	-0.170605	-4.662738	-0.023807	-0.182654	-0.695274	0.086711	0.042813	-0.004773
491	2.467853	0.005000	8.393382	-0.278658	-4.661603	-0.024603	-0.181174	-0.694893	0.072100	0.048740	-0.002291
492	2.472853	0.005000	8.241535	-0.274680	-4.589945	-0.025400	-0.179695	-0.694511	0.076492	0.043394	-0.004276
493	2.477853	0.005000	8.279640	-0.237149	-4.701962	-0.026196	-0.178216	-0.694130	0.073242	0.047856	-0.002493
494	2.482853	0.005000	8.314327	-0.152407	-4.743487	-0.026993	-0.176737	-0.693749	0.071497	0.054367	-0.007185
495	2.487853	0.005000	8.311937	-0.067014	-4.708800	-0.027789	-0.175257	-0.693368	0.079442	0.048062	-0.000813
496	2.492853	0.005000	8.289427	-0.245318	-4.630320	-0.028586	-0.173778	-0.692987	0.067138	0.054169	-0.006552
497	2.497853	0.005000	8.345489	-0.313920	-4.682191	-0.029382	-0.172299	-0.692605	0.081865	0.049237	-0.009832
498	2.502853	0.005000	8.349830	-0.235440	-4.732565	-0.030179	-0.170819	-0.692224	0.065423	0.044172	-0.004865
499	2.507853	0.005000	8.295357	-0.253759	-4.708800	-0.030975	-0.169340	-0.691843	0.068463	0.044866	-0.000208
500	2.512853	0.005000	8.297717	-0.199286	-4.606071	-0.030792	-0.168167	-0.692488	0.087635	0.045257	-0.001186
501	2.517853	0.005000	8.231626	-0.196200	-4.630320	-0.029768	-0.167257	-0.694012	0.077587	0.050271	-0.003352
502	2.522853	0.005000	8.292179	-0.182038	-4.510977	-0.028744	-0.166346	-0.695537	0.069408	0.049981	0.001714
503	2.527853	0.005000	8.328894	-0.197017	-4.718814	-0.027719	-0.165436	-0.697062	0.044758	0.040741	0.005905
504	2.532853	0.005000	8.279640	-0.313920	-4.708800	-0.026695	-0.164526	-0.698587	0.064080	0.037141	-0.014672
505	2.537853	0.005000	8.288293	-0.348834	-4.660907	-0.025671	-0.163615	-0.700112	0.065132	0.040057	-0.000221
506	2.542853	0.005000	8.391430	-0.312438	-4.668078	-0.024647	-0.162705	-0.701636	0.072383	0.041006	0.001261
507	2.547853	0.005000	8.278279	-0.274680	-4.706077	-0.023623	-0.161794	-0.703161	0.057883	0.034511	0.005242
508	2.552853	0.005000	8.428189	-0.274680	-4.673765	-0.022599	-0.160884	-0.704686	0.056557	0.034042	-0.002235
509	2.557853	0.005000	8.390311	-0.242489	-4.740991	-0.021575	-0.159974	-0.706211	0.066414	0.037534	0.007432
510	2.562853	0.005000	8.367670	-0.215300	-4.610180	-0.020551	-0.159063	-0.707735	0.044892	0.044340	0.003523
511	2.567853	0.005000	8.397360	-0.223157	-4.551840	-0.019526	-0.158153	-0.709260	0.055962	0.041969	0.011015
512	2.572853	0.005000	8.294767	-0.235440	-4.600066	-0.018502	-0.157243	-0.710785	0.069741	0.035531	0.008653
513	2.577853	0.005000	8.276342	-0.196200	-4.573109	-0.017622	-0.156524	-0.711667	0.082519	0.031035	-0.001415
514	2.582853	0.005000	8.339695	-0.214625	-4.630320	-0.016939	-0.156069	-0.711667	0.076418	0.024911	0.018156
515	2.587853	0.005000	8.334461	-0.196200	-4.614739	-0.016256	-0.155613	-0.711667	0.054478	0.029809	0.010170
516	2.592853	0.005000	8.359103	-0.261928	-4.591080	-0.015573	-0.155158	-0.711667	0.069747	0.028208	0.009083
517	2.597853	0.005000	8.260449	-0.166984	-4.581056	-0.014890	-0.154703	-0.711667	0.061852	0.034532	0.011151
518	2.602853	0.005000	8.311362	-0.156960	-4.598598	-0.014207	-0.154247	-0.711667	0.044960	0.029013	0.020712
519	2.607853	0.005000	8.358120	-0.274680	-4.634994	-0.013524	-0.153792	-0.711667	0.043575	0.027285	0.018414
520	2.612853	0.005000	8.393699	-0.196200	-4.553670	-0.012841	-0.153336	-0.711667	0.042393	0.036783	0.018368
521	2.617853	0.005000	8.433559	-0.196200	-4.552854	-0.012158	-0.152881	-0.711667	0.057631	0.031364	0.017945
522	2.622853	0.005000	8.468125	-0.263108	-4.661845	-0.011475	-0.152426	-0.711667	0.055001	0.031279	0.020908
523	2.627853	0.005000	8.443301	-0.242141	-4.539405	-0.010791	-0.151970	-0.711667	0.046851	0.021887	0.012180
524	2.632853	0.005000	8.495989	-0.304375	-4.551840	-0.010108	-0.151515	-0.711667	0.056759	0.017523	0.023099
525	2.637853	0.005000	8.424211	-0.274680	-4.671632	-0.009425	-0.151060	-0.711667	0.054060	0.012210	0.016201
526	2.642853	0.005000	8.436600	-0.235440	-4.630320	-0.009097	-0.150781	-0.711905	0.056340	0.018624	0.019011
527	2.647853	0.005000	8.372343	-0.235440	-4.630320	-0.009552	-0.150895	-0.712667	0.052036	0.016853	0.023953
528	2.652853	0.005000	8.339332	-0.295132	-4.729252	-0.010008	-0.151009	-0.713430	0.059559	0.003977	0.025893
529	2.657853	0.005000	8.374064	-0.188848	-4.653616	-0.010463	-0.151123	-0.714193	0.043242	0.004679	0.018515
530	2.662853	0.005000	8.345020	-0.235440	-4.682600	-0.010918	-0.151237	-0.714956	0.057335	0.009342	0.020330
531	2.667853	0.005000	8.347864	-0.185944	-4.630320	-0.011374	-0.151351	-0.715718	0.052679	0.006458	0.032504
532	2.672853	0.005000	8.326292	-0.203612	-4.748040	-0.011829	-0.151465	-0.716481	0.055887	0.014063	0.022310
533	2.677853	0.005000	8.314312	-0.240008	-4.787280	-0.012284	-0.151579	-0.717244	0.059642	0.006705	0.017992
534	2.682853	0.005000	8.318880	-0.272955	-4.632045	-0.012740	-0.151692	-0.718007	0.049508	0.010758	0.018772
535	2.687853	0.005000	8.357001	-0.197319	-4.707681	-0.013195	-0.151806	-0.718769	0.049123	0.004377	0.021465
536	2.692853	0.005000	8.311779	-0.271129	-4.701699	-0.013650	-0.151920	-0.719532	0.052445	0.017122	0.015559
537	2.697853	0.005000	8.318880	-0.313920	-4.735333	-0.014106	-0.152034	-0.720295	0.044934	0.009834	0.015333
538	2.702853	0.005000	8.378965	-0.313920	-4.768885	-0.014561	-0.152148	-0.721058	0.053461	0.009724	0.019923
539	2.707853	0.005000	8.334037	-0.235440	-4.615163	-0.014925	-0.152468	-0.721616	0.067815	0.018013	0.020275
540	2.712853	0.005000	8.427130	-0.171845	-4.669560	-0.014925	-0.153606	-0.721362	0.071251	0.007395	0.015463
541	2.717853	0.005000	8.275858	-0.199982	-4.708800	-0.014925	-0.154743	-0.721108	0.049306	0.009185	0.026970
542	2.722853	0.005000	8.240400	-0.216773	-4.650893	-0.014925	-0.155881	-0.720853	0.052146	0.002832	0.017050
543	2.727853	0.005000	8.240400	-0.212023	-4.740446	-0.014925	-0.157019	-0.720599	0.045620	0.007852	0.024694
544	2.732853	0.005000	8.200857	-0.235440	-4.826520	-0.014925	-0.158157	-0.720345	0.033819	0.010120	0.027802
545	2.737853	0.005000	8.199369	-0.245698	-4.688284	-0.014925	-0.159295	-0.720091	0.039718	0.008094	0.022194
546	2.742853	0.005000	8.138201	-0.282440	-4.724759	-0.014925	-0.160433	-0.719837	0.038204	0.012187	0.014676
547	2.747853	0.005000	8.274724	-0.343327	-4.571505	-0.014925	-0.161571	-0.719582	0.049999	0.011353	0.022238
548	2.752853	0.005000	8.163992	-0.239585	-4.781063	-0.014925	-0.162709	-0.719328	0.044623	0.010848	0.016671
549	2.757853	0.005000	8.201160	-0.275451	-4.592623	-0.014925	-0.163847	-0.719074	0.035853	0.017665	0.024970
550	2.762853	0.005000	8.379283	-0.313920	-4.819289	-0.014925	-0.164984	-0.718820	0.042291	0.023031	0.036368
551	2.767853	0.005000	8.345201	-0.313920	-4.616917	-0.014925	-0.166122	-0.718566	0.052344	0.018176	0.019203
552	2.772853	0.005000	8.309577	-0.263350	-4.482663	-0.014877	-0.167058	-0.718333	0.060406	0.018293	0.014449
553	2.777853	0.005000	8.264694	-0.289626	-4.645266	-0.014308	-0.165806	-0.718333	0.045866	0.024435	0.024905
554	2.782853	0.005000	8.318880	-0.313920	-4.693809	-0.013739	-0.164555	-0.718333	0.035215	0.018983	0.016364
555	2.787853	0.005000	8.318880	-0.252806	-4.730674	-0.013170	-0.163303	-0.718333	0.050242	0.013497	0.021514
556	2.792853	0.005000	8.358120	-0.293710	-4.806310	-0.012601	-0.162051	-0.718333	0.058485	0.024333	0.015164
557	2.797853	0.005000	8.335066	-0.258494	-4.771094	-0.012032	-0.160800	-0.718333	0.055670	0.021586	0.027963
558	2.802853	0.005000	8.292982	-0.288022	-4.773938	-0.011463	-0.159548	-0.718333	0.041030	0.037360	0.019798
559	2.807853	0.005000	8.318880	-0.313920	-4.680058	-0.010895	-0.158296	-0.718333	0.059825	0.031170	0.018142
560	2.812853	0.005000	8.334189	-0.259371	-4.701146	-0.010326	-0.157045	-0.718333	0.041290	0.047269	0.020449
561	2.817853	0.005000	8.353310	-0.205821	-4.664750	-0.009757	-0.155793	-0.718333	0.049226	0.056803	0.008462
562	2.822853	0.005000	8.316913	-0.235440	-4.708800	-0.009188	-0.154541	-0.718333	0.071207	0.058390	0.017664
563	2.827853	0.005000	8.394728	-0.235440	-4.708800	-0.008619	-0.153289	-0.718333	0.051482	0.059008	0.013079
564	2.832853	0.005000	8.400666	-0.271374	-4.627014	-0.008050	-0.152038	-0.718333	0.053858	0.056702	0.013532
565	2.837853	0.005000	8.451394	-0.214534	-4.452454	-0.007481	-0.150786	-0.718333	0.051700	0.066107	0.010598
566	2.842853	0.005000	8.367075	-0.226485	-4.573169	-0.007683	-0.150526	-0.718579	0.060642	0.065164	0.012988
567	2.847853	0.005000	8.420958	-0.274680	-4.661603	-0.007911	-0.150298	-0.718833	0.058680	0.062055	0.015308
568	2.852853	0.005000	8.382717	-0.171603	-4.640274	-0.008138	-0.150071	-0.719087	0.062273	0.057698	0.013383
569	2.857853	0.005000	8.436600	-0.200466	-4.634586	-0.008366	-0.149843	-0.719342	0.077634	0.045295	0.019205
570	2.862853	0.005000	8.455509	-0.255771	-4.612833	-0.008594	-0.149615	-0.719596	0.080807	0.058132	0.013718
571	2.867853	0.005000	8.507970	-0.290745	-4.496535	-0.008821	-0.149388	-0.719850	0.073282	0.044164	0.013114
572	2.872853	0.005000	8.448460	-0.300230	-4.579220	-0.009049	-0.149160	-0.720104	0.075462	0.041697	0.016061
573	2.877853	0.005000	8.404061	-0.263834	-4.562686	-0.009276	-0.148933	-0.720358	0.068439	0.050558	0.005926
574	2.882853	0.005000	8.279640	-0.227438	-4.779278	-0.009504	-0.148705	-0.720613	0.081126	0.043099	0.011930
575	2.887853	0.005000	8.381885	-0.235440	-4.708800	-0.009731	-0.148478	-0.720867	0.079246	0.047342	0.011803
576	2.892853	0.005000	8.281954	-0.272366	-4.628006	-0.009959	-0.148250	-0.721121	0.078567	0.046050	0.011983
577	2.897853	0.005000	8.318880	-0.312861	-4.591080	-0.010187	-0.148022	-0.721375	0.076853	0.045275	0.009352
578	2.902853	0.005000	8.286387	-0.267933	-4.702053	-0.010414	-0.147795	-0.721629	0.075831	0.040767	0.012487
579	2.907853	0.005000	8.318880	-0.274680	-4.608370	-0.010351	-0.149215	-0.721775	0.069996	0.044161	0.019212
580	2.912853	0.005000	8.332298	-0.266073	-4.691585	-0.010237	-0.150921	-0.721902	0.069761	0.046178	0.024157
581	2.917853	0.005000	8.408811	-0.274680	-4.681011	-0.010123	-0.152628	-0.722029	0.085602	0.043230	0.014726
582	2.922853	0.005000	8.190510	-0.274680	-4.551840	-0.010010	-0.154335	-0.722156	0.067123	0.057685	0.008368
583	2.927853	0.005000	8.279640	-0.257541	-4.608219	-0.009896	-0.156042	-0.722283	0.087195	0.046524	0.008858
584	2.932853	0.005000	8.298897	-0.255423	-4.589628	-0.009782	-0.157749	-0.722410	0.061976	0.050295	0.001164
585	2.937853	0.005000	8.335293	-0.274680	-4.568253	-0.009668	-0.159456	-0.722537	0.072859	0.048054	-0.001467
586	2.942853	0.005000	8.305311	-0.261111	-4.604649	-0.009554	-0.161163	-0.722664	0.076793	0.048789	0.000964
587	2.947853	0.005000	8.233336	-0.274680	-4.608870	-0.009440	-0.162870	-0.722791	0.073402	0.047992	-0.000182
588	2.952853	0.005000	8.161920	-0.235440	-4.622343	-0.009327	-0.164576	-0.722918	0.077759	0.051082	0.002771
589	2.957853	0.005000	8.223881	-0.235440	-4.568359	-0.009213	-0.166283	-0.723045	0.069076	0.055122	0.001254
590	2.962853	0.005000	8.240400	-0.240765	-4.664235	-0.009099	-0.167990	-0.723172	0.083128	0.041340	-0.009336
591	2.967853	0.005000	8.240400	-0.352978	-4.473905	-0.008985	-0.169697	-0.723299	0.078820	0.050521	0.002043
592	2.972853	0.005000	8.315855	-0.389375	-4.591080	-0.009122	-0.169396	-0.723240	0.076747	0.048925	-0.005053
593	2.977853	0.005000	8.324749	-0.359029	-4.585211	-0.009350	-0.168372	-0.723113	0.075747	0.050906	0.000611
594	2.982853	0.005000	8.327124	-0.322164	-4.551840	-0.009577	-0.167348	-0.722986	0.057337	0.059318	-0.002012
595	2.987853	0.005000	8.464752	-0.246528	-4.551840	-0.009805	-0.166324	-0.722859	0.057616	0.043428	-0.007624
596	2.992853	0.005000	8.422668	-0.274680	-4.551840	-0.010033	-0.165300	-0.722732	0.075366	0.041934	-0.001505
597	2.997853	0.005000	8.352432	-0.297144	-4.546152	-0.010260	-0.164275	-0.722605	0.064655	0.047426	-0.001247
598	3.002853	0.005000	8.416980	-0.294300	-4.591080	-0.010488	-0.163251	-0.722478	0.078270	0.038179	0.001656
599	3.007853	0.005000	8.419824	-0.257904	-4.551840	-0.010715	-0.162227	-0.722351	0.064974	0.035028	-0.005367
600	3.012853	0.005000	8.422668	-0.249372	-4.579704	-0.010943	-0.161203	-0.722224	0.068131	0.035723	-0.002726
601	3.017853	0.005000	8.408578	-0.252244	-4.630320	-0.011170	-0.160179	-0.722096	0.057574	0.044287	-0.001833
602	3.022853	0.005000	8.358120	-0.313920	-4.639018	-0.011398	-0.159155	-0.721969	0.054318	0.034555	-0.002326
603	3.027853	0.005000	8.391506	-0.392400	-4.630320	-0.011626	-0.158131	-0.721842	0.061084	0.036143	-0.003054
604	3.032853	0.005000	8.400370	-0.316930	-4.600111	-0.011853	-0.157107	-0.721715	0.059245	0.034478	-0.001686
605	3.037853	0.005000	8.396725	-0.274680	-4.670831	-0.012292	-0.157490	-0.721588	0.076065	0.026500	0.004509
606	3.042853	0.005000	8.358120	-0.274680	-4.636946	-0.012861	-0.158742	-0.721461	0.052295	0.021686	-0.012622
607	3.047853	0.005000	8.328985	-0.240492	-4.488517	-0.013430	-0.159994	-0.721334	0.044785	0.018945	-0.011119
608	3.052853	0.005000	8.405256	-0.250991	-4.536047	-0.013999	-0.161245	-0.721207	0.038637	0.028711	0.005651
609	3.057853	0.005000	8.397360	-0.206940	-4.641060	-0.014568	-0.162497	-0.721080	0.047438	0.021224	0.000674
610	3.062853	0.005000	8.423016	-0.261096	-4.551840	-0.015137	-0.163749	-0.720953	0.056656	0.017010	0.000755
611	3.067853	0.005000	8.403744	-0.219012	-4.574652	-0.015706	-0.165001	-0.720826	0.036470	0.024807	-0.006876
612	3.072853	0.005000	8.475840	-0.235440	-4.512600	-0.016275	-0.166252	-0.720699	0.043796	0.013357	0.003196
613	3.077853	0.005000	8.453724	-0.296796	-4.495476	-0.016844	-0.167504	-0.720572	0.049908	0.013609	0.000635
614	3.082853	0.005000	8.510978	-0.274680	-4.615873	-0.017413	-0.168756	-0.720445	0.044882	0.008651	-0.004832
615	3.087853	0.005000	8.440170	-0.247330	-4.602970	-0.017982	-0.170007	-0.720317	0.057660	0.012196	-0.003335
616	3.092853	0.005000	8.367166	-0.344114	-4.633376	-0.018551	-0.171259	-0.720190	0.049284	0.008810	0.002345
617	3.097853	0.005000	8.300274	-0.392400	-4.591080	-0.019120	-0.172511	-0.720063	0.044654	0.000733	-0.000366
618	3.102853	0.005000	8.315522	-0.242156	-4.555198	-0.019117	-0.172391	-0.719936	0.030965	-0.004174	0.005411
619	3.107853	0.005000	8.317851	-0.274166	-4.513629	-0.018548	-0.170911	-0.719809	0.045152	-0.003802	0.003203
620	3.112853	0.005000	8.277310	-0.235440	-4.591080	-0.017979	-0.169431	-0.719682	0.045006	0.012105	-0.002212
621	3.117853	0.005000	8.348711	-0.309215	-4.482769	-0.017409	-0.167951	-0.719555	0.050044	0.000658	0.005919
622	3.122853	0.005000	8.311332	-0.242988	-4.544292	-0.016840	-0.166471	-0.719428	0.052091	0.002001	-0.002483
623	3.127853	0.005000	8.318880	-0.235440	-4.522992	-0.016271	-0.164991	-0.719300	0.055704	0.009930	-0.010385
624	3.132853	0.005000	8.436131	-0.235440	-4.538604	-0.015702	-0.163511	-0.719173	0.053819	0.011632	-0.013627
625	3.137853	0.005000	8.374200	-0.274680	-4.551840	-0.015132	-0.162031	-0.719046	0.050673	0.015690	-0.003829
626	3.142853	0.005000	8.356728	-0.255756	-4.628928	-0.014563	-0.160551	-0.718919	0.046210	0.013775	-0.011769
627	3.147853	0.005000	8.379888	-0.274680	-4.565016	-0.013994	-0.159071	-0.718792	0.056177	0.008015	-0.000454
628	3.152853	0.005000	8.333977	-0.274680	-4.645417	-0.013425	-0.157591	-0.718665	0.053609	0.019016	-0.005103
629	3.157853	0.005000	8.397360	-0.274680	-4.576346	-0.012855	-0.156111	-0.718537	0.050626	0.013255	0.009521
630	3.162853	0.005000	8.318880	-0.224427	-4.542431	-0.012286	-0.154631	-0.718410	0.049969	0.016805	-0.001412
631	3.167853	0.005000	8.312466	-0.183070	-4.558405	-0.011895	-0.153731	-0.718532	0.024774	0.011854	0.003443
632	3.172853	0.005000	8.507637	-0.085923	-4.516321	-0.011782	-0.153731	-0.719040	0.047461	0.012921	0.000128
633	3.177853	0.005000	8.394698	-0.155629	-4.553171	-0.011668	-0.153731	-0.719549	0.046694	0.007241	-0.005796
634	3.182853	0.005000	8.281153	-0.155447	-4.628807	-0.011554	-0.153731	-0.720057	0.048690	0.004425	0.004075
635	3.187853	0.005000	8.318880	-0.274680	-4.512600	-0.011440	-0.153731	-0.720565	0.037407	0.008480	0.004922
636	3.192853	0.005000	8.350919	-0.281881	-4.527001	-0.011327	-0.153731	-0.721074	0.058018	0.000137	0.014032
637	3.197853	0.005000	8.456689	-0.372311	-4.737996	-0.011213	-0.153731	-0.721582	0.044673	0.004667	0.006094
638	3.202853	0.005000	8.370434	-0.300457	-4.708800	-0.011099	-0.153731	-0.722090	0.047849	0.012926	-0.008402
639	3.207853	0.005000	8.350163	-0.313920	-4.622545	-0.010985	-0.153731	-0.722599	0.033401	0.007397	0.006373
640	3.212853	0.005000	8.415686	-0.253766	-4.491686	-0.010872	-0.153731	-0.723107	0.038434	0.009578	0.001274
641	3.217853	0.005000	8.473178	-0.274680	-4.491649	-0.010758	-0.153731	-0.723615	0.052054	0.000991	0.007161
642	3.222853	0.005000	8.366470	-0.250885	-4.551840	-0.010644	-0.153731	-0.724123	0.047608	0.010380	0.013414
643	3.227853	0.005000	8.372158	-0.287281	-4.525201	-0.010530	-0.153731	-0.724632	0.040104	0.003251	0.011526
644	3.232853	0.005000	8.367877	-0.235440	-4.659803	-0.010479	-0.153700	-0.724965	0.038767	0.010549	0.007984
645	3.237853	0.005000	8.358120	-0.274680	-4.727301	-0.010593	-0.153586	-0.724838	0.045865	0.004645	-0.001122
646	3.242853	0.005000	8.436600	-0.204338	-4.673629	-0.010707	-0.153472	-0.724711	0.045194	0.001402	0.005259
647	3.247853	0.005000	8.322556	-0.350709	-4.630320	-0.010821	-0.153358	-0.724584	0.035071	0.010217	-0.005187
648	3.252853	0.005000	8.360477	-0.236618	-4.554197	-0.010934	-0.153245	-0.724457	0.045461	0.005077	0.000955
649	3.257853	0.005000	8.389343	-0.204217	-4.508591	-0.011048	-0.153131	-0.724330	0.042460	0.017945	0.003977
650	3.262853	0.005000	8.429747	-0.364989	-4.487065	-0.011162	-0.153017	-0.724202	0.049566	0.009644	0.011928
651	3.267853	0.005000	8.387210	-0.284377	-4.541690	-0.011276	-0.152903	-0.724075	0.048512	0.009677	0.006336
652	3.272853	0.005000	8.475840	-0.340620	-4.473360	-0.011389	-0.152790	-0.723948	0.043637	0.005278	-0.003885
653	3.277853	0.005000	8.365033	-0.313920	-4.497216	-0.011503	-0.152676	-0.723821	0.056048	0.003343	0.006211
654	3.282853	0.005000	8.322172	-0.313920	-4.434120	-0.011617	-0.152562	-0.723694	0.044145	0.013803	0.006089
655	3.287853	0.005000	8.318880	-0.351193	-4.415483	-0.011731	-0.152448	-0.723567	0.052742	0.009598	0.005146
656	3.292853	0.005000	8.381567	-0.298127	-4.504946	-0.011844	-0.152335	-0.723440	0.033865	0.013862	0.013502
657	3.297853	0.005000	8.423258	-0.222098	-4.604029	-0.012012	-0.152311	-0.723353	0.039141	0.014475	0.004601
658	3.302853	0.005000	8.475840	-0.254470	-4.591080	-0.012468	-0.152767	-0.723480	0.045012	0.008891	0.003575
659	3.307853	0.005000	8.446796	-0.132242	-4.583819	-0.012923	-0.153222	-0.723608	0.045101	0.002050	0.004225
660	3.312853	0.005000	8.332131	-0.196200	-4.586663	-0.013378	-0.153677	-0.723735	0.046213	0.000820	0.012780
661	3.317853	0.005000	8.397360	-0.237013	-4.517320	-0.013834	-0.154133	-0.723862	0.045014	-0.001412	0.007787
662	3.322853	0.005000	8.397360	-0.236251	-4.591891	-0.014289	-0.154588	-0.723989	0.054987	-0.002735	0.002175
663	3.327853	0.005000	8.294223	-0.199846	-4.519891	-0.014745	-0.155044	-0.724116	0.048036	0.002315	0.015153
664	3.332853	0.005000	8.318880	-0.163450	-4.604362	-0.015200	-0.155499	-0.724243	0.040307	-0.001998	0.003405
665	3.337853	0.005000	8.447840	-0.166293	-4.549934	-0.015655	-0.155954	-0.724370	0.056837	-0.006685	0.016040
666	3.342853	0.005000	8.303995	-0.208377	-4.497715	-0.016111	-0.156410	-0.724498	0.050773	-0.003865	0.001722
667	3.347853	0.005000	8.225379	-0.196200	-4.542643	-0.016566	-0.156865	-0.724625	0.047382	-0.006736	0.005803
668	3.352853	0.005000	8.336745	-0.253305	-4.569705	-0.017021	-0.157320	-0.724752	0.040760	-0.014526	0.002207
669	3.357853	0.005000	8.399538	-0.295389	-4.570371	-0.017477	-0.157776	-0.724879	0.048504	-0.014683	0.003073
670	3.362853	0.005000	8.365986	-0.298233	-4.598901	-0.017899	-0.158176	-0.724963	0.060296	-0.007339	0.008723
671	3.367853	0.005000	8.292483	-0.221886	-4.512600	-0.017671	-0.157493	-0.724201	0.047715	-0.012828	-0.007702
672	3.372853	0.005000	8.358120	-0.232868	-4.554412	-0.017444	-0.156810	-0.723438	0.049573	-0.008498	0.011900
673	3.377853	0.005000	8.382142	-0.196200	-4.630320	-0.017216	-0.156128	-0.722676	0.037980	-0.001736	0.004757
674	3.382853	0.005000	8.392595	-0.200965	-4.556605	-0.016989	-0.155445	-0.721913	0.051045	-0.015933	0.001324
675	3.387853	0.005000	8.399281	-0.237361	-4.589159	-0.016761	-0.154762	-0.721151	0.038767	-0.002879	0.008163
676	3.392853	0.005000	8.551552	-0.198046	-4.590157	-0.016533	-0.154079	-0.720389	0.043386	-0.005818	0.006000
677	3.397853	0.005000	8.432833	-0.199967	-4.701267	-0.016306	-0.153397	-0.719626	0.065947	-0.008244	0.001829
678	3.402853	0.005000	8.429989	-0.228829	-4.565061	-0.016078	-0.152714	-0.718864	0.052591	0.011430	-0.001791
679	3.407853	0.005000	8.445694	-0.205294	-4.672423	-0.015851	-0.152031	-0.718101	0.062475	-0.001178	0.001551
680	3.412853	0.005000	8.381779	-0.196200	-4.657731	-0.015623	-0.151348	-0.717339	0.053689	-0.002204	0.010385
681	3.417853	0.005000	8.372793	-0.260007	-4.748040	-0.015396	-0.150666	-0.716576	0.051721	-0.004386	0.003873
682	3.422853	0.005000	8.393155	-0.235440	-4.565152	-0.015168	-0.149983	-0.715814	0.051199	-0.003277	0.013004
683	3.427853	0.005000	8.300001	-0.334281	-4.708800	-0.014940	-0.149300	-0.715052	0.051679	-0.008244	0.007010
684	3.432853	0.005000	8.350950	-0.203370	-4.637490	-0.014607	-0.149360	-0.715711	0.064735	-0.008230	0.004349
685	3.437853	0.005000	8.358120	-0.170605	-4.539889	-0.014265	-0.149474	-0.716473	0.049055	0.000316	0.001257
686	3.442853	0.005000	8.379722	-0.224639	-4.619519	-0.013924	-0.149588	-0.717236	0.054628	0.003360	0.009888
687	3.447853	0.005000	8.459926	-0.243397	-4.669560	-0.013583	-0.149701	-0.717998	0.063745	-0.009904	0.013914
688	3.452853	0.005000	8.318880	-0.269567	-4.724139	-0.013241	-0.149815	-0.718760	0.068813	-0.007944	0.005594
689	3.457853	0.005000	8.436600	-0.163767	-4.708800	-0.012900	-0.149929	-0.719523	0.054657	-0.000506	-0.003158
690	3.462853	0.005000	8.397935	-0.120019	-4.631470	-0.012559	-0.150043	-0.720285	0.040691	0.003970	0.003088
691	3.467853	0.005000	8.400779	-0.196200	-4.695125	-0.012218	-0.150156	-0.721048	0.069265	-0.001743	-0.000393
692	3.472853	0.005000	8.325143	-0.163223	-4.564365	-0.011876	-0.150270	-0.721810	0.060964	0.005406	0.005001
693	3.477853	0.005000	8.349482	-0.134995	-4.608355	-0.011535	-0.150384	-0.722572	0.060670	-0.005109	0.007128
694	3.482853	0.005000	8.374397	-0.251717	-4.607357	-0.011194	-0.150498	-0.723335	0.054043	-0.007664	0.008261
695	3.487853	0.005000	8.265315	-0.249765	-4.569902	-0.010852	-0.150611	-0.724097	0.055408	-0.004753	-0.004630
696	3.492853	0.005000	8.336049	-0.274680	-4.635221	-0.010511	-0.150725	-0.724860	0.052508	0.000062	-0.004562
697	3.497853	0.005000	8.358120	-0.234653	-4.629533	-0.010726	-0.151210	-0.724896	0.054461	-0.002749	-0.002969
698	3.502853	0.005000	8.348212	-0.228966	-4.676034	-0.011068	-0.151779	-0.724769	0.057394	-0.000425	-0.001386
699	3.507853	0.005000	8.305177	-0.249143	-4.565543	-0.011409	-0.152348	-0.724642	0.055064	0.006926	0.007412
700	3.512853	0.005000	8.358120	-0.257768	-4.635736	-0.011750	-0.152917	-0.724515	0.066537	-0.003268	-0.003455
701	3.517853	0.005000	8.335520	-0.305600	-4.700480	-0.012092	-0.153486	-0.724388	0.056896	0.006615	0.003742
702	3.522853	0.005000	8.324356	-0.235440	-4.591080	-0.012433	-0.154055	-0.724261	0.049277	0.011343	0.005264
703	3.527853	0.005000	8.433968	-0.196200	-4.711432	-0.012774	-0.154624	-0.724134	0.058532	0.007267	0.008160
704	3.532853	0.005000	8.319304	-0.118144	-4.669984	-0.013116	-0.155193	-0.724007	0.058706	0.006730	0.002991
705	3.537853	0.005000	8.399992	-0.193568	-4.559737	-0.013457	-0.155762	-0.723880	0.061208	0.007515	0.004346
706	3.542853	0.005000	8.363566	-0.274680	-4.613983	-0.013798	-0.156331	-0.723753	0.056736	0.007636	0.006081
707	3.547853	0.005000	8.389070	-0.274680	-4.756330	-0.014140	-0.156900	-0.723625	0.053015	0.006203	0.003935
708	3.552853	0.005000	8.330014	-0.302786	-4.759174	-0.014481	-0.157469	-0.723498	0.058110	0.003386	0.007196
709	3.557853	0.005000	8.380690	-0.271987	-4.512600	-0.014822	-0.158038	-0.723371	0.055741	0.005134	0.005498
710	3.562853	0.005000	8.391763	-0.246664	-4.523824	-0.014766	-0.157652	-0.723155	0.055664	0.012239	0.003804
711	3.567853	0.005000	8.318880	-0.255015	-4.571415	-0.014538	-0.156855	-0.722901	0.053933	0.005409	0.010750
712	3.572853	0.005000	8.414091	-0.241219	-4.630320	-0.014311	-0.156059	-0.722647	0.063054	0.001868	0.009756
713	3.577853	0.005000	8.372476	-0.235440	-4.580551	-0.014083	-0.155262	-0.722393	0.071584	0.004699	0.003009
714	3.582853	0.005000	8.307368	-0.240145	-4.630320	-0.013856	-0.154466	-0.722139	0.058502	0.003781	0.013284
715	3.587853	0.005000	8.327548	-0.196200	-4.573744	-0.013628	-0.153669	-0.721885	0.071822	-0.001963	0.014644
716	3.592853	0.005000	8.464192	-0.168608	-4.579432	-0.013400	-0.152873	-0.721631	0.055680	0.009975	0.005407
717	3.597853	0.005000	8.436600	-0.277660	-4.597040	-0.013173	-0.152076	-0.721377	0.066816	0.010031	0.005544
718	3.602853	0.005000	8.475432	-0.313920	-4.630184	-0.012945	-0.151280	-0.721122	0.067974	0.007344	0.015097
719	3.607853	0.005000	8.358120	-0.313920	-4.627612	-0.012718	-0.150483	-0.720868	0.052119	0.008066	0.009847
720	3.612853	0.005000	8.397360	-0.279838	-4.488833	-0.012490	-0.149686	-0.720614	0.057640	0.007230	0.001197
721	3.617853	0.005000	8.366062	-0.313920	-4.520542	-0.012263	-0.148890	-0.720360	0.059269	0.009418	0.004747
722	3.622853	0.005000	8.375789	-0.274680	-4.558723	-0.012035	-0.148093	-0.720106	0.042562	0.003418	0.008447
723	3.627853	0.005000	8.462210	-0.237089	-4.642301	-0.011741	-0.147960	-0.720222	0.037503	0.011351	0.000934
724	3.632853	0.005000	8.475840	-0.196200	-4.601261	-0.011399	-0.148302	-0.720604	0.067579	0.003665	0.000062
725	3.637853	0.005000	8.416677	-0.255363	-4.649637	-0.011058	-0.148643	-0.720985	0.073641	0.002233	0.012608
726	3.642853	0.005000	8.346124	-0.291759	-4.669560	-0.010717	-0.148985	-0.721366	0.067772	0.005150	0.006441
727	3.647853	0.005000	8.421896	-0.309049	-4.640153	-0.010375	-0.149326	-0.721748	0.069144	0.001448	0.006272
728	3.652853	0.005000	8.409220	-0.262820	-4.618460	-0.010034	-0.149668	-0.722129	0.046386	0.003913	-0.004209
729	3.657853	0.005000	8.349104	-0.274680	-4.621304	-0.009692	-0.150009	-0.722511	0.054527	0.009889	-0.004286
730	3.662853	0.005000	8.364292	-0.313920	-4.663388	-0.009351	-0.150351	-0.722892	0.055619	-0.002677	0.001163
731	3.667853	0.005000	8.305568	-0.225456	-4.512600	-0.009009	-0.150693	-0.723273	0.060547	0.002480	-0.002831
732	3.672853	0.005000	8.318396	-0.194748	-4.630804	-0.008668	-0.151034	-0.723655	0.059894	-0.002628	0.003285
733	3.677853	0.005000	8.316520	-0.115360	-4.669560	-0.008326	-0.151376	-0.724036	0.060019	-0.002805	-0.003426
734	3.682853	0.005000	8.352976	-0.151816	-4.591080	-0.007985	-0.151717	-0.724417	0.049187	0.002974	-0.001303
735	3.687853	0.005000	8.334037	-0.227861	-4.496096	-0.007643	-0.152059	-0.724799	0.051542	-0.002205	0.004303
736	3.692853	0.005000	8.397360	-0.156960	-4.630320	-0.008700	-0.153799	-0.723679	0.034206	0.002219	-0.003705
737	3.697853	0.005000	8.371946	-0.196200	-4.604347	-0.011318	-0.157100	-0.720882	0.053236	0.002947	0.003014
738	3.702853	0.005000	8.302770	-0.226349	-4.512600	-0.013937	-0.160402	-0.718085	0.047962	0.007374	-0.001401
739	3.707853	0.005000	8.279640	-0.294966	-4.612697	-0.016555	-0.163703	-0.715288	0.045294	0.003934	-0.000845
740	3.712853	0.005000	8.332577	-0.253086	-4.748040	-0.019174	-0.167005	-0.712491	0.050365	0.004248	0.000583
741	3.717853	0.005000	8.436600	-0.259628	-4.708800	-0.021792	-0.170306	-0.709695	0.048489	0.009985	0.009575
742	3.722853	0.005000	8.409568	-0.259855	-4.681768	-0.024410	-0.173607	-0.706898	0.054001	0.005391	0.005223
743	3.727853	0.005000	8.457113	-0.244804	-4.688287	-0.027029	-0.176909	-0.704101	0.050818	0.008108	0.006469
744	3.732853	0.005000	8.351600	-0.241960	-4.643481	-0.029647	-0.180210	-0.701304	0.049660	0.008283	0.010234
745	3.737853	0.005000	8.247752	-0.235440	-4.480712	-0.032266	-0.183512	-0.698507	0.038456	0.013453	0.007795
746	3.742853	0.005000	8.318048	-0.236272	-4.590248	-0.034884	-0.186813	-0.695710	0.058451	-0.000409	0.011288
747	3.747853	0.005000	8.391324	-0.237452	-4.737980	-0.037503	-0.190115	-0.692914	0.048974	0.006361	0.008004
748	3.752853	0.005000	8.392504	-0.240296	-4.669560	-0.040121	-0.193416	-0.690117	0.054576	0.001643	0.003931
749	3.757853	0.005000	8.483071	-0.210662	-4.755271	-0.041544	-0.194821	-0.688747	0.025729	0.005831	0.004096
750	3.762853	0.005000	8.446675	-0.146885	-4.708800	-0.040861	-0.192887	-0.689891	0.041483	0.001456	-0.004026
751	3.767853	0.005000	8.475840	-0.274680	-4.629836	-0.040178	-0.190953	-0.691034	0.050152	0.000387	-0.000070
752	3.772853	0.005000	8.358120	-0.227725	-4.567603	-0.039496	-0.189018	-0.692178	0.035215	0.004134	0.012299
753	3.777853	0.005000	8.316853	-0.256074	-4.750067	-0.038813	-0.187084	-0.693322	0.047179	0.005947	0.005989
754	3.782853	0.005000	8.275979	-0.274680	-4.608870	-0.038130	-0.185149	-0.694465	0.048819	0.003788	0.003960
755	3.787853	0.005000	8.264694	-0.244789	-4.551840	-0.037447	-0.183215	-0.695609	0.032550	0.000536	0.003047
756	3.792853	0.005000	8.276705	-0.262578	-4.708800	-0.036765	-0.181280	-0.696752	0.044973	0.005799	0.006414
757	3.797853	0.005000	8.387648	-0.294497	-4.600792	-0.036082	-0.179346	-0.697896	0.052024	0.008236	0.005693
758	3.802853	0.005000	8.390492	-0.203068	-4.708800	-0.035399	-0.177412	-0.699040	0.056474	-0.000574	0.010025
759	3.807853	0.005000	8.310832	-0.231416	-4.673584	-0.034716	-0.175477	-0.700183	0.027192	0.007910	0.006986
760	3.812853	0.005000	8.282000	-0.237800	-4.666020	-0.034034	-0.173543	-0.701327	0.037747	0.005221	0.008760
761	3.817853	0.005000	8.433272	-0.201192	-4.551840	-0.033351	-0.171608	-0.702470	0.052010	-0.002134	0.014625
762	3.822853	0.005000	8.427584	-0.309412	-4.743532	-0.032445	-0.169925	-0.703645	0.042892	0.007644	-0.002670
763	3.827853	0.005000	8.404243	-0.281563	-4.695034	-0.030852	-0.169015	-0.704916	0.050576	0.001472	0.008565
764	3.832853	0.005000	8.358120	-0.274680	-4.669560	-0.029258	-0.168105	-0.706186	0.042813	0.007875	0.002284
765	3.837853	0.005000	8.397360	-0.248011	-4.656989	-0.027665	-0.167194	-0.707457	0.048760	0.001902	0.012543
766	3.842853	0.005000	8.421185	-0.235440	-4.677971	-0.026072	-0.166284	-0.708728	0.038790	-0.007013	0.009147
767	3.847853	0.005000	8.397360	-0.277403	-4.609339	-0.024479	-0.165374	-0.709999	0.041073	0.002538	0.010562
768	3.852853	0.005000	8.315915	-0.316885	-4.512600	-0.022886	-0.164464	-0.711269	0.049623	-0.002786	0.007910
769	3.857853	0.005000	8.287935	-0.298447	-4.599375	-0.021293	-0.163553	-0.712540	0.030395	-0.002928	0.009079
770	3.862853	0.005000	8.318880	-0.248344	-4.682464	-0.019700	-0.162643	-0.713811	0.050865	-0.003022	0.003275
771	3.867853	0.005000	8.358120	-0.196200	-4.601143	-0.018107	-0.161733	-0.715081	0.044779	0.003119	0.004951
772	3.872853	0.005000	8.318880	-0.242671	-4.605542	-0.016514	-0.160822	-0.716352	0.053316	0.005080	0.007897
773	3.877853	0.005000	8.279640	-0.270293	-4.634707	-0.014920	-0.159912	-0.717623	0.053213	0.003544	0.013383
774	3.882853	0.005000	8.402043	-0.274680	-4.551840	-0.013327	-0.159002	-0.718893	0.036909	0.003187	0.013702
775	3.887853	0.005000	8.553473	-0.197894	-4.551840	-0.011940	-0.158165	-0.719901	0.032745	-0.006066	0.011142
776	3.892853	0.005000	8.479531	-0.239131	-4.626629	-0.011940	-0.157823	-0.719139	0.032376	0.001480	0.008082
777	3.897853	0.005000	8.390825	-0.202735	-4.545305	-0.011940	-0.157482	-0.718377	0.043972	0.002882	0.001475
778	3.902853	0.005000	8.466461	-0.295162	-4.639699	-0.011940	-0.157141	-0.717614	0.047113	0.003057	0.006127
779	3.907853	0.005000	8.370016	-0.247336	-4.630320	-0.011940	-0.156799	-0.716852	0.032255	0.012565	0.006938
780	3.912853	0.005000	8.387669	-0.299146	-4.605854	-0.011940	-0.156458	-0.716089	0.041167	-0.001661	0.005313
781	3.917853	0.005000	8.375562	-0.196200	-4.495158	-0.011940	-0.156116	-0.715327	0.020362	0.005769	0.008145
782	3.922853	0.005000	8.317549	-0.196200	-4.649274	-0.011940	-0.155775	-0.714565	0.060571	-0.001702	-0.001184
783	3.927853	0.005000	8.390341	-0.235440	-4.724910	-0.011940	-0.155434	-0.713802	0.040695	0.009702	0.004065
784	3.932853	0.005000	8.279640	-0.222173	-4.722067	-0.011940	-0.155092	-0.713040	0.053687	-0.004908	0.004345
785	3.937853	0.005000	8.340384	-0.235440	-4.658808	-0.011940	-0.154751	-0.712277	0.049252	-0.004091	0.011171
786	3.942853	0.005000	8.436600	-0.235440	-4.708800	-0.011940	-0.154409	-0.711515	0.051922	0.002196	-0.002331
787	3.947853	0.005000	8.347743	-0.308731	-4.732474	-0.011940	-0.154068	-0.710753	0.043429	-0.004704	0.004890
788	3.952853	0.005000	8.434255	-0.161649	-4.664871	-0.011941	-0.153738	-0.710015	0.039479	0.005906	0.009185
789	3.957853	0.005000	8.242397	-0.235440	-4.629821	-0.012055	-0.154307	-0.711158	0.062075	0.007061	0.004216
790	3.962853	0.005000	8.429914	-0.163646	-4.637006	-0.012169	-0.154876	-0.712302	0.049985	0.005213	0.009617
791	3.967853	0.005000	8.263549	-0.235440	-4.557627	-0.012283	-0.155445	-0.713445	0.040475	0.010464	0.000256
792	3.972853	0.005000	8.288202	-0.226878	-4.591080	-0.012397	-0.156014	-0.714589	0.052541	0.003727	0.002329
793	3.977853	0.005000	8.346714	-0.274680	-4.591080	-0.012511	-0.156583	-0.715733	0.035703	0.014867	-0.006515
794	3.982853	0.005000	8.450850	-0.235440	-4.576830	-0.012624	-0.157152	-0.716876	0.042155	-0.001830	-0.006386
795	3.987853	0.005000	8.414454	-0.257586	-4.674612	-0.012738	-0.157721	-0.718020	0.043514	0.004787	0.008021
796	3.992853	0.005000	8.397360	-0.215502	-4.650893	-0.012852	-0.158290	-0.719163	0.039745	-0.003878	0.003704
797	3.997853	0.005000	8.341662	-0.268357	-4.646778	-0.012966	-0.158859	-0.720307	0.044939	0.001082	0.013523
798	4.002853	0.005000	8.318880	-0.274680	-4.695186	-0.013080	-0.159428	-0.721451	0.044165	0.003517	0.010597
799	4.007853	0.005000	8.375819	-0.246211	-4.630320	-0.013194	-0.159997	-0.722594	0.051485	-0.000530	0.004715
800	4.012853	0.005000	8.287659	-0.258641	-4.653521	-0.013307	-0.160566	-0.723738	0.057209	0.004131	0.005689
801	4.017853	0.005000	8.324417	-0.173570	-4.708800	-0.013421	-0.161135	-0.724881	0.059167	0.007098	0.011614
802	4.022853	0.005000	8.360813	-0.238133	-4.638398	-0.012923	-0.160990	-0.725000	0.044571	0.000765	0.003084
803	4.027853	0.005000	8.241005	-0.235591	-4.748040	-0.012354	-0.160762	-0.725000	0.044292	-0.000682	0.004816
804	4.032853	0.005000	8.312890	-0.235440	-4.705805	-0.011785	-0.160535	-0.725000	0.040140	-0.004592	0.012508
805	4.037853	0.005000	8.285479	-0.280519	-4.708800	-0.011216	-0.160307	-0.725000	0.045634	-0.004545	0.006991
806	4.042853	0.005000	8.231717	-0.235440	-4.569206	-0.010647	-0.160080	-0.725000	0.064505	0.002239	0.004284
807	4.047853	0.005000	8.385833	-0.279339	-4.618793	-0.010078	-0.159852	-0.725000	0.049578	-0.002241	0.012390
808	4.052853	0.005000	8.332945	-0.313920	-4.655495	-0.009509	-0.159625	-0.725000	0.067439	0.002135	0.001182
809	4.057853	0.005000	8.374866	-0.235440	-4.602577	-0.008940	-0.159397	-0.725000	0.061494	0.001898	0.018847
810	4.062853	0.005000	8.397360	-0.235440	-4.669560	-0.008371	-0.159169	-0.725000	0.045832	0.005988	0.008259
811	4.067853	0.005000	8.335686	-0.235440	-4.596707	-0.007802	-0.158942	-0.725000	0.048534	0.003999	0.006274
812	4.072853	0.005000	8.304918	-0.263365	-4.669560	-0.007233	-0.158714	-0.725000	0.045340	-0.004197	0.007488
813	4.077853	0.005000	8.301877	-0.274680	-4.641439	-0.006664	-0.158487	-0.725000	0.064120	-0.002120	0.000338
814	4.082853	0.005000	8.318880	-0.227065	-4.616204	-0.006095	-0.158259	-0.725000	0.048606	0.006639	0.009774
815	4.087853	0.005000	8.318880	-0.241340	-4.720599	-0.006236	-0.157854	-0.725099	0.032084	0.001648	0.006063
816	4.092853	0.005000	8.361176	-0.271624	-4.784224	-0.006578	-0.157399	-0.725226	0.059632	-0.008749	0.012799
817	4.097853	0.005000	8.358120	-0.235016	-4.786645	-0.006919	-0.156944	-0.725353	0.052624	0.001377	0.006249
818	4.102853	0.005000	8.358120	-0.230176	-4.632952	-0.007260	-0.156489	-0.725480	0.049786	0.001388	0.010046
819	4.107853	0.005000	8.352644	-0.207152	-4.635796	-0.007602	-0.156033	-0.725607	0.048255	0.004096	0.010561
820	4.112853	0.005000	8.279640	-0.266722	-4.771364	-0.007943	-0.155578	-0.725735	0.048681	0.003971	0.005007
821	4.117853	0.005000	8.268930	-0.274680	-4.740930	-0.008285	-0.155123	-0.725862	0.032418	0.000534	0.009799
822	4.122853	0.005000	8.371674	-0.313920	-4.695246	-0.008626	-0.154668	-0.725989	0.053713	0.003709	0.009905
823	4.127853	0.005000	8.263242	-0.274680	-4.685958	-0.008967	-0.154213	-0.726116	0.063624	0.012890	0.009825
824	4.132853	0.005000	8.378118	-0.196200	-4.788793	-0.009309	-0.153758	-0.726243	0.051014	0.009141	0.003828
825	4.137853	0.005000	8.358120	-0.161891	-4.792211	-0.009650	-0.153303	-0.726370	0.041546	0.005227	0.006168
826	4.142853	0.005000	8.333190	-0.196200	-4.748040	-0.009992	-0.152847	-0.726497	0.051762	0.005072	0.009302
827	4.147853	0.005000	8.346185	-0.196200	-4.642255	-0.010333	-0.152392	-0.726624	0.051901	0.013630	0.004409
828	4.152853	0.005000	8.327971	-0.205291	-4.639411	-0.010599	-0.152163	-0.726583	0.042684	0.011730	0.005069
829	4.157853	0.005000	8.312632	-0.196200	-4.597328	-0.010827	-0.152050	-0.726456	0.043978	0.016143	-0.000002
830	4.162853	0.005000	8.286447	-0.238844	-4.548436	-0.011054	-0.151936	-0.726329	0.058632	-0.001907	0.001074
831	4.167853	0.005000	8.397360	-0.196200	-4.514279	-0.011282	-0.151822	-0.726201	0.057925	0.008095	0.014050
832	4.172853	0.005000	8.323448	-0.196200	-4.593364	-0.011509	-0.151708	-0.726074	0.041623	0.003790	0.010275
833	4.177853	0.005000	8.470712	-0.185944	-4.546712	-0.011737	-0.151594	-0.725947	0.067508	-0.004895	0.013339
834	4.182853	0.005000	8.382036	-0.227468	-4.653616	-0.011964	-0.151481	-0.725820	0.058035	0.000128	0.009409
835	4.187853	0.005000	8.414968	-0.246256	-4.630320	-0.012192	-0.151367	-0.725693	0.072422	-0.000740	0.011220
836	4.192853	0.005000	8.436978	-0.130926	-4.630320	-0.012420	-0.151253	-0.725566	0.056743	0.003054	0.004136
837	4.197853	0.005000	8.413410	-0.196200	-4.669560	-0.012647	-0.151139	-0.725439	0.072993	-0.010292	0.004741
838	4.202853	0.005000	8.435148	-0.216546	-4.806174	-0.012875	-0.151025	-0.725312	0.072275	-0.005086	-0.001872
839	4.207853	0.005000	8.301378	-0.296418	-4.673796	-0.013102	-0.150911	-0.725185	0.071819	-0.006249	0.001956
840	4.212853	0.005000	8.387437	-0.220782	-4.644978	-0.013330	-0.150798	-0.725058	0.052868	-0.010059	0.004074
841	4.217853	0.005000	8.346306	-0.251051	-4.736226	-0.013433	-0.150995	-0.725070	0.067569	-0.012691	-0.004500
842	4.222853	0.005000	8.328319	-0.136599	-4.669560	-0.013433	-0.151450	-0.725197	0.068667	-0.008803	0.002203
843	4.227853	0.005000	8.364715	-0.242035	-4.682751	-0.013433	-0.151905	-0.725324	0.076171	0.004267	0.013134
844	4.232853	0.005000	8.401112	-0.196200	-4.634072	-0.013433	-0.152360	-0.725451	0.059025	-0.001686	0.007699
845	4.237853	0.005000	8.474025	-0.197108	-4.631228	-0.013433	-0.152816	-0.725578	0.059018	0.000444	0.005665
846	4.242853	0.005000	8.397360	-0.310047	-4.632256	-0.013433	-0.153271	-0.725705	0.060477	0.005728	0.003289
847	4.247853	0.005000	8.348560	-0.313920	-4.669560	-0.013433	-0.153726	-0.725832	0.076701	0.000116	0.010117
848	4.252853	0.005000	8.436600	-0.179832	-4.559464	-0.013433	-0.154181	-0.725959	0.056683	-0.000674	0.007155
849	4.257853	0.005000	8.436600	-0.059238	-4.629564	-0.013433	-0.154636	-0.726086	0.061354	0.000779	0.002138
850	4.262853	0.005000	8.436600	-0.196200	-4.643874	-0.013433	-0.155091	-0.726213	0.056900	0.002073	0.002183
851	4.267853	0.005000	8.350254	-0.156960	-4.653873	-0.013433	-0.155546	-0.726340	0.046893	0.000657	0.010107
852	4.272853	0.005000	8.376651	-0.175491	-4.574727	-0.013433	-0.156002	-0.726468	0.060217	-0.004667	0.007722
853	4.277853	0.005000	8.355029	-0.235440	-4.711891	-0.013433	-0.156457	-0.726595	0.060814	0.009860	0.006080
854	4.282853	0.005000	8.350935	-0.235440	-4.661270	-0.013335	-0.156520	-0.726558	0.084406	-0.003585	0.001141
855	4.287853	0.005000	8.267009	-0.287311	-4.748040	-0.013107	-0.156065	-0.726303	0.041992	0.003630	0.000301
856	4.292853	0.005000	8.161829	-0.196200	-4.659682	-0.012880	-0.155610	-0.726049	0.046004	0.004226	0.005018
857	4.297853	0.005000	8.293527	-0.196200	-4.694913	-0.012652	-0.155155	-0.725795	0.057122	-0.001177	0.005685
858	4.302853	0.005000	8.279640	-0.165159	-4.630320	-0.012425	-0.154699	-0.725541	0.062597	-0.000805	0.003260
859	4.307853	0.005000	8.356395	-0.353160	-4.707075	-0.012197	-0.154244	-0.725287	0.064992	0.003251	0.004069
860	4.312853	0.005000	8.395121	-0.238798	-4.745801	-0.011970	-0.153789	-0.725032	0.061331	0.012657	0.003482
861	4.317853	0.005000	8.322843	-0.204127	-4.599007	-0.011742	-0.153334	-0.724778	0.066694	-0.002466	0.003909
862	4.322853	0.005000	8.344506	-0.196200	-4.708800	-0.011514	-0.152879	-0.724524	0.048393	-0.000456	0.016514
863	4.327853	0.005000	8.279640	-0.196200	-4.708800	-0.011287	-0.152424	-0.724270	0.064257	0.005679	0.011494
864	4.332853	0.005000	8.306385	-0.208695	-4.708800	-0.011059	-0.151969	-0.724016	0.041729	-0.000556	0.023765
865	4.337853	0.005000	8.264301	-0.196200	-4.748040	-0.010832	-0.151513	-0.723762	0.042841	0.012255	-0.003554
866	4.342853	0.005000	8.240400	-0.239222	-4.648049	-0.010604	-0.151058	-0.723507	0.050935	0.007146	0.007452
867	4.347853	0.005000	8.257161	-0.237346	-4.665748	-0.010519	-0.150746	-0.723333	0.058059	0.017338	0.002017
868	4.352853	0.005000	8.373943	-0.235440	-4.661331	-0.010747	-0.150746	-0.723333	0.058997	0.008561	0.000222
869	4.357853	0.005000	8.358120	-0.209482	-4.577798	-0.010975	-0.150746	-0.723333	0.056613	0.012163	0.005516
870	4.362853	0.005000	8.436600	-0.167095	-4.659425	-0.011202	-0.150746	-0.723333	0.039553	0.009315	0.008703
871	4.367853	0.005000	8.453966	-0.235440	-4.733457	-0.011430	-0.150746	-0.723333	0.047385	0.010439	0.015626
872	4.372853	0.005000	8.318880	-0.274680	-4.669560	-0.011657	-0.150746	-0.723333	0.042658	0.013541	0.005498
873	4.377853	0.005000	8.397360	-0.274680	-4.591080	-0.011885	-0.150746	-0.723333	0.041732	0.012828	0.002447
874	4.382853	0.005000	8.397360	-0.236221	-4.552621	-0.012113	-0.150746	-0.723333	0.043278	0.010324	0.001188
875	4.387853	0.005000	8.251246	-0.239055	-4.697954	-0.012340	-0.150746	-0.723333	0.050542	0.016439	0.003505
876	4.392853	0.005000	8.325339	-0.163419	-4.656641	-0.012568	-0.150746	-0.723333	0.052730	0.007357	0.007711
877	4.397853	0.005000	8.270337	-0.235440	-4.708800	-0.012795	-0.150746	-0.723333	0.041564	0.006323	0.013169
878	4.402853	0.005000	8.318880	-0.274680	-4.654614	-0.013023	-0.150746	-0.723333	0.051613	0.009369	0.005886
879	4.407853	0.005000	8.382369	-0.265422	-4.645311	-0.013250	-0.150746	-0.723333	0.048596	0.015176	0.005772
880	4.412853	0.005000	8.371608	-0.339672	-4.708800	-0.013366	-0.150746	-0.723333	0.035586	0.011504	0.007684
881	4.417853	0.005000	8.318880	-0.315100	-4.708800	-0.013024	-0.150746	-0.723333	0.034750	0.011739	0.018348
882	4.422853	0.005000	8.381174	-0.258494	-4.731854	-0.012683	-0.150746	-0.723333	0.048304	0.015134	0.005366
883	4.427853	0.005000	8.423258	-0.287236	-4.577738	-0.012341	-0.150746	-0.723333	0.054699	0.007384	0.000537
884	4.432853	0.005000	8.318880	-0.264182	-4.640818	-0.012000	-0.150746	-0.723333	0.044684	0.015297	0.012405
885	4.437853	0.005000	8.294949	-0.219163	-4.692523	-0.011659	-0.150746	-0.723333	0.045752	0.006909	0.012396
886	4.442853	0.005000	8.431790	-0.338729	-4.655129	-0.011317	-0.150746	-0.723333	0.054392	0.016264	0.011020
887	4.447853	0.005000	8.314947	-0.239373	-4.589113	-0.010976	-0.150746	-0.723333	0.032991	0.016523	0.008203
888	4.452853	0.005000	8.240400	-0.275557	-4.666928	-0.010634	-0.150746	-0.723333	0.053344	0.009563	0.009456
889	4.457853	0.005000	8.279640	-0.313920	-4.666293	-0.010293	-0.150746	-0.723333	0.045586	0.012521	0.002752
890	4.462853	0.005000	8.279640	-0.320031	-4.591080	-0.009952	-0.150746	-0.723333	0.057791	0.007828	0.019610
891	4.467853	0.005000	8.318880	-0.235440	-4.633739	-0.009610	-0.150746	-0.723333	0.041109	0.018268	0.014435
892	4.472853	0.005000	8.318880	-0.247239	-4.551840	-0.009269	-0.150746	-0.723333	0.056184	0.005451	0.011582
893	4.477853	0.005000	8.343477	-0.200889	-4.615677	-0.008983	-0.150811	-0.723343	0.048869	0.008545	0.005696
894	4.482853	0.005000	8.274848	-0.218216	-4.647544	-0.009324	-0.151607	-0.723470	0.042036	0.012550	-0.002390
895	4.487853	0.005000	8.239916	-0.254818	-4.650182	-0.009665	-0.152404	-0.723597	0.049504	0.010758	0.011761
896	4.492853	0.005000	8.312708	-0.241612	-4.578736	-0.010007	-0.153200	-0.723725	0.047417	0.010642	0.014108
897	4.497853	0.005000	8.305190	-0.276510	-4.630320	-0.010348	-0.153997	-0.723852	0.050464	0.010774	0.009358
898	4.502853	0.005000	8.286341	-0.313920	-4.697954	-0.010690	-0.154793	-0.723979	0.050406	0.002805	0.010870
899	4.507853	0.005000	8.256405	-0.337155	-4.654327	-0.011031	-0.155590	-0.724106	0.048771	-0.001872	0.002736
900	4.512853	0.005000	8.363339	-0.235440	-4.737603	-0.011372	-0.156386	-0.724233	0.056380	0.011406	0.013980
901	4.517853	0.005000	8.439368	-0.277448	-4.630320	-0.011714	-0.157183	-0.724360	0.044813	0.012902	0.004748
902	4.522853	0.005000	8.358347	-0.274756	-4.669484	-0.012055	-0.157980	-0.724487	0.052122	0.002480	0.011930
903	4.527853	0.005000	8.324719	-0.308081	-4.739281	-0.012397	-0.158776	-0.724614	0.038964	0.011572	0.012005
904	4.532853	0.005000	8.318880	-0.241203	-4.669560	-0.012738	-0.159573	-0.724741	0.055360	0.007818	0.002073
905	4.537853	0.005000	8.327487	-0.204807	-4.700193	-0.013080	-0.160369	-0.724868	0.058260	0.007131	0.002579
906	4.542853	0.005000	8.263303	-0.223989	-4.658109	-0.013421	-0.161166	-0.724996	0.064627	0.018328	0.000872
907	4.547853	0.005000	8.330467	-0.249266	-4.706561	-0.013104	-0.160535	-0.724632	0.066002	0.014028	0.000201
908	4.552853	0.005000	8.296310	-0.196200	-4.731370	-0.012762	-0.159853	-0.724251	0.043928	0.012268	0.005281
909	4.557853	0.005000	8.259914	-0.195988	-4.728314	-0.012421	-0.159170	-0.723870	0.047337	0.007176	0.011240
910	4.562853	0.005000	8.352644	-0.252322	-4.787280	-0.012079	-0.158487	-0.723489	0.044622	0.000536	0.012020
911	4.567853	0.005000	8.344082	-0.249478	-4.719964	-0.011738	-0.157805	-0.723107	0.043212	0.002448	0.000594
912	4.572853	0.005000	8.224456	-0.161256	-4.630320	-0.011397	-0.157122	-0.722726	0.077508	0.004454	0.009003
913	4.577853	0.005000	8.288444	-0.165764	-4.669560	-0.011055	-0.156439	-0.722345	0.047996	0.015776	0.006655
914	4.582853	0.005000	8.291591	-0.262729	-4.696849	-0.010714	-0.155756	-0.721964	0.059650	0.013510	0.010177
915	4.587853	0.005000	8.370645	-0.238571	-4.627189	-0.010372	-0.155074	-0.721583	0.045865	0.018212	0.005061
916	4.592853	0.005000	8.396498	-0.196200	-4.551840	-0.010031	-0.154391	-0.721201	0.046289	0.012160	0.007773
917	4.597853	0.005000	8.390978	-0.159087	-4.551840	-0.009690	-0.153708	-0.720820	0.046582	0.002004	-0.006003
918	4.602853	0.005000	8.510133	-0.264787	-4.630320	-0.009348	-0.153025	-0.720439	0.060601	0.007877	-0.007277
919	4.607853	0.005000	8.468049	-0.188409	-4.630320	-0.009007	-0.152343	-0.720058	0.058598	0.014067	-0.001256
920	4.612853	0.005000	8.397360	-0.224806	-4.658926	-0.009438	-0.152046	-0.720216	0.065696	0.010948	0.002253
921	4.617853	0.005000	8.423122	-0.235440	-4.695322	-0.010007	-0.151818	-0.720470	0.056771	0.006196	0.009553
922	4.622853	0.005000	8.407087	-0.196200	-4.833115	-0.010576	-0.151591	-0.720724	0.056133	0.016797	0.001087
923	4.627853	0.005000	8.337803	-0.234047	-4.666774	-0.011145	-0.151363	-0.720978	0.055216	0.012990	-0.003206
924	4.632853	0.005000	8.244242	-0.196200	-4.512600	-0.011714	-0.151136	-0.721232	0.052173	0.015377	0.006434
925	4.637853	0.005000	8.348590	-0.186670	-4.557165	-0.012283	-0.150908	-0.721486	0.054715	0.014236	0.010596
926	4.642853	0.005000	8.382142	-0.208211	-4.642331	-0.012852	-0.150681	-0.721740	0.054712	0.005788	-0.003188
927	4.647853	0.005000	8.337214	-0.265513	-4.651226	-0.013420	-0.150453	-0.721994	0.060083	0.016878	0.002318
928	4.652853	0.005000	8.397360	-0.235440	-4.669560	-0.013989	-0.150225	-0.722248	0.058224	0.013537	0.002014
929	4.657853	0.005000	8.436600	-0.196200	-4.666081	-0.014558	-0.149998	-0.722503	0.054697	0.016705	0.004910
930	4.662853	0.005000	8.396725	-0.234805	-4.630320	-0.015127	-0.149770	-0.722757	0.072159	0.017906	0.001145
931	4.667853	0.005000	8.395585	-0.158735	-4.592855	-0.015696	-0.149543	-0.723011	0.080077	0.013310	0.010243
932	4.672853	0.005000	8.392761	-0.348561	-4.630320	-0.016265	-0.149315	-0.723265	0.047722	0.011594	0.005130
933	4.677853	0.005000	8.358120	-0.250325	-4.669560	-0.016418	-0.149587	-0.723333	0.058102	0.004769	0.005274
934	4.682853	0.005000	8.300213	-0.342873	-4.580793	-0.016418	-0.150042	-0.723333	0.066186	0.002076	0.008623
935	4.687853	0.005000	8.318880	-0.248570	-4.591231	-0.016418	-0.150497	-0.723333	0.052411	-0.002496	0.007101
936	4.692853	0.005000	8.397360	-0.313920	-4.567814	-0.016418	-0.150953	-0.723333	0.045635	-0.000337	-0.001880
937	4.697853	0.005000	8.416178	-0.293498	-4.510997	-0.016418	-0.151408	-0.723333	0.043272	0.011073	-0.010278
938	4.702853	0.005000	8.375698	-0.235440	-4.622151	-0.016418	-0.151863	-0.723333	0.042639	-0.002183	-0.004298
939	4.707853	0.005000	8.363082	-0.259946	-4.708800	-0.016418	-0.152318	-0.723333	0.047626	0.007625	0.001580
940	4.712853	0.005000	8.228510	-0.286570	-4.591080	-0.016418	-0.152773	-0.723333	0.052824	-0.000229	0.011597
941	4.717853	0.005000	8.348605	-0.244955	-4.531630	-0.016418	-0.153228	-0.723333	0.053441	0.003754	0.012015
942	4.722853	0.005000	8.286311	-0.254667	-4.565182	-0.016418	-0.153683	-0.723333	0.054687	0.009916	0.006769
943	4.727853	0.005000	8.393533	-0.239267	-4.673387	-0.016418	-0.154139	-0.723333	0.064408	0.011912	0.002923
944	4.732853	0.005000	8.396377	-0.236423	-4.708800	-0.016418	-0.154594	-0.723333	0.053863	0.015701	0.010401
945	4.737853	0.005000	8.320741	-0.237301	-4.708800	-0.016418	-0.155049	-0.723333	0.059780	0.001663	0.000608
946	4.742853	0.005000	8.358120	-0.279385	-4.639729	-0.016138	-0.155084	-0.723333	0.052542	0.010969	0.003351
947	4.747853	0.005000	8.326428	-0.227892	-4.677108	-0.015683	-0.154856	-0.723333	0.063639	0.004684	0.009899
948	4.752853	0.005000	8.386968	-0.196200	-4.572625	-0.015228	-0.154629	-0.723333	0.069117	0.008276	0.003517
949	4.757853	0.005000	8.332585	-0.196200	-4.577844	-0.014773	-0.154401	-0.723333	0.059678	0.008792	0.005571
950	4.762853	0.005000	8.342040	-0.281760	-4.644479	-0.014317	-0.154174	-0.723333	0.051112	0.004368	0.008353
951	4.767853	0.005000	8.318880	-0.330046	-4.648775	-0.013862	-0.153946	-0.723333	0.043723	0.008599	0.009738
952	4.772853	0.005000	8.257872	-0.274680	-4.634616	-0.013407	-0.153719	-0.723333	0.042311	0.005617	0.006287
953	4.777853	0.005000	8.333977	-0.259583	-4.473360	-0.012952	-0.153491	-0.723333	0.044135	0.000903	0.005122
954	4.782853	0.005000	8.399841	-0.247693	-4.681813	-0.012497	-0.153263	-0.723333	0.050813	0.006543	0.013815
955	4.787853	0.005000	8.279640	-0.265271	-4.660151	-0.012042	-0.153036	-0.723333	0.045653	0.008408	0.017554
956	4.792853	0.005000	8.358120	-0.281245	-4.662995	-0.011586	-0.152808	-0.723333	0.051833	0.009117	0.012852
957	4.797853	0.005000	8.322601	-0.231719	-4.637763	-0.011131	-0.152581	-0.723333	0.051177	0.000770	0.011907
958	4.802853	0.005000	8.439263	-0.196200	-4.746265	-0.010676	-0.152353	-0.723333	0.037038	0.005339	0.011787
959	4.807853	0.005000	8.478865	-0.233927	-4.631833	-0.010505	-0.152296	-0.723270	0.025330	0.004588	0.006951
960	4.812853	0.005000	8.432243	-0.200557	-4.669560	-0.010618	-0.152409	-0.723143	0.061054	0.000666	0.016012
961	4.817853	0.005000	8.379722	-0.196200	-4.733639	-0.010732	-0.152523	-0.723016	0.046612	0.003868	0.017231
962	4.822853	0.005000	8.328924	-0.206244	-4.631258	-0.010846	-0.152637	-0.722889	0.046416	0.004528	0.019059
963	4.827853	0.005000	8.318880	-0.196200	-4.603968	-0.010960	-0.152751	-0.722762	0.045434	0.007573	0.017183
964	4.832853	0.005000	8.342388	-0.156960	-4.614588	-0.011073	-0.152864	-0.722635	0.057610	0.000566	0.012369
965	4.837853	0.005000	8.339544	-0.216864	-4.630320	-0.011187	-0.152978	-0.722508	0.054243	0.001904	0.012730
966	4.842853	0.005000	8.318880	-0.274680	-4.666391	-0.011301	-0.153092	-0.722381	0.049129	-0.003122	0.006718
967	4.847853	0.005000	8.342675	-0.259235	-4.623225	-0.011415	-0.153206	-0.722254	0.042662	-0.005192	0.007921
968	4.852853	0.005000	8.201160	-0.248041	-4.565878	-0.011528	-0.153319	-0.722126	0.048800	0.005015	0.004887
969	4.857853	0.005000	8.260126	-0.196200	-4.600837	-0.011642	-0.153433	-0.721999	0.052252	0.003133	0.006279
970	4.862853	0.005000	8.318880	-0.228527	-4.618733	-0.011756	-0.153547	-0.721872	0.038942	0.000261	0.013073
971	4.867853	0.005000	8.240400	-0.200269	-4.696592	-0.011870	-0.153661	-0.721745	0.044182	0.001096	0.012292
972	4.872853	0.005000	8.165596	-0.274680	-4.672011	-0.011984	-0.153905	-0.721716	0.065421	-0.002375	0.023961
973	4.877853	0.005000	8.317702	-0.274680	-4.671917	-0.012097	-0.154360	-0.721843	0.056574	0.000063	0.013627
974	4.882853	0.005000	8.322889	-0.235440	-4.708800	-0.012211	-0.154815	-0.721970	0.067619	-0.004632	0.009943
975	4.887853	0.005000	8.422895	-0.163813	-4.741187	-0.012325	-0.155271	-0.722097	0.043371	-0.001876	0.008975
976	4.892853	0.005000	8.367817	-0.245137	-4.640017	-0.012439	-0.155726	-0.722224	0.054213	-0.006666	0.002431
977	4.897853	0.005000	8.278021	-0.262140	-4.655401	-0.012553	-0.156181	-0.722351	0.051506	-0.003482	-0.003627
978	4.902853	0.005000	8.405831	-0.204671	-4.614936	-0.012666	-0.156636	-0.722478	0.062057	0.007142	0.001256
979	4.907853	0.005000	8.421918	-0.256706	-4.587788	-0.012780	-0.157091	-0.722605	0.064905	0.001721	0.016671
980	4.912853	0.005000	8.300243	-0.254077	-4.648957	-0.012894	-0.157546	-0.722732	0.037448	0.002839	0.007796
981	4.917853	0.005000	8.373429	-0.274680	-4.677214	-0.013008	-0.158001	-0.722859	0.060115	-0.004835	0.016133
982	4.922853	0.005000	8.253349	-0.222098	-4.669560	-0.013122	-0.158457	-0.722986	0.048210	0.001787	0.008530
983	4.927853	0.005000	8.387255	-0.235440	-4.611290	-0.013236	-0.158912	-0.723113	0.058560	-0.007081	0.008283
984	4.932853	0.005000	8.414817	-0.281941	-4.655038	-0.013349	-0.159367	-0.723240	0.049661	-0.000209	0.010176
985	4.937853	0.005000	8.305629	-0.344326	-4.660726	-0.013342	-0.159762	-0.723232	0.052283	-0.002007	0.003670
986	4.942853	0.005000	8.207243	-0.272652	-4.706772	-0.013001	-0.159989	-0.722850	0.047656	-0.009595	0.011904
987	4.947853	0.005000	8.357318	-0.273878	-4.784875	-0.012659	-0.160217	-0.722469	0.036648	-0.003225	0.022134
988	4.952853	0.005000	8.286931	-0.235440	-4.669560	-0.012318	-0.160445	-0.722088	0.068978	-0.010742	0.007864
989	4.957853	0.005000	8.351630	-0.163450	-4.663070	-0.011977	-0.160672	-0.721707	0.058661	-0.009659	0.015802
990	4.962853	0.005000	8.348787	-0.166293	-4.658320	-0.011635	-0.160900	-0.721326	0.055127	-0.005423	0.017673
991	4.967853	0.005000	8.358120	-0.277388	-4.711508	-0.011294	-0.161127	-0.720944	0.048282	-0.006145	0.017601
992	4.972853	0.005000	8.397360	-0.298899	-4.684581	-0.010952	-0.161355	-0.720563	0.046101	-0.003444	0.017672
993	4.977853	0.005000	8.336745	-0.253305	-4.705290	-0.010611	-0.161583	-0.720182	0.053667	-0.019183	0.007119
994	4.982853	0.005000	8.337865	-0.274680	-4.765754	-0.010270	-0.161810	-0.719801	0.045788	-0.006648	0.016359
995	4.987853	0.005000	8.240400	-0.251581	-4.692659	-0.009928	-0.162038	-0.719420	0.040079	-0.009241	0.010595
996	4.992853	0.005000	8.266994	-0.222143	-4.708800	-0.009587	-0.162266	-0.719038	0.051191	-0.014945	0.010524
997	4.997853	0.005000	8.318880	-0.245893	-4.687894	-0.009245	-0.162493	-0.718657	0.046406	-0.004562	0.003801
998	5.002853	0.005000	8.358120	-0.235440	-4.637929	-0.009040	-0.162602	-0.718295	0.062507	-0.005597	0.012259
999	5.007853	0.005000	8.358120	-0.313920	-4.694505	-0.009609	-0.162033	-0.718041	0.057920	-0.002364	0.002660
1000	5.012853	0.005000	8.361962	-0.274680	-4.591080	-0.010178	-0.161464	-0.717787	0.068416	-0.001945	0.009706
1001	5.017853	0.005000	8.436600	-0.312997	-4.667714	-0.010747	-0.160895	-0.717533	0.058164	-0.001636	0.014393
1002	5.022853	0.005000	8.328893	-0.307245	-4.705462	-0.011316	-0.160326	-0.717279	0.050653	-0.002086	0.009878
1003	5.027853	0.005000	8.285782	-0.235440	-4.708800	-0.011885	-0.159757	-0.717024	0.056812	-0.008844	0.010333
1004	5.032853	0.005000	8.288626	-0.244426	-4.678546	-0.012454	-0.159188	-0.716770	0.044091	-0.004134	0.001399
1005	5.037853	0.005000	8.295221	-0.247269	-4.720629	-0.013023	-0.158619	-0.716516	0.050850	-0.003749	0.010387
1006	5.042853	0.005000	8.348227	-0.260007	-4.694127	-0.013592	-0.158050	-0.716262	0.042130	0.003439	0.020080
1007	5.047853	0.005000	8.419083	-0.327232	-4.717211	-0.014161	-0.157481	-0.716008	0.046075	0.002157	0.017015
1008	5.052853	0.005000	8.436600	-0.255801	-4.727679	-0.014730	-0.156912	-0.715754	0.049908	-0.005034	0.021380
1009	5.057853	0.005000	8.364915	-0.258458	-4.715595	-0.015299	-0.156343	-0.715500	0.055459	-0.006574	0.014531
1010	5.062853	0.005000	8.253745	-0.327265	-4.708800	-0.015868	-0.155774	-0.715246	0.050137	-0.006663	0.021191
1011	5.067853	0.005000	8.325718	-0.224639	-4.737239	-0.016448	-0.155299	-0.714950	0.027893	-0.004111	0.015737
1012	5.072853	0.005000	8.310923	-0.172329	-4.779323	-0.017358	-0.157575	-0.713425	0.047277	-0.004635	0.014851
1013	5.077853	0.005000	8.211386	-0.122833	-4.640546	-0.018269	-0.159851	-0.711900	0.063292	-0.008722	0.013775
1014	5.082853	0.005000	8.355851	-0.235440	-4.743502	-0.019179	-0.162127	-0.710375	0.057029	-0.011781	0.011604
1015	5.087853	0.005000	8.318880	-0.196775	-4.669560	-0.020089	-0.164403	-0.708850	0.057003	-0.009646	0.006414
1016	5.092853	0.005000	8.354701	-0.199619	-4.737784	-0.021000	-0.166678	-0.707326	0.041710	-0.002487	0.012335
1017	5.097853	0.005000	8.285903	-0.307657	-4.735515	-0.021910	-0.168954	-0.705801	0.045383	-0.012123	0.015367
1018	5.102853	0.005000	8.258613	-0.265573	-4.642240	-0.022820	-0.171230	-0.704276	0.033028	-0.002695	0.009591
1019	5.107853	0.005000	8.161920	-0.247060	-4.692801	-0.023731	-0.173506	-0.702751	0.044612	-0.003366	0.008182
1020	5.112853	0.005000	8.186835	-0.274680	-4.694475	-0.024641	-0.175782	-0.701226	0.065752	-0.004727	0.015368
1021	5.117853	0.005000	8.257569	-0.218271	-4.691631	-0.025551	-0.178058	-0.699702	0.055299	-0.003440	0.013282
1022	5.122853	0.005000	8.259627	-0.156960	-4.650333	-0.026461	-0.180333	-0.698177	0.050433	-0.004293	0.011024
1023	5.127853	0.005000	8.318880	-0.134103	-4.741566	-0.027372	-0.182609	-0.696652	0.046787	-0.005044	0.011237
1024	5.132853	0.005000	8.122680	-0.327459	-4.630320	-0.028282	-0.184885	-0.695127	0.049115	-0.015057	0.011880
1025	5.137853	0.005000	8.161920	-0.196200	-4.758735	-0.028045	-0.183511	-0.696048	0.043049	-0.010696	0.015190
1026	5.142853	0.005000	8.193309	-0.282531	-4.646022	-0.027704	-0.181804	-0.697192	0.067879	-0.006680	0.021017
1027	5.147853	0.005000	8.206636	-0.336732	-4.764468	-0.027362	-0.180097	-0.698335	0.055967	-0.011566	0.015818
1028	5.152853	0.005000	8.206424	-0.235440	-4.865760	-0.027021	-0.178390	-0.699479	0.040981	-0.013442	0.017978
1029	5.157853	0.005000	8.240612	-0.196412	-4.709647	-0.026680	-0.176683	-0.700623	0.050920	-0.010021	0.016988
1030	5.162853	0.005000	8.279640	-0.229329	-4.675671	-0.026339	-0.174976	-0.701766	0.043260	-0.007803	0.019825
1031	5.167853	0.005000	8.207060	-0.229540	-4.669560	-0.025997	-0.173269	-0.702910	0.050182	-0.003993	0.013801
1032	5.172853	0.005000	8.279640	-0.244184	-4.669560	-0.025656	-0.171563	-0.704053	0.039613	-0.003075	0.014359
1033	5.177853	0.005000	8.240400	-0.219375	-4.657973	-0.025315	-0.169856	-0.705197	0.045642	-0.002644	0.009817
1034	5.182853	0.005000	8.279640	-0.221009	-4.719177	-0.024973	-0.168149	-0.706341	0.045084	-0.003846	0.009860
1035	5.187853	0.005000	8.362809	-0.257405	-4.708800	-0.024632	-0.166442	-0.707484	0.059812	-0.003895	0.012026
1036	5.192853	0.005000	8.379238	-0.255559	-4.709798	-0.024291	-0.164735	-0.708628	0.054472	-0.001036	0.008612
1037	5.197853	0.005000	8.335157	-0.235440	-4.620729	-0.023949	-0.163028	-0.709771	0.050801	-0.003772	0.006452
1038	5.202853	0.005000	8.371553	-0.274680	-4.722233	-0.023517	-0.163142	-0.709898	0.053334	-0.010373	0.015998
1039	5.207853	0.005000	8.340966	-0.196200	-4.782349	-0.023062	-0.163711	-0.709771	0.033996	-0.008502	0.011778
1040	5.212853	0.005000	8.349921	-0.173358	-4.716999	-0.022606	-0.164280	-0.709644	0.036633	-0.004035	0.016756
1041	5.217853	0.005000	8.211870	-0.280035	-4.781925	-0.022151	-0.164849	-0.709517	0.049431	-0.010744	0.021215
1042	5.222853	0.005000	8.316369	-0.313920	-4.708800	-0.021696	-0.165418	-0.709390	0.041828	0.000849	0.018199
1043	5.227853	0.005000	8.357454	-0.313920	-4.747707	-0.021241	-0.165987	-0.709263	0.052273	-0.001309	0.014966
1044	5.232853	0.005000	8.318880	-0.313920	-4.787280	-0.020785	-0.166556	-0.709136	0.044034	-0.005001	0.029171
1045	5.237853	0.005000	8.318880	-0.246543	-4.759143	-0.020330	-0.167124	-0.709009	0.046774	-0.010996	0.023733
1046	5.242853	0.005000	8.363778	-0.257889	-4.834916	-0.019875	-0.167693	-0.708882	0.059368	-0.011542	0.016531
1047	5.247853	0.005000	8.369360	-0.184960	-4.787280	-0.019420	-0.168262	-0.708754	0.054718	-0.000359	0.005814
1048	5.252853	0.005000	8.358120	-0.288763	-4.762123	-0.018964	-0.168831	-0.708627	0.056292	-0.009778	0.007990
1049	5.257853	0.005000	8.391975	-0.274680	-4.664175	-0.018509	-0.169400	-0.708500	0.050988	-0.004742	0.010985
1050	5.262853	0.005000	8.319033	-0.195894	-4.630473	-0.018054	-0.169969	-0.708373	0.041954	0.001766	0.007638
1051	5.267853	0.005000	8.458761	-0.196200	-4.620155	-0.017443	-0.169138	-0.708941	0.081418	0.005051	0.013588
1052	5.272853	0.005000	8.408131	-0.249675	-4.798051	-0.016761	-0.167658	-0.709831	0.058544	-0.001583	0.004975
1053	5.277853	0.005000	8.369511	-0.286071	-4.764498	-0.016078	-0.166179	-0.710720	0.067161	-0.001833	0.010373
1054	5.282853	0.005000	8.332479	-0.266133	-4.730946	-0.015395	-0.164700	-0.711610	0.048474	0.005590	0.004413
1055	5.287853	0.005000	8.273937	-0.235440	-4.624617	-0.014712	-0.163221	-0.712499	0.047437	-0.001889	0.007960
1056	5.292853	0.005000	8.279640	-0.346504	-4.558496	-0.014030	-0.161741	-0.713389	0.047892	-0.010140	0.014722
1057	5.297853	0.005000	8.279640	-0.352676	-4.788248	-0.013347	-0.160262	-0.714278	0.043915	0.002987	0.008463
1058	5.302853	0.005000	8.242760	-0.350800	-4.828880	-0.012664	-0.158783	-0.715168	0.049272	-0.003922	0.012759
1059	5.307853	0.005000	8.303269	-0.206608	-4.753244	-0.011981	-0.157303	-0.716057	0.040874	-0.005330	0.004655
1060	5.312853	0.005000	8.169968	-0.258585	-4.739992	-0.011299	-0.155824	-0.716947	0.054493	-0.008926	0.011164
1061	5.317853	0.005000	8.190268	-0.274680	-4.804737	-0.010616	-0.154345	-0.717836	0.054547	0.005879	0.004920
1062	5.322853	0.005000	8.279640	-0.247209	-4.787280	-0.009933	-0.152866	-0.718726	0.055536	0.009973	0.002919
1063	5.327853	0.005000	8.318880	-0.251550	-4.895909	-0.009250	-0.151386	-0.719615	0.061690	0.002453	0.025955
1064	5.332853	0.005000	8.340497	-0.196200	-4.769657	-0.009020	-0.150681	-0.720072	0.049052	0.018814	0.010862
1065	5.337853	0.005000	8.327593	-0.196200	-4.708800	-0.009133	-0.150568	-0.720199	0.048231	0.000544	0.010253
1066	5.342853	0.005000	8.215758	-0.225396	-4.733442	-0.009247	-0.150454	-0.720326	0.041690	-0.001368	0.009014
1067	5.347853	0.005000	8.212914	-0.251172	-4.708800	-0.009361	-0.150340	-0.720453	0.050951	0.002635	0.012020
1068	5.352853	0.005000	8.249310	-0.205110	-4.739130	-0.009475	-0.150226	-0.720580	0.056167	0.006358	0.022255
1069	5.357853	0.005000	8.188120	-0.222400	-4.676080	-0.009589	-0.150113	-0.720708	0.051108	0.001657	0.012828
1070	5.362853	0.005000	8.240400	-0.239116	-4.862084	-0.009703	-0.149999	-0.720835	0.039090	0.003063	0.014793
1071	5.367853	0.005000	8.200328	-0.237104	-4.632816	-0.009816	-0.149885	-0.720962	0.034383	0.007480	0.007707
1072	5.372853	0.005000	8.348060	-0.239464	-4.673584	-0.009930	-0.149771	-0.721089	0.054794	0.004822	0.009037
1073	5.377853	0.005000	8.294208	-0.274680	-4.630320	-0.010044	-0.149658	-0.721216	0.057706	0.003149	0.002900
1074	5.382853	0.005000	8.381960	-0.243140	-4.764181	-0.010158	-0.149544	-0.721343	0.051961	0.007110	0.010042
1075	5.387853	0.005000	8.318880	-0.292833	-4.826520	-0.010272	-0.149430	-0.721470	0.053823	0.008711	0.021112
1076	5.392853	0.005000	8.371195	-0.353160	-4.669529	-0.010385	-0.149316	-0.721597	0.050975	0.010230	0.010680
1077	5.397853	0.005000	8.295403	-0.282728	-4.724563	-0.010397	-0.149459	-0.721438	0.029145	-0.003141	0.008363
1078	5.402853	0.005000	8.318880	-0.194173	-4.746013	-0.010283	-0.149914	-0.720930	0.042524	0.005651	0.015306
1079	5.407853	0.005000	8.315219	-0.174750	-4.705139	-0.010169	-0.150369	-0.720422	0.051537	0.000767	0.010466
1080	5.412853	0.005000	8.382414	-0.201797	-4.733094	-0.010055	-0.150824	-0.719914	0.047676	-0.000256	0.011827
1081	5.417853	0.005000	8.348953	-0.247542	-4.723836	-0.009942	-0.151279	-0.719406	0.052735	0.003356	0.009971
1082	5.422853	0.005000	8.318880	-0.214716	-4.798746	-0.009828	-0.151734	-0.718898	0.051819	0.000822	0.008089
1083	5.427853	0.005000	8.286054	-0.222612	-4.748040	-0.009714	-0.152189	-0.718390	0.042469	0.001922	0.016597
1084	5.432853	0.005000	8.326104	-0.192588	-4.801727	-0.009600	-0.152644	-0.717882	0.043204	-0.000646	0.006757
1085	5.437853	0.005000	8.355760	-0.197380	-4.865760	-0.009487	-0.153099	-0.717374	0.044086	0.001760	0.016165
1086	5.442853	0.005000	8.392368	-0.310592	-4.790608	-0.009373	-0.153554	-0.716865	0.051068	0.009673	0.011382
1087	5.447853	0.005000	8.323388	-0.318428	-4.900492	-0.009259	-0.154008	-0.716357	0.056207	0.004903	0.014355
