# FOX Logger (IMU file)
# (c) INRIA 2011-2014
# File created from file sensbiotk output
#
# File format:
# id	t	dt	ax	ay	az	mx	my	mz	gx	gy	gz
#
# Units:
#	Time: s
#	Acceleration: m.s^-2
#	Magneto: gauss
#	Gyrometer: rad/s
#
1	0.021759	0.021759	8.945312	0.745560	3.098552	-0.729851	-0.370149	-0.400000	-0.011004	-0.000336	0.009108
2	0.026759	0.005000	8.939096	0.749372	3.135388	-0.730845	-0.371585	-0.397780	-0.013238	0.008030	0.001118
3	0.031759	0.005000	8.946720	0.770187	3.060720	-0.731839	-0.373021	-0.395560	-0.006889	0.006040	-0.010292
4	0.036759	0.005000	8.845321	0.683401	3.122879	-0.732833	-0.374457	-0.393340	-0.009624	-0.004285	0.006806
5	0.041759	0.005000	8.907480	0.716895	3.139200	-0.733827	-0.375892	-0.391120	-0.016234	0.002721	-0.007941
6	0.046759	0.005000	8.946720	0.732577	3.126217	-0.734821	-0.377328	-0.388900	-0.011379	-0.001177	-0.005037
7	0.051759	0.005000	8.937916	0.697516	3.006262	-0.735815	-0.378764	-0.386680	-0.014626	0.000982	0.000317
8	0.056759	0.005000	8.846340	0.784800	3.121860	-0.736809	-0.380200	-0.384460	-0.014190	0.003716	-0.004265
9	0.061759	0.005000	8.789760	0.784800	2.962750	-0.737804	-0.381636	-0.382240	-0.004374	-0.005446	0.007509
10	0.066759	0.005000	8.885320	0.762640	3.099960	-0.738798	-0.383072	-0.380020	-0.014397	0.006269	-0.003634
11	0.071759	0.005000	8.829000	0.736242	3.099960	-0.739792	-0.384508	-0.377799	-0.006167	0.003245	-0.001225
12	0.076759	0.005000	8.895829	0.759354	3.126477	-0.740786	-0.385943	-0.375579	-0.015035	0.000070	0.009529
13	0.081759	0.005000	8.829000	0.698025	3.186735	-0.741780	-0.387379	-0.373359	-0.007972	0.002241	0.007502
14	0.086759	0.005000	8.923280	0.824040	3.076520	-0.742774	-0.388815	-0.371139	-0.009771	-0.001526	-0.000298
15	0.091759	0.005000	8.934951	0.851511	3.094076	-0.742693	-0.388961	-0.370841	-0.025701	0.001460	-0.015891
16	0.096759	0.005000	8.832551	0.749111	3.032132	-0.741478	-0.387746	-0.372567	-0.014917	-0.006857	0.004386
17	0.101759	0.005000	8.829000	0.783667	3.139200	-0.740263	-0.386531	-0.374294	-0.016809	0.005263	-0.002648
18	0.106759	0.005000	8.905858	0.745560	3.062342	-0.739048	-0.385316	-0.376021	-0.014096	-0.003265	0.007786
19	0.111759	0.005000	8.838645	0.745560	3.063935	-0.737833	-0.384101	-0.377747	-0.011625	-0.000278	0.006543
20	0.116759	0.005000	8.829000	0.784800	2.948552	-0.736618	-0.382886	-0.379474	-0.014980	-0.002715	-0.000487
21	0.121759	0.005000	8.758083	0.745560	2.950563	-0.735403	-0.381671	-0.381201	-0.009424	-0.004045	0.007572
22	0.126759	0.005000	8.789760	0.755538	2.923043	-0.734188	-0.380456	-0.382927	-0.004155	-0.000532	0.008306
23	0.131759	0.005000	8.792286	0.745560	2.955238	-0.732973	-0.379241	-0.384654	-0.003523	-0.004071	0.005029
24	0.136759	0.005000	8.779181	0.756139	3.046390	-0.731758	-0.378026	-0.386381	-0.011100	0.012856	-0.004388
25	0.141759	0.005000	8.823246	0.807297	3.004737	-0.730543	-0.376811	-0.388107	-0.009876	-0.003263	-0.013990
26	0.146759	0.005000	8.869632	0.844356	3.041796	-0.729328	-0.375596	-0.389834	-0.013289	0.005614	0.004485
27	0.151759	0.005000	8.850097	0.670035	3.060720	-0.728113	-0.374381	-0.391561	-0.009369	0.002515	0.002599
28	0.156759	0.005000	8.813267	0.706320	3.076453	-0.726898	-0.373166	-0.393287	-0.010325	-0.009630	0.009398
29	0.161759	0.005000	8.829000	0.757541	3.099960	-0.727296	-0.373134	-0.393814	-0.008746	-0.004905	-0.006776
30	0.166759	0.005000	8.829000	0.678455	3.032855	-0.727738	-0.373134	-0.394307	-0.015418	-0.006720	0.001807
31	0.171759	0.005000	8.807697	0.763497	3.069688	-0.728180	-0.373134	-0.394801	-0.015777	-0.003655	0.008307
32	0.176759	0.005000	8.802866	0.824040	3.021480	-0.728622	-0.373134	-0.395294	-0.006714	-0.007253	-0.002160
33	0.181759	0.005000	8.803420	0.789353	3.130093	-0.729064	-0.373134	-0.395788	-0.012837	-0.003508	0.006839
34	0.186759	0.005000	8.868240	0.826245	3.060720	-0.729506	-0.373134	-0.396282	-0.023164	-0.003888	-0.006977
35	0.191759	0.005000	8.790153	0.863280	3.060720	-0.729948	-0.373134	-0.396775	-0.014241	-0.020029	0.012093
36	0.196759	0.005000	8.907480	0.747703	3.102103	-0.730390	-0.373134	-0.397269	-0.015670	-0.008672	0.005126
37	0.201759	0.005000	8.902919	0.710881	3.060720	-0.730832	-0.373134	-0.397762	-0.012258	-0.019551	0.010258
38	0.206759	0.005000	8.824591	0.810108	2.970865	-0.731274	-0.373134	-0.398256	-0.010178	0.000006	0.013749
39	0.211759	0.005000	8.858967	0.676353	3.030753	-0.731716	-0.373134	-0.398750	-0.017899	-0.005495	-0.008487
40	0.216759	0.005000	8.907480	0.812715	3.010155	-0.732158	-0.373134	-0.399243	-0.013197	-0.005321	0.003508
41	0.221759	0.005000	8.921213	0.733786	3.127426	-0.732600	-0.373134	-0.399737	-0.019482	0.006997	-0.005636
42	0.226759	0.005000	8.898282	0.683226	3.053772	-0.732733	-0.372928	-0.400058	-0.015030	-0.005535	-0.002471
43	0.231759	0.005000	8.907480	0.706320	3.097388	-0.732512	-0.372486	-0.400181	-0.010906	-0.004435	0.005550
44	0.236759	0.005000	8.907480	0.782591	3.060720	-0.732291	-0.372044	-0.400304	-0.008873	-0.010450	-0.001315
45	0.241759	0.005000	8.907480	0.729230	3.116290	-0.732070	-0.371602	-0.400428	-0.009236	-0.006699	0.001402
46	0.246759	0.005000	8.854323	0.720237	2.968323	-0.731849	-0.371161	-0.400551	-0.017751	-0.009916	-0.005462
47	0.251759	0.005000	8.844295	0.694347	2.966945	-0.731628	-0.370719	-0.400674	-0.011534	-0.022320	0.000359
48	0.256759	0.005000	8.858675	0.735995	3.051155	-0.731408	-0.370277	-0.400798	-0.013176	-0.007509	0.000010
49	0.261759	0.005000	8.899947	0.682147	3.021480	-0.731187	-0.369835	-0.400921	-0.009008	-0.018436	0.002271
50	0.266759	0.005000	8.868240	0.735123	3.071157	-0.730966	-0.369394	-0.401044	-0.017501	-0.012867	-0.004793
51	0.271759	0.005000	8.904678	0.745560	2.945802	-0.730745	-0.368952	-0.401168	-0.013014	-0.013563	-0.000328
52	0.276759	0.005000	8.868240	0.824887	2.983087	-0.730524	-0.368510	-0.401291	-0.004574	-0.009178	0.003981
53	0.281759	0.005000	8.905934	0.787893	3.021480	-0.730303	-0.368068	-0.401415	-0.002986	-0.017290	-0.009292
54	0.286759	0.005000	8.758356	0.816204	2.907678	-0.730082	-0.367626	-0.401538	-0.007297	-0.026119	0.003796
55	0.291759	0.005000	8.907480	0.751467	2.943000	-0.729861	-0.367185	-0.401661	-0.007941	-0.004438	-0.006932
56	0.296759	0.005000	8.876553	0.776487	2.934687	-0.729535	-0.366743	-0.401314	-0.002112	-0.014842	-0.001901
57	0.301759	0.005000	8.946720	0.756164	3.010876	-0.729203	-0.366301	-0.400944	-0.006174	-0.006164	0.011918
58	0.306759	0.005000	8.907480	0.706320	2.863296	-0.728872	-0.365859	-0.400574	-0.006343	0.004130	0.000046
59	0.311759	0.005000	8.859161	0.712322	2.967159	-0.728540	-0.365417	-0.400204	-0.003457	0.001788	0.006557
60	0.316759	0.005000	8.723911	0.784800	2.952318	-0.728209	-0.364975	-0.399833	-0.006780	0.003311	0.001099
61	0.321759	0.005000	8.809564	0.804236	3.060720	-0.727877	-0.364533	-0.399463	-0.011257	-0.004973	-0.001618
62	0.326759	0.005000	8.911935	0.745560	3.038872	-0.727546	-0.364091	-0.399093	-0.011363	0.010480	-0.005540
63	0.331759	0.005000	8.813737	0.745560	3.062883	-0.727214	-0.363649	-0.398723	-0.012601	0.008750	-0.008443
64	0.336759	0.005000	8.842044	0.719471	3.086916	-0.726883	-0.363207	-0.398353	-0.012570	-0.002522	0.004875
65	0.341759	0.005000	8.868240	0.677716	2.992876	-0.726551	-0.362765	-0.397983	-0.010271	0.011109	-0.000358
66	0.346759	0.005000	8.881703	0.732097	3.052128	-0.726220	-0.362323	-0.397612	-0.012363	0.002111	0.004907
67	0.351759	0.005000	8.783483	0.811486	3.054443	-0.725888	-0.361881	-0.397242	-0.020137	-0.000014	0.007022
68	0.356759	0.005000	8.836744	0.777056	3.099960	-0.725557	-0.361439	-0.396872	-0.020006	0.000940	-0.006203
69	0.361759	0.005000	8.868240	0.706320	3.097051	-0.725472	-0.361441	-0.396777	-0.008831	0.006626	0.000970
70	0.366759	0.005000	8.829490	0.900071	3.021480	-0.725693	-0.361993	-0.397024	-0.005114	0.009850	-0.003539
71	0.371759	0.005000	8.865346	0.678654	3.066507	-0.725914	-0.362546	-0.397271	-0.014033	-0.003062	-0.001496
72	0.376759	0.005000	8.789760	0.735884	2.996754	-0.726135	-0.363098	-0.397517	-0.015375	0.005026	-0.000237
73	0.381759	0.005000	8.892972	0.777546	3.046212	-0.726356	-0.363651	-0.397764	-0.010190	-0.000259	0.000808
74	0.386759	0.005000	8.877785	0.715865	3.021480	-0.726577	-0.364203	-0.398011	-0.016959	-0.009249	0.002326
75	0.391759	0.005000	8.852210	0.722350	3.033085	-0.726798	-0.364756	-0.398258	-0.016723	0.000718	0.001290
76	0.396759	0.005000	8.829000	0.798819	3.024296	-0.727019	-0.365308	-0.398504	-0.002598	-0.000673	0.001153
77	0.401759	0.005000	8.930488	0.768568	3.090505	-0.727240	-0.365861	-0.398751	-0.013022	0.003886	-0.002003
78	0.406759	0.005000	8.891603	0.708816	3.079092	-0.727461	-0.366413	-0.398998	-0.007600	-0.016926	0.008478
79	0.411759	0.005000	8.870552	0.727096	3.097648	-0.727682	-0.366966	-0.399245	-0.020258	-0.007251	0.006046
80	0.416759	0.005000	8.868240	0.768478	3.099960	-0.727903	-0.367518	-0.399491	-0.013184	-0.010519	-0.002413
81	0.421759	0.005000	8.842947	0.770853	3.150545	-0.728124	-0.368071	-0.399738	-0.012523	-0.019407	0.003040
82	0.426759	0.005000	8.879937	0.839886	3.166743	-0.728345	-0.368623	-0.399985	-0.015624	-0.018322	-0.001153
83	0.431759	0.005000	8.868240	0.706320	3.208390	-0.728254	-0.368968	-0.400116	-0.014937	-0.021103	0.001472
84	0.436759	0.005000	8.836261	0.699059	3.107221	-0.728144	-0.369299	-0.400239	-0.023824	-0.005178	-0.005583
85	0.441759	0.005000	8.799620	0.740630	3.129340	-0.728033	-0.369631	-0.400363	-0.014868	-0.018228	0.000462
86	0.446759	0.005000	8.836576	0.703795	3.060720	-0.727923	-0.369962	-0.400486	-0.015682	-0.018676	-0.002773
87	0.451759	0.005000	8.907480	0.706320	3.099385	-0.727813	-0.370293	-0.400609	-0.019129	-0.014303	-0.003649
88	0.456759	0.005000	8.907480	0.743723	3.098123	-0.727702	-0.370625	-0.400733	-0.011688	-0.028549	-0.002143
89	0.461759	0.005000	8.824810	0.706320	3.029860	-0.727592	-0.370956	-0.400856	-0.004475	-0.025803	-0.007330
90	0.466759	0.005000	8.881159	0.699740	3.093380	-0.727481	-0.371287	-0.400979	-0.010373	-0.038392	-0.003343
91	0.471759	0.005000	8.968758	0.846078	3.012879	-0.727371	-0.371619	-0.401103	-0.016640	-0.018507	-0.005708
92	0.476759	0.005000	8.850753	0.677956	3.032356	-0.727261	-0.371950	-0.401226	-0.016138	-0.026695	-0.012843
93	0.481759	0.005000	8.829000	0.798135	3.086625	-0.727150	-0.372281	-0.401349	-0.005267	-0.030387	-0.003426
94	0.486759	0.005000	8.883596	0.737032	3.014652	-0.727040	-0.372613	-0.401473	-0.009890	-0.026361	-0.011417
95	0.491759	0.005000	8.889917	0.788915	3.074168	-0.726929	-0.372944	-0.401596	-0.000539	-0.039095	-0.002542
96	0.496759	0.005000	8.887542	0.902520	3.080658	-0.727054	-0.373369	-0.400616	-0.007505	-0.035531	-0.004081
97	0.501759	0.005000	8.873246	0.824040	3.055714	-0.727496	-0.373922	-0.398148	-0.014502	-0.031350	-0.007675
98	0.506759	0.005000	8.882947	0.784800	3.031305	-0.727938	-0.374474	-0.395680	-0.003139	-0.036192	-0.014882
99	0.511759	0.005000	8.841294	0.745560	2.903760	-0.728380	-0.375027	-0.393212	-0.002611	-0.030477	-0.020769
100	0.516759	0.005000	8.839226	0.863280	2.963452	-0.728822	-0.375579	-0.390744	-0.003599	-0.035978	-0.006417
101	0.521759	0.005000	8.883651	0.808154	2.966354	-0.729264	-0.376132	-0.388276	-0.012499	-0.022496	-0.010560
102	0.526759	0.005000	8.774239	0.757420	2.976310	-0.729706	-0.376685	-0.385808	-0.000721	-0.031277	-0.005106
103	0.531759	0.005000	8.903897	0.795548	2.932252	-0.730148	-0.377237	-0.383340	-0.008036	-0.022265	-0.005203
104	0.536759	0.005000	8.943185	0.745560	2.787218	-0.730590	-0.377790	-0.380872	-0.000266	-0.017203	-0.010116
105	0.541759	0.005000	8.905029	0.745560	2.901309	-0.731032	-0.378342	-0.378405	-0.003403	-0.023306	-0.006915
106	0.546759	0.005000	8.982777	0.715870	2.943000	-0.731474	-0.378895	-0.375937	-0.013080	-0.014844	-0.016858
107	0.551759	0.005000	8.946720	0.706320	2.903760	-0.731916	-0.379447	-0.373469	-0.002472	-0.030612	-0.011222
108	0.556759	0.005000	8.868240	0.753093	2.793573	-0.732358	-0.380000	-0.371001	-0.004669	-0.012738	-0.009690
109	0.561759	0.005000	8.711785	0.706320	2.952431	-0.732800	-0.380552	-0.368533	0.000416	-0.022430	-0.014374
110	0.566759	0.005000	8.816792	0.733352	3.009272	-0.733648	-0.380495	-0.368446	-0.013477	-0.019192	-0.000807
111	0.571759	0.005000	8.918132	0.784800	2.943000	-0.734532	-0.380385	-0.368570	-0.017338	-0.009955	-0.000816
112	0.576759	0.005000	8.930017	0.751393	2.852854	-0.735415	-0.380274	-0.368693	-0.015272	0.002520	0.003207
113	0.581759	0.005000	8.985960	0.805146	2.884866	-0.736299	-0.380164	-0.368816	-0.018038	-0.003217	-0.005390
114	0.586759	0.005000	8.988837	0.824040	2.879824	-0.737182	-0.380054	-0.368940	-0.013681	-0.020665	-0.002074
115	0.591759	0.005000	9.001362	0.714021	3.005711	-0.738066	-0.379943	-0.369063	-0.019718	0.000704	-0.005052
116	0.596759	0.005000	8.974040	0.759220	2.903760	-0.738949	-0.379833	-0.369187	-0.018196	-0.006475	-0.013816
117	0.601759	0.005000	8.951709	0.756977	2.898771	-0.739833	-0.379722	-0.369310	-0.022678	-0.009899	-0.006853
118	0.606759	0.005000	8.868240	0.793802	3.099960	-0.740717	-0.379612	-0.369433	-0.023998	-0.003634	-0.010350
119	0.611759	0.005000	8.743546	0.856306	3.028454	-0.741600	-0.379501	-0.369557	-0.023293	-0.007989	-0.007572
120	0.616759	0.005000	8.715932	0.828692	3.060720	-0.742484	-0.379391	-0.369680	-0.032272	-0.004004	-0.000946
121	0.621759	0.005000	8.863769	0.939525	3.023715	-0.743367	-0.379280	-0.369803	-0.026279	-0.003883	-0.010556
122	0.626759	0.005000	8.712430	0.862992	3.021768	-0.744251	-0.379170	-0.369927	-0.022064	-0.006052	0.001270
123	0.631759	0.005000	8.831112	0.935424	3.134976	-0.744328	-0.378925	-0.370601	-0.022247	-0.003423	-0.007046
124	0.636759	0.005000	8.754983	0.946223	3.182903	-0.743223	-0.378483	-0.372081	-0.023763	-0.010477	0.003513
125	0.641759	0.005000	8.789760	0.810644	3.060720	-0.742119	-0.378041	-0.373561	-0.027163	0.004395	-0.008513
126	0.646759	0.005000	8.889727	0.793676	3.069596	-0.741014	-0.377599	-0.375041	-0.013737	-0.004063	0.007475
127	0.651759	0.005000	8.868240	0.807098	3.004538	-0.739910	-0.377158	-0.376521	-0.017821	0.008012	0.013314
128	0.656759	0.005000	8.881468	0.810812	3.099516	-0.738805	-0.376716	-0.378001	-0.002099	-0.009910	0.000434
129	0.661759	0.005000	8.922940	0.854960	3.021480	-0.737701	-0.376274	-0.379481	0.005064	-0.018911	0.015708
130	0.666759	0.005000	8.903409	0.819969	2.974098	-0.736596	-0.375832	-0.380961	-0.006685	-0.005453	0.004642
131	0.671759	0.005000	8.828250	0.804795	2.922255	-0.735492	-0.375390	-0.382441	0.008529	-0.020898	0.006947
132	0.676759	0.005000	8.850939	0.740921	2.994902	-0.734388	-0.374949	-0.383921	0.004290	-0.005917	-0.006102
133	0.681759	0.005000	8.814109	0.809149	2.952458	-0.733283	-0.374507	-0.385401	0.005363	-0.003504	0.007582
134	0.686759	0.005000	8.802707	0.667080	2.877865	-0.732179	-0.374065	-0.386881	0.012756	-0.003126	0.012840
135	0.691759	0.005000	8.821360	0.716853	2.767867	-0.731074	-0.373623	-0.388361	-0.001484	-0.005278	0.012740
136	0.696759	0.005000	8.955206	0.714806	2.903760	-0.729970	-0.373181	-0.389841	0.000611	-0.007467	0.018035
137	0.701759	0.005000	8.934349	0.790985	2.864520	-0.730048	-0.373134	-0.390771	-0.001540	0.007254	0.009752
138	0.706759	0.005000	8.836560	0.855720	2.939220	-0.730269	-0.373134	-0.391634	0.000092	-0.002506	0.006460
139	0.711759	0.005000	8.827185	0.822225	2.943000	-0.730490	-0.373134	-0.392497	-0.002254	0.008142	0.012769
140	0.716759	0.005000	8.828418	0.707483	2.904342	-0.730711	-0.373134	-0.393361	-0.007038	0.009794	0.008247
141	0.721759	0.005000	8.901580	0.781850	2.948900	-0.730932	-0.373134	-0.394224	-0.005540	0.020312	0.011495
142	0.726759	0.005000	8.868240	0.784800	3.006690	-0.731153	-0.373134	-0.395088	-0.012490	0.022287	-0.000146
143	0.731759	0.005000	8.971268	0.855934	2.982240	-0.731374	-0.373134	-0.395951	-0.014169	0.013602	0.008690
144	0.736759	0.005000	8.907480	0.883248	2.952636	-0.731594	-0.373134	-0.396814	-0.013610	0.025668	0.009334
145	0.741759	0.005000	8.824851	0.831588	2.986389	-0.731815	-0.373134	-0.397678	-0.006420	0.013981	-0.000865
146	0.746759	0.005000	8.803870	0.720430	2.993259	-0.732036	-0.373134	-0.398541	-0.017206	0.015450	0.014890
147	0.751759	0.005000	8.891158	0.784800	3.005158	-0.732257	-0.373134	-0.399404	-0.013491	0.026782	0.009154
148	0.756759	0.005000	8.810536	0.766336	3.079184	-0.732478	-0.373134	-0.400268	-0.012887	0.020345	0.016128
149	0.761759	0.005000	8.891625	0.784800	3.102470	-0.732699	-0.373134	-0.401131	-0.019967	0.019908	0.013722
150	0.766759	0.005000	8.773528	0.761792	3.044488	-0.732710	-0.373134	-0.401667	-0.016956	0.019947	0.016998
151	0.771759	0.005000	8.882249	0.695098	3.035489	-0.732379	-0.373134	-0.401667	-0.017320	0.026986	0.008681
152	0.776759	0.005000	8.789760	0.757165	3.033085	-0.732048	-0.373134	-0.401667	-0.029738	0.013966	0.003498
153	0.781759	0.005000	8.838661	0.824040	3.069784	-0.731716	-0.373134	-0.401667	-0.024427	0.005206	0.014358
154	0.786759	0.005000	8.860986	0.745560	3.163932	-0.731385	-0.373134	-0.401667	-0.023696	0.031367	-0.005917
155	0.791759	0.005000	8.829000	0.706320	3.167942	-0.731053	-0.373134	-0.401667	-0.022325	0.018536	0.005393
156	0.796759	0.005000	8.831859	0.821181	3.021480	-0.730722	-0.373134	-0.401667	-0.025490	0.023729	0.007566
157	0.801759	0.005000	8.829979	0.783821	3.101429	-0.730391	-0.373134	-0.401667	-0.025209	0.012895	0.008600
158	0.806759	0.005000	8.944814	0.706320	3.180346	-0.730059	-0.373134	-0.401667	-0.029192	0.009355	0.013955
159	0.811759	0.005000	8.875984	0.667080	3.217680	-0.729728	-0.373134	-0.401667	-0.029391	0.004321	0.009959
160	0.816759	0.005000	8.973406	0.673357	3.277328	-0.729396	-0.373134	-0.401667	-0.025614	0.003559	0.011344
161	0.821759	0.005000	8.954942	0.793022	3.209458	-0.729065	-0.373134	-0.401667	-0.019319	0.004890	0.007100
162	0.826759	0.005000	8.839636	0.802767	3.167804	-0.728734	-0.373134	-0.401667	-0.016160	0.005310	0.010780
163	0.831759	0.005000	8.841888	0.811152	3.126886	-0.728402	-0.373134	-0.401667	-0.008466	-0.001746	0.014900
164	0.836759	0.005000	8.804749	0.769811	3.129937	-0.728262	-0.373038	-0.401667	-0.002597	-0.005766	-0.000391
165	0.841759	0.005000	8.872678	0.741122	3.178440	-0.728152	-0.372928	-0.401667	-0.009736	-0.011110	0.007827
166	0.846759	0.005000	8.927145	0.725895	3.119625	-0.728042	-0.372818	-0.401667	-0.011426	-0.006413	-0.001672
167	0.851759	0.005000	8.889987	0.684573	3.078213	-0.727931	-0.372707	-0.401667	-0.001308	-0.020355	0.009621
168	0.856759	0.005000	8.970879	0.706320	3.205677	-0.727821	-0.372597	-0.401667	-0.003006	-0.015197	0.003697
169	0.861759	0.005000	8.868240	0.732424	3.073856	-0.727710	-0.372486	-0.401667	0.000038	-0.023143	0.006059
170	0.866759	0.005000	8.779032	0.656352	3.039263	-0.727600	-0.372376	-0.401667	0.006600	-0.017657	0.008158
171	0.871759	0.005000	8.846366	0.732369	2.982240	-0.727489	-0.372265	-0.401667	-0.001377	-0.019082	0.003505
172	0.876759	0.005000	8.907480	0.732822	3.027849	-0.727379	-0.372155	-0.401667	-0.004565	-0.026281	0.006876
173	0.881759	0.005000	8.762411	0.678971	2.970349	-0.727269	-0.372045	-0.401667	-0.009284	-0.014975	0.003564
174	0.886759	0.005000	8.832994	0.629837	2.829274	-0.727158	-0.371934	-0.401667	-0.005362	-0.017895	0.005299
175	0.891759	0.005000	8.868638	0.783606	2.787234	-0.727048	-0.371824	-0.401667	-0.008904	-0.017393	0.008941
176	0.896759	0.005000	8.792528	0.709088	2.861752	-0.726937	-0.371713	-0.401667	-0.010849	-0.014007	-0.000553
177	0.901759	0.005000	8.686278	0.706320	2.874012	-0.726944	-0.371681	-0.401667	-0.013844	-0.021782	0.001254
178	0.906759	0.005000	8.789760	0.777638	2.903760	-0.727165	-0.371791	-0.401667	-0.012919	-0.004340	-0.016008
179	0.911759	0.005000	8.838569	0.784800	2.874089	-0.727386	-0.371902	-0.401667	-0.019740	-0.017952	0.008144
180	0.916759	0.005000	8.974447	0.835553	2.931487	-0.727607	-0.372012	-0.401667	-0.021825	-0.002309	0.008488
181	0.921759	0.005000	8.974554	0.835446	2.945511	-0.727828	-0.372123	-0.401667	-0.026621	-0.009171	-0.006524
182	0.926759	0.005000	8.962861	0.738601	3.021480	-0.728049	-0.372233	-0.401667	-0.020070	-0.006034	0.003755
183	0.931759	0.005000	8.928447	0.667080	3.078993	-0.728270	-0.372344	-0.401667	-0.026614	0.005926	-0.010907
184	0.936759	0.005000	8.888924	0.687764	2.982240	-0.728491	-0.372454	-0.401667	-0.031723	-0.007364	0.001899
185	0.941759	0.005000	8.884653	0.689907	2.992239	-0.728712	-0.372565	-0.401667	-0.022779	-0.003025	-0.005720
186	0.946759	0.005000	8.946720	0.667080	3.099960	-0.728933	-0.372675	-0.401667	-0.027977	-0.013074	-0.008796
187	0.951759	0.005000	8.907480	0.667080	3.150989	-0.729154	-0.372786	-0.401667	-0.022004	-0.008516	0.001532
188	0.956759	0.005000	9.005414	0.637567	3.109687	-0.729375	-0.372896	-0.401667	-0.023518	-0.000796	-0.009095
189	0.961759	0.005000	8.931844	0.738122	3.060720	-0.729596	-0.373007	-0.401667	-0.019221	-0.008815	0.011903
190	0.966759	0.005000	8.907480	0.677123	3.060720	-0.729817	-0.373117	-0.401667	-0.023406	0.001624	-0.002597
191	0.971759	0.005000	8.862159	0.742519	3.027561	-0.730038	-0.372854	-0.401563	-0.016898	-0.011879	-0.007060
192	0.976759	0.005000	8.947393	0.707667	3.101307	-0.730259	-0.372522	-0.401439	-0.016138	-0.006040	0.006800
193	0.981759	0.005000	8.985960	0.747285	3.215955	-0.730480	-0.372191	-0.401316	-0.012970	-0.010446	-0.001351
194	0.986759	0.005000	8.954097	0.702632	3.142888	-0.730701	-0.371860	-0.401193	-0.016607	-0.015878	0.010793
195	0.991759	0.005000	8.901459	0.700299	3.193597	-0.730921	-0.371528	-0.401069	-0.012813	-0.006737	0.002747
196	0.996759	0.005000	8.853104	0.675115	3.068755	-0.731142	-0.371197	-0.400946	-0.005595	-0.019016	0.010521
197	1.001759	0.005000	8.808117	0.852838	3.110402	-0.731363	-0.370866	-0.400822	-0.014949	-0.016100	-0.005899
198	1.006759	0.005000	8.855533	0.824040	3.256920	-0.731584	-0.370535	-0.400699	-0.008294	-0.019638	-0.018388
199	1.011759	0.005000	8.780118	0.824040	3.144358	-0.731805	-0.370203	-0.400576	-0.008552	-0.021211	-0.004244
200	1.016759	0.005000	8.829000	0.762769	3.161231	-0.732026	-0.369872	-0.400452	-0.011220	-0.019791	-0.015279
201	1.021759	0.005000	8.868694	0.686473	3.139200	-0.732247	-0.369541	-0.400329	-0.007511	-0.029259	0.000846
202	1.026759	0.005000	8.868240	0.684756	3.103847	-0.732468	-0.369209	-0.400206	-0.009883	-0.019220	-0.013051
203	1.031759	0.005000	8.844264	0.697609	3.038903	-0.732689	-0.368878	-0.400082	-0.013682	-0.027088	-0.006427
204	1.036759	0.005000	8.855640	0.758880	3.060720	-0.732762	-0.368767	-0.399877	-0.024074	-0.013978	-0.006720
205	1.041759	0.005000	8.935808	0.695408	2.975736	-0.732542	-0.369099	-0.399507	-0.015720	-0.027877	-0.008409
206	1.046759	0.005000	8.898615	0.684809	3.051855	-0.732321	-0.369430	-0.399137	-0.013579	-0.019798	-0.004692
207	1.051759	0.005000	8.822447	0.791353	3.086854	-0.732100	-0.369761	-0.398767	-0.023213	-0.014556	-0.015637
208	1.056759	0.005000	8.829000	0.819893	3.060720	-0.731879	-0.370092	-0.398397	-0.020653	-0.027225	-0.006421
209	1.061759	0.005000	8.905302	0.826218	3.093425	-0.731658	-0.370424	-0.398027	-0.015674	-0.012254	-0.014124
210	1.066759	0.005000	8.829199	0.824239	3.060322	-0.731437	-0.370755	-0.397657	-0.017557	-0.033759	-0.013890
211	1.071759	0.005000	8.794934	0.787387	3.013720	-0.731216	-0.371086	-0.397287	-0.005037	-0.024012	-0.006925
212	1.076759	0.005000	8.824439	0.636961	2.947561	-0.730995	-0.371418	-0.396917	-0.005213	-0.019273	-0.022541
213	1.081759	0.005000	8.796726	0.784800	2.975274	-0.730774	-0.371749	-0.396547	-0.005632	-0.026654	-0.000854
214	1.086759	0.005000	8.789760	0.863280	2.952273	-0.730554	-0.372080	-0.396177	-0.008887	-0.019849	0.001328
215	1.091759	0.005000	8.856915	0.779535	2.970915	-0.730333	-0.372412	-0.395807	-0.008368	-0.030372	0.007904
216	1.096759	0.005000	8.907480	0.877013	2.878253	-0.730112	-0.372743	-0.395437	-0.001499	-0.019141	0.010440
217	1.101759	0.005000	8.923158	0.878958	2.895875	-0.729891	-0.373074	-0.395067	0.000108	-0.019733	-0.003458
218	1.106759	0.005000	8.889390	0.842130	2.822219	-0.729941	-0.372591	-0.395404	-0.001487	-0.012828	0.010599
219	1.111759	0.005000	8.927735	0.863280	2.784769	-0.730052	-0.371928	-0.395898	-0.001252	-0.008109	-0.000870
220	1.116759	0.005000	8.946720	0.857631	2.864520	-0.730162	-0.371265	-0.396391	-0.003065	-0.017431	0.002231
221	1.121759	0.005000	8.985960	0.873748	2.882824	-0.730273	-0.370603	-0.396884	-0.007872	-0.008697	0.009600
222	1.126759	0.005000	8.946720	0.825953	2.864520	-0.730383	-0.369940	-0.397378	-0.005293	-0.002611	0.014571
223	1.131759	0.005000	8.897452	0.745560	2.786040	-0.730494	-0.369277	-0.397871	-0.002853	-0.000638	0.009672
224	1.136759	0.005000	8.915482	0.855278	2.895758	-0.730604	-0.368615	-0.398365	-0.005261	0.006802	-0.001642
225	1.141759	0.005000	8.924000	0.812680	2.830960	-0.730714	-0.367952	-0.398858	-0.000192	0.004896	0.002217
226	1.146759	0.005000	8.793035	0.778250	2.831830	-0.730825	-0.367289	-0.399351	-0.014509	0.020646	0.008679
227	1.151759	0.005000	8.751836	0.745560	2.903760	-0.730935	-0.366627	-0.399845	-0.002984	0.006367	0.012052
228	1.156759	0.005000	8.827913	0.745560	2.865607	-0.731046	-0.365964	-0.400338	-0.009115	0.016160	0.018812
229	1.161759	0.005000	8.835060	0.748590	2.828310	-0.731156	-0.365301	-0.400831	-0.023779	0.022893	0.001315
230	1.166759	0.005000	8.811500	0.857845	2.943000	-0.731266	-0.364639	-0.401325	-0.010964	0.018394	0.016351
231	1.171759	0.005000	8.938960	0.839561	2.943000	-0.731343	-0.364179	-0.401629	-0.022141	0.031561	0.013945
232	1.176759	0.005000	8.868240	0.765149	3.001891	-0.731343	-0.364179	-0.401506	-0.009689	0.025130	0.017682
233	1.181759	0.005000	8.801962	0.760396	3.051151	-0.731343	-0.364179	-0.401382	-0.004756	0.035809	0.022190
234	1.186759	0.005000	8.936711	0.799416	2.986847	-0.731343	-0.364179	-0.401259	-0.006726	0.032358	0.018397
235	1.191759	0.005000	8.862118	0.784800	3.021480	-0.731343	-0.364179	-0.401136	-0.010838	0.040465	0.014547
236	1.196759	0.005000	8.927751	0.725289	3.022781	-0.731343	-0.364179	-0.401012	-0.011571	0.034728	0.014012
237	1.201759	0.005000	8.964580	0.706320	3.057200	-0.731343	-0.364179	-0.400889	-0.016633	0.027015	0.025487
238	1.206759	0.005000	8.946720	0.706320	3.068677	-0.731343	-0.364179	-0.400766	-0.033276	0.037365	0.007274
239	1.211759	0.005000	8.815486	0.706320	3.177139	-0.731343	-0.364179	-0.400642	-0.020051	0.024213	0.013044
240	1.216759	0.005000	8.761620	0.689280	2.993340	-0.731343	-0.364179	-0.400519	-0.023138	0.028632	0.020500
241	1.221759	0.005000	8.768612	0.824040	3.184430	-0.731343	-0.364179	-0.400396	-0.017155	0.018508	0.009161
242	1.226759	0.005000	8.711280	0.752309	3.256920	-0.731343	-0.364179	-0.400272	-0.017626	0.013044	0.022349
243	1.231759	0.005000	8.720780	0.711070	3.252170	-0.731343	-0.364179	-0.400149	-0.020626	0.018953	0.003773
244	1.236759	0.005000	8.900315	0.745560	3.340177	-0.731343	-0.364179	-0.400026	-0.022844	0.022594	0.018730
245	1.241759	0.005000	8.868210	0.706335	3.296205	-0.730993	-0.364442	-0.400000	-0.018947	0.025209	0.002917
246	1.246759	0.005000	8.827040	0.631759	3.260839	-0.730551	-0.364773	-0.400000	-0.020436	0.024380	0.001205
247	1.251759	0.005000	8.872617	0.662703	3.365886	-0.730109	-0.365105	-0.400000	-0.015651	0.010560	0.000424
248	1.256759	0.005000	8.940019	0.706320	3.342101	-0.729667	-0.365436	-0.400000	-0.021246	0.011748	-0.012575
249	1.261759	0.005000	8.959780	0.675807	3.095627	-0.729225	-0.365767	-0.400000	-0.007163	-0.005604	0.006851
250	1.266759	0.005000	8.946720	0.784800	3.178440	-0.728784	-0.366099	-0.400000	-0.000799	-0.007231	-0.001257
251	1.271759	0.005000	8.985037	0.668003	3.191828	-0.728342	-0.366430	-0.400000	0.001229	-0.017715	-0.004740
252	1.276759	0.005000	8.891986	0.651586	3.202186	-0.727900	-0.366762	-0.400000	-0.003455	-0.012217	-0.006040
253	1.281759	0.005000	8.843453	0.766902	3.142645	-0.727458	-0.367093	-0.400000	0.005436	-0.016821	-0.008173
254	1.286759	0.005000	8.749632	0.667524	3.099960	-0.727016	-0.367424	-0.400000	0.009214	-0.027489	-0.000411
255	1.291759	0.005000	8.890492	0.735031	3.156188	-0.726575	-0.367756	-0.400000	0.000561	-0.015750	-0.009011
256	1.296759	0.005000	8.809939	0.735471	3.089871	-0.726133	-0.368087	-0.400000	-0.001614	-0.034822	-0.009650
257	1.301759	0.005000	8.736240	0.704520	3.126720	-0.725691	-0.368418	-0.400000	-0.003606	-0.021966	-0.006078
258	1.306759	0.005000	8.632800	0.774577	3.081166	-0.725435	-0.368595	-0.400000	-0.009319	-0.015307	-0.008481
259	1.311759	0.005000	8.719088	0.745560	3.060720	-0.725656	-0.368374	-0.400000	-0.000738	-0.018780	0.001440
260	1.316759	0.005000	8.768111	0.739696	3.099960	-0.725876	-0.368154	-0.400000	-0.014044	-0.018422	-0.010266
261	1.321759	0.005000	8.871699	0.638216	3.060720	-0.726097	-0.367933	-0.400000	-0.004417	-0.024360	-0.003129
262	1.326759	0.005000	8.982965	0.780307	3.062218	-0.726318	-0.367712	-0.400000	-0.017144	-0.013479	-0.008127
263	1.331759	0.005000	8.869143	0.743754	3.099960	-0.726539	-0.367491	-0.400000	-0.011993	-0.025037	-0.007163
264	1.336759	0.005000	8.871087	0.742713	3.069260	-0.726760	-0.367270	-0.400000	-0.020644	-0.020144	-0.014973
265	1.341759	0.005000	8.980709	0.695817	3.094709	-0.726980	-0.367050	-0.400000	-0.019239	-0.019014	-0.016939
266	1.346759	0.005000	8.946720	0.737981	3.036637	-0.727201	-0.366829	-0.400000	-0.015619	-0.023740	-0.007255
267	1.351759	0.005000	8.868240	0.715919	2.983082	-0.727422	-0.366608	-0.400000	-0.026456	-0.028055	-0.012445
268	1.356759	0.005000	8.829000	0.706320	3.060720	-0.727643	-0.366387	-0.400000	-0.010002	-0.035406	-0.003493
269	1.361759	0.005000	8.803717	0.653123	3.021480	-0.727864	-0.366166	-0.400000	-0.023616	-0.028552	-0.002921
270	1.366759	0.005000	8.822493	0.752067	3.122833	-0.728084	-0.365946	-0.400000	-0.014432	-0.030318	-0.009752
271	1.371759	0.005000	8.909598	0.706320	2.998683	-0.728305	-0.365725	-0.400000	-0.014287	-0.026081	-0.007112
272	1.376759	0.005000	8.847518	0.607118	3.005166	-0.729114	-0.366848	-0.398405	-0.001540	-0.022250	-0.005412
273	1.381759	0.005000	8.829000	0.722426	2.919866	-0.730108	-0.368395	-0.396308	-0.009171	-0.029229	-0.005280
274	1.386759	0.005000	8.882402	0.652918	3.125038	-0.731102	-0.369941	-0.394211	-0.009372	-0.028585	-0.017895
275	1.391759	0.005000	8.895726	0.741581	3.021480	-0.732096	-0.371487	-0.392115	-0.001490	-0.039078	-0.005852
276	1.396759	0.005000	8.897330	0.775103	3.080567	-0.733091	-0.373033	-0.390018	-0.010907	-0.032178	-0.005834
277	1.401759	0.005000	8.853450	0.713715	3.099960	-0.734085	-0.374580	-0.387921	-0.004225	-0.027692	-0.021584
278	1.406759	0.005000	8.829000	0.774822	2.977251	-0.735079	-0.376126	-0.385825	-0.003915	-0.028082	-0.006829
279	1.411759	0.005000	8.835091	0.784800	2.982240	-0.736073	-0.377672	-0.383728	-0.001373	-0.017296	-0.002933
280	1.416759	0.005000	8.908735	0.784172	2.980357	-0.737067	-0.379219	-0.381631	0.004542	-0.018172	-0.001768
281	1.421759	0.005000	8.872144	0.859376	2.940397	-0.738061	-0.380765	-0.379535	-0.002245	-0.026330	-0.007636
282	1.426759	0.005000	8.871959	0.713758	2.907479	-0.739055	-0.382311	-0.377438	0.000398	-0.032867	-0.003404
283	1.431759	0.005000	8.940669	0.733458	2.970138	-0.740049	-0.383857	-0.375341	-0.000710	-0.028100	-0.002251
284	1.436759	0.005000	8.845137	0.776732	2.911828	-0.741043	-0.385404	-0.373245	-0.005396	-0.020030	-0.017797
285	1.441759	0.005000	8.868240	0.805767	2.903760	-0.741818	-0.386458	-0.371301	0.000934	-0.028463	-0.004429
286	1.446759	0.005000	8.829000	0.875707	2.982240	-0.741929	-0.386016	-0.369821	-0.007990	-0.017652	-0.008081
287	1.451759	0.005000	8.819431	0.799636	2.933431	-0.742039	-0.385574	-0.368340	-0.005726	-0.013502	-0.004953
288	1.456759	0.005000	8.912623	0.745560	2.977097	-0.742150	-0.385132	-0.366860	-0.003851	-0.002830	0.002142
289	1.461759	0.005000	8.810666	0.707177	2.825280	-0.742260	-0.384690	-0.365380	-0.016995	-0.012875	-0.009950
290	1.466759	0.005000	8.950685	0.767163	2.825280	-0.742371	-0.384249	-0.363900	-0.013083	-0.016495	-0.001680
291	1.471759	0.005000	8.915709	0.824040	2.817051	-0.742481	-0.383807	-0.362420	-0.019004	0.000286	-0.009555
292	1.476759	0.005000	8.829000	0.732888	2.877804	-0.742592	-0.383365	-0.360940	-0.010057	-0.007300	-0.007686
293	1.481759	0.005000	8.907480	0.806540	2.914630	-0.742702	-0.382923	-0.359460	-0.021258	0.002362	0.000875
294	1.486759	0.005000	8.868240	0.836502	2.934074	-0.742813	-0.382482	-0.357980	-0.021684	0.005408	-0.003007
295	1.491759	0.005000	9.012156	0.797844	2.936478	-0.742923	-0.382040	-0.356500	-0.020269	-0.006733	0.006817
296	1.496759	0.005000	8.902957	0.858757	2.986763	-0.743034	-0.381598	-0.355020	-0.013718	0.012626	0.007330
297	1.501759	0.005000	8.789760	0.782627	2.949520	-0.743144	-0.381156	-0.353540	-0.010721	0.003553	0.011363
298	1.506759	0.005000	8.750762	0.745560	3.099718	-0.743255	-0.380714	-0.352060	-0.015271	0.000235	0.002020
299	1.511759	0.005000	8.831189	0.784800	3.062909	-0.742473	-0.379948	-0.354384	-0.007034	-0.012483	-0.008641
300	1.516759	0.005000	8.798836	0.706320	3.125586	-0.741368	-0.379065	-0.358084	-0.016296	-0.001534	0.005444
301	1.521759	0.005000	8.750520	0.922148	3.021480	-0.740264	-0.378181	-0.361785	-0.015837	0.000275	-0.006849
302	1.526759	0.005000	8.807666	0.863280	3.033861	-0.739159	-0.377297	-0.365485	-0.017835	-0.009734	0.003161
303	1.531759	0.005000	8.840224	0.796024	3.150424	-0.738055	-0.376414	-0.369185	-0.022950	0.008507	-0.005714
304	1.536759	0.005000	8.868240	0.732255	2.995545	-0.736950	-0.375530	-0.372885	-0.017844	-0.006005	0.003669
305	1.541759	0.005000	8.891763	0.792605	3.060720	-0.735846	-0.374647	-0.376585	-0.023513	0.008594	0.008127
306	1.546759	0.005000	8.825581	0.841951	2.960911	-0.734741	-0.373763	-0.380285	-0.020041	-0.002261	-0.000780
307	1.551759	0.005000	8.789760	0.745560	2.982240	-0.733636	-0.372879	-0.383985	-0.014253	-0.003959	0.003062
308	1.556759	0.005000	8.812242	0.745560	3.038238	-0.732532	-0.371996	-0.387685	-0.016562	0.003504	-0.005953
309	1.561759	0.005000	8.789760	0.720963	3.139200	-0.731427	-0.371112	-0.391385	-0.015258	-0.005619	0.001545
310	1.566759	0.005000	8.841412	0.731143	3.035897	-0.730323	-0.370229	-0.395085	-0.017429	0.001961	-0.004115
311	1.571759	0.005000	8.789760	0.794798	3.149198	-0.729218	-0.369345	-0.398785	-0.009826	-0.005248	-0.001593
312	1.576759	0.005000	8.845106	0.855227	3.123094	-0.728382	-0.368804	-0.401667	-0.019037	-0.001515	0.012650
313	1.581759	0.005000	8.896185	0.779153	3.155851	-0.728493	-0.369467	-0.401667	-0.021956	0.001582	0.001603
314	1.586759	0.005000	8.829000	0.788461	3.021480	-0.728604	-0.370130	-0.401667	-0.014620	-0.010690	0.003054
315	1.591759	0.005000	8.910052	0.860708	3.060720	-0.728714	-0.370793	-0.401667	-0.029858	0.001248	-0.002310
316	1.596759	0.005000	8.909689	0.861071	3.060720	-0.728825	-0.371456	-0.401667	-0.018011	-0.009323	-0.006681
317	1.601759	0.005000	8.901356	0.754746	3.208494	-0.728935	-0.372119	-0.401667	-0.017774	-0.007960	0.002876
318	1.606759	0.005000	8.985960	0.779321	3.212201	-0.729046	-0.372782	-0.401667	-0.024393	-0.017615	-0.004579
319	1.611759	0.005000	8.883821	0.792591	3.005612	-0.729156	-0.373445	-0.401667	-0.019516	-0.010322	0.003172
320	1.616759	0.005000	8.868163	0.706320	3.021480	-0.729267	-0.374108	-0.401667	-0.013973	-0.014430	-0.010453
321	1.621759	0.005000	8.934477	0.784800	3.087717	-0.729377	-0.374771	-0.401667	-0.010451	-0.023546	0.003653
322	1.626759	0.005000	8.843477	0.784800	3.007003	-0.729488	-0.375434	-0.401667	-0.017357	-0.012034	-0.003402
323	1.631759	0.005000	8.822952	0.824040	3.021480	-0.729598	-0.376097	-0.401667	-0.005910	-0.022923	0.005641
324	1.636759	0.005000	8.907480	0.902520	2.982240	-0.729709	-0.376760	-0.401667	-0.015079	-0.023984	0.008243
325	1.641759	0.005000	8.904394	0.884443	3.024566	-0.729819	-0.377423	-0.401667	-0.013370	-0.020012	-0.007020
326	1.646759	0.005000	8.868240	0.831508	3.005594	-0.729772	-0.377375	-0.401403	-0.015840	-0.026546	-0.003205
327	1.651759	0.005000	8.919774	0.745560	2.903760	-0.729662	-0.377044	-0.401032	-0.014151	-0.010369	0.000326
328	1.656759	0.005000	8.840391	0.784800	2.993631	-0.729551	-0.376712	-0.400662	-0.005273	-0.015046	0.007314
329	1.661759	0.005000	8.841193	0.824040	3.003448	-0.729440	-0.376381	-0.400292	-0.007761	-0.011702	0.001313
330	1.666759	0.005000	8.920892	0.758972	2.988946	-0.729330	-0.376049	-0.399922	-0.008288	-0.010094	0.003938
331	1.671759	0.005000	8.951020	0.797701	2.977940	-0.729219	-0.375718	-0.399552	-0.007450	-0.025136	0.013804
332	1.676759	0.005000	8.985960	0.939430	2.908419	-0.729109	-0.375386	-0.399182	-0.012555	-0.018233	0.004390
333	1.681759	0.005000	9.025139	0.824162	2.903882	-0.728998	-0.375055	-0.398811	-0.008944	-0.018453	0.010325
334	1.686759	0.005000	8.870675	0.897649	2.898889	-0.728888	-0.374723	-0.398441	-0.005534	-0.011854	0.004237
335	1.691759	0.005000	8.794169	0.863280	3.003843	-0.728777	-0.374391	-0.398071	0.005164	-0.009526	0.004503
336	1.696759	0.005000	8.829000	0.771149	2.995891	-0.728667	-0.374060	-0.397701	-0.009515	-0.003521	0.003779
337	1.701759	0.005000	8.798529	0.715089	2.991009	-0.728556	-0.373728	-0.397331	-0.010871	-0.002719	-0.001795
338	1.706759	0.005000	8.817824	0.745560	2.982240	-0.728446	-0.373397	-0.396961	-0.017698	-0.004393	0.008436
339	1.711759	0.005000	8.881820	0.798380	2.878100	-0.728427	-0.373134	-0.396641	-0.012969	0.006233	0.001224
340	1.716759	0.005000	8.946720	0.698129	2.888235	-0.728758	-0.373134	-0.396518	-0.014688	-0.001799	0.000777
341	1.721759	0.005000	8.861506	0.730990	2.918330	-0.729089	-0.373134	-0.396395	-0.019692	0.001077	0.007089
342	1.726759	0.005000	8.926616	0.764696	2.904728	-0.729421	-0.373134	-0.396271	-0.002344	-0.003947	0.007501
343	1.731759	0.005000	8.845948	0.762508	2.915365	-0.729752	-0.373134	-0.396148	0.002770	-0.000531	0.011828
344	1.736759	0.005000	8.892941	0.731021	2.932838	-0.730083	-0.373134	-0.396025	-0.009733	0.009325	0.010439
345	1.741759	0.005000	8.908934	0.667080	3.008885	-0.730415	-0.373134	-0.395901	-0.010285	-0.006597	0.004354
346	1.746759	0.005000	8.779579	0.765923	2.953181	-0.730746	-0.373134	-0.395778	-0.014564	0.013663	0.005274
347	1.751759	0.005000	8.789760	0.792938	2.967415	-0.731078	-0.373134	-0.395655	-0.018060	-0.000433	0.012295
348	1.756759	0.005000	8.801422	0.700489	3.088298	-0.731409	-0.373134	-0.395531	-0.019976	0.003077	0.007795
349	1.761759	0.005000	8.900652	0.702906	2.871348	-0.731740	-0.373134	-0.395408	-0.016638	0.010702	-0.004254
350	1.766759	0.005000	8.906028	0.822588	2.980788	-0.732072	-0.373134	-0.395284	-0.019853	0.005417	0.004003
351	1.771759	0.005000	8.906546	0.708188	3.019612	-0.732403	-0.373134	-0.395161	-0.021960	0.015851	0.011054
352	1.776759	0.005000	8.868240	0.709198	2.951635	-0.732735	-0.373134	-0.395038	-0.010941	0.014084	0.002465
353	1.781759	0.005000	8.829000	0.724432	3.050156	-0.732683	-0.373211	-0.394743	-0.006160	0.003251	0.003805
354	1.786759	0.005000	8.829000	0.713929	2.982240	-0.732462	-0.373321	-0.394373	-0.016196	0.007189	-0.007144
355	1.791759	0.005000	8.769803	0.627840	3.011838	-0.732241	-0.373432	-0.394003	-0.016291	0.002646	0.014964
356	1.796759	0.005000	8.801665	0.655175	3.057195	-0.732020	-0.373542	-0.393633	-0.023954	-0.004162	-0.005208
357	1.801759	0.005000	8.851506	0.655827	3.060720	-0.731799	-0.373653	-0.393263	-0.024029	-0.004760	0.005231
358	1.806759	0.005000	8.734114	0.683486	3.044314	-0.731578	-0.373763	-0.392893	-0.027818	0.010598	-0.000756
359	1.811759	0.005000	8.833115	0.743503	3.040071	-0.731357	-0.373874	-0.392523	-0.029157	-0.000527	-0.007861
360	1.816759	0.005000	8.789760	0.685559	3.060720	-0.731136	-0.373984	-0.392153	-0.034285	0.007513	-0.003285
361	1.821759	0.005000	8.907480	0.690251	3.155269	-0.730916	-0.374095	-0.391783	-0.034819	0.011883	0.001304
362	1.826759	0.005000	8.958035	0.627840	3.111275	-0.730695	-0.374205	-0.391413	-0.025284	-0.002766	-0.001815
363	1.831759	0.005000	8.868240	0.612025	3.135097	-0.730474	-0.374315	-0.391043	-0.028032	0.000662	-0.003476
364	1.836759	0.005000	8.748500	0.775495	3.129895	-0.730253	-0.374426	-0.390673	-0.028464	-0.000481	-0.008523
365	1.841759	0.005000	8.954081	0.762716	3.163717	-0.730032	-0.374536	-0.390303	-0.026220	0.008033	0.002326
366	1.846759	0.005000	9.010364	0.735670	3.144145	-0.729811	-0.374487	-0.390134	-0.028441	-0.000875	-0.017787
367	1.851759	0.005000	8.913440	0.673040	3.091020	-0.729590	-0.373714	-0.390874	-0.034645	-0.008617	0.003535
368	1.856759	0.005000	8.944332	0.745560	2.982837	-0.729369	-0.372941	-0.391614	-0.034549	-0.014980	-0.012831
369	1.861759	0.005000	8.865546	0.745560	3.135160	-0.729148	-0.372168	-0.392354	-0.044157	-0.019009	-0.003598
370	1.866759	0.005000	8.903729	0.635342	3.245667	-0.728928	-0.371395	-0.393094	-0.060706	-0.014175	0.002569
371	1.871759	0.005000	8.829000	0.667080	3.112153	-0.728707	-0.370622	-0.393834	-0.045524	-0.020042	-0.005571
372	1.876759	0.005000	8.860129	0.706320	3.091849	-0.728486	-0.369848	-0.394574	-0.055103	-0.021148	-0.007737
373	1.881759	0.005000	8.886695	0.745560	3.136870	-0.728265	-0.369075	-0.395314	-0.059736	-0.012273	-0.018401
374	1.886759	0.005000	8.934258	0.745560	3.139200	-0.728044	-0.368302	-0.396054	-0.069470	-0.023958	-0.000128
375	1.891759	0.005000	8.937231	0.790187	3.060720	-0.727823	-0.367529	-0.396794	-0.070933	-0.014507	-0.010010
376	1.896759	0.005000	8.907480	0.718316	3.038559	-0.727602	-0.366756	-0.397534	-0.065985	-0.033095	-0.008443
377	1.901759	0.005000	8.927490	0.705539	3.099960	-0.727381	-0.365982	-0.398274	-0.060996	-0.035034	-0.008702
378	1.906759	0.005000	8.932410	0.727710	3.164130	-0.727160	-0.365209	-0.399014	-0.084651	-0.031164	-0.015355
379	1.911759	0.005000	8.891824	0.792728	3.139200	-0.726939	-0.364436	-0.399754	-0.079793	-0.038547	-0.003765
380	1.916759	0.005000	8.842243	0.719563	3.126447	-0.727308	-0.364400	-0.400165	-0.061561	-0.029072	-0.009370
381	1.921759	0.005000	8.918644	0.773636	3.161528	-0.727971	-0.364732	-0.400411	-0.062605	-0.041912	-0.006024
382	1.926759	0.005000	8.973406	0.781141	3.117750	-0.728634	-0.365063	-0.400658	-0.067865	-0.032269	-0.008893
383	1.931759	0.005000	9.018332	0.921157	3.139200	-0.729296	-0.365394	-0.400905	-0.061684	-0.027515	-0.014417
384	1.936759	0.005000	8.916571	0.837676	3.113596	-0.729959	-0.365726	-0.401151	-0.065836	-0.042904	-0.002024
385	1.941759	0.005000	8.868240	0.985256	3.252664	-0.730622	-0.366057	-0.401398	-0.048863	-0.042590	-0.013936
386	1.946759	0.005000	8.868422	1.098357	3.178077	-0.731284	-0.366388	-0.401644	-0.032547	-0.052806	-0.000555
387	1.951759	0.005000	8.907480	0.983220	3.211020	-0.731947	-0.366720	-0.401891	-0.019386	-0.047255	-0.008932
388	1.956759	0.005000	8.946720	0.915013	3.174276	-0.732610	-0.367051	-0.402138	-0.027972	-0.057293	0.003968
389	1.961759	0.005000	8.920642	0.869861	3.185021	-0.733272	-0.367383	-0.402384	-0.018538	-0.056403	-0.000916
390	1.966759	0.005000	8.868240	0.702599	3.208800	-0.733935	-0.367714	-0.402631	-0.003328	-0.046927	-0.007995
391	1.971759	0.005000	8.935789	0.723697	3.139200	-0.734598	-0.368045	-0.402878	0.002498	-0.040901	-0.000805
392	1.976759	0.005000	8.815655	0.746356	3.216884	-0.735261	-0.368377	-0.403124	-0.007213	-0.038573	-0.001293
393	1.981759	0.005000	8.930966	0.612377	3.131468	-0.735719	-0.368674	-0.403238	-0.013784	-0.059364	0.004474
394	1.986759	0.005000	8.907480	0.549360	3.078419	-0.735056	-0.368784	-0.402621	-0.011883	-0.056899	0.007162
395	1.991759	0.005000	8.927590	0.626861	3.059741	-0.734393	-0.368895	-0.402005	-0.014503	-0.051723	0.003562
396	1.996759	0.005000	8.879964	0.706320	3.144464	-0.733731	-0.369005	-0.401388	-0.025530	-0.059455	0.007175
397	2.001759	0.005000	8.838672	0.721104	3.045936	-0.733068	-0.369116	-0.400771	-0.023430	-0.057698	0.001496
398	2.006759	0.005000	8.686539	0.809541	3.006981	-0.732405	-0.369226	-0.400155	-0.023962	-0.050670	0.009610
399	2.011759	0.005000	8.781425	0.824040	3.071022	-0.731743	-0.369336	-0.399538	-0.030955	-0.047664	0.008758
400	2.016759	0.005000	8.899461	0.784800	3.052701	-0.731080	-0.369447	-0.398921	-0.022928	-0.054289	0.008288
401	2.021759	0.005000	8.868240	0.806023	2.936994	-0.730417	-0.369557	-0.398305	-0.026573	-0.051666	0.008787
402	2.026759	0.005000	8.911139	0.788459	2.903760	-0.729755	-0.369668	-0.397688	-0.020405	-0.042481	0.005185
403	2.031759	0.005000	8.944210	0.901265	2.978475	-0.729092	-0.369778	-0.397071	-0.016445	-0.052765	0.016794
404	2.036759	0.005000	8.906791	0.786178	2.825969	-0.728429	-0.369889	-0.396455	-0.018415	-0.045520	0.010232
405	2.041759	0.005000	8.979746	0.863280	2.930573	-0.727766	-0.369999	-0.395838	-0.005606	-0.056767	0.010974
406	2.046759	0.005000	8.985960	0.902520	2.869966	-0.727104	-0.370109	-0.395221	-0.001274	-0.031728	0.009906
407	2.051759	0.005000	8.978124	0.902520	2.872416	-0.726866	-0.369936	-0.395000	-0.007058	-0.040759	0.004558
408	2.056759	0.005000	8.946720	0.863525	2.805538	-0.726866	-0.369605	-0.395000	0.002829	-0.033701	0.017041
409	2.061759	0.005000	8.841279	0.917202	2.825280	-0.726866	-0.369274	-0.395000	0.010000	-0.014352	0.019469
410	2.066759	0.005000	8.789760	0.887998	2.889238	-0.726866	-0.368942	-0.395000	0.016027	-0.029753	0.018874
411	2.071759	0.005000	8.812373	0.879907	2.858534	-0.726866	-0.368611	-0.395000	0.015021	-0.019413	0.019778
412	2.076759	0.005000	8.848038	0.725358	2.903760	-0.726866	-0.368279	-0.395000	0.011714	-0.029923	0.010770
413	2.081759	0.005000	8.865094	0.667080	2.961047	-0.726866	-0.367948	-0.395000	0.018274	-0.025145	0.018355
414	2.086759	0.005000	8.773914	0.745560	2.912058	-0.726866	-0.367616	-0.395000	0.026438	-0.029980	0.020343
415	2.091759	0.005000	8.895114	0.640206	2.955366	-0.726866	-0.367285	-0.395000	0.035335	-0.024722	0.022400
416	2.096759	0.005000	8.935359	0.672238	2.915121	-0.726866	-0.366953	-0.395000	0.030351	-0.019431	0.007681
417	2.101759	0.005000	8.925638	0.658001	2.864520	-0.726866	-0.366622	-0.395000	0.029071	-0.027509	0.022306
418	2.106759	0.005000	8.882339	0.667080	2.903760	-0.726866	-0.366290	-0.395000	0.014743	-0.014805	0.011383
419	2.111759	0.005000	8.912209	0.598058	2.864520	-0.726866	-0.365959	-0.395000	0.015034	-0.020009	0.009995
420	2.116759	0.005000	8.831312	0.784800	2.859896	-0.726866	-0.365687	-0.394983	0.024290	-0.024394	0.007579
421	2.121759	0.005000	8.829363	0.705957	2.786040	-0.726866	-0.365797	-0.394860	0.016432	-0.018509	0.005191
422	2.126759	0.005000	8.793833	0.704284	2.860447	-0.726866	-0.365908	-0.394737	0.020399	-0.022213	0.017490
423	2.131759	0.005000	8.798564	0.736756	2.829682	-0.726866	-0.366018	-0.394613	0.002085	-0.009931	0.014809
424	2.136759	0.005000	8.756917	0.745560	2.975843	-0.726866	-0.366128	-0.394490	0.003742	-0.018757	0.007206
425	2.141759	0.005000	8.959550	0.723927	2.943000	-0.726866	-0.366239	-0.394367	0.003898	-0.014764	0.006875
426	2.146759	0.005000	8.946720	0.762654	2.925906	-0.726866	-0.366349	-0.394243	0.006440	-0.004242	0.006630
427	2.151759	0.005000	8.789760	0.680231	2.864306	-0.726866	-0.366460	-0.394120	0.015573	-0.012934	0.009382
428	2.156759	0.005000	8.797871	0.698209	2.927436	-0.726866	-0.366570	-0.393997	-0.002382	-0.008160	0.005020
429	2.161759	0.005000	8.829000	0.667080	2.943000	-0.726866	-0.366680	-0.393873	0.007368	-0.019356	0.010267
430	2.166759	0.005000	8.868240	0.745560	2.845199	-0.726866	-0.366791	-0.393750	0.013814	-0.011664	0.017026
431	2.171759	0.005000	8.728449	0.875548	2.798308	-0.726866	-0.366901	-0.393627	0.010409	-0.015821	0.003100
432	2.176759	0.005000	8.756183	0.896857	2.943000	-0.726866	-0.367012	-0.393503	-0.009605	-0.011846	0.010092
433	2.181759	0.005000	8.803891	0.824040	3.048166	-0.726866	-0.367122	-0.393380	-0.010657	0.003429	0.004690
434	2.186759	0.005000	8.800243	0.831831	2.979547	-0.727552	-0.367987	-0.391113	0.005759	-0.012373	0.006600
435	2.191759	0.005000	8.868240	0.784800	2.920166	-0.728656	-0.369312	-0.387536	0.017135	0.007359	0.009891
436	2.196759	0.005000	8.919054	0.700533	2.982240	-0.729761	-0.370638	-0.383959	-0.007190	0.008740	-0.006835
437	2.201759	0.005000	8.942877	0.635526	3.025323	-0.730865	-0.371963	-0.380382	-0.012763	0.000432	0.012893
438	2.206759	0.005000	8.942404	0.706320	2.980801	-0.731970	-0.373289	-0.376806	-0.000500	-0.007830	0.008052
439	2.211759	0.005000	8.829000	0.706320	2.865530	-0.733074	-0.374614	-0.373229	0.012568	-0.003257	0.007562
440	2.216759	0.005000	8.901662	0.751378	2.786040	-0.734179	-0.375940	-0.369652	0.014025	0.001687	0.002746
441	2.221759	0.005000	8.848413	0.824040	2.874227	-0.735283	-0.377265	-0.366075	0.004411	-0.006021	0.008112
442	2.226759	0.005000	8.914750	0.735398	2.825280	-0.736387	-0.378590	-0.362499	-0.007129	-0.003002	0.014802
443	2.231759	0.005000	8.819440	0.745560	2.834840	-0.737492	-0.379916	-0.358922	-0.008747	-0.006220	0.007080
444	2.236759	0.005000	8.868240	0.706320	2.892140	-0.738596	-0.381241	-0.355345	0.007038	-0.007201	0.013199
445	2.241759	0.005000	8.800932	0.692286	2.800074	-0.739701	-0.382567	-0.351769	0.006211	0.005510	0.006568
446	2.246759	0.005000	8.835747	0.722567	2.887513	-0.740805	-0.383892	-0.348192	0.010409	-0.008930	0.014501
447	2.251759	0.005000	8.849852	0.706320	2.809357	-0.741791	-0.385027	-0.345239	0.005798	0.002294	0.004069
448	2.256759	0.005000	8.810558	0.745560	2.940643	-0.741791	-0.384586	-0.347459	0.007841	0.000597	-0.004479
449	2.261759	0.005000	8.750520	0.673706	3.037787	-0.741791	-0.384144	-0.349679	0.011621	-0.001096	0.006733
450	2.266759	0.005000	8.803845	0.667080	2.939984	-0.741791	-0.383702	-0.351899	-0.003652	-0.004061	0.001534
451	2.271759	0.005000	8.919157	0.745560	2.892083	-0.741791	-0.383260	-0.354119	0.002049	-0.011445	0.014096
452	2.276759	0.005000	8.946720	0.784800	2.874141	-0.741791	-0.382818	-0.356339	-0.006372	0.011719	0.010034
453	2.281759	0.005000	8.993278	0.691683	2.889123	-0.741791	-0.382376	-0.358559	-0.004936	0.001420	-0.001774
454	2.286759	0.005000	8.902155	0.683054	2.835930	-0.741791	-0.381934	-0.360779	-0.006786	0.014378	0.004827
455	2.291759	0.005000	8.829000	0.703350	2.988180	-0.741791	-0.381493	-0.362999	0.003054	-0.001294	0.001832
456	2.296759	0.005000	8.906466	0.782773	2.982240	-0.741791	-0.381051	-0.365219	0.004211	-0.000880	0.007866
457	2.301759	0.005000	8.906102	0.668458	3.020102	-0.741791	-0.380609	-0.367439	-0.004879	0.001162	0.001571
458	2.306759	0.005000	8.915071	0.706320	2.868315	-0.741791	-0.380167	-0.369659	-0.006719	0.000382	0.006605
459	2.311759	0.005000	8.873979	0.767583	2.937261	-0.741791	-0.379725	-0.371879	-0.013631	0.008426	0.001950
460	2.316759	0.005000	8.953380	0.753705	3.037770	-0.741791	-0.379283	-0.374100	0.001396	0.011871	0.008072
461	2.321759	0.005000	8.821073	0.724684	2.943000	-0.741528	-0.378907	-0.375513	-0.001926	0.012129	0.008362
462	2.326759	0.005000	8.935946	0.811536	3.021480	-0.741086	-0.378576	-0.376377	-0.003747	0.011680	-0.014355
463	2.331759	0.005000	8.995376	0.794216	2.972824	-0.740644	-0.378244	-0.377241	-0.004825	-0.001235	-0.003664
464	2.336759	0.005000	8.902488	0.846156	3.038604	-0.740202	-0.377913	-0.378105	-0.005901	0.004278	0.007530
465	2.341759	0.005000	8.888212	0.764828	2.943000	-0.739760	-0.377581	-0.378969	-0.007359	0.002282	-0.000947
466	2.346759	0.005000	8.942602	0.815803	2.943000	-0.739318	-0.377250	-0.379832	-0.008146	0.005761	0.002385
467	2.351759	0.005000	9.001390	0.839470	2.982240	-0.738876	-0.376918	-0.380696	-0.014247	0.008085	-0.002816
468	2.356759	0.005000	8.946720	0.693107	3.047507	-0.738434	-0.376587	-0.381560	-0.007590	0.001352	-0.000441
469	2.361759	0.005000	8.935915	0.706320	2.982240	-0.737992	-0.376255	-0.382424	-0.013107	0.010313	-0.004173
470	2.366759	0.005000	8.868240	0.784800	3.025685	-0.737550	-0.375924	-0.383287	-0.012459	-0.000674	0.001291
471	2.371759	0.005000	8.848337	0.712766	2.982240	-0.737108	-0.375592	-0.384151	-0.005972	-0.000506	0.002348
472	2.376759	0.005000	8.899399	0.780760	2.938960	-0.736666	-0.375261	-0.385015	-0.000752	-0.003414	0.006112
473	2.381759	0.005000	8.948792	0.788945	2.872810	-0.736224	-0.374929	-0.385879	-0.006590	0.000365	0.010781
474	2.386759	0.005000	8.947041	0.824361	3.060399	-0.735744	-0.374588	-0.386732	-0.007682	0.010694	-0.004117
475	2.391759	0.005000	8.904787	0.902520	2.982240	-0.734860	-0.374147	-0.387472	-0.007350	-0.002729	0.004434
476	2.396759	0.005000	8.877579	0.754899	3.012141	-0.733977	-0.373705	-0.388212	-0.006306	0.003270	-0.002071
477	2.401759	0.005000	8.718366	0.759732	3.132114	-0.733093	-0.373263	-0.388952	-0.013118	-0.001917	-0.003228
478	2.406759	0.005000	8.879343	0.745560	3.088857	-0.732209	-0.372821	-0.389692	-0.006428	-0.001734	0.009087
479	2.411759	0.005000	8.974191	0.843675	2.997942	-0.731326	-0.372379	-0.390432	-0.000740	-0.006558	0.001659
480	2.416759	0.005000	8.870551	0.770950	2.968390	-0.730442	-0.371938	-0.391172	-0.004581	-0.017269	0.014043
481	2.421759	0.005000	8.805825	0.832995	3.030435	-0.729559	-0.371496	-0.391912	-0.000380	0.001173	0.001632
482	2.426759	0.005000	8.813629	0.742728	3.000444	-0.728675	-0.371054	-0.392652	-0.007817	-0.015711	0.006453
483	2.431759	0.005000	8.946720	0.764192	3.040112	-0.727792	-0.370612	-0.393392	-0.010508	-0.007915	0.005562
484	2.436759	0.005000	8.845489	0.824040	3.066983	-0.726908	-0.370170	-0.394132	-0.018558	-0.000645	-0.003848
485	2.441759	0.005000	8.775481	0.834722	3.057124	-0.726024	-0.369729	-0.394872	-0.008796	-0.001949	0.011184
486	2.446759	0.005000	8.829000	0.714542	2.958509	-0.725141	-0.369287	-0.395612	-0.014868	-0.006104	0.008653
487	2.451759	0.005000	8.770125	0.873082	2.893958	-0.724257	-0.368845	-0.396352	-0.002266	-0.007796	0.012472
488	2.456759	0.005000	8.930023	0.816526	2.982240	-0.724198	-0.368720	-0.396879	-0.003816	0.000466	0.004632
489	2.461759	0.005000	8.946720	0.750658	2.937902	-0.724750	-0.368831	-0.397249	0.006099	-0.014383	0.005322
490	2.466759	0.005000	8.946720	0.820924	2.867636	-0.725302	-0.368941	-0.397619	-0.005320	-0.010099	0.008476
491	2.471759	0.005000	8.985210	0.706320	3.022230	-0.725855	-0.369052	-0.397989	-0.008450	0.001846	0.000675
492	2.476759	0.005000	8.984311	0.706320	3.023129	-0.726407	-0.369162	-0.398359	0.000072	-0.007154	0.012443
493	2.481759	0.005000	9.021588	0.709932	2.950224	-0.726959	-0.369272	-0.398730	-0.018159	-0.013106	0.012624
494	2.486759	0.005000	8.874257	0.700303	2.870537	-0.727511	-0.369383	-0.399100	-0.007826	-0.005674	0.007687
495	2.491759	0.005000	8.868240	0.784800	2.934665	-0.728063	-0.369493	-0.399470	-0.009269	-0.007897	0.005175
496	2.496759	0.005000	8.839376	0.677456	3.039967	-0.728616	-0.369604	-0.399840	-0.004241	-0.019356	-0.003890
497	2.501759	0.005000	8.868240	0.679864	3.021480	-0.729168	-0.369714	-0.400210	-0.005660	-0.008486	0.007089
498	2.506759	0.005000	8.922486	0.652074	2.982240	-0.729720	-0.369825	-0.400580	-0.011825	0.003973	-0.007715
499	2.511759	0.005000	8.890348	0.662104	2.825280	-0.730272	-0.369935	-0.400950	-0.007009	-0.010054	0.008020
500	2.516759	0.005000	8.985960	0.666927	2.903760	-0.730824	-0.370045	-0.401320	-0.014088	-0.002853	-0.006352
501	2.521759	0.005000	8.885788	0.645388	2.821135	-0.731316	-0.370142	-0.401629	-0.009117	-0.002204	-0.003582
502	2.526759	0.005000	8.962061	0.776242	2.910542	-0.730874	-0.370032	-0.401012	-0.003704	0.002598	0.008037
503	2.531759	0.005000	8.960096	0.797732	3.021480	-0.730432	-0.369921	-0.400395	-0.023071	0.002120	-0.001441
504	2.536759	0.005000	8.924997	0.791456	3.078237	-0.729990	-0.369811	-0.399778	-0.031844	-0.016961	0.003015
505	2.541759	0.005000	8.859666	0.728413	2.973666	-0.729548	-0.369700	-0.399161	-0.022150	0.000513	-0.001062
506	2.546759	0.005000	8.861690	0.712870	3.021480	-0.729106	-0.369590	-0.398544	-0.017149	-0.013641	0.000179
507	2.551759	0.005000	8.785536	0.706320	3.025704	-0.728664	-0.369479	-0.397927	-0.016187	-0.003666	-0.000612
508	2.556759	0.005000	8.829000	0.668887	3.058913	-0.728222	-0.369369	-0.397310	-0.014684	-0.011640	0.000330
509	2.561759	0.005000	8.829000	0.745422	3.021480	-0.727780	-0.369259	-0.396693	-0.003223	-0.007204	0.007095
510	2.566759	0.005000	8.936554	0.784800	2.945541	-0.727338	-0.369148	-0.396076	-0.008477	-0.006103	-0.006075
511	2.571759	0.005000	8.946720	0.819139	3.050918	-0.726896	-0.369038	-0.395459	-0.009525	-0.016716	0.001587
512	2.576759	0.005000	8.868240	0.720099	2.989130	-0.726454	-0.368927	-0.394842	-0.011550	0.003892	-0.002116
513	2.581759	0.005000	8.898175	0.724930	2.952305	-0.726012	-0.368817	-0.394225	-0.004924	-0.012069	0.000044
514	2.586759	0.005000	9.013488	0.616128	2.931288	-0.725570	-0.368706	-0.393608	-0.006587	-0.007054	0.008857
515	2.591759	0.005000	8.999922	0.731598	2.982240	-0.725495	-0.368596	-0.393470	-0.022471	-0.004649	-0.002138
516	2.596759	0.005000	8.891143	0.768463	2.998577	-0.725716	-0.368485	-0.393716	-0.015801	-0.003142	0.005933
517	2.601759	0.005000	8.928241	0.745560	2.982240	-0.725937	-0.368375	-0.393963	-0.015967	0.006804	0.002074
518	2.606759	0.005000	8.946720	0.763910	3.039830	-0.726158	-0.368264	-0.394210	-0.019594	-0.010467	0.005985
519	2.611759	0.005000	8.923696	0.683296	3.067527	-0.726379	-0.368154	-0.394457	-0.025648	-0.007219	0.003562
520	2.616759	0.005000	8.999954	0.731566	3.018739	-0.726600	-0.368043	-0.394703	-0.025337	-0.016883	-0.001291
521	2.621759	0.005000	8.923549	0.678665	3.021480	-0.726821	-0.367933	-0.394950	-0.010455	-0.010651	0.008582
522	2.626759	0.005000	8.918130	0.755090	2.962060	-0.727042	-0.367822	-0.395197	-0.018947	0.000484	-0.003111
523	2.631759	0.005000	8.796986	0.713546	3.046267	-0.727263	-0.367712	-0.395443	-0.015306	-0.016225	0.006056
524	2.636759	0.005000	8.823781	0.824040	3.050282	-0.727483	-0.367601	-0.395690	-0.015223	0.000963	0.000094
525	2.641759	0.005000	8.907480	0.896766	2.973608	-0.727704	-0.367491	-0.395937	-0.012292	-0.006074	0.002919
526	2.646759	0.005000	8.945801	0.784341	2.864061	-0.727925	-0.367380	-0.396184	-0.012090	-0.005498	0.006054
527	2.651759	0.005000	8.868240	0.745560	2.825280	-0.728146	-0.367270	-0.396430	-0.006870	0.002839	-0.013507
528	2.656759	0.005000	8.985960	0.710207	2.899873	-0.728353	-0.367173	-0.396652	0.001950	-0.013351	0.006282
529	2.661759	0.005000	8.946720	0.766148	2.943000	-0.728243	-0.367394	-0.396282	-0.011697	0.001097	-0.002874
530	2.666759	0.005000	8.837237	0.683554	2.926526	-0.728133	-0.367615	-0.395912	-0.010973	-0.006131	-0.004039
531	2.671759	0.005000	8.800412	0.677732	3.050068	-0.728022	-0.367836	-0.395542	-0.008948	-0.006011	0.003635
532	2.676759	0.005000	8.803193	0.798233	2.969336	-0.727912	-0.368057	-0.395172	-0.004108	-0.016356	-0.003986
533	2.681759	0.005000	8.853236	0.824040	2.982240	-0.727801	-0.368277	-0.394802	-0.007594	-0.017876	0.001905
534	2.686759	0.005000	8.846416	0.885104	2.960416	-0.727691	-0.368498	-0.394432	-0.017234	-0.004208	-0.001486
535	2.691759	0.005000	8.809350	0.882870	2.962590	-0.727581	-0.368719	-0.394062	-0.011606	-0.016123	0.007840
536	2.696759	0.005000	8.811531	0.784800	2.925531	-0.727470	-0.368940	-0.393692	-0.022953	-0.002965	0.001404
537	2.701759	0.005000	8.871423	0.799859	2.903760	-0.727360	-0.369161	-0.393322	-0.003836	-0.008750	-0.011200
538	2.706759	0.005000	8.855594	0.745560	2.877166	-0.727249	-0.369382	-0.392952	-0.001549	-0.007992	0.003499
539	2.711759	0.005000	8.896778	0.727724	2.964404	-0.727139	-0.369603	-0.392582	-0.012042	0.005798	-0.004470
540	2.716759	0.005000	8.829000	0.753855	2.928645	-0.727029	-0.369824	-0.392212	-0.010193	-0.017587	-0.003018
541	2.721759	0.005000	8.874518	0.778522	2.949278	-0.726918	-0.370045	-0.391842	-0.009374	-0.003437	-0.001167
542	2.726759	0.005000	8.942772	0.776903	3.021480	-0.726866	-0.370149	-0.391862	-0.001143	-0.003455	-0.001830
543	2.731759	0.005000	8.946720	0.704789	2.944531	-0.726866	-0.370149	-0.392232	-0.018124	-0.008798	0.003392
544	2.736759	0.005000	8.985547	0.744734	2.943413	-0.726866	-0.370149	-0.392602	-0.015612	-0.008552	-0.003360
545	2.741759	0.005000	9.058806	0.784800	3.091509	-0.726866	-0.370149	-0.392972	-0.012523	-0.016797	-0.004888
546	2.746759	0.005000	8.946720	0.813693	2.992587	-0.726866	-0.370149	-0.393342	-0.022471	-0.004801	-0.016441
547	2.751759	0.005000	8.882595	0.863280	2.982240	-0.726866	-0.370149	-0.393712	-0.018619	-0.017702	-0.007598
548	2.756759	0.005000	8.877824	0.755144	3.011896	-0.726866	-0.370149	-0.394082	-0.016334	-0.008494	-0.008376
549	2.761759	0.005000	8.883761	0.824040	2.994100	-0.726866	-0.370149	-0.394452	-0.013831	-0.012567	-0.005528
550	2.766759	0.005000	8.856884	0.824040	2.878462	-0.726866	-0.370149	-0.394822	-0.014659	-0.016006	0.003486
551	2.771759	0.005000	8.799574	0.807689	2.864520	-0.726866	-0.370149	-0.395192	-0.018882	-0.013718	-0.011301
552	2.776759	0.005000	8.771214	0.764106	3.025776	-0.726866	-0.370149	-0.395562	-0.011950	-0.004342	-0.002851
553	2.781759	0.005000	8.794106	0.786973	3.060720	-0.726866	-0.370149	-0.395932	-0.008218	-0.006811	-0.009936
554	2.786759	0.005000	8.812878	0.768678	3.053723	-0.726866	-0.370149	-0.396302	-0.000171	-0.013712	-0.007631
555	2.791759	0.005000	8.829000	0.731552	3.111184	-0.726864	-0.370154	-0.396671	-0.002200	-0.010083	0.001159
556	2.796759	0.005000	8.864321	0.784800	2.958693	-0.726754	-0.370485	-0.396917	0.003520	-0.010245	0.001677
557	2.801759	0.005000	8.868240	0.812899	2.952366	-0.726643	-0.370817	-0.397164	-0.000107	-0.020142	0.001283
558	2.806759	0.005000	8.914817	0.880510	2.896423	-0.726533	-0.371148	-0.397411	-0.007219	-0.009691	0.000522
559	2.811759	0.005000	8.941714	0.745560	2.943000	-0.726422	-0.371480	-0.397658	-0.007733	-0.016358	0.002957
560	2.816759	0.005000	8.907480	0.750763	2.982240	-0.726312	-0.371811	-0.397904	-0.014522	-0.010408	-0.006169
561	2.821759	0.005000	8.829650	0.784800	2.943000	-0.726201	-0.372143	-0.398151	-0.008794	-0.012039	-0.003837
562	2.826759	0.005000	8.718320	0.747320	2.943000	-0.726091	-0.372474	-0.398398	-0.009774	-0.009444	0.001377
563	2.831759	0.005000	8.820771	0.824040	2.982240	-0.725980	-0.372806	-0.398645	-0.013810	-0.012666	-0.009169
564	2.836759	0.005000	8.835109	0.824040	2.903760	-0.725870	-0.373138	-0.398891	-0.013612	-0.023068	0.007790
565	2.841759	0.005000	8.960387	0.885471	3.004431	-0.725759	-0.373469	-0.399138	-0.015459	-0.012342	-0.002132
566	2.846759	0.005000	9.036001	0.824040	2.982240	-0.725649	-0.373801	-0.399385	-0.018535	-0.006720	-0.001946
567	2.851759	0.005000	8.842524	0.797658	2.969049	-0.725538	-0.374132	-0.399632	-0.017027	-0.008245	0.002600
568	2.856759	0.005000	8.765809	0.847991	2.958289	-0.725427	-0.374464	-0.399878	-0.023293	-0.012882	-0.007848
569	2.861759	0.005000	8.772061	0.802499	2.943000	-0.725429	-0.374347	-0.399750	-0.008705	-0.016371	0.004398
570	2.866759	0.005000	8.770630	0.765670	3.002350	-0.725540	-0.373795	-0.399256	-0.014038	-0.007595	-0.000587
571	2.871759	0.005000	8.868240	0.784800	2.886567	-0.725650	-0.373242	-0.398763	-0.004776	-0.015151	-0.001749
572	2.876759	0.005000	8.843784	0.760344	2.918544	-0.725761	-0.372690	-0.398270	-0.008507	-0.017777	-0.001771
573	2.881759	0.005000	8.789760	0.746725	2.903760	-0.725871	-0.372138	-0.397776	-0.013915	-0.007169	0.009712
574	2.886759	0.005000	8.859905	0.687683	2.992542	-0.725981	-0.371585	-0.397283	-0.018256	-0.010557	0.012898
575	2.891759	0.005000	8.861078	0.745560	3.044681	-0.726092	-0.371033	-0.396789	-0.017667	-0.011506	0.003954
576	2.896759	0.005000	8.823396	0.745560	2.943000	-0.726202	-0.370481	-0.396296	-0.008035	-0.006792	0.006086
577	2.901759	0.005000	8.761366	0.749175	2.900145	-0.726313	-0.369929	-0.395803	-0.020247	0.006853	-0.001041
578	2.906759	0.005000	8.827745	0.707575	2.943000	-0.726423	-0.369376	-0.395309	-0.013695	-0.017797	-0.006158
579	2.911759	0.005000	8.865941	0.745560	2.981090	-0.726534	-0.368824	-0.394816	-0.011215	-0.008578	0.009615
580	2.916759	0.005000	8.979746	0.787907	2.982240	-0.726644	-0.368272	-0.394323	-0.009264	-0.000515	-0.013941
581	2.921759	0.005000	8.912926	0.745560	2.993132	-0.726755	-0.367719	-0.393829	-0.011748	-0.012222	-0.002548
582	2.926759	0.005000	8.978124	0.690588	2.864520	-0.726865	-0.367167	-0.393336	-0.026108	-0.006477	-0.002594
583	2.931759	0.005000	9.015329	0.706320	2.903760	-0.726976	-0.367384	-0.393456	-0.008518	-0.014562	0.004341
584	2.936759	0.005000	8.932038	0.799482	2.969961	-0.727086	-0.367605	-0.393579	-0.008362	0.005519	0.010238
585	2.941759	0.005000	8.932198	0.799322	3.060720	-0.727197	-0.367825	-0.393702	-0.008753	-0.003387	-0.002039
586	2.946759	0.005000	8.907480	0.846653	3.004853	-0.727307	-0.368046	-0.393826	-0.013037	-0.014457	0.005101
587	2.951759	0.005000	8.927682	0.802675	3.021480	-0.727417	-0.368267	-0.393949	-0.017917	-0.002967	-0.001523
588	2.956759	0.005000	8.907480	0.749219	3.007349	-0.727528	-0.368488	-0.394072	-0.010690	-0.007147	0.004591
589	2.961759	0.005000	8.875970	0.745560	2.997897	-0.727638	-0.368709	-0.394196	-0.006075	-0.008662	0.001866
590	2.966759	0.005000	8.868240	0.771363	2.968803	-0.727749	-0.368930	-0.394319	-0.008859	-0.005050	-0.001457
591	2.971759	0.005000	8.918503	0.784800	2.943000	-0.727859	-0.369151	-0.394443	-0.012649	-0.004850	0.002025
592	2.976759	0.005000	8.937750	0.745560	2.943000	-0.727969	-0.369372	-0.394566	-0.013717	-0.005469	-0.008997
593	2.981759	0.005000	8.835673	0.706320	2.949673	-0.728080	-0.369593	-0.394689	-0.006603	-0.009829	0.011621
594	2.986759	0.005000	8.868240	0.710576	2.833792	-0.728190	-0.369813	-0.394813	-0.017062	0.001906	-0.006078
595	2.991759	0.005000	8.868240	0.743248	2.790664	-0.728301	-0.370034	-0.394936	-0.004758	-0.003818	-0.007882
596	2.996759	0.005000	8.868240	0.745469	2.981968	-0.728517	-0.370362	-0.394703	-0.023093	-0.010352	0.000818
597	3.001759	0.005000	8.826964	0.706320	2.903760	-0.728849	-0.370803	-0.394087	-0.011964	-0.014825	-0.004186
598	3.006759	0.005000	8.942266	0.741106	2.934093	-0.729180	-0.371245	-0.393470	-0.011773	-0.003266	0.002689
599	3.011759	0.005000	8.953497	0.738783	2.936223	-0.729512	-0.371687	-0.392853	-0.013870	0.002133	-0.007862
600	3.016759	0.005000	8.868240	0.824040	2.864520	-0.729843	-0.372129	-0.392237	-0.010652	-0.009184	0.002068
601	3.021759	0.005000	8.935513	0.812833	2.881346	-0.730174	-0.372570	-0.391620	-0.016642	0.000830	0.000407
602	3.026759	0.005000	9.025200	0.849817	2.852206	-0.730506	-0.373012	-0.391003	-0.016044	-0.009567	-0.001058
603	3.031759	0.005000	8.938609	0.737449	2.927436	-0.730837	-0.373454	-0.390387	-0.013746	-0.003373	0.002526
604	3.036759	0.005000	8.868240	0.703028	3.021480	-0.731168	-0.373896	-0.389770	-0.020661	-0.007408	-0.003123
605	3.041759	0.005000	8.945190	0.665550	2.883375	-0.731500	-0.374338	-0.389153	-0.015570	-0.010994	0.008407
606	3.046759	0.005000	8.952529	0.706320	2.943000	-0.731831	-0.374779	-0.388537	-0.012414	0.002060	-0.004755
607	3.051759	0.005000	8.936477	0.720819	2.982240	-0.732163	-0.375221	-0.387920	-0.015550	-0.002866	0.005906
608	3.056759	0.005000	8.932289	0.797204	2.957431	-0.732494	-0.375663	-0.387304	-0.022778	-0.008161	0.006113
609	3.061759	0.005000	8.829000	0.892373	2.826627	-0.732825	-0.376105	-0.386687	-0.016045	-0.010712	-0.001340
610	3.066759	0.005000	8.985960	0.824040	3.044675	-0.733905	-0.376226	-0.385473	-0.016627	-0.008158	0.008135
611	3.071759	0.005000	9.013764	0.751278	3.055002	-0.735010	-0.376337	-0.384239	-0.022915	0.001790	0.009020
612	3.076759	0.005000	8.982578	0.748942	3.057338	-0.736115	-0.376447	-0.383005	-0.024084	-0.007122	0.001448
613	3.081759	0.005000	8.984995	0.747489	2.943000	-0.737220	-0.376558	-0.381771	-0.019955	0.003955	0.006183
614	3.086759	0.005000	8.984981	0.785779	2.904739	-0.738325	-0.376668	-0.380537	-0.015049	-0.007075	0.002161
615	3.091759	0.005000	8.825616	0.637991	2.943000	-0.739430	-0.376779	-0.379303	-0.014344	-0.008146	0.000919
616	3.096759	0.005000	8.913198	0.784800	3.021480	-0.740535	-0.376889	-0.378069	-0.014705	0.005361	-0.003926
617	3.101759	0.005000	8.907480	0.807824	3.013372	-0.741640	-0.377000	-0.376835	-0.011248	-0.011157	-0.000273
618	3.106759	0.005000	8.829000	0.774653	3.012680	-0.742745	-0.377110	-0.375601	-0.007068	-0.002991	0.007124
619	3.111759	0.005000	8.868240	0.784800	2.982240	-0.743850	-0.377221	-0.374367	-0.007067	-0.010311	0.002992
620	3.116759	0.005000	8.892686	0.833691	3.045926	-0.744955	-0.377331	-0.373133	-0.015433	0.005608	0.009409
621	3.121759	0.005000	8.868240	0.885609	2.898342	-0.746060	-0.377442	-0.371900	-0.008025	-0.002091	-0.002631
622	3.126759	0.005000	8.888159	0.862086	3.041399	-0.747165	-0.377552	-0.370666	-0.017547	-0.008337	0.013980
623	3.131759	0.005000	8.832721	0.767041	3.007442	-0.747252	-0.377409	-0.370568	-0.023180	0.007456	-0.000099
624	3.136759	0.005000	8.860129	0.769236	3.005916	-0.746148	-0.376967	-0.371802	-0.017096	-0.009399	0.002287
625	3.141759	0.005000	8.960183	0.745560	3.021480	-0.745043	-0.376525	-0.373035	-0.006212	-0.015061	0.008552
626	3.146759	0.005000	8.907480	0.728734	2.920555	-0.743939	-0.376083	-0.374268	-0.005065	-0.017943	0.008707
627	3.151759	0.005000	8.959560	0.688720	3.012680	-0.742834	-0.375641	-0.375502	-0.010944	-0.004012	-0.002697
628	3.156759	0.005000	8.835777	0.713097	2.995794	-0.741730	-0.375200	-0.376735	-0.009200	-0.011264	-0.003315
629	3.161759	0.005000	8.872680	0.815160	2.951880	-0.740625	-0.374758	-0.377969	-0.013691	-0.018962	0.010981
630	3.166759	0.005000	8.987996	0.743524	3.093851	-0.739521	-0.374316	-0.379202	-0.013087	-0.007032	0.002651
631	3.171759	0.005000	8.946629	0.667352	2.943091	-0.738416	-0.373874	-0.380435	-0.003894	-0.015558	-0.001260
632	3.176759	0.005000	8.870552	0.674016	2.908384	-0.737312	-0.373432	-0.381669	-0.009491	-0.017571	0.006725
633	3.181759	0.005000	8.937371	0.671754	2.943000	-0.736207	-0.372991	-0.382902	-0.005095	-0.006564	-0.009541
634	3.186759	0.005000	8.992633	0.778127	2.936327	-0.735103	-0.372549	-0.384136	-0.007407	-0.013210	-0.002558
635	3.191759	0.005000	8.877319	0.697241	2.921918	-0.733998	-0.372107	-0.385369	-0.003573	0.000403	-0.008489
636	3.196759	0.005000	8.907480	0.655719	2.970879	-0.732894	-0.371665	-0.386602	-0.009647	-0.009941	0.006570
637	3.201759	0.005000	8.919846	0.680517	2.903760	-0.732313	-0.371328	-0.387251	-0.012363	-0.007193	-0.003467
638	3.206759	0.005000	8.860692	0.800646	2.825280	-0.731760	-0.370997	-0.387868	-0.009409	-0.011959	-0.000969
639	3.211759	0.005000	8.850193	0.670226	2.867666	-0.731208	-0.370665	-0.388485	-0.011346	-0.013304	0.006761
640	3.216759	0.005000	8.906317	0.648042	2.982240	-0.730656	-0.370334	-0.389101	-0.011857	-0.012017	0.005548
641	3.221759	0.005000	8.913466	0.784800	3.004853	-0.730104	-0.370002	-0.389718	-0.006774	-0.009213	-0.003046
642	3.226759	0.005000	8.921698	0.695515	2.968022	-0.729551	-0.369671	-0.390335	-0.011103	-0.008921	-0.003459
643	3.231759	0.005000	8.829000	0.784800	2.957976	-0.728999	-0.369340	-0.390951	-0.007917	-0.008552	0.004607
644	3.236759	0.005000	8.937059	0.755420	3.011620	-0.728447	-0.369008	-0.391568	-0.020391	-0.005073	0.011743
645	3.241759	0.005000	8.907480	0.713776	3.014024	-0.727894	-0.368677	-0.392185	-0.018212	-0.001767	0.002029
646	3.246759	0.005000	8.845535	0.779288	2.954023	-0.727342	-0.368346	-0.392801	-0.009791	-0.012815	0.010067
647	3.251759	0.005000	9.015880	0.893200	3.018373	-0.726790	-0.368014	-0.393418	-0.005825	0.009098	-0.000763
648	3.256759	0.005000	9.025200	0.707009	2.982240	-0.726238	-0.367683	-0.394035	-0.008843	-0.003633	0.003650
649	3.261759	0.005000	8.987215	0.783545	2.982240	-0.725685	-0.367351	-0.394651	-0.017060	0.000217	0.007959
650	3.266759	0.005000	8.918326	0.792031	2.982240	-0.725565	-0.367356	-0.395054	-0.023183	-0.010460	-0.002231
651	3.271759	0.005000	8.935513	0.846469	2.931793	-0.726007	-0.367798	-0.395177	-0.016601	-0.012797	0.009909
652	3.276759	0.005000	8.954739	0.722359	2.872539	-0.726449	-0.368240	-0.395300	-0.017088	-0.000388	0.001368
653	3.281759	0.005000	8.936418	0.755862	2.885123	-0.726891	-0.368682	-0.395424	-0.008982	-0.013034	0.007345
654	3.286759	0.005000	8.946720	0.799299	2.945128	-0.727333	-0.369124	-0.395547	-0.020655	-0.001230	0.001022
655	3.291759	0.005000	8.877912	0.824040	2.913432	-0.727775	-0.369566	-0.395671	-0.008808	0.002956	0.006798
656	3.296759	0.005000	8.834264	0.706320	2.965252	-0.728217	-0.370008	-0.395794	-0.005413	-0.006733	0.010911
657	3.301759	0.005000	8.887378	0.765662	2.962138	-0.728659	-0.370450	-0.395918	-0.012497	0.004149	-0.005846
658	3.306759	0.005000	8.946720	0.784800	2.939143	-0.729101	-0.370892	-0.396041	-0.010289	-0.010050	0.003877
659	3.311759	0.005000	8.946720	0.745560	2.895652	-0.729543	-0.371334	-0.396164	-0.014874	0.009888	0.000532
660	3.316759	0.005000	8.972615	0.810695	2.943000	-0.729985	-0.371776	-0.396288	-0.014215	-0.010460	0.001643
661	3.321759	0.005000	8.918750	0.779369	2.970970	-0.730427	-0.372218	-0.396411	-0.020100	-0.009578	0.001830
662	3.326759	0.005000	8.846974	0.784800	2.930721	-0.730869	-0.372660	-0.396535	-0.003033	-0.006020	-0.003437
663	3.331759	0.005000	8.926978	0.719482	2.975659	-0.731311	-0.373102	-0.396658	-0.014205	-0.008266	0.015258
664	3.336759	0.005000	8.794397	0.750197	2.943000	-0.731138	-0.373134	-0.396667	-0.013768	-0.006468	-0.007203
665	3.341759	0.005000	9.020760	0.895860	3.019260	-0.730917	-0.373134	-0.396667	-0.001679	-0.020290	0.002011
666	3.346759	0.005000	9.064440	0.745560	2.981968	-0.730696	-0.373134	-0.396667	-0.016632	-0.021355	-0.001685
667	3.351759	0.005000	8.990216	0.782672	2.905888	-0.730476	-0.373134	-0.396667	-0.005967	-0.019689	-0.003964
668	3.356759	0.005000	8.842478	0.741067	2.860027	-0.730255	-0.373134	-0.396667	-0.017531	-0.007470	0.006684
669	3.361759	0.005000	8.868240	0.745560	2.779245	-0.730034	-0.373134	-0.396667	-0.002987	0.005325	-0.000234
670	3.366759	0.005000	8.777206	0.806250	2.903760	-0.729813	-0.373134	-0.396667	0.005886	-0.007481	0.012575
671	3.371759	0.005000	8.857061	0.779324	2.853341	-0.729592	-0.373134	-0.396667	-0.009468	-0.007551	0.004708
672	3.376759	0.005000	8.959453	0.745560	2.890507	-0.729371	-0.373134	-0.396667	-0.008571	-0.014426	0.000952
673	3.381759	0.005000	8.946720	0.745560	2.833027	-0.729150	-0.373134	-0.396667	-0.017896	-0.001835	0.003770
674	3.386759	0.005000	8.782680	0.667080	2.943000	-0.728929	-0.373134	-0.396667	-0.017782	0.000754	-0.005700
675	3.391759	0.005000	8.789760	0.725550	2.962230	-0.728708	-0.373134	-0.396667	-0.002512	-0.005108	0.013113
676	3.396759	0.005000	8.862639	0.840859	3.066321	-0.728487	-0.373134	-0.396667	-0.018102	0.001372	0.006310
677	3.401759	0.005000	8.892776	0.770096	2.996944	-0.728404	-0.372951	-0.396565	-0.016214	-0.002334	0.006972
678	3.406759	0.005000	8.907480	0.836502	3.035795	-0.728514	-0.372509	-0.396318	-0.001866	0.001892	0.001046
679	3.411759	0.005000	8.887370	0.745560	3.021480	-0.728625	-0.372068	-0.396071	-0.009473	-0.004773	0.000566
680	3.416759	0.005000	8.930685	0.816023	3.006292	-0.728735	-0.371626	-0.395825	-0.013248	-0.007554	0.001942
681	3.421759	0.005000	8.907480	0.745560	3.021480	-0.728846	-0.371184	-0.395578	-0.015402	0.001861	-0.013264
682	3.426759	0.005000	8.864950	0.830621	3.014899	-0.728956	-0.370742	-0.395331	-0.004672	-0.009943	0.009873
683	3.431759	0.005000	8.907480	0.826702	2.984902	-0.729067	-0.370300	-0.395085	-0.007960	0.003592	-0.002934
684	3.436759	0.005000	8.945649	0.788014	3.060720	-0.729177	-0.369859	-0.394838	-0.009771	-0.011260	0.003639
685	3.441759	0.005000	8.936418	0.777932	2.914062	-0.729288	-0.369417	-0.394591	-0.004783	-0.003510	-0.003564
686	3.446759	0.005000	8.941300	0.604859	2.836120	-0.729398	-0.368975	-0.394344	-0.011205	-0.016397	-0.000581
687	3.451759	0.005000	8.899644	0.761293	2.856623	-0.729509	-0.368533	-0.394098	-0.003832	-0.007262	0.005588
688	3.456759	0.005000	8.926480	0.815160	2.864520	-0.729619	-0.368091	-0.393851	-0.003985	0.010934	-0.005148
689	3.461759	0.005000	8.971084	0.681956	2.994422	-0.729730	-0.367650	-0.393604	-0.008941	-0.013513	0.007630
690	3.466759	0.005000	8.917888	0.759976	2.932592	-0.729840	-0.367208	-0.393357	-0.013972	0.000580	0.002885
691	3.471759	0.005000	8.907480	0.706320	2.965705	-0.729652	-0.367264	-0.393333	-0.014692	-0.002835	-0.003487
692	3.476759	0.005000	8.869587	0.784800	3.081013	-0.729431	-0.367374	-0.393333	-0.006193	-0.010112	0.004035
693	3.481759	0.005000	8.910445	0.799973	2.924862	-0.729210	-0.367485	-0.393333	-0.017849	0.003188	0.001485
694	3.486759	0.005000	8.914844	0.847342	2.919698	-0.728989	-0.367595	-0.393333	-0.011601	-0.009169	-0.001742
695	3.491759	0.005000	8.946720	0.837569	2.903760	-0.728768	-0.367706	-0.393333	-0.008174	-0.001226	0.003011
696	3.496759	0.005000	8.985960	0.863280	2.970789	-0.728547	-0.367816	-0.393333	-0.009679	-0.009419	0.016347
697	3.501759	0.005000	8.976789	0.754731	3.039822	-0.728326	-0.367927	-0.393333	-0.016067	-0.004990	-0.000072
698	3.506759	0.005000	8.907480	0.713084	3.093196	-0.728105	-0.368037	-0.393333	-0.018523	-0.011160	-0.001419
699	3.511759	0.005000	8.858710	0.819275	3.021480	-0.727884	-0.368148	-0.393333	-0.011448	-0.009172	-0.001113
700	3.516759	0.005000	8.865836	0.745560	2.945404	-0.727663	-0.368258	-0.393333	-0.011524	-0.007286	-0.003992
701	3.521759	0.005000	8.867786	0.746468	2.943454	-0.727442	-0.368369	-0.393333	-0.014825	-0.015025	0.002244
702	3.526759	0.005000	8.829000	0.786744	2.907649	-0.727221	-0.368479	-0.393333	-0.022864	0.004668	-0.005279
703	3.531759	0.005000	8.859648	0.819744	2.873112	-0.727000	-0.368590	-0.393333	-0.020912	-0.007956	0.002769
704	3.536759	0.005000	8.816415	0.889935	2.936708	-0.727040	-0.368613	-0.393430	-0.010151	-0.007411	0.006251
705	3.541759	0.005000	8.850824	0.824040	2.873228	-0.727482	-0.368503	-0.393677	-0.010676	-0.004258	-0.001996
706	3.546759	0.005000	8.953013	0.835022	2.960275	-0.727924	-0.368392	-0.393924	-0.006341	-0.007294	0.004340
707	3.551759	0.005000	8.933599	0.706259	3.047660	-0.728366	-0.368282	-0.394171	-0.013546	0.009485	-0.004760
708	3.556759	0.005000	8.883713	0.784800	2.951295	-0.728808	-0.368171	-0.394418	-0.014127	-0.011868	0.000203
709	3.561759	0.005000	8.907480	0.741657	2.946903	-0.729250	-0.368061	-0.394664	-0.017440	-0.002053	0.000260
710	3.566759	0.005000	8.926893	0.745973	2.904173	-0.729692	-0.367950	-0.394911	-0.013932	-0.011430	-0.000593
711	3.571759	0.005000	8.895711	0.750794	2.898526	-0.730134	-0.367840	-0.395158	-0.014296	-0.016721	0.001221
712	3.576759	0.005000	8.853355	0.769915	2.903760	-0.730576	-0.367729	-0.395405	-0.009140	-0.001744	-0.002987
713	3.581759	0.005000	8.932772	0.759508	2.916406	-0.731018	-0.367619	-0.395652	-0.001019	-0.018096	0.006657
714	3.586759	0.005000	8.936481	0.764323	3.031719	-0.731460	-0.367508	-0.395899	-0.009398	-0.014827	-0.004626
715	3.591759	0.005000	8.876439	0.753759	2.996883	-0.731902	-0.367398	-0.396145	-0.018959	-0.012567	-0.002857
716	3.596759	0.005000	8.862361	0.790679	2.892002	-0.732344	-0.367287	-0.396392	-0.018714	-0.012484	0.005641
717	3.601759	0.005000	8.904005	0.784800	2.907235	-0.732786	-0.367177	-0.396639	-0.014018	-0.002395	0.003705
718	3.606759	0.005000	8.908993	0.783287	2.943000	-0.732542	-0.367654	-0.396667	-0.010572	0.000189	0.013684
719	3.611759	0.005000	8.908353	0.745560	3.096469	-0.732211	-0.368206	-0.396667	-0.015329	-0.004945	0.001516
720	3.616759	0.005000	8.904190	0.827330	2.982240	-0.731879	-0.368758	-0.396667	-0.001395	-0.004329	0.000285
721	3.621759	0.005000	8.840255	0.711947	2.954255	-0.731548	-0.369311	-0.396667	-0.000815	-0.008899	0.007921
722	3.626759	0.005000	8.915120	0.596240	2.864520	-0.731217	-0.369863	-0.396667	-0.007919	-0.007708	-0.006359
723	3.631759	0.005000	8.750520	0.667080	2.913815	-0.730885	-0.370415	-0.396667	-0.005728	-0.010004	0.009596
724	3.636759	0.005000	8.963632	0.681693	2.876834	-0.730554	-0.370967	-0.396667	-0.005752	0.001771	-0.005048
725	3.641759	0.005000	8.961127	0.770393	2.957407	-0.730222	-0.371520	-0.396667	0.001314	-0.018068	-0.005774
726	3.646759	0.005000	8.851421	0.689501	3.043901	-0.729891	-0.372072	-0.396667	-0.004852	-0.008355	-0.001032
727	3.651759	0.005000	8.848000	0.825280	2.999999	-0.729560	-0.372624	-0.396667	-0.005971	-0.013231	-0.005883
728	3.656759	0.005000	8.889414	0.766734	2.982240	-0.729228	-0.373177	-0.396667	-0.007754	-0.004326	0.003181
729	3.661759	0.005000	8.829000	0.800456	2.935271	-0.728897	-0.373729	-0.396667	-0.021419	-0.008880	-0.004337
730	3.666759	0.005000	8.852630	0.720033	2.995953	-0.728566	-0.374281	-0.396667	-0.018986	-0.014576	0.004616
731	3.671759	0.005000	8.817701	0.667080	2.943000	-0.728441	-0.374462	-0.396529	-0.015640	-0.002212	-0.002507
732	3.676759	0.005000	8.820105	0.715215	2.851966	-0.728661	-0.374020	-0.396159	-0.002385	-0.005538	0.005911
733	3.681759	0.005000	8.881976	0.817172	2.903760	-0.728882	-0.373578	-0.395789	-0.014248	0.003246	-0.000107
734	3.686759	0.005000	8.872785	0.775709	2.864520	-0.729103	-0.373137	-0.395419	-0.005751	-0.007599	-0.008336
735	3.691759	0.005000	8.907480	0.751944	2.908016	-0.729324	-0.372695	-0.395049	-0.011576	-0.013439	0.004651
736	3.696759	0.005000	8.868512	0.785345	2.904305	-0.729545	-0.372253	-0.394679	-0.015025	-0.008261	0.003607
737	3.701759	0.005000	8.948940	0.784800	2.834160	-0.729766	-0.371811	-0.394309	-0.009233	-0.012695	0.011842
738	3.706759	0.005000	8.877514	0.775526	2.933726	-0.729987	-0.371369	-0.393939	-0.012995	-0.004788	0.003741
739	3.711759	0.005000	8.842917	0.842404	2.989199	-0.730208	-0.370928	-0.393569	-0.009843	-0.014142	0.002825
740	3.716759	0.005000	8.798747	0.793787	2.951987	-0.730429	-0.370486	-0.393199	-0.009883	-0.009510	0.005439
741	3.721759	0.005000	8.896078	0.829075	2.903760	-0.730649	-0.370044	-0.392829	-0.014576	-0.005023	0.001515
742	3.726759	0.005000	8.907480	0.784800	3.084621	-0.730870	-0.369602	-0.392459	-0.011571	-0.011108	0.009504
743	3.731759	0.005000	8.852777	0.824040	2.997994	-0.731091	-0.369160	-0.392089	-0.009768	-0.000403	0.003045
744	3.736759	0.005000	8.792668	0.824040	2.958258	-0.731312	-0.368719	-0.391719	-0.008625	-0.004579	-0.001083
745	3.741759	0.005000	8.907480	0.805131	2.963331	-0.731153	-0.369037	-0.391985	-0.009095	0.005925	0.003326
746	3.746759	0.005000	8.930001	0.778997	2.943000	-0.730932	-0.369479	-0.392356	-0.010606	-0.000358	0.006190
747	3.751759	0.005000	8.896870	0.809725	2.875130	-0.730711	-0.369921	-0.392726	-0.012143	-0.017561	0.021399
748	3.756759	0.005000	8.946720	0.721114	2.822708	-0.730490	-0.370363	-0.393096	-0.008597	0.005916	-0.003024
749	3.761759	0.005000	8.858277	0.706320	3.051369	-0.730269	-0.370805	-0.393466	-0.012609	-0.008947	0.002137
750	3.766759	0.005000	8.844096	0.611244	3.021480	-0.730048	-0.371247	-0.393836	-0.006183	-0.006798	0.000146
751	3.771759	0.005000	8.901943	0.756633	2.982240	-0.729827	-0.371689	-0.394207	-0.010924	-0.012070	-0.006092
752	3.776759	0.005000	8.871439	0.781601	2.910157	-0.729606	-0.372131	-0.394577	-0.010148	-0.005429	0.007635
753	3.781759	0.005000	8.905918	0.861718	2.983021	-0.729385	-0.372573	-0.394947	-0.015707	0.000699	-0.001287
754	3.786759	0.005000	8.867077	0.937108	3.135711	-0.729164	-0.373015	-0.395317	-0.013391	-0.004393	0.007588
755	3.791759	0.005000	8.907480	0.838309	2.964404	-0.728943	-0.373457	-0.395687	-0.020666	-0.000464	0.001834
756	3.796759	0.005000	8.940805	0.778885	2.948915	-0.728722	-0.373899	-0.396057	-0.010838	-0.007327	-0.010786
757	3.801759	0.005000	8.876168	0.745560	3.052792	-0.728501	-0.374341	-0.396428	-0.013939	-0.006414	0.009482
758	3.806759	0.005000	8.878574	0.687749	3.099960	-0.728397	-0.374549	-0.396754	-0.012079	-0.012747	0.000592
759	3.811759	0.005000	8.922162	0.694041	3.031355	-0.728508	-0.374328	-0.397001	-0.009793	-0.012299	0.005863
760	3.816759	0.005000	8.941884	0.745560	2.987076	-0.728618	-0.374107	-0.397248	-0.008876	0.005505	-0.009096
761	3.821759	0.005000	8.907480	0.706320	2.948446	-0.728729	-0.373886	-0.397494	-0.004973	-0.011186	0.000763
762	3.826759	0.005000	9.005928	0.804768	2.923728	-0.728839	-0.373665	-0.397741	-0.008299	0.000905	0.006219
763	3.831759	0.005000	8.968170	0.749219	2.935682	-0.728950	-0.373444	-0.397988	-0.017844	-0.008257	0.001977
764	3.836759	0.005000	8.915407	0.816113	3.021480	-0.729060	-0.373223	-0.398235	-0.010556	-0.013324	0.000940
765	3.841759	0.005000	8.842437	0.849843	3.021480	-0.729171	-0.373002	-0.398481	-0.004805	-0.014654	0.003561
766	3.846759	0.005000	8.907480	0.745560	3.021480	-0.729281	-0.372781	-0.398728	-0.012387	-0.013828	0.006904
767	3.851759	0.005000	8.994930	0.793770	2.982240	-0.729392	-0.372560	-0.398975	-0.015620	-0.002188	-0.000128
768	3.856759	0.005000	8.946720	0.889175	2.910433	-0.729502	-0.372339	-0.399222	-0.009565	-0.011832	-0.003012
769	3.861759	0.005000	8.911736	0.828296	2.973728	-0.729613	-0.372118	-0.399469	-0.015758	-0.015088	0.011879
770	3.866759	0.005000	8.873795	0.751115	2.866372	-0.729723	-0.371897	-0.399715	-0.007141	-0.004087	-0.003695
771	3.871759	0.005000	8.946812	0.784984	2.903760	-0.729834	-0.371676	-0.399962	-0.010055	-0.011245	0.016362
772	3.876759	0.005000	8.789760	0.669590	2.937980	-0.731346	-0.372577	-0.397182	-0.008617	-0.007858	0.010829
773	3.881759	0.005000	8.932152	0.750416	2.977384	-0.733114	-0.373681	-0.393852	-0.009761	-0.013526	0.007119
774	3.886759	0.005000	8.835859	0.759278	2.982240	-0.734881	-0.374786	-0.390522	-0.010582	0.003469	0.005677
775	3.891759	0.005000	8.847549	0.697046	2.943000	-0.736648	-0.375890	-0.387192	-0.012780	-0.001672	-0.003992
776	3.896759	0.005000	8.884396	0.757102	2.943000	-0.738415	-0.376995	-0.383862	-0.012119	-0.007816	0.013017
777	3.901759	0.005000	8.907480	0.771179	2.970241	-0.740182	-0.378099	-0.380532	-0.019526	-0.001678	0.001986
778	3.906759	0.005000	8.884270	0.683110	2.982240	-0.741949	-0.379203	-0.377202	-0.007352	-0.013059	0.003590
779	3.911759	0.005000	8.904697	0.709103	2.882748	-0.743716	-0.380308	-0.373872	-0.012610	-0.004095	0.003248
780	3.916759	0.005000	8.868240	0.650410	2.885123	-0.745484	-0.381412	-0.370541	-0.016132	-0.017828	0.003227
781	3.921759	0.005000	8.851797	0.706320	2.848077	-0.747251	-0.382517	-0.367211	-0.016985	-0.011399	0.012846
782	3.926759	0.005000	8.907480	0.756732	2.943000	-0.749018	-0.383621	-0.363881	-0.009609	0.000157	0.001635
783	3.931759	0.005000	8.871628	0.760899	3.036819	-0.750785	-0.384726	-0.360551	-0.017264	-0.008652	0.004427
784	3.936759	0.005000	8.887592	0.696108	2.972028	-0.752552	-0.385830	-0.357221	-0.015367	0.004360	-0.007652
785	3.941759	0.005000	8.929289	0.777530	2.974970	-0.753400	-0.386567	-0.355493	-0.017996	-0.002471	-0.005190
786	3.946759	0.005000	8.896951	0.716849	2.982240	-0.752406	-0.386567	-0.356973	-0.009192	-0.001724	0.011397
787	3.951759	0.005000	8.831909	0.748469	3.051993	-0.751412	-0.386567	-0.358453	-0.011196	-0.008811	0.007283
788	3.956759	0.005000	8.867735	0.746065	3.021480	-0.750418	-0.386567	-0.359933	-0.006591	-0.011544	0.012320
789	3.961759	0.005000	8.903698	0.747451	2.946782	-0.749424	-0.386567	-0.361413	-0.010087	-0.010849	0.000147
790	3.966759	0.005000	8.907480	0.824040	3.021480	-0.748430	-0.386567	-0.362893	-0.007736	-0.009179	0.005379
791	3.971759	0.005000	8.907480	0.706320	3.009106	-0.747436	-0.386567	-0.364373	-0.006772	-0.005878	0.001215
792	3.976759	0.005000	9.048034	0.855077	2.990443	-0.746442	-0.386567	-0.365853	-0.013072	-0.016662	-0.003146
793	3.981759	0.005000	8.967940	0.795410	3.042700	-0.745448	-0.386567	-0.367333	-0.013091	-0.006764	0.011878
794	3.986759	0.005000	8.828380	0.771927	3.008607	-0.744454	-0.386567	-0.368813	-0.010295	-0.010490	0.006173
795	3.991759	0.005000	8.862577	0.809072	2.991545	-0.743460	-0.386567	-0.370293	-0.005630	-0.007972	0.009199
796	3.996759	0.005000	8.929551	0.784800	2.938099	-0.742466	-0.386567	-0.371773	-0.005541	0.005976	0.007937
797	4.001759	0.005000	8.888159	0.824040	2.924276	-0.741472	-0.386567	-0.373253	-0.007857	-0.019246	0.002035
798	4.006759	0.005000	8.850732	0.784800	2.764308	-0.740478	-0.386567	-0.374733	-0.011617	-0.013907	0.009517
799	4.011759	0.005000	8.953633	0.690936	2.903760	-0.739484	-0.385390	-0.376112	-0.011927	-0.018744	-0.001767
800	4.016759	0.005000	8.920417	0.693383	3.021266	-0.738491	-0.383955	-0.377468	-0.013640	-0.008178	0.006829
801	4.021759	0.005000	8.800833	0.740508	2.943000	-0.737497	-0.382520	-0.378824	-0.023207	0.004041	0.007447
802	4.026759	0.005000	8.767916	0.693174	2.934302	-0.736504	-0.381085	-0.380180	-0.010385	-0.009895	0.008707
803	4.031759	0.005000	8.868240	0.836809	2.903760	-0.735510	-0.379650	-0.381536	-0.022317	0.006391	0.004740
804	4.036759	0.005000	8.832981	0.851338	2.864520	-0.734516	-0.378214	-0.382892	-0.015120	-0.003208	-0.000002
805	4.041759	0.005000	8.911504	0.822028	2.901748	-0.733523	-0.376779	-0.384248	-0.019598	-0.003354	0.004231
806	4.046759	0.005000	9.063705	0.784800	2.903393	-0.732529	-0.375344	-0.385604	-0.013171	-0.002072	-0.009077
807	4.051759	0.005000	9.067193	0.824040	2.971227	-0.731535	-0.373909	-0.386960	-0.004563	-0.002800	0.010196
808	4.056759	0.005000	8.965636	0.853822	2.844196	-0.730542	-0.372473	-0.388316	-0.021893	0.005564	-0.001482
809	4.061759	0.005000	8.882509	0.777665	2.864520	-0.729548	-0.371038	-0.389672	-0.009461	-0.007014	0.006376
810	4.066759	0.005000	8.858801	0.754999	2.873959	-0.728555	-0.369603	-0.391028	-0.003915	0.000597	0.001216
811	4.071759	0.005000	8.923733	0.757053	2.931507	-0.727561	-0.368168	-0.392385	-0.008619	0.002215	0.008352
812	4.076759	0.005000	8.921382	0.708785	3.007578	-0.727032	-0.367297	-0.393370	-0.020260	-0.019056	0.004391
813	4.081759	0.005000	8.860692	0.745560	3.037326	-0.727585	-0.367739	-0.393494	-0.012150	-0.008343	-0.006262
814	4.086759	0.005000	8.889222	0.863280	2.979516	-0.728137	-0.368181	-0.393617	-0.005507	-0.005253	0.004246
815	4.091759	0.005000	8.967142	0.784800	2.884942	-0.728689	-0.368623	-0.393740	-0.011857	0.006141	0.000803
816	4.096759	0.005000	8.907480	0.667080	2.881147	-0.729242	-0.369065	-0.393864	-0.006042	-0.003861	-0.000095
817	4.101759	0.005000	8.904067	0.731342	3.010675	-0.729794	-0.369507	-0.393987	-0.002515	-0.003149	0.002304
818	4.106759	0.005000	8.868240	0.824040	2.933712	-0.730347	-0.369949	-0.394111	-0.017245	0.000188	-0.002131
819	4.111759	0.005000	8.927229	0.794546	2.864520	-0.730899	-0.370391	-0.394234	-0.002834	-0.006279	0.009316
820	4.116759	0.005000	8.868240	0.792256	2.950456	-0.731452	-0.370833	-0.394357	-0.010808	0.005447	-0.004648
821	4.121759	0.005000	8.765671	0.834141	2.903760	-0.732004	-0.371275	-0.394481	-0.007044	-0.012951	-0.006338
822	4.126759	0.005000	8.874454	0.781693	2.949214	-0.732557	-0.371717	-0.394604	-0.008773	-0.003609	-0.000793
823	4.131759	0.005000	8.830378	0.784800	3.020791	-0.733109	-0.372159	-0.394728	-0.006394	-0.006054	0.001488
824	4.136759	0.005000	8.907480	0.822785	2.906270	-0.733661	-0.372601	-0.394851	-0.011656	0.000843	0.004936
825	4.141759	0.005000	8.832659	0.788459	2.985899	-0.734214	-0.373043	-0.394975	-0.021357	-0.000517	-0.002162
826	4.146759	0.005000	8.829000	0.718331	2.876531	-0.734153	-0.373485	-0.395000	-0.012059	-0.013354	0.000457
827	4.151759	0.005000	8.744802	0.697940	3.058058	-0.733932	-0.373926	-0.395000	-0.022427	-0.010933	0.000915
828	4.156759	0.005000	8.758481	0.706320	3.013519	-0.733711	-0.374368	-0.395000	-0.018807	-0.013364	-0.003034
829	4.161759	0.005000	8.763360	0.798360	2.982240	-0.733490	-0.374810	-0.395000	-0.005986	-0.007652	0.003544
830	4.166759	0.005000	8.868240	0.818080	2.958067	-0.733269	-0.375252	-0.395000	-0.015477	-0.005054	-0.012072
831	4.171759	0.005000	8.794613	0.824040	2.969900	-0.733048	-0.375693	-0.395000	-0.006188	-0.007136	-0.001037
832	4.176759	0.005000	8.986444	0.784316	3.021480	-0.732827	-0.376135	-0.395000	-0.010729	-0.004181	0.002998
833	4.181759	0.005000	8.968268	0.767108	3.021480	-0.732606	-0.376577	-0.395000	-0.003845	-0.011640	0.000675
834	4.186759	0.005000	8.885564	0.824040	2.934338	-0.732386	-0.377019	-0.395000	-0.015833	-0.012577	0.005629
835	4.191759	0.005000	8.855382	0.719178	2.930142	-0.732165	-0.377461	-0.395000	-0.014050	-0.006126	-0.008139
836	4.196759	0.005000	9.031646	0.745560	2.993171	-0.731944	-0.377902	-0.395000	-0.008580	-0.015521	0.010533
837	4.201759	0.005000	8.977436	0.824040	3.021480	-0.731723	-0.378344	-0.395000	-0.011224	-0.001514	0.006669
838	4.206759	0.005000	8.933711	0.811031	2.969019	-0.731502	-0.378786	-0.395000	-0.009802	-0.010339	-0.000189
839	4.211759	0.005000	8.872355	0.824040	2.969896	-0.731281	-0.378887	-0.395035	-0.008238	-0.008328	0.008193
840	4.216759	0.005000	8.944960	0.820520	2.984000	-0.731060	-0.378114	-0.395158	-0.004450	-0.015586	0.004890
841	4.221759	0.005000	8.868890	0.784150	3.098659	-0.730839	-0.377341	-0.395281	-0.007048	-0.009796	0.003504
842	4.226759	0.005000	8.946720	0.824040	3.024082	-0.730618	-0.376568	-0.395405	-0.012375	-0.005491	-0.002899
843	4.231759	0.005000	8.946720	0.784800	3.045701	-0.730398	-0.375795	-0.395528	-0.012021	-0.010211	0.006305
844	4.236759	0.005000	8.843673	0.752897	2.982240	-0.730177	-0.375022	-0.395651	-0.009664	0.009822	0.006836
845	4.241759	0.005000	8.799126	0.784800	2.972874	-0.729956	-0.374249	-0.395775	-0.013645	-0.002870	0.001692
846	4.246759	0.005000	8.962413	0.835814	2.954774	-0.729735	-0.373476	-0.395898	-0.011888	-0.004448	0.004746
847	4.251759	0.005000	8.896286	0.824040	3.032674	-0.729514	-0.372703	-0.396021	-0.011671	-0.012502	0.001671
848	4.256759	0.005000	8.930598	0.738563	2.912885	-0.729293	-0.371930	-0.396145	-0.002749	-0.016817	0.010286
849	4.261759	0.005000	8.829000	0.669253	2.922293	-0.729072	-0.371156	-0.396268	-0.010528	-0.003171	-0.007623
850	4.266759	0.005000	8.847546	0.803346	2.922306	-0.728851	-0.370383	-0.396392	-0.004410	-0.010423	0.002364
851	4.271759	0.005000	8.976146	0.729209	3.005129	-0.728630	-0.369610	-0.396515	-0.012171	-0.003689	0.000584
852	4.276759	0.005000	8.854298	0.717676	2.867106	-0.728409	-0.368837	-0.396638	-0.009652	-0.016305	-0.004328
853	4.281759	0.005000	8.895481	0.679079	2.970241	-0.728273	-0.368826	-0.396667	-0.015882	-0.017742	0.002938
854	4.286759	0.005000	8.857753	0.715904	2.972656	-0.728163	-0.369047	-0.396667	-0.015319	0.002247	-0.005896
855	4.291759	0.005000	8.899932	0.667080	2.974692	-0.728052	-0.369268	-0.396667	-0.011375	-0.011699	0.006710
856	4.296759	0.005000	8.805462	0.711554	2.893292	-0.727942	-0.369489	-0.396667	-0.010913	-0.000388	0.002993
857	4.301759	0.005000	8.983143	0.818406	2.985057	-0.727832	-0.369710	-0.396667	-0.010353	-0.009241	-0.000051
858	4.306759	0.005000	8.909205	0.824040	2.902035	-0.727721	-0.369931	-0.396667	-0.007827	-0.001241	0.005362
859	4.311759	0.005000	9.061378	0.786331	2.825280	-0.727611	-0.370152	-0.396667	-0.008444	-0.004921	0.002626
860	4.316759	0.005000	8.872143	0.812332	2.852812	-0.727500	-0.370373	-0.396667	0.001037	-0.009540	0.006229
861	4.321759	0.005000	8.895696	0.796584	2.976348	-0.727390	-0.370594	-0.396667	-0.016766	-0.000015	-0.010365
862	4.326759	0.005000	8.924076	0.762156	3.083364	-0.727280	-0.370814	-0.396667	-0.007683	-0.014451	0.004264
863	4.331759	0.005000	8.810916	0.756138	2.964156	-0.727169	-0.371035	-0.396667	-0.015720	-0.012691	-0.000046
864	4.336759	0.005000	8.908781	0.758206	3.022781	-0.727059	-0.371256	-0.396667	-0.014554	-0.007464	-0.004302
865	4.341759	0.005000	8.922539	0.739622	2.973119	-0.726948	-0.371477	-0.396667	-0.009468	-0.008704	0.007882
866	4.346759	0.005000	8.890220	0.789520	2.982240	-0.726978	-0.371586	-0.396573	-0.015027	-0.010141	-0.004214
867	4.351759	0.005000	8.887240	0.824040	2.962827	-0.727420	-0.371365	-0.396203	-0.010372	-0.010165	-0.001881
868	4.356759	0.005000	8.850824	0.789208	2.982240	-0.727862	-0.371144	-0.395833	-0.007770	-0.010885	-0.000469
869	4.361759	0.005000	8.922774	0.712961	3.012827	-0.728304	-0.370923	-0.395463	-0.007336	-0.010937	-0.001762
870	4.366759	0.005000	8.933660	0.758620	3.021480	-0.728745	-0.370702	-0.395093	-0.006464	-0.009774	-0.000703
871	4.371759	0.005000	8.996612	0.748927	3.117897	-0.729187	-0.370481	-0.394723	-0.006852	-0.010660	-0.000751
872	4.376759	0.005000	9.003376	0.845864	2.982240	-0.729629	-0.370261	-0.394353	-0.011312	-0.011790	0.005669
873	4.381759	0.005000	8.901188	0.824040	2.916345	-0.730071	-0.370040	-0.393983	-0.006345	0.012211	-0.005946
874	4.386759	0.005000	8.907480	0.780504	2.995128	-0.730513	-0.369819	-0.393613	0.002021	-0.006989	-0.003997
875	4.391759	0.005000	8.905536	0.747504	3.019536	-0.730954	-0.369598	-0.393243	0.000142	-0.002075	0.011472
876	4.396759	0.005000	8.907011	0.746029	2.904698	-0.731396	-0.369377	-0.392873	0.000556	-0.006512	0.000290
877	4.401759	0.005000	8.831418	0.787218	2.901342	-0.731838	-0.369156	-0.392503	-0.015535	-0.009400	-0.003728
878	4.406759	0.005000	8.902715	0.711085	2.834810	-0.732280	-0.368935	-0.392133	-0.013653	-0.000415	-0.004396
879	4.411759	0.005000	8.979196	0.713084	2.878049	-0.732721	-0.368714	-0.391763	-0.009737	-0.008016	0.009506
880	4.416759	0.005000	8.877411	0.805698	2.894589	-0.732509	-0.368739	-0.391850	-0.014669	0.005266	0.004759
881	4.421759	0.005000	8.974509	0.768463	2.998577	-0.732067	-0.368849	-0.392096	-0.010517	-0.003647	0.006551
882	4.426759	0.005000	8.934538	0.757742	3.072902	-0.731625	-0.368960	-0.392343	-0.010998	-0.003458	0.009670
883	4.431759	0.005000	8.923418	0.870644	3.053356	-0.731183	-0.369070	-0.392590	-0.014211	-0.005996	0.002438
884	4.436759	0.005000	8.886378	0.781835	2.943000	-0.730742	-0.369180	-0.392836	-0.009358	-0.013781	-0.000445
885	4.441759	0.005000	8.868240	0.842987	3.040427	-0.730300	-0.369291	-0.393083	-0.015128	-0.000206	0.002713
886	4.446759	0.005000	8.890945	0.729025	3.004945	-0.729858	-0.369401	-0.393330	-0.007593	-0.008740	-0.002724
887	4.451759	0.005000	8.971544	0.706320	2.932592	-0.729416	-0.369512	-0.393576	-0.013439	-0.006619	0.007620
888	4.456759	0.005000	8.949414	0.782106	2.945694	-0.728974	-0.369622	-0.393823	-0.008315	-0.007687	0.001204
889	4.461759	0.005000	8.897712	0.784800	2.972304	-0.728533	-0.369732	-0.394070	-0.014595	-0.013759	0.008821
890	4.466759	0.005000	8.868240	0.737830	3.029210	-0.728091	-0.369843	-0.394316	-0.015976	-0.011976	-0.006205
891	4.471759	0.005000	8.868240	0.683333	2.982240	-0.727649	-0.369953	-0.394563	-0.005115	-0.013553	0.005380
892	4.476759	0.005000	8.916525	0.824040	2.976210	-0.727207	-0.370064	-0.394809	-0.011418	-0.007192	0.000775
893	4.481759	0.005000	8.945661	0.824040	2.983299	-0.726891	-0.370048	-0.394916	-0.012600	-0.004013	-0.001725
894	4.486759	0.005000	8.869587	0.824040	2.983587	-0.727002	-0.369607	-0.394546	-0.002937	-0.001145	0.008760
895	4.491759	0.005000	8.903774	0.799625	2.982240	-0.727112	-0.369165	-0.394176	-0.014833	-0.006760	0.000902
896	4.496759	0.005000	8.846086	0.712015	2.881606	-0.727222	-0.368723	-0.393806	-0.014189	-0.013413	0.006599
897	4.501759	0.005000	8.969925	0.651045	3.005445	-0.727333	-0.368281	-0.393436	-0.012905	0.002025	-0.006128
898	4.506759	0.005000	8.996015	0.716375	2.982240	-0.727443	-0.367839	-0.393066	-0.013957	-0.013440	-0.000398
899	4.511759	0.005000	8.985960	0.758022	2.957315	-0.727554	-0.367398	-0.392696	-0.011707	-0.008247	-0.003130
900	4.516759	0.005000	8.897647	0.809336	2.943000	-0.727664	-0.366956	-0.392326	-0.015832	-0.006272	-0.006835
901	4.521759	0.005000	8.890661	0.717538	2.982240	-0.727774	-0.366514	-0.391956	-0.006465	-0.014304	0.004887
902	4.526759	0.005000	8.869480	0.786040	2.922760	-0.727885	-0.366072	-0.391586	-0.011362	-0.000692	0.002894
903	4.531759	0.005000	8.928870	0.845430	2.964390	-0.727995	-0.365631	-0.391216	-0.008338	-0.005697	0.008522
904	4.536759	0.005000	8.852584	0.808384	2.895832	-0.728106	-0.365189	-0.390846	-0.009828	-0.004995	0.005785
905	4.541759	0.005000	8.856108	0.718452	3.021480	-0.728216	-0.364747	-0.390476	-0.008308	-0.015621	0.002557
906	4.546759	0.005000	8.868240	0.717619	2.931701	-0.728326	-0.364305	-0.390106	-0.006933	-0.006242	0.006791
907	4.551759	0.005000	8.898585	0.754455	2.825280	-0.728516	-0.364653	-0.390176	-0.002392	-0.011113	-0.002246
908	4.556759	0.005000	8.803496	0.798536	2.956736	-0.728737	-0.365316	-0.390423	-0.003372	-0.013756	0.007746
909	4.561759	0.005000	8.877331	0.810404	3.021480	-0.728958	-0.365979	-0.390670	-0.012542	0.002164	0.004720
910	4.566759	0.005000	8.901096	0.706320	3.023608	-0.729179	-0.366642	-0.390917	-0.010872	-0.008096	0.003879
911	4.571759	0.005000	8.789760	0.823223	2.982785	-0.729400	-0.367305	-0.391163	-0.012119	-0.005651	0.006040
912	4.576759	0.005000	8.752740	0.784800	3.019260	-0.729621	-0.367968	-0.391410	-0.013589	-0.006322	0.008665
913	4.581759	0.005000	8.898206	0.854006	3.056083	-0.729842	-0.368631	-0.391657	-0.019408	-0.008391	0.011740
914	4.586759	0.005000	8.946720	0.791759	3.014521	-0.730063	-0.369293	-0.391904	-0.019107	-0.001288	-0.005507
915	4.591759	0.005000	8.907480	0.775813	2.925026	-0.730284	-0.369956	-0.392150	-0.007866	-0.006963	0.007371
916	4.596759	0.005000	8.868240	0.935393	2.954402	-0.730505	-0.370619	-0.392397	-0.015041	0.002786	0.008591
917	4.601759	0.005000	8.854595	0.825734	2.954951	-0.730726	-0.371282	-0.392644	-0.007393	-0.010048	0.005091
918	4.606759	0.005000	8.805514	0.808286	2.958463	-0.730947	-0.371945	-0.392891	-0.002209	-0.012865	0.007258
919	4.611759	0.005000	8.931462	0.824040	3.021480	-0.731168	-0.372608	-0.393137	-0.007272	-0.007984	-0.004924
920	4.616759	0.005000	8.849331	0.861858	3.081051	-0.731366	-0.373065	-0.393384	-0.013163	-0.013224	0.007863
921	4.621759	0.005000	8.822811	0.830229	3.004955	-0.731476	-0.372734	-0.393631	-0.016188	-0.006423	-0.003303
922	4.626759	0.005000	8.882555	0.774190	2.918075	-0.731587	-0.372403	-0.393878	-0.006743	-0.013020	-0.002401
923	4.631759	0.005000	8.974053	0.824040	2.982240	-0.731697	-0.372071	-0.394124	-0.009801	-0.005585	-0.004392
924	4.636759	0.005000	8.927024	0.784800	2.992088	-0.731808	-0.371740	-0.394371	-0.013811	-0.008754	-0.009120
925	4.641759	0.005000	8.782212	0.769704	3.006384	-0.731918	-0.371409	-0.394618	-0.009601	-0.013606	0.014588
926	4.646759	0.005000	8.844427	0.769373	2.953284	-0.732029	-0.371078	-0.394864	-0.015418	0.002332	0.007396
927	4.651759	0.005000	8.910642	0.784800	2.943000	-0.732139	-0.370746	-0.395111	-0.013203	-0.008758	0.013113
928	4.656759	0.005000	8.985189	0.784800	2.982240	-0.732250	-0.370415	-0.395358	-0.013570	-0.005104	0.005944
929	4.661759	0.005000	8.946720	0.822417	3.057474	-0.732360	-0.370084	-0.395605	-0.009275	-0.007566	-0.000064
930	4.666759	0.005000	8.797747	0.749554	2.950987	-0.732471	-0.369752	-0.395851	-0.011738	-0.002292	0.012231
931	4.671759	0.005000	8.730386	0.811303	3.008743	-0.732581	-0.369421	-0.396098	-0.012791	0.004068	0.004333
932	4.676759	0.005000	8.742130	0.885740	2.996310	-0.732692	-0.369090	-0.396345	-0.003476	-0.001707	0.007500
933	4.681759	0.005000	8.818320	0.774120	2.925120	-0.732802	-0.368758	-0.396592	-0.013610	-0.003665	0.002601
934	4.686759	0.005000	8.855185	0.824040	2.877575	-0.732836	-0.368734	-0.395554	-0.013020	-0.000726	0.005880
935	4.691759	0.005000	8.892323	0.667080	2.927843	-0.732836	-0.368844	-0.393951	-0.016108	-0.005377	-0.001415
936	4.696759	0.005000	8.968399	0.745560	3.043159	-0.732836	-0.368954	-0.392347	-0.018039	-0.000920	-0.011461
937	4.701759	0.005000	8.966219	0.804299	3.060962	-0.732836	-0.369065	-0.390744	-0.010452	-0.015928	0.013739
938	4.706759	0.005000	8.912071	0.688996	3.038804	-0.732836	-0.369175	-0.389141	-0.013416	0.001128	0.006368
939	4.711759	0.005000	8.819584	0.691408	2.967328	-0.732836	-0.369286	-0.387537	-0.007294	-0.008984	0.006899
940	4.716759	0.005000	8.907480	0.679091	2.943802	-0.732836	-0.369396	-0.385934	-0.018416	-0.004398	0.002272
941	4.721759	0.005000	8.847120	0.745560	2.885640	-0.732836	-0.369507	-0.384330	-0.016985	-0.003382	0.007792
942	4.726759	0.005000	8.899335	0.698175	2.864520	-0.732836	-0.369617	-0.382727	-0.014851	-0.001942	0.012197
943	4.731759	0.005000	8.946720	0.772547	2.976113	-0.732836	-0.369727	-0.381123	-0.013057	-0.005503	-0.007585
944	4.736759	0.005000	8.829000	0.745560	2.946795	-0.732836	-0.369838	-0.379520	-0.006367	-0.006502	0.002487
945	4.741759	0.005000	8.866862	0.863280	3.020102	-0.732836	-0.369948	-0.377917	-0.014198	-0.002129	-0.001359
946	4.746759	0.005000	8.906347	0.785933	2.943566	-0.732836	-0.370059	-0.376313	-0.011889	-0.010489	0.010556
947	4.751759	0.005000	8.985960	0.736649	2.900790	-0.732916	-0.370429	-0.375045	-0.013728	-0.006906	0.007747
948	4.756759	0.005000	8.907480	0.667080	2.903760	-0.733358	-0.371975	-0.375291	-0.009697	-0.005742	-0.004781
949	4.761759	0.005000	8.892819	0.723568	2.871851	-0.733800	-0.373522	-0.375538	-0.015147	-0.007056	0.013515
950	4.766759	0.005000	8.936983	0.814303	2.962765	-0.734241	-0.375068	-0.375785	-0.018286	0.000768	0.000500
951	4.771759	0.005000	8.852992	0.730312	3.036728	-0.734683	-0.376614	-0.376031	-0.010574	-0.007130	0.005768
952	4.776759	0.005000	8.868240	0.770715	3.085875	-0.735125	-0.378161	-0.376278	-0.010020	0.008125	-0.000062
953	4.781759	0.005000	8.946720	0.830284	3.021480	-0.735567	-0.379707	-0.376525	-0.006035	-0.005477	-0.002447
954	4.786759	0.005000	8.789760	0.822164	2.943000	-0.736008	-0.381253	-0.376771	-0.011389	-0.005195	0.005652
955	4.791759	0.005000	8.886628	0.779870	3.000628	-0.736450	-0.382800	-0.377018	-0.025714	-0.001589	0.000999
956	4.796759	0.005000	8.969982	0.840018	2.974955	-0.736892	-0.384346	-0.377264	-0.003827	-0.000627	0.000995
957	4.801759	0.005000	8.919590	0.822586	2.917325	-0.737334	-0.385892	-0.377511	-0.002976	0.012581	0.003854
958	4.806759	0.005000	8.840482	0.694838	3.072202	-0.737776	-0.387439	-0.377758	-0.004332	-0.004583	0.003124
959	4.811759	0.005000	8.985960	0.567786	3.021480	-0.738217	-0.388985	-0.378004	-0.012127	-0.007964	0.006132
960	4.816759	0.005000	8.946720	0.738762	3.001087	-0.738659	-0.390531	-0.378251	-0.019486	-0.005023	0.006379
961	4.821759	0.005000	8.941867	0.706320	2.943000	-0.738437	-0.389865	-0.378992	-0.009799	-0.018020	0.008552
962	4.826759	0.005000	8.985960	0.745560	2.943000	-0.737885	-0.388098	-0.379979	-0.025310	-0.005588	0.002173
963	4.831759	0.005000	9.025169	0.745682	2.982179	-0.737333	-0.386330	-0.380965	-0.009399	-0.011796	0.003783
964	4.836759	0.005000	8.911306	0.790539	2.903760	-0.736780	-0.384563	-0.381952	-0.018965	-0.003619	-0.001948
965	4.841759	0.005000	8.833317	0.832675	2.943000	-0.736228	-0.382796	-0.382939	-0.009443	-0.009070	-0.004575
966	4.846759	0.005000	8.933438	0.752201	2.956282	-0.735676	-0.381029	-0.383926	-0.009594	-0.011175	0.005312
967	4.851759	0.005000	8.916146	0.776134	3.043389	-0.735124	-0.379261	-0.384912	-0.013855	0.000596	0.001557
968	4.856759	0.005000	8.857160	0.801880	2.954080	-0.734571	-0.377494	-0.385899	-0.010739	-0.007464	0.002426
969	4.861759	0.005000	8.933232	0.759048	2.982240	-0.734019	-0.375727	-0.386886	-0.012550	-0.003883	-0.002062
970	4.866759	0.005000	9.033006	0.745560	3.029286	-0.733467	-0.373960	-0.387873	-0.018425	-0.006221	-0.002201
971	4.871759	0.005000	8.882534	0.845435	2.943000	-0.732914	-0.372192	-0.388859	-0.008281	-0.007871	0.006504
972	4.876759	0.005000	8.908751	0.745560	2.964526	-0.732362	-0.370425	-0.389846	-0.013159	-0.005552	-0.011803
973	4.881759	0.005000	8.840270	0.706320	2.943000	-0.731810	-0.368658	-0.390833	-0.016145	-0.016025	0.010447
974	4.886759	0.005000	8.971329	0.784800	2.977588	-0.731343	-0.367164	-0.391705	-0.015290	0.002565	-0.002938
975	4.891759	0.005000	8.880458	0.836258	3.024067	-0.731343	-0.367164	-0.391952	-0.010154	-0.013284	-0.006624
976	4.896759	0.005000	8.868240	0.803739	3.021480	-0.731343	-0.367164	-0.392198	-0.012067	-0.002193	-0.001148
977	4.901759	0.005000	8.899614	0.737694	3.044987	-0.731343	-0.367164	-0.392445	-0.012804	-0.014927	-0.001143
978	4.906759	0.005000	8.873690	0.677981	2.948450	-0.731343	-0.367164	-0.392692	-0.007051	-0.008698	0.013396
979	4.911759	0.005000	8.950184	0.784800	2.978776	-0.731343	-0.367164	-0.392938	-0.018205	-0.009189	0.004278
980	4.916759	0.005000	8.907480	0.826245	2.983342	-0.731343	-0.367164	-0.393185	-0.011613	-0.019921	0.012557
981	4.921759	0.005000	8.869526	0.864566	2.907617	-0.731343	-0.367164	-0.393432	-0.015274	-0.008875	-0.001972
982	4.926759	0.005000	8.832676	0.824040	3.014128	-0.731343	-0.367164	-0.393678	-0.011676	-0.009153	0.005853
983	4.931759	0.005000	8.868240	0.756885	3.038468	-0.731343	-0.367164	-0.393925	-0.014004	-0.006198	0.001160
984	4.936759	0.005000	8.805897	0.714388	3.013412	-0.731343	-0.367164	-0.394172	-0.010397	-0.011736	-0.005192
985	4.941759	0.005000	8.789760	0.706320	2.916331	-0.731343	-0.367164	-0.394418	-0.006910	-0.016356	0.011074
986	4.946759	0.005000	8.800228	0.706320	2.982240	-0.731343	-0.367164	-0.394665	-0.009973	-0.013068	-0.004840
987	4.951759	0.005000	8.941453	0.769964	2.997076	-0.731343	-0.367164	-0.394912	-0.010669	-0.011738	0.003715
988	4.956759	0.005000	8.840905	0.789943	2.915665	-0.731201	-0.367093	-0.395316	-0.010619	0.008253	0.000696
989	4.961759	0.005000	8.770569	0.843231	2.904617	-0.730980	-0.366983	-0.395810	-0.011440	-0.003271	-0.008824
990	4.966759	0.005000	8.815328	0.806403	3.021480	-0.730760	-0.366872	-0.396303	-0.008625	-0.015327	0.003026
991	4.971759	0.005000	8.813772	0.800028	2.958228	-0.730539	-0.366762	-0.396797	-0.013046	0.003362	-0.005587
992	4.976759	0.005000	8.789760	0.811061	2.995219	-0.730318	-0.366652	-0.397290	-0.012828	-0.003451	-0.007509
993	4.981759	0.005000	8.807260	0.795670	2.960500	-0.730097	-0.366541	-0.397783	-0.012523	-0.003523	0.003913
994	4.986759	0.005000	8.798223	0.737097	3.004554	-0.729876	-0.366431	-0.398277	-0.010962	-0.009477	-0.000412
995	4.991759	0.005000	8.822556	0.634284	3.034368	-0.729655	-0.366320	-0.398770	-0.019537	-0.004559	0.001156
996	4.996759	0.005000	8.841350	0.706320	2.974006	-0.729434	-0.366210	-0.399263	-0.013958	-0.002243	0.000142
997	5.001759	0.005000	8.984261	0.745560	2.943000	-0.729213	-0.366099	-0.399757	-0.007926	-0.007860	0.006964
998	5.006759	0.005000	8.907725	0.784555	2.865010	-0.728992	-0.365989	-0.400250	-0.014595	-0.002350	-0.003919
999	5.011759	0.005000	8.907480	0.669729	2.830577	-0.728771	-0.365879	-0.400744	-0.015619	-0.013253	-0.001558
1000	5.016759	0.005000	8.863233	0.789807	2.869527	-0.728551	-0.365768	-0.401237	-0.008254	0.008239	0.001214
1001	5.021759	0.005000	8.836009	0.777791	2.950009	-0.728358	-0.365700	-0.401651	-0.011771	-0.008529	-0.002208
1002	5.026759	0.005000	8.829000	0.784800	2.913176	-0.728358	-0.365921	-0.401528	-0.008472	-0.010407	0.003650
1003	5.031759	0.005000	8.895650	0.784800	2.821530	-0.728358	-0.366142	-0.401404	-0.013066	0.000494	-0.009763
1004	5.036759	0.005000	8.932652	0.795903	2.965207	-0.728358	-0.366363	-0.401281	-0.007575	-0.006555	0.002185
1005	5.041759	0.005000	8.845183	0.824040	3.021480	-0.728358	-0.366584	-0.401158	-0.020590	0.004053	-0.008403
1006	5.046759	0.005000	8.868240	0.826091	3.000835	-0.728358	-0.366805	-0.401034	-0.016098	-0.003863	-0.007563
1007	5.051759	0.005000	8.829000	0.824040	2.919976	-0.728358	-0.367026	-0.400911	-0.014561	-0.006068	-0.005914
1008	5.056759	0.005000	8.796420	0.722610	2.982240	-0.728358	-0.367247	-0.400788	-0.012106	-0.011781	-0.003052
1009	5.061759	0.005000	8.778282	0.745560	2.970762	-0.728358	-0.367467	-0.400664	-0.008334	-0.009468	0.011999
1010	5.066759	0.005000	8.807857	0.706320	3.099960	-0.728358	-0.367688	-0.400541	0.000637	-0.004683	-0.003845
1011	5.071759	0.005000	8.858816	0.667080	3.051296	-0.728358	-0.367909	-0.400418	-0.000410	-0.018426	0.007052
1012	5.076759	0.005000	8.836119	0.745560	3.060720	-0.728358	-0.368130	-0.400294	-0.024913	-0.001601	-0.003693
1013	5.081759	0.005000	8.794474	0.750274	3.060720	-0.728358	-0.368351	-0.400171	-0.011672	-0.006688	-0.007420
1014	5.086759	0.005000	8.826262	0.709058	3.016004	-0.728358	-0.368572	-0.400047	-0.017217	-0.012483	-0.000645
1015	5.091759	0.005000	8.789056	0.863632	2.903056	-0.728290	-0.368725	-0.399621	-0.021730	-0.004826	0.001625
1016	5.096759	0.005000	8.860132	0.939733	2.936919	-0.728180	-0.368835	-0.399004	-0.007590	-0.016856	-0.001008
1017	5.101759	0.005000	8.926740	0.902520	2.978244	-0.728069	-0.368946	-0.398387	-0.011000	0.001853	0.002554
1018	5.106759	0.005000	8.861828	0.791212	3.021480	-0.727959	-0.369056	-0.397771	-0.005963	-0.006946	0.000693
1019	5.111759	0.005000	8.829000	0.745560	2.903760	-0.727848	-0.369167	-0.397154	-0.007950	0.001348	0.010258
1020	5.116759	0.005000	8.850526	0.717083	2.932237	-0.727738	-0.369277	-0.396537	-0.013649	-0.001001	-0.000155
1021	5.121759	0.005000	8.829291	0.732674	2.982240	-0.727628	-0.369387	-0.395921	-0.004293	-0.016687	0.009667
1022	5.126759	0.005000	8.876681	0.808640	2.959882	-0.727517	-0.369498	-0.395304	-0.004748	-0.005364	-0.003897
1023	5.131759	0.005000	8.925010	0.767270	2.917110	-0.727407	-0.369608	-0.394688	-0.010315	-0.010278	0.000162
1024	5.136759	0.005000	8.906837	0.725619	2.962941	-0.727296	-0.369719	-0.394071	-0.019794	-0.001815	0.001578
1025	5.141759	0.005000	8.934497	0.762714	2.970017	-0.727186	-0.369829	-0.393454	-0.009468	-0.001022	-0.003516
1026	5.146759	0.005000	8.883192	0.739943	2.957952	-0.727076	-0.369939	-0.392838	-0.010467	-0.012553	0.002458
1027	5.151759	0.005000	8.920019	0.759722	2.903760	-0.726965	-0.370050	-0.392221	-0.017805	-0.000060	-0.008732
1028	5.156759	0.005000	8.907480	0.745560	2.943000	-0.726877	-0.370127	-0.391667	-0.003710	-0.008291	0.001894
1029	5.161759	0.005000	8.962906	0.800986	2.966054	-0.726988	-0.369906	-0.391667	-0.009066	-0.000364	0.008351
1030	5.166759	0.005000	8.940948	0.857508	2.960316	-0.727098	-0.369685	-0.391667	-0.010979	-0.003308	-0.000941
1031	5.171759	0.005000	8.979226	0.859913	3.132466	-0.727208	-0.369464	-0.391667	-0.017422	-0.006554	0.002227
1032	5.176759	0.005000	8.984553	0.860466	2.980833	-0.727319	-0.369243	-0.391667	-0.014302	0.000493	-0.007518
1033	5.181759	0.005000	8.908475	0.784800	3.057736	-0.727429	-0.369022	-0.391667	-0.007433	-0.007074	0.010073
1034	5.186759	0.005000	8.946720	0.778084	2.953075	-0.727540	-0.368801	-0.391667	-0.011111	-0.001764	0.001197
1035	5.191759	0.005000	8.912823	0.784800	2.909103	-0.727650	-0.368580	-0.391667	-0.005194	-0.001396	0.005028
1036	5.196759	0.005000	8.883758	0.745560	2.974481	-0.727761	-0.368359	-0.391667	-0.012172	-0.010124	-0.002586
1037	5.201759	0.005000	8.975794	0.803708	2.943000	-0.727871	-0.368138	-0.391667	-0.009513	-0.003583	-0.004172
1038	5.206759	0.005000	8.985960	0.757995	2.957371	-0.727981	-0.367918	-0.391667	-0.012811	-0.008753	0.013874
1039	5.211759	0.005000	8.882764	0.784800	2.943000	-0.728092	-0.367697	-0.391667	-0.015718	-0.000336	-0.002764
1040	5.216759	0.005000	8.868240	0.779426	2.976866	-0.728202	-0.367476	-0.391667	-0.012479	-0.018978	0.010367
1041	5.221759	0.005000	8.830029	0.724397	3.021480	-0.728313	-0.367255	-0.391667	-0.017168	-0.000557	0.010399
1042	5.226759	0.005000	8.807719	0.702998	3.060720	-0.728293	-0.367294	-0.392030	-0.018410	-0.005491	0.002152
1043	5.231759	0.005000	8.867505	0.745560	3.037029	-0.728183	-0.367515	-0.392647	-0.023522	-0.012457	0.005303
1044	5.236759	0.005000	8.933272	0.784800	3.010240	-0.728072	-0.367736	-0.393263	-0.019286	-0.008383	0.000137
1045	5.241759	0.005000	8.918672	0.728703	3.088768	-0.727962	-0.367957	-0.393880	-0.016733	-0.005463	0.008284
1046	5.246759	0.005000	8.868240	0.832825	3.091175	-0.727851	-0.368178	-0.394497	-0.020595	0.000197	0.006414
1047	5.251759	0.005000	8.842524	0.706320	2.970047	-0.727741	-0.368398	-0.395113	-0.014056	-0.014823	0.009947
1048	5.256759	0.005000	8.872665	0.662655	3.025905	-0.727631	-0.368619	-0.395730	-0.017958	-0.005307	0.009590
1049	5.261759	0.005000	8.941819	0.630291	3.134299	-0.727520	-0.368840	-0.396347	-0.009225	-0.009874	-0.002949
1050	5.266759	0.005000	8.868087	0.706243	2.982087	-0.727410	-0.369061	-0.396963	-0.005144	-0.009720	0.011950
1051	5.271759	0.005000	8.863611	0.777857	2.903760	-0.727299	-0.369282	-0.397580	-0.013744	-0.008788	-0.005027
1052	5.276759	0.005000	8.824715	0.741275	3.012910	-0.727189	-0.369503	-0.398197	-0.011338	-0.014422	0.008965
1053	5.281759	0.005000	8.822309	0.687152	3.028171	-0.727078	-0.369724	-0.398813	-0.011481	-0.004655	0.005935
1054	5.286759	0.005000	8.868240	0.715321	2.943000	-0.726968	-0.369945	-0.399430	-0.013940	-0.003941	-0.009636
1055	5.291759	0.005000	8.884193	0.678119	2.954039	-0.726874	-0.370166	-0.399954	-0.010743	-0.015963	0.002256
1056	5.296759	0.005000	8.868240	0.744910	2.956297	-0.726985	-0.370387	-0.399337	-0.017032	-0.005303	-0.008631
1057	5.301759	0.005000	8.948220	0.752508	2.997636	-0.727095	-0.370607	-0.398720	-0.012694	-0.019334	0.001887
1058	5.306759	0.005000	9.003766	0.692143	2.964434	-0.727206	-0.370828	-0.398104	-0.014718	-0.008639	0.009841
1059	5.311759	0.005000	8.988347	0.783606	2.902566	-0.727316	-0.371049	-0.397487	-0.012520	-0.008961	-0.002952
1060	5.316759	0.005000	8.873321	0.868361	3.021480	-0.727426	-0.371270	-0.396870	-0.014283	-0.005261	0.006260
1061	5.321759	0.005000	8.858334	0.755466	2.972334	-0.727537	-0.371491	-0.396254	-0.007098	0.000811	-0.005300
1062	5.326759	0.005000	8.880499	0.691597	2.994499	-0.727647	-0.371712	-0.395637	-0.003686	-0.010606	0.004136
1063	5.331759	0.005000	8.985960	0.813844	2.922609	-0.727758	-0.371933	-0.395020	-0.017651	-0.000700	-0.015063
1064	5.336759	0.005000	8.970160	0.753460	2.958800	-0.727868	-0.372154	-0.394404	-0.018785	-0.013690	0.009315
1065	5.341759	0.005000	8.934951	0.773031	3.060720	-0.727978	-0.372375	-0.393787	-0.010814	-0.005842	0.000461
1066	5.346759	0.005000	8.864730	0.713339	2.946510	-0.728089	-0.372596	-0.393170	-0.014016	-0.014899	-0.001355
1067	5.351759	0.005000	8.869373	0.784800	2.982240	-0.728199	-0.372816	-0.392554	-0.016157	-0.017314	0.005315
1068	5.356759	0.005000	8.869496	0.746816	3.058209	-0.728310	-0.373037	-0.391937	-0.008130	0.002606	-0.004311
1069	5.361759	0.005000	9.015555	0.748775	2.946215	-0.728358	-0.373134	-0.391736	-0.009451	-0.004738	-0.003002
1070	5.366759	0.005000	8.957823	0.773697	2.987792	-0.728358	-0.373134	-0.391860	-0.014816	0.002390	-0.000032
1071	5.371759	0.005000	8.970834	0.635403	2.927874	-0.728358	-0.373134	-0.391983	-0.011481	-0.003539	0.002820
1072	5.376759	0.005000	8.975982	0.686363	2.952978	-0.728358	-0.373134	-0.392106	-0.013776	-0.007117	0.006597
1073	5.381759	0.005000	8.934482	0.826566	2.970002	-0.728358	-0.373134	-0.392229	-0.006109	-0.002514	-0.003260
1074	5.386759	0.005000	8.857661	0.770470	3.032059	-0.728358	-0.373134	-0.392353	-0.014400	-0.007341	0.012277
1075	5.391759	0.005000	8.862486	0.723063	3.038223	-0.728358	-0.373134	-0.392476	-0.014889	-0.008934	-0.004048
1076	5.396759	0.005000	8.849554	0.745560	3.040166	-0.728358	-0.373134	-0.392599	0.000768	-0.014581	0.000343
1077	5.401759	0.005000	8.789760	0.766657	2.967052	-0.728358	-0.373134	-0.392723	-0.017924	-0.005048	0.002941
1078	5.406759	0.005000	8.766525	0.800805	2.935769	-0.728358	-0.373134	-0.392846	-0.008964	-0.011741	-0.005082
1079	5.411759	0.005000	8.803549	0.849491	2.917549	-0.728358	-0.373134	-0.392969	-0.015512	-0.007261	0.005278
1080	5.416759	0.005000	8.745406	0.913895	3.032855	-0.728358	-0.373134	-0.393092	-0.010689	0.008248	-0.013236
1081	5.421759	0.005000	8.868240	0.844643	3.060720	-0.728358	-0.373134	-0.393216	-0.012241	-0.011303	0.000343
1082	5.426759	0.005000	8.985960	0.713345	2.917809	-0.728353	-0.373123	-0.393345	-0.023130	-0.006898	0.004524
1083	5.431759	0.005000	8.976743	0.775583	2.977632	-0.728242	-0.372902	-0.393592	-0.017639	-0.008358	0.008580
1084	5.436759	0.005000	8.941425	0.742913	2.906407	-0.728132	-0.372681	-0.393839	-0.011873	-0.002258	0.006900
1085	5.441759	0.005000	8.868240	0.784540	3.060980	-0.728021	-0.372460	-0.394085	-0.007761	0.006833	-0.005415
1086	5.446759	0.005000	8.905797	0.783117	2.987290	-0.727911	-0.372240	-0.394332	-0.013001	-0.007093	0.010179
1087	5.451759	0.005000	8.942632	0.776624	3.025568	-0.727801	-0.372019	-0.394579	-0.008120	0.002550	0.000261
