# FOX Logger (IMU file)
# (c) INRIA 2011-2014
# File created from file sensbiotk output
#
# File format:
# id	t	dt	ax	ay	az	mx	my	mz	gx	gy	gz
#
# Units:
#	Time: s
#	Acceleration: m.s^-2
#	Magneto: gauss
#	Gyrometer: rad/s
#
1	0.032349	0.032349	2.807325	-9.049816	-0.938429	-0.552239	0.068657	-0.388333	0.005497	0.008998	-0.001574
2	0.037349	0.005000	2.883497	-9.064440	-0.982286	-0.553368	0.067754	-0.386946	-0.002490	0.018020	-0.005239
3	0.042349	0.005000	2.844815	-9.025200	-0.961295	-0.554497	0.066851	-0.385560	-0.004203	0.006610	-0.009896
4	0.047349	0.005000	2.823406	-9.124237	-0.941760	-0.555626	0.065947	-0.384173	0.009735	0.005854	-0.008542
5	0.052349	0.005000	2.864520	-8.968072	-0.916943	-0.556755	0.065044	-0.382786	0.000488	0.013424	-0.017073
6	0.057349	0.005000	2.881638	-9.030204	-0.829044	-0.557884	0.064141	-0.381399	0.008858	0.012810	-0.014698
7	0.062349	0.005000	2.825280	-9.074085	-0.768505	-0.559013	0.063238	-0.380013	0.001683	0.011617	-0.018042
8	0.067349	0.005000	2.903760	-9.064440	-0.815907	-0.560142	0.062334	-0.378626	0.011112	0.010030	-0.009644
9	0.072349	0.005000	2.957531	-9.113858	-0.824040	-0.561271	0.061431	-0.377239	-0.006877	0.016225	-0.022806
10	0.077349	0.005000	2.979543	-9.117659	-0.905217	-0.562400	0.060528	-0.375852	-0.003274	0.006245	-0.010248
11	0.082349	0.005000	2.943000	-9.103680	-0.876246	-0.563529	0.059625	-0.374466	0.003148	0.014168	-0.004472
12	0.087349	0.005000	2.891816	-9.107088	-0.941760	-0.564657	0.058721	-0.373079	-0.007081	0.012079	-0.016882
13	0.092349	0.005000	2.864520	-9.036586	-0.846813	-0.565786	0.057818	-0.371692	0.002169	0.006228	-0.006636
14	0.097349	0.005000	2.846008	-9.114044	-0.931396	-0.566915	0.056915	-0.370305	-0.009634	0.006497	-0.014530
15	0.102349	0.005000	2.903760	-9.015859	-0.872621	-0.566283	0.057245	-0.371279	-0.009828	0.002728	-0.017770
16	0.107349	0.005000	2.825280	-8.994759	-0.902520	-0.565154	0.057922	-0.372918	-0.008297	0.000866	-0.014186
17	0.112349	0.005000	2.793817	-8.946720	-1.051703	-0.564024	0.058600	-0.374558	-0.010956	0.008600	-0.015855
18	0.117349	0.005000	2.857766	-9.050931	-0.889011	-0.562895	0.059278	-0.376198	-0.012283	0.009836	-0.009353
19	0.122349	0.005000	2.825280	-8.985960	-0.857068	-0.561765	0.059956	-0.377837	-0.002771	0.007504	-0.009011
20	0.127349	0.005000	2.751990	-8.996339	-0.755939	-0.560636	0.060633	-0.379477	-0.004438	0.004614	-0.012447
21	0.132349	0.005000	2.872854	-9.103680	-0.793134	-0.559506	0.061311	-0.381117	-0.009381	0.020889	-0.015632
22	0.137349	0.005000	2.867704	-9.064440	-0.715871	-0.558377	0.061989	-0.382757	-0.005703	0.008155	-0.010144
23	0.142349	0.005000	2.869725	-9.111488	-0.863280	-0.557247	0.062667	-0.384396	-0.012828	0.009773	-0.009926
24	0.147349	0.005000	2.943000	-9.144500	-0.863280	-0.556118	0.063344	-0.386036	-0.019593	0.011495	-0.017675
25	0.152349	0.005000	2.902738	-9.222422	-0.939715	-0.554988	0.064022	-0.387676	-0.017104	0.000782	0.002957
26	0.157349	0.005000	2.864520	-9.260640	-0.863280	-0.553859	0.064700	-0.389315	-0.019014	0.013280	-0.018928
27	0.162349	0.005000	2.863498	-9.183182	-0.864302	-0.552729	0.065378	-0.390955	-0.021218	0.006402	-0.013525
28	0.167349	0.005000	2.941435	-9.062875	-0.904085	-0.552175	0.065864	-0.391524	-0.019527	0.007452	-0.015589
29	0.172349	0.005000	2.827867	-9.064440	-0.899933	-0.552062	0.066202	-0.391272	-0.016598	0.016990	-0.020828
30	0.177349	0.005000	2.749968	-9.136584	-0.866448	-0.551949	0.066541	-0.391020	-0.005655	0.002787	-0.004712
31	0.182349	0.005000	2.829432	-9.107832	-0.898368	-0.551836	0.066880	-0.390768	-0.018890	0.017338	-0.020425
32	0.187349	0.005000	2.830454	-9.098506	-0.897346	-0.551723	0.067218	-0.390516	-0.024668	0.004586	-0.014919
33	0.192349	0.005000	2.825280	-9.092079	-0.808002	-0.551610	0.067557	-0.390263	-0.029236	0.009785	-0.012823
34	0.197349	0.005000	2.811802	-9.077918	-0.843064	-0.551498	0.067895	-0.390011	-0.023435	0.002748	-0.011606
35	0.202349	0.005000	2.895999	-9.040722	-0.981000	-0.551385	0.068234	-0.389759	-0.034895	0.007560	-0.012791
36	0.207349	0.005000	2.763637	-9.025200	-0.871699	-0.551272	0.068573	-0.389507	-0.030949	0.003543	-0.016401
37	0.212349	0.005000	2.815939	-9.084997	-0.844597	-0.551159	0.068911	-0.389255	-0.027798	0.002603	-0.009474
38	0.217349	0.005000	2.814916	-9.114044	-0.978785	-0.551046	0.069250	-0.389002	-0.034500	0.009359	-0.022044
39	0.222349	0.005000	2.925842	-9.075481	-0.963842	-0.550933	0.069589	-0.388750	-0.028247	0.005245	-0.010880
40	0.227349	0.005000	2.825280	-9.025200	-0.859825	-0.550820	0.069927	-0.388498	-0.024179	0.007570	-0.017450
41	0.232349	0.005000	2.877858	-9.103680	-0.902907	-0.550824	0.069954	-0.388115	-0.037959	0.011701	-0.030879
42	0.237349	0.005000	2.813987	-9.196133	-0.955733	-0.551050	0.069389	-0.387484	-0.037306	0.002192	-0.014112
43	0.242349	0.005000	2.928484	-9.122502	-0.922938	-0.551276	0.068824	-0.386854	-0.033822	0.003238	-0.024476
44	0.247349	0.005000	2.895596	-9.048902	-1.012866	-0.551502	0.068260	-0.386223	-0.030309	0.004487	-0.020680
45	0.252349	0.005000	2.792159	-9.064440	-0.981000	-0.551728	0.067695	-0.385593	-0.037819	0.005138	-0.007790
46	0.257349	0.005000	2.729697	-9.108715	-0.958863	-0.551954	0.067130	-0.384962	-0.031434	0.008012	-0.015908
47	0.262349	0.005000	2.828270	-9.067430	-0.962875	-0.552179	0.066566	-0.384331	-0.025574	0.001722	-0.014050
48	0.267349	0.005000	2.844428	-9.045292	-1.021185	-0.552405	0.066001	-0.383701	-0.021991	0.008295	-0.022884
49	0.272349	0.005000	2.864690	-9.005495	-0.922055	-0.552631	0.065436	-0.383070	-0.022670	0.017647	-0.016223
50	0.277349	0.005000	2.862305	-9.045928	-1.080208	-0.552857	0.064872	-0.382440	-0.024400	0.018746	-0.014303
51	0.282349	0.005000	2.825280	-9.060211	-1.116225	-0.553083	0.064307	-0.381809	-0.010685	0.013052	-0.013538
52	0.287349	0.005000	2.786040	-9.013597	-1.025585	-0.553309	0.063742	-0.381178	-0.006204	0.019070	-0.009126
53	0.292349	0.005000	2.848595	-9.017811	-1.043555	-0.553535	0.063177	-0.380548	0.000653	0.016101	-0.017104
54	0.297349	0.005000	2.849617	-8.991429	-1.079851	-0.553701	0.062746	-0.380000	0.002737	0.010796	-0.017704
55	0.302349	0.005000	2.864520	-9.039561	-1.177200	-0.553476	0.063198	-0.380000	0.009511	0.029531	-0.024214
56	0.307349	0.005000	2.890422	-8.959284	-1.150524	-0.553250	0.063650	-0.380000	0.015131	0.020797	-0.017324
57	0.312349	0.005000	2.825280	-9.012732	-1.086252	-0.553024	0.064101	-0.380000	0.000562	0.028560	-0.019094
58	0.317349	0.005000	2.731107	-9.025200	-0.981000	-0.552798	0.064553	-0.380000	0.014067	0.028997	-0.019616
59	0.322349	0.005000	2.786040	-9.075191	-0.991751	-0.552572	0.065004	-0.380000	0.027311	0.025401	-0.009973
60	0.327349	0.005000	2.795769	-9.123463	-0.981000	-0.552347	0.065456	-0.380000	0.025389	0.029716	-0.014567
61	0.332349	0.005000	2.873691	-9.006858	-0.950931	-0.552121	0.065907	-0.380000	0.020159	0.025639	-0.009057
62	0.337349	0.005000	2.880824	-8.977808	-0.989152	-0.551895	0.066359	-0.380000	0.021025	0.025633	-0.010813
63	0.342349	0.005000	2.896618	-8.993102	-0.909662	-0.551669	0.066811	-0.380000	0.019766	0.020356	-0.016186
64	0.347349	0.005000	2.897176	-9.077608	-0.869864	-0.551443	0.067262	-0.380000	0.021053	0.018447	-0.015613
65	0.352349	0.005000	2.786040	-9.109241	-0.756683	-0.551218	0.067714	-0.380000	0.012628	0.013372	-0.015801
66	0.357349	0.005000	2.869059	-9.068979	-0.833118	-0.550992	0.068165	-0.380000	0.019340	0.016074	-0.017534
67	0.362349	0.005000	2.790037	-9.076430	-0.828037	-0.550766	0.068617	-0.380000	0.002767	0.014784	-0.021339
68	0.367349	0.005000	2.819331	-9.218426	-0.866254	-0.551055	0.068657	-0.380345	0.004251	0.012942	-0.023761
69	0.372349	0.005000	2.825280	-9.137064	-0.869136	-0.551393	0.068657	-0.380723	0.000399	0.018313	-0.014840
70	0.377349	0.005000	2.863579	-9.064440	-0.977236	-0.551732	0.068657	-0.381101	-0.000047	0.007167	-0.022206
71	0.382349	0.005000	2.748736	-9.103293	-0.707095	-0.552071	0.068657	-0.381479	-0.003906	0.009163	-0.014455
72	0.387349	0.005000	2.865790	-9.064440	-0.784800	-0.552410	0.068657	-0.381857	-0.010644	0.009407	-0.029687
73	0.392349	0.005000	2.898787	-9.062782	-0.707978	-0.552748	0.068657	-0.382236	-0.010818	0.000703	-0.012354
74	0.397349	0.005000	2.903760	-9.062240	-0.741160	-0.553087	0.068657	-0.382614	-0.014739	0.010560	-0.022186
75	0.402349	0.005000	2.936556	-9.021978	-0.778356	-0.553426	0.068657	-0.382992	-0.011582	0.003277	-0.021619
76	0.407349	0.005000	2.829105	-9.135270	-0.780975	-0.553764	0.068657	-0.383370	-0.018804	-0.001531	-0.011776
77	0.412349	0.005000	2.830082	-9.059638	-0.715925	-0.554103	0.068657	-0.383749	-0.025541	0.010491	-0.022836
78	0.417349	0.005000	2.858695	-9.248990	-0.790625	-0.554442	0.068657	-0.384127	-0.018652	0.004082	-0.022820
79	0.422349	0.005000	2.831726	-9.221400	-0.830486	-0.554781	0.068657	-0.384505	-0.029470	0.008119	-0.014925
80	0.427349	0.005000	2.825280	-9.182160	-0.745560	-0.555119	0.068657	-0.384883	-0.030549	0.010073	-0.015659
81	0.432349	0.005000	2.755212	-9.229812	-0.714732	-0.555068	0.068657	-0.385174	-0.015550	0.016614	0.001571
82	0.437349	0.005000	2.716994	-9.172726	-0.734623	-0.554842	0.068657	-0.385426	-0.030970	0.009127	-0.012815
83	0.442349	0.005000	2.716870	-9.113657	-0.774823	-0.554616	0.068657	-0.385678	-0.044766	0.016035	-0.016557
84	0.447349	0.005000	2.825280	-9.114679	-0.835039	-0.554391	0.068657	-0.385931	-0.039736	0.018813	-0.022536
85	0.452349	0.005000	2.786040	-9.154941	-0.808843	-0.554165	0.068657	-0.386183	-0.036990	0.011751	-0.006600
86	0.457349	0.005000	2.812716	-9.091116	-0.809927	-0.553939	0.068657	-0.386435	-0.055189	0.026162	-0.016694
87	0.462349	0.005000	2.746800	-9.117266	-0.876866	-0.553713	0.068657	-0.386687	-0.048195	0.015051	-0.016224
88	0.467349	0.005000	2.707560	-9.157528	-0.863280	-0.553487	0.068657	-0.386939	-0.053703	0.014078	-0.015537
89	0.472349	0.005000	2.825280	-9.119311	-0.800431	-0.553262	0.068657	-0.387191	-0.067403	0.020022	-0.015023
90	0.477349	0.005000	2.739937	-9.119869	-0.768611	-0.553036	0.068657	-0.387443	-0.067924	0.017599	-0.010717
91	0.482349	0.005000	2.825280	-9.064440	-0.890153	-0.552810	0.068657	-0.387695	-0.071651	0.026154	-0.030694
92	0.487349	0.005000	2.807062	-9.043418	-0.821236	-0.552584	0.068657	-0.387947	-0.070120	0.022754	-0.024475
93	0.492349	0.005000	2.806504	-9.083216	-0.904209	-0.552358	0.068657	-0.388200	-0.067210	0.028413	-0.011978
94	0.497349	0.005000	2.766598	-9.044998	-1.000798	-0.552930	0.068285	-0.387265	-0.078627	0.026937	-0.027829
95	0.502349	0.005000	2.767621	-9.085261	-0.941760	-0.554398	0.067495	-0.384995	-0.070035	0.014953	-0.009711
96	0.507349	0.005000	2.743314	-9.043077	-0.945246	-0.555865	0.066704	-0.382726	-0.079384	0.025438	-0.024434
97	0.512349	0.005000	2.864520	-9.137390	-0.997855	-0.557333	0.065914	-0.380457	-0.078384	0.023260	-0.028791
98	0.517349	0.005000	2.887928	-9.064440	-1.051905	-0.558801	0.065124	-0.378188	-0.068733	0.013687	-0.023221
99	0.522349	0.005000	2.879810	-9.071070	-1.074770	-0.560268	0.064333	-0.375918	-0.062648	0.015111	-0.014872
100	0.527349	0.005000	2.928732	-9.035905	-1.112988	-0.561736	0.063543	-0.373649	-0.061149	0.020681	-0.019360
101	0.532349	0.005000	2.890356	-9.025200	-1.006836	-0.563204	0.062753	-0.371380	-0.057483	0.014838	-0.027844
102	0.537349	0.005000	2.877213	-8.985960	-1.072173	-0.564671	0.061962	-0.369111	-0.052124	0.010196	-0.020680
103	0.542349	0.005000	2.836961	-8.985960	-1.071161	-0.566139	0.061172	-0.366841	-0.059928	0.026048	-0.030121
104	0.547349	0.005000	2.825280	-9.064440	-1.077148	-0.567607	0.060382	-0.364572	-0.051901	0.005794	-0.014360
105	0.552349	0.005000	2.825280	-8.996060	-0.982162	-0.569074	0.059592	-0.362303	-0.055084	0.016109	-0.017095
106	0.557349	0.005000	2.924844	-8.995038	-1.168122	-0.570542	0.058801	-0.360034	-0.049691	0.024151	-0.027824
107	0.562349	0.005000	2.864520	-8.955256	-1.137960	-0.571416	0.058209	-0.358649	-0.038572	0.008496	-0.014798
108	0.567349	0.005000	2.911273	-9.088653	-1.162173	-0.570512	0.058209	-0.359910	-0.031729	0.014223	-0.025466
109	0.572349	0.005000	2.936509	-9.097189	-1.046498	-0.569609	0.058209	-0.361170	-0.028440	0.011209	-0.024243
110	0.577349	0.005000	2.864520	-9.131023	-1.044035	-0.568706	0.058209	-0.362431	-0.027803	0.015600	-0.021805
111	0.582349	0.005000	2.786040	-9.049661	-1.074259	-0.567803	0.058209	-0.363692	-0.028499	0.018326	-0.025339
112	0.587349	0.005000	2.829184	-8.950624	-1.137960	-0.566899	0.058209	-0.364953	-0.027983	0.008378	-0.016945
113	0.592349	0.005000	2.932962	-8.950066	-1.092028	-0.565996	0.058209	-0.366213	-0.005035	0.016493	-0.021891
114	0.597349	0.005000	2.940661	-8.953738	-0.835736	-0.565093	0.058209	-0.367474	0.004086	0.023179	-0.016754
115	0.602349	0.005000	2.940335	-9.140255	-0.901187	-0.564190	0.058209	-0.368735	0.015791	0.025282	-0.016237
116	0.607349	0.005000	2.981481	-9.101403	-0.900243	-0.563286	0.058209	-0.369995	0.027649	0.017662	-0.007888
117	0.612349	0.005000	2.826070	-8.946983	-0.862753	-0.562383	0.058209	-0.371256	0.017676	0.022651	-0.008461
118	0.617349	0.005000	2.822708	-9.063154	-0.864566	-0.561480	0.058209	-0.372517	0.019780	0.004939	-0.015924
119	0.622349	0.005000	2.825280	-9.060784	-0.861452	-0.560577	0.058209	-0.373778	0.012381	0.014050	-0.014578
120	0.627349	0.005000	2.828130	-9.064440	-0.860430	-0.559687	0.058206	-0.375004	-0.016006	0.010605	-0.019237
121	0.632349	0.005000	2.943000	-9.032946	-0.934014	-0.559236	0.058093	-0.375130	-0.026160	0.000509	-0.009278
122	0.637349	0.005000	2.973300	-9.025200	-1.098720	-0.558784	0.057980	-0.375256	-0.044560	0.013175	-0.017110
123	0.642349	0.005000	2.943000	-8.985960	-1.098720	-0.558333	0.057867	-0.375382	-0.060851	0.008020	-0.020637
124	0.647349	0.005000	2.975780	-8.907480	-1.098720	-0.557881	0.057754	-0.375508	-0.047528	0.003573	-0.010824
125	0.652349	0.005000	2.910778	-8.907480	-0.995035	-0.557429	0.057641	-0.375634	-0.041981	0.019216	-0.019483
126	0.657349	0.005000	2.895735	-8.922646	-1.035406	-0.556978	0.057528	-0.375760	-0.022340	0.016057	-0.003353
127	0.662349	0.005000	2.786040	-8.985960	-1.189299	-0.556526	0.057415	-0.375886	-0.004665	0.017771	-0.015687
128	0.667349	0.005000	2.815675	-9.084471	-1.157169	-0.556075	0.057302	-0.376013	0.009049	0.015706	-0.006311
129	0.672349	0.005000	2.825280	-9.114307	-1.134691	-0.555623	0.057189	-0.376139	0.032966	0.030815	-0.004486
130	0.677349	0.005000	2.864520	-9.052790	-1.059480	-0.555171	0.057076	-0.376265	0.030571	0.027163	-0.007564
131	0.682349	0.005000	2.837472	-9.037392	-1.059480	-0.554720	0.056963	-0.376391	0.031160	0.021383	-0.008473
132	0.687349	0.005000	2.890546	-9.064440	-0.981403	-0.554268	0.056850	-0.376517	0.021475	0.020700	-0.027795
133	0.692349	0.005000	2.878757	-8.935953	-0.952527	-0.553817	0.056737	-0.376643	0.016792	0.007820	-0.007724
134	0.697349	0.005000	2.825280	-8.971181	-1.044701	-0.553640	0.057357	-0.377382	-0.005762	0.006261	-0.021408
135	0.702349	0.005000	2.895596	-8.938556	-0.981000	-0.553527	0.058147	-0.378265	-0.008457	-0.008294	-0.021164
136	0.707349	0.005000	2.797271	-9.030792	-1.081896	-0.553414	0.058938	-0.379148	-0.013677	-0.002958	-0.005970
137	0.712349	0.005000	2.725141	-8.885821	-1.137960	-0.553301	0.059729	-0.380031	-0.013457	0.005180	-0.028775
138	0.717349	0.005000	2.767652	-8.870703	-1.158812	-0.553188	0.060519	-0.380914	0.010884	0.001444	-0.016910
139	0.722349	0.005000	2.805451	-8.927309	-1.176782	-0.553075	0.061310	-0.381796	0.024653	0.006459	-0.029002
140	0.727349	0.005000	2.825280	-8.984784	-1.059480	-0.552962	0.062101	-0.382679	0.034938	0.011509	-0.023043
141	0.732349	0.005000	2.801547	-9.043449	-1.098720	-0.552849	0.062891	-0.383562	0.062832	0.016541	-0.014708
142	0.737349	0.005000	2.820493	-9.081667	-1.081493	-0.552736	0.063682	-0.384445	0.066979	0.023027	-0.018072
143	0.742349	0.005000	2.903760	-9.081124	-1.098720	-0.552623	0.064473	-0.385328	0.065655	0.018313	-0.009059
144	0.747349	0.005000	2.809618	-9.048778	-1.028156	-0.552510	0.065263	-0.386211	0.059586	0.014121	-0.015237
145	0.752349	0.005000	2.815319	-9.010561	-0.927121	-0.552398	0.066054	-0.387093	0.070296	0.018404	-0.007008
146	0.757349	0.005000	2.906812	-8.989012	-0.916617	-0.552285	0.066845	-0.387976	0.056177	0.023572	-0.006964
147	0.762349	0.005000	2.929910	-8.946720	-0.941745	-0.552374	0.067097	-0.388333	0.064138	0.010317	0.002443
148	0.767349	0.005000	2.876722	-8.973758	-0.917357	-0.552599	0.066984	-0.388333	0.058835	0.005810	0.001931
149	0.772349	0.005000	2.915270	-9.008980	-0.828749	-0.552825	0.066871	-0.388333	0.052993	0.008980	0.001291
150	0.777349	0.005000	2.893272	-9.103680	-0.792577	-0.553051	0.066758	-0.388333	0.062888	-0.001294	0.003411
151	0.782349	0.005000	2.864520	-9.152850	-0.853350	-0.553277	0.066645	-0.388333	0.046432	0.004795	-0.018010
152	0.787349	0.005000	2.934092	-9.134012	-0.736652	-0.553503	0.066532	-0.388333	0.040854	-0.002883	-0.004620
153	0.792349	0.005000	2.880290	-9.135035	-0.737675	-0.553728	0.066420	-0.388333	0.026659	0.002245	-0.004968
154	0.797349	0.005000	2.903760	-9.232849	-0.784800	-0.553954	0.066307	-0.388333	0.013206	0.001706	-0.020005
155	0.802349	0.005000	2.897439	-9.136599	-0.784800	-0.554180	0.066194	-0.388333	0.010072	0.001594	0.003203
156	0.807349	0.005000	2.875116	-9.182160	-0.808146	-0.554406	0.066081	-0.388333	0.001156	-0.004396	-0.001189
157	0.812349	0.005000	2.894248	-9.103680	-0.789556	-0.554631	0.065968	-0.388333	-0.006050	0.003160	-0.000141
158	0.817349	0.005000	2.821547	-9.111147	-0.706320	-0.554857	0.065855	-0.388333	-0.001833	0.009711	-0.011239
159	0.822349	0.005000	2.822569	-9.148342	-0.784800	-0.555083	0.065742	-0.388333	0.000189	0.016376	-0.002876
160	0.827349	0.005000	2.861101	-9.146339	-0.747269	-0.555139	0.065799	-0.388286	0.000668	0.020325	-0.003251
161	0.832349	0.005000	2.709853	-9.221400	-0.784800	-0.554913	0.066138	-0.388160	0.005219	0.019736	-0.002591
162	0.837349	0.005000	2.746924	-9.103928	-0.941388	-0.554687	0.066477	-0.388033	0.012563	0.020913	0.000865
163	0.842349	0.005000	2.862723	-9.182160	-0.862381	-0.554461	0.066816	-0.387907	0.004976	0.037427	-0.015347
164	0.847349	0.005000	2.943000	-9.182160	-0.979544	-0.554236	0.067155	-0.387781	0.002777	0.032184	-0.004569
165	0.852349	0.005000	2.825280	-9.184639	-0.787279	-0.554010	0.067493	-0.387655	-0.004080	0.030446	-0.006327
166	0.857349	0.005000	2.786040	-9.067927	-0.784800	-0.553784	0.067832	-0.387529	-0.010266	0.032593	-0.013597
167	0.862349	0.005000	2.903760	-9.029243	-0.796930	-0.553558	0.068171	-0.387403	-0.001205	0.022567	0.003343
168	0.867349	0.005000	2.859454	-9.103680	-0.789866	-0.553332	0.068510	-0.387277	-0.015406	0.025448	-0.008382
169	0.872349	0.005000	2.825280	-9.031288	-0.817952	-0.553106	0.068849	-0.387151	-0.014528	0.026049	-0.000108
170	0.877349	0.005000	2.714190	-9.136290	-0.850019	-0.552880	0.069187	-0.387025	-0.013731	0.028879	-0.015310
171	0.882349	0.005000	2.864520	-9.103680	-0.902520	-0.552654	0.069526	-0.386899	-0.028405	0.018117	-0.020853
172	0.887349	0.005000	2.895085	-9.081790	-0.889306	-0.552428	0.069865	-0.386773	-0.033971	0.014532	-0.016964
173	0.892349	0.005000	2.825280	-9.212183	-0.990217	-0.552221	0.070094	-0.386626	-0.034299	0.012274	-0.017592
174	0.897349	0.005000	2.844040	-9.093440	-0.941760	-0.552108	0.069756	-0.386374	-0.043605	0.006467	-0.017907
175	0.902349	0.005000	2.864520	-9.092418	-0.891258	-0.551995	0.069417	-0.386122	-0.051224	0.002686	-0.016902
176	0.907349	0.005000	2.876482	-9.103680	-0.875242	-0.551882	0.069078	-0.385870	-0.053555	-0.007825	-0.021353
177	0.912349	0.005000	2.864520	-9.155752	-0.928928	-0.551769	0.068740	-0.385617	-0.060363	-0.001361	-0.023128
178	0.917349	0.005000	2.864520	-9.129071	-0.981000	-0.551656	0.068401	-0.385365	-0.060241	-0.011724	-0.029628
179	0.922349	0.005000	2.903760	-9.128048	-0.907896	-0.551543	0.068062	-0.385113	-0.061197	-0.013744	-0.024213
180	0.927349	0.005000	2.864520	-9.127490	-0.871661	-0.551430	0.067724	-0.384861	-0.068736	-0.022621	-0.043819
181	0.932349	0.005000	2.779704	-9.103680	-0.958212	-0.551317	0.067385	-0.384609	-0.064842	-0.035234	-0.025377
182	0.937349	0.005000	2.711851	-9.107971	-0.924286	-0.551204	0.067046	-0.384357	-0.063529	-0.027487	-0.026883
183	0.942349	0.005000	2.825280	-9.046200	-0.902520	-0.551091	0.066708	-0.384104	-0.057753	-0.034024	-0.037567
184	0.947349	0.005000	2.746800	-9.083479	-0.805001	-0.550978	0.066369	-0.383852	-0.057688	-0.038701	-0.027292
185	0.952349	0.005000	2.825280	-9.102797	-0.921698	-0.550866	0.066030	-0.383600	-0.069101	-0.033409	-0.029075
186	0.957349	0.005000	2.843916	-9.122316	-0.921156	-0.550753	0.065692	-0.383348	-0.058127	-0.044386	-0.026808
187	0.962349	0.005000	2.882134	-9.221400	-0.924146	-0.550746	0.065566	-0.383689	-0.072291	-0.043956	-0.021220
188	0.967349	0.005000	2.847929	-9.182160	-0.863280	-0.550746	0.065453	-0.384067	-0.066000	-0.046884	-0.029049
189	0.972349	0.005000	2.825280	-9.166398	-0.886758	-0.550746	0.065340	-0.384445	-0.067982	-0.054432	-0.019448
190	0.977349	0.005000	2.816094	-9.097840	-0.799827	-0.550746	0.065227	-0.384824	-0.077262	-0.048677	-0.029517
191	0.982349	0.005000	2.850516	-9.039204	-0.852049	-0.550746	0.065114	-0.385202	-0.082305	-0.049215	-0.029541
192	0.987349	0.005000	2.838262	-9.103680	-0.902520	-0.550746	0.065001	-0.385580	-0.081132	-0.040148	-0.028533
193	0.992349	0.005000	2.864520	-9.105647	-0.875704	-0.550746	0.064888	-0.385958	-0.083005	-0.043525	-0.022713
194	0.997349	0.005000	2.864520	-9.030235	-0.902520	-0.550746	0.064775	-0.386337	-0.080784	-0.044117	-0.019770
195	1.002349	0.005000	2.901421	-8.957115	-0.999450	-0.550746	0.064662	-0.386715	-0.079650	-0.040699	-0.031766
196	1.007349	0.005000	2.864520	-8.985960	-1.030077	-0.550746	0.064549	-0.387093	-0.070083	-0.039058	-0.015684
197	1.012349	0.005000	2.873335	-9.042829	-1.068295	-0.550746	0.064436	-0.387471	-0.070666	-0.023417	-0.030689
198	1.017349	0.005000	2.825280	-9.127336	-1.028032	-0.550746	0.064323	-0.387849	-0.062704	-0.037602	-0.022998
199	1.022349	0.005000	2.896990	-8.907480	-1.006700	-0.550746	0.064210	-0.388228	-0.062906	-0.020209	-0.035320
200	1.027349	0.005000	2.825280	-8.946720	-0.993455	-0.550746	0.064342	-0.388060	-0.061825	-0.020132	-0.031731
201	1.032349	0.005000	2.903760	-8.873445	-1.025445	-0.550746	0.064568	-0.387682	-0.074680	-0.018170	-0.025200
202	1.037349	0.005000	2.895395	-8.920028	-0.972635	-0.550746	0.064793	-0.387304	-0.088436	-0.014065	-0.029854
203	1.042349	0.005000	2.786040	-9.025200	-0.948159	-0.550746	0.065019	-0.386926	-0.076686	-0.014162	-0.022925
204	1.047349	0.005000	2.825280	-9.030436	-0.936524	-0.550746	0.065245	-0.386547	-0.084078	-0.002058	-0.033010
205	1.052349	0.005000	2.898973	-9.103680	-1.059480	-0.550746	0.065471	-0.386169	-0.083972	-0.011471	-0.029661
206	1.057349	0.005000	2.903760	-9.064440	-1.059480	-0.550746	0.065697	-0.385791	-0.075612	-0.004412	-0.015306
207	1.062349	0.005000	2.943000	-8.985960	-1.098689	-0.550746	0.065922	-0.385413	-0.072538	-0.009819	-0.029916
208	1.067349	0.005000	2.943000	-9.062457	-1.021231	-0.550746	0.066148	-0.385035	-0.080458	-0.003333	-0.031765
209	1.072349	0.005000	2.866534	-8.913522	-1.139974	-0.550746	0.066374	-0.384656	-0.058222	0.003361	-0.034782
210	1.077349	0.005000	2.901188	-8.980817	-1.292348	-0.550746	0.066600	-0.384278	-0.059020	0.000252	-0.020354
211	1.082349	0.005000	2.935812	-9.025200	-1.294920	-0.550746	0.066826	-0.383900	-0.044660	0.007500	-0.031583
212	1.087349	0.005000	2.973034	-8.916686	-1.225646	-0.550746	0.067051	-0.383522	-0.031879	0.011244	-0.018009
213	1.092349	0.005000	2.864520	-8.907480	-1.357924	-0.550746	0.067164	-0.383333	-0.026099	0.011402	-0.018665
214	1.097349	0.005000	2.831461	-9.012838	-1.400278	-0.550746	0.067164	-0.383333	-0.015968	0.016843	-0.024243
215	1.102349	0.005000	2.832087	-8.960333	-1.445073	-0.550746	0.067164	-0.383333	0.012630	0.021387	-0.007885
216	1.107349	0.005000	2.927508	-8.868240	-1.326414	-0.550746	0.067164	-0.383333	0.009446	0.034601	-0.019504
217	1.112349	0.005000	2.951768	-8.768056	-1.364632	-0.550746	0.067164	-0.383333	0.024524	0.026586	-0.012957
218	1.117349	0.005000	2.913628	-8.711203	-1.383268	-0.550746	0.067164	-0.383333	0.023508	0.031007	-0.009479
219	1.122349	0.005000	2.788131	-8.787669	-1.383733	-0.550746	0.067164	-0.383333	0.035946	0.034912	-0.015112
220	1.127349	0.005000	2.875875	-8.840355	-1.384755	-0.550746	0.067164	-0.383333	0.052835	0.029017	-0.003057
221	1.132349	0.005000	2.876576	-8.895424	-1.279792	-0.550746	0.067164	-0.383333	0.061840	0.039258	-0.004455
222	1.137349	0.005000	2.890825	-8.894111	-1.399705	-0.550746	0.067164	-0.383333	0.071387	0.032521	-0.006748
223	1.142349	0.005000	2.940366	-9.013876	-1.297554	-0.550746	0.067164	-0.383333	0.088334	0.038679	0.005719
224	1.147349	0.005000	2.839954	-8.961394	-1.304812	-0.550746	0.067164	-0.383333	0.101945	0.040483	0.003949
225	1.152349	0.005000	2.777845	-8.970438	-1.310442	-0.550746	0.067164	-0.383333	0.106544	0.051221	-0.000588
226	1.157349	0.005000	2.814885	-8.907480	-1.193745	-0.550778	0.067259	-0.383510	0.123003	0.053699	-0.008066
227	1.162349	0.005000	2.825280	-8.799891	-1.132894	-0.550891	0.067598	-0.384141	0.135788	0.050770	0.003236
228	1.167349	0.005000	2.882630	-8.865219	-1.080610	-0.551004	0.067937	-0.384771	0.132480	0.064792	0.006225
229	1.172349	0.005000	2.884628	-8.888348	-1.021216	-0.551117	0.068276	-0.385402	0.129451	0.051633	0.008323
230	1.177349	0.005000	2.844954	-8.927154	-0.941868	-0.551230	0.068615	-0.386033	0.113626	0.056566	0.005437
231	1.182349	0.005000	2.804583	-9.006657	-0.844737	-0.551343	0.068954	-0.386664	0.109886	0.048050	-0.003137
232	1.187349	0.005000	2.764321	-8.925001	-0.884999	-0.551456	0.069292	-0.387294	0.107322	0.046827	0.012942
233	1.192349	0.005000	2.842243	-9.076090	-0.863280	-0.551569	0.069631	-0.387925	0.106911	0.053697	0.001603
234	1.197349	0.005000	2.871878	-9.253282	-0.855922	-0.551682	0.069970	-0.388556	0.105955	0.036981	0.014229
235	1.202349	0.005000	2.795054	-9.314993	-0.817942	-0.551795	0.070309	-0.389186	0.108697	0.043979	0.015608
236	1.207349	0.005000	2.814792	-9.310368	-0.667080	-0.551908	0.070648	-0.389817	0.100888	0.026805	-0.003290
237	1.212349	0.005000	2.929646	-9.182160	-0.627840	-0.552021	0.070987	-0.390448	0.076983	0.017828	-0.000194
238	1.217349	0.005000	2.864520	-9.248156	-0.640324	-0.552134	0.071326	-0.391078	0.059589	0.005250	-0.012551
239	1.222349	0.005000	2.801702	-9.209611	-0.588600	-0.552254	0.071634	-0.391667	0.048830	-0.000119	-0.010575
240	1.227349	0.005000	2.825280	-9.228340	-0.592426	-0.552480	0.071522	-0.391667	0.025952	-0.003411	-0.010181
241	1.232349	0.005000	2.795905	-9.152785	-0.784800	-0.552706	0.071409	-0.391667	0.022420	-0.005225	-0.007948
242	1.237349	0.005000	2.804444	-9.209766	-0.796434	-0.552931	0.071296	-0.391667	0.000612	0.009801	-0.021350
243	1.242349	0.005000	2.825280	-9.190340	-0.745560	-0.553157	0.071183	-0.391667	0.001466	0.003960	-0.024740
244	1.247349	0.005000	2.857363	-9.175003	-0.738403	-0.553383	0.071070	-0.391667	-0.004331	0.010737	-0.009379
245	1.252349	0.005000	2.871119	-9.103680	-0.752159	-0.553609	0.070957	-0.391667	-0.010490	0.030616	-0.025388
246	1.257349	0.005000	2.898181	-9.142920	-0.745560	-0.553835	0.070844	-0.391667	-0.003109	0.017653	-0.010672
247	1.262349	0.005000	2.825280	-9.196034	-0.754810	-0.554060	0.070731	-0.391667	-0.003129	0.027408	-0.018612
248	1.267349	0.005000	2.821268	-9.154957	-0.788812	-0.554286	0.070618	-0.391667	0.000487	0.026387	-0.018421
249	1.272349	0.005000	2.861530	-9.179170	-0.821050	-0.554512	0.070505	-0.391667	0.017441	0.031880	-0.003973
250	1.277349	0.005000	2.750735	-9.105647	-0.745560	-0.554738	0.070392	-0.391667	0.025740	0.040054	-0.013394
251	1.282349	0.005000	2.902335	-9.100830	-0.825465	-0.554964	0.070279	-0.391667	0.038693	0.036690	-0.015089
252	1.287349	0.005000	2.903760	-9.104486	-0.862877	-0.555189	0.070166	-0.391667	0.029964	0.043782	-0.008784
253	1.292349	0.005000	2.903760	-9.104919	-0.785420	-0.555128	0.070053	-0.391453	0.025517	0.048577	-0.012078
254	1.297349	0.005000	2.750286	-9.065602	-0.862118	-0.555015	0.069941	-0.391201	0.012328	0.054352	-0.013853
255	1.302349	0.005000	2.786040	-9.036122	-0.826224	-0.554903	0.069828	-0.390949	0.005798	0.048241	-0.010239
256	1.307349	0.005000	2.895435	-9.140145	-0.706320	-0.554790	0.069715	-0.390697	-0.016644	0.047313	-0.012179
257	1.312349	0.005000	2.825280	-9.107444	-0.781036	-0.554677	0.069602	-0.390445	-0.031183	0.050276	-0.018082
258	1.317349	0.005000	2.820507	-9.103680	-0.814493	-0.554564	0.069489	-0.390193	-0.039030	0.032780	-0.007446
259	1.322349	0.005000	2.864520	-9.076028	-0.739766	-0.554451	0.069376	-0.389940	-0.056341	0.044967	-0.017200
260	1.327349	0.005000	2.759503	-9.110032	-0.699968	-0.554338	0.069263	-0.389688	-0.055619	0.030915	-0.012053
261	1.332349	0.005000	2.825280	-9.064440	-0.681828	-0.554225	0.069151	-0.389436	-0.080225	0.019744	-0.006440
262	1.337349	0.005000	2.918957	-9.166132	-0.635854	-0.554112	0.069038	-0.389184	-0.089439	0.024558	-0.014841
263	1.342349	0.005000	2.843157	-9.142920	-0.697381	-0.553999	0.068925	-0.388932	-0.087383	0.012451	-0.006823
264	1.347349	0.005000	2.835241	-9.113641	-0.735599	-0.553886	0.068812	-0.388679	-0.103045	0.010774	-0.013500
265	1.352349	0.005000	2.814647	-9.142920	-0.813407	-0.553773	0.068699	-0.388427	-0.113684	0.006099	-0.017116
266	1.357349	0.005000	2.769851	-9.131394	-0.835566	-0.553731	0.068728	-0.388333	-0.101449	0.005804	-0.015860
267	1.362349	0.005000	2.786040	-9.103680	-1.021836	-0.553731	0.068841	-0.388333	-0.102792	0.005507	-0.018875
268	1.367349	0.005000	2.734701	-8.999531	-0.929661	-0.553731	0.068954	-0.388333	-0.094694	0.009997	-0.011217
269	1.372349	0.005000	2.746800	-9.064440	-1.017125	-0.553731	0.069066	-0.388333	-0.096013	0.008354	-0.027503
270	1.377349	0.005000	2.834250	-8.961855	-1.098720	-0.553731	0.069179	-0.388333	-0.090499	0.013840	-0.018957
271	1.382349	0.005000	2.825280	-8.891599	-1.075361	-0.553731	0.069292	-0.388333	-0.076651	0.020458	-0.025121
272	1.387349	0.005000	2.780231	-9.031009	-1.076195	-0.553731	0.069405	-0.388333	-0.070224	0.020743	-0.026310
273	1.392349	0.005000	2.768302	-9.007462	-1.137960	-0.553731	0.069518	-0.388333	-0.069406	0.024020	-0.019670
274	1.397349	0.005000	2.827960	-9.004240	-1.119680	-0.553731	0.069631	-0.388333	-0.065850	0.031086	-0.023002
275	1.402349	0.005000	2.843947	-8.985960	-1.177200	-0.553731	0.069744	-0.388333	-0.058408	0.015272	-0.018823
276	1.407349	0.005000	2.767832	-8.946720	-1.097779	-0.553731	0.069857	-0.388333	-0.062665	0.028030	-0.020464
277	1.412349	0.005000	2.822786	-8.928347	-1.195573	-0.553731	0.069970	-0.388333	-0.061120	0.026916	-0.019879
278	1.417349	0.005000	2.869059	-8.877318	-1.120610	-0.553731	0.070083	-0.388333	-0.055348	0.029483	-0.011872
279	1.422349	0.005000	2.936416	-8.891152	-1.154288	-0.553731	0.070009	-0.388229	-0.045623	0.039021	-0.018777
280	1.427349	0.005000	2.919530	-8.891710	-1.161430	-0.553731	0.069671	-0.387977	-0.039879	0.035082	-0.010003
281	1.432349	0.005000	2.928237	-8.917193	-1.167487	-0.553731	0.069332	-0.387725	-0.046553	0.051171	-0.015187
282	1.437349	0.005000	2.878261	-8.972219	-1.269421	-0.553731	0.068993	-0.387472	-0.045394	0.041506	-0.019281
283	1.442349	0.005000	2.968742	-8.894609	-1.177200	-0.553731	0.068654	-0.387220	-0.038453	0.050512	-0.020365
284	1.447349	0.005000	2.918678	-8.985960	-1.150121	-0.553731	0.068315	-0.386968	-0.029490	0.035398	-0.020338
285	1.452349	0.005000	2.825280	-8.957858	-1.205302	-0.553731	0.067977	-0.386716	-0.028678	0.040257	-0.021321
286	1.457349	0.005000	2.961048	-9.014604	-1.227036	-0.553731	0.067638	-0.386463	-0.020963	0.051586	-0.029977
287	1.462349	0.005000	2.894186	-8.917054	-1.186774	-0.553731	0.067299	-0.386211	-0.023965	0.043431	-0.011477
288	1.467349	0.005000	2.855969	-8.977409	-1.207889	-0.553731	0.066960	-0.385959	-0.027968	0.044874	-0.017367
289	1.472349	0.005000	2.864520	-8.954342	-1.201196	-0.553731	0.066621	-0.385707	-0.020104	0.036706	-0.019989
290	1.477349	0.005000	2.871507	-8.946720	-0.909507	-0.553731	0.066283	-0.385455	-0.013605	0.042784	-0.013292
291	1.482349	0.005000	2.870484	-8.974032	-0.896556	-0.553731	0.065944	-0.385202	-0.020331	0.041196	-0.026387
292	1.487349	0.005000	2.909169	-8.975143	-0.975591	-0.554021	0.065493	-0.384701	-0.004198	0.024968	-0.004814
293	1.492349	0.005000	2.899360	-8.907480	-0.985400	-0.555488	0.064590	-0.383188	-0.005008	0.027881	-0.010578
294	1.497349	0.005000	2.900342	-8.946720	-1.098720	-0.556955	0.063688	-0.381676	-0.005236	0.024248	-0.015847
295	1.502349	0.005000	2.903760	-8.988779	-1.129502	-0.558423	0.062785	-0.380164	0.021609	0.026956	-0.010686
296	1.507349	0.005000	2.868114	-9.026997	-0.981000	-0.559890	0.061882	-0.378652	0.008102	0.033623	-0.022899
297	1.512349	0.005000	2.709128	-9.025984	-0.944113	-0.561357	0.060979	-0.377140	0.010713	0.044302	-0.019484
298	1.517349	0.005000	2.903760	-9.064440	-0.942225	-0.562824	0.060076	-0.375628	0.017002	0.044150	-0.024273
299	1.522349	0.005000	2.865310	-8.949090	-1.058690	-0.564291	0.059173	-0.374116	0.017988	0.030901	-0.012566
300	1.527349	0.005000	2.860895	-9.137482	-0.906145	-0.565758	0.058271	-0.372603	0.020350	0.034994	-0.013561
301	1.532349	0.005000	2.940645	-9.027555	-0.860925	-0.567225	0.057368	-0.371091	0.032415	0.035287	-0.017441
302	1.537349	0.005000	2.867897	-9.025200	-0.948514	-0.568692	0.056465	-0.369579	0.017796	0.037694	-0.018578
303	1.542349	0.005000	2.908160	-9.134121	-0.941760	-0.570159	0.055562	-0.368067	0.030719	0.039309	-0.004567
304	1.547349	0.005000	2.903760	-9.030142	-0.902520	-0.571626	0.054659	-0.366555	0.034330	0.026751	-0.008252
305	1.552349	0.005000	2.897796	-8.985960	-0.878663	-0.573093	0.053756	-0.365043	0.020609	0.032440	-0.018133
306	1.557349	0.005000	2.910360	-9.051240	-0.791400	-0.573792	0.053841	-0.365368	0.025544	0.028042	-0.016361
307	1.562349	0.005000	2.864520	-9.032744	-0.846673	-0.574470	0.053954	-0.365746	0.034529	0.024089	-0.011967
308	1.567349	0.005000	2.816713	-9.165026	-0.824040	-0.575147	0.054067	-0.366124	0.014580	0.029723	-0.020216
309	1.572349	0.005000	2.765244	-9.124476	-0.814818	-0.575825	0.054180	-0.366502	0.014972	0.025969	-0.000029
310	1.577349	0.005000	2.883497	-9.054309	-0.774669	-0.576502	0.054292	-0.366880	0.001592	0.025220	-0.013003
311	1.582349	0.005000	2.931846	-9.120612	-0.835194	-0.577180	0.054405	-0.367259	-0.002051	0.028558	-0.003395
312	1.587349	0.005000	2.892064	-9.221400	-0.796496	-0.577857	0.054518	-0.367637	-0.001151	0.012408	-0.007379
313	1.592349	0.005000	2.864520	-9.064440	-0.745560	-0.578534	0.054631	-0.368015	-0.009796	0.022481	-0.008314
314	1.597349	0.005000	2.982240	-9.168725	-0.914889	-0.579212	0.054744	-0.368393	-0.004130	0.020782	-0.011766
315	1.602349	0.005000	2.903760	-9.192822	-0.991662	-0.579889	0.054857	-0.368771	-0.006925	0.025303	-0.007841
316	1.607349	0.005000	2.927694	-9.095051	-0.902520	-0.580567	0.054970	-0.369150	-0.012197	0.024181	-0.001275
317	1.612349	0.005000	2.943000	-9.009147	-0.807987	-0.581244	0.055083	-0.369528	-0.031350	0.022257	-0.018715
318	1.617349	0.005000	2.836697	-9.098211	-0.779331	-0.581922	0.055196	-0.369906	-0.035795	0.010755	-0.004463
319	1.622349	0.005000	2.885852	-9.125012	-0.866704	-0.581581	0.055648	-0.370853	-0.047585	0.016698	-0.006206
320	1.627349	0.005000	2.823901	-9.083371	-0.825419	-0.580903	0.056213	-0.371987	-0.047348	0.017459	-0.017800
321	1.632349	0.005000	2.786040	-9.064440	-0.862986	-0.580226	0.056777	-0.373122	-0.037353	0.004701	-0.003760
322	1.637349	0.005000	2.864520	-9.124175	-0.861529	-0.579548	0.057342	-0.374257	-0.043238	0.022875	-0.015342
323	1.642349	0.005000	2.728858	-9.067796	-0.998942	-0.578871	0.057906	-0.375391	-0.034371	0.011156	-0.002490
324	1.647349	0.005000	2.960180	-9.042380	-1.042300	-0.578194	0.058471	-0.376526	-0.027325	0.015520	-0.013378
325	1.652349	0.005000	2.933767	-9.071365	-1.059480	-0.577516	0.059035	-0.377661	-0.021583	0.021879	-0.019311
326	1.657349	0.005000	2.873127	-8.985960	-1.013530	-0.576839	0.059600	-0.378795	-0.023860	0.014334	-0.005181
327	1.662349	0.005000	2.775986	-9.122812	-0.995593	-0.576161	0.060164	-0.379930	-0.010133	0.013717	-0.005598
328	1.667349	0.005000	2.929429	-9.050869	-1.045909	-0.575484	0.060729	-0.381064	-0.008552	0.020720	0.000411
329	1.672349	0.005000	2.878363	-8.985960	-1.046781	-0.574806	0.061293	-0.382199	-0.020066	0.026704	-0.012258
330	1.677349	0.005000	2.864520	-9.064440	-1.020240	-0.574129	0.061858	-0.383334	-0.010731	0.017698	-0.002945
331	1.682349	0.005000	2.921064	-9.070776	-1.053144	-0.573451	0.062422	-0.384468	-0.015241	0.030259	-0.015388
332	1.687349	0.005000	2.806892	-8.977997	-1.038628	-0.572354	0.063107	-0.385201	-0.005317	0.025664	-0.018534
333	1.692349	0.005000	2.864520	-8.967153	-0.981000	-0.570886	0.063897	-0.385579	0.012113	0.015894	-0.001210
334	1.697349	0.005000	2.856139	-8.946720	-1.020240	-0.569419	0.064687	-0.385957	0.022323	0.037010	-0.020528
335	1.702349	0.005000	2.786040	-8.938881	-0.918244	-0.567951	0.065478	-0.386336	0.042430	0.019145	-0.009094
336	1.707349	0.005000	2.871336	-8.895505	-0.772825	-0.566483	0.066268	-0.386714	0.021598	0.014261	-0.014689
337	1.712349	0.005000	2.897966	-9.070234	-0.975206	-0.565016	0.067058	-0.387092	0.027271	0.007734	-0.020921
338	1.717349	0.005000	2.864520	-9.119435	-0.926005	-0.563548	0.067848	-0.387470	0.038203	0.031111	0.004877
339	1.722349	0.005000	3.004563	-9.103680	-0.784800	-0.562080	0.068639	-0.387848	-0.013085	0.039101	-0.011196
340	1.727349	0.005000	2.828525	-9.021955	-0.797781	-0.560613	0.069429	-0.388227	-0.014075	0.006084	-0.007855
341	1.732349	0.005000	2.903760	-9.064440	-0.983649	-0.559145	0.070219	-0.388605	-0.030089	0.002427	-0.005706
342	1.737349	0.005000	2.828533	-9.102053	-1.173947	-0.557677	0.071009	-0.388983	-0.033939	-0.000664	-0.005786
343	1.742349	0.005000	2.864520	-9.063828	-1.179035	-0.556210	0.071799	-0.389361	0.000476	0.001051	-0.010988
344	1.747349	0.005000	2.864396	-9.025200	-1.294796	-0.554742	0.072590	-0.389739	0.070198	0.003053	-0.016639
345	1.752349	0.005000	2.824320	-9.063480	-1.369558	-0.553696	0.073029	-0.389922	0.126128	0.014310	-0.008829
346	1.757349	0.005000	2.791989	-9.027183	-1.216440	-0.553583	0.072690	-0.389669	0.162908	0.032626	-0.020409
347	1.762349	0.005000	2.788596	-9.098567	-1.027909	-0.553470	0.072351	-0.389417	0.158328	0.019879	-0.020589
348	1.767349	0.005000	2.825280	-9.028748	-0.791895	-0.553357	0.072013	-0.389165	0.097394	0.028817	-0.013666
349	1.772349	0.005000	2.751370	-9.152060	-0.597740	-0.553244	0.071674	-0.388913	0.031266	0.025083	-0.011331
350	1.777349	0.005000	2.830392	-9.142920	-0.505008	-0.553132	0.071335	-0.388661	-0.023225	0.016533	-0.000995
351	1.782349	0.005000	2.891491	-9.136785	-0.576331	-0.553019	0.070997	-0.388409	-0.043704	0.007269	-0.016586
352	1.787349	0.005000	2.864520	-9.150077	-0.784800	-0.552906	0.070658	-0.388157	-0.041070	-0.015849	0.003876
353	1.792349	0.005000	2.762414	-9.166546	-0.965386	-0.552793	0.070319	-0.387905	-0.013896	-0.005861	-0.012469
354	1.797349	0.005000	2.777303	-9.090652	-1.072508	-0.552680	0.069981	-0.387653	0.015810	-0.004441	-0.015437
355	1.802349	0.005000	2.845001	-9.054680	-1.177200	-0.552567	0.069642	-0.387400	0.044281	0.005085	-0.004619
356	1.807349	0.005000	2.835582	-8.996262	-1.109022	-0.552454	0.069304	-0.387148	0.073506	0.025455	-0.014806
357	1.812349	0.005000	2.864520	-8.952777	-0.925169	-0.552342	0.068965	-0.386896	0.072124	0.033570	-0.018798
358	1.817349	0.005000	2.916107	-9.066640	-0.858880	-0.552270	0.068647	-0.386667	0.049828	0.029320	-0.021896
359	1.822349	0.005000	2.838169	-9.090218	-0.718636	-0.552608	0.068534	-0.386667	0.035003	0.017390	-0.013724
360	1.827349	0.005000	2.825280	-9.064440	-0.796217	-0.552947	0.068421	-0.386667	0.010690	0.012763	-0.016833
361	1.832349	0.005000	2.786040	-8.990618	-0.799433	-0.553286	0.068308	-0.386667	-0.001042	0.004028	-0.017622
362	1.837349	0.005000	2.755088	-9.072728	-0.745560	-0.553624	0.068195	-0.386667	0.001024	-0.000805	-0.010906
363	1.842349	0.005000	2.779797	-9.103680	-0.768302	-0.553963	0.068082	-0.386667	0.001725	0.010405	-0.019209
364	1.847349	0.005000	2.768519	-9.064440	-0.767279	-0.554302	0.067969	-0.386667	-0.001122	0.005893	-0.011845
365	1.852349	0.005000	2.840276	-9.043279	-0.766721	-0.554640	0.067856	-0.386667	0.000608	0.017487	-0.016578
366	1.857349	0.005000	2.767977	-9.084579	-0.825078	-0.554979	0.067743	-0.386667	-0.001178	0.015054	-0.013701
367	1.862349	0.005000	2.824288	-9.162044	-0.922636	-0.555318	0.067630	-0.386667	-0.004545	0.010862	-0.005039
368	1.867349	0.005000	2.845946	-9.163586	-0.826131	-0.555656	0.067517	-0.386667	-0.016854	0.017021	-0.017299
369	1.872349	0.005000	2.921312	-9.125368	-0.845728	-0.555995	0.067404	-0.386667	-0.010959	0.016273	-0.011521
370	1.877349	0.005000	3.004951	-9.136739	-0.745560	-0.556334	0.067292	-0.386667	-0.022102	0.028636	-0.017525
371	1.882349	0.005000	2.990962	-9.041187	-0.831306	-0.556672	0.067179	-0.386667	-0.031578	0.015035	-0.020031
372	1.887349	0.005000	3.030790	-9.079405	-0.809075	-0.556421	0.067164	-0.386667	-0.022946	0.006532	-0.013596
373	1.892349	0.005000	2.996182	-9.179573	-0.720262	-0.556083	0.067164	-0.386667	-0.026756	0.013934	-0.013230
374	1.897349	0.005000	2.982240	-9.129520	-0.823080	-0.555744	0.067164	-0.386667	-0.025705	0.018294	-0.012539
375	1.902349	0.005000	2.916138	-9.128435	-0.782693	-0.555405	0.067164	-0.386667	-0.038506	0.023579	-0.016786
376	1.907349	0.005000	3.055546	-9.126391	-0.840569	-0.555067	0.067164	-0.386667	-0.045518	0.021578	-0.017224
377	1.912349	0.005000	3.089162	-9.121325	-0.734762	-0.554728	0.067164	-0.386667	-0.069928	0.030905	-0.028609
378	1.917349	0.005000	3.090305	-9.034979	-0.794579	-0.554389	0.067164	-0.386667	-0.074755	0.019046	-0.019980
379	1.922349	0.005000	2.864520	-9.090745	-0.824040	-0.554051	0.067164	-0.386667	-0.069180	0.023830	-0.012678
380	1.927349	0.005000	2.872731	-9.165739	-0.879701	-0.553712	0.067164	-0.386667	-0.066890	0.021131	-0.015573
381	1.932349	0.005000	2.935812	-9.182160	-1.052292	-0.553373	0.067164	-0.386667	-0.073604	0.013194	-0.000998
382	1.937349	0.005000	2.943000	-9.209069	-0.902520	-0.553035	0.067164	-0.386667	-0.084421	0.043438	-0.006753
383	1.942349	0.005000	2.948207	-9.137713	-0.936553	-0.552696	0.067164	-0.386667	-0.086492	0.039827	0.003205
384	1.947349	0.005000	2.977639	-9.186761	-0.858679	-0.552357	0.067164	-0.386667	-0.096908	0.042687	0.002695
385	1.952349	0.005000	2.903760	-9.182160	-0.820461	-0.552166	0.067237	-0.386749	-0.106587	0.044001	-0.011578
386	1.957349	0.005000	2.946036	-9.224436	-0.938724	-0.552053	0.067350	-0.386875	-0.084048	0.033292	-0.002934
387	1.962349	0.005000	3.019466	-9.144934	-0.824040	-0.551940	0.067463	-0.387001	-0.102118	0.041884	-0.007778
388	1.967349	0.005000	2.904751	-9.220409	-0.826023	-0.551827	0.067576	-0.387127	-0.108113	0.030559	-0.007189
389	1.972349	0.005000	2.903326	-9.143354	-0.783932	-0.551714	0.067689	-0.387253	-0.099039	0.022818	-0.007439
390	1.977349	0.005000	2.864520	-9.143493	-0.822320	-0.551601	0.067802	-0.387379	-0.098347	0.011243	-0.006188
391	1.982349	0.005000	2.823684	-9.182160	-0.902520	-0.551488	0.067915	-0.387505	-0.089414	0.020684	-0.006665
392	1.987349	0.005000	2.786040	-9.066593	-0.946067	-0.551375	0.068028	-0.387631	-0.071285	0.028711	-0.008592
393	1.992349	0.005000	2.789216	-8.953072	-0.908872	-0.551262	0.068141	-0.387757	-0.065177	0.031481	-0.008341
394	1.997349	0.005000	2.786040	-8.915876	-0.945958	-0.551149	0.068254	-0.387883	-0.063055	0.062365	-0.017857
395	2.002349	0.005000	2.825280	-8.981220	-0.941760	-0.551036	0.068367	-0.388009	-0.066286	0.053270	-0.007989
396	2.007349	0.005000	2.858757	-8.840526	-1.002951	-0.550923	0.068480	-0.388135	-0.065248	0.050979	0.001843
397	2.012349	0.005000	2.806396	-8.875025	-0.955331	-0.550810	0.068593	-0.388261	-0.069895	0.056870	-0.002882
398	2.017349	0.005000	2.793458	-8.875658	-0.824040	-0.550843	0.068511	-0.388224	-0.079073	0.053754	0.008809
399	2.022349	0.005000	2.833630	-9.008500	-0.871630	-0.551069	0.068172	-0.387972	-0.083102	0.064666	-0.013158
400	2.027349	0.005000	2.795412	-9.113052	-0.981000	-0.551295	0.067833	-0.387720	-0.085568	0.047624	0.005968
401	2.032349	0.005000	2.843730	-9.045990	-0.894464	-0.551521	0.067495	-0.387468	-0.094451	0.046331	-0.003950
402	2.037349	0.005000	2.903760	-9.103680	-0.948189	-0.551747	0.067156	-0.387216	-0.092716	0.040605	-0.003254
403	2.042349	0.005000	2.903760	-9.076399	-1.153281	-0.551973	0.066817	-0.386963	-0.069996	0.032751	-0.004069
404	2.047349	0.005000	2.799022	-9.090698	-1.190476	-0.552199	0.066478	-0.386711	-0.059130	0.027184	-0.011529
405	2.052349	0.005000	2.825280	-9.077980	-1.110881	-0.552424	0.066139	-0.386459	-0.046479	0.020644	-0.013990
406	2.057349	0.005000	2.810718	-9.074556	-1.094274	-0.552650	0.065800	-0.386207	-0.030042	0.010254	-0.003910
407	2.062349	0.005000	2.872610	-9.088105	-1.122385	-0.552876	0.065461	-0.385954	-0.034760	0.002591	-0.004492
408	2.067349	0.005000	2.825280	-9.103680	-1.089580	-0.553102	0.065122	-0.385702	-0.042140	0.009739	-0.011786
409	2.072349	0.005000	2.886611	-9.098738	-1.064422	-0.553328	0.064783	-0.385450	-0.051968	0.001875	-0.009947
410	2.077349	0.005000	2.843452	-9.025200	-1.077652	-0.553554	0.064445	-0.385198	-0.057859	-0.000174	0.002544
411	2.082349	0.005000	2.845806	-9.027013	-1.020240	-0.553780	0.064179	-0.385000	-0.064206	0.000999	-0.020388
412	2.087349	0.005000	2.864520	-9.005696	-1.098952	-0.554006	0.064179	-0.385000	-0.064004	-0.019981	-0.003793
413	2.092349	0.005000	2.847629	-8.847710	-1.040770	-0.554231	0.064179	-0.385000	-0.061826	-0.011116	-0.011005
414	2.097349	0.005000	2.743438	-8.946720	-1.044902	-0.554457	0.064179	-0.385000	-0.058999	-0.013307	-0.009973
415	2.102349	0.005000	2.808363	-8.946720	-1.137960	-0.554683	0.064179	-0.385000	-0.048963	-0.010375	-0.002628
416	2.107349	0.005000	2.927106	-8.939269	-1.130509	-0.554909	0.064179	-0.385000	-0.044157	0.001391	-0.010806
417	2.112349	0.005000	2.840617	-9.040537	-1.114057	-0.555135	0.064179	-0.385000	-0.022168	0.011146	-0.001385
418	2.117349	0.005000	2.825280	-8.957332	-1.088108	-0.555360	0.064179	-0.385000	-0.018709	0.020300	-0.006466
419	2.122349	0.005000	2.772733	-8.973334	-1.203133	-0.555586	0.064179	-0.385000	-0.021309	0.008982	-0.007062
420	2.127349	0.005000	2.864520	-9.064440	-1.059480	-0.555812	0.064179	-0.385000	-0.010151	0.010924	0.002642
421	2.132349	0.005000	2.786040	-9.040986	-1.004454	-0.556038	0.064179	-0.385000	-0.005544	0.011583	-0.006603
422	2.137349	0.005000	2.864520	-8.985960	-1.187905	-0.556264	0.064179	-0.385000	0.006017	0.023515	-0.006806
423	2.142349	0.005000	2.795722	-8.995642	-1.098720	-0.556489	0.064179	-0.385000	-0.002001	0.014235	-0.001368
424	2.147349	0.005000	2.834420	-8.985960	-1.071300	-0.556715	0.064179	-0.385000	-0.001532	0.012592	-0.006436
425	2.152349	0.005000	2.825280	-9.095562	-1.177200	-0.556379	0.064179	-0.385251	-0.003468	0.023141	-0.002480
426	2.157349	0.005000	2.786040	-9.096585	-1.123770	-0.556040	0.064179	-0.385503	-0.009464	0.015015	-0.006968
427	2.162349	0.005000	2.812984	-9.025200	-1.032536	-0.555701	0.064179	-0.385755	-0.017839	0.009703	-0.007642
428	2.167349	0.005000	2.830810	-9.092619	-1.076598	-0.555363	0.064179	-0.386007	-0.015102	0.012640	-0.010011
429	2.172349	0.005000	2.869028	-9.112696	-1.020240	-0.555024	0.064179	-0.386260	-0.010346	0.000973	-0.003285
430	2.177349	0.005000	2.936029	-9.100194	-0.948731	-0.554685	0.064179	-0.386512	-0.018984	0.014253	-0.020028
431	2.182349	0.005000	2.870407	-9.058553	-1.020240	-0.554347	0.064179	-0.386764	-0.016743	0.003437	-0.010834
432	2.187349	0.005000	2.899918	-9.066361	-1.059480	-0.554008	0.064179	-0.387016	-0.019072	0.002985	-0.009006
433	2.192349	0.005000	2.786939	-9.142021	-1.136163	-0.553670	0.064179	-0.387268	-0.024956	0.003121	-0.022502
434	2.197349	0.005000	2.786722	-9.064099	-1.058798	-0.553331	0.064179	-0.387520	-0.020781	0.001833	-0.012532
435	2.202349	0.005000	2.864520	-9.102317	-0.981000	-0.552992	0.064179	-0.387772	-0.007941	0.009889	-0.015451
436	2.207349	0.005000	2.902071	-8.987649	-0.982689	-0.552654	0.064179	-0.388024	-0.003385	0.011880	-0.017412
437	2.212349	0.005000	2.903760	-8.988671	-1.017529	-0.552315	0.064179	-0.388276	-0.005559	0.005052	-0.009650
438	2.217349	0.005000	2.943000	-8.943412	-1.128036	-0.552327	0.064004	-0.387746	-0.012002	-0.006849	-0.010256
439	2.222349	0.005000	2.908051	-9.095098	-1.015949	-0.552439	0.063778	-0.386990	-0.008275	0.006191	-0.015564
440	2.227349	0.005000	2.791354	-9.014573	-1.054166	-0.552552	0.063552	-0.386233	-0.001979	0.009620	-0.017896
441	2.232349	0.005000	2.864520	-9.052583	-1.038025	-0.552665	0.063326	-0.385477	0.005433	0.001326	-0.006815
442	2.237349	0.005000	2.799796	-8.875118	-1.052602	-0.552778	0.063101	-0.384721	0.003923	0.006579	-0.016775
443	2.242349	0.005000	2.793941	-8.970159	-1.122422	-0.552891	0.062875	-0.383964	0.003513	-0.008509	-0.014259
444	2.247349	0.005000	2.786040	-8.985960	-1.129413	-0.553004	0.062649	-0.383208	-0.006433	0.015248	-0.021429
445	2.252349	0.005000	2.864520	-8.995425	-1.060859	-0.553117	0.062423	-0.382451	-0.002192	0.012083	-0.021457
446	2.257349	0.005000	2.875008	-9.025200	-1.020240	-0.553229	0.062198	-0.381695	0.002495	-0.000119	-0.009372
447	2.262349	0.005000	2.753601	-8.997470	-1.110230	-0.553342	0.061972	-0.380939	0.006502	0.006979	-0.016492
448	2.267349	0.005000	2.786040	-8.985960	-1.192037	-0.553455	0.061746	-0.380182	0.005931	-0.004092	-0.009212
449	2.272349	0.005000	2.772965	-8.959795	-1.098720	-0.553568	0.061520	-0.379426	-0.001838	0.010993	-0.022294
450	2.277349	0.005000	2.682417	-9.072434	-1.126915	-0.553681	0.061294	-0.378669	0.001110	0.011469	-0.018827
451	2.282349	0.005000	2.722391	-9.034779	-1.074311	-0.553731	0.061319	-0.378893	0.020870	-0.007870	-0.009062
452	2.287349	0.005000	2.786040	-9.111565	-0.981000	-0.553731	0.061545	-0.379903	0.010226	0.003813	-0.015587
453	2.292349	0.005000	2.819440	-9.103680	-1.003540	-0.553731	0.061771	-0.380912	0.013233	0.001542	-0.007827
454	2.297349	0.005000	2.764249	-9.042649	-0.976657	-0.553731	0.061997	-0.381921	0.010687	0.006898	-0.011789
455	2.302349	0.005000	2.807016	-9.064440	-0.960024	-0.553731	0.062223	-0.382930	0.009765	0.003857	-0.016127
456	2.307349	0.005000	2.805327	-9.064440	-1.020240	-0.553731	0.062449	-0.383939	0.012155	0.010909	-0.025035
457	2.312349	0.005000	2.864520	-9.064440	-1.058101	-0.553731	0.062675	-0.384948	0.009284	0.010333	-0.018507
458	2.317349	0.005000	2.864520	-9.082570	-0.905500	-0.553731	0.062901	-0.385957	0.017043	0.003482	-0.017838
459	2.322349	0.005000	2.877378	-9.086314	-0.937252	-0.553731	0.063127	-0.386966	0.018452	0.008238	-0.012415
460	2.327349	0.005000	2.887416	-9.025200	-0.958104	-0.553731	0.063353	-0.387975	0.022307	0.004062	-0.012429
461	2.332349	0.005000	2.927199	-9.032837	-0.965199	-0.553731	0.063578	-0.388984	0.016481	0.016564	-0.022034
462	2.337349	0.005000	2.864520	-9.015518	-1.020240	-0.553731	0.063804	-0.389993	0.009504	0.004817	-0.011851
463	2.342349	0.005000	2.982240	-9.064440	-0.888764	-0.553731	0.064030	-0.391002	0.016364	0.007762	-0.005034
464	2.347349	0.005000	2.877362	-8.999159	-1.046281	-0.553731	0.064218	-0.391538	0.009476	0.011541	-0.017411
465	2.352349	0.005000	2.876712	-8.983295	-1.059480	-0.553731	0.064330	-0.391160	0.019219	-0.000915	-0.007371
466	2.357349	0.005000	2.892591	-9.103680	-1.020240	-0.553731	0.064443	-0.390781	0.020266	0.008580	-0.003710
467	2.362349	0.005000	2.864520	-9.103680	-1.066885	-0.553731	0.064556	-0.390403	0.019892	0.006375	-0.008258
468	2.367349	0.005000	2.903760	-9.094091	-0.892931	-0.553731	0.064669	-0.390025	0.030198	0.011788	-0.007494
469	2.372349	0.005000	2.903760	-8.972420	-0.950327	-0.553731	0.064782	-0.389647	0.010429	0.012291	-0.025661
470	2.377349	0.005000	2.927724	-9.064440	-0.957036	-0.553731	0.064895	-0.389269	0.008761	0.011719	-0.008698
471	2.382349	0.005000	2.917764	-9.025200	-0.909522	-0.553731	0.065008	-0.388890	0.004211	0.015550	-0.011885
472	2.387349	0.005000	2.937020	-9.025200	-0.953719	-0.553731	0.065121	-0.388512	-0.003944	0.009884	-0.016715
473	2.392349	0.005000	2.903760	-9.103680	-1.059480	-0.553731	0.065234	-0.388134	-0.007132	0.013729	-0.012128
474	2.397349	0.005000	2.894930	-9.099265	-0.898105	-0.553731	0.065347	-0.387756	0.001112	0.012568	-0.006219
475	2.402349	0.005000	2.792825	-8.989353	-0.791585	-0.553731	0.065460	-0.387378	-0.012169	0.013729	-0.018053
476	2.407349	0.005000	2.901390	-9.106050	-0.978630	-0.553731	0.065573	-0.386999	-0.016764	0.020769	-0.017359
477	2.412349	0.005000	2.865868	-9.027896	-1.021588	-0.553758	0.065617	-0.386575	-0.005332	0.017810	-0.016738
478	2.417349	0.005000	2.786846	-9.102874	-1.021851	-0.553984	0.065166	-0.385819	-0.006208	0.014050	-0.017631
479	2.422349	0.005000	2.864303	-9.142486	-1.020674	-0.554210	0.064714	-0.385062	-0.008642	0.007756	-0.012489
480	2.427349	0.005000	2.903760	-9.063201	-0.904999	-0.554436	0.064262	-0.384306	-0.009955	0.013530	-0.013202
481	2.432349	0.005000	2.755847	-9.101418	-0.939498	-0.554662	0.063811	-0.383550	-0.014793	0.012084	-0.019069
482	2.437349	0.005000	2.783221	-9.028019	-1.020240	-0.554887	0.063359	-0.382793	-0.004314	0.002547	-0.004905
483	2.442349	0.005000	2.978414	-9.103680	-1.059480	-0.555113	0.062907	-0.382037	-0.016367	0.022645	-0.021929
484	2.447349	0.005000	2.869369	-9.069289	-1.049782	-0.555339	0.062456	-0.381280	-0.003574	0.009514	-0.005069
485	2.452349	0.005000	2.864520	-9.059033	-0.947167	-0.555565	0.062004	-0.380524	0.003857	0.019247	-0.016934
486	2.457349	0.005000	2.818851	-9.090822	-1.085862	-0.555790	0.061552	-0.379768	-0.006669	0.017843	-0.017817
487	2.462349	0.005000	2.683223	-9.017749	-1.059480	-0.556016	0.061101	-0.379011	-0.000618	0.009805	-0.007932
488	2.467349	0.005000	2.777566	-9.112154	-1.020240	-0.556242	0.060649	-0.378255	-0.003784	0.022860	-0.016283
489	2.472349	0.005000	2.845558	-9.163198	-0.990481	-0.556468	0.060197	-0.377498	-0.008326	0.010529	-0.012267
490	2.477349	0.005000	2.864520	-9.122843	-0.941760	-0.556694	0.059746	-0.376742	-0.005931	0.019535	-0.010920
491	2.482349	0.005000	2.847402	-9.114741	-1.048419	-0.557632	0.059498	-0.375758	-0.006614	0.007125	-0.019027
492	2.487349	0.005000	2.837363	-8.995054	-0.872374	-0.558648	0.059272	-0.374750	-0.007412	0.007785	-0.009207
493	2.492349	0.005000	2.825280	-9.050764	-0.902520	-0.559664	0.059046	-0.373741	-0.007949	0.005786	-0.013717
494	2.497349	0.005000	2.721208	-9.101976	-0.943464	-0.560680	0.058820	-0.372732	-0.010135	0.009609	-0.016437
495	2.502349	0.005000	2.835179	-9.089010	-0.990899	-0.561696	0.058594	-0.371724	-0.005586	0.008951	-0.011445
496	2.507349	0.005000	2.801733	-9.025200	-1.067334	-0.562712	0.058369	-0.370715	0.002337	0.009844	-0.003338
497	2.512349	0.005000	2.802275	-9.048205	-1.089255	-0.563728	0.058143	-0.369707	-0.003374	0.016672	-0.007733
498	2.517349	0.005000	2.842538	-9.064440	-1.020240	-0.564744	0.057917	-0.368698	-0.002362	0.013968	-0.015456
499	2.522349	0.005000	2.768225	-9.125105	-1.016630	-0.565760	0.057691	-0.367689	-0.002102	0.011588	-0.011732
500	2.527349	0.005000	2.864520	-9.122502	-0.962178	-0.566776	0.057465	-0.366681	-0.007619	0.027305	-0.011987
501	2.532349	0.005000	2.844892	-9.162564	-1.059496	-0.567792	0.057240	-0.365672	-0.007082	0.011425	-0.006347
502	2.537349	0.005000	2.806442	-9.124082	-0.999838	-0.568809	0.057014	-0.364664	-0.013150	0.019344	-0.011403
503	2.542349	0.005000	2.860910	-9.085865	-0.941760	-0.569825	0.056788	-0.363655	-0.009810	0.015984	-0.011105
504	2.547349	0.005000	2.808279	-9.036963	-0.975762	-0.569611	0.056716	-0.364020	-0.007140	0.008865	-0.002357
505	2.552349	0.005000	2.825280	-9.087429	-1.072958	-0.568821	0.056716	-0.365028	-0.010131	0.015750	-0.006743
506	2.557349	0.005000	2.855736	-8.946720	-1.013796	-0.568030	0.056716	-0.366037	-0.005053	0.013452	-0.009486
507	2.562349	0.005000	2.939095	-8.975483	-0.991477	-0.567240	0.056716	-0.367045	-0.008765	0.015048	-0.014692
508	2.567349	0.005000	2.825280	-9.038864	-1.086807	-0.566450	0.056716	-0.368054	-0.008524	0.014738	-0.009134
509	2.572349	0.005000	2.798681	-9.037841	-0.981000	-0.565659	0.056716	-0.369063	-0.013933	0.020382	-0.011736
510	2.577349	0.005000	2.852762	-9.036958	-0.953518	-0.564869	0.056716	-0.370071	-0.008562	0.011272	-0.018407
511	2.582349	0.005000	2.808171	-8.985960	-1.042371	-0.564079	0.056716	-0.371080	-0.007450	0.007981	-0.007868
512	2.587349	0.005000	2.893706	-9.094602	-1.097744	-0.563289	0.056716	-0.372089	-0.018450	0.024023	-0.017104
513	2.592349	0.005000	2.774219	-9.124640	-1.020240	-0.562498	0.056716	-0.373097	-0.010530	0.005039	0.004026
514	2.597349	0.005000	2.878338	-9.039018	-0.997948	-0.561708	0.056716	-0.374106	-0.025544	0.024506	-0.014277
515	2.602349	0.005000	2.713029	-9.032651	-1.003354	-0.560918	0.056716	-0.375114	-0.019489	0.013990	-0.011724
516	2.607349	0.005000	2.910269	-9.116697	-1.046463	-0.560127	0.056716	-0.376123	-0.013715	0.014304	-0.011319
517	2.612349	0.005000	2.876294	-9.131146	-1.020240	-0.559441	0.057080	-0.377015	-0.017520	0.015858	-0.013903
518	2.617349	0.005000	2.894031	-9.108544	-0.981000	-0.558877	0.057870	-0.377772	-0.012708	0.014448	-0.000374
519	2.622349	0.005000	2.786040	-9.135236	-0.973316	-0.558312	0.058661	-0.378528	-0.017899	0.022397	-0.019146
520	2.627349	0.005000	2.867820	-9.103680	-0.974401	-0.557748	0.059451	-0.379285	-0.018351	0.018177	-0.016048
521	2.632349	0.005000	2.827557	-9.101403	-0.985555	-0.557183	0.060241	-0.380041	-0.015179	0.013343	-0.001620
522	2.637349	0.005000	2.902505	-9.027710	-0.940505	-0.556619	0.061032	-0.380797	-0.014430	0.026205	-0.024716
523	2.642349	0.005000	2.786040	-9.063015	-0.903945	-0.556054	0.061822	-0.381554	-0.008374	0.014535	-0.010916
524	2.647349	0.005000	2.786040	-9.024890	-0.981000	-0.555490	0.062612	-0.382310	-0.007960	0.015830	-0.011983
525	2.652349	0.005000	2.786040	-9.103680	-0.981000	-0.554926	0.063402	-0.383067	-0.015854	0.022863	-0.018829
526	2.657349	0.005000	2.859811	-9.101325	-1.130896	-0.554361	0.064193	-0.383823	-0.021720	0.017808	-0.018248
527	2.662349	0.005000	2.791865	-9.106592	-0.908345	-0.553797	0.064983	-0.384580	-0.013790	0.004168	-0.014553
528	2.667349	0.005000	2.821345	-9.111550	-1.102655	-0.553232	0.065773	-0.385336	-0.012796	0.013117	-0.008352
529	2.672349	0.005000	2.933116	-9.250756	-0.922287	-0.552668	0.066564	-0.386092	-0.014292	0.014616	-0.017570
530	2.677349	0.005000	2.870019	-9.109179	-0.902520	-0.552402	0.067055	-0.386334	-0.020276	0.003289	-0.002703
531	2.682349	0.005000	2.753322	-9.169116	-1.046436	-0.553079	0.066604	-0.384947	-0.009888	0.013974	-0.011288
532	2.687349	0.005000	2.778496	-9.158009	-1.067024	-0.553757	0.066152	-0.383560	-0.012893	0.009776	-0.011160
533	2.692349	0.005000	2.864520	-9.033287	-0.926780	-0.554434	0.065701	-0.382173	-0.013378	0.014602	-0.011314
534	2.697349	0.005000	2.804258	-9.073549	-1.041262	-0.555111	0.065249	-0.380786	-0.008596	0.015552	-0.031177
535	2.702349	0.005000	2.717691	-9.084703	-1.021526	-0.555789	0.064798	-0.379400	-0.006858	0.001617	-0.005001
536	2.707349	0.005000	2.728907	-9.007307	-1.009566	-0.556466	0.064346	-0.378013	-0.010791	0.016631	-0.021060
537	2.712349	0.005000	2.825280	-9.064440	-1.126264	-0.557143	0.063894	-0.376626	-0.005769	0.015427	-0.016658
538	2.717349	0.005000	2.851801	-9.012481	-0.953394	-0.557821	0.063443	-0.375239	-0.000380	0.013539	-0.015356
539	2.722349	0.005000	2.760076	-9.077128	-0.915796	-0.558498	0.062991	-0.373852	-0.020876	0.018785	-0.024696
540	2.727349	0.005000	2.914422	-9.014538	-0.966711	-0.559175	0.062540	-0.372466	-0.015593	0.015140	-0.014052
541	2.732349	0.005000	2.895131	-9.127614	-0.965694	-0.559853	0.062088	-0.371079	-0.011386	0.020697	-0.020541
542	2.737349	0.005000	2.872033	-9.080303	-0.988513	-0.560530	0.061637	-0.369692	-0.021526	0.006109	-0.010839
543	2.742349	0.005000	2.853103	-9.081326	-1.037126	-0.561183	0.061201	-0.368363	-0.021938	0.017104	-0.016106
544	2.747349	0.005000	2.843188	-9.103680	-1.041572	-0.560618	0.061539	-0.369876	-0.009384	0.004097	-0.010806
545	2.752349	0.005000	2.885310	-9.045990	-1.020240	-0.560054	0.061878	-0.371389	-0.014119	0.019862	-0.014321
546	2.757349	0.005000	2.962178	-9.044673	-1.019946	-0.559489	0.062217	-0.372902	-0.017760	0.017666	-0.023826
547	2.762349	0.005000	2.845543	-9.045463	-0.905092	-0.558925	0.062556	-0.374415	-0.005606	0.000870	-0.016441
548	2.767349	0.005000	2.788875	-9.121883	-0.860445	-0.558360	0.062894	-0.375927	-0.013629	0.017471	-0.017232
549	2.772349	0.005000	2.842460	-9.103680	-0.993300	-0.557796	0.063233	-0.377440	-0.000093	0.002506	-0.024740
550	2.777349	0.005000	2.909755	-9.103680	-1.053485	-0.557231	0.063572	-0.378953	-0.005590	0.014216	-0.022842
551	2.782349	0.005000	2.927400	-9.001560	-1.106760	-0.556667	0.063911	-0.380466	-0.017998	0.024695	-0.023922
552	2.787349	0.005000	2.864520	-9.020560	-0.971296	-0.556102	0.064249	-0.381979	-0.019985	0.014360	-0.006866
553	2.792349	0.005000	2.864520	-9.011165	-1.006205	-0.555538	0.064588	-0.383492	-0.022321	0.021186	-0.025078
554	2.797349	0.005000	2.851507	-9.038213	-1.007227	-0.554973	0.064927	-0.385004	-0.026795	0.012633	-0.011217
555	2.802349	0.005000	2.800339	-9.078739	-1.020240	-0.554409	0.065265	-0.386517	-0.023941	0.018550	-0.021416
556	2.807349	0.005000	2.864520	-8.969616	-0.953208	-0.553844	0.065604	-0.388030	-0.021426	0.015600	-0.014152
557	2.812349	0.005000	2.864520	-9.111643	-1.020240	-0.553731	0.065853	-0.388434	-0.021983	0.010439	-0.011163
558	2.817349	0.005000	3.011596	-9.015611	-0.990884	-0.553731	0.066079	-0.388560	-0.013889	0.010195	-0.022070
559	2.822349	0.005000	2.925278	-9.182160	-0.981000	-0.553731	0.066304	-0.388686	-0.012423	0.005097	-0.016285
560	2.827349	0.005000	2.801482	-9.127055	-0.933827	-0.553731	0.066530	-0.388812	-0.020791	0.015419	-0.017726
561	2.832349	0.005000	2.778759	-9.042597	-0.981000	-0.553731	0.066756	-0.388939	-0.013143	0.012499	-0.001612
562	2.837349	0.005000	2.786040	-9.058181	-0.993517	-0.553731	0.066982	-0.389065	-0.019022	0.011254	-0.010942
563	2.842349	0.005000	2.791756	-9.047291	-1.104436	-0.553731	0.067208	-0.389191	-0.023511	0.016735	-0.017542
564	2.847349	0.005000	2.869214	-8.990654	-1.089332	-0.553731	0.067434	-0.389317	-0.006602	0.014189	-0.004687
565	2.852349	0.005000	2.974897	-9.064440	-1.169857	-0.553731	0.067660	-0.389443	-0.021616	0.016549	-0.011314
566	2.857349	0.005000	2.867649	-8.976572	-1.095591	-0.553731	0.067886	-0.389569	-0.012571	0.013165	-0.003986
567	2.862349	0.005000	2.936679	-8.909587	-1.055266	-0.553731	0.068112	-0.389695	-0.015133	0.022254	-0.016499
568	2.867349	0.005000	2.823730	-9.062890	-1.059480	-0.553731	0.068338	-0.389822	-0.019256	0.014253	-0.022588
569	2.872349	0.005000	2.786582	-8.987044	-1.136876	-0.553731	0.068563	-0.389948	-0.018734	0.012999	-0.021312
570	2.877349	0.005000	2.864040	-9.025680	-1.020720	-0.553599	0.068657	-0.389926	-0.013696	0.010499	-0.011130
571	2.882349	0.005000	2.866596	-9.025200	-0.979962	-0.553373	0.068657	-0.389800	-0.007009	0.012513	-0.013544
572	2.887349	0.005000	2.940940	-9.062380	-0.939700	-0.553147	0.068657	-0.389674	-0.016362	0.021933	-0.021671
573	2.892349	0.005000	2.901157	-9.027803	-0.944363	-0.552921	0.068657	-0.389548	0.000983	0.010523	-0.021156
574	2.897349	0.005000	2.789665	-9.057190	-0.984625	-0.552695	0.068657	-0.389421	-0.004664	0.008013	-0.013337
575	2.902349	0.005000	2.864520	-9.037857	-0.968343	-0.552469	0.068657	-0.389295	-0.022048	0.018754	-0.024626
576	2.907349	0.005000	2.859330	-9.048871	-1.025430	-0.552243	0.068657	-0.389169	-0.007941	0.007636	-0.007330
577	2.912349	0.005000	2.792252	-8.952932	-1.059480	-0.552017	0.068657	-0.389043	-0.009606	0.018661	-0.024711
578	2.917349	0.005000	2.871290	-9.044131	-1.112260	-0.551792	0.068657	-0.388917	-0.014318	0.004793	-0.016561
579	2.922349	0.005000	2.864520	-9.064440	-1.035824	-0.551566	0.068657	-0.388791	-0.007660	0.014265	-0.016653
580	2.927349	0.005000	2.903760	-9.025200	-1.090282	-0.551340	0.068657	-0.388665	0.006128	0.018307	-0.018307
581	2.932349	0.005000	2.914929	-9.114849	-0.969831	-0.551114	0.068657	-0.388538	-0.000100	0.013588	-0.018440
582	2.937349	0.005000	2.864520	-9.006719	-0.931381	-0.550888	0.068657	-0.388412	-0.000374	0.011822	-0.022719
583	2.942349	0.005000	2.808844	-8.946720	-0.992402	-0.550746	0.068573	-0.388052	0.001222	0.003666	-0.019954
584	2.947349	0.005000	2.813336	-9.076384	-0.941760	-0.550746	0.068347	-0.387295	-0.001482	0.015939	-0.015316
585	2.952349	0.005000	2.799347	-9.077747	-0.994307	-0.550746	0.068122	-0.386539	0.003892	0.005862	-0.006311
586	2.957349	0.005000	2.837168	-9.064440	-1.061268	-0.550746	0.067896	-0.385783	-0.005826	0.017598	-0.007927
587	2.962349	0.005000	2.722091	-9.074618	-1.044949	-0.550746	0.067670	-0.385026	-0.010370	0.016254	-0.020078
588	2.967349	0.005000	2.825280	-9.103680	-1.059480	-0.550746	0.067444	-0.384270	0.001833	0.005681	-0.001482
589	2.972349	0.005000	2.841856	-8.996448	-1.048992	-0.550746	0.067218	-0.383513	-0.008836	0.015205	-0.027600
590	2.977349	0.005000	2.847386	-9.003094	-1.199306	-0.550746	0.066993	-0.382757	-0.012253	0.009398	-0.013504
591	2.982349	0.005000	2.964084	-9.004116	-1.095792	-0.550746	0.066767	-0.382001	-0.007341	0.017374	-0.008686
592	2.987349	0.005000	2.784645	-9.025200	-1.018845	-0.550746	0.066541	-0.381244	-0.015081	0.019853	-0.014596
593	2.992349	0.005000	2.864520	-9.044921	-1.000318	-0.550746	0.066315	-0.380488	-0.011902	0.019236	-0.008678
594	2.997349	0.005000	2.825280	-8.985960	-0.939514	-0.550746	0.066089	-0.379731	-0.003597	0.023843	-0.013301
595	3.002349	0.005000	2.821949	-8.946720	-0.959715	-0.550746	0.065864	-0.378975	-0.011778	0.023376	-0.013439
596	3.007349	0.005000	2.881452	-9.059064	-1.025616	-0.550712	0.065638	-0.378448	-0.004835	0.022570	-0.010970
597	3.012349	0.005000	2.887653	-8.985960	-1.013214	-0.550486	0.065412	-0.379204	0.004452	0.023355	-0.008835
598	3.017349	0.005000	2.958368	-9.088312	-0.996368	-0.550260	0.065186	-0.379961	-0.001945	0.022716	-0.007169
599	3.022349	0.005000	2.875070	-9.039545	-0.995345	-0.550034	0.064960	-0.380718	0.003475	0.022911	-0.018613
600	3.027349	0.005000	2.825280	-9.025200	-0.994482	-0.549808	0.064734	-0.381475	0.020019	0.017374	-0.001259
601	3.032349	0.005000	2.811570	-9.117390	-1.059480	-0.549582	0.064508	-0.382231	-0.002184	0.018580	-0.015064
602	3.037349	0.005000	2.864520	-9.036943	-1.031983	-0.549356	0.064282	-0.382988	0.003516	0.015807	-0.002003
603	3.042349	0.005000	2.825280	-9.025200	-1.009376	-0.549131	0.064057	-0.383745	0.001040	0.026031	-0.008230
604	3.047349	0.005000	2.883404	-9.045556	-1.098720	-0.548905	0.063831	-0.384502	-0.011608	0.015762	-0.012830
605	3.052349	0.005000	2.834435	-9.115454	-1.089565	-0.548679	0.063605	-0.385259	0.000703	0.012085	-0.008130
606	3.057349	0.005000	2.903760	-9.120148	-1.051246	-0.548453	0.063379	-0.386015	-0.008116	0.021947	-0.016755
607	3.062349	0.005000	2.754391	-9.088498	-1.067071	-0.548227	0.063153	-0.386772	-0.004176	0.016699	-0.011512
608	3.067349	0.005000	2.877657	-9.057872	-1.046343	-0.548001	0.062927	-0.387529	0.001664	0.013238	-0.009910
609	3.072349	0.005000	2.898145	-9.064440	-0.947375	-0.547775	0.062701	-0.388286	0.007399	0.012510	-0.008161
610	3.077349	0.005000	2.869524	-9.064440	-0.834048	-0.548079	0.063005	-0.388333	-0.001776	0.011094	-0.011013
611	3.082349	0.005000	2.903760	-9.111738	-0.804945	-0.548418	0.063343	-0.388333	0.004674	0.018324	-0.015875
612	3.087349	0.005000	2.903760	-9.136073	-1.059480	-0.548756	0.063682	-0.388333	0.000743	0.007779	-0.011536
613	3.092349	0.005000	2.945401	-9.027601	-0.948964	-0.549095	0.064021	-0.388333	-0.011328	0.016241	-0.020090
614	3.097349	0.005000	2.866379	-8.985960	-0.982859	-0.549434	0.064360	-0.388333	-0.004908	0.016209	-0.009013
615	3.102349	0.005000	2.902923	-8.986797	-1.021077	-0.549773	0.064699	-0.388333	-0.002822	0.018386	-0.009638
616	3.107349	0.005000	2.942628	-9.103308	-0.981372	-0.550112	0.065037	-0.388333	-0.008518	0.014518	-0.016233
617	3.112349	0.005000	2.826488	-9.103680	-0.902520	-0.550451	0.065376	-0.388333	0.007052	0.012368	-0.012910
618	3.117349	0.005000	2.859268	-9.182160	-0.975748	-0.550790	0.065715	-0.388333	-0.012711	0.015698	-0.017739
619	3.122349	0.005000	2.898214	-9.142920	-0.978227	-0.551129	0.066054	-0.388333	-0.006575	0.009018	-0.011936
620	3.127349	0.005000	2.868315	-9.178365	-1.012649	-0.551467	0.066393	-0.388333	-0.008904	0.018323	-0.010336
621	3.132349	0.005000	2.833955	-9.077453	-1.103058	-0.551806	0.066731	-0.388333	-0.015860	0.011857	-0.008549
622	3.137349	0.005000	2.718280	-9.098320	-1.109440	-0.552145	0.067070	-0.388333	-0.015971	0.013158	-0.004234
623	3.142349	0.005000	2.825280	-8.997937	-1.092731	-0.552321	0.067082	-0.387877	-0.016690	0.009577	-0.016814
624	3.147349	0.005000	2.786040	-9.057500	-0.948700	-0.552434	0.066969	-0.387246	-0.017675	0.011401	-0.019271
625	3.152349	0.005000	2.871909	-9.017237	-1.019667	-0.552546	0.066857	-0.386616	-0.021104	0.018219	-0.025673
626	3.157349	0.005000	2.795013	-9.103680	-0.998946	-0.552659	0.066744	-0.385985	-0.008536	0.007888	-0.012817
627	3.162349	0.005000	2.854993	-9.053782	-0.941760	-0.552772	0.066631	-0.385354	-0.016792	0.015928	-0.001324
628	3.167349	0.005000	2.843421	-9.053890	-0.991550	-0.552885	0.066518	-0.384724	-0.007618	0.015812	-0.015184
629	3.172349	0.005000	2.769944	-8.997532	-1.004144	-0.552998	0.066405	-0.384093	-0.012705	0.010776	-0.011187
630	3.177349	0.005000	2.771029	-9.025200	-1.035251	-0.553111	0.066292	-0.383463	-0.022563	0.021093	-0.017329
631	3.182349	0.005000	2.890623	-9.077577	-1.007103	-0.553224	0.066179	-0.382832	-0.006722	0.009367	-0.007034
632	3.187349	0.005000	2.760648	-9.103680	-1.047937	-0.553337	0.066066	-0.382201	-0.012177	0.009362	-0.010197
633	3.192349	0.005000	2.800741	-9.133083	-1.069317	-0.553450	0.065953	-0.381571	-0.019719	0.014213	-0.018636
634	3.197349	0.005000	2.825280	-9.158644	-1.020240	-0.553563	0.065840	-0.380940	-0.004788	0.009077	-0.010672
635	3.202349	0.005000	2.772686	-9.071117	-0.918802	-0.553676	0.065727	-0.380310	-0.011069	0.013403	-0.010348
636	3.207349	0.005000	2.807976	-9.177528	-0.963696	-0.553731	0.065327	-0.379872	-0.015940	0.008591	-0.012157
637	3.212349	0.005000	2.762515	-9.085362	-0.996715	-0.553731	0.064649	-0.379619	-0.017773	0.018392	-0.018448
638	3.217349	0.005000	2.726429	-9.103680	-1.060983	-0.553731	0.063971	-0.379367	-0.009051	0.017182	-0.007792
639	3.222349	0.005000	2.805931	-9.044549	-1.098720	-0.553731	0.063294	-0.379115	0.000012	0.019415	-0.018623
640	3.227349	0.005000	2.806954	-9.061853	-1.098720	-0.553731	0.062616	-0.378863	-0.014535	0.014140	-0.006874
641	3.232349	0.005000	2.864520	-9.177957	-1.020240	-0.553731	0.061938	-0.378610	0.001600	0.010885	-0.008477
642	3.237349	0.005000	2.802802	-9.047678	-1.053764	-0.553731	0.061260	-0.378358	-0.008810	0.018305	-0.024328
643	3.242349	0.005000	2.762539	-9.095919	-1.020240	-0.553731	0.060583	-0.378106	-0.006765	0.013322	-0.007285
644	3.247349	0.005000	2.786040	-9.049541	-1.020240	-0.553731	0.059905	-0.377854	-0.010974	0.019242	-0.018906
645	3.252349	0.005000	2.775149	-9.092789	-1.084545	-0.553731	0.059227	-0.377602	-0.008930	0.014090	-0.018796
646	3.257349	0.005000	2.825497	-9.051288	-0.967848	-0.553731	0.058549	-0.377349	-0.008906	0.011919	-0.010539
647	3.262349	0.005000	2.903760	-9.049750	-0.941760	-0.553731	0.057872	-0.377097	-0.008666	0.014524	-0.022905
648	3.267349	0.005000	2.841376	-9.052868	-0.953332	-0.553731	0.057194	-0.376845	-0.001425	0.008343	-0.005231
649	3.272349	0.005000	2.804150	-9.046330	-1.088155	-0.553664	0.057016	-0.376890	-0.008998	0.018471	-0.009251
650	3.277349	0.005000	2.806055	-9.025200	-0.970992	-0.553439	0.058032	-0.377647	-0.005490	0.011072	-0.015218
651	3.282349	0.005000	2.864520	-8.994945	-0.902520	-0.553213	0.059048	-0.378403	-0.005127	0.014716	-0.004713
652	3.287349	0.005000	2.872483	-9.017811	-0.894557	-0.552987	0.060064	-0.379159	-0.011894	0.010407	-0.014903
653	3.292349	0.005000	2.847541	-9.103680	-0.941760	-0.552761	0.061080	-0.379916	-0.011769	0.017664	-0.011301
654	3.297349	0.005000	2.936602	-8.953118	-1.000194	-0.552535	0.062096	-0.380672	-0.009469	0.012626	-0.014314
655	3.302349	0.005000	2.718311	-8.957471	-1.109471	-0.552310	0.063112	-0.381429	-0.008704	0.004679	-0.011405
656	3.307349	0.005000	2.868927	-9.108087	-1.055073	-0.552084	0.064128	-0.382185	-0.016978	0.010183	-0.014123
657	3.312349	0.005000	2.782229	-9.103680	-1.126527	-0.551858	0.065145	-0.382941	-0.008892	0.009794	-0.005435
658	3.317349	0.005000	2.788828	-9.145708	-1.056692	-0.551632	0.066161	-0.383698	-0.010716	0.019987	-0.008607
659	3.322349	0.005000	2.790502	-9.099218	-0.978769	-0.551406	0.067177	-0.384454	-0.009916	0.019409	-0.018361
660	3.327349	0.005000	2.863311	-9.028826	-0.981000	-0.551181	0.068193	-0.385211	0.004298	0.012389	-0.004283
661	3.332349	0.005000	2.786448	-9.064236	-0.903131	-0.550955	0.069209	-0.385967	-0.008077	0.026254	-0.015733
662	3.337349	0.005000	2.825636	-9.025200	-0.942473	-0.550754	0.070132	-0.386648	-0.004302	0.012476	-0.014174
663	3.342349	0.005000	2.823901	-9.025200	-1.097341	-0.550867	0.069906	-0.386396	-0.006523	0.013563	-0.011865
664	3.347349	0.005000	2.862119	-9.027601	-1.064282	-0.550980	0.069681	-0.386144	-0.008011	0.026173	-0.027232
665	3.352349	0.005000	2.861577	-9.106623	-1.056537	-0.551093	0.069455	-0.385892	-0.011606	0.010404	-0.013169
666	3.357349	0.005000	2.903760	-8.919377	-0.902520	-0.551206	0.069229	-0.385639	-0.015780	0.017715	-0.021072
667	3.362349	0.005000	2.829844	-8.916608	-1.041224	-0.551319	0.069003	-0.385387	-0.011238	0.019211	-0.006446
668	3.367349	0.005000	2.870050	-8.913010	-1.009179	-0.551432	0.068777	-0.385135	-0.014853	0.018594	-0.009007
669	3.372349	0.005000	2.871073	-9.012094	-1.033346	-0.551545	0.068552	-0.384883	-0.010094	0.015785	-0.019409
670	3.377349	0.005000	2.864520	-9.018004	-0.941760	-0.551658	0.068326	-0.384631	-0.009732	0.015552	-0.012742
671	3.382349	0.005000	2.903760	-9.049599	-0.981000	-0.551771	0.068100	-0.384378	-0.010586	0.018973	-0.012706
672	3.387349	0.005000	2.894620	-8.995100	-0.981000	-0.551884	0.067874	-0.384126	-0.002589	0.013140	-0.006132
673	3.392349	0.005000	2.874218	-8.985960	-0.990698	-0.551997	0.067648	-0.383874	-0.007405	0.017706	-0.020483
674	3.397349	0.005000	2.903760	-9.043000	-0.970280	-0.552110	0.067423	-0.383622	-0.001790	0.012175	-0.014330
675	3.402349	0.005000	2.919515	-9.076183	-1.035995	-0.552223	0.067197	-0.383370	0.001152	0.021044	-0.012767
676	3.407349	0.005000	2.850154	-9.089314	-1.007803	-0.552335	0.067261	-0.382579	0.001465	0.018207	-0.023401
677	3.412349	0.005000	2.811973	-9.025200	-0.994307	-0.552448	0.067374	-0.381696	-0.006622	0.012764	-0.008006
678	3.417349	0.005000	2.797238	-9.011179	-1.048282	-0.552561	0.067487	-0.380813	-0.021574	0.015603	-0.013843
679	3.422349	0.005000	2.855024	-9.034696	-1.010744	-0.552674	0.067600	-0.379930	-0.011738	0.018419	-0.010568
680	3.427349	0.005000	2.801934	-9.025200	-0.925866	-0.552787	0.067712	-0.379047	-0.011024	0.014051	-0.014218
681	3.432349	0.005000	2.802492	-9.120132	-0.974664	-0.552900	0.067825	-0.378164	-0.013224	0.010770	-0.011483
682	3.437349	0.005000	2.825280	-9.060149	-0.898229	-0.553013	0.067938	-0.377281	-0.010908	0.007720	-0.014285
683	3.442349	0.005000	2.846280	-9.163920	-0.884280	-0.553126	0.068051	-0.376399	-0.015579	0.011938	-0.011658
684	3.447349	0.005000	2.902598	-9.083479	-0.862118	-0.553239	0.068164	-0.375516	-0.006707	0.014491	-0.009290
685	3.452349	0.005000	2.806102	-9.044378	-0.960055	-0.553352	0.068277	-0.374633	-0.012346	0.020041	-0.016729
686	3.457349	0.005000	2.807124	-9.061512	-0.902520	-0.553465	0.068390	-0.373750	0.002114	0.017730	-0.011354
687	3.462349	0.005000	2.803654	-9.103680	-0.959374	-0.553577	0.068503	-0.372867	0.002398	0.016555	-0.011145
688	3.467349	0.005000	2.881111	-9.159511	-0.981000	-0.553690	0.068616	-0.371984	-0.008368	0.020274	-0.019024
689	3.472349	0.005000	2.895658	-9.142920	-0.981000	-0.554671	0.067934	-0.370940	0.000116	0.002324	-0.014264
690	3.477349	0.005000	2.943000	-9.118707	-0.902520	-0.556140	0.066804	-0.369805	-0.006023	0.026723	-0.024731
691	3.482349	0.005000	2.928996	-9.039204	-0.955764	-0.557608	0.065675	-0.368670	-0.014659	0.009704	-0.016325
692	3.487349	0.005000	2.864520	-9.038337	-0.968035	-0.559076	0.064545	-0.367535	-0.001111	0.008580	-0.004136
693	3.492349	0.005000	2.839672	-9.025200	-1.045088	-0.560545	0.063415	-0.366399	-0.009371	0.015873	-0.014544
694	3.497349	0.005000	2.892358	-8.985960	-1.115156	-0.562013	0.062286	-0.365264	-0.009334	0.012853	-0.018179
695	3.502349	0.005000	2.825280	-9.025200	-1.158999	-0.563482	0.061156	-0.364129	-0.008807	0.013836	-0.017766
696	3.507349	0.005000	2.825280	-9.005634	-1.030077	-0.564950	0.060027	-0.362994	-0.010468	0.016261	-0.012741
697	3.512349	0.005000	2.794855	-9.073255	-1.098720	-0.566418	0.058897	-0.361859	-0.010812	0.010411	-0.013910
698	3.517349	0.005000	2.833169	-9.103680	-1.020240	-0.567887	0.057768	-0.360724	-0.012344	0.010997	-0.006962
699	3.522349	0.005000	2.810780	-8.953970	-1.091470	-0.569355	0.056638	-0.359588	-0.018838	0.023458	-0.003879
700	3.527349	0.005000	2.798495	-9.025200	-1.032695	-0.570823	0.055508	-0.358453	-0.006089	0.012545	-0.011512
701	3.532349	0.005000	2.819595	-9.097995	-1.059480	-0.572292	0.054379	-0.357318	-0.010662	0.015267	0.000565
702	3.537349	0.005000	2.820617	-9.059777	-1.006251	-0.572653	0.054020	-0.357312	-0.014659	0.015525	-0.017416
703	3.542349	0.005000	2.786040	-9.064440	-1.023924	-0.571524	0.054697	-0.358825	-0.006745	0.005206	-0.009507
704	3.547349	0.005000	2.864520	-9.103680	-1.092554	-0.570395	0.055375	-0.360338	-0.006763	0.009527	-0.005648
705	3.552349	0.005000	2.901700	-9.140860	-0.939700	-0.569266	0.056052	-0.361851	-0.007534	0.006548	-0.015374
706	3.557349	0.005000	2.789076	-9.026718	-0.907075	-0.568137	0.056730	-0.363363	-0.009726	0.006509	-0.007447
707	3.562349	0.005000	2.943496	-8.985960	-0.981496	-0.567008	0.057407	-0.364876	-0.005749	0.020425	-0.015377
708	3.567349	0.005000	2.866100	-9.024673	-1.020240	-0.565879	0.058085	-0.366389	-0.007239	0.013984	-0.001501
709	3.572349	0.005000	2.824211	-9.141851	-0.941760	-0.564750	0.058762	-0.367902	-0.004504	0.022005	-0.013978
710	3.577349	0.005000	2.860337	-9.105771	-0.939669	-0.563621	0.059439	-0.369415	-0.009281	0.019122	-0.002465
711	3.582349	0.005000	2.825280	-9.100999	-0.978319	-0.562492	0.060117	-0.370928	-0.013099	0.020771	-0.008749
712	3.587349	0.005000	2.903760	-9.028856	-0.991968	-0.561363	0.060794	-0.372440	-0.003334	0.015030	-0.020225
713	3.592349	0.005000	2.834637	-9.020522	-1.054802	-0.560234	0.061472	-0.373953	-0.011527	0.010983	0.001363
714	3.597349	0.005000	2.864520	-9.109381	-1.126558	-0.559105	0.062149	-0.375466	-0.013353	0.016713	-0.008295
715	3.602349	0.005000	2.858261	-9.064440	-0.954277	-0.558162	0.062780	-0.376719	-0.007491	0.011200	-0.001993
716	3.607349	0.005000	2.761362	-9.057159	-0.988281	-0.557937	0.063232	-0.376971	-0.007995	0.023851	-0.013217
717	3.612349	0.005000	2.847913	-9.142920	-1.003633	-0.557711	0.063684	-0.377223	-0.014160	0.015278	-0.014581
718	3.617349	0.005000	2.894914	-8.934017	-1.020240	-0.557485	0.064136	-0.377476	-0.003771	0.011468	-0.008008
719	3.622349	0.005000	2.746800	-9.034836	-1.059480	-0.557259	0.064587	-0.377728	-0.009428	0.019870	-0.025201
720	3.627349	0.005000	2.729341	-8.957611	-1.020240	-0.557033	0.065039	-0.377980	-0.004891	0.007949	-0.009690
721	3.632349	0.005000	2.746800	-9.036633	-1.008807	-0.556807	0.065491	-0.378232	-0.007462	0.019675	-0.007878
722	3.637349	0.005000	2.864520	-8.985960	-1.059480	-0.556581	0.065943	-0.378485	-0.011678	0.017845	-0.009709
723	3.642349	0.005000	2.890837	-9.051282	-1.020240	-0.556355	0.066394	-0.378737	-0.013211	0.018094	-0.013387
724	3.647349	0.005000	2.839300	-9.128900	-1.045460	-0.556129	0.066846	-0.378989	-0.001939	0.007961	-0.015220
725	3.652349	0.005000	2.879562	-9.070327	-1.011085	-0.555903	0.067298	-0.379241	0.009299	0.013459	-0.005928
726	3.657349	0.005000	2.864520	-9.064440	-0.855614	-0.555678	0.067750	-0.379494	0.001531	0.015028	-0.019834
727	3.662349	0.005000	2.864520	-9.025200	-0.925138	-0.555452	0.068202	-0.379746	0.001399	0.020268	-0.010022
728	3.667349	0.005000	2.864520	-8.950670	-0.941760	-0.555226	0.068653	-0.379998	-0.011771	0.013580	-0.017395
729	3.672349	0.005000	2.806868	-8.928308	-1.082723	-0.555224	0.068657	-0.380000	-0.000848	0.006572	-0.015931
730	3.677349	0.005000	2.825280	-9.065261	-0.981000	-0.555224	0.068657	-0.380000	-0.011674	0.011596	-0.007781
731	3.682349	0.005000	2.805048	-9.064440	-0.925200	-0.555224	0.068657	-0.380000	-0.008623	0.021462	-0.022790
732	3.687349	0.005000	2.864520	-9.022892	-0.978692	-0.555224	0.068657	-0.380000	-0.008184	0.011950	-0.007690
733	3.692349	0.005000	2.860167	-9.042643	-1.059480	-0.555224	0.068657	-0.380000	-0.005210	0.027040	-0.011409
734	3.697349	0.005000	2.864520	-9.064440	-1.037126	-0.555224	0.068657	-0.380000	-0.016188	0.025831	-0.016329
735	3.702349	0.005000	2.896278	-9.111162	-1.043601	-0.555224	0.068657	-0.380000	-0.012069	0.025136	-0.013596
736	3.707349	0.005000	2.928144	-9.049584	-1.005384	-0.555224	0.068657	-0.380000	-0.014375	0.019160	-0.016115
737	3.712349	0.005000	2.943000	-9.025200	-0.916819	-0.555224	0.068657	-0.380000	-0.008162	0.012307	-0.007584
738	3.717349	0.005000	2.837968	-9.037888	-0.889244	-0.555224	0.068657	-0.380000	-0.000162	0.012982	-0.012268
739	3.722349	0.005000	2.891506	-9.064440	-0.902520	-0.555224	0.068657	-0.380000	0.000924	0.015699	-0.006504
740	3.727349	0.005000	2.825280	-8.981855	-0.925943	-0.555224	0.068657	-0.380000	-0.008020	0.018902	-0.014654
741	3.732349	0.005000	2.825280	-9.057267	-1.013067	-0.555224	0.068657	-0.380000	-0.008157	0.008433	-0.014328
742	3.737349	0.005000	2.845574	-9.055641	-1.059480	-0.555224	0.068483	-0.380487	0.004468	0.012325	-0.017156
743	3.742349	0.005000	2.873645	-9.094555	-0.950885	-0.555224	0.068257	-0.381117	-0.003913	0.018050	-0.020753
744	3.747349	0.005000	2.864520	-9.072542	-1.004036	-0.555224	0.068031	-0.381748	0.000954	0.012088	-0.014370
745	3.752349	0.005000	2.864520	-9.142920	-0.973836	-0.555224	0.067805	-0.382379	-0.005307	0.012743	-0.016575
746	3.757349	0.005000	2.877610	-9.090605	-0.922132	-0.555224	0.067579	-0.383009	-0.008478	0.018193	-0.018867
747	3.762349	0.005000	2.870035	-9.036230	-1.121415	-0.555224	0.067353	-0.383640	-0.010404	0.011949	-0.004194
748	3.767349	0.005000	2.903760	-9.137963	-1.025197	-0.555224	0.067127	-0.384270	-0.018125	0.022823	-0.024487
749	3.772349	0.005000	2.868455	-9.052635	-1.028110	-0.555224	0.066901	-0.384901	-0.003097	0.010772	-0.014926
750	3.777349	0.005000	2.900848	-8.952545	-0.935935	-0.555224	0.066676	-0.385532	-0.005959	0.015158	-0.009092
751	3.782349	0.005000	2.901390	-9.101310	-0.902520	-0.555224	0.066450	-0.386162	-0.009679	0.012335	-0.000798
752	3.787349	0.005000	3.020132	-9.140224	-1.022936	-0.555224	0.066224	-0.386793	-0.009445	0.014191	-0.017480
753	3.792349	0.005000	2.904566	-8.987571	-1.021851	-0.555224	0.065998	-0.387423	-0.007416	0.015162	-0.019902
754	3.797349	0.005000	3.021046	-8.947371	-1.059697	-0.555224	0.065772	-0.388054	-0.011892	0.020206	-0.022580
755	3.802349	0.005000	2.904999	-9.022721	-0.982239	-0.555098	0.065798	-0.388192	-0.001808	0.022356	-0.003177
756	3.807349	0.005000	2.862258	-9.025200	-0.941760	-0.554872	0.066024	-0.387940	-0.000261	0.017884	-0.000754
757	3.812349	0.005000	2.903760	-9.142920	-0.950218	-0.554647	0.066249	-0.387688	-0.011576	0.016335	-0.019092
758	3.817349	0.005000	2.864520	-9.029026	-1.024066	-0.554421	0.066475	-0.387436	-0.006976	0.005212	-0.016868
759	3.822349	0.005000	2.864520	-8.990397	-0.946197	-0.554195	0.066701	-0.387184	-0.006726	0.010900	-0.006651
760	3.827349	0.005000	2.859113	-9.064440	-0.868687	-0.553969	0.066927	-0.386932	-0.014765	0.026837	-0.014554
761	3.832349	0.005000	2.858091	-9.025200	-0.824040	-0.553743	0.067153	-0.386680	-0.005011	0.016722	-0.009196
762	3.837349	0.005000	2.850578	-8.985960	-0.902520	-0.553518	0.067378	-0.386428	-0.009717	0.018297	-0.013216
763	3.842349	0.005000	2.856526	-8.938726	-0.988266	-0.553292	0.067604	-0.386176	-0.014541	0.021084	-0.011753
764	3.847349	0.005000	2.825280	-9.025200	-0.989642	-0.553066	0.067830	-0.385923	-0.012594	0.023321	-0.015298
765	3.852349	0.005000	2.894202	-9.103680	-0.941760	-0.552840	0.068056	-0.385671	-0.010906	0.016813	-0.019214
766	3.857349	0.005000	2.903760	-9.103680	-0.923681	-0.552614	0.068282	-0.385419	-0.005854	0.013235	-0.012607
767	3.862349	0.005000	2.943000	-9.114952	-0.925064	-0.552389	0.068507	-0.385167	-0.002863	0.017667	-0.015998
768	3.867349	0.005000	2.903760	-9.115841	-1.047319	-0.552163	0.068657	-0.385085	-0.015032	0.009387	-0.014435
769	3.872349	0.005000	2.942721	-9.077613	-0.994173	-0.551937	0.068657	-0.385337	-0.006905	0.022755	-0.018415
770	3.877349	0.005000	2.864520	-9.089955	-0.916245	-0.551711	0.068657	-0.385589	-0.013607	0.015494	-0.014261
771	3.882349	0.005000	2.889012	-9.079188	-0.927012	-0.551485	0.068657	-0.385841	-0.007778	0.011879	-0.005536
772	3.887349	0.005000	2.919240	-9.048960	-1.028521	-0.551260	0.068657	-0.386094	-0.013311	0.013298	-0.014006
773	3.892349	0.005000	2.825280	-9.048127	-1.013625	-0.551034	0.068657	-0.386346	-0.013744	0.004888	-0.010385
774	3.897349	0.005000	2.864520	-9.086345	-0.959095	-0.550808	0.068657	-0.386598	-0.013574	0.012583	-0.007271
775	3.902349	0.005000	2.882619	-8.985960	-1.080621	-0.550582	0.068657	-0.386850	-0.007895	0.010280	-0.009424
776	3.907349	0.005000	2.884860	-9.025200	-1.098720	-0.550356	0.068657	-0.387102	-0.008680	0.014375	-0.002668
777	3.912349	0.005000	2.864520	-9.005278	-1.058876	-0.550131	0.068657	-0.387354	-0.011619	0.011535	-0.021424
778	3.917349	0.005000	2.885000	-9.064440	-1.003199	-0.549905	0.068657	-0.387606	-0.015062	0.011365	-0.008183
779	3.922349	0.005000	2.825280	-9.046702	-1.067009	-0.549679	0.068657	-0.387858	-0.008685	0.013706	-0.022364
780	3.927349	0.005000	2.808084	-9.160116	-0.892822	-0.549453	0.068657	-0.388110	-0.014965	0.005377	-0.011181
781	3.932349	0.005000	2.864520	-9.103680	-0.964827	-0.549294	0.068644	-0.388318	-0.022609	0.020701	-0.015616
782	3.937349	0.005000	2.858308	-9.088529	-0.956911	-0.549633	0.068531	-0.388192	-0.018134	0.009357	-0.014392
783	3.942349	0.005000	2.771432	-9.064440	-0.966392	-0.549971	0.068418	-0.388066	-0.017052	0.010567	-0.014684
784	3.947349	0.005000	2.813212	-9.025200	-1.020240	-0.550310	0.068305	-0.387940	-0.021049	0.020723	-0.024470
785	3.952349	0.005000	2.877084	-9.051876	-1.046916	-0.550649	0.068192	-0.387814	-0.011015	0.006319	-0.007272
786	3.957349	0.005000	2.852836	-8.970088	-1.008556	-0.550988	0.068079	-0.387688	-0.018311	0.016657	-0.005373
787	3.962349	0.005000	2.797039	-9.160162	-0.991999	-0.551327	0.067966	-0.387562	-0.006908	0.016574	-0.015403
788	3.967349	0.005000	2.815303	-9.045153	-1.079433	-0.551665	0.067853	-0.387436	-0.011021	0.016401	-0.009923
789	3.972349	0.005000	2.825280	-9.085772	-1.059480	-0.552004	0.067740	-0.387310	-0.013503	0.020622	-0.018189
790	3.977349	0.005000	2.794067	-9.072467	-1.035400	-0.552343	0.067627	-0.387184	-0.017916	0.011149	-0.011605
791	3.982349	0.005000	2.761548	-9.135546	-0.973626	-0.552682	0.067514	-0.387057	-0.017971	0.020794	-0.015022
792	3.987349	0.005000	2.825280	-9.097313	-1.032974	-0.553021	0.067401	-0.386931	-0.007047	0.017421	-0.007696
793	3.992349	0.005000	2.812763	-9.137575	-1.020240	-0.553359	0.067288	-0.386805	-0.017880	0.020641	-0.004338
794	3.997349	0.005000	2.943000	-9.025200	-0.985787	-0.553698	0.067175	-0.386679	-0.021030	0.009515	-0.010101
795	4.002349	0.005000	2.978476	-9.135391	-1.106249	-0.553425	0.067266	-0.386553	-0.008511	0.014245	-0.007039
796	4.007349	0.005000	2.940258	-9.061698	-1.137960	-0.553086	0.067379	-0.386427	-0.014440	0.012532	-0.019107
797	4.012349	0.005000	2.827480	-8.951120	-1.052881	-0.552748	0.067492	-0.386301	-0.012149	0.011452	-0.011146
798	4.017349	0.005000	2.865697	-9.102503	-1.019063	-0.552409	0.067605	-0.386175	-0.016491	0.016542	-0.018280
799	4.022349	0.005000	2.903760	-9.025514	-1.020240	-0.552071	0.067718	-0.386049	-0.001440	0.013666	-0.009471
800	4.027349	0.005000	2.903760	-9.064827	-1.020240	-0.551732	0.067831	-0.385923	-0.010598	0.011947	-0.005894
801	4.032349	0.005000	2.864520	-9.100861	-1.095901	-0.551393	0.067944	-0.385797	-0.019018	0.018239	-0.012774
802	4.037349	0.005000	2.979808	-9.027632	-1.025104	-0.551055	0.068057	-0.385670	-0.008380	0.008843	-0.000276
803	4.042349	0.005000	2.789066	-9.097629	-1.023266	-0.550716	0.068169	-0.385544	-0.010735	0.018151	-0.018541
804	4.047349	0.005000	2.829277	-9.142920	-1.165210	-0.550377	0.068282	-0.385418	-0.014461	0.010439	-0.018704
805	4.052349	0.005000	2.820261	-9.142920	-1.177200	-0.550039	0.068395	-0.385292	-0.001054	0.009195	-0.007796
806	4.057349	0.005000	2.864520	-9.142920	-1.076411	-0.549700	0.068508	-0.385166	-0.011745	0.015854	-0.021346
807	4.062349	0.005000	2.825280	-9.025200	-1.046281	-0.549361	0.068621	-0.385040	-0.004268	0.010289	-0.008661
808	4.067349	0.005000	2.880895	-9.096058	-1.027862	-0.549485	0.068734	-0.385172	-0.009851	0.012149	-0.011233
809	4.072349	0.005000	2.817015	-9.142920	-1.003710	-0.549824	0.068847	-0.385425	-0.009447	0.014639	-0.015066
810	4.077349	0.005000	2.767667	-9.073626	-1.089534	-0.550163	0.068960	-0.385677	-0.006358	0.015974	-0.018329
811	4.082349	0.005000	2.806458	-9.064440	-1.030449	-0.550502	0.069073	-0.385929	-0.008841	0.019747	-0.020880
812	4.087349	0.005000	2.892876	-9.132036	-1.009356	-0.550841	0.069186	-0.386181	-0.000565	0.017970	-0.013051
813	4.092349	0.005000	2.821361	-9.080133	-1.032014	-0.551179	0.069299	-0.386433	0.008015	0.013225	-0.017391
814	4.097349	0.005000	2.916556	-9.025200	-0.889724	-0.551518	0.069412	-0.386686	0.005448	0.005263	-0.006813
815	4.102349	0.005000	2.798604	-9.025200	-0.967662	-0.551857	0.069524	-0.386938	-0.004424	0.016663	-0.014131
816	4.107349	0.005000	2.875039	-8.961081	-0.995361	-0.552196	0.069637	-0.387190	0.003396	0.009779	-0.006704
817	4.112349	0.005000	2.903760	-9.033674	-1.028714	-0.552535	0.069750	-0.387442	0.006496	0.013580	-0.014300
818	4.117349	0.005000	2.825280	-9.064440	-1.059480	-0.552873	0.069863	-0.387695	-0.000954	0.009622	-0.014244
819	4.122349	0.005000	2.825280	-9.064440	-1.064794	-0.553212	0.069976	-0.387947	-0.004430	0.007828	0.006386
820	4.127349	0.005000	2.768054	-9.028469	-0.935223	-0.553551	0.070089	-0.388199	-0.012603	0.021686	-0.025856
821	4.132349	0.005000	2.843808	-9.103680	-0.904704	-0.553890	0.069937	-0.388274	-0.012552	0.009027	-0.007447
822	4.137349	0.005000	2.884210	-9.064301	-0.941621	-0.554229	0.069485	-0.388148	-0.003589	0.014264	-0.017945
823	4.142349	0.005000	2.883187	-9.142920	-0.981000	-0.554568	0.069034	-0.388022	-0.010764	0.017030	-0.015332
824	4.147349	0.005000	2.900770	-9.064440	-1.044345	-0.554907	0.068582	-0.387896	-0.008974	0.014966	-0.016812
825	4.152349	0.005000	2.930932	-9.064440	-0.897485	-0.555245	0.068130	-0.387770	-0.010516	0.015216	-0.023395
826	4.157349	0.005000	2.841360	-8.953800	-1.098720	-0.555584	0.067678	-0.387644	-0.011398	0.005719	-0.013403
827	4.162349	0.005000	2.903760	-9.001498	-1.059480	-0.555923	0.067226	-0.387517	0.001465	0.019588	-0.021889
828	4.167349	0.005000	2.825280	-9.167644	-0.966484	-0.556262	0.066775	-0.387391	0.004299	0.013269	-0.010713
829	4.172349	0.005000	2.864520	-9.115934	-0.994493	-0.556601	0.066323	-0.387265	-0.001003	0.016440	-0.012667
830	4.177349	0.005000	2.825280	-8.973025	-1.033175	-0.556940	0.065871	-0.387139	0.005027	0.010543	-0.014934
831	4.182349	0.005000	2.813367	-9.037113	-1.086807	-0.557279	0.065419	-0.387013	0.001923	0.022562	-0.010365
832	4.187349	0.005000	2.836175	-9.046990	-0.998450	-0.557618	0.064967	-0.386887	-0.004063	0.024175	-0.019292
833	4.192349	0.005000	2.903760	-9.111875	-0.981000	-0.557956	0.064516	-0.386761	0.006434	0.004579	-0.006937
834	4.197349	0.005000	2.864520	-9.103680	-1.089394	-0.558123	0.064121	-0.386699	0.002716	0.011668	-0.013134
835	4.202349	0.005000	2.847913	-9.151223	-1.011937	-0.557784	0.063896	-0.386825	-0.005429	0.011839	-0.020051
836	4.207349	0.005000	2.800782	-9.103680	-0.941760	-0.557445	0.063670	-0.386951	0.000778	0.006551	0.000695
837	4.212349	0.005000	2.825280	-9.064440	-0.941760	-0.557106	0.063444	-0.387077	-0.008474	0.009035	-0.016699
838	4.217349	0.005000	2.718993	-9.109396	-0.947476	-0.556767	0.063218	-0.387203	0.000783	0.007887	-0.006852
839	4.222349	0.005000	2.786040	-9.148094	-1.004718	-0.556428	0.062992	-0.387330	-0.007307	0.013596	-0.015931
840	4.227349	0.005000	2.821128	-9.134617	-0.945912	-0.556089	0.062766	-0.387456	-0.009702	0.006625	-0.011020
841	4.232349	0.005000	2.831539	-9.067569	-0.905649	-0.555751	0.062540	-0.387582	-0.006672	0.015422	-0.013744
842	4.237349	0.005000	2.898617	-9.067012	-0.988715	-0.555412	0.062314	-0.387708	-0.010357	0.008723	-0.010058
843	4.242349	0.005000	2.789140	-9.180610	-1.094071	-0.555073	0.062088	-0.387834	-0.023507	0.012539	-0.012541
844	4.247349	0.005000	2.825280	-9.103680	-0.863822	-0.554734	0.061863	-0.387960	-0.012043	0.014456	-0.014936
845	4.252349	0.005000	2.864040	-9.064920	-0.980040	-0.554395	0.061637	-0.388086	-0.014401	0.004577	-0.007518
846	4.257349	0.005000	2.904798	-9.026238	-0.902520	-0.554056	0.061411	-0.388212	-0.019460	0.009192	-0.019606
847	4.262349	0.005000	2.746800	-9.062380	-1.018180	-0.553722	0.061203	-0.388307	-0.017104	0.015442	-0.017036
848	4.267349	0.005000	2.749883	-8.982877	-1.050232	-0.553496	0.061429	-0.387677	-0.020404	0.011839	-0.010018
849	4.272349	0.005000	2.750425	-8.985960	-1.087845	-0.553270	0.061655	-0.387047	-0.011503	0.014651	-0.020016
850	4.277349	0.005000	2.712207	-8.985960	-1.024887	-0.553044	0.061881	-0.386416	-0.012033	0.001481	-0.006474
851	4.282349	0.005000	2.859266	-9.014692	-0.981000	-0.552819	0.062106	-0.385786	-0.016741	0.019046	-0.019084
852	4.287349	0.005000	2.864520	-9.070652	-0.947972	-0.552593	0.062332	-0.385156	-0.011561	0.008534	-0.019179
853	4.292349	0.005000	2.871755	-9.025200	-1.052245	-0.552367	0.062558	-0.384525	-0.005793	0.011851	0.001938
854	4.297349	0.005000	2.840864	-9.001544	-1.035824	-0.552141	0.062784	-0.383895	-0.002035	0.006445	-0.008988
855	4.302349	0.005000	2.816477	-9.086075	-0.959365	-0.551916	0.063009	-0.383265	-0.009979	0.010874	-0.004652
856	4.307349	0.005000	2.795862	-9.084083	-1.098720	-0.551690	0.063235	-0.382634	-0.006999	0.015813	-0.016067
857	4.312349	0.005000	2.825280	-9.082921	-1.059480	-0.551464	0.063461	-0.382004	-0.012492	0.013539	-0.011687
858	4.317349	0.005000	2.808844	-9.008764	-1.053113	-0.551238	0.063687	-0.381374	-0.004736	0.017729	-0.013235
859	4.322349	0.005000	2.839672	-9.010808	-0.979033	-0.551012	0.063913	-0.380744	0.000290	0.008617	-0.009281
860	4.327349	0.005000	2.824939	-9.012234	-1.072787	-0.550787	0.064138	-0.380113	-0.005074	0.016444	-0.006815
861	4.332349	0.005000	2.825280	-9.036462	-1.098720	-0.550839	0.064364	-0.380414	-0.008482	0.017751	-0.017938
862	4.337349	0.005000	2.937206	-8.985960	-1.074491	-0.550952	0.064590	-0.380918	-0.003944	0.010976	-0.011922
863	4.342349	0.005000	2.927447	-9.001513	-1.012820	-0.551065	0.064816	-0.381422	-0.018933	0.018368	-0.017408
864	4.347349	0.005000	2.920336	-8.985960	-1.024640	-0.551177	0.065042	-0.381927	-0.011929	0.003298	-0.018385
865	4.352349	0.005000	2.817193	-9.042798	-0.963402	-0.551290	0.065267	-0.382431	-0.017432	0.015394	-0.019114
866	4.357349	0.005000	2.804414	-9.064440	-0.941760	-0.551403	0.065493	-0.382935	-0.011802	0.021658	-0.022604
867	4.362349	0.005000	2.866348	-9.083603	-1.000163	-0.551516	0.065719	-0.383440	-0.004342	0.013843	0.001716
868	4.367349	0.005000	2.806225	-9.064440	-0.979869	-0.551629	0.065945	-0.383944	-0.013787	0.019748	-0.024151
869	4.372349	0.005000	2.825280	-9.043448	-1.038488	-0.551742	0.066171	-0.384448	-0.007638	0.013131	-0.009742
870	4.377349	0.005000	2.899469	-9.038383	-0.863280	-0.551855	0.066396	-0.384952	-0.002980	0.013447	-0.020511
871	4.382349	0.005000	2.870856	-9.064440	-0.997452	-0.551968	0.066622	-0.385457	-0.018911	0.016857	-0.021698
872	4.387349	0.005000	2.903760	-9.088059	-1.012241	-0.552081	0.066848	-0.385961	-0.014394	0.007684	-0.009208
873	4.392349	0.005000	2.819858	-9.103680	-1.029705	-0.552194	0.067074	-0.386465	0.000592	0.008933	-0.014421
874	4.397349	0.005000	2.825280	-9.064440	-0.994865	-0.552375	0.066757	-0.386364	-0.012272	0.012716	-0.008738
875	4.402349	0.005000	2.798882	-9.064440	-1.020953	-0.552600	0.066080	-0.385860	-0.015443	0.013865	-0.017100
876	4.407349	0.005000	2.913721	-9.037500	-1.059480	-0.552826	0.065402	-0.385355	-0.000101	0.008665	-0.010904
877	4.412349	0.005000	2.920444	-9.036478	-1.070758	-0.553052	0.064724	-0.384851	-0.015299	0.013370	-0.013438
878	4.417349	0.005000	2.872994	-9.055966	-0.962271	-0.553278	0.064047	-0.384346	-0.007839	0.017850	-0.018636
879	4.422349	0.005000	2.775940	-9.113393	-0.961186	-0.553504	0.063369	-0.383842	-0.004276	0.010667	0.000916
880	4.427349	0.005000	2.886379	-9.055749	-1.042099	-0.553730	0.062691	-0.383337	-0.025348	0.025173	-0.017837
881	4.432349	0.005000	2.825280	-9.103680	-0.957097	-0.553956	0.062013	-0.382832	-0.006243	0.007086	-0.014144
882	4.437349	0.005000	2.910871	-9.096569	-0.959668	-0.554182	0.061336	-0.382328	-0.015411	0.015718	-0.018232
883	4.442349	0.005000	2.970064	-9.058352	-0.960024	-0.554408	0.060658	-0.381823	-0.029361	0.017607	-0.021314
884	4.447349	0.005000	2.908902	-9.030342	-0.912804	-0.554634	0.059980	-0.381319	-0.012134	0.013870	-0.010773
885	4.452349	0.005000	2.899236	-9.142920	-0.985524	-0.554859	0.059303	-0.380814	-0.024638	0.016466	-0.026139
886	4.457349	0.005000	2.943000	-8.978958	-1.102221	-0.555085	0.058625	-0.380310	-0.016983	0.016516	-0.013932
887	4.462349	0.005000	2.903760	-9.064440	-1.093701	-0.555660	0.057904	-0.379172	-0.005464	0.008474	-0.016759
888	4.467349	0.005000	2.864520	-9.060567	-1.022176	-0.556789	0.057113	-0.377028	-0.014633	0.010606	-0.022436
889	4.472349	0.005000	2.862692	-8.909308	-1.095978	-0.557919	0.056322	-0.374884	-0.015127	0.015114	-0.014035
890	4.477349	0.005000	2.865635	-9.025200	-1.020612	-0.559048	0.055532	-0.372740	-0.009612	0.014373	-0.010097
891	4.482349	0.005000	2.943651	-9.025200	-1.020891	-0.560178	0.054741	-0.370596	-0.010830	0.015857	-0.015940
892	4.487349	0.005000	2.866193	-8.989306	-0.982673	-0.561307	0.053950	-0.368452	-0.014190	0.020650	-0.020784
893	4.492349	0.005000	2.825280	-8.988656	-1.025631	-0.562437	0.053160	-0.366307	0.001724	0.014460	-0.004591
894	4.497349	0.005000	2.867773	-9.021947	-1.023493	-0.563566	0.052369	-0.364163	-0.012886	0.019641	-0.018079
895	4.502349	0.005000	2.790316	-9.025200	-0.871831	-0.564696	0.051578	-0.362019	-0.015236	0.016697	-0.014627
896	4.507349	0.005000	2.723408	-9.035765	-0.970435	-0.565825	0.050788	-0.359875	-0.003459	0.007178	-0.008018
897	4.512349	0.005000	2.819440	-9.058600	-1.053640	-0.566955	0.049997	-0.357731	-0.010765	0.014968	-0.025811
898	4.517349	0.005000	2.825280	-9.089955	-1.006515	-0.568084	0.049206	-0.355587	-0.005597	0.004069	-0.011078
899	4.522349	0.005000	2.825280	-8.993845	-1.098720	-0.569214	0.048416	-0.353442	-0.010231	0.010302	-0.010581
900	4.527349	0.005000	2.886905	-9.142920	-0.958615	-0.570363	0.047761	-0.351667	-0.013732	0.012198	-0.013386
901	4.532349	0.005000	2.952450	-9.064440	-0.960660	-0.571604	0.047761	-0.351667	-0.007721	0.015265	-0.003494
902	4.537349	0.005000	2.932528	-9.064440	-1.035886	-0.572846	0.047761	-0.351667	-0.013288	0.022648	-0.025755
903	4.542349	0.005000	2.886549	-9.025200	-0.963789	-0.574088	0.047761	-0.351667	-0.017630	0.024157	-0.026380
904	4.547349	0.005000	2.864520	-9.130883	-0.851243	-0.575330	0.047761	-0.351667	-0.019900	0.018307	-0.020543
905	4.552349	0.005000	2.877641	-9.012079	-0.850221	-0.576572	0.047761	-0.351667	-0.013320	0.008984	-0.010444
906	4.557349	0.005000	2.889980	-9.076120	-0.953440	-0.577814	0.047761	-0.351667	-0.003312	0.013716	-0.012983
907	4.562349	0.005000	2.879144	-9.118304	-1.020240	-0.579056	0.047761	-0.351667	-0.003078	0.013932	-0.010831
908	4.567349	0.005000	2.833227	-9.056493	-1.004594	-0.580298	0.047761	-0.351667	-0.011122	0.014885	-0.005397
909	4.572349	0.005000	2.848122	-9.087282	-0.925362	-0.581540	0.047761	-0.351667	-0.017722	0.020963	-0.023531
910	4.577349	0.005000	2.847293	-9.025200	-0.885293	-0.582781	0.047761	-0.351667	-0.006053	0.004277	-0.008664
911	4.582349	0.005000	2.903760	-9.046191	-1.001991	-0.584023	0.047761	-0.351667	-0.012241	0.024153	-0.017188
912	4.587349	0.005000	2.903760	-9.044224	-0.979808	-0.585265	0.047761	-0.351667	-0.008135	0.012654	-0.017490
913	4.592349	0.005000	2.844319	-9.083866	-0.981000	-0.586507	0.047761	-0.351667	-0.017753	0.010403	-0.005446
914	4.597349	0.005000	2.882924	-9.048468	-1.061912	-0.584203	0.048943	-0.354187	-0.013983	0.012284	-0.010167
915	4.602349	0.005000	2.786040	-8.985960	-0.998381	-0.581719	0.050185	-0.356834	-0.014044	0.006715	-0.001011
916	4.607349	0.005000	2.841842	-8.969398	-0.863280	-0.579235	0.051427	-0.359482	-0.011360	0.015952	-0.010524
917	4.612349	0.005000	2.927183	-9.056834	-0.957577	-0.576752	0.052669	-0.362129	-0.019548	0.020062	-0.013832
918	4.617349	0.005000	2.795691	-9.039994	-1.044686	-0.574268	0.053911	-0.364777	-0.006652	0.016874	-0.015257
919	4.622349	0.005000	2.799983	-9.039143	-0.978412	-0.571784	0.055152	-0.367424	-0.017417	0.021370	-0.010787
920	4.627349	0.005000	2.785591	-9.103680	-0.928980	-0.569300	0.056394	-0.370072	-0.011832	0.010082	-0.020808
921	4.632349	0.005000	2.834869	-9.064440	-0.978382	-0.566817	0.057636	-0.372719	-0.003334	0.018995	-0.023862
922	4.637349	0.005000	2.847918	-9.025200	-0.992319	-0.564333	0.058878	-0.375367	-0.016561	0.014115	-0.008226
923	4.642349	0.005000	2.835907	-9.093053	-1.009613	-0.561849	0.060120	-0.378014	-0.015248	0.009279	-0.022073
924	4.647349	0.005000	2.845303	-9.044417	-0.902520	-0.559365	0.061362	-0.380661	-0.023247	0.012061	-0.009920
925	4.652349	0.005000	2.825280	-9.095082	-0.941760	-0.556881	0.062604	-0.383309	-0.015577	0.010764	-0.003765
926	4.657349	0.005000	2.856480	-9.103680	-1.028280	-0.554398	0.063846	-0.385956	-0.007798	0.018535	-0.010333
927	4.662349	0.005000	2.779022	-9.050405	-1.098720	-0.553566	0.064344	-0.386482	-0.005034	0.007775	0.006802
928	4.667349	0.005000	2.786040	-9.013210	-0.992990	-0.553340	0.064570	-0.386230	-0.021920	0.017927	-0.013673
929	4.672349	0.005000	2.864520	-9.007772	-0.947213	-0.553114	0.064796	-0.385978	-0.006114	0.010663	-0.010974
930	4.677349	0.005000	2.860089	-9.108111	-1.024671	-0.552888	0.065022	-0.385726	-0.012954	0.010769	-0.016402
931	4.682349	0.005000	2.896859	-9.100230	-1.013339	-0.552663	0.065247	-0.385474	-0.015362	0.010499	-0.032233
932	4.687349	0.005000	2.861654	-9.106546	-0.983866	-0.552437	0.065473	-0.385222	-0.003055	0.009467	-0.004280
933	4.692349	0.005000	2.903760	-8.985960	-1.136117	-0.552211	0.065699	-0.384969	-0.004661	0.015458	-0.010943
934	4.697349	0.005000	2.864520	-9.064440	-1.057838	-0.551985	0.065925	-0.384717	-0.004059	0.004887	-0.004355
935	4.702349	0.005000	2.864520	-9.103479	-0.981000	-0.551759	0.066151	-0.384465	-0.009317	0.014201	-0.013948
936	4.707349	0.005000	2.825280	-9.143664	-1.019496	-0.551534	0.066376	-0.384213	-0.010549	0.022079	-0.017153
937	4.712349	0.005000	2.823514	-9.255342	-1.020240	-0.551308	0.066602	-0.383961	-0.007166	0.012109	-0.009053
938	4.717349	0.005000	2.900972	-9.148497	-0.950125	-0.551082	0.066828	-0.383708	-0.005814	0.013570	-0.015179
939	4.722349	0.005000	2.825280	-8.960265	-0.981000	-0.550856	0.067054	-0.383456	-0.006347	0.007974	-0.004482
940	4.727349	0.005000	2.790409	-8.994697	-1.011503	-0.550630	0.067164	-0.383204	0.009255	0.016631	-0.011539
941	4.732349	0.005000	2.869911	-9.064440	-0.986391	-0.550405	0.067164	-0.382952	-0.003975	0.002835	-0.006231
942	4.737349	0.005000	2.798049	-9.064440	-1.080707	-0.550179	0.067164	-0.382700	-0.010257	0.019595	-0.018644
943	4.742349	0.005000	2.896804	-9.025200	-1.059480	-0.549953	0.067164	-0.382447	-0.000913	0.013854	-0.014313
944	4.747349	0.005000	2.825280	-9.009244	-1.028218	-0.549727	0.067164	-0.382195	-0.005683	0.004833	-0.005603
945	4.752349	0.005000	2.837518	-9.073441	-0.968762	-0.549501	0.067164	-0.381943	-0.010071	0.021557	-0.025557
946	4.757349	0.005000	2.795701	-9.025200	-0.981000	-0.549275	0.067164	-0.381691	-0.010924	0.015274	-0.010994
947	4.762349	0.005000	2.835845	-9.035765	-1.020240	-0.549049	0.067164	-0.381438	-0.006291	0.025250	-0.015454
948	4.767349	0.005000	2.876108	-9.186637	-1.031828	-0.548823	0.067164	-0.381186	-0.004180	0.012255	-0.023586
949	4.772349	0.005000	2.916040	-9.103680	-0.914800	-0.548597	0.067164	-0.380934	-0.006826	0.009301	-0.007682
950	4.777349	0.005000	2.877672	-9.038352	-0.797735	-0.548372	0.067164	-0.380682	-0.011079	0.020362	-0.016218
951	4.782349	0.005000	2.825280	-9.075331	-0.877455	-0.548146	0.067164	-0.380429	-0.007176	0.012065	-0.000303
952	4.787349	0.005000	2.830767	-9.064440	-0.893098	-0.547920	0.067164	-0.380177	-0.006237	0.015016	-0.004608
953	4.792349	0.005000	2.833029	-9.072189	-1.020240	-0.547895	0.067198	-0.380225	-0.006559	0.027789	-0.009136
954	4.797349	0.005000	2.881282	-9.092247	-1.076242	-0.548347	0.067311	-0.380982	-0.000079	0.015622	-0.002952
955	4.802349	0.005000	2.825280	-9.103680	-1.020240	-0.548799	0.067424	-0.381738	-0.003732	0.012929	-0.020488
956	4.807349	0.005000	2.841066	-9.043542	-1.022796	-0.549251	0.067537	-0.382495	-0.006652	0.017376	-0.006312
957	4.812349	0.005000	2.825280	-9.026204	-0.940756	-0.549702	0.067650	-0.383252	-0.006317	0.021335	-0.018444
958	4.817349	0.005000	2.786040	-9.084347	-0.960520	-0.550154	0.067763	-0.384009	-0.016158	0.015197	-0.021109
959	4.822349	0.005000	2.880213	-9.006889	-0.999311	-0.550606	0.067875	-0.384765	-0.009703	0.018172	-0.020073
960	4.827349	0.005000	2.821578	-9.003729	-1.116489	-0.551058	0.067988	-0.385522	-0.011256	0.011003	-0.018413
961	4.832349	0.005000	2.881266	-9.097933	-1.087721	-0.551510	0.068101	-0.386279	-0.009200	0.013034	-0.012245
962	4.837349	0.005000	2.864520	-9.141838	-0.981000	-0.551961	0.068214	-0.387036	-0.017229	0.016459	-0.028722
963	4.842349	0.005000	2.873428	-9.064440	-0.926594	-0.552413	0.068327	-0.387793	-0.012083	0.008825	-0.023895
964	4.847349	0.005000	2.814328	-9.103680	-0.955904	-0.552865	0.068440	-0.388549	-0.009835	0.013101	-0.013201
965	4.852349	0.005000	2.877814	-9.103680	-0.968349	-0.553317	0.068553	-0.389306	-0.015996	0.013942	-0.016600
966	4.857349	0.005000	2.771958	-9.091101	-1.034322	-0.553750	0.068648	-0.389990	-0.008803	0.019646	-0.017835
967	4.862349	0.005000	2.848680	-9.036900	-0.976860	-0.553976	0.068535	-0.389863	-0.007969	0.012128	-0.023055
968	4.867349	0.005000	2.853506	-9.081651	-0.919731	-0.554201	0.068422	-0.389737	-0.014032	0.019797	-0.011111
969	4.872349	0.005000	2.825280	-9.103680	-0.961744	-0.554427	0.068309	-0.389611	-0.010837	0.015007	-0.013930
970	4.877349	0.005000	2.804916	-9.073878	-0.971562	-0.554653	0.068196	-0.389485	-0.009468	0.004585	-0.007333
971	4.882349	0.005000	2.886905	-9.056013	-0.888562	-0.554879	0.068083	-0.389359	-0.013699	0.016524	-0.018483
972	4.887349	0.005000	2.801027	-9.025200	-0.956747	-0.555104	0.067970	-0.389233	-0.015140	0.016303	-0.011655
973	4.892349	0.005000	2.811586	-9.096833	-0.987847	-0.555330	0.067857	-0.389107	-0.003905	0.015447	-0.005991
974	4.897349	0.005000	2.780215	-9.131270	-0.986825	-0.555556	0.067744	-0.388981	-0.013107	0.016490	-0.017573
975	4.902349	0.005000	2.864520	-9.137637	-0.981000	-0.555782	0.067631	-0.388855	-0.015361	0.004740	-0.004092
976	4.907349	0.005000	2.899500	-9.060180	-0.950280	-0.556008	0.067518	-0.388729	-0.018574	0.010384	-0.013401
977	4.912349	0.005000	2.903760	-9.028438	-1.059480	-0.556233	0.067405	-0.388602	-0.017751	0.012698	-0.009163
978	4.917349	0.005000	2.864520	-8.985960	-1.020240	-0.556459	0.067292	-0.388476	-0.004961	0.016223	-0.010004
979	4.922349	0.005000	2.862847	-8.946720	-1.021913	-0.556685	0.067179	-0.388350	-0.018722	0.007179	-0.017782
980	4.927349	0.005000	2.751262	-9.064440	-1.098720	-0.556521	0.067164	-0.388007	-0.006959	0.012245	-0.015347
981	4.932349	0.005000	2.825187	-9.103494	-1.098720	-0.556295	0.067164	-0.387628	-0.010927	0.017396	-0.018645
982	4.937349	0.005000	2.786040	-9.025200	-1.060394	-0.556069	0.067164	-0.387250	-0.013514	0.005021	-0.014165
983	4.942349	0.005000	2.937113	-9.028143	-1.097248	-0.555843	0.067164	-0.386871	-0.025285	0.023875	-0.015164
984	4.947349	0.005000	2.943000	-9.106174	-1.135466	-0.555618	0.067164	-0.386493	-0.016603	0.023819	-0.018581
985	4.952349	0.005000	2.828797	-9.071473	-1.020240	-0.555392	0.067164	-0.386115	-0.015666	0.013939	-0.007161
986	4.957349	0.005000	2.790149	-8.985960	-0.949978	-0.555166	0.067164	-0.385736	-0.014424	0.020581	-0.018940
987	4.962349	0.005000	2.780959	-8.951801	-0.981000	-0.554940	0.067164	-0.385358	-0.008356	0.004991	-0.003051
988	4.967349	0.005000	2.830973	-9.058747	-0.947453	-0.554714	0.067164	-0.384979	-0.006360	0.017767	-0.020496
989	4.972349	0.005000	2.923062	-9.103680	-1.020240	-0.554488	0.067164	-0.384601	-0.009309	0.012098	-0.019340
990	4.977349	0.005000	2.896092	-8.970623	-0.964765	-0.554262	0.067164	-0.384223	-0.009937	0.014864	-0.008084
991	4.982349	0.005000	2.848068	-9.008748	-1.003788	-0.554036	0.067164	-0.383844	-0.009790	0.013728	-0.019856
992	4.987349	0.005000	2.943000	-9.115175	-1.059480	-0.553810	0.067164	-0.383466	-0.013522	0.014772	-0.016606
993	4.992349	0.005000	2.971981	-9.064440	-1.038961	-0.553878	0.066944	-0.383497	-0.014612	0.010259	-0.013205
994	4.997349	0.005000	2.949412	-9.014257	-0.991943	-0.554103	0.066605	-0.383749	-0.016257	0.010969	-0.009987
995	5.002349	0.005000	2.915596	-9.185893	-0.941760	-0.554329	0.066267	-0.384001	-0.016505	0.011819	-0.018281
996	5.007349	0.005000	2.890902	-9.117204	-0.916044	-0.554555	0.065928	-0.384254	0.007076	0.020515	-0.018598
997	5.012349	0.005000	2.851120	-9.012760	-1.059480	-0.554781	0.065589	-0.384506	-0.017647	0.015514	-0.021611
998	5.017349	0.005000	2.843730	-9.050017	-1.034663	-0.555007	0.065250	-0.384758	-0.009857	0.020619	-0.019308
999	5.022349	0.005000	2.858309	-9.001110	-1.020240	-0.555233	0.064911	-0.385011	0.000582	0.008583	-0.008573
1000	5.027349	0.005000	2.871786	-9.048453	-1.043493	-0.555459	0.064573	-0.385263	-0.017147	0.021509	-0.016727
1001	5.032349	0.005000	2.886750	-9.103680	-1.071269	-0.555685	0.064234	-0.385515	-0.005633	0.011810	-0.017423
1002	5.037349	0.005000	2.921538	-9.082218	-1.016556	-0.555911	0.063895	-0.385767	-0.003012	0.014071	-0.009900
1003	5.042349	0.005000	2.864520	-9.025200	-0.962410	-0.556136	0.063556	-0.386020	-0.011162	0.017438	-0.007594
1004	5.047349	0.005000	2.864520	-8.946705	-1.039883	-0.556362	0.063217	-0.386272	0.002737	0.015478	0.000798
1005	5.052349	0.005000	2.904829	-8.984891	-1.040394	-0.556588	0.062879	-0.386524	-0.007408	0.015510	-0.013384
1006	5.057349	0.005000	2.825280	-9.046377	-0.959823	-0.556520	0.062687	-0.386777	-0.012654	0.021259	-0.024720
1007	5.062349	0.005000	2.842801	-9.042721	-0.920041	-0.556068	0.062687	-0.387029	-0.013258	0.024734	-0.022874
1008	5.067349	0.005000	2.825280	-9.041698	-1.036738	-0.555616	0.062687	-0.387281	-0.009369	0.010454	-0.018399
1009	5.072349	0.005000	2.833568	-8.985960	-1.129672	-0.555164	0.062687	-0.387533	-0.011183	0.015509	-0.008366
1010	5.077349	0.005000	2.873892	-9.010266	-1.029612	-0.554712	0.062687	-0.387786	-0.016731	0.021982	-0.021343
1011	5.082349	0.005000	2.760711	-9.066934	-1.020240	-0.554261	0.062687	-0.388038	-0.016313	0.005565	-0.009406
1012	5.087349	0.005000	2.825280	-9.103790	-1.007197	-0.553809	0.062687	-0.388290	-0.015937	0.015851	-0.023970
1013	5.092349	0.005000	2.800618	-9.052109	-1.059480	-0.553357	0.062687	-0.388542	-0.002445	0.019155	-0.018604
1014	5.097349	0.005000	2.825280	-9.036509	-1.003618	-0.552905	0.062687	-0.388794	-0.003501	0.018911	-0.017327
1015	5.102349	0.005000	2.796454	-9.064440	-0.931346	-0.552454	0.062687	-0.389047	-0.010876	0.019059	-0.018588
1016	5.107349	0.005000	2.815536	-9.084192	-0.951504	-0.552002	0.062687	-0.389299	-0.005826	0.010433	-0.010360
1017	5.112349	0.005000	2.864520	-8.994790	-0.902520	-0.551550	0.062687	-0.389551	-0.004781	0.017715	-0.022703
1018	5.117349	0.005000	2.862862	-9.056260	-0.902520	-0.551098	0.062687	-0.389803	-0.017627	0.012159	-0.015866
1019	5.122349	0.005000	2.825280	-9.046671	-0.931148	-0.550796	0.062712	-0.389944	-0.009240	0.013041	-0.009667
1020	5.127349	0.005000	2.825280	-9.085056	-0.993416	-0.551022	0.062825	-0.389692	-0.012194	0.012357	-0.014005
1021	5.132349	0.005000	2.892602	-8.952299	-0.975421	-0.551247	0.062938	-0.389440	-0.009452	0.009258	-0.011666
1022	5.137349	0.005000	2.825280	-9.029770	-1.033950	-0.551473	0.063050	-0.389188	0.000762	0.016011	-0.013915
1023	5.142349	0.005000	2.982240	-9.064440	-1.137960	-0.551699	0.063163	-0.388936	-0.002407	0.011692	0.001307
1024	5.147349	0.005000	2.940010	-9.139930	-1.131980	-0.551925	0.063276	-0.388684	-0.003876	0.018287	-0.007090
1025	5.152349	0.005000	2.868455	-9.025200	-1.022207	-0.552151	0.063389	-0.388432	0.001375	0.017629	-0.016253
1026	5.157349	0.005000	2.944425	-9.142920	-1.095870	-0.552376	0.063502	-0.388180	0.000513	0.012455	0.005903
1027	5.162349	0.005000	2.942194	-9.064037	-0.981000	-0.552602	0.063615	-0.387927	-0.007680	0.017124	-0.014145
1028	5.167349	0.005000	2.864520	-8.947959	-0.826519	-0.552828	0.063728	-0.387675	-0.001589	0.009461	0.002975
1029	5.172349	0.005000	2.864520	-9.025200	-0.940598	-0.553054	0.063840	-0.387423	-0.012847	0.017076	-0.011309
1030	5.177349	0.005000	2.901576	-9.031753	-0.865464	-0.553280	0.063953	-0.387171	-0.004542	0.005550	-0.010616
1031	5.182349	0.005000	2.861745	-9.061665	-0.938985	-0.553505	0.064066	-0.386919	-0.004585	0.018110	-0.005112
1032	5.187349	0.005000	2.903760	-9.032729	-0.981000	-0.553731	0.064179	-0.386667	-0.004006	0.021154	-0.016265
1033	5.192349	0.005000	2.938227	-9.172613	-0.946533	-0.553844	0.064292	-0.386036	-0.008099	0.023645	-0.016636
1034	5.197349	0.005000	2.831074	-9.081821	-0.986794	-0.553957	0.064405	-0.385405	-0.006130	0.023087	-0.019527
1035	5.202349	0.005000	2.720263	-9.031552	-0.948112	-0.554070	0.064518	-0.384774	-0.008678	0.005730	-0.014734
1036	5.207349	0.005000	2.778666	-9.057066	-0.941760	-0.554183	0.064631	-0.384143	-0.008678	0.016085	-0.016909
1037	5.212349	0.005000	2.825280	-9.095666	-0.886492	-0.554296	0.064744	-0.383512	-0.005016	0.007389	-0.017046
1038	5.217349	0.005000	2.855581	-9.082317	-1.011301	-0.554409	0.064857	-0.382881	-0.013762	0.014854	-0.004416
1039	5.222349	0.005000	2.825280	-9.025200	-0.941760	-0.554522	0.064970	-0.382250	-0.014043	0.013982	-0.015461
1040	5.227349	0.005000	2.843514	-8.957223	-1.002006	-0.554635	0.065083	-0.381619	-0.005201	0.013294	-0.001077
1041	5.232349	0.005000	2.864520	-8.835863	-1.064143	-0.554748	0.065196	-0.380988	-0.011701	0.021487	-0.017168
1042	5.237349	0.005000	2.889616	-8.960864	-1.125412	-0.554861	0.065309	-0.380357	-0.002964	0.010504	-0.012960
1043	5.242349	0.005000	2.890732	-9.064440	-0.994183	-0.554974	0.065422	-0.379726	-0.004196	0.006945	-0.004901
1044	5.247349	0.005000	2.914763	-9.050322	-1.045362	-0.555087	0.065535	-0.379095	-0.009451	0.013554	-0.019720
1045	5.252349	0.005000	2.879366	-8.946720	-0.966154	-0.555201	0.065649	-0.378464	-0.006300	0.013196	-0.005698
1046	5.257349	0.005000	2.864520	-9.048747	-1.035933	-0.555134	0.066030	-0.378733	-0.006558	0.015179	-0.018173
1047	5.262349	0.005000	2.881235	-8.991769	-1.121245	-0.555021	0.066482	-0.379237	-0.011444	0.013062	-0.017050
1048	5.267349	0.005000	2.825280	-9.064440	-1.120222	-0.554909	0.066934	-0.379742	-0.007436	0.018350	-0.012358
1049	5.272349	0.005000	2.924720	-9.145600	-1.153560	-0.554796	0.067385	-0.380246	-0.004707	0.014986	-0.016872
1050	5.277349	0.005000	2.962938	-9.005898	-1.079418	-0.554683	0.067837	-0.380751	-0.012112	0.018290	-0.015846
1051	5.282349	0.005000	2.963091	-9.044349	-1.118811	-0.554570	0.068289	-0.381255	-0.006894	0.012194	-0.016084
1052	5.287349	0.005000	2.804413	-9.046067	-1.041107	-0.554457	0.068741	-0.381760	-0.009280	0.012932	-0.005563
1053	5.292349	0.005000	2.903760	-9.086330	-0.998350	-0.554344	0.069193	-0.382265	-0.017181	0.020940	-0.016287
1054	5.297349	0.005000	2.831864	-9.074184	-1.075808	-0.554231	0.069644	-0.382769	-0.007265	0.010136	-0.023683
1055	5.302349	0.005000	2.864148	-9.103680	-1.082950	-0.554118	0.070096	-0.383274	-0.008182	0.015256	-0.014387
1056	5.307349	0.005000	2.840043	-9.049677	-1.000426	-0.554005	0.070548	-0.383778	-0.011195	0.017567	-0.019865
1057	5.312349	0.005000	2.875949	-8.999866	-0.955666	-0.553892	0.071000	-0.384283	-0.008923	0.001011	-0.005072
1058	5.317349	0.005000	2.720743	-8.985960	-0.902830	-0.553779	0.071451	-0.384787	-0.008013	0.019208	-0.013358
1059	5.322349	0.005000	2.734639	-9.000878	-1.022997	-0.553927	0.071250	-0.385073	-0.010717	0.008574	-0.003710
1060	5.327349	0.005000	2.809277	-9.009197	-1.008621	-0.554266	0.070572	-0.385199	-0.014377	0.015490	-0.001156
1061	5.332349	0.005000	2.903760	-9.035796	-0.999048	-0.554605	0.069895	-0.385325	-0.019373	0.016074	-0.011236
1062	5.337349	0.005000	2.913923	-9.025200	-0.980529	-0.554944	0.069217	-0.385451	-0.020534	0.011229	-0.021641
1063	5.342349	0.005000	2.885697	-9.055408	-1.062594	-0.555282	0.068539	-0.385578	-0.025189	0.008363	-0.024215
1064	5.347349	0.005000	2.778031	-8.985960	-0.933751	-0.555621	0.067862	-0.385704	-0.023570	0.011262	-0.008473
1065	5.352349	0.005000	2.760941	-9.103680	-0.981000	-0.555960	0.067184	-0.385830	-0.015130	0.017083	-0.009604
1066	5.357349	0.005000	2.825280	-9.103680	-1.053051	-0.556299	0.066506	-0.385956	-0.012153	0.016134	-0.011626
1067	5.362349	0.005000	2.819871	-9.069849	-1.054071	-0.556638	0.065829	-0.386082	-0.023026	0.017831	-0.013637
1068	5.367349	0.005000	2.898896	-9.098816	-0.961217	-0.556977	0.065151	-0.386208	-0.010022	0.011150	-0.016771
1069	5.372349	0.005000	2.986082	-9.056756	-1.091036	-0.557316	0.064473	-0.386334	-0.005827	0.006067	-0.001877
1070	5.377349	0.005000	2.943000	-9.025200	-0.975291	-0.557655	0.063796	-0.386461	-0.022579	0.013084	-0.014766
1071	5.382349	0.005000	2.977685	-9.053054	-0.948592	-0.557993	0.063118	-0.386587	-0.015305	0.009245	-0.013777
1072	5.387349	0.005000	2.826535	-9.027710	-0.941760	-0.558332	0.062646	-0.385932	-0.007725	0.009010	-0.004358
1073	5.392349	0.005000	2.865233	-9.064440	-1.020953	-0.558671	0.062533	-0.383914	-0.009818	0.021500	-0.013630
1074	5.397349	0.005000	2.903760	-8.986580	-1.059480	-0.559010	0.062420	-0.381896	-0.006197	0.003938	-0.005496
1075	5.402349	0.005000	2.905092	-9.063108	-1.097388	-0.559349	0.062307	-0.379878	-0.009886	0.016090	-0.010217
1076	5.407349	0.005000	2.786040	-9.144833	-1.098720	-0.559688	0.062194	-0.377860	-0.006516	0.016494	-0.012522
1077	5.412349	0.005000	2.780215	-9.106592	-1.023152	-0.560027	0.062081	-0.375842	-0.005757	0.012880	-0.005117
1078	5.417349	0.005000	2.825280	-9.103680	-1.028110	-0.560366	0.061968	-0.373824	0.006881	0.010104	-0.009911
1079	5.422349	0.005000	2.933939	-9.059909	-1.038363	-0.560705	0.061855	-0.371806	-0.015270	0.020809	-0.012958
1080	5.427349	0.005000	2.859021	-9.030699	-1.132461	-0.561043	0.061742	-0.369788	-0.008138	0.015513	-0.014766
