# FOX Logger (IMU file)
# (c) INRIA 2011-2014
# File created from file sensbiotk output
#
# File format:
# id	t	dt	ax	ay	az	mx	my	mz	gx	gy	gz
#
# Units:
#	Time: s
#\Acceleration: m.s^-2
#\Magneto: gauss
#\Gyrometer: rad/s
#
1	0.036072	0.036072	-0.505823	-0.331109	-9.827189	-0.131343	-0.229851	-0.995000	0.041539	-0.002835	0.013059
2	0.041072	0.005000	-0.506660	-0.392400	-9.931180	-0.131228	-0.229851	-0.995000	0.046556	0.000344	-0.005025
3	0.046072	0.005000	-0.470880	-0.317417	-9.959965	-0.131113	-0.229851	-0.995000	0.039382	-0.005274	0.003915
4	0.051072	0.005000	-0.431640	-0.317024	-10.006200	-0.130997	-0.229851	-0.995000	0.046332	-0.008163	0.002884
5	0.056072	0.005000	-0.358553	-0.355856	-9.893873	-0.130882	-0.229851	-0.995000	0.040206	-0.013806	-0.005267
6	0.061072	0.005000	-0.316210	-0.353160	-9.971540	-0.130767	-0.229851	-0.995000	0.027249	-0.005243	0.007847
7	0.066072	0.005000	-0.351263	-0.315817	-10.002406	-0.130652	-0.229851	-0.995000	0.028209	-0.000884	-0.009739
8	0.071072	0.005000	-0.430132	-0.390892	-9.888480	-0.130537	-0.229851	-0.995000	0.015626	-0.002493	0.007350
9	0.076072	0.005000	-0.353160	-0.469785	-9.851431	-0.130421	-0.229851	-0.995000	0.021119	0.005763	0.011060
10	0.081072	0.005000	-0.393561	-0.392400	-9.884998	-0.130306	-0.229851	-0.995000	0.014949	-0.001476	0.012429
11	0.086072	0.005000	-0.470112	-0.392400	-9.890016	-0.130191	-0.229851	-0.995000	0.007622	-0.011801	0.012814
12	0.091072	0.005000	-0.432361	-0.314281	-10.084319	-0.130076	-0.229851	-0.995000	0.010199	-0.000775	0.005073
13	0.096072	0.005000	-0.353208	-0.313920	-10.084585	-0.129961	-0.229851	-0.995000	0.025922	0.000543	0.009271
14	0.101072	0.005000	-0.470441	-0.353160	-9.928159	-0.129857	-0.229845	-0.995006	0.019943	0.001194	0.014355
15	0.106072	0.005000	-0.431640	-0.316460	-9.925180	-0.129972	-0.229730	-0.995135	0.015045	-0.005193	0.018725
16	0.111072	0.005000	-0.355668	-0.470880	-9.846732	-0.130087	-0.229615	-0.995264	0.016597	-0.014395	0.005759
17	0.116072	0.005000	-0.433287	-0.392400	-9.777347	-0.130202	-0.229499	-0.995393	0.004348	-0.011391	-0.003489
18	0.121072	0.005000	-0.512174	-0.390346	-9.857455	-0.130318	-0.229384	-0.995521	0.007789	0.002848	0.011377
19	0.126072	0.005000	-0.427640	-0.351160	-9.970960	-0.130433	-0.229269	-0.995650	0.004139	0.004086	0.014444
20	0.131072	0.005000	-0.355573	-0.321158	-10.075029	-0.130548	-0.229153	-0.995779	0.008719	-0.007829	0.016893
21	0.136072	0.005000	-0.468104	-0.392400	-9.964184	-0.130663	-0.229038	-0.995908	0.006762	-0.007721	0.015161
22	0.141072	0.005000	-0.470880	-0.428458	-10.045440	-0.130779	-0.228923	-0.996036	0.001167	-0.006774	0.009594
23	0.146072	0.005000	-0.428064	-0.474456	-9.927720	-0.130894	-0.228807	-0.996165	-0.009913	-0.002227	0.010685
24	0.151072	0.005000	-0.435196	-0.392400	-9.892036	-0.131009	-0.228692	-0.996294	-0.018835	-0.000814	0.004140
25	0.156072	0.005000	-0.474833	-0.459022	-9.963007	-0.131124	-0.228577	-0.996423	-0.018002	-0.012548	0.017647
26	0.161072	0.005000	-0.409645	-0.278991	-9.862174	-0.131240	-0.228461	-0.996551	-0.016393	-0.009928	0.005982
27	0.166072	0.005000	-0.549360	-0.269961	-9.962241	-0.131379	-0.228358	-0.996627	-0.024757	-0.008968	0.013881
28	0.171072	0.005000	-0.475993	-0.269567	-9.854353	-0.131724	-0.228358	-0.996241	-0.006332	-0.004678	0.006935
29	0.176072	0.005000	-0.358678	-0.313920	-9.922202	-0.132070	-0.228358	-0.995855	0.004660	0.000561	0.007902
30	0.181072	0.005000	-0.398313	-0.280593	-9.921807	-0.132416	-0.228358	-0.995469	0.026352	-0.006535	0.008467
31	0.186072	0.005000	-0.418999	-0.346840	-9.901121	-0.132762	-0.228358	-0.995082	0.023212	-0.015577	0.005987
32	0.191072	0.005000	-0.392400	-0.196200	-9.999474	-0.133108	-0.228358	-0.994696	0.023819	-0.009595	0.004864
33	0.196072	0.005000	-0.399520	-0.306800	-9.981201	-0.133454	-0.228358	-0.994310	0.011787	-0.000229	0.002563
34	0.201072	0.005000	-0.392400	-0.289736	-10.108864	-0.133800	-0.228358	-0.993924	0.015327	-0.004218	0.000553
35	0.206072	0.005000	-0.424100	-0.375780	-9.871860	-0.134146	-0.228358	-0.993537	0.032601	-0.002323	0.012422
36	0.211072	0.005000	-0.470880	-0.502167	-9.919767	-0.134492	-0.228358	-0.993151	0.037488	-0.006252	0.016638
37	0.216072	0.005000	-0.501770	-0.454181	-9.966960	-0.134838	-0.228358	-0.992765	0.031710	-0.010295	0.007563
38	0.221072	0.005000	-0.540703	-0.401057	-9.849240	-0.135184	-0.228358	-0.992379	0.022048	-0.000366	-0.003417
39	0.226072	0.005000	-0.383339	-0.383339	-9.819061	-0.135529	-0.228358	-0.991993	0.003131	0.006579	0.002841
40	0.231072	0.005000	-0.422183	-0.480337	-9.907394	-0.135712	-0.228267	-0.991707	0.002838	-0.006565	0.001785
41	0.236072	0.005000	-0.451158	-0.549360	-9.898341	-0.135021	-0.227691	-0.991965	-0.003260	-0.003147	0.005633
42	0.241072	0.005000	-0.363429	-0.481149	-9.857674	-0.134329	-0.227115	-0.992222	-0.027608	-0.003264	0.004655
43	0.246072	0.005000	-0.420975	-0.420975	-9.763514	-0.133637	-0.226538	-0.992480	-0.068405	0.003624	0.002572
44	0.251072	0.005000	-0.413830	-0.392400	-9.909910	-0.132945	-0.225962	-0.992737	-0.089608	-0.011074	0.004429
45	0.256072	0.005000	-0.470880	-0.342032	-9.978088	-0.132253	-0.225385	-0.992995	-0.091229	-0.007929	-0.002057
46	0.261072	0.005000	-0.470880	-0.223900	-9.978500	-0.131562	-0.224809	-0.993252	-0.065264	-0.008446	0.010484
47	0.266072	0.005000	-0.494754	-0.247377	-9.915783	-0.130870	-0.224232	-0.993510	-0.041263	-0.006109	0.006615
48	0.271072	0.005000	-0.446180	-0.247790	-9.952420	-0.130178	-0.223656	-0.993767	-0.029141	-0.002570	0.002534
49	0.276072	0.005000	-0.417904	-0.326672	-10.006200	-0.129486	-0.223080	-0.994025	-0.023953	-0.002357	0.009338
50	0.281072	0.005000	-0.523041	-0.340239	-10.019121	-0.128795	-0.222503	-0.994282	-0.018514	0.001044	0.011781
51	0.286072	0.005000	-0.470880	-0.326016	-9.953388	-0.128103	-0.221927	-0.994540	-0.000332	-0.016278	0.006473
52	0.291072	0.005000	-0.420338	-0.260711	-9.955658	-0.127411	-0.221350	-0.994797	0.004045	-0.007055	0.015652
53	0.296072	0.005000	-0.417431	-0.249649	-10.123920	-0.126915	-0.221018	-0.994945	0.021622	-0.003005	0.004280
54	0.301072	0.005000	-0.421989	-0.225789	-9.927720	-0.127145	-0.221594	-0.994688	0.042559	-0.004358	0.008328
55	0.306072	0.005000	-0.440498	-0.220249	-9.958102	-0.127376	-0.222171	-0.994431	0.054041	0.003147	0.005237
56	0.311072	0.005000	-0.407811	-0.290091	-9.864651	-0.127607	-0.222747	-0.994173	0.032210	0.000083	0.010814
57	0.316072	0.005000	-0.400003	-0.337342	-9.872662	-0.127837	-0.223324	-0.993916	0.016236	-0.001435	0.003345
58	0.321072	0.005000	-0.424833	-0.330137	-9.911503	-0.128068	-0.223900	-0.993658	0.009092	-0.003453	0.004737
59	0.326072	0.005000	-0.470880	-0.330254	-9.904814	-0.128298	-0.224477	-0.993401	0.020803	0.000474	0.003730
60	0.331072	0.005000	-0.426433	-0.303506	-9.871463	-0.128529	-0.225053	-0.993143	0.024116	-0.006534	0.001315
61	0.336072	0.005000	-0.414216	-0.431640	-9.770760	-0.128759	-0.225629	-0.992886	0.019181	-0.000478	0.001354
62	0.341072	0.005000	-0.392400	-0.492295	-9.770760	-0.128990	-0.226206	-0.992628	-0.001438	-0.010522	-0.000132
63	0.346072	0.005000	-0.488849	-0.359763	-9.845938	-0.129221	-0.226782	-0.992371	-0.032709	-0.010011	-0.000645
64	0.351072	0.005000	-0.470880	-0.256307	-9.964467	-0.129451	-0.227359	-0.992113	-0.066288	-0.015562	0.000635
65	0.356072	0.005000	-0.411179	-0.156960	-10.023296	-0.129682	-0.227935	-0.991856	-0.039067	-0.009830	0.003858
66	0.361072	0.005000	-0.389735	-0.177246	-10.007533	-0.129882	-0.228358	-0.991701	-0.028787	-0.012195	0.008507
67	0.366072	0.005000	-0.490233	-0.274147	-9.928253	-0.129997	-0.228358	-0.991830	-0.013493	-0.005101	-0.000235
68	0.371072	0.005000	-0.392682	-0.294441	-9.966960	-0.130112	-0.228358	-0.991959	-0.000599	-0.003971	-0.009333
69	0.376072	0.005000	-0.411479	-0.275762	-10.065601	-0.130227	-0.228358	-0.992087	-0.003061	-0.013808	-0.003073
70	0.381072	0.005000	-0.470880	-0.353160	-9.946399	-0.130342	-0.228358	-0.992216	-0.005904	-0.011019	-0.000467
71	0.386072	0.005000	-0.470880	-0.413360	-9.864839	-0.130458	-0.228358	-0.992344	0.002993	-0.014691	0.007391
72	0.391072	0.005000	-0.434688	-0.313920	-9.713424	-0.130573	-0.228358	-0.992473	-0.016289	-0.003870	0.005973
73	0.396072	0.005000	-0.392400	-0.374717	-9.813873	-0.130688	-0.228358	-0.992602	-0.005723	-0.006607	0.007752
74	0.401072	0.005000	-0.497500	-0.392400	-9.875860	-0.130803	-0.228358	-0.992730	-0.017610	-0.002349	-0.001206
75	0.406072	0.005000	-0.492969	-0.353160	-10.045440	-0.130918	-0.228358	-0.992859	-0.021322	-0.001906	0.013638
76	0.411072	0.005000	-0.498613	-0.330663	-10.051194	-0.131034	-0.228358	-0.992988	-0.006344	-0.003618	0.010725
77	0.416072	0.005000	-0.487222	-0.274680	-10.068338	-0.131149	-0.228358	-0.993116	-0.011465	-0.002448	0.009454
78	0.421072	0.005000	-0.478233	-0.251384	-9.959607	-0.131264	-0.228358	-0.993245	-0.007359	-0.006915	0.008061
79	0.426072	0.005000	-0.549360	-0.274680	-9.943451	-0.131271	-0.228394	-0.993293	-0.014187	-0.003892	0.002631
80	0.431072	0.005000	-0.534042	-0.235440	-9.912402	-0.131040	-0.228510	-0.993164	-0.006213	-0.010723	0.010495
81	0.436072	0.005000	-0.422243	-0.274680	-9.976357	-0.130809	-0.228625	-0.993035	-0.011337	-0.013960	-0.001456
82	0.441072	0.005000	-0.456371	-0.260171	-10.045440	-0.130579	-0.228740	-0.992906	-0.017357	-0.004883	0.014885
83	0.446072	0.005000	-0.431640	-0.299818	-9.941822	-0.130348	-0.228856	-0.992778	-0.011148	-0.005865	0.009927
84	0.451072	0.005000	-0.496421	-0.327619	-9.927720	-0.130118	-0.228971	-0.992649	-0.005870	-0.002604	0.001991
85	0.456072	0.005000	-0.484166	-0.196819	-9.979627	-0.129887	-0.229086	-0.992520	-0.015236	-0.009743	0.014409
86	0.461072	0.005000	-0.379510	-0.183310	-9.993882	-0.129656	-0.229202	-0.992392	-0.001209	-0.015441	0.009119
87	0.466072	0.005000	-0.458403	-0.235440	-10.045440	-0.129426	-0.229317	-0.992263	-0.000815	-0.013699	0.022682
88	0.471072	0.005000	-0.404801	-0.274680	-9.900881	-0.129195	-0.229432	-0.992134	0.006410	-0.009703	0.013036
89	0.476072	0.005000	-0.431640	-0.380402	-9.794756	-0.128965	-0.229548	-0.992006	0.001442	-0.002195	-0.006310
90	0.481072	0.005000	-0.380799	-0.420039	-9.881316	-0.128734	-0.229663	-0.991877	-0.008054	-0.012223	0.000822
91	0.486072	0.005000	-0.414787	-0.448493	-9.972619	-0.128503	-0.229778	-0.991748	-0.024242	-0.019248	0.001447
92	0.491072	0.005000	-0.460090	-0.335500	-9.842371	-0.128741	-0.230106	-0.991144	-0.043748	-0.014869	0.003583
93	0.496072	0.005000	-0.431640	-0.245964	-9.899004	-0.129779	-0.230798	-0.989727	-0.045308	-0.009481	-0.009736
94	0.501072	0.005000	-0.411417	-0.079686	-9.917608	-0.130817	-0.231490	-0.988310	-0.046408	-0.010384	-0.004850
95	0.506072	0.005000	-0.382701	-0.078480	-9.907878	-0.131855	-0.232183	-0.986893	-0.016493	-0.014310	0.006817
96	0.511072	0.005000	-0.383098	-0.156960	-9.927720	-0.132894	-0.232875	-0.985477	-0.007991	-0.011916	0.003078
97	0.516072	0.005000	-0.422375	-0.205465	-10.054705	-0.133932	-0.233567	-0.984060	0.013049	-0.009850	0.015280
98	0.521072	0.005000	-0.392400	-0.117720	-9.975821	-0.134970	-0.234259	-0.982643	0.011190	-0.009364	-0.006731
99	0.526072	0.005000	-0.431640	-0.165413	-9.927720	-0.136008	-0.234951	-0.981226	0.022794	-0.003583	-0.002467
100	0.531072	0.005000	-0.392400	-0.274680	-9.975018	-0.137046	-0.235643	-0.979809	0.035869	-0.012515	0.002632
101	0.536072	0.005000	-0.431640	-0.337853	-9.896134	-0.138084	-0.236335	-0.978392	0.031734	-0.002152	0.015643
102	0.541072	0.005000	-0.385066	-0.313920	-9.849240	-0.139122	-0.237027	-0.976975	0.029453	-0.004894	0.014562
103	0.546072	0.005000	-0.470880	-0.281617	-10.077743	-0.140161	-0.237719	-0.975558	0.003534	-0.001187	0.002575
104	0.551072	0.005000	-0.484739	-0.306991	-9.870028	-0.141199	-0.238411	-0.974141	-0.022772	0.000885	-0.000993
105	0.556072	0.005000	-0.431640	-0.359684	-9.966960	-0.142138	-0.238955	-0.973167	-0.017934	-0.002377	-0.007200
106	0.561072	0.005000	-0.464763	-0.307803	-10.012317	-0.142945	-0.239300	-0.972781	-0.019212	-0.011500	0.012117
107	0.566072	0.005000	-0.364604	-0.274680	-9.972682	-0.143752	-0.239646	-0.972395	-0.021075	-0.009585	0.016332
108	0.571072	0.005000	-0.392400	-0.139245	-10.011581	-0.144559	-0.239992	-0.972008	-0.032213	-0.007629	-0.002038
109	0.576072	0.005000	-0.505149	-0.230469	-10.011171	-0.145366	-0.240338	-0.971622	-0.021488	-0.003346	0.009702
110	0.581072	0.005000	-0.579457	-0.313920	-9.883908	-0.146173	-0.240684	-0.971236	-0.003234	0.000638	0.003333
111	0.586072	0.005000	-0.470880	-0.309761	-10.006200	-0.146980	-0.241030	-0.970850	-0.002882	-0.000290	0.009507
112	0.591072	0.005000	-0.466693	-0.278867	-9.892667	-0.147787	-0.241376	-0.970463	0.012212	-0.003606	0.009983
113	0.596072	0.005000	-0.549360	-0.310140	-9.828899	-0.148594	-0.241722	-0.970077	0.001885	-0.005544	0.004098
114	0.601072	0.005000	-0.402559	-0.349774	-9.885094	-0.149401	-0.242068	-0.969691	-0.007404	-0.005761	0.005682
115	0.606072	0.005000	-0.428660	-0.350180	-9.885500	-0.150208	-0.242414	-0.969305	-0.021177	-0.004129	-0.003326
116	0.611072	0.005000	-0.394987	-0.279853	-9.896240	-0.151015	-0.242760	-0.968919	-0.025353	-0.006497	0.013299
117	0.616072	0.005000	-0.353160	-0.235440	-9.775118	-0.151823	-0.243106	-0.968532	-0.020073	-0.011387	0.011896
118	0.621072	0.005000	-0.433412	-0.199744	-9.847468	-0.151849	-0.243172	-0.968894	-0.033499	-0.022560	0.004986
119	0.626072	0.005000	-0.353160	-0.198959	-9.737038	-0.151042	-0.242942	-0.970052	-0.041359	-0.014401	0.017074
120	0.631072	0.005000	-0.469908	-0.274680	-9.924803	-0.150235	-0.242712	-0.971210	-0.032719	-0.013559	0.005775
121	0.636072	0.005000	-0.470315	-0.158654	-10.122791	-0.149429	-0.242481	-0.972368	-0.013352	-0.010370	0.013934
122	0.641072	0.005000	-0.392572	-0.078308	-9.849240	-0.148622	-0.242251	-0.973526	0.006736	-0.004299	0.003156
123	0.646072	0.005000	-0.431170	-0.235675	-9.770760	-0.147815	-0.242020	-0.974684	0.017218	-0.008302	0.010923
124	0.651072	0.005000	-0.353811	-0.273378	-9.813254	-0.147008	-0.241790	-0.975842	0.005801	-0.011035	0.001802
125	0.656072	0.005000	-0.394495	-0.237535	-10.006200	-0.146202	-0.241559	-0.977001	0.008194	-0.005068	0.001530
126	0.661072	0.005000	-0.393860	-0.232519	-9.930641	-0.145395	-0.241329	-0.978159	-0.009131	-0.005091	0.020126
127	0.666072	0.005000	-0.356874	-0.233583	-9.966960	-0.144588	-0.241098	-0.979317	0.013453	-0.004844	0.006819
128	0.671072	0.005000	-0.433910	-0.196200	-10.001660	-0.143782	-0.240868	-0.980475	0.026433	-0.005262	0.013290
129	0.676072	0.005000	-0.476179	-0.238089	-9.927720	-0.142975	-0.240637	-0.981633	0.035408	0.003426	0.005172
130	0.681072	0.005000	-0.579472	-0.238483	-9.897608	-0.142168	-0.240407	-0.982791	0.038771	-0.002614	0.015996
131	0.686072	0.005000	-0.470880	-0.156960	-9.810000	-0.141668	-0.239992	-0.983059	0.063248	-0.005028	0.008240
132	0.691072	0.005000	-0.431640	-0.278585	-9.888480	-0.141438	-0.239416	-0.982544	0.071596	0.000368	0.006345
133	0.696072	0.005000	-0.427390	-0.235440	-9.923470	-0.141207	-0.238839	-0.982029	0.068025	-0.005971	0.014090
134	0.701072	0.005000	-0.422328	-0.313920	-9.962304	-0.140977	-0.238263	-0.981514	0.080009	-0.002257	0.000253
135	0.706072	0.005000	-0.329070	-0.313920	-9.883430	-0.140746	-0.237686	-0.980999	0.082843	-0.002975	0.009842
136	0.711072	0.005000	-0.442556	-0.308462	-9.961502	-0.140515	-0.237110	-0.980484	0.063257	-0.006254	0.007540
137	0.716072	0.005000	-0.537633	-0.308057	-9.849240	-0.140285	-0.236533	-0.979969	0.047899	-0.000478	-0.002616
138	0.721072	0.005000	-0.503862	-0.241698	-9.861755	-0.140054	-0.235957	-0.979454	0.027511	-0.004366	0.009372
139	0.726072	0.005000	-0.424975	-0.307255	-9.966960	-0.139824	-0.235380	-0.978939	0.046124	0.001406	0.003360
140	0.731072	0.005000	-0.431640	-0.163627	-9.921053	-0.139593	-0.234804	-0.978425	0.069510	0.000551	0.014019
141	0.736072	0.005000	-0.399480	-0.256679	-9.927720	-0.139362	-0.234227	-0.977910	0.082714	-0.002116	0.009992
142	0.741072	0.005000	-0.399877	-0.345683	-10.030487	-0.139132	-0.233651	-0.977395	0.079550	-0.003527	0.001675
143	0.746072	0.005000	-0.439529	-0.337381	-9.927720	-0.138901	-0.233074	-0.976880	0.073152	-0.004299	-0.000388
144	0.751072	0.005000	-0.493516	-0.243742	-9.911116	-0.138535	-0.232498	-0.977271	0.057298	0.009790	-0.004292
145	0.756072	0.005000	-0.426778	-0.283275	-9.888480	-0.138074	-0.231921	-0.978301	0.054751	0.003057	0.002837
146	0.761072	0.005000	-0.510120	-0.274680	-9.879368	-0.137613	-0.231345	-0.979331	0.034213	0.000824	0.004756
147	0.766072	0.005000	-0.500596	-0.255631	-9.858764	-0.137152	-0.230768	-0.980361	0.037275	-0.005608	-0.002681
148	0.771072	0.005000	-0.402321	-0.274680	-9.898401	-0.136691	-0.230192	-0.981391	0.040359	-0.008762	0.009867
149	0.776072	0.005000	-0.481214	-0.295348	-9.929815	-0.136230	-0.229615	-0.982421	0.021932	-0.007192	0.003320
150	0.781072	0.005000	-0.481615	-0.303185	-9.977695	-0.135768	-0.229039	-0.983451	0.032574	-0.004681	0.006953
151	0.786072	0.005000	-0.488100	-0.324930	-9.988980	-0.135307	-0.228462	-0.984481	0.033737	-0.008603	0.003425
152	0.791072	0.005000	-0.487294	-0.336746	-9.927720	-0.134846	-0.227886	-0.985511	0.038412	0.002727	0.004414
153	0.796072	0.005000	-0.447261	-0.341350	-9.884669	-0.134385	-0.227309	-0.986541	0.017147	-0.001195	-0.001751
154	0.801072	0.005000	-0.443857	-0.289485	-9.993983	-0.133924	-0.226733	-0.987571	0.017585	-0.005256	0.006055
155	0.806072	0.005000	-0.470880	-0.196200	-9.991533	-0.133463	-0.226156	-0.988601	0.036691	-0.012217	0.013528
156	0.811072	0.005000	-0.496278	-0.261981	-10.123920	-0.133001	-0.225580	-0.989630	0.027979	0.000685	0.004981
157	0.816072	0.005000	-0.575661	-0.274257	-10.072165	-0.132984	-0.225447	-0.990165	0.051447	0.003246	0.011251
158	0.821072	0.005000	-0.522343	-0.300411	-9.992691	-0.133214	-0.225562	-0.990422	0.054929	0.003754	-0.001719
159	0.826072	0.005000	-0.445389	-0.260931	-9.941469	-0.133445	-0.225677	-0.990680	0.036428	0.005514	0.011188
160	0.831072	0.005000	-0.431640	-0.185253	-9.874334	-0.133675	-0.225793	-0.990937	0.049834	0.007224	0.005954
161	0.836072	0.005000	-0.499988	-0.249994	-9.903034	-0.133906	-0.225908	-0.991194	0.060691	-0.001006	0.000656
162	0.841072	0.005000	-0.534708	-0.289332	-9.927720	-0.134136	-0.226023	-0.991452	0.057872	-0.004767	0.006723
163	0.846072	0.005000	-0.455816	-0.298856	-9.864304	-0.134367	-0.226139	-0.991709	0.057382	-0.001129	-0.006156
164	0.851072	0.005000	-0.447101	-0.235440	-9.958642	-0.134597	-0.226254	-0.991966	0.047153	-0.003475	0.006555
165	0.856072	0.005000	-0.455197	-0.243313	-9.935593	-0.134828	-0.226369	-0.992224	0.058868	0.004777	0.010069
166	0.861072	0.005000	-0.549360	-0.274680	-10.022285	-0.135058	-0.226484	-0.992481	0.051482	0.002172	0.006702
167	0.866072	0.005000	-0.532877	-0.258197	-10.006200	-0.135288	-0.226600	-0.992738	0.066394	-0.001948	-0.004839
168	0.871072	0.005000	-0.454276	-0.258076	-9.944324	-0.135519	-0.226715	-0.992996	0.051063	0.011104	-0.007584
169	0.876072	0.005000	-0.431640	-0.240647	-9.972167	-0.135749	-0.226830	-0.993253	0.049247	0.000520	0.002480
170	0.881072	0.005000	-0.392400	-0.209248	-9.871051	-0.135900	-0.226707	-0.993156	0.063496	0.005209	-0.002018
171	0.886072	0.005000	-0.374787	-0.349145	-9.849240	-0.136016	-0.226476	-0.992898	0.065385	0.005491	0.003166
172	0.891072	0.005000	-0.335147	-0.313920	-9.828013	-0.136131	-0.226246	-0.992641	0.038690	-0.006244	-0.000576
173	0.896072	0.005000	-0.353160	-0.410821	-9.867661	-0.136246	-0.226015	-0.992383	0.022073	-0.014371	0.006277
174	0.901072	0.005000	-0.357351	-0.355255	-9.966960	-0.136361	-0.225785	-0.992126	0.006730	-0.004495	0.011010
175	0.906072	0.005000	-0.274680	-0.315222	-9.966960	-0.136477	-0.225554	-0.991868	-0.022280	-0.002460	-0.003937
176	0.911072	0.005000	-0.333302	-0.274204	-9.908338	-0.136592	-0.225324	-0.991611	-0.003934	0.000684	0.015184
177	0.916072	0.005000	-0.490675	-0.254885	-9.869035	-0.136707	-0.225093	-0.991353	0.007299	-0.003454	0.014868
178	0.921072	0.005000	-0.470880	-0.313920	-9.927061	-0.136822	-0.224862	-0.991096	-0.001799	-0.004378	0.015391
179	0.926072	0.005000	-0.431640	-0.372051	-9.966960	-0.136938	-0.224632	-0.990838	-0.016752	0.000952	0.012348
180	0.931072	0.005000	-0.371651	-0.272422	-9.966960	-0.137053	-0.224401	-0.990581	-0.038661	0.006608	0.007577
181	0.936072	0.005000	-0.374317	-0.253523	-9.985043	-0.137168	-0.224171	-0.990323	-0.026121	-0.003782	0.026345
182	0.941072	0.005000	-0.431640	-0.296236	-9.970832	-0.137283	-0.223940	-0.990066	-0.005398	-0.000714	0.004687
183	0.946072	0.005000	-0.448923	-0.313920	-10.023483	-0.137056	-0.224138	-0.990383	-0.011912	-0.001312	-0.004240
184	0.951072	0.005000	-0.409275	-0.229951	-9.877094	-0.136710	-0.224484	-0.990898	0.003945	-0.004177	-0.001238
185	0.956072	0.005000	-0.487357	-0.264490	-9.931624	-0.136364	-0.224830	-0.991413	0.031286	-0.009947	0.007982
186	0.961072	0.005000	-0.392400	-0.329996	-9.856329	-0.136018	-0.225176	-0.991928	0.060111	0.000612	0.008124
187	0.966072	0.005000	-0.455203	-0.368837	-9.935606	-0.135672	-0.225522	-0.992443	0.056977	-0.000156	-0.007903
188	0.971072	0.005000	-0.494659	-0.337699	-9.943181	-0.135327	-0.225867	-0.992958	0.054307	-0.005312	0.007926
189	0.976072	0.005000	-0.383257	-0.304777	-9.991152	-0.134981	-0.226213	-0.993473	0.056267	-0.005761	-0.003942
190	0.981072	0.005000	-0.377748	-0.097846	-9.888480	-0.134635	-0.226559	-0.993988	0.059924	-0.009630	-0.011468
191	0.986072	0.005000	-0.417401	-0.125006	-10.134682	-0.134289	-0.226905	-0.994503	0.089831	-0.015599	0.005725
192	0.991072	0.005000	-0.392400	-0.341572	-9.980786	-0.133943	-0.227251	-0.995018	0.096999	-0.005304	-0.005307
193	0.996072	0.005000	-0.406139	-0.260941	-10.019939	-0.133597	-0.227597	-0.995533	0.108955	-0.002245	0.001527
194	1.001072	0.005000	-0.444197	-0.273896	-9.967744	-0.133252	-0.227942	-0.996048	0.102508	-0.001360	-0.000336
195	1.006072	0.005000	-0.523482	-0.366522	-9.862179	-0.132906	-0.228288	-0.996563	0.107132	0.004300	0.006176
196	1.011072	0.005000	-0.470880	-0.378222	-9.902658	-0.132744	-0.228450	-0.996667	0.113972	-0.003757	0.004631
197	1.016072	0.005000	-0.429259	-0.299253	-9.952293	-0.132629	-0.228565	-0.996667	0.097117	0.002123	0.002309
198	1.021072	0.005000	-0.470880	-0.274680	-10.006200	-0.132513	-0.228681	-0.996667	0.090207	-0.002136	0.004511
199	1.026072	0.005000	-0.498654	-0.380934	-9.966960	-0.132398	-0.228796	-0.996667	0.063521	0.002772	-0.002826
200	1.031072	0.005000	-0.420576	-0.342096	-9.955896	-0.132283	-0.228911	-0.996667	0.031692	0.011122	0.000632
201	1.036072	0.005000	-0.448869	-0.409629	-9.832011	-0.132167	-0.229027	-0.996667	0.021316	-0.007252	0.008908
202	1.041072	0.005000	-0.424206	-0.681948	-9.820602	-0.132052	-0.229142	-0.996667	0.015605	-0.004772	0.013177
203	1.046072	0.005000	-0.303726	-0.276217	-9.788075	-0.131937	-0.229257	-0.996667	-0.034740	-0.013145	-0.000297
204	1.051072	0.005000	-0.461082	-0.098029	-9.947411	-0.131821	-0.229373	-0.996667	-0.061795	-0.010230	-0.006335
205	1.056072	0.005000	-0.422246	-0.069086	-10.105131	-0.131706	-0.229488	-0.996667	-0.015854	-0.012222	0.007232
206	1.061072	0.005000	-0.510120	-0.208444	-9.954716	-0.131591	-0.229603	-0.996667	0.021140	-0.005973	0.001918
207	1.066072	0.005000	-0.510120	-0.313920	-9.927720	-0.131475	-0.229719	-0.996667	0.050698	-0.001332	0.010792
208	1.071072	0.005000	-0.322206	-0.322206	-9.826572	-0.131360	-0.229834	-0.996667	0.029961	-0.002265	0.010770
209	1.076072	0.005000	-0.384511	-0.282569	-9.786539	-0.131343	-0.229949	-0.996337	0.008259	0.006249	0.008866
210	1.081072	0.005000	-0.455927	-0.235440	-9.976294	-0.131343	-0.230065	-0.995951	0.017057	-0.005321	0.004299
211	1.086072	0.005000	-0.445768	-0.249568	-10.045440	-0.131343	-0.230180	-0.995565	0.028689	-0.002662	-0.005601
212	1.091072	0.005000	-0.456765	-0.267622	-10.013258	-0.131343	-0.230295	-0.995178	0.046556	0.002687	0.005258
213	1.096072	0.005000	-0.470880	-0.450892	-9.934383	-0.131343	-0.230411	-0.994792	0.035482	0.002607	0.003125
214	1.101072	0.005000	-0.437898	-0.398658	-9.966960	-0.131343	-0.230526	-0.994405	0.026960	-0.005798	0.008639
215	1.106072	0.005000	-0.386550	-0.398250	-9.900180	-0.131343	-0.230641	-0.994019	0.008577	-0.011307	0.002456
216	1.111072	0.005000	-0.397856	-0.358616	-9.922264	-0.131343	-0.230756	-0.993633	0.003665	0.001200	-0.003031
217	1.116072	0.005000	-0.397511	-0.319031	-10.045440	-0.131343	-0.230872	-0.993246	-0.011107	-0.009613	0.012119
218	1.121072	0.005000	-0.401797	-0.244837	-10.010899	-0.131343	-0.230987	-0.992860	-0.010214	-0.008247	0.006876
219	1.126072	0.005000	-0.396702	-0.348858	-10.045440	-0.131343	-0.231102	-0.992473	-0.010741	-0.010758	0.000057
220	1.131072	0.005000	-0.392400	-0.313920	-9.963071	-0.131343	-0.231218	-0.992087	0.002000	-0.003264	0.005650
221	1.136072	0.005000	-0.431640	-0.317841	-9.931641	-0.131343	-0.231333	-0.991700	0.014044	0.005220	0.008274
222	1.141072	0.005000	-0.392400	-0.353160	-9.856266	-0.131554	-0.230711	-0.991785	0.005828	-0.004891	0.003966
223	1.146072	0.005000	-0.464640	-0.241680	-9.891600	-0.131784	-0.230019	-0.991913	-0.008799	-0.007317	0.007437
224	1.151072	0.005000	-0.477690	-0.311650	-9.999390	-0.132015	-0.229328	-0.992042	-0.018500	-0.007519	0.005201
225	1.156072	0.005000	-0.503204	-0.279291	-9.966960	-0.132245	-0.228636	-0.992171	-0.006048	-0.002571	0.001759
226	1.161072	0.005000	-0.550805	-0.273235	-10.081791	-0.132476	-0.227944	-0.992299	0.009914	0.001098	0.003507
227	1.166072	0.005000	-0.436157	-0.199211	-10.084680	-0.132707	-0.227252	-0.992428	0.024616	-0.009039	0.006387
228	1.171072	0.005000	-0.355386	-0.274680	-10.007313	-0.132937	-0.226561	-0.992557	0.019290	-0.001858	-0.000938
229	1.176072	0.005000	-0.351748	-0.236146	-9.889892	-0.133168	-0.225869	-0.992685	0.017856	-0.009229	0.002127
230	1.181072	0.005000	-0.313920	-0.274978	-9.888480	-0.133398	-0.225177	-0.992814	-0.003687	-0.008466	-0.001336
231	1.186072	0.005000	-0.353255	-0.274775	-9.888766	-0.133629	-0.224485	-0.992943	-0.004919	-0.003352	0.007114
232	1.191072	0.005000	-0.548356	-0.391396	-10.005698	-0.133859	-0.223794	-0.993071	-0.014362	-0.009176	0.014602
233	1.196072	0.005000	-0.431640	-0.353160	-9.927720	-0.134090	-0.223102	-0.993200	-0.023368	-0.002213	0.004029
234	1.201072	0.005000	-0.470880	-0.275982	-9.931625	-0.134321	-0.222410	-0.993329	-0.027898	-0.006194	0.008155
235	1.206072	0.005000	-0.431640	-0.312211	-9.963542	-0.133993	-0.222946	-0.993209	-0.026059	0.001097	-0.001974
236	1.211072	0.005000	-0.396603	-0.239643	-9.888480	-0.133648	-0.223522	-0.993080	-0.001093	-0.009936	0.010991
237	1.216072	0.005000	-0.389891	-0.313920	-9.925211	-0.133302	-0.224098	-0.992951	0.017548	-0.013439	0.003714
238	1.221072	0.005000	-0.431640	-0.353160	-9.924804	-0.132956	-0.224674	-0.992823	0.018507	-0.000742	0.005061
239	1.226072	0.005000	-0.316793	-0.395273	-9.997581	-0.132611	-0.225251	-0.992694	0.012353	-0.005747	0.002957
240	1.231072	0.005000	-0.392400	-0.428354	-9.885194	-0.132265	-0.225827	-0.992565	-0.011731	-0.013914	-0.002602
241	1.236072	0.005000	-0.502755	-0.353160	-9.856605	-0.131919	-0.226403	-0.992437	-0.014136	-0.001014	0.003817
242	1.241072	0.005000	-0.470880	-0.318015	-9.962865	-0.131574	-0.226979	-0.992308	-0.011023	0.000746	0.010012
243	1.246072	0.005000	-0.470880	-0.295944	-9.858228	-0.131228	-0.227555	-0.992179	-0.016305	-0.006389	0.008081
244	1.251072	0.005000	-0.500428	-0.274680	-10.001354	-0.130882	-0.228132	-0.992051	-0.006940	-0.004467	0.003783
245	1.256072	0.005000	-0.538856	-0.319172	-9.893732	-0.130537	-0.228708	-0.991922	-0.001402	0.006709	0.005680
246	1.261072	0.005000	-0.543714	-0.353160	-9.972606	-0.130191	-0.229284	-0.991794	0.025209	-0.010854	0.008450
247	1.266072	0.005000	-0.476934	-0.241494	-10.072572	-0.129855	-0.229847	-0.991654	0.026824	0.000696	0.004441
248	1.271072	0.005000	-0.542901	-0.241899	-10.012659	-0.130085	-0.229617	-0.990882	0.048350	-0.002448	0.004015
249	1.276072	0.005000	-0.536439	-0.294062	-9.973421	-0.130316	-0.229386	-0.990110	0.054857	-0.006904	-0.005574
250	1.281072	0.005000	-0.464023	-0.360017	-9.902195	-0.130546	-0.229156	-0.989337	0.052695	0.002708	-0.001143
251	1.286072	0.005000	-0.321190	-0.424370	-9.913180	-0.130777	-0.228925	-0.988565	0.040335	-0.009848	0.011220
252	1.291072	0.005000	-0.353160	-0.392400	-9.856923	-0.131008	-0.228694	-0.987792	0.020263	-0.003351	0.000335
253	1.296072	0.005000	-0.313920	-0.415480	-10.006200	-0.131238	-0.228464	-0.987020	0.017641	-0.011342	0.005531
254	1.301072	0.005000	-0.291455	-0.322307	-9.997813	-0.131469	-0.228233	-0.986247	0.016565	-0.004165	-0.001434
255	1.306072	0.005000	-0.401195	-0.253030	-10.019055	-0.131699	-0.228003	-0.985475	0.029808	-0.004186	0.001183
256	1.311072	0.005000	-0.419972	-0.256299	-9.897671	-0.131930	-0.227772	-0.984702	0.016753	-0.001931	-0.001879
257	1.316072	0.005000	-0.481337	-0.225846	-9.908531	-0.132161	-0.227541	-0.983930	0.018403	-0.004889	-0.002998
258	1.321072	0.005000	-0.421650	-0.156960	-9.947701	-0.132391	-0.227311	-0.983157	0.014817	-0.009660	0.014443
259	1.326072	0.005000	-0.441688	-0.156960	-9.976056	-0.132622	-0.227080	-0.982385	0.013869	-0.005961	0.001946
260	1.331072	0.005000	-0.499675	-0.206645	-9.956515	-0.132828	-0.226882	-0.981694	0.008540	-0.016870	0.006925
261	1.336072	0.005000	-0.520978	-0.274680	-9.888480	-0.132713	-0.227113	-0.982080	0.009408	-0.011742	0.005769
262	1.341072	0.005000	-0.459621	-0.263421	-10.000737	-0.132597	-0.227343	-0.982466	0.020728	-0.006305	0.007145
263	1.346072	0.005000	-0.443307	-0.212106	-10.038011	-0.132482	-0.227574	-0.982852	0.017770	-0.008407	0.011926
264	1.351072	0.005000	-0.510120	-0.208280	-9.888480	-0.132367	-0.227804	-0.983238	0.024366	0.002860	-0.003800
265	1.356072	0.005000	-0.458403	-0.326397	-9.890290	-0.132251	-0.228035	-0.983625	0.023563	-0.008476	0.001678
266	1.361072	0.005000	-0.431640	-0.430605	-9.744255	-0.132136	-0.228265	-0.984011	0.021075	-0.010629	0.000245
267	1.366072	0.005000	-0.405537	-0.444777	-9.783897	-0.132021	-0.228496	-0.984397	0.019326	0.001999	0.011973
268	1.371072	0.005000	-0.511484	-0.418105	-9.927720	-0.131906	-0.228726	-0.984783	0.000573	-0.005611	0.000885
269	1.376072	0.005000	-0.456943	-0.339223	-10.008771	-0.131790	-0.228957	-0.985169	-0.004799	-0.001563	0.003535
270	1.381072	0.005000	-0.381849	-0.367505	-10.016751	-0.131675	-0.229187	-0.985555	-0.000267	-0.008390	0.009249
271	1.386072	0.005000	-0.446382	-0.338418	-9.888480	-0.131560	-0.229417	-0.985941	-0.000879	0.000171	0.002245
272	1.391072	0.005000	-0.470880	-0.259838	-9.966960	-0.131445	-0.229648	-0.986327	0.022212	0.003636	0.021906
273	1.396072	0.005000	-0.431640	-0.274680	-10.054171	-0.131370	-0.229906	-0.986728	0.024567	-0.001252	0.004940
274	1.401072	0.005000	-0.462975	-0.274680	-9.998438	-0.131601	-0.230367	-0.987243	0.020250	0.001957	0.008609
275	1.406072	0.005000	-0.542249	-0.226487	-10.045440	-0.131832	-0.230828	-0.987758	0.025611	-0.001853	0.005157
276	1.411072	0.005000	-0.500541	-0.251713	-10.068407	-0.132062	-0.231289	-0.988273	0.024348	-0.009907	0.007605
277	1.416072	0.005000	-0.481655	-0.212872	-10.034665	-0.132293	-0.231751	-0.988788	0.041373	-0.003365	0.012992
278	1.421072	0.005000	-0.397481	-0.134799	-9.949881	-0.132523	-0.232212	-0.989303	0.037809	-0.005456	-0.001335
279	1.426072	0.005000	-0.488360	-0.274680	-9.792520	-0.132754	-0.232673	-0.989818	0.043891	0.009120	0.004520
280	1.431072	0.005000	-0.449260	-0.274680	-9.923720	-0.132985	-0.233134	-0.990333	0.045335	-0.005255	0.004676
281	1.436072	0.005000	-0.456718	-0.331721	-9.945521	-0.133215	-0.233595	-0.990848	0.032688	0.000770	0.007287
282	1.441072	0.005000	-0.431640	-0.332349	-9.930101	-0.133446	-0.234056	-0.991363	0.040751	-0.004727	0.009420
283	1.446072	0.005000	-0.489489	-0.256071	-9.810000	-0.133676	-0.234517	-0.991878	0.023368	0.003461	0.011774
284	1.451072	0.005000	-0.372168	-0.313920	-9.925273	-0.133907	-0.234979	-0.992392	0.023283	-0.007048	0.008342
285	1.456072	0.005000	-0.392400	-0.313920	-10.006608	-0.134137	-0.235440	-0.992907	0.012092	-0.000277	-0.000941
286	1.461072	0.005000	-0.373368	-0.314312	-9.947928	-0.134288	-0.235861	-0.993333	0.006433	0.000745	0.007728
287	1.466072	0.005000	-0.510120	-0.215455	-9.966960	-0.134057	-0.236092	-0.993333	0.014863	-0.011025	0.019095
288	1.471072	0.005000	-0.431640	-0.216582	-10.026582	-0.133827	-0.236322	-0.993333	0.010563	-0.009758	0.016566
289	1.476072	0.005000	-0.392400	-0.371605	-9.927720	-0.133596	-0.236553	-0.993333	0.013837	-0.012399	0.007967
290	1.481072	0.005000	-0.410433	-0.356335	-9.948927	-0.133366	-0.236783	-0.993333	0.010936	-0.011171	0.000251
291	1.486072	0.005000	-0.414004	-0.288347	-9.927720	-0.133135	-0.237014	-0.993333	0.028434	-0.003895	0.002451
292	1.491072	0.005000	-0.466086	-0.252663	-9.883686	-0.132905	-0.237244	-0.993333	0.029255	-0.003930	0.007743
293	1.496072	0.005000	-0.420449	-0.375590	-9.933339	-0.132674	-0.237475	-0.993333	0.031646	0.001626	0.011474
294	1.501072	0.005000	-0.532947	-0.330333	-9.996200	-0.132443	-0.237706	-0.993333	0.031694	-0.012715	0.003845
295	1.506072	0.005000	-0.542697	-0.330209	-9.976586	-0.132213	-0.237936	-0.993333	0.031621	-0.006178	0.000565
296	1.511072	0.005000	-0.424175	-0.353160	-9.903411	-0.131982	-0.238167	-0.993333	0.030596	-0.017104	0.011451
297	1.516072	0.005000	-0.400681	-0.368640	-10.014481	-0.131752	-0.238397	-0.993333	0.033848	-0.007130	0.005809
298	1.521072	0.005000	-0.422563	-0.368241	-10.084680	-0.131521	-0.238628	-0.993333	0.039191	-0.006720	0.012278
299	1.526072	0.005000	-0.328600	-0.313920	-9.971759	-0.131343	-0.238727	-0.993333	0.026990	-0.013329	0.008837
300	1.531072	0.005000	-0.441990	-0.377955	-9.927720	-0.131343	-0.238381	-0.993333	0.031774	-0.008270	0.003419
301	1.536072	0.005000	-0.456832	-0.263537	-9.866193	-0.131343	-0.238035	-0.993333	0.039792	-0.002471	0.012306
302	1.541072	0.005000	-0.457244	-0.261044	-9.900449	-0.131343	-0.237689	-0.993333	0.030950	-0.005621	0.004651
303	1.546072	0.005000	-0.432116	-0.261441	-9.849240	-0.131343	-0.237344	-0.993333	0.030601	-0.009631	0.009817
304	1.551072	0.005000	-0.418814	-0.353160	-9.889242	-0.131343	-0.236998	-0.993333	0.031501	-0.005082	0.002654
305	1.556072	0.005000	-0.444053	-0.326333	-9.900893	-0.131343	-0.236652	-0.993333	0.021924	-0.003401	-0.000380
306	1.561072	0.005000	-0.443983	-0.287023	-9.900823	-0.131343	-0.236306	-0.993333	0.022725	-0.006201	0.013766
307	1.566072	0.005000	-0.431640	-0.274680	-10.018135	-0.131343	-0.235960	-0.993333	0.018525	-0.010484	0.008331
308	1.571072	0.005000	-0.431640	-0.219277	-10.017738	-0.131343	-0.235614	-0.993333	0.027499	-0.003479	0.007941
309	1.576072	0.005000	-0.448609	-0.156960	-10.000366	-0.131343	-0.235268	-0.993333	0.020017	-0.001810	0.011472
310	1.581072	0.005000	-0.520859	-0.242463	-10.016939	-0.131343	-0.234922	-0.993333	0.032638	-0.000444	0.005103
311	1.586072	0.005000	-0.470880	-0.243298	-10.006200	-0.131343	-0.234576	-0.993333	0.049530	-0.009647	0.000230
312	1.591072	0.005000	-0.470880	-0.294776	-9.908576	-0.131278	-0.234426	-0.993369	0.034806	-0.011896	0.005509
313	1.596072	0.005000	-0.510120	-0.343509	-9.966960	-0.131047	-0.234772	-0.993498	0.040682	-0.007490	0.015002
314	1.601072	0.005000	-0.510120	-0.383161	-9.976199	-0.130817	-0.235117	-0.993627	0.021082	-0.007892	0.005806
315	1.606072	0.005000	-0.470880	-0.392400	-9.910068	-0.130586	-0.235463	-0.993756	0.021458	0.003207	0.011072
316	1.611072	0.005000	-0.510120	-0.313920	-9.897278	-0.130356	-0.235809	-0.993884	0.025769	-0.012918	0.006482
317	1.616072	0.005000	-0.479283	-0.392400	-9.927720	-0.130125	-0.236155	-0.994013	0.032679	0.000657	0.004317
318	1.621072	0.005000	-0.423641	-0.251437	-9.966960	-0.129894	-0.236501	-0.994142	0.016231	-0.003513	0.008559
319	1.626072	0.005000	-0.399991	-0.267089	-10.013791	-0.129664	-0.236847	-0.994271	0.006790	0.003384	0.004098
320	1.631072	0.005000	-0.367552	-0.132112	-9.927720	-0.129433	-0.237193	-0.994400	0.002954	-0.002340	-0.002238
321	1.636072	0.005000	-0.418058	-0.189409	-9.881689	-0.129203	-0.237539	-0.994528	0.015340	0.001904	-0.000051
322	1.641072	0.005000	-0.398863	-0.274680	-9.934183	-0.128972	-0.237885	-0.994657	0.044656	-0.005506	0.008678
323	1.646072	0.005000	-0.404528	-0.307856	-9.782888	-0.128742	-0.238231	-0.994786	0.035838	-0.007941	0.011148
324	1.651072	0.005000	-0.403702	-0.297284	-9.877178	-0.128511	-0.238577	-0.994915	0.028161	0.002712	-0.001822
325	1.656072	0.005000	-0.437302	-0.353160	-9.977891	-0.128436	-0.238690	-0.994870	0.015898	-0.008393	0.008036
326	1.661072	0.005000	-0.465626	-0.245948	-10.079426	-0.128666	-0.238344	-0.994484	0.012555	-0.001079	0.007033
327	1.666072	0.005000	-0.451080	-0.274680	-9.947160	-0.128897	-0.237998	-0.994098	0.032515	0.000914	0.010153
328	1.671072	0.005000	-0.387946	-0.313920	-9.849240	-0.129127	-0.237652	-0.993712	0.039209	-0.011003	0.006772
329	1.676072	0.005000	-0.353160	-0.247774	-9.915386	-0.129358	-0.237307	-0.993326	0.049299	-0.007584	0.000623
330	1.681072	0.005000	-0.424243	-0.274680	-9.810000	-0.129588	-0.236961	-0.992940	0.023458	-0.003700	0.010961
331	1.686072	0.005000	-0.510120	-0.349874	-9.738092	-0.129818	-0.236615	-0.992554	0.012469	0.004061	0.007503
332	1.691072	0.005000	-0.504342	-0.311031	-9.855018	-0.130049	-0.236269	-0.992168	0.028119	0.001184	0.002270
333	1.696072	0.005000	-0.513052	-0.353160	-9.891412	-0.130279	-0.235924	-0.991782	0.025928	-0.011485	0.004379
334	1.701072	0.005000	-0.475928	-0.316444	-9.925196	-0.130510	-0.235578	-0.991396	0.028194	0.005748	0.014189
335	1.706072	0.005000	-0.470880	-0.313920	-9.890597	-0.130740	-0.235232	-0.991010	0.036011	0.000363	0.008363
336	1.711072	0.005000	-0.394146	-0.272934	-9.849240	-0.130971	-0.234886	-0.990623	0.026722	-0.007256	0.017342
337	1.716072	0.005000	-0.468213	-0.276013	-10.000866	-0.131201	-0.234541	-0.990237	0.030053	-0.011811	0.010489
338	1.721072	0.005000	-0.511041	-0.276521	-9.851081	-0.132009	-0.234639	-0.989405	0.036346	-0.008203	0.000116
339	1.726072	0.005000	-0.392924	-0.235964	-10.005676	-0.133738	-0.235446	-0.987860	0.046348	0.005969	0.003851
340	1.731072	0.005000	-0.470880	-0.274680	-9.927942	-0.135468	-0.236253	-0.986315	0.039313	-0.005366	0.004631
341	1.736072	0.005000	-0.392588	-0.313920	-9.967336	-0.137197	-0.237060	-0.984770	0.026937	-0.003667	-0.002016
342	1.741072	0.005000	-0.509898	-0.352716	-9.927498	-0.138926	-0.237867	-0.983225	0.018338	-0.011289	0.009151
343	1.746072	0.005000	-0.586124	-0.274680	-9.849859	-0.140656	-0.238674	-0.981681	0.036509	0.001088	0.009208
344	1.751072	0.005000	-0.391368	-0.317015	-9.890544	-0.142385	-0.239481	-0.980136	0.047952	-0.008354	0.005444
345	1.756072	0.005000	-0.316809	-0.389511	-10.043995	-0.144115	-0.240288	-0.978591	0.043804	-0.004863	0.008013
346	1.761072	0.005000	-0.353160	-0.351341	-9.933178	-0.145844	-0.241095	-0.977046	0.030145	-0.000224	0.003853
347	1.766072	0.005000	-0.505668	-0.390174	-10.080228	-0.147573	-0.241902	-0.975501	0.025782	-0.007976	0.013227
348	1.771072	0.005000	-0.353160	-0.350541	-9.966960	-0.149303	-0.242709	-0.973956	0.031142	-0.007289	-0.005955
349	1.776072	0.005000	-0.350133	-0.350133	-9.894534	-0.151032	-0.243516	-0.972411	0.040385	-0.009722	-0.000628
350	1.781072	0.005000	-0.389416	-0.347191	-9.891464	-0.152762	-0.244324	-0.970866	0.043390	-0.010175	-0.000086
351	1.786072	0.005000	-0.428243	-0.356557	-9.920926	-0.153224	-0.244371	-0.970283	0.020046	-0.003848	0.001919
352	1.791072	0.005000	-0.470880	-0.388605	-10.006200	-0.152071	-0.243448	-0.970927	0.012664	0.002784	0.008178
353	1.796072	0.005000	-0.396607	-0.340540	-9.971167	-0.150919	-0.242526	-0.971570	-0.000119	0.007298	0.004428
354	1.801072	0.005000	-0.387838	-0.304796	-10.045440	-0.149766	-0.241604	-0.972214	0.014875	-0.010018	0.005575
355	1.806072	0.005000	-0.402312	-0.323832	-10.079724	-0.148613	-0.240681	-0.972858	0.022130	-0.014287	0.004342
356	1.811072	0.005000	-0.420913	-0.347796	-9.893844	-0.147460	-0.239759	-0.973501	0.035732	-0.006080	0.001886
357	1.816072	0.005000	-0.392400	-0.319689	-9.838846	-0.146307	-0.238837	-0.974145	0.031426	-0.001477	0.005294
358	1.821072	0.005000	-0.392400	-0.346996	-9.927720	-0.145154	-0.237914	-0.974789	0.026454	0.004850	0.006919
359	1.826072	0.005000	-0.398559	-0.353160	-9.828477	-0.144001	-0.236992	-0.975432	0.022188	-0.005733	0.011534
360	1.831072	0.005000	-0.398972	-0.379257	-9.862383	-0.142848	-0.236070	-0.976076	0.027536	-0.000668	0.002118
361	1.836072	0.005000	-0.399384	-0.320904	-9.966960	-0.141695	-0.235147	-0.976720	0.028685	-0.009982	0.013068
362	1.841072	0.005000	-0.367746	-0.360453	-9.974253	-0.140542	-0.234225	-0.977364	0.025335	-0.009846	0.009643
363	1.846072	0.005000	-0.416239	-0.416239	-9.959259	-0.139389	-0.233303	-0.978007	0.020126	-0.005522	-0.004961
364	1.851072	0.005000	-0.431640	-0.400505	-9.958855	-0.138749	-0.232950	-0.978587	0.038018	-0.005156	0.001582
365	1.856072	0.005000	-0.479380	-0.423140	-9.936220	-0.138634	-0.233180	-0.979102	0.035422	0.007215	0.001930
366	1.861072	0.005000	-0.470880	-0.414592	-9.840716	-0.138518	-0.233411	-0.979617	0.032636	-0.007003	0.011003
367	1.866072	0.005000	-0.410274	-0.322857	-9.788634	-0.138403	-0.233642	-0.980132	0.020720	-0.003194	0.006230
368	1.871072	0.005000	-0.480230	-0.392400	-9.789459	-0.138288	-0.233872	-0.980647	0.018178	-0.000148	0.001903
369	1.876072	0.005000	-0.402147	-0.304173	-9.947467	-0.138172	-0.234103	-0.981162	0.010128	-0.010304	0.003127
370	1.881072	0.005000	-0.441673	-0.196200	-9.976993	-0.138057	-0.234333	-0.981677	0.013075	-0.005264	0.009498
371	1.886072	0.005000	-0.489238	-0.274680	-9.909362	-0.137942	-0.234564	-0.982192	0.022651	-0.008591	0.010109
372	1.891072	0.005000	-0.431640	-0.303083	-9.927720	-0.137826	-0.234795	-0.982707	0.023660	-0.002714	0.007675
373	1.896072	0.005000	-0.409159	-0.325161	-9.782001	-0.137711	-0.235025	-0.983222	0.022611	0.002997	0.007038
374	1.901072	0.005000	-0.482517	-0.341523	-9.935028	-0.137596	-0.235256	-0.983737	0.009471	-0.001820	0.005143
375	1.906072	0.005000	-0.427545	-0.341445	-9.931815	-0.137480	-0.235486	-0.984252	0.002145	0.001937	0.010523
376	1.911072	0.005000	-0.482846	-0.353160	-9.849240	-0.137365	-0.235717	-0.984767	0.008486	-0.003920	0.009418
377	1.916072	0.005000	-0.458356	-0.262156	-9.783284	-0.137187	-0.235947	-0.985282	0.015405	-0.000260	0.009363
378	1.921072	0.005000	-0.444106	-0.248366	-9.980347	-0.136956	-0.236178	-0.985797	0.013932	-0.008897	0.016896
379	1.926072	0.005000	-0.483772	-0.287854	-9.888198	-0.136725	-0.236409	-0.986312	0.019665	-0.001081	0.004088
380	1.931072	0.005000	-0.484456	-0.274680	-9.941296	-0.136495	-0.236639	-0.986827	0.033141	-0.007257	0.007686
381	1.936072	0.005000	-0.417666	-0.260706	-9.980934	-0.136264	-0.236870	-0.987342	0.030311	-0.007143	0.011738
382	1.941072	0.005000	-0.474785	-0.392400	-10.031058	-0.136034	-0.237100	-0.987857	0.032441	-0.010451	0.002181
383	1.946072	0.005000	-0.446117	-0.431640	-9.902957	-0.135803	-0.237331	-0.988372	0.034208	-0.003292	0.008818
384	1.951072	0.005000	-0.480341	-0.392400	-9.903370	-0.135572	-0.237562	-0.988887	0.020521	0.005284	0.002039
385	1.956072	0.005000	-0.416354	-0.337874	-9.855859	-0.135342	-0.237792	-0.989402	0.027913	-0.003488	0.009893
386	1.961072	0.005000	-0.447339	-0.298221	-9.904179	-0.135111	-0.238023	-0.989917	0.029547	-0.006043	0.005214
387	1.966072	0.005000	-0.376288	-0.290792	-10.006200	-0.134881	-0.238253	-0.990432	0.048965	-0.010707	0.000857
388	1.971072	0.005000	-0.385782	-0.330231	-9.950649	-0.134650	-0.238484	-0.990947	0.042754	-0.003668	-0.001330
389	1.976072	0.005000	-0.431640	-0.369872	-9.927720	-0.134420	-0.238714	-0.991462	0.037353	0.005468	-0.004186
390	1.981072	0.005000	-0.409519	-0.409519	-9.971961	-0.134189	-0.238389	-0.991589	0.034574	-0.006255	0.003690
391	1.986072	0.005000	-0.396603	-0.313920	-9.927720	-0.133959	-0.237698	-0.991461	0.024110	0.005964	-0.000853
392	1.991072	0.005000	-0.331572	-0.257028	-9.910068	-0.133728	-0.237006	-0.991332	0.019586	-0.000810	0.008180
393	1.996072	0.005000	-0.467769	-0.256616	-9.924609	-0.133498	-0.236315	-0.991203	0.024625	0.003723	-0.000037
394	2.001072	0.005000	-0.549360	-0.353160	-9.925434	-0.133267	-0.235624	-0.991075	0.039045	0.000829	0.002443
395	2.006072	0.005000	-0.510120	-0.334512	-10.004255	-0.133037	-0.234932	-0.990946	0.021207	-0.007996	0.010641
396	2.011072	0.005000	-0.511264	-0.353160	-9.848096	-0.132806	-0.234241	-0.990817	0.024349	-0.007590	0.004501
397	2.016072	0.005000	-0.549360	-0.373298	-9.888480	-0.132576	-0.233549	-0.990688	0.029442	-0.017951	0.009749
398	2.021072	0.005000	-0.450554	-0.333305	-9.927249	-0.132345	-0.232858	-0.990560	0.020211	-0.008300	0.007219
399	2.026072	0.005000	-0.411385	-0.293665	-10.045440	-0.132115	-0.232166	-0.990431	0.009755	-0.000885	0.002305
400	2.031072	0.005000	-0.431640	-0.274680	-9.869895	-0.131884	-0.231475	-0.990302	0.012616	-0.001297	0.015773
401	2.036072	0.005000	-0.489057	-0.295743	-10.024377	-0.131654	-0.230784	-0.990174	0.026549	-0.003936	0.006038
402	2.041072	0.005000	-0.449418	-0.353160	-9.970644	-0.131423	-0.230092	-0.990045	0.024146	-0.008091	0.014181
403	2.046072	0.005000	-0.431640	-0.392400	-9.910343	-0.131343	-0.230752	-0.990000	0.020760	-0.003554	-0.000953
404	2.051072	0.005000	-0.414449	-0.436497	-9.962103	-0.131343	-0.232134	-0.990000	0.019868	0.003660	0.011507
405	2.056072	0.005000	-0.375621	-0.386717	-9.871701	-0.131343	-0.233517	-0.990000	0.023760	0.001977	0.010578
406	2.061072	0.005000	-0.448006	-0.313920	-9.950594	-0.131343	-0.234900	-0.990000	0.025190	-0.002749	0.002981
407	2.066072	0.005000	-0.415392	-0.235440	-10.012944	-0.131343	-0.236283	-0.990000	0.033358	-0.000842	0.009884
408	2.071072	0.005000	-0.494270	-0.274680	-9.959419	-0.131343	-0.237666	-0.990000	0.042260	-0.008107	-0.008913
409	2.076072	0.005000	-0.392400	-0.274680	-9.794558	-0.131343	-0.239049	-0.990000	0.043351	-0.012169	0.000271
410	2.081072	0.005000	-0.455840	-0.338120	-9.882599	-0.131343	-0.240431	-0.990000	0.048170	-0.002619	-0.004217
411	2.086072	0.005000	-0.520075	-0.328562	-9.810000	-0.131343	-0.241814	-0.990000	0.040058	-0.006999	0.000147
412	2.091072	0.005000	-0.431640	-0.363573	-9.888480	-0.131343	-0.243197	-0.990000	0.024526	-0.002467	0.013582
413	2.096072	0.005000	-0.485373	-0.392400	-9.913227	-0.131343	-0.244580	-0.990000	0.029728	-0.007743	0.005083
414	2.101072	0.005000	-0.417560	-0.381320	-9.916640	-0.131343	-0.245963	-0.990000	0.028559	-0.001730	0.012215
415	2.106072	0.005000	-0.327910	-0.381139	-9.902470	-0.131343	-0.247346	-0.990000	0.034669	0.000000	-0.005483
416	2.111072	0.005000	-0.405982	-0.366742	-9.862822	-0.131424	-0.246632	-0.990090	0.033730	-0.004758	0.008688
417	2.116072	0.005000	-0.392400	-0.340289	-9.823185	-0.131539	-0.245018	-0.990219	0.035523	-0.006515	0.014067
418	2.121072	0.005000	-0.417964	-0.261898	-9.980636	-0.131654	-0.243404	-0.990348	0.031584	-0.000305	0.016535
419	2.126072	0.005000	-0.431640	-0.340620	-9.965341	-0.131770	-0.241790	-0.990476	0.029616	-0.004115	0.018680
420	2.131072	0.005000	-0.446925	-0.392400	-9.888480	-0.131885	-0.240176	-0.990605	0.020131	-0.003025	0.002136
421	2.136072	0.005000	-0.506025	-0.341445	-9.900195	-0.132000	-0.238561	-0.990734	0.021084	-0.003934	0.016443
422	2.141072	0.005000	-0.415036	-0.336556	-10.050726	-0.132116	-0.236947	-0.990863	0.020441	-0.006567	-0.006087
423	2.146072	0.005000	-0.459975	-0.353160	-9.966960	-0.132231	-0.235333	-0.990991	0.016879	-0.001705	0.010320
424	2.151072	0.005000	-0.470880	-0.371415	-9.945975	-0.132346	-0.233719	-0.991120	0.025871	-0.002265	-0.000627
425	2.156072	0.005000	-0.470880	-0.392400	-9.985310	-0.132462	-0.232105	-0.991249	0.025851	0.001030	0.004543
426	2.161072	0.005000	-0.451738	-0.480929	-9.927720	-0.132577	-0.230491	-0.991378	0.034959	0.000653	0.012367
427	2.166072	0.005000	-0.539715	-0.461235	-9.839595	-0.132692	-0.228877	-0.991507	0.047072	0.007214	0.007375
428	2.171072	0.005000	-0.510120	-0.293379	-9.888480	-0.132808	-0.227263	-0.991635	0.037809	0.001817	0.008500
429	2.176072	0.005000	-0.353160	-0.296014	-9.927720	-0.132836	-0.226866	-0.991764	0.041740	0.006229	-0.001674
430	2.181072	0.005000	-0.423100	-0.322460	-9.866320	-0.132836	-0.226866	-0.991893	0.036552	-0.002022	-0.006485
431	2.186072	0.005000	-0.439771	-0.392400	-9.904741	-0.132836	-0.226866	-0.992022	0.024245	-0.005499	-0.002116
432	2.191072	0.005000	-0.321651	-0.360891	-9.880749	-0.132836	-0.226866	-0.992150	0.027864	-0.001318	-0.004675
433	2.196072	0.005000	-0.399630	-0.345930	-9.888480	-0.132836	-0.226866	-0.992279	0.035423	-0.001831	0.014648
434	2.201072	0.005000	-0.503285	-0.320755	-9.941391	-0.132836	-0.226866	-0.992408	0.024718	-0.009303	-0.001761
435	2.206072	0.005000	-0.398828	-0.379545	-9.954105	-0.132836	-0.226866	-0.992537	0.028024	-0.002181	0.003925
436	2.211072	0.005000	-0.464858	-0.392400	-9.939765	-0.132836	-0.226866	-0.992665	0.034744	-0.012367	0.010209
437	2.216072	0.005000	-0.549360	-0.353160	-9.854868	-0.132836	-0.226866	-0.992794	0.034136	-0.005372	-0.000422
438	2.221072	0.005000	-0.447308	-0.353160	-9.844017	-0.132836	-0.226866	-0.992923	0.029284	-0.007170	0.001077
439	2.226072	0.005000	-0.461250	-0.451621	-9.927720	-0.132836	-0.226866	-0.993052	0.022018	-0.008880	0.010239
440	2.231072	0.005000	-0.431640	-0.396821	-9.927720	-0.132836	-0.226866	-0.993180	0.024559	-0.004451	0.009745
441	2.236072	0.005000	-0.462850	-0.357175	-9.919690	-0.132836	-0.226866	-0.993309	0.023457	-0.002822	0.005752
442	2.241072	0.005000	-0.506513	-0.306706	-9.927720	-0.133024	-0.226678	-0.993438	0.039284	0.000226	0.014024
443	2.246072	0.005000	-0.398908	-0.389146	-9.885226	-0.133254	-0.226448	-0.993567	0.038930	-0.005588	0.013703
444	2.251072	0.005000	-0.392400	-0.358843	-9.930561	-0.133485	-0.226217	-0.993695	0.040042	0.009442	0.008277
445	2.256072	0.005000	-0.429195	-0.279569	-9.854129	-0.133716	-0.225986	-0.993824	0.029883	0.005212	0.002471
446	2.261072	0.005000	-0.435704	-0.351128	-9.923656	-0.133946	-0.225756	-0.993953	0.016866	-0.001230	0.005565
447	2.266072	0.005000	-0.433725	-0.396570	-9.888480	-0.134177	-0.225525	-0.994082	0.013089	-0.009250	0.009433
448	2.271072	0.005000	-0.429962	-0.542647	-9.963604	-0.134407	-0.225295	-0.994211	0.023383	0.001320	-0.000421
449	2.276072	0.005000	-0.392400	-0.472166	-10.083394	-0.134638	-0.225064	-0.994339	0.010749	-0.006283	-0.001360
450	2.281072	0.005000	-0.505730	-0.393278	-9.888480	-0.134868	-0.224834	-0.994468	0.009326	0.002035	0.005428
451	2.286072	0.005000	-0.431640	-0.392871	-10.083268	-0.135099	-0.224603	-0.994597	0.005576	0.000383	-0.005803
452	2.291072	0.005000	-0.353238	-0.313920	-9.966960	-0.135330	-0.224372	-0.994726	0.011187	-0.011676	0.007291
453	2.296072	0.005000	-0.393400	-0.235440	-10.005533	-0.135560	-0.224142	-0.994854	0.014719	-0.009174	0.005144
454	2.301072	0.005000	-0.471626	-0.274680	-10.003962	-0.135791	-0.223911	-0.994983	0.017583	-0.000916	0.005418
455	2.306072	0.005000	-0.472023	-0.311634	-9.965817	-0.135621	-0.224081	-0.995000	0.034358	-0.008188	0.003914
456	2.311072	0.005000	-0.467807	-0.312384	-9.849240	-0.135390	-0.224312	-0.995000	0.031698	-0.001086	0.001426
457	2.316072	0.005000	-0.465048	-0.272736	-9.811944	-0.135159	-0.224543	-0.995000	0.022800	-0.008125	0.006033
458	2.321072	0.005000	-0.357834	-0.198537	-9.846903	-0.134929	-0.224773	-0.995000	0.031307	0.002764	0.007223
459	2.326072	0.005000	-0.543873	-0.274680	-9.851984	-0.134698	-0.225004	-0.995000	0.031254	-0.002157	0.007356
460	2.331072	0.005000	-0.392400	-0.322016	-9.849240	-0.134468	-0.225234	-0.995000	0.022772	-0.008213	0.014320
461	2.336072	0.005000	-0.401734	-0.386177	-9.897814	-0.134237	-0.225465	-0.995000	0.023751	-0.004199	0.005147
462	2.341072	0.005000	-0.392400	-0.353160	-9.852748	-0.134007	-0.225695	-0.995000	0.022352	-0.009836	0.012217
463	2.346072	0.005000	-0.396272	-0.317792	-9.888480	-0.133776	-0.225926	-0.995000	0.015357	-0.007150	0.005666
464	2.351072	0.005000	-0.357426	-0.274680	-9.958428	-0.133545	-0.226157	-0.995000	-0.000920	-0.008183	0.006550
465	2.356072	0.005000	-0.426966	-0.353160	-9.987505	-0.133315	-0.226387	-0.995000	-0.002549	-0.008262	0.011612
466	2.361072	0.005000	-0.470880	-0.348081	-9.922641	-0.133084	-0.226618	-0.995000	-0.000784	-0.005635	0.003975
467	2.366072	0.005000	-0.499173	-0.353160	-9.820947	-0.132854	-0.226848	-0.995000	0.012985	-0.009936	0.011782
468	2.371072	0.005000	-0.437521	-0.325683	-9.861003	-0.132836	-0.227185	-0.995119	0.025488	0.010689	0.012620
469	2.376072	0.005000	-0.549360	-0.379827	-9.987340	-0.132836	-0.227531	-0.995248	0.013018	-0.005141	0.011934
470	2.381072	0.005000	-0.535998	-0.307239	-9.895161	-0.132836	-0.227877	-0.995376	0.009161	-0.008582	0.000002
471	2.386072	0.005000	-0.385314	-0.313920	-9.916824	-0.132836	-0.228223	-0.995505	-0.002761	0.002315	0.002996
472	2.391072	0.005000	-0.360256	-0.431640	-10.070489	-0.132836	-0.228569	-0.995634	0.006936	-0.009468	0.014832
473	2.396072	0.005000	-0.431640	-0.345271	-9.966960	-0.132836	-0.228915	-0.995763	0.005225	-0.005118	0.013100
474	2.401072	0.005000	-0.470880	-0.345255	-9.865050	-0.132836	-0.229260	-0.995892	0.011182	-0.003426	0.007895
475	2.406072	0.005000	-0.462562	-0.361478	-9.919402	-0.132836	-0.229606	-0.996020	0.001674	-0.007694	0.001488
476	2.411072	0.005000	-0.370621	-0.422909	-9.827461	-0.132836	-0.229952	-0.996149	0.007245	-0.007378	0.011677
477	2.416072	0.005000	-0.500993	-0.323047	-9.906735	-0.132836	-0.230298	-0.996278	0.018400	-0.011107	0.010105
478	2.421072	0.005000	-0.441180	-0.323460	-9.996660	-0.132836	-0.230644	-0.996407	0.012597	-0.001332	0.006684
479	2.426072	0.005000	-0.450998	-0.382459	-9.937661	-0.132836	-0.230989	-0.996535	0.011468	-0.002316	0.014520
480	2.431072	0.005000	-0.400591	-0.274680	-9.849240	-0.132836	-0.231335	-0.996664	0.008054	0.000581	-0.009551
481	2.436072	0.005000	-0.324682	-0.267727	-9.792285	-0.133061	-0.231005	-0.996793	0.028094	-0.002573	0.013385
482	2.441072	0.005000	-0.364319	-0.342001	-9.882718	-0.133292	-0.230659	-0.996921	0.016165	-0.011136	0.006789
483	2.446072	0.005000	-0.408496	-0.392400	-9.916148	-0.133522	-0.230314	-0.997050	0.024240	-0.006377	0.005193
484	2.451072	0.005000	-0.325756	-0.364996	-9.943287	-0.133753	-0.229968	-0.997179	0.006363	0.002705	0.005785
485	2.456072	0.005000	-0.392400	-0.392400	-9.966960	-0.133983	-0.229622	-0.997307	0.022733	0.003970	-0.007024
486	2.461072	0.005000	-0.482183	-0.326556	-10.084680	-0.134214	-0.229277	-0.997436	0.024832	-0.001200	0.012210
487	2.466072	0.005000	-0.497077	-0.274680	-10.019463	-0.134444	-0.228931	-0.997565	0.020405	-0.003330	0.002335
488	2.471072	0.005000	-0.418199	-0.300479	-9.953519	-0.134675	-0.228585	-0.997693	0.016105	0.007225	0.008450
489	2.476072	0.005000	-0.459326	-0.276969	-9.927720	-0.134905	-0.228240	-0.997822	0.027096	0.001047	0.003518
490	2.481072	0.005000	-0.495879	-0.274680	-9.963478	-0.135136	-0.227894	-0.997950	0.025318	-0.000591	0.005023
491	2.486072	0.005000	-0.466175	-0.289328	-9.966960	-0.135366	-0.227548	-0.998079	0.037316	-0.011001	0.016182
492	2.491072	0.005000	-0.431640	-0.338110	-9.942770	-0.135597	-0.227203	-0.998208	0.034881	-0.005581	0.008207
493	2.496072	0.005000	-0.416192	-0.368608	-9.975304	-0.135824	-0.226875	-0.998330	0.033555	0.000508	0.005832
494	2.501072	0.005000	-0.486443	-0.361275	-9.849240	-0.135939	-0.227221	-0.998201	0.015289	0.003498	0.010829
495	2.506072	0.005000	-0.542058	-0.313920	-9.865209	-0.136055	-0.227567	-0.998072	0.019375	0.000354	0.009684
496	2.511072	0.005000	-0.549360	-0.330302	-9.911338	-0.136170	-0.227913	-0.997943	0.024862	-0.010018	0.012034
497	2.516072	0.005000	-0.437323	-0.392400	-9.910941	-0.136285	-0.228259	-0.997815	0.031121	-0.007925	-0.001578
498	2.521072	0.005000	-0.431640	-0.336175	-9.866225	-0.136401	-0.228605	-0.997686	0.014374	-0.011699	0.010143
499	2.526072	0.005000	-0.366078	-0.335774	-9.875562	-0.136516	-0.228951	-0.997557	-0.009990	0.000075	0.010876
500	2.531072	0.005000	-0.474550	-0.392400	-9.945505	-0.136631	-0.229297	-0.997428	0.004725	-0.009349	0.005200
501	2.536072	0.005000	-0.489066	-0.334974	-10.006200	-0.136746	-0.229643	-0.997300	-0.001322	-0.004864	0.008900
502	2.541072	0.005000	-0.431640	-0.313920	-9.969532	-0.136862	-0.229989	-0.997171	0.005887	-0.001214	0.004548
503	2.546072	0.005000	-0.489627	-0.313920	-9.931212	-0.136977	-0.230335	-0.997042	0.017003	-0.004347	0.004546
504	2.551072	0.005000	-0.392400	-0.352208	-9.829144	-0.137092	-0.230681	-0.996913	0.009074	-0.001020	0.002049
505	2.556072	0.005000	-0.412083	-0.392273	-9.888353	-0.137208	-0.231027	-0.996785	0.011082	-0.004887	0.000037
506	2.561072	0.005000	-0.353160	-0.411918	-9.888684	-0.137283	-0.231323	-0.996645	0.015934	-0.006057	-0.002124
507	2.566072	0.005000	-0.354164	-0.431640	-9.927720	-0.136937	-0.231092	-0.996387	0.014318	-0.000923	0.002967
508	2.571072	0.005000	-0.371879	-0.332639	-9.966960	-0.136591	-0.230862	-0.996129	0.012967	-0.013524	0.004923
509	2.576072	0.005000	-0.332238	-0.329635	-9.946038	-0.136245	-0.230631	-0.995872	-0.006596	-0.001380	-0.006077
510	2.581072	0.005000	-0.392400	-0.335249	-9.891899	-0.135899	-0.230400	-0.995614	-0.000206	-0.003005	0.017950
511	2.586072	0.005000	-0.453369	-0.287974	-9.884263	-0.135553	-0.230170	-0.995356	-0.000350	-0.014828	0.005542
512	2.591072	0.005000	-0.409511	-0.313920	-9.854259	-0.135207	-0.229939	-0.995099	0.003172	-0.010710	0.013774
513	2.596072	0.005000	-0.437055	-0.297008	-9.770760	-0.134861	-0.229708	-0.994841	0.012082	-0.006966	0.002261
514	2.601072	0.005000	-0.487184	-0.369464	-9.924679	-0.134515	-0.229477	-0.994583	0.013774	-0.004150	0.011463
515	2.606072	0.005000	-0.454977	-0.376497	-9.959526	-0.134169	-0.229247	-0.994326	0.011792	-0.014892	0.012728
516	2.611072	0.005000	-0.470880	-0.329425	-9.888480	-0.133823	-0.229016	-0.994068	0.017776	-0.003090	0.003923
517	2.616072	0.005000	-0.510120	-0.305253	-9.951674	-0.133477	-0.228785	-0.993810	0.022055	-0.002561	0.001537
518	2.621072	0.005000	-0.416766	-0.284173	-9.952086	-0.133131	-0.228555	-0.993553	0.023248	-0.003527	0.002423
519	2.626072	0.005000	-0.470880	-0.274680	-10.041249	-0.132870	-0.228358	-0.993314	0.028048	0.003192	-0.001519
520	2.631072	0.005000	-0.484944	-0.364272	-9.983977	-0.133100	-0.228358	-0.993185	0.032643	-0.001797	0.017265
521	2.636072	0.005000	-0.417672	-0.353160	-9.978263	-0.133331	-0.228358	-0.993057	0.029836	0.004451	0.007347
522	2.641072	0.005000	-0.443748	-0.301812	-9.953394	-0.133561	-0.228358	-0.992928	0.030126	-0.003695	0.018652
523	2.646072	0.005000	-0.431640	-0.340258	-9.888480	-0.133792	-0.228358	-0.992800	0.023731	0.004236	-0.004050
524	2.651072	0.005000	-0.406107	-0.392400	-9.849240	-0.134022	-0.228358	-0.992671	0.012548	0.007467	-0.000898
525	2.656072	0.005000	-0.522479	-0.313920	-9.876121	-0.134253	-0.228358	-0.992542	0.025090	0.001945	0.005297
526	2.661072	0.005000	-0.443602	-0.353160	-9.970315	-0.134483	-0.228358	-0.992414	0.015979	-0.005831	0.003762
527	2.666072	0.005000	-0.419941	-0.313920	-9.927720	-0.134714	-0.228358	-0.992285	0.018178	-0.008728	0.012930
528	2.671072	0.005000	-0.459589	-0.274680	-9.983618	-0.134944	-0.228358	-0.992156	0.001640	0.002041	-0.002652
529	2.676072	0.005000	-0.499231	-0.353160	-9.995311	-0.135175	-0.228358	-0.992028	0.018640	-0.006783	0.008766
530	2.681072	0.005000	-0.381923	-0.274680	-9.917243	-0.135405	-0.228358	-0.991899	0.029879	-0.009178	0.010986
531	2.686072	0.005000	-0.441720	-0.274680	-9.839160	-0.135636	-0.228358	-0.991770	0.014524	-0.004441	0.016853
532	2.691072	0.005000	-0.372494	-0.343493	-9.986294	-0.135776	-0.228335	-0.991692	0.006766	-0.008087	0.003858
533	2.696072	0.005000	-0.353160	-0.304666	-10.075426	-0.135545	-0.228220	-0.991821	0.003294	0.000459	-0.011730
534	2.701072	0.005000	-0.461658	-0.341586	-9.946164	-0.135314	-0.228105	-0.991950	0.022940	0.000780	0.010953
535	2.706072	0.005000	-0.510120	-0.353160	-9.879654	-0.135084	-0.227990	-0.992078	0.035682	-0.008123	0.015144
536	2.711072	0.005000	-0.431640	-0.322339	-9.950123	-0.134853	-0.227874	-0.992207	0.039861	-0.002594	0.022137
537	2.716072	0.005000	-0.400414	-0.313920	-9.950932	-0.134622	-0.227759	-0.992336	0.020409	-0.008681	0.010751
538	2.721072	0.005000	-0.439259	-0.274680	-9.998581	-0.134392	-0.227644	-0.992465	0.016838	-0.001299	0.006011
539	2.726072	0.005000	-0.367589	-0.363542	-9.910123	-0.134161	-0.227528	-0.992593	0.024926	0.000378	0.011695
540	2.731072	0.005000	-0.438447	-0.359967	-9.999393	-0.133930	-0.227413	-0.992722	0.029845	0.002380	0.012367
541	2.736072	0.005000	-0.431640	-0.392400	-9.940544	-0.133700	-0.227298	-0.992851	0.045653	-0.000544	0.011444
542	2.741072	0.005000	-0.386320	-0.398480	-9.960880	-0.133469	-0.227182	-0.992980	0.016341	0.002743	0.005833
543	2.746072	0.005000	-0.470880	-0.431640	-9.899678	-0.133238	-0.227067	-0.993108	0.009142	-0.004508	0.009663
544	2.751072	0.005000	-0.538950	-0.392400	-9.893685	-0.133008	-0.226952	-0.993237	-0.003776	-0.008518	0.008431
545	2.756072	0.005000	-0.485277	-0.348361	-9.996602	-0.132836	-0.227014	-0.993399	0.013903	-0.000844	0.010105
546	2.761072	0.005000	-0.470880	-0.274680	-9.932125	-0.132836	-0.227590	-0.993657	0.011976	-0.008318	0.012377
547	2.766072	0.005000	-0.427642	-0.309922	-9.857235	-0.132836	-0.228167	-0.993914	0.005964	-0.004325	-0.000009
548	2.771072	0.005000	-0.431640	-0.278272	-9.849240	-0.132836	-0.228743	-0.994172	0.004006	-0.010667	0.006963
549	2.776072	0.005000	-0.467682	-0.389202	-10.039044	-0.132836	-0.229319	-0.994429	0.008119	-0.009594	0.008462
550	2.781072	0.005000	-0.395192	-0.389608	-10.079097	-0.132836	-0.229896	-0.994687	-0.001002	-0.004885	0.005984
551	2.786072	0.005000	-0.394784	-0.387632	-9.969344	-0.132836	-0.230472	-0.994944	-0.000136	-0.007388	0.009790
552	2.791072	0.005000	-0.466898	-0.315911	-9.888480	-0.132836	-0.231049	-0.995202	-0.008406	-0.002982	0.004276
553	2.796072	0.005000	-0.546192	-0.277848	-9.849240	-0.132836	-0.231625	-0.995459	-0.004677	-0.002557	0.013343
554	2.801072	0.005000	-0.472056	-0.354336	-9.968136	-0.132836	-0.232201	-0.995717	0.011310	-0.004530	0.002795
555	2.806072	0.005000	-0.473261	-0.353954	-9.849240	-0.132836	-0.232778	-0.995974	-0.001722	-0.007899	0.001534
556	2.811072	0.005000	-0.394305	-0.196962	-9.927339	-0.132836	-0.233354	-0.996232	0.002317	-0.009960	0.005353
557	2.816072	0.005000	-0.431640	-0.312101	-9.966050	-0.132836	-0.233931	-0.996489	-0.005354	-0.005995	-0.005844
558	2.821072	0.005000	-0.431593	-0.274539	-10.006153	-0.132836	-0.234185	-0.996627	0.001733	-0.012987	0.014512
559	2.826072	0.005000	-0.509771	-0.313571	-10.005851	-0.132836	-0.233724	-0.996498	0.015646	-0.006347	0.001335
560	2.831072	0.005000	-0.470118	-0.274680	-9.926196	-0.132836	-0.233263	-0.996370	0.035103	-0.008485	0.011267
561	2.836072	0.005000	-0.472039	-0.275839	-9.925401	-0.132836	-0.232802	-0.996241	0.022629	-0.002696	0.004415
562	2.841072	0.005000	-0.426925	-0.315492	-9.926148	-0.132836	-0.232341	-0.996112	0.017401	-0.006142	0.003649
563	2.846072	0.005000	-0.431640	-0.347207	-9.849240	-0.132836	-0.231880	-0.995983	0.014408	-0.012447	0.015577
564	2.851072	0.005000	-0.470880	-0.272299	-9.819524	-0.132836	-0.231419	-0.995855	0.002066	-0.003159	0.010021
565	2.856072	0.005000	-0.437228	-0.241028	-9.933308	-0.132836	-0.230958	-0.995726	0.020093	-0.011573	0.015127
566	2.861072	0.005000	-0.356327	-0.317087	-10.009367	-0.132836	-0.230497	-0.995597	0.015864	-0.008589	0.009690
567	2.866072	0.005000	-0.438760	-0.317480	-9.895600	-0.132836	-0.230036	-0.995469	0.027041	-0.003162	-0.003372
568	2.871072	0.005000	-0.470880	-0.278646	-9.931686	-0.132836	-0.229575	-0.995340	0.000217	-0.011084	0.005455
569	2.876072	0.005000	-0.505746	-0.344412	-9.966960	-0.132836	-0.229114	-0.995211	0.023183	-0.002533	-0.010233
570	2.881072	0.005000	-0.466531	-0.274680	-9.966960	-0.132836	-0.228653	-0.995083	0.024895	-0.013985	0.012780
571	2.886072	0.005000	-0.431640	-0.235440	-10.006200	-0.132877	-0.228565	-0.994538	0.020848	-0.005948	0.000352
572	2.891072	0.005000	-0.387241	-0.279839	-10.045440	-0.132993	-0.229141	-0.993250	0.020173	0.000162	0.002726
573	2.896072	0.005000	-0.353160	-0.386828	-10.017582	-0.133108	-0.229718	-0.991963	0.016505	-0.002488	0.003007
574	2.901072	0.005000	-0.325857	-0.386431	-9.906386	-0.133223	-0.230294	-0.990675	0.009860	-0.005781	0.009170
575	2.906072	0.005000	-0.470880	-0.307539	-9.993437	-0.133338	-0.230871	-0.989388	0.014379	-0.018681	0.019755
576	2.911072	0.005000	-0.424859	-0.288242	-9.895261	-0.133454	-0.231447	-0.988100	0.000316	-0.002775	0.000680
577	2.916072	0.005000	-0.399591	-0.345969	-9.956483	-0.133569	-0.232024	-0.986813	-0.001858	-0.009350	0.012542
578	2.921072	0.005000	-0.368179	-0.282189	-9.888480	-0.133684	-0.232600	-0.985526	0.012587	-0.003820	0.001782
579	2.926072	0.005000	-0.462976	-0.274680	-9.857144	-0.133799	-0.233177	-0.984238	0.012966	0.003665	0.017270
580	2.931072	0.005000	-0.454256	-0.392400	-9.905104	-0.133915	-0.233753	-0.982951	0.017856	-0.006654	0.011021
581	2.936072	0.005000	-0.453447	-0.392400	-10.019290	-0.134030	-0.234330	-0.981663	0.006291	-0.005828	0.011818
582	2.941072	0.005000	-0.422528	-0.392400	-9.936832	-0.134145	-0.234906	-0.980376	-0.004761	-0.010259	0.013390
583	2.946072	0.005000	-0.422124	-0.382884	-9.946752	-0.134260	-0.235483	-0.979088	-0.004450	-0.000595	-0.007131
584	2.951072	0.005000	-0.392400	-0.333313	-9.917796	-0.134566	-0.236012	-0.978014	0.009476	-0.004268	0.005624
585	2.956072	0.005000	-0.402369	-0.235440	-9.976294	-0.135143	-0.236473	-0.977241	-0.004835	-0.011271	0.005720
586	2.961072	0.005000	-0.373891	-0.264314	-9.917354	-0.135719	-0.236934	-0.976469	-0.003818	0.009355	0.003474
587	2.966072	0.005000	-0.481658	-0.267775	-9.988517	-0.136296	-0.237395	-0.975696	-0.006229	-0.009534	0.007196
588	2.971072	0.005000	-0.498929	-0.291538	-9.938911	-0.136872	-0.237856	-0.974924	-0.001920	0.002194	0.002505
589	2.976072	0.005000	-0.526462	-0.286129	-10.068338	-0.137449	-0.238317	-0.974151	0.006630	-0.010095	0.014870
590	2.981072	0.005000	-0.455344	-0.325772	-9.970644	-0.138025	-0.238779	-0.973379	0.018351	-0.016561	0.014899
591	2.986072	0.005000	-0.537111	-0.301671	-9.846746	-0.138602	-0.239240	-0.972606	0.014757	-0.015089	0.004178
592	2.991072	0.005000	-0.484807	-0.287337	-9.992273	-0.139178	-0.239701	-0.971834	0.008646	-0.007823	0.004025
593	2.996072	0.005000	-0.418581	-0.313920	-9.953838	-0.139755	-0.240162	-0.971061	0.010577	-0.001889	0.010618
594	3.001072	0.005000	-0.379257	-0.379257	-9.927910	-0.140331	-0.240623	-0.970289	0.017826	-0.010258	0.012381
595	3.006072	0.005000	-0.353160	-0.327466	-9.822148	-0.140908	-0.241084	-0.969517	0.011433	-0.015302	0.009397
596	3.011072	0.005000	-0.406353	-0.313920	-9.868431	-0.141484	-0.241546	-0.968744	0.001348	-0.010771	0.006760
597	3.016072	0.005000	-0.431640	-0.324784	-9.952772	-0.141575	-0.241467	-0.968996	-0.019385	-0.012297	0.011742
598	3.021072	0.005000	-0.431640	-0.225371	-9.878411	-0.141114	-0.240776	-0.970412	-0.015362	0.005228	-0.002144
599	3.026072	0.005000	-0.510120	-0.298927	-9.976213	-0.140653	-0.240084	-0.971828	-0.004244	-0.005623	0.013654
600	3.031072	0.005000	-0.470880	-0.220045	-9.966960	-0.140192	-0.239392	-0.973244	-0.003162	-0.001707	0.007497
601	3.036072	0.005000	-0.486389	-0.219931	-10.014423	-0.139731	-0.238700	-0.974660	0.008781	-0.003019	0.006305
602	3.041072	0.005000	-0.470880	-0.290586	-10.052869	-0.139269	-0.238009	-0.976077	0.001029	-0.003134	0.001752
603	3.046072	0.005000	-0.447958	-0.336842	-10.019407	-0.138808	-0.237317	-0.977493	0.001662	0.000573	0.000762
604	3.051072	0.005000	-0.487611	-0.308142	-9.972738	-0.138347	-0.236625	-0.978909	0.014404	-0.012556	0.011155
605	3.056072	0.005000	-0.527248	-0.240424	-9.989072	-0.137886	-0.235933	-0.980325	0.007424	-0.002621	0.009911
606	3.061072	0.005000	-0.453339	-0.252981	-10.123920	-0.137425	-0.235242	-0.981742	0.019147	-0.010690	0.018183
607	3.066072	0.005000	-0.470880	-0.256949	-9.970738	-0.136964	-0.234550	-0.983158	0.002955	-0.004865	0.003595
608	3.071072	0.005000	-0.431640	-0.256550	-9.963980	-0.136503	-0.233858	-0.984574	0.003899	0.006585	-0.005597
609	3.076072	0.005000	-0.355339	-0.293210	-9.929899	-0.136041	-0.233167	-0.985990	0.009370	-0.000161	-0.004074
610	3.081072	0.005000	-0.411330	-0.392400	-9.968340	-0.135701	-0.232595	-0.986869	0.009177	0.000507	-0.001973
611	3.086072	0.005000	-0.412302	-0.373062	-9.907818	-0.135470	-0.232134	-0.987255	0.015026	-0.005253	0.011111
612	3.091072	0.005000	-0.451142	-0.294182	-9.927720	-0.135240	-0.231673	-0.987641	0.002976	-0.003734	0.004115
613	3.096072	0.005000	-0.353160	-0.274680	-9.946822	-0.135009	-0.231212	-0.988027	0.009988	-0.003971	0.011619
614	3.101072	0.005000	-0.411322	-0.313920	-9.811397	-0.134779	-0.230752	-0.988413	0.010256	-0.010395	0.000906
615	3.106072	0.005000	-0.431640	-0.334635	-9.768569	-0.134548	-0.230291	-0.988799	-0.002801	-0.007609	0.016154
616	3.111072	0.005000	-0.392400	-0.313920	-9.794904	-0.134318	-0.229830	-0.989185	0.005170	-0.011101	0.014478
617	3.116072	0.005000	-0.527835	-0.335445	-9.966960	-0.134087	-0.229369	-0.989571	-0.011075	-0.005203	0.003688
618	3.121072	0.005000	-0.444307	-0.309285	-9.905782	-0.133857	-0.228908	-0.989957	0.008761	-0.005913	0.012698
619	3.126072	0.005000	-0.487770	-0.280141	-9.961499	-0.133626	-0.228447	-0.990343	-0.001123	-0.006549	0.005042
620	3.131072	0.005000	-0.516374	-0.353160	-9.989707	-0.133396	-0.227986	-0.990729	0.001882	-0.003803	0.010690
621	3.136072	0.005000	-0.486960	-0.297840	-9.879480	-0.133165	-0.227525	-0.991115	0.003555	-0.006599	0.014946
622	3.141072	0.005000	-0.533693	-0.368827	-10.029773	-0.132935	-0.227064	-0.991501	0.004707	0.000805	0.007948
623	3.146072	0.005000	-0.447198	-0.329478	-9.998076	-0.132770	-0.226932	-0.991740	0.009364	-0.006597	0.009660
624	3.151072	0.005000	-0.446800	-0.338000	-9.966960	-0.132655	-0.227047	-0.991869	0.002799	-0.014566	0.000023
625	3.156072	0.005000	-0.465863	-0.299168	-9.912968	-0.132540	-0.227162	-0.991998	0.003934	0.000295	0.014271
626	3.161072	0.005000	-0.396211	-0.313920	-9.963149	-0.132424	-0.227277	-0.992126	-0.007335	0.002111	0.003115
627	3.166072	0.005000	-0.408971	-0.246775	-9.927720	-0.132309	-0.227393	-0.992255	-0.012358	-0.002795	0.001344
628	3.171072	0.005000	-0.494500	-0.300205	-10.018010	-0.132194	-0.227508	-0.992384	0.020732	-0.011219	0.002660
629	3.176072	0.005000	-0.497484	-0.313920	-10.046107	-0.132079	-0.227623	-0.992512	0.022100	0.003918	0.011392
630	3.181072	0.005000	-0.510120	-0.366589	-9.887956	-0.131963	-0.227738	-0.992641	0.024908	-0.003369	0.013548
631	3.186072	0.005000	-0.444133	-0.326413	-9.902735	-0.131848	-0.227853	-0.992769	0.012092	-0.005097	0.003780
632	3.191072	0.005000	-0.443725	-0.298850	-9.849240	-0.131733	-0.227969	-0.992898	0.009370	-0.006994	0.017617
633	3.196072	0.005000	-0.431640	-0.286363	-9.971151	-0.131617	-0.228084	-0.993027	-0.008139	-0.014157	0.015382
634	3.201072	0.005000	-0.403670	-0.302650	-9.994930	-0.131502	-0.228199	-0.993155	-0.012286	-0.000654	0.012303
635	3.206072	0.005000	-0.403614	-0.229841	-10.006200	-0.131387	-0.228314	-0.993284	-0.003532	-0.016428	0.019541
636	3.211072	0.005000	-0.413322	-0.253758	-9.974818	-0.131557	-0.228429	-0.993333	-0.006643	-0.006266	0.008566
637	3.216072	0.005000	-0.392400	-0.253861	-9.966960	-0.131903	-0.228545	-0.993333	0.013084	-0.005862	0.015666
638	3.221072	0.005000	-0.411628	-0.216212	-9.986972	-0.132249	-0.228660	-0.993333	0.010939	-0.011232	0.011675
639	3.226072	0.005000	-0.451660	-0.255460	-9.976570	-0.132595	-0.228775	-0.993333	0.022901	-0.010691	0.019841
640	3.231072	0.005000	-0.440843	-0.274680	-10.075477	-0.132941	-0.228891	-0.993333	0.034276	-0.003683	0.018795
641	3.236072	0.005000	-0.422842	-0.305122	-10.006200	-0.133287	-0.229006	-0.993333	0.017807	-0.003054	-0.005774
642	3.241072	0.005000	-0.524151	-0.369966	-9.826806	-0.133633	-0.229121	-0.993333	0.024127	0.002366	0.008249
643	3.246072	0.005000	-0.408397	-0.274680	-9.974206	-0.133978	-0.229237	-0.993333	0.012328	0.001020	0.003663
644	3.251072	0.005000	-0.439323	-0.321603	-9.911529	-0.134324	-0.229352	-0.993333	0.016562	-0.002739	0.010680
645	3.256072	0.005000	-0.421544	-0.228154	-9.984342	-0.134670	-0.229467	-0.993333	0.020620	-0.001379	0.006720
646	3.261072	0.005000	-0.470880	-0.320793	-9.888480	-0.135016	-0.229583	-0.993333	0.025295	0.005290	0.009882
647	3.266072	0.005000	-0.392400	-0.287606	-9.947110	-0.135362	-0.229698	-0.993333	0.030647	0.003156	0.005804
648	3.271072	0.005000	-0.443768	-0.341032	-9.960896	-0.135708	-0.229813	-0.993333	0.025122	-0.000458	0.009774
649	3.276072	0.005000	-0.392400	-0.268613	-9.795028	-0.135511	-0.229929	-0.992900	0.028722	0.000257	0.007812
650	3.281072	0.005000	-0.364483	-0.308258	-9.776422	-0.135050	-0.230044	-0.992256	0.019637	-0.002670	0.003810
651	3.286072	0.005000	-0.460372	-0.347906	-9.810000	-0.134589	-0.230159	-0.991613	0.011301	-0.004581	0.007025
652	3.291072	0.005000	-0.431640	-0.240300	-9.814860	-0.134128	-0.230274	-0.990970	-0.000817	-0.004855	0.015739
653	3.296072	0.005000	-0.427186	-0.279134	-9.884026	-0.133667	-0.230389	-0.990326	-0.000536	-0.003277	0.005754
654	3.301072	0.005000	-0.470880	-0.282903	-9.814111	-0.133206	-0.230505	-0.989683	0.013344	-0.012202	0.007403
655	3.306072	0.005000	-0.396099	-0.317619	-10.058790	-0.132745	-0.230620	-0.989039	-0.009993	-0.003243	0.004615
656	3.311072	0.005000	-0.395686	-0.245298	-9.819858	-0.132284	-0.230735	-0.988396	-0.014694	-0.009175	0.009483
657	3.316072	0.005000	-0.428751	-0.268902	-9.961182	-0.131823	-0.230850	-0.987753	-0.003144	-0.011234	0.013208
658	3.321072	0.005000	-0.431640	-0.274680	-9.890956	-0.131362	-0.230965	-0.987109	-0.004082	-0.008149	0.004436
659	3.326072	0.005000	-0.505993	-0.274680	-9.892607	-0.130901	-0.231081	-0.986466	0.000628	-0.007860	0.017706
660	3.331072	0.005000	-0.394067	-0.276347	-9.966960	-0.130440	-0.231196	-0.985822	-0.006086	-0.003463	0.000341
661	3.336072	0.005000	-0.354414	-0.350652	-9.966960	-0.129979	-0.231311	-0.985179	-0.005248	0.000643	0.017391
662	3.341072	0.005000	-0.507595	-0.353160	-9.891847	-0.130017	-0.232009	-0.985093	0.007110	-0.004401	-0.000441
663	3.346072	0.005000	-0.394219	-0.313010	-9.889390	-0.130248	-0.232931	-0.985222	-0.004819	-0.002149	0.010874
664	3.351072	0.005000	-0.392400	-0.196200	-9.926685	-0.130479	-0.233854	-0.985350	0.010541	-0.010957	0.011197
665	3.356072	0.005000	-0.470660	-0.274460	-9.810220	-0.130709	-0.234776	-0.985479	0.016142	-0.002613	-0.000748
666	3.361072	0.005000	-0.469975	-0.196803	-9.771665	-0.130940	-0.235698	-0.985608	0.018576	0.001615	0.008964
667	3.366072	0.005000	-0.508740	-0.276750	-9.849240	-0.131170	-0.236621	-0.985737	0.012404	0.001568	0.003701
668	3.371072	0.005000	-0.430543	-0.429445	-9.928817	-0.131401	-0.237543	-0.985866	0.036196	-0.001717	0.008495
669	3.376072	0.005000	-0.470880	-0.313920	-10.006200	-0.131631	-0.238466	-0.985994	0.024097	-0.009005	0.003675
670	3.381072	0.005000	-0.394298	-0.353160	-10.043542	-0.131862	-0.239388	-0.986123	0.007069	-0.002271	0.004721
671	3.386072	0.005000	-0.429799	-0.351319	-10.041757	-0.132093	-0.240310	-0.986252	-0.000788	-0.013591	0.009029
672	3.391072	0.005000	-0.387892	-0.348652	-9.927720	-0.132323	-0.241233	-0.986381	-0.015262	-0.004979	-0.003054
673	3.396072	0.005000	-0.429021	-0.235440	-9.974817	-0.132554	-0.242155	-0.986509	-0.003659	-0.003444	0.003147
674	3.401072	0.005000	-0.467853	-0.271653	-9.933774	-0.132784	-0.243078	-0.986638	-0.002413	-0.010553	0.001491
675	3.406072	0.005000	-0.477747	-0.313920	-9.895347	-0.132836	-0.242658	-0.986867	-0.012957	-0.008538	0.003530
676	3.411072	0.005000	-0.510120	-0.313920	-9.939200	-0.132836	-0.241850	-0.987124	-0.012988	-0.014089	0.008470
677	3.416072	0.005000	-0.466645	-0.235440	-9.853475	-0.132836	-0.241043	-0.987382	-0.013472	-0.010714	0.002980
678	3.421072	0.005000	-0.431640	-0.239647	-9.993580	-0.132836	-0.240236	-0.987639	0.002744	-0.006218	0.021070
679	3.426072	0.005000	-0.406258	-0.156960	-9.971579	-0.132836	-0.239429	-0.987897	0.007374	-0.011541	0.004223
680	3.431072	0.005000	-0.505104	-0.269664	-10.040424	-0.132836	-0.238622	-0.988154	0.015636	-0.005922	0.010198
681	3.436072	0.005000	-0.353160	-0.285538	-9.927720	-0.132836	-0.237815	-0.988412	0.032678	-0.009017	0.003289
682	3.441072	0.005000	-0.398242	-0.398242	-9.972802	-0.132836	-0.237008	-0.988669	0.009383	-0.005228	0.004902
683	3.446072	0.005000	-0.386162	-0.392400	-9.960722	-0.132836	-0.236201	-0.988927	-0.001511	-0.009324	0.009741
684	3.451072	0.005000	-0.392400	-0.320571	-9.901782	-0.132836	-0.235394	-0.989184	-0.010361	-0.000462	0.005005
685	3.456072	0.005000	-0.542384	-0.235440	-10.063751	-0.132836	-0.234587	-0.989441	-0.006949	-0.007401	0.011359
686	3.461072	0.005000	-0.495378	-0.299178	-9.920349	-0.132836	-0.233780	-0.989699	0.002361	-0.005055	-0.003328
687	3.466072	0.005000	-0.439416	-0.243216	-9.990648	-0.132836	-0.232973	-0.989956	-0.011141	-0.004202	0.004766
688	3.471072	0.005000	-0.518291	-0.243611	-9.824727	-0.133123	-0.233028	-0.989679	0.000583	-0.010331	0.017208
689	3.476072	0.005000	-0.501541	-0.252598	-9.862743	-0.133469	-0.233258	-0.989293	-0.012050	0.003115	0.007225
690	3.481072	0.005000	-0.413674	-0.292646	-9.858223	-0.133815	-0.233489	-0.988906	0.012839	-0.008238	0.001084
691	3.486072	0.005000	-0.343781	-0.334403	-9.800621	-0.134161	-0.233720	-0.988520	0.007893	-0.009540	0.003272
692	3.491072	0.005000	-0.401817	-0.295086	-9.770760	-0.134507	-0.233950	-0.988133	0.000143	-0.007642	0.005925
693	3.496072	0.005000	-0.392400	-0.264854	-9.927720	-0.134853	-0.234181	-0.987747	-0.003493	-0.002065	0.001685
694	3.501072	0.005000	-0.392400	-0.284919	-9.908957	-0.135199	-0.234412	-0.987361	-0.008301	0.000024	0.010667
695	3.506072	0.005000	-0.363795	-0.285315	-10.052774	-0.135545	-0.234642	-0.986974	0.008572	-0.010427	0.014059
696	3.511072	0.005000	-0.414496	-0.324968	-9.938768	-0.135891	-0.234873	-0.986588	-0.000165	-0.001474	0.002625
697	3.516072	0.005000	-0.470880	-0.286141	-10.050297	-0.136237	-0.235104	-0.986201	-0.001117	-0.006920	0.005856
698	3.521072	0.005000	-0.486405	-0.341302	-9.849240	-0.136583	-0.235335	-0.985815	0.012225	-0.005400	0.000729
699	3.526072	0.005000	-0.392400	-0.313920	-9.939838	-0.136929	-0.235565	-0.985428	0.003473	0.003019	0.004382
700	3.531072	0.005000	-0.470880	-0.249628	-9.890142	-0.137275	-0.235796	-0.985042	0.025388	-0.006988	0.016576
701	3.536072	0.005000	-0.549360	-0.235440	-9.822923	-0.137108	-0.235821	-0.984885	0.025238	-0.004315	0.002513
702	3.541072	0.005000	-0.470880	-0.248766	-9.810737	-0.136877	-0.235821	-0.984756	0.024109	0.002299	0.004897
703	3.546072	0.005000	-0.484603	-0.300197	-9.978754	-0.136646	-0.235821	-0.984628	0.012342	-0.006765	0.006024
704	3.551072	0.005000	-0.510120	-0.288506	-9.941546	-0.136416	-0.235821	-0.984499	0.007682	-0.002913	0.010610
705	3.556072	0.005000	-0.431640	-0.313920	-9.966960	-0.136185	-0.235821	-0.984370	-0.001503	0.003030	0.010307
706	3.561072	0.005000	-0.309253	-0.260044	-10.016169	-0.135955	-0.235821	-0.984241	0.002096	0.001079	0.005995
707	3.566072	0.005000	-0.416302	-0.266117	-9.951622	-0.135724	-0.235821	-0.984113	0.002813	-0.002571	0.000178
708	3.571072	0.005000	-0.368605	-0.329365	-9.919370	-0.135493	-0.235821	-0.983984	0.014378	-0.002160	-0.003473
709	3.576072	0.005000	-0.376542	-0.337302	-9.935244	-0.135263	-0.235821	-0.983855	0.026087	-0.000002	0.008887
710	3.581072	0.005000	-0.424910	-0.313920	-9.858764	-0.135032	-0.235821	-0.983726	0.018675	-0.008885	0.009049
711	3.586072	0.005000	-0.414973	-0.336493	-9.927720	-0.134802	-0.235821	-0.983598	0.002829	0.000347	0.011179
712	3.591072	0.005000	-0.353160	-0.291760	-9.944800	-0.134571	-0.235821	-0.983469	-0.002618	-0.011902	0.005576
713	3.596072	0.005000	-0.466175	-0.375133	-9.971665	-0.134341	-0.235821	-0.983340	0.002264	0.002293	0.002685
714	3.601072	0.005000	-0.435544	-0.235440	-9.966960	-0.134110	-0.235821	-0.983455	0.022381	-0.006057	0.017370
715	3.606072	0.005000	-0.492044	-0.310832	-9.966960	-0.133879	-0.235821	-0.983584	0.017378	-0.006688	0.014387
716	3.611072	0.005000	-0.450115	-0.293155	-9.909245	-0.133649	-0.235821	-0.983712	0.019516	0.001385	0.010474
717	3.616072	0.005000	-0.431640	-0.274680	-10.007689	-0.133418	-0.235821	-0.983841	0.020222	0.000861	0.001222
718	3.621072	0.005000	-0.431640	-0.274680	-9.947927	-0.133188	-0.235821	-0.983970	0.029495	-0.007851	-0.000597
719	3.626072	0.005000	-0.412195	-0.274680	-9.927371	-0.132957	-0.235821	-0.984099	0.025413	-0.012832	0.007564
720	3.631072	0.005000	-0.451482	-0.313920	-10.006200	-0.132726	-0.235821	-0.984227	0.025679	-0.014636	0.003124
721	3.636072	0.005000	-0.490116	-0.333156	-9.966192	-0.132496	-0.235821	-0.984356	0.025513	-0.007423	0.013441
722	3.641072	0.005000	-0.491284	-0.354728	-9.966960	-0.132265	-0.235821	-0.984485	0.006288	-0.009034	0.000528
723	3.646072	0.005000	-0.447684	-0.274680	-9.888480	-0.132035	-0.235821	-0.984614	0.008827	-0.005564	0.007671
724	3.651072	0.005000	-0.392400	-0.274680	-9.927720	-0.131804	-0.235821	-0.984742	0.002438	-0.011296	0.013586
725	3.656072	0.005000	-0.414012	-0.257052	-9.841273	-0.131574	-0.235821	-0.984871	-0.003373	-0.002540	0.010205
726	3.661072	0.005000	-0.392400	-0.309539	-9.888480	-0.131343	-0.235821	-0.985000	0.011417	-0.000963	0.012492
727	3.666072	0.005000	-0.493087	-0.274680	-9.883305	-0.131343	-0.235360	-0.985386	0.009081	-0.002096	-0.000364
728	3.671072	0.005000	-0.504120	-0.173580	-9.888480	-0.131343	-0.234899	-0.985772	0.027622	-0.008205	0.004846
729	3.676072	0.005000	-0.392400	-0.290903	-9.927720	-0.131343	-0.234438	-0.986158	0.021591	-0.012448	0.008459
730	3.681072	0.005000	-0.470880	-0.298110	-9.943530	-0.131343	-0.233977	-0.986544	0.031880	-0.012178	0.005940
731	3.686072	0.005000	-0.447333	-0.321774	-10.006200	-0.131343	-0.233516	-0.986930	0.019134	-0.007285	0.004887
732	3.691072	0.005000	-0.368451	-0.257365	-9.966960	-0.131343	-0.233055	-0.987316	0.003102	-0.007861	0.002797
733	3.696072	0.005000	-0.504709	-0.235440	-9.981844	-0.131343	-0.232594	-0.987702	0.014759	-0.012865	0.011541
734	3.701072	0.005000	-0.603086	-0.235440	-9.888480	-0.131343	-0.232133	-0.988088	0.025901	-0.015278	0.004507
735	3.706072	0.005000	-0.459807	-0.224367	-9.941804	-0.131343	-0.231672	-0.988474	0.040950	-0.000041	0.006489
736	3.711072	0.005000	-0.457022	-0.249298	-10.017724	-0.131343	-0.231212	-0.988861	0.032616	-0.002951	0.010767
737	3.716072	0.005000	-0.432735	-0.287030	-9.928815	-0.131343	-0.230751	-0.989247	0.026189	0.006238	0.002073
738	3.721072	0.005000	-0.431640	-0.287712	-9.888480	-0.131343	-0.230290	-0.989633	0.024993	-0.001199	0.004953
739	3.726072	0.005000	-0.392400	-0.327889	-9.874511	-0.131343	-0.229884	-0.989988	0.009575	-0.001627	-0.005152
740	3.731072	0.005000	-0.407194	-0.286903	-9.927720	-0.131343	-0.230576	-0.989730	0.013703	-0.006341	0.006263
741	3.736072	0.005000	-0.459070	-0.223630	-9.794380	-0.131343	-0.231267	-0.989473	0.017806	-0.004354	0.000065
742	3.741072	0.005000	-0.415227	-0.219027	-9.877067	-0.131343	-0.231959	-0.989216	0.022965	-0.002222	-0.001513
743	3.746072	0.005000	-0.392400	-0.302919	-9.977961	-0.131343	-0.232650	-0.988958	0.026898	-0.004802	0.014796
744	3.751072	0.005000	-0.449673	-0.295887	-9.909687	-0.131343	-0.233342	-0.988701	0.026994	-0.003128	0.016746
745	3.756072	0.005000	-0.499929	-0.216582	-10.006200	-0.131343	-0.234033	-0.988443	0.027421	-0.004596	0.011778
746	3.761072	0.005000	-0.431640	-0.127863	-9.996057	-0.131343	-0.234724	-0.988186	0.013595	0.003154	0.001889
747	3.766072	0.005000	-0.421901	-0.225701	-9.996461	-0.131343	-0.235416	-0.987929	0.007990	-0.003283	0.002405
748	3.771072	0.005000	-0.383068	-0.166292	-9.897812	-0.131343	-0.236107	-0.987671	0.029400	-0.003971	0.011581
749	3.776072	0.005000	-0.522552	-0.274680	-9.876048	-0.131343	-0.236799	-0.987414	0.045773	-0.007413	0.012498
750	3.781072	0.005000	-0.580068	-0.305388	-9.997668	-0.131343	-0.237490	-0.987157	0.027794	-0.006211	0.012726
751	3.786072	0.005000	-0.470880	-0.282816	-10.068407	-0.131343	-0.238182	-0.986899	0.004711	-0.003123	-0.003739
752	3.791072	0.005000	-0.439369	-0.313920	-10.060898	-0.131365	-0.238761	-0.986692	-0.009575	-0.006721	0.012815
753	3.796072	0.005000	-0.431640	-0.282093	-9.949959	-0.131596	-0.238300	-0.986949	-0.000432	-0.007877	0.006181
754	3.801072	0.005000	-0.489071	-0.267664	-9.973976	-0.131826	-0.237839	-0.987207	0.005040	0.004276	0.004126
755	3.806072	0.005000	-0.510120	-0.163563	-10.110713	-0.132057	-0.237378	-0.987464	0.027170	-0.000321	0.018240
756	3.811072	0.005000	-0.503929	-0.051622	-9.973151	-0.132288	-0.236917	-0.987722	0.028563	-0.008869	0.002836
757	3.816072	0.005000	-0.459292	-0.218058	-9.921926	-0.132518	-0.236456	-0.987979	0.047731	-0.001601	0.011269
758	3.821072	0.005000	-0.572650	-0.313920	-9.972277	-0.132749	-0.235994	-0.988237	0.040527	-0.004530	0.004194
759	3.826072	0.005000	-0.485792	-0.308949	-9.922749	-0.132979	-0.235533	-0.988494	0.054387	0.000695	0.018121
760	3.831072	0.005000	-0.431640	-0.274680	-9.858383	-0.133210	-0.235072	-0.988752	0.047037	-0.005197	0.014080
761	3.836072	0.005000	-0.466771	-0.196200	-9.896698	-0.133441	-0.234611	-0.989009	0.039540	0.002848	0.000695
762	3.841072	0.005000	-0.435402	-0.235440	-9.888480	-0.133671	-0.234150	-0.989267	0.028999	-0.002984	0.014368
763	3.846072	0.005000	-0.356509	-0.202899	-9.898528	-0.133902	-0.233689	-0.989524	0.034071	-0.005635	0.008698
764	3.851072	0.005000	-0.428703	-0.274680	-10.009137	-0.134132	-0.233227	-0.989781	0.039291	-0.006576	0.010852
765	3.856072	0.005000	-0.431640	-0.311380	-10.087220	-0.134345	-0.232836	-0.989942	0.040304	-0.004311	0.009063
766	3.861072	0.005000	-0.426467	-0.311333	-10.076920	-0.134461	-0.232836	-0.989555	0.060871	0.003224	0.001704
767	3.866072	0.005000	-0.470880	-0.350981	-10.119562	-0.134576	-0.232836	-0.989169	0.064303	0.003966	0.005711
768	3.871072	0.005000	-0.394172	-0.392400	-10.043668	-0.134692	-0.232836	-0.988782	0.063354	0.011046	0.003239
769	3.876072	0.005000	-0.431640	-0.277439	-9.930479	-0.134807	-0.232836	-0.988396	0.053982	-0.003544	0.021178
770	3.881072	0.005000	-0.393372	-0.274680	-9.886535	-0.134922	-0.232836	-0.988009	0.065080	-0.005469	0.008278
771	3.886072	0.005000	-0.353725	-0.235440	-9.965831	-0.135038	-0.232836	-0.987623	0.052747	-0.001278	-0.000413
772	3.891072	0.005000	-0.392400	-0.313745	-9.889004	-0.135153	-0.232836	-0.987237	0.059839	-0.011590	0.008744
773	3.896072	0.005000	-0.392165	-0.275150	-9.927720	-0.135269	-0.232836	-0.986850	0.046894	-0.000874	0.003139
774	3.901072	0.005000	-0.354446	-0.352517	-10.006200	-0.135384	-0.232836	-0.986464	0.073215	-0.007508	0.008192
775	3.906072	0.005000	-0.430605	-0.313920	-10.008270	-0.135499	-0.232836	-0.986077	0.061192	-0.007759	-0.005543
776	3.911072	0.005000	-0.470880	-0.351718	-9.964075	-0.135615	-0.232836	-0.985691	0.049755	-0.007976	0.001276
777	3.916072	0.005000	-0.437145	-0.272845	-9.892150	-0.135730	-0.232836	-0.985305	0.039968	-0.010861	-0.002500
778	3.921072	0.005000	-0.468637	-0.235440	-10.010685	-0.135650	-0.232860	-0.985027	0.032376	-0.004854	-0.000329
779	3.926072	0.005000	-0.403353	-0.237631	-10.038868	-0.134844	-0.232976	-0.985156	0.023324	-0.004282	0.007530
780	3.931072	0.005000	-0.625237	-0.248457	-9.958960	-0.134038	-0.233091	-0.985285	0.019917	-0.006382	-0.004632
781	3.936072	0.005000	-0.202203	-0.365165	-9.813001	-0.133231	-0.233206	-0.985413	0.024361	0.002885	0.002380
782	3.941072	0.005000	-0.359986	-0.368510	-9.830477	-0.132425	-0.233321	-0.985542	-0.038981	-0.004837	-0.001816
783	3.946072	0.005000	-0.423989	-0.131165	-10.211035	-0.131619	-0.233436	-0.985670	-0.038936	-0.007273	0.009214
784	3.951072	0.005000	-0.388228	-0.913342	-9.842590	-0.130812	-0.233551	-0.985799	-0.026764	-0.018247	0.014861
785	3.956072	0.005000	-0.470880	-0.816857	-9.731520	-0.130006	-0.233666	-0.985928	-0.163556	-0.007436	0.029609
786	3.961072	0.005000	-0.583615	-0.734304	-9.893465	-0.129200	-0.233782	-0.986056	-0.321205	-0.013048	0.030707
787	3.966072	0.005000	-0.437019	0.073101	-10.050819	-0.128393	-0.233897	-0.986185	-0.349529	-0.014298	0.010221
788	3.971072	0.005000	-0.364730	0.319705	-10.163160	-0.127587	-0.234012	-0.986314	-0.229278	-0.020586	0.014534
789	3.976072	0.005000	-0.293257	0.175537	-10.057825	-0.126781	-0.234127	-0.986442	-0.084259	-0.017684	0.014062
790	3.981072	0.005000	-0.405574	0.398705	-10.012787	-0.125975	-0.234242	-0.986571	0.027092	0.001148	0.001855
791	3.986072	0.005000	-0.542368	-0.060216	-9.971240	-0.125490	-0.234328	-0.986765	0.128169	-0.003210	0.001673
792	3.991072	0.005000	-0.424253	-0.439027	-9.841853	-0.125951	-0.234328	-0.987151	0.129097	0.002723	0.002256
793	3.996072	0.005000	-0.463085	-0.502325	-9.754904	-0.126412	-0.234328	-0.987538	0.091633	-0.005696	0.007176
794	4.001072	0.005000	-0.344961	-0.493722	-9.927720	-0.126874	-0.234328	-0.987924	0.022681	-0.001477	0.004894
795	4.006072	0.005000	-0.409589	-0.344565	-9.984149	-0.127335	-0.234328	-0.988310	-0.046394	-0.000366	-0.005470
796	4.011072	0.005000	-0.440642	-0.253445	-10.063445	-0.127796	-0.234328	-0.988696	-0.040059	-0.011382	0.002740
797	4.016072	0.005000	-0.392400	-0.235440	-9.966960	-0.128257	-0.234328	-0.989082	-0.043995	-0.009190	0.001436
798	4.021072	0.005000	-0.510120	-0.186398	-9.957158	-0.128718	-0.234328	-0.989469	-0.024297	-0.000749	0.008982
799	4.026072	0.005000	-0.411228	-0.245646	-9.997578	-0.129179	-0.234328	-0.989855	-0.012157	-0.002832	0.000410
800	4.031072	0.005000	-0.442242	-0.356328	-10.045440	-0.129641	-0.234328	-0.990241	-0.022856	0.006157	0.005404
801	4.036072	0.005000	-0.510120	-0.224430	-10.017210	-0.130102	-0.234328	-0.990627	-0.023683	0.005370	0.009487
802	4.041072	0.005000	-0.600013	-0.219026	-10.207401	-0.130563	-0.234328	-0.991014	-0.012249	0.000397	0.009155
803	4.046072	0.005000	-0.435451	-0.109721	-9.915910	-0.131024	-0.234328	-0.991400	0.010268	0.004532	0.012490
804	4.051072	0.005000	-0.326137	0.335767	-10.165026	-0.131307	-0.234115	-0.991866	0.036280	0.005239	0.009587
805	4.056072	0.005000	-0.431640	0.459639	-10.545699	-0.131192	-0.233422	-0.992510	0.092953	0.014878	0.025461
806	4.061072	0.005000	-0.484085	-0.039052	-9.862634	-0.131077	-0.232730	-0.993154	0.175041	0.039585	0.038641
807	4.066072	0.005000	-0.445060	-0.117720	-9.968998	-0.130962	-0.232038	-0.993798	0.134452	0.021006	0.061522
808	4.071072	0.005000	-0.604669	-0.106135	-10.324604	-0.130846	-0.231346	-0.994442	0.150652	0.020086	0.084264
809	4.076072	0.005000	-0.745560	-0.370820	-10.398600	-0.130731	-0.230654	-0.995086	0.127632	0.042910	0.097529
810	4.081072	0.005000	-0.667080	-0.691693	-10.070053	-0.130616	-0.229962	-0.995730	0.082914	0.045093	0.110353
811	4.086072	0.005000	-0.579409	-0.139457	-9.918529	-0.130500	-0.229270	-0.996374	0.057807	0.036005	0.101745
812	4.091072	0.005000	-0.674138	1.085075	-10.332918	-0.130385	-0.228578	-0.997018	0.152061	0.039007	0.080898
813	4.096072	0.005000	-0.824040	1.962000	-11.208186	-0.130270	-0.227886	-0.997662	0.485646	0.058979	0.065797
814	4.101072	0.005000	-0.879512	1.665724	-11.725985	-0.130154	-0.227194	-0.998306	0.989911	0.090022	0.069447
815	4.106072	0.005000	-0.891840	1.089279	-11.963479	-0.130039	-0.226502	-0.998950	1.534946	0.125440	0.082043
816	4.111072	0.005000	-0.762601	0.673806	-11.524677	-0.129924	-0.225810	-0.999594	2.040205	0.164742	0.063836
817	4.116072	0.005000	-0.797880	0.810960	-11.227000	-0.130489	-0.224012	-1.002707	2.382239	0.185494	0.058911
818	4.121072	0.005000	-0.518311	-0.029335	-11.265975	-0.132217	-0.220325	-1.010041	2.593144	0.195019	0.054018
819	4.126072	0.005000	-0.488865	-0.954840	-11.659185	-0.133946	-0.216637	-1.017376	2.801831	0.209139	0.047416
820	4.131072	0.005000	-0.706320	-0.475769	-12.738333	-0.135675	-0.212949	-1.024711	3.015468	0.226962	0.042321
821	4.136072	0.005000	-0.745560	-0.387447	-14.051857	-0.137403	-0.209262	-1.032046	3.217848	0.252079	0.022078
822	4.141072	0.005000	-0.843009	-0.415273	-15.527329	-0.139132	-0.205574	-1.039381	3.519560	0.287814	0.023484
823	4.146072	0.005000	-1.137474	0.019377	-16.421211	-0.140860	-0.201887	-1.046716	4.081547	0.354918	0.005053
824	4.151072	0.005000	-1.551078	-0.138124	-16.657223	-0.142589	-0.198199	-1.054051	4.910291	0.425172	-0.003938
825	4.156072	0.005000	-1.865570	-0.254503	-16.624262	-0.144317	-0.194512	-1.061386	5.787298	0.484724	-0.019566
826	4.161072	0.005000	-2.208920	0.326843	-16.721980	-0.146046	-0.190824	-1.068721	6.814366	0.559399	-0.048351
827	4.166072	0.005000	-1.972069	-1.426285	-15.082840	-0.147774	-0.187136	-1.076055	7.928316	0.629740	-0.059580
828	4.171072	0.005000	-1.494867	-2.207803	-14.108983	-0.149503	-0.183449	-1.083390	9.007171	0.687722	-0.089818
829	4.176072	0.005000	-1.130150	-3.325542	-13.328028	-0.151232	-0.179761	-1.090725	9.870562	0.718515	-0.114301
830	4.181072	0.005000	-0.919568	-3.859337	-11.652367	-0.152864	-0.177660	-1.109771	9.988868	0.732043	-0.137500
831	4.186072	0.005000	-0.407873	-4.924001	-10.328476	-0.154363	-0.177775	-1.145176	9.988868	0.752688	-0.157529
832	4.191072	0.005000	-0.062035	-5.941685	-9.336517	-0.155862	-0.177891	-1.180581	9.988868	0.745905	-0.194615
833	4.196072	0.005000	0.148055	-5.311686	-8.793284	-0.157361	-0.178006	-1.215986	9.988868	0.768619	-0.236066
834	4.201072	0.005000	0.415721	-5.556161	-7.781377	-0.158860	-0.178121	-1.251391	9.988868	0.809867	-0.255419
835	4.206072	0.005000	0.407042	-6.452636	-6.095087	-0.160358	-0.178236	-1.286796	9.988868	0.860304	-0.304492
836	4.211072	0.005000	0.205202	-7.497036	-3.396911	-0.161857	-0.178352	-1.322202	9.988868	0.937710	-0.333755
837	4.216072	0.005000	0.348267	-10.040672	1.226572	-0.163356	-0.178467	-1.357607	9.988868	1.004742	-0.374829
838	4.221072	0.005000	0.100193	-13.971682	6.237702	-0.164855	-0.178582	-1.393012	9.988868	1.048551	-0.406195
839	4.226072	0.005000	-0.807635	-21.220700	4.564967	-0.166354	-0.178697	-1.428417	9.988868	0.987138	-0.408691
840	4.231072	0.005000	0.211517	-13.315372	-5.751866	-0.167853	-0.178813	-1.463822	9.988868	0.851944	-0.375148
841	4.236072	0.005000	1.791552	-22.794582	-1.977558	-0.169351	-0.178928	-1.499227	9.988868	0.651173	-0.320639
842	4.241072	0.005000	2.563304	-23.272990	2.436268	-0.170850	-0.179043	-1.534632	9.958483	0.445869	-0.299701
843	4.246072	0.005000	1.838708	-20.453564	1.661858	-0.171315	-0.180084	-1.556736	7.534290	0.297003	-0.254059
844	4.251072	0.005000	1.140722	-19.112642	-0.592362	-0.170623	-0.182160	-1.563949	4.833751	0.181312	-0.197731
845	4.256072	0.005000	0.953395	-18.332382	-0.668683	-0.169931	-0.184236	-1.571162	3.469545	0.078814	-0.180458
846	4.261072	0.005000	1.507692	-17.014159	0.874138	-0.169239	-0.186312	-1.578375	2.505446	0.042704	-0.164952
847	4.266072	0.005000	2.489239	-14.825367	0.706320	-0.168547	-0.188389	-1.585588	2.149066	0.047675	-0.198349
848	4.271072	0.005000	1.945109	-11.816698	0.884829	-0.167855	-0.190465	-1.592801	2.623758	0.076268	-0.250081
849	4.276072	0.005000	1.367487	-9.171103	0.949900	-0.167163	-0.192541	-1.600014	3.276941	0.113442	-0.256316
850	4.281072	0.005000	0.776115	-7.272585	0.766144	-0.166471	-0.194617	-1.607227	3.751350	0.127207	-0.248374
851	4.286072	0.005000	0.115775	-5.922323	0.353160	-0.165779	-0.196694	-1.614441	3.992436	0.131216	-0.204081
852	4.291072	0.005000	-0.039240	-5.572080	0.600363	-0.165087	-0.198770	-1.621654	3.978754	0.124488	-0.150458
853	4.296072	0.005000	-0.034662	-5.611320	0.880807	-0.164395	-0.200846	-1.628867	3.804944	0.112457	-0.089452
854	4.301072	0.005000	-0.064622	-5.891397	0.748624	-0.163703	-0.202922	-1.636080	3.638432	0.099575	-0.042672
855	4.306072	0.005000	0.000000	-6.410089	1.090656	-0.163011	-0.204999	-1.643293	3.529730	0.093415	0.021011
856	4.311072	0.005000	0.477091	-7.030171	1.028270	-0.162626	-0.207504	-1.649202	3.475679	0.079775	0.048946
857	4.316072	0.005000	1.013671	-7.447965	1.092151	-0.162510	-0.210386	-1.653966	3.460848	0.081853	0.065060
858	4.321072	0.005000	1.266000	-7.113811	0.906660	-0.162395	-0.213269	-1.658729	3.422611	0.077061	0.078470
859	4.326072	0.005000	1.516689	-5.962959	0.133162	-0.162280	-0.216151	-1.663493	3.430061	0.093474	0.086225
860	4.331072	0.005000	1.602332	-4.603716	-0.255155	-0.162164	-0.219034	-1.668256	3.458958	0.103695	0.103322
861	4.336072	0.005000	1.449213	-3.532362	-0.675842	-0.162049	-0.221916	-1.673020	3.446155	0.108231	0.129726
862	4.341072	0.005000	0.785451	-2.332907	-0.589902	-0.161934	-0.224799	-1.677783	3.339750	0.113589	0.171443
863	4.346072	0.005000	0.090598	-1.201437	-0.694907	-0.161818	-0.227681	-1.682547	3.166662	0.113595	0.225261
864	4.351072	0.005000	-0.462430	-0.377507	0.075329	-0.161703	-0.230563	-1.687311	2.964263	0.121051	0.276959
865	4.356072	0.005000	-0.907507	0.382614	0.436533	-0.161588	-0.233446	-1.692074	2.779650	0.112530	0.330191
866	4.361072	0.005000	-1.237683	0.854281	0.759058	-0.161472	-0.236328	-1.696838	2.630253	0.102340	0.399834
867	4.366072	0.005000	-1.259773	0.648307	1.057786	-0.161357	-0.239211	-1.701601	2.545129	0.085760	0.457566
868	4.371072	0.005000	-0.924634	-0.088235	1.454264	-0.161242	-0.242093	-1.706365	2.482834	0.084220	0.518090
869	4.376072	0.005000	-0.115148	-1.022812	2.268491	-0.160585	-0.248428	-1.712717	2.465198	0.068475	0.551722
870	4.381072	0.005000	0.229598	-1.358796	2.466278	-0.159547	-0.257194	-1.720187	2.511498	0.037176	0.588816
871	4.386072	0.005000	0.096265	-0.473138	2.145638	-0.158509	-0.265961	-1.727658	2.721473	0.036908	0.616949
872	4.391072	0.005000	-0.447872	-0.364280	2.931880	-0.157470	-0.274727	-1.735129	3.240929	0.061113	0.662634
873	4.396072	0.005000	-0.706320	-0.514447	3.156805	-0.156432	-0.283493	-1.742599	4.016922	0.077996	0.710013
874	4.401072	0.005000	-0.592113	-0.346134	3.138039	-0.155394	-0.292259	-1.750070	5.171861	0.131042	0.721059
875	4.406072	0.005000	-0.791544	-2.205658	5.845537	-0.154356	-0.301026	-1.757541	6.597813	0.194547	0.711411
876	4.411072	0.005000	-0.513025	-4.396356	6.062834	-0.153318	-0.309792	-1.765011	7.842962	0.220260	0.680589
877	4.416072	0.005000	-0.276347	-6.112551	5.418453	-0.152280	-0.318558	-1.772482	8.916729	0.266356	0.627438
878	4.421072	0.005000	0.508215	-7.492776	5.061801	-0.151242	-0.327324	-1.779952	9.738234	0.315509	0.555764
879	4.426072	0.005000	1.100978	-8.477346	5.059451	-0.150204	-0.336091	-1.787423	9.986908	0.354174	0.454773
880	4.431072	0.005000	1.929344	-8.711280	5.141757	-0.149165	-0.344857	-1.794894	9.988868	0.357229	0.366927
881	4.436072	0.005000	2.478425	-8.652075	5.411968	-0.148127	-0.353623	-1.802364	9.883288	0.343155	0.283142
882	4.441072	0.005000	2.704606	-7.716496	4.971665	-0.147612	-0.360296	-1.805583	9.232220	0.304572	0.213070
883	4.446072	0.005000	2.305382	-6.497077	3.783930	-0.147381	-0.365828	-1.806484	8.280320	0.261190	0.173317
884	4.451072	0.005000	1.708464	-5.350545	2.559077	-0.147151	-0.371359	-1.807385	7.240596	0.208243	0.140199
885	4.456072	0.005000	1.052940	-4.462460	1.353780	-0.146920	-0.376891	-1.808285	6.249817	0.177295	0.127687
886	4.461072	0.005000	0.698557	-4.002480	0.719259	-0.146690	-0.382422	-1.809186	5.296673	0.137854	0.129778
887	4.466072	0.005000	0.350166	-3.915017	1.306897	-0.146459	-0.387954	-1.810087	4.331305	0.101786	0.163280
888	4.471072	0.005000	0.179262	-3.864434	1.648080	-0.146229	-0.393485	-1.810988	3.368726	0.071500	0.181213
889	4.476072	0.005000	-0.125308	-3.342988	1.616428	-0.145999	-0.399017	-1.811889	2.428397	0.037302	0.222669
890	4.481072	0.005000	-0.312493	-3.206502	1.562624	-0.145768	-0.404548	-1.812790	1.614177	-0.003791	0.232799
891	4.486072	0.005000	-1.038621	-2.190727	1.825538	-0.145538	-0.410080	-1.813690	1.030377	-0.018267	0.259009
892	4.491072	0.005000	-1.169962	-1.377972	1.730370	-0.145307	-0.415611	-1.814591	0.684195	-0.035436	0.288137
893	4.496072	0.005000	-1.688590	-1.745863	5.032689	-0.145077	-0.421143	-1.815492	0.792190	-0.017578	0.311842
894	4.501072	0.005000	-2.258268	-2.735561	5.833490	-0.144846	-0.426674	-1.816393	0.958622	-0.071299	0.355380
895	4.506072	0.005000	-2.405228	-4.156281	5.449884	-0.144295	-0.431165	-1.816936	1.209396	-0.086343	0.349321
896	4.511072	0.005000	-2.526081	-4.968759	5.482548	-0.143603	-0.435200	-1.817322	1.633841	-0.068813	0.355997
897	4.516072	0.005000	-2.347876	-5.323497	5.742089	-0.142911	-0.439235	-1.817708	2.111415	-0.053356	0.337954
898	4.521072	0.005000	-2.031195	-5.482088	6.199920	-0.142220	-0.443271	-1.818094	2.625734	-0.021800	0.326004
899	4.526072	0.005000	-1.260791	-5.755832	6.212038	-0.141528	-0.447306	-1.818481	3.115797	0.013823	0.305625
900	4.531072	0.005000	-0.644464	-6.301596	6.411004	-0.140836	-0.451341	-1.818867	3.566196	0.043570	0.260802
901	4.536072	0.005000	-0.093301	-6.371701	6.804799	-0.140144	-0.455377	-1.819253	3.971254	0.072740	0.216633
902	4.541072	0.005000	0.264553	-6.005303	6.993264	-0.139453	-0.459412	-1.819639	4.161137	0.077699	0.151838
903	4.546072	0.005000	0.733139	-5.015286	7.129259	-0.138761	-0.463447	-1.820026	4.050046	0.076418	0.094826
904	4.551072	0.005000	0.766113	-3.658648	7.489243	-0.138069	-0.467482	-1.820412	3.684931	0.078056	0.052079
905	4.556072	0.005000	0.647578	-2.139638	8.553615	-0.137377	-0.471518	-1.820798	3.143408	0.059609	0.005159
906	4.561072	0.005000	0.460733	-0.968155	9.410150	-0.136686	-0.475553	-1.821184	2.486612	0.004990	0.002535
907	4.566072	0.005000	0.289856	-0.478468	9.930683	-0.135994	-0.479588	-1.821570	1.788074	-0.042738	-0.018434
908	4.571072	0.005000	-0.233589	-0.732762	9.700529	-0.135648	-0.481202	-1.821570	1.116596	-0.087822	-0.015619
909	4.576072	0.005000	-0.844708	-1.221266	8.702994	-0.135417	-0.482009	-1.821442	0.587110	-0.105160	-0.024343
910	4.581072	0.005000	-1.538186	-1.548186	8.072027	-0.135187	-0.482816	-1.821313	0.315596	-0.098992	-0.032206
911	4.586072	0.005000	-2.170026	-2.327526	8.217288	-0.134956	-0.483624	-1.821184	0.282343	-0.085270	-0.044842
912	4.591072	0.005000	-2.209516	-3.039610	9.127864	-0.134726	-0.484431	-1.821055	0.306386	-0.053628	-0.072829
913	4.596072	0.005000	-2.029784	-3.242648	10.362904	-0.134495	-0.485238	-1.820927	0.247555	-0.048088	-0.098336
914	4.601072	0.005000	-1.817927	-3.244033	11.429986	-0.134265	-0.486045	-1.820798	0.144721	-0.052775	-0.101350
915	4.606072	0.005000	-1.660141	-3.231576	12.073248	-0.134034	-0.486852	-1.820669	0.025782	-0.053020	-0.081099
916	4.611072	0.005000	-1.241988	-3.972415	12.123325	-0.133803	-0.487659	-1.820540	-0.042259	-0.085071	-0.051553
917	4.616072	0.005000	-0.992683	-4.964304	11.606659	-0.133573	-0.488466	-1.820411	-0.111627	-0.114965	-0.024021
918	4.621072	0.005000	-1.059480	-5.443502	10.609848	-0.133342	-0.489273	-1.820283	-0.308825	-0.142267	-0.010652
919	4.626072	0.005000	-0.951824	-4.809440	9.908608	-0.133112	-0.490080	-1.820154	-0.653479	-0.138596	-0.006164
920	4.631072	0.005000	-0.709796	-2.906141	10.017724	-0.132881	-0.490887	-1.820025	-0.910478	-0.111676	0.001174
921	4.636072	0.005000	-0.455657	-0.960024	10.668545	-0.132372	-0.492806	-1.819172	-0.908695	-0.085975	0.015955
922	4.641072	0.005000	-0.313920	0.485748	11.559426	-0.131796	-0.494996	-1.818142	-0.603731	-0.064709	0.038328
923	4.646072	0.005000	-0.297892	0.911365	12.041159	-0.131220	-0.497185	-1.817113	-0.069959	-0.038854	0.053707
924	4.651072	0.005000	-0.313920	0.514835	11.894435	-0.130644	-0.499375	-1.816084	0.585591	0.003384	0.059799
925	4.656072	0.005000	-0.280807	0.175342	11.145985	-0.130068	-0.501564	-1.815054	1.301116	0.034505	0.056406
926	4.661072	0.005000	-0.162294	-0.314872	11.082633	-0.129491	-0.503754	-1.814025	1.931589	0.074846	0.024119
927	4.666072	0.005000	-0.152452	-0.927569	11.422681	-0.128915	-0.505943	-1.812995	2.468640	0.095857	0.015202
928	4.671072	0.005000	-0.274680	-2.217131	12.143784	-0.128339	-0.508133	-1.811966	2.860367	0.096759	-0.004134
929	4.676072	0.005000	-0.235440	-3.508326	12.818180	-0.127763	-0.510323	-1.810936	3.002137	0.097824	-0.033167
930	4.681072	0.005000	-0.293038	-4.421500	13.564420	-0.127186	-0.512512	-1.809907	2.914296	0.063853	-0.064245
931	4.686072	0.005000	-0.390691	-5.328096	14.024028	-0.126610	-0.514702	-1.808877	2.685965	0.023743	-0.098806
932	4.691072	0.005000	-0.626443	-5.843966	14.085763	-0.126034	-0.516891	-1.807848	2.361144	-0.004916	-0.114924
933	4.696072	0.005000	-0.627840	-5.672291	13.991171	-0.125458	-0.519081	-1.806819	2.001515	-0.056770	-0.133091
934	4.701072	0.005000	-0.627618	-4.922953	13.203482	-0.124980	-0.521074	-1.804911	1.640988	-0.074332	-0.148523
935	4.706072	0.005000	-0.351065	-3.697179	12.829385	-0.124519	-0.523033	-1.802852	1.371672	-0.089835	-0.142672
936	4.711072	0.005000	-0.076639	-2.401291	12.592357	-0.124058	-0.524992	-1.800793	1.246972	-0.087514	-0.138503
937	4.716072	0.005000	7.731804	-12.637947	4.353735	-0.123597	-0.526951	-1.798734	1.248879	-0.095851	-0.121224
938	4.721072	0.005000	18.124449	12.834291	36.083141	-0.123136	-0.528910	-1.796675	-2.445578	0.380573	0.144010
939	4.726072	0.005000	3.771651	6.884079	-1.158286	-0.122675	-0.530869	-1.794616	0.416629	0.188860	0.564908
940	4.731072	0.005000	-4.840159	-8.885516	14.176755	-0.122214	-0.532828	-1.792557	2.549839	0.643385	0.706431
941	4.736072	0.005000	-13.302360	-12.391089	0.417525	-0.121753	-0.534787	-1.790498	3.578833	0.372867	0.473962
942	4.741072	0.005000	-9.521268	-8.809239	14.294652	-0.121292	-0.536746	-1.788439	2.311183	0.464482	0.223358
943	4.746072	0.005000	-3.458779	-1.331526	19.747769	-0.120831	-0.538705	-1.786380	0.640439	0.270900	0.122878
944	4.751072	0.005000	-2.063472	0.141229	15.670577	-0.120370	-0.540664	-1.784321	-0.065783	0.191683	0.159427
945	4.756072	0.005000	-1.944761	-0.538979	15.095304	-0.119909	-0.542623	-1.782262	0.001219	0.162624	0.206305
946	4.761072	0.005000	-0.338063	-10.047619	25.150332	-0.119449	-0.544582	-1.780203	0.341419	0.174047	0.205826
947	4.766072	0.005000	1.114308	-7.251622	16.525151	-0.119507	-0.544672	-1.780464	-0.516120	-0.034141	0.154321
948	4.771072	0.005000	1.837677	-3.892840	12.924278	-0.119622	-0.544557	-1.780979	-0.089657	-0.002693	0.108123
949	4.776072	0.005000	2.085943	-5.681371	13.186085	-0.119738	-0.544442	-1.781494	0.578955	-0.022812	0.074929
950	4.781072	0.005000	2.768992	-0.456213	9.903957	-0.119853	-0.544326	-1.782009	0.468440	-0.012516	0.038861
951	4.786072	0.005000	1.765800	-0.784800	11.706600	-0.119968	-0.544211	-1.782524	0.686724	0.019903	0.045629
952	4.791072	0.005000	1.267109	-0.560503	10.544131	-0.120084	-0.544096	-1.783039	0.612275	0.000822	0.060617
953	4.796072	0.005000	0.635177	-2.673243	10.734625	-0.120199	-0.543981	-1.783554	0.594045	-0.001278	0.048473
954	4.801072	0.005000	0.569409	-1.167914	9.754140	-0.120314	-0.543865	-1.784069	0.356304	-0.010116	0.040522
955	4.806072	0.005000	0.135705	-1.924395	9.409425	-0.120430	-0.543750	-1.784584	0.401286	-0.012324	0.010621
956	4.811072	0.005000	-0.371447	-2.664510	10.048107	-0.120545	-0.543635	-1.785099	0.334906	0.005644	0.015607
957	4.816072	0.005000	-0.695685	-2.371639	11.127651	-0.120660	-0.543520	-1.785614	0.143405	-0.004854	0.006231
958	4.821072	0.005000	-1.136309	-2.258776	9.632277	-0.120776	-0.543404	-1.786129	0.080156	-0.003133	-0.015279
959	4.826072	0.005000	-1.030129	-1.412767	9.780649	-0.120891	-0.543289	-1.786644	-0.024885	-0.009762	-0.015414
960	4.831072	0.005000	-0.824040	-1.216221	8.220396	-0.121006	-0.543064	-1.786790	0.019713	-0.007204	-0.035199
961	4.836072	0.005000	-0.469140	-0.260085	8.012595	-0.121121	-0.542833	-1.786919	-0.003248	0.023063	-0.026616
962	4.841072	0.005000	0.252284	-2.347687	12.479481	-0.121236	-0.542603	-1.787047	0.056696	0.051043	-0.010438
963	4.846072	0.005000	0.479455	-1.458888	11.144160	-0.121352	-0.542372	-1.787176	-0.193349	-0.003203	-0.021919
964	4.851072	0.005000	0.268521	-1.996843	9.973119	-0.121467	-0.542142	-1.787304	-0.103920	-0.001591	-0.020870
965	4.856072	0.005000	0.188342	-1.664033	10.226115	-0.121582	-0.541911	-1.787433	-0.188706	0.013609	-0.024947
966	4.861072	0.005000	0.147563	-2.113722	9.946515	-0.121697	-0.541681	-1.787562	-0.104181	0.000291	-0.010457
967	4.866072	0.005000	0.043240	-1.656271	10.455936	-0.121812	-0.541450	-1.787690	-0.063096	0.003307	-0.025174
968	4.871072	0.005000	0.196200	-1.913772	10.064179	-0.121928	-0.541220	-1.787819	-0.014194	-0.002346	-0.013691
969	4.876072	0.005000	0.150326	-1.630436	9.993496	-0.122043	-0.540989	-1.787948	0.147433	-0.001554	-0.015234
970	4.881072	0.005000	0.202440	-2.091368	9.807366	-0.122158	-0.540759	-1.788076	0.207533	0.008242	-0.020874
971	4.886072	0.005000	-0.065212	-2.377737	9.789862	-0.122273	-0.540529	-1.788205	0.424239	0.016124	-0.026383
972	4.891072	0.005000	-0.055519	-1.669786	10.058802	-0.122387	-0.540304	-1.788330	0.474650	0.016054	-0.034514
973	4.896072	0.005000	-0.073448	-1.898617	10.070602	-0.122156	-0.541457	-1.787687	0.518316	0.021456	-0.014228
974	4.901072	0.005000	-0.152333	-1.865014	10.061547	-0.121926	-0.542609	-1.787043	0.557911	0.018223	-0.024487
975	4.906072	0.005000	-0.292756	-1.962000	10.272414	-0.121695	-0.543762	-1.786399	0.622890	0.033817	-0.024216
976	4.911072	0.005000	-0.427815	-1.816516	9.931545	-0.121465	-0.544915	-1.785756	0.711910	0.024231	-0.016442
977	4.916072	0.005000	-0.757116	-1.805040	9.845780	-0.121234	-0.546068	-1.785112	0.786119	0.025931	-0.025465
978	4.921072	0.005000	-0.902520	-1.581855	9.767696	-0.121004	-0.547221	-1.784468	0.843200	0.022882	-0.023821
979	4.926072	0.005000	-1.237056	-1.071896	9.963856	-0.120773	-0.548374	-1.783825	0.862071	0.044534	-0.028613
980	4.931072	0.005000	-1.443791	-0.944456	9.893873	-0.120542	-0.549527	-1.783181	0.816555	0.064828	-0.007805
981	4.936072	0.005000	-1.521201	-1.137960	10.119340	-0.120312	-0.550680	-1.782537	0.744227	0.052046	0.010079
982	4.941072	0.005000	-1.494914	-1.293023	10.120126	-0.120081	-0.551833	-1.781893	0.606403	0.051358	0.022104
983	4.946072	0.005000	-1.110784	-1.101736	10.350312	-0.119851	-0.552986	-1.781250	0.467410	0.047877	0.049941
984	4.951072	0.005000	-0.633316	-1.021335	10.242735	-0.119620	-0.554138	-1.780606	0.335547	0.045755	0.051283
985	4.956072	0.005000	-0.314618	-0.787594	10.241640	-0.119410	-0.555244	-1.779985	0.200145	0.041364	0.062614
986	4.961072	0.005000	-0.039811	-0.432783	10.398600	-0.119525	-0.555590	-1.779728	0.114872	0.035561	0.061892
987	4.966072	0.005000	0.156239	-0.432001	10.594079	-0.119640	-0.555936	-1.779470	0.125337	0.026076	0.066202
988	4.971072	0.005000	0.235487	-0.471068	10.673280	-0.119756	-0.556281	-1.779213	0.176903	0.023758	0.068504
989	4.976072	0.005000	0.392306	-0.627840	10.398820	-0.119871	-0.556627	-1.778956	0.314852	0.006565	0.041320
990	4.981072	0.005000	0.353521	-0.824761	10.005118	-0.119986	-0.556973	-1.778698	0.489020	0.008264	0.022547
991	4.986072	0.005000	0.195432	-0.870196	9.726909	-0.120101	-0.557318	-1.778441	0.683678	0.023338	0.005914
992	4.991072	0.005000	0.076128	-1.501702	9.534144	-0.120217	-0.557664	-1.778184	0.806164	0.015571	-0.009370
993	4.996072	0.005000	0.000000	-1.966705	9.419168	-0.120332	-0.558010	-1.777926	0.835068	0.005507	-0.014809
994	5.001072	0.005000	-0.081497	-2.040480	9.500606	-0.120447	-0.558355	-1.777669	0.689718	0.001727	-0.045101
995	5.006072	0.005000	-0.164643	-1.995478	9.855002	-0.120562	-0.558701	-1.777412	0.466133	-0.013134	-0.054999
996	5.011072	0.005000	-0.443307	-1.837280	10.043107	-0.120678	-0.559047	-1.777154	0.185206	-0.014510	-0.066133
997	5.016072	0.005000	-0.871471	-1.522169	9.947848	-0.120793	-0.559392	-1.776897	-0.050945	-0.034424	-0.066328
998	5.021072	0.005000	-1.059480	-1.282348	9.704852	-0.120884	-0.559726	-1.776639	-0.146072	-0.037857	-0.066999
999	5.026072	0.005000	-1.045257	-0.898964	9.867019	-0.120768	-0.559956	-1.776382	-0.114624	-0.031366	-0.078980
1000	5.031072	0.005000	-0.981000	-0.824040	10.339646	-0.120653	-0.560187	-1.776124	0.042302	-0.032682	-0.081609
1001	5.036072	0.005000	-1.059480	-0.815309	10.738712	-0.120538	-0.560418	-1.775867	0.222644	-0.024010	-0.101334
1002	5.041072	0.005000	-1.020240	-0.901504	11.109698	-0.120422	-0.560649	-1.775609	0.385433	-0.016982	-0.081806
1003	5.046072	0.005000	-1.064655	-1.394099	11.162701	-0.120307	-0.560879	-1.775351	0.511986	-0.021862	-0.087583
1004	5.051072	0.005000	-1.104308	-1.625603	10.897545	-0.120191	-0.561110	-1.775094	0.582277	-0.021163	-0.082905
1005	5.056072	0.005000	-1.116673	-1.753831	10.712520	-0.120076	-0.561341	-1.774836	0.597874	-0.017085	-0.068092
1006	5.061072	0.005000	-1.294920	-1.746839	10.582159	-0.119961	-0.561572	-1.774578	0.566332	-0.011808	-0.065874
1007	5.066072	0.005000	-1.124340	-1.561171	10.463460	-0.119845	-0.561803	-1.774321	0.458399	-0.012105	-0.044217
1008	5.071072	0.005000	-0.944967	-1.037860	10.137540	-0.119730	-0.562033	-1.774063	0.348617	-0.025763	-0.049014
1009	5.076072	0.005000	-0.699843	-0.778323	9.599704	-0.119614	-0.562264	-1.773805	0.246944	-0.031291	-0.031203
1010	5.081072	0.005000	-0.517231	-0.336175	9.189271	-0.119499	-0.562495	-1.773548	0.173742	-0.023079	-0.026059
1011	5.086072	0.005000	-0.454022	0.243869	8.952244	-0.119403	-0.562687	-1.773268	0.120782	-0.009741	-0.033006
1012	5.091072	0.005000	-0.287395	0.397368	8.859398	-0.119403	-0.562687	-1.772882	0.137087	-0.019734	-0.006045
1013	5.096072	0.005000	0.096965	0.413155	8.879753	-0.119403	-0.562687	-1.772496	0.178050	-0.015472	-0.018274
1014	5.101072	0.005000	0.216369	0.315018	8.613729	-0.119403	-0.562687	-1.772109	0.230465	-0.009623	0.004554
1015	5.106072	0.005000	0.147021	0.206139	8.593560	-0.119403	-0.562687	-1.771723	0.264418	-0.001904	-0.004931
1016	5.111072	0.005000	0.086714	0.194098	8.692711	-0.119403	-0.562687	-1.771336	0.272610	0.018326	-0.008620
1017	5.116072	0.005000	-0.020795	0.086528	8.690485	-0.119403	-0.562687	-1.770950	0.268299	0.028873	0.014823
1018	5.121072	0.005000	-0.189343	-0.250171	8.911417	-0.119403	-0.562687	-1.770563	0.241170	0.034393	0.025860
1019	5.126072	0.005000	-0.470880	-0.571496	9.405529	-0.119403	-0.562687	-1.770177	0.183678	0.040154	0.033991
1020	5.131072	0.005000	-0.518949	-0.736731	10.039390	-0.119403	-0.562687	-1.769791	0.083004	0.034512	0.035126
1021	5.136072	0.005000	-0.630459	0.164206	10.083457	-0.119403	-0.562687	-1.769404	-0.044454	0.044071	0.039389
1022	5.141072	0.005000	-0.412122	-0.807140	11.337538	-0.119403	-0.562687	-1.769018	0.016810	0.062704	0.061095
1023	5.146072	0.005000	-0.640512	-2.103841	11.819019	-0.119403	-0.562687	-1.768631	0.070142	0.046542	0.048400
1024	5.151072	0.005000	-0.444720	-2.184360	11.562720	-0.119403	-0.562739	-1.768392	-0.010330	0.027900	0.046843
1025	5.156072	0.005000	-0.300438	-1.475223	11.873823	-0.119403	-0.562970	-1.768649	-0.093974	0.010231	0.032866
1026	5.161072	0.005000	-0.247536	-1.320588	11.195496	-0.119403	-0.563200	-1.768906	-0.083309	-0.000729	0.034810
1027	5.166072	0.005000	-0.156960	-1.202947	10.865766	-0.119403	-0.563431	-1.769164	-0.042362	0.001768	0.015527
1028	5.171072	0.005000	-0.223990	-0.883734	10.398600	-0.119403	-0.563661	-1.769421	-0.024958	-0.008992	0.018447
1029	5.176072	0.005000	-0.260378	-0.570631	10.155826	-0.119403	-0.563891	-1.769678	0.021616	-0.014410	0.019458
1030	5.181072	0.005000	-0.122625	-0.362970	9.873765	-0.119403	-0.564122	-1.769935	0.095834	-0.006021	0.007557
1031	5.186072	0.005000	-0.211312	-0.274680	9.779776	-0.119403	-0.564352	-1.770193	0.170779	-0.004974	0.007920
1032	5.191072	0.005000	-0.274680	-0.274680	9.661603	-0.119403	-0.564582	-1.770450	0.276724	0.003016	0.005328
1033	5.196072	0.005000	-0.258743	-0.283252	9.722948	-0.119403	-0.564813	-1.770707	0.353118	0.008712	0.021325
1034	5.201072	0.005000	-0.336826	-0.513311	9.489508	-0.119403	-0.565043	-1.770965	0.406902	0.014942	0.025002
1035	5.206072	0.005000	-0.280426	-0.661334	9.574560	-0.119403	-0.565273	-1.771222	0.435759	0.024834	0.021242
1036	5.211072	0.005000	-0.122641	-0.801960	9.557400	-0.119403	-0.565504	-1.771479	0.447677	0.025665	0.017497
1037	5.216072	0.005000	0.052669	-0.745560	9.888480	-0.119341	-0.565828	-1.771597	0.417090	0.037503	0.013550
1038	5.221072	0.005000	0.232138	-0.881249	9.831271	-0.119110	-0.566404	-1.771340	0.410599	0.028231	0.022641
1039	5.226072	0.005000	0.237933	-0.941760	9.828373	-0.118880	-0.566980	-1.771083	0.337993	0.024226	0.012850
1040	5.231072	0.005000	0.177646	-1.022373	9.867794	-0.118649	-0.567556	-1.770825	0.290781	0.029109	0.013810
1041	5.236072	0.005000	-0.170583	-1.452178	11.530634	-0.118419	-0.568132	-1.770568	0.206221	0.034667	-0.003947
1042	5.241072	0.005000	-0.098900	-1.121273	9.969626	-0.118188	-0.568708	-1.770310	0.126535	0.010836	-0.010850
1043	5.246072	0.005000	-0.354289	-0.981565	9.868719	-0.117958	-0.569284	-1.770053	0.229533	-0.010707	-0.012900
1044	5.251072	0.005000	-0.529199	-0.682914	10.135427	-0.117727	-0.569861	-1.769796	0.175271	0.001405	-0.016699
1045	5.256072	0.005000	-0.495205	-0.551242	9.952045	-0.117497	-0.570437	-1.769538	0.051063	-0.003867	-0.020933
1046	5.261072	0.005000	-0.764069	-0.962491	10.188336	-0.117267	-0.571013	-1.769281	0.032727	-0.003518	-0.016777
1047	5.266072	0.005000	-0.690511	-0.682889	9.982769	-0.117036	-0.571589	-1.769023	-0.006240	0.003175	-0.016493
1048	5.271072	0.005000	-0.824040	-0.784800	10.127259	-0.116806	-0.572165	-1.768766	0.063148	-0.006662	-0.010442
1049	5.276072	0.005000	-0.702180	-0.562769	10.119780	-0.116575	-0.572741	-1.768508	0.066829	-0.002595	-0.013669
1050	5.281072	0.005000	-0.711258	-0.672018	10.045440	-0.116748	-0.573207	-1.767636	0.084267	-0.014041	-0.008835
1051	5.286072	0.005000	-0.762513	-0.605553	10.062393	-0.117786	-0.573438	-1.765448	0.058360	0.001273	-0.017088
1052	5.291072	0.005000	-0.627840	-0.549360	10.028900	-0.118824	-0.573669	-1.763259	0.023283	-0.002513	-0.006494
1053	5.296072	0.005000	-0.722464	-0.606982	10.130873	-0.119861	-0.573899	-1.761070	0.028173	-0.006458	-0.006162
1054	5.301072	0.005000	-0.471055	-0.408131	10.218131	-0.120899	-0.574130	-1.758882	0.011329	-0.000397	-0.003407
1055	5.306072	0.005000	-0.518131	-0.447254	10.147546	-0.121937	-0.574360	-1.756693	0.025540	0.006535	-0.007847
1056	5.311072	0.005000	-0.422243	-0.216645	10.153763	-0.122974	-0.574591	-1.754504	0.011031	0.007826	-0.005777
1057	5.316072	0.005000	-0.441863	-0.181691	10.080394	-0.124012	-0.574821	-1.752316	0.035803	0.001946	-0.003778
1058	5.321072	0.005000	-0.406502	-0.339058	10.037468	-0.125050	-0.575052	-1.750127	0.034227	-0.006864	0.000988
1059	5.326072	0.005000	-0.302078	-0.480865	10.028026	-0.126087	-0.575283	-1.747939	0.055907	-0.006922	0.001926
1060	5.331072	0.005000	-0.327206	-0.614554	10.046059	-0.127125	-0.575513	-1.745750	0.085066	-0.002254	-0.012142
1061	5.336072	0.005000	-0.261790	-0.575710	10.098141	-0.128163	-0.575744	-1.743561	0.097817	0.006335	-0.007567
1062	5.341072	0.005000	-0.392400	-0.745560	10.004390	-0.129200	-0.575974	-1.741373	0.125923	0.004161	-0.001657
1063	5.346072	0.005000	-0.443704	-0.670128	9.994136	-0.130023	-0.576463	-1.740144	0.125546	0.004581	-0.006427
1064	5.351072	0.005000	-0.459213	-0.733893	9.962722	-0.130484	-0.577386	-1.740530	0.144358	0.002879	-0.007486
1065	5.356072	0.005000	-0.581436	-0.667080	9.966960	-0.130946	-0.578309	-1.740917	0.140712	0.006238	-0.004284
1066	5.361072	0.005000	-0.577406	-0.734366	10.045440	-0.131407	-0.579232	-1.741303	0.153886	0.011926	-0.031235
1067	5.366072	0.005000	-0.741639	-0.734770	9.977750	-0.131869	-0.580154	-1.741690	0.146509	0.003877	-0.015057
1068	5.371072	0.005000	-0.813646	-0.638234	10.074286	-0.132330	-0.581077	-1.742076	0.154908	0.005961	-0.018042
1069	5.376072	0.005000	-0.774810	-0.598590	10.074690	-0.132791	-0.582000	-1.742463	0.179396	0.001202	-0.013148
1070	5.381072	0.005000	-0.686478	-0.607998	10.035741	-0.133253	-0.582923	-1.742849	0.197893	0.005443	-0.016516
1071	5.386072	0.005000	-0.528724	-0.542090	10.093982	-0.133714	-0.583846	-1.743235	0.214809	0.020243	-0.015152
1072	5.391072	0.005000	-0.522692	-0.440529	9.984739	-0.134175	-0.584769	-1.743622	0.242167	0.011440	-0.007566
1073	5.396072	0.005000	-0.501640	-0.540880	10.036960	-0.134637	-0.585691	-1.744008	0.262120	0.007900	-0.007700
1074	5.401072	0.005000	-0.377399	-0.431640	10.186240	-0.135098	-0.586614	-1.744395	0.268393	0.012315	-0.009409
1075	5.406072	0.005000	-0.377066	-0.478547	10.249307	-0.135560	-0.587537	-1.744781	0.289525	0.011899	-0.022485
1076	5.411072	0.005000	-0.313920	-0.463226	10.052121	-0.135272	-0.587810	-1.745056	0.302033	0.017909	-0.011874
1077	5.416072	0.005000	-0.281537	-0.302110	10.227925	-0.134004	-0.587234	-1.745184	0.330437	0.006348	-0.001926
1078	5.421072	0.005000	-0.307475	-0.274680	10.235195	-0.132736	-0.586658	-1.745313	0.339008	0.014450	-0.004159
