# FOX Logger (IMU file)
# (c) INRIA 2011-2014
#
# File created from file ../tests/data/HKB0_03.RAW
#
# File format:
# t;dt;ax;ay;az
#
# Units:
#	Time: s
#\Acceleration: m.s^-2
#
0.000977;0.000977;-0.235440;-7.180920;-5.179680
0.005981;0.005005;-0.353160;-7.180920;-5.179680
0.010956;0.004974;-0.353160;-7.180920;-5.415120
0.015961;0.005005;-0.235440;-7.298640;-5.297400
0.020966;0.005005;-0.470880;-7.298640;-5.297400
0.025940;0.004974;-0.824040;-7.416360;-5.179680
0.030945;0.005005;-0.470880;-7.416360;-5.297400
0.035950;0.005005;-0.353160;-7.416360;-4.944240
0.040924;0.004974;-0.235440;-7.534080;-5.297400
0.045929;0.005005;-0.353160;-7.416360;-5.415120
0.050903;0.004974;-0.235440;-7.298640;-5.768280
0.055908;0.005005;-0.235440;-7.416360;-5.415120
0.060913;0.005005;-0.470880;-7.298640;-5.650560
0.065887;0.004974;-0.353160;-7.298640;-5.768280
0.070892;0.005005;-0.117720;-7.298640;-5.415120
0.075897;0.005005;-0.235440;-7.063200;-5.415120
0.080872;0.004974;-0.353160;-7.416360;-5.886000
0.085876;0.005005;-0.117720;-7.416360;-5.650560
0.090851;0.004974;0.000000;-7.416360;-5.768280
0.095856;0.005005;-0.117720;-7.063200;-5.650560
0.100861;0.005005;0.000000;-7.063200;-5.768280
0.105835;0.004974;-0.117720;-7.298640;-6.003720
0.110840;0.005005;0.000000;-7.298640;-5.768280
0.115814;0.004974;-0.117720;-7.298640;-5.415120
0.120819;0.005005;-0.117720;-7.298640;-5.532840
0.125793;0.004974;-0.235440;-7.416360;-5.768280
0.130798;0.005005;-0.117720;-7.416360;-5.650560
0.135803;0.005005;0.000000;-7.416360;-6.003720
0.140778;0.004974;-0.235440;-7.416360;-5.650560
0.145782;0.005005;-0.235440;-7.416360;-5.768280
0.150757;0.004974;-0.117720;-7.416360;-5.768280
0.155762;0.005005;-0.235440;-7.063200;-5.768280
0.160736;0.004974;-0.235440;-6.945480;-5.768280
0.165741;0.005005;-0.470880;-6.945480;-5.650560
0.170715;0.004974;-0.235440;-6.827760;-5.768280
0.175720;0.005005;-0.235440;-6.592320;-5.768280
0.180725;0.005005;-0.235440;-6.827760;-6.003720
0.185699;0.004974;0.000000;-7.063200;-5.886000
0.190704;0.005005;-0.117720;-6.945480;-5.886000
0.195679;0.004974;-0.353160;-6.945480;-6.003720
0.200684;0.005005;-0.117720;-6.945480;-5.886000
0.205658;0.004974;0.000000;-7.063200;-6.003720
0.210663;0.005005;-0.117720;-7.180920;-6.003720
0.215637;0.004974;-0.117720;-7.180920;-6.003720
0.220642;0.005005;-0.117720;-6.945480;-5.886000
0.225616;0.004974;-0.117720;-7.063200;-6.003720
0.230621;0.005005;-0.353160;-7.063200;-6.121440
0.235596;0.004974;0.000000;-7.298640;-6.003720
0.240601;0.005005;0.000000;-7.180920;-5.886000
0.245575;0.004974;-0.235440;-7.180920;-5.886000
0.250580;0.005005;-0.117720;-6.827760;-6.121440
0.255554;0.004974;0.000000;-7.063200;-6.003720
0.260559;0.005005;0.000000;-7.063200;-5.768280
0.265564;0.005005;-0.117720;-7.180920;-5.886000
0.270538;0.004974;0.000000;-7.180920;-5.768280
0.275543;0.005005;0.000000;-7.180920;-5.886000
0.280518;0.004974;-0.117720;-7.534080;-5.886000
0.285492;0.004974;0.000000;-7.298640;-5.886000
0.290497;0.005005;-0.117720;-6.945480;-5.886000
0.295502;0.005005;0.000000;-6.945480;-6.239160
0.300476;0.004974;-0.117720;-6.945480;-6.003720
0.305481;0.005005;-0.117720;-6.710040;-6.121440
0.310455;0.004974;-0.117720;-6.710040;-6.003720
0.315460;0.005005;-0.235440;-6.710040;-5.886000
0.320435;0.004974;-0.117720;-6.827760;-6.003720
0.325439;0.005005;0.000000;-7.180920;-5.768280
0.330444;0.005005;0.000000;-7.180920;-5.768280
0.335419;0.004974;0.117720;-7.180920;-5.768280
0.340424;0.005005;0.117720;-7.063200;-6.003720
0.345398;0.004974;0.117720;-7.180920;-5.768280
0.350403;0.005005;0.000000;-7.298640;-5.768280
0.355377;0.004974;0.000000;-7.063200;-5.886000
0.360382;0.005005;0.000000;-7.180920;-5.886000
0.365356;0.004974;-0.117720;-7.180920;-6.121440
0.370361;0.005005;-0.117720;-7.063200;-6.239160
0.375336;0.004974;0.000000;-7.180920;-6.121440
0.380341;0.005005;-0.117720;-7.180920;-6.356880
0.385345;0.005005;0.000000;-7.180920;-6.356880
0.390320;0.004974;0.000000;-7.298640;-6.121440
0.395325;0.005005;-0.353160;-7.298640;-6.121440
0.400330;0.005005;-0.117720;-7.416360;-6.003720
0.405304;0.004974;0.000000;-7.416360;-6.121440
0.410309;0.005005;0.000000;-6.945480;-6.121440
0.415283;0.004974;-0.117720;-7.180920;-6.239160
0.420288;0.005005;0.000000;-7.298640;-6.239160
0.425293;0.005005;-0.353160;-7.298640;-6.239160
0.430267;0.004974;-0.117720;-7.298640;-6.239160
0.435272;0.005005;-0.235440;-7.063200;-6.239160
0.440247;0.004974;-0.117720;-7.180920;-6.121440
0.445251;0.005005;-0.117720;-7.063200;-6.356880
0.450226;0.004974;0.000000;-6.945480;-6.356880
0.455231;0.005005;-0.117720;-7.180920;-6.474600
0.460236;0.005005;0.000000;-7.298640;-6.592320
0.465210;0.004974;0.000000;-7.651800;-6.474600
0.470215;0.005005;-0.117720;-7.534080;-6.474600
0.475189;0.004974;-0.117720;-7.416360;-6.474600
0.480194;0.005005;0.000000;-7.534080;-6.356880
0.485168;0.004974;-0.235440;-7.534080;-6.356880
0.490173;0.005005;-0.235440;-7.298640;-6.003720
0.495178;0.005005;-0.470880;-7.180920;-6.003720
0.500153;0.004974;-0.235440;-6.945480;-6.003720
0.505157;0.005005;0.000000;-6.710040;-5.886000
0.510132;0.004974;-0.117720;-6.710040;-5.886000
0.515137;0.005005;-0.353160;-7.063200;-6.827760
0.520142;0.005005;-0.117720;-7.298640;-6.121440
0.525116;0.004974;0.000000;-7.298640;-5.886000
0.530121;0.005005;0.000000;-7.180920;-5.650560
0.535126;0.005005;0.000000;-7.298640;-5.768280
0.540100;0.004974;-0.117720;-7.416360;-5.532840
0.545105;0.005005;-0.117720;-7.180920;-5.415120
0.550079;0.004974;-0.117720;-7.063200;-5.650560
0.555084;0.005005;0.000000;-7.298640;-5.650560
0.560059;0.004974;0.000000;-7.416360;-5.532840
0.565063;0.005005;-0.117720;-7.063200;-5.297400
0.570068;0.005005;0.000000;-7.063200;-5.415120
0.575043;0.004974;-0.117720;-7.063200;-5.886000
0.580048;0.005005;0.000000;-7.063200;-5.532840
0.585052;0.005005;-0.117720;-7.063200;-5.297400
0.590027;0.004974;-0.117720;-6.945480;-5.297400
0.595032;0.005005;-0.235440;-6.945480;-5.179680
0.600006;0.004974;-0.117720;-6.945480;-5.297400
0.605011;0.005005;0.117720;-6.945480;-5.179680
0.609985;0.004974;-0.235440;-6.945480;-5.650560
0.614990;0.005005;-0.353160;-7.063200;-5.768280
0.619965;0.004974;-0.353160;-7.180920;-5.886000
0.624969;0.005005;-0.353160;-7.180920;-6.003720
0.629974;0.005005;-0.235440;-7.180920;-5.650560
0.634949;0.004974;-0.235440;-6.945480;-5.768280
0.639954;0.005005;-0.117720;-6.592320;-6.003720
0.644928;0.004974;-0.117720;-6.710040;-5.886000
0.649933;0.005005;0.000000;-6.945480;-5.768280
0.654938;0.005005;-0.235440;-7.063200;-5.886000
0.659912;0.004974;-0.235440;-7.298640;-6.121440
0.664917;0.005005;-0.235440;-7.298640;-6.003720
0.669891;0.004974;-0.353160;-7.298640;-6.003720
0.674896;0.005005;-0.353160;-7.416360;-5.768280
0.679871;0.004974;-0.235440;-7.063200;-5.886000
0.684875;0.005005;-0.117720;-7.180920;-6.003720
0.689850;0.004974;-0.117720;-6.945480;-6.121440
0.694855;0.005005;-0.117720;-6.827760;-5.886000
0.699860;0.005005;0.000000;-7.063200;-6.003720
0.704834;0.004974;-0.235440;-6.945480;-6.121440
0.709839;0.005005;-0.117720;-6.945480;-6.003720
0.714813;0.004974;-0.235440;-6.710040;-6.003720
0.719818;0.005005;-0.353160;-7.063200;-6.121440
0.724792;0.004974;-0.235440;-7.063200;-6.239160
0.729797;0.005005;-0.353160;-6.945480;-6.239160
0.734802;0.005005;-0.353160;-7.063200;-5.886000
0.739777;0.004974;-0.353160;-7.063200;-6.003720
0.744781;0.005005;-0.117720;-6.945480;-6.121440
0.749786;0.005005;0.000000;-6.945480;-6.003720
0.754761;0.004974;-0.353160;-6.827760;-6.003720
0.759766;0.005005;-0.470880;-6.827760;-6.121440
0.764740;0.004974;-0.470880;-6.827760;-5.886000
0.769745;0.005005;-0.353160;-6.827760;-6.003720
0.774719;0.004974;-0.353160;-6.945480;-6.239160
0.779724;0.005005;-0.235440;-7.180920;-6.003720
0.784698;0.004974;-0.235440;-6.945480;-5.768280
0.789703;0.005005;-0.235440;-7.180920;-5.768280
0.794708;0.005005;-0.117720;-6.945480;-5.886000
0.799683;0.004974;-0.235440;-6.827760;-6.003720
0.804688;0.005005;-0.353160;-7.063200;-5.768280
0.809662;0.004974;-0.117720;-7.298640;-5.768280
0.814667;0.005005;0.000000;-6.827760;-5.532840
0.819641;0.004974;-0.117720;-6.827760;-5.415120
0.824646;0.005005;-0.235440;-6.945480;-5.650560
0.829651;0.005005;-0.117720;-7.063200;-5.768280
0.834625;0.004974;0.000000;-7.180920;-5.650560
0.839630;0.005005;-0.117720;-7.180920;-5.415120
0.844635;0.005005;-0.117720;-7.063200;-5.415120
0.849609;0.004974;-0.117720;-7.180920;-5.297400
0.854614;0.005005;0.000000;-7.063200;-5.415120
0.859589;0.004974;-0.117720;-7.063200;-5.415120
0.864594;0.005005;0.000000;-7.416360;-5.532840
0.869568;0.004974;0.000000;-7.534080;-5.532840
0.874573;0.005005;0.000000;-7.651800;-5.532840
0.879578;0.005005;-0.117720;-7.651800;-5.415120
0.884552;0.004974;-0.235440;-7.651800;-5.768280
0.889557;0.005005;-0.235440;-7.534080;-5.886000
0.894531;0.004974;-0.353160;-7.651800;-5.886000
0.899536;0.005005;-0.470880;-7.298640;-5.650560
0.904541;0.005005;-0.588600;-7.063200;-5.532840
0.909515;0.004974;-0.235440;-7.063200;-5.650560
0.914520;0.005005;-0.470880;-7.298640;-5.768280
0.919495;0.004974;-0.941760;-7.416360;-5.297400
0.924500;0.005005;-1.294920;-7.416360;-4.944240
0.929504;0.005005;-1.059480;-7.298640;-5.179680
0.934479;0.004974;-1.294920;-7.298640;-5.532840
0.939484;0.005005;-1.059480;-7.651800;-5.532840
0.944489;0.005005;-0.706320;-7.651800;-5.650560
0.949463;0.004974;-0.941760;-7.534080;-5.650560
0.954468;0.005005;-0.706320;-7.534080;-5.650560
0.959442;0.004974;-1.294920;-8.004960;-5.768280
0.964447;0.005005;0.000000;-7.769520;-6.003720
0.969452;0.005005;-0.235440;-7.534080;-5.886000
0.974426;0.004974;-0.470880;-7.534080;-5.415120
0.979431;0.005005;0.000000;-7.416360;-5.650560
0.984406;0.004974;0.000000;-7.298640;-6.003720
0.989410;0.005005;-0.235440;-7.063200;-5.650560
0.994415;0.005005;-0.588600;-7.063200;-5.415120
0.999390;0.004974;-0.706320;-7.180920;-5.297400
1.004395;0.005005;-0.588600;-7.298640;-5.179680
1.009369;0.004974;-0.588600;-7.416360;-5.415120
1.014374;0.005005;-0.706320;-7.416360;-5.768280
1.019348;0.004974;-0.235440;-7.534080;-6.003720
1.024353;0.005005;-0.353160;-7.180920;-5.650560
1.029358;0.005005;-0.824040;-7.063200;-5.297400
1.034332;0.004974;-0.824040;-7.063200;-5.061960
1.039337;0.005005;-0.470880;-7.180920;-5.297400
1.044312;0.004974;-0.235440;-7.298640;-5.886000
1.049316;0.005005;-0.117720;-7.298640;-5.768280
1.054321;0.005005;0.235440;-7.298640;-5.415120
1.059296;0.004974;0.000000;-7.180920;-5.650560
1.064301;0.005005;-0.353160;-7.180920;-5.532840
1.069275;0.004974;-0.353160;-7.298640;-5.297400
1.074280;0.005005;-0.470880;-7.416360;-5.297400
1.079254;0.004974;-0.588600;-7.298640;-5.415120
1.084259;0.005005;-0.588600;-7.416360;-5.297400
1.089233;0.004974;-0.588600;-7.416360;-5.297400
1.094238;0.005005;-0.353160;-7.651800;-5.415120
1.099243;0.005005;-0.470880;-7.534080;-5.297400
1.104218;0.004974;-0.470880;-7.651800;-5.297400
1.109222;0.005005;-0.235440;-7.534080;-5.179680
1.114227;0.005005;-0.117720;-7.534080;-5.297400
1.119202;0.004974;-0.353160;-7.298640;-5.415120
1.124207;0.005005;-0.235440;-7.416360;-5.532840
1.129181;0.004974;-0.117720;-7.416360;-5.179680
1.134186;0.005005;-0.470880;-7.063200;-5.297400
1.139191;0.005005;-0.235440;-7.063200;-5.297400
1.144165;0.004974;-0.117720;-7.180920;-5.532840
1.149170;0.005005;-0.117720;-7.180920;-5.297400
1.154144;0.004974;0.000000;-6.945480;-5.061960
1.159149;0.005005;0.000000;-6.945480;-5.179680
1.164124;0.004974;-0.117720;-6.945480;-5.061960
1.169128;0.005005;-0.117720;-6.945480;-4.944240
1.174103;0.004974;-0.117720;-6.827760;-4.826520
1.179108;0.005005;-0.117720;-6.710040;-4.708800
1.184113;0.005005;0.000000;-6.945480;-4.708800
1.189087;0.004974;-0.353160;-6.945480;-4.826520
1.194092;0.005005;-0.353160;-7.180920;-4.826520
1.199066;0.004974;-0.235440;-7.180920;-4.944240
1.204071;0.005005;-0.235440;-7.063200;-4.944240
1.209045;0.004974;-0.235440;-7.180920;-4.826520
1.214050;0.005005;-0.470880;-6.827760;-5.179680
1.219025;0.004974;-0.706320;-7.180920;-5.061960
1.224030;0.005005;-0.470880;-6.474600;-5.650560
1.229004;0.004974;-0.588600;-6.474600;-5.532840
1.234009;0.005005;-0.353160;-6.592320;-5.179680
1.239014;0.005005;-0.117720;-6.827760;-5.886000
1.243988;0.004974;-0.353160;-6.827760;-5.650560
1.248993;0.005005;-0.117720;-6.356880;-5.179680
1.253967;0.004974;-0.117720;-6.474600;-5.061960
1.258972;0.005005;-0.470880;-6.592320;-4.944240
1.263947;0.004974;-0.706320;-6.356880;-5.179680
1.268951;0.005005;-0.941760;-6.356880;-5.179680
1.273956;0.005005;-0.470880;-6.710040;-5.179680
1.278931;0.004974;-0.588600;-6.121440;-5.768280
1.283936;0.005005;-0.235440;-6.710040;-6.121440
1.288910;0.004974;-0.117720;-6.945480;-6.239160
1.293915;0.005005;-0.706320;-6.592320;-6.239160
1.298889;0.004974;-0.353160;-7.063200;-6.121440
1.303894;0.005005;-0.353160;-7.180920;-6.121440
1.308899;0.005005;-0.470880;-6.945480;-6.356880
1.313873;0.004974;-0.353160;-7.298640;-6.474600
1.318878;0.005005;-0.235440;-7.416360;-6.592320
1.323883;0.005005;-0.117720;-8.004960;-6.474600
1.328857;0.004974;-0.588600;-7.534080;-6.003720
1.333862;0.005005;-0.824040;-7.298640;-5.768280
1.338837;0.004974;-0.235440;-7.416360;-5.768280
1.343842;0.005005;-0.470880;-6.474600;-6.003720
1.348816;0.004974;-0.353160;-6.239160;-6.121440
1.353821;0.005005;-0.117720;-6.003720;-6.356880
1.358795;0.004974;-0.117720;-5.886000;-6.356880
1.363800;0.005005;0.000000;-5.886000;-7.416360
1.368805;0.005005;0.000000;-6.121440;-7.180920
1.373779;0.004974;-0.117720;-6.121440;-6.827760
1.378784;0.005005;-0.117720;-5.886000;-6.121440
1.383759;0.004974;-0.117720;-5.650560;-5.532840
1.388763;0.005005;-0.470880;-5.415120;-5.297400
1.393768;0.005005;-0.706320;-5.061960;-5.297400
1.398743;0.004974;-1.059480;-4.708800;-5.415120
1.403748;0.005005;-1.412640;-4.708800;-5.886000
1.408722;0.004974;-1.412640;-4.708800;-6.121440
1.413727;0.005005;-1.530360;-4.473360;-6.121440
1.418732;0.005005;-1.530360;-4.591080;-6.239160
1.423706;0.004974;-1.294920;-4.120200;-6.356880
1.428711;0.005005;-1.412640;-3.767040;-6.121440
1.433685;0.004974;-1.294920;-3.884760;-6.121440
1.438690;0.005005;-0.706320;-3.767040;-6.239160
1.443695;0.005005;-0.470880;-3.767040;-6.239160
1.448669;0.004974;-0.824040;-4.237920;-6.239160
1.453674;0.005005;-0.706320;-4.473360;-6.003720
1.458649;0.004974;-0.706320;-4.120200;-6.356880
1.463654;0.005005;-0.588600;-3.767040;-6.592320
1.468628;0.004974;-0.353160;-3.413880;-6.121440
1.473633;0.005005;-0.353160;-3.178440;-6.239160
1.478638;0.005005;-0.941760;-2.472120;-6.356880
1.483612;0.004974;-0.470880;-2.001240;-7.063200
1.488617;0.005005;-0.117720;-2.472120;-6.827760
1.493591;0.004974;0.353160;-2.589840;-7.534080
1.498596;0.005005;0.235440;-2.943000;-6.592320
1.503571;0.004974;0.824040;-2.236680;-5.886000
1.508575;0.005005;0.706320;-2.472120;-7.063200
1.513580;0.005005;0.941760;-2.118960;-7.651800
1.518555;0.004974;0.824040;-2.236680;-7.887240
1.523560;0.005005;1.412640;-2.118960;-8.240400
1.528534;0.004974;1.059480;-2.118960;-8.593560
1.533539;0.005005;0.588600;-2.118960;-8.829000
1.538544;0.005005;0.353160;-2.118960;-9.182160
1.543549;0.005005;0.235440;-2.236680;-9.653040
1.548523;0.004974;0.000000;-2.001240;-9.888480
1.553497;0.004974;0.117720;-1.883520;-10.006200
1.558502;0.005005;0.117720;-1.883520;-9.653040
1.563507;0.005005;0.000000;-1.765800;-9.653040
1.568481;0.004974;0.000000;-1.765800;-9.417600
1.573486;0.005005;0.117720;-1.530360;-9.653040
1.578461;0.004974;0.000000;-1.294920;-9.417600
1.583466;0.005005;0.000000;-1.530360;-9.182160
1.588440;0.004974;0.000000;-1.530360;-9.064440
1.593445;0.005005;0.000000;-1.530360;-8.711280
1.598419;0.004974;0.117720;-1.648080;-8.711280
1.603424;0.005005;0.000000;-1.530360;-8.475840
1.608429;0.005005;0.000000;-1.530360;-8.593560
1.613403;0.004974;0.235440;-1.530360;-8.475840
1.618408;0.005005;0.117720;-1.648080;-7.769520
1.623413;0.005005;-0.117720;-1.648080;-8.593560
1.628387;0.004974;0.941760;-2.118960;-9.888480
1.633392;0.005005;0.470880;-2.001240;-9.535320
1.638367;0.004974;1.177200;-2.118960;-10.359360
1.643372;0.005005;0.706320;-2.001240;-10.241640
1.648376;0.005005;1.294920;-1.648080;-10.359360
1.653351;0.004974;1.412640;-0.824040;-10.594800
1.658356;0.005005;1.530360;-0.235440;-11.183400
1.663330;0.004974;1.883520;-0.117720;-11.536560
1.668335;0.005005;2.118960;-0.235440;-11.536560
1.673340;0.005005;2.472120;-0.235440;-11.772000
1.678314;0.004974;2.825280;-0.588600;-12.125160
1.683319;0.005005;2.589840;-0.470880;-12.478320
1.688324;0.005005;2.707560;-0.235440;-12.360600
1.693298;0.004974;2.707560;-0.117720;-12.360600
1.698303;0.005005;3.296160;0.000000;-12.007440
1.703278;0.004974;3.413880;0.353160;-12.007440
1.708282;0.005005;3.884760;0.824040;-11.889720
1.713287;0.005005;4.002480;1.294920;-11.065680
1.718262;0.004974;3.531600;1.765800;-10.830240
1.723267;0.005005;4.002480;2.118960;-10.477080
1.728241;0.004974;4.120200;2.589840;-10.006200
1.733246;0.005005;4.237920;2.236680;-9.535320
1.738220;0.004974;4.237920;1.765800;-8.946720
1.743225;0.005005;3.649320;1.412640;-8.358120
1.748230;0.005005;3.296160;1.059480;-8.475840
1.753204;0.004974;3.178440;0.706320;-8.475840
1.758209;0.005005;2.943000;0.353160;-8.475840
1.763184;0.004974;2.707560;0.235440;-8.593560
1.768188;0.005005;2.707560;0.353160;-8.711280
1.773163;0.004974;3.296160;0.470880;-8.829000
1.778168;0.005005;3.060720;0.470880;-8.593560
1.783173;0.005005;3.531600;0.941760;-8.711280
1.788147;0.004974;3.884760;1.177200;-8.593560
1.793152;0.005005;4.708800;1.530360;-8.711280
1.798126;0.004974;4.708800;2.118960;-8.593560
1.803131;0.005005;4.355640;2.001240;-8.593560
1.808136;0.005005;4.473360;2.236680;-8.358120
1.813110;0.004974;4.944240;2.354400;-8.240400
1.818115;0.005005;4.944240;2.118960;-8.593560
1.823120;0.005005;5.179680;2.001240;-8.593560
1.828094;0.004974;5.415120;2.001240;-8.711280
1.833099;0.005005;5.650560;2.001240;-8.829000
1.838074;0.004974;5.768280;1.883520;-8.593560
1.843079;0.005005;5.886000;1.883520;-8.358120
1.848053;0.004974;5.886000;1.883520;-8.475840
1.853058;0.005005;6.003720;2.118960;-8.240400
1.858063;0.005005;6.003720;2.118960;-8.358120
1.863068;0.005005;6.003720;2.236680;-8.122680
1.868042;0.004974;5.886000;2.001240;-7.651800
1.873047;0.005005;5.886000;1.648080;-7.651800
1.878021;0.004974;5.297400;0.824040;-7.534080
1.883026;0.005005;5.061960;0.353160;-8.004960
1.888031;0.005005;4.708800;-0.117720;-8.240400
1.893005;0.004974;4.355640;-0.235440;-8.475840
1.898010;0.005005;4.237920;-0.353160;-8.358120
1.902985;0.004974;3.767040;-0.235440;-8.122680
1.907990;0.005005;3.531600;0.000000;-7.651800
1.912964;0.004974;11.301120;7.534080;-8.593560
1.917969;0.005005;7.063200;5.415120;-10.830240
1.922974;0.005005;4.944240;2.825280;-10.123920
1.927948;0.004974;4.826520;1.177200;-8.711280
1.932953;0.005005;4.826520;0.706320;-7.769520
1.937927;0.004974;5.061960;0.706320;-7.180920
1.942932;0.005005;4.591080;0.824040;-7.651800
1.947937;0.005005;4.355640;0.941760;-8.122680
1.952911;0.004974;4.591080;0.824040;-8.946720
1.957916;0.005005;4.355640;0.470880;-8.829000
1.962921;0.005005;3.884760;0.235440;-8.946720
1.967896;0.004974;3.413880;0.000000;-8.946720
1.972900;0.005005;3.296160;0.000000;-9.299880
1.977875;0.004974;2.707560;0.117720;-8.475840
1.982880;0.005005;2.354400;-0.706320;-8.946720
1.987854;0.004974;1.883520;-0.706320;-8.593560
1.992859;0.005005;1.648080;-0.470880;-9.182160
1.997864;0.005005;1.648080;-0.588600;-8.946720
2.002838;0.004974;1.530360;-0.353160;-8.122680
2.007843;0.005005;1.412640;-0.235440;-8.004960
2.012817;0.004974;1.412640;-0.117720;-8.946720
2.017822;0.005005;0.824040;-0.117720;-9.653040
2.022827;0.005005;0.470880;-0.117720;-9.182160
2.027802;0.004974;0.235440;0.706320;-8.829000
2.032806;0.005005;-0.117720;0.941760;-10.006200
2.037781;0.004974;0.000000;0.824040;-8.829000
2.042786;0.005005;-0.588600;0.470880;-7.180920
2.047791;0.005005;1.412640;-8.122680;-10.359360
2.052765;0.004974;0.117720;-4.002480;-16.480800
2.057770;0.005005;0.000000;-2.118960;-8.946720
2.062744;0.004974;-0.824040;-0.706320;-10.594800
2.067749;0.005005;-0.941760;-0.117720;-8.240400
2.072723;0.004974;-1.412640;0.117720;-9.064440
2.077728;0.005005;-0.824040;-0.117720;-9.299880
2.082703;0.004974;-0.706320;0.706320;-9.770760
2.087708;0.005005;-0.353160;1.059480;-9.417600
2.092712;0.005005;-0.470880;0.588600;-9.653040
2.097687;0.004974;-0.824040;0.353160;-10.006200
2.102692;0.005005;-0.824040;0.117720;-9.770760
2.107666;0.004974;-0.941760;0.235440;-9.770760
2.112671;0.005005;-0.941760;0.235440;-9.417600
2.117676;0.005005;-0.706320;0.235440;-9.535320
2.122650;0.004974;-0.706320;0.235440;-9.770760
2.127655;0.005005;-1.177200;0.117720;-9.770760
2.132629;0.004974;-0.824040;0.353160;-9.653040
2.137634;0.005005;-1.059480;0.235440;-9.770760
2.142609;0.004974;-1.177200;0.235440;-9.770760
2.147614;0.005005;-1.177200;0.117720;-9.770760
2.152618;0.005005;-1.059480;0.000000;-9.888480
2.157593;0.004974;-0.706320;0.117720;-9.535320
2.162598;0.005005;-0.706320;0.353160;-9.653040
2.167572;0.004974;-0.588600;0.235440;-9.653040
2.172577;0.005005;-0.941760;0.000000;-9.653040
2.177582;0.005005;-1.059480;0.000000;-9.770760
2.182556;0.004974;-1.177200;0.117720;-9.653040
2.187561;0.005005;-0.824040;0.235440;-9.770760
2.192535;0.004974;-0.706320;0.353160;-9.653040
2.197540;0.005005;-0.941760;0.353160;-9.888480
2.202515;0.004974;-0.941760;0.235440;-9.770760
2.207520;0.005005;-1.059480;0.117720;-9.888480
2.212494;0.004974;-0.824040;0.117720;-9.770760
2.217499;0.005005;-1.059480;0.235440;-9.535320
2.222504;0.005005;-1.059480;0.117720;-9.653040
2.227478;0.004974;-0.941760;0.588600;-9.653040
2.232483;0.005005;-0.824040;0.470880;-9.653040
2.237457;0.004974;-0.706320;0.353160;-9.888480
2.242462;0.005005;-0.941760;0.470880;-10.006200
2.247467;0.005005;-1.177200;0.117720;-10.006200
2.252441;0.004974;-1.059480;0.353160;-9.417600
2.257446;0.005005;-1.059480;0.353160;-9.770760
2.262421;0.004974;-1.059480;0.353160;-9.770760
2.267426;0.005005;-0.824040;0.353160;-9.653040
2.272400;0.004974;-0.706320;0.117720;-9.653040
2.277405;0.005005;-0.706320;0.117720;-9.770760
2.282410;0.005005;-1.059480;0.117720;-9.770760
2.287384;0.004974;-0.588600;0.117720;-9.653040
2.292389;0.005005;-0.588600;0.000000;-9.299880
2.297363;0.004974;-0.470880;0.235440;-9.535320
2.302368;0.005005;-0.706320;0.117720;-9.888480
2.307373;0.005005;-0.470880;0.117720;-9.770760
2.312347;0.004974;-0.353160;0.117720;-9.770760
2.317352;0.005005;-0.470880;0.235440;-9.888480
2.322327;0.004974;-1.059480;0.117720;-9.770760
2.327332;0.005005;-1.059480;0.235440;-9.770760
2.332336;0.005005;-0.941760;0.117720;-9.770760
2.337311;0.004974;-0.824040;0.117720;-9.770760
2.342316;0.005005;-0.470880;0.117720;-9.770760
2.347290;0.004974;-0.470880;0.353160;-9.417600
2.352295;0.005005;-0.941760;0.470880;-9.653040
2.357269;0.004974;-1.294920;0.353160;-9.770760
2.362274;0.005005;-1.177200;0.353160;-10.006200
2.367279;0.005005;-0.941760;0.470880;-9.888480
2.372253;0.004974;-0.706320;0.353160;-10.006200
2.377258;0.005005;-0.824040;0.470880;-9.653040
2.382263;0.005005;-0.470880;0.353160;-9.064440
2.387238;0.004974;-0.353160;0.353160;-9.535320
2.392242;0.005005;-0.588600;0.353160;-9.770760
2.397247;0.005005;-0.706320;0.353160;-9.417600
2.402222;0.004974;-0.941760;0.235440;-9.653040
2.407227;0.005005;-0.941760;0.235440;-9.770760
2.412231;0.005005;-0.824040;0.235440;-9.888480
2.417206;0.004974;-0.941760;0.117720;-9.653040
2.422211;0.005005;-0.941760;0.117720;-9.770760
2.427185;0.004974;-0.941760;0.235440;-9.888480
2.432190;0.005005;-0.824040;0.470880;-10.006200
2.437195;0.005005;-0.941760;0.353160;-9.770760
2.442169;0.004974;-1.294920;0.353160;-9.770760
2.447174;0.005005;-0.824040;0.353160;-9.182160
2.452148;0.004974;-1.059480;0.235440;-9.770760
2.457153;0.005005;-0.706320;0.353160;-9.182160
2.462128;0.004974;-0.588600;0.706320;-9.535320
2.467133;0.005005;-0.824040;0.353160;-9.535320
2.472107;0.004974;-0.941760;0.353160;-9.653040
2.477112;0.005005;-0.941760;0.235440;-9.535320
2.482086;0.004974;-0.824040;0.117720;-9.770760
2.487091;0.005005;-0.941760;0.117720;-9.888480
2.492065;0.004974;-0.941760;0.353160;-9.770760
2.497070;0.005005;-0.824040;0.235440;-9.770760
2.502075;0.005005;-0.941760;0.235440;-9.888480
2.507050;0.004974;-0.706320;0.117720;-10.006200
2.512054;0.005005;-0.706320;0.117720;-10.006200
2.517029;0.004974;-1.059480;0.235440;-9.770760
2.522034;0.005005;-0.824040;0.117720;-9.770760
2.527008;0.004974;-0.706320;0.235440;-9.770760
2.532013;0.005005;-0.470880;0.353160;-9.770760
2.537018;0.005005;-0.588600;0.235440;-9.653040
2.541992;0.004974;-0.706320;0.235440;-9.770760
2.546997;0.005005;-0.824040;0.117720;-9.653040
2.551971;0.004974;-1.177200;0.353160;-9.653040
2.556976;0.005005;-1.177200;0.470880;-9.535320
2.561981;0.005005;-0.941760;0.470880;-9.535320
2.566956;0.004974;-0.941760;0.353160;-9.535320
2.571960;0.005005;-1.177200;0.235440;-9.535320
2.576965;0.005005;-1.294920;0.235440;-9.417600
2.581940;0.004974;-1.059480;0.117720;-9.770760
2.586945;0.005005;-0.470880;0.470880;-9.770760
2.591919;0.004974;-0.706320;0.353160;-9.653040
2.596924;0.005005;-0.706320;0.353160;-9.653040
2.601929;0.005005;-0.941760;0.353160;-9.770760
2.606903;0.004974;-1.059480;0.353160;-10.006200
2.611908;0.005005;-0.824040;0.235440;-10.006200
2.616882;0.004974;-0.706320;0.117720;-10.006200
2.621887;0.005005;-0.824040;0.117720;-10.006200
2.626862;0.004974;-1.177200;0.235440;-9.770760
2.631866;0.005005;-0.941760;0.235440;-9.535320
2.636841;0.004974;-0.824040;0.117720;-9.299880
2.641846;0.005005;-0.824040;0.117720;-9.417600
2.646820;0.004974;-0.941760;0.235440;-9.535320
2.651825;0.005005;-0.941760;0.353160;-9.417600
2.656799;0.004974;-1.059480;0.235440;-9.653040
2.661804;0.005005;-1.059480;0.235440;-9.888480
2.666809;0.005005;-0.941760;0.235440;-9.888480
2.671783;0.004974;-0.588600;0.117720;-9.770760
2.676788;0.005005;-0.824040;0.235440;-10.006200
2.681763;0.004974;-0.824040;0.353160;-9.770760
2.686768;0.005005;-0.588600;0.588600;-9.888480
2.691772;0.005005;-0.824040;0.235440;-9.653040
2.696747;0.004974;-0.588600;0.235440;-9.770760
2.701752;0.005005;-0.824040;0.117720;-9.770760
2.706726;0.004974;-0.824040;0.117720;-9.535320
2.711731;0.005005;-0.941760;0.117720;-9.770760
2.716736;0.005005;-1.059480;0.117720;-9.653040
2.721710;0.004974;-1.059480;0.235440;-9.770760
2.726715;0.005005;-1.177200;0.235440;-9.535320
2.731689;0.004974;-0.824040;0.117720;-9.770760
2.736694;0.005005;-0.588600;0.117720;-9.653040
2.741669;0.004974;-0.706320;0.117720;-10.006200
2.746674;0.005005;-0.824040;0.353160;-10.123920
2.751648;0.004974;-1.059480;0.235440;-10.123920
2.756653;0.005005;-0.706320;0.117720;-10.123920
2.761658;0.005005;-0.824040;0.117720;-10.006200
2.766632;0.004974;-1.177200;0.117720;-10.006200
2.771637;0.005005;-1.059480;0.353160;-9.770760
2.776611;0.004974;-0.588600;0.235440;-8.711280
2.781616;0.005005;-0.941760;-0.117720;-9.299880
2.786591;0.004974;-0.588600;0.235440;-9.417600
2.791595;0.005005;-0.706320;0.353160;-9.535320
2.796570;0.004974;-0.941760;0.353160;-9.653040
2.801575;0.005005;-1.059480;0.235440;-9.653040
2.806580;0.005005;-0.824040;0.117720;-9.653040
2.811554;0.004974;-0.941760;0.470880;-9.888480
2.816559;0.005005;-0.824040;0.470880;-10.123920
2.821564;0.005005;-0.941760;0.235440;-10.123920
2.826538;0.004974;-0.824040;0.470880;-9.888480
2.831543;0.005005;-0.706320;0.706320;-9.653040
2.836517;0.004974;-0.706320;0.706320;-9.770760
2.841522;0.005005;-0.706320;0.824040;-9.653040
2.846497;0.004974;-0.706320;0.824040;-10.006200
2.851501;0.005005;-0.706320;0.941760;-9.535320
2.856506;0.005005;-0.941760;1.059480;-9.535320
2.861481;0.004974;-1.177200;1.059480;-9.653040
2.866486;0.005005;-1.059480;1.294920;-9.770760
2.871460;0.004974;-0.824040;1.530360;-9.888480
2.876465;0.005005;-0.588600;1.765800;-9.770760
2.881470;0.005005;-0.941760;1.765800;-9.653040
2.886444;0.004974;-1.059480;1.648080;-9.182160
2.891449;0.005005;-1.177200;1.765800;-9.535320
2.896423;0.004974;-0.235440;0.941760;-7.298640
2.901428;0.005005;-1.059480;-0.235440;-8.946720
2.906433;0.005005;-1.059480;-0.235440;-9.299880
2.911407;0.004974;-1.177200;-0.117720;-9.417600
2.916412;0.005005;-0.706320;0.000000;-9.182160
2.921417;0.005005;-1.177200;0.000000;-9.299880
2.926392;0.004974;-1.412640;0.470880;-9.064440
2.931396;0.005005;-1.412640;0.235440;-9.535320
2.936401;0.005005;-1.059480;0.235440;-9.770760
2.941376;0.004974;-1.059480;0.117720;-9.888480
2.946381;0.005005;-1.177200;0.117720;-9.535320
2.951355;0.004974;-1.412640;0.117720;-9.535320
2.956360;0.005005;-1.648080;0.235440;-9.770760
2.961365;0.005005;-1.765800;0.117720;-9.770760
2.966339;0.004974;-1.530360;0.000000;-9.653040
2.971344;0.005005;-0.824040;0.000000;-9.535320
2.976318;0.004974;-0.588600;0.235440;-9.653040
2.981323;0.005005;-0.824040;0.117720;-10.006200
2.986328;0.005005;-0.706320;0.117720;-9.417600
2.991302;0.004974;-0.353160;0.117720;-9.888480
2.996307;0.005005;-0.235440;0.117720;-9.888480
3.001282;0.004974;-0.235440;0.117720;-9.653040
3.006287;0.005005;-0.353160;0.000000;-9.770760
3.011292;0.005005;-0.235440;0.000000;-9.770760
3.016266;0.004974;-0.235440;-0.117720;-9.653040
3.021271;0.005005;-0.470880;0.000000;-9.535320
3.026276;0.005005;-0.588600;-0.117720;-9.299880
3.031250;0.004974;-0.353160;-0.353160;-9.535320
3.036255;0.005005;-0.353160;-0.588600;-9.299880
3.041229;0.004974;-0.353160;-0.706320;-9.535320
3.046234;0.005005;-0.588600;-0.353160;-9.888480
3.051208;0.004974;-0.706320;-0.117720;-9.888480
3.056213;0.005005;-0.706320;0.235440;-9.535320
3.061188;0.004974;-0.706320;0.117720;-9.653040
3.066193;0.005005;-0.941760;0.117720;-9.888480
3.071167;0.004974;-0.824040;0.000000;-9.888480
3.076172;0.005005;-0.824040;-0.235440;-10.006200
3.081177;0.005005;-0.824040;-0.117720;-9.653040
3.086151;0.004974;-0.941760;0.000000;-10.006200
3.091156;0.005005;-0.824040;0.235440;-9.770760
3.096130;0.004974;-0.706320;0.235440;-9.417600
3.101135;0.005005;-1.059480;0.470880;-9.653040
3.106110;0.004974;-1.412640;0.470880;-10.477080
3.111115;0.005005;-0.706320;0.941760;-9.417600
3.116119;0.005005;-1.059480;1.294920;-9.888480
3.121094;0.004974;-1.059480;1.294920;-9.535320
3.126099;0.005005;-1.059480;1.530360;-9.182160
3.131073;0.004974;-0.941760;1.530360;-9.299880
3.136078;0.005005;-0.824040;1.530360;-9.064440
3.141083;0.005005;-0.588600;1.648080;-9.417600
3.146057;0.004974;-0.470880;1.648080;-9.770760
3.151062;0.005005;-0.824040;1.648080;-9.299880
3.156036;0.004974;-0.588600;1.648080;-9.182160
3.161041;0.005005;-0.588600;1.765800;-9.535320
3.166046;0.005005;-0.353160;1.883520;-9.770760
3.171021;0.004974;-0.353160;1.883520;-9.653040
3.176025;0.005005;-0.470880;1.883520;-9.417600
3.181000;0.004974;-0.353160;1.883520;-9.535320
3.186005;0.005005;-0.588600;1.883520;-9.535320
3.191010;0.005005;-0.706320;1.883520;-9.535320
3.195984;0.004974;-0.941760;1.883520;-9.182160
3.200989;0.005005;-0.941760;1.883520;-9.417600
3.205994;0.005005;-0.941760;1.648080;-8.946720
3.210968;0.004974;-0.706320;1.765800;-8.829000
3.215973;0.005005;-0.588600;1.648080;-9.064440
3.220947;0.004974;-0.706320;1.765800;-9.417600
3.225952;0.005005;-0.706320;1.883520;-9.182160
3.230957;0.005005;-0.588600;1.883520;-9.535320
3.235931;0.004974;-0.470880;1.765800;-9.535320
3.240936;0.005005;-0.470880;1.883520;-9.535320
3.245911;0.004974;-0.824040;1.765800;-9.417600
3.250916;0.005005;-0.824040;1.883520;-9.770760
3.255920;0.005005;-1.294920;1.765800;-9.770760
3.260895;0.004974;-1.530360;1.648080;-10.006200
3.265900;0.005005;-1.530360;1.765800;-9.888480
3.270874;0.004974;-1.648080;1.765800;-10.006200
3.275879;0.005005;-1.648080;1.883520;-9.888480
3.280884;0.005005;-1.648080;1.883520;-9.770760
3.285858;0.004974;-1.530360;1.883520;-9.182160
3.290863;0.005005;-0.941760;2.001240;-9.064440
3.295868;0.005005;-1.177200;2.118960;-8.829000
3.300842;0.004974;-0.824040;2.001240;-8.829000
3.305847;0.005005;-0.941760;2.001240;-9.064440
3.310852;0.005005;-0.588600;2.001240;-9.299880
3.315826;0.004974;-0.824040;1.883520;-9.417600
3.320831;0.005005;-0.941760;1.530360;-9.770760
3.325806;0.004974;-1.177200;1.530360;-10.006200
3.330811;0.005005;-1.177200;1.177200;-10.006200
3.335815;0.005005;-0.941760;1.059480;-10.006200
3.340790;0.004974;-1.294920;1.530360;-10.006200
3.345795;0.005005;-0.824040;1.530360;-9.299880
3.350769;0.004974;-0.941760;1.530360;-9.770760
3.355774;0.005005;-0.941760;1.530360;-9.888480
3.360779;0.005005;-0.824040;1.177200;-10.123920
3.365753;0.004974;-0.353160;1.648080;-9.182160
3.370758;0.005005;-0.117720;1.883520;-8.829000
3.375763;0.005005;-0.353160;1.883520;-9.653040
3.380737;0.004974;-0.588600;1.883520;-10.241640
3.385742;0.005005;-1.059480;1.883520;-10.241640
3.390747;0.005005;-1.177200;1.648080;-9.535320
3.395721;0.004974;-1.059480;1.765800;-8.358120
3.400726;0.005005;-0.706320;2.001240;-7.298640
3.405701;0.004974;-0.470880;2.236680;-7.887240
3.410706;0.005005;-0.353160;2.118960;-8.004960
3.415710;0.005005;-0.470880;2.118960;-8.122680
3.420715;0.005005;-0.588600;2.589840;-8.475840
3.425690;0.004974;-0.470880;2.825280;-10.006200
3.430664;0.004974;-0.706320;3.296160;-10.947960
3.435669;0.005005;-1.177200;2.825280;-9.653040
3.440674;0.005005;-1.294920;2.118960;-8.004960
3.445648;0.004974;-0.824040;2.236680;-10.006200
3.450653;0.005005;-0.588600;2.354400;-9.770760
3.455658;0.005005;-0.588600;2.589840;-11.418840
3.460632;0.004974;-0.588600;2.236680;-10.477080
3.465637;0.005005;-1.177200;2.118960;-10.359360
3.470612;0.004974;-1.177200;1.648080;-10.006200
3.475616;0.005005;-1.177200;1.294920;-10.123920
3.480621;0.005005;-1.177200;1.177200;-10.006200
3.485596;0.004974;-1.177200;1.412640;-9.653040
3.490601;0.005005;-0.941760;1.648080;-9.770760
3.495575;0.004974;-0.824040;1.765800;-9.299880
3.500580;0.005005;-0.588600;1.883520;-8.829000
3.505554;0.004974;-0.706320;2.001240;-9.299880
3.510559;0.005005;-1.177200;1.883520;-9.770760
3.515533;0.004974;-1.059480;1.530360;-9.888480
3.520538;0.005005;-1.059480;1.648080;-9.888480
3.525513;0.004974;-1.059480;1.294920;-10.006200
3.530518;0.005005;-1.177200;0.824040;-10.006200
3.535522;0.005005;-0.941760;0.588600;-10.241640
3.540497;0.004974;-0.941760;0.706320;-10.123920
3.545502;0.005005;-0.824040;0.706320;-10.006200
3.550476;0.004974;-0.941760;0.824040;-10.123920
3.555481;0.005005;-0.941760;1.059480;-10.006200
3.560486;0.005005;-1.177200;1.294920;-9.535320
3.565460;0.004974;-0.941760;1.530360;-9.417600
3.570465;0.005005;-1.059480;1.530360;-9.653040
3.575470;0.005005;-0.941760;1.177200;-9.653040
3.580444;0.004974;-0.941760;0.941760;-9.770760
3.585449;0.005005;-0.824040;0.941760;-9.653040
3.590424;0.004974;-0.824040;0.824040;-9.535320
3.595428;0.005005;-0.824040;1.059480;-9.770760
3.600433;0.005005;-0.470880;0.941760;-9.888480
3.605408;0.004974;-1.059480;0.588600;-10.006200
3.610413;0.005005;-0.824040;0.824040;-9.888480
3.615387;0.004974;-0.941760;0.941760;-9.888480
3.620392;0.005005;-0.941760;0.941760;-9.770760
3.625366;0.004974;-1.059480;0.941760;-9.888480
3.630371;0.005005;-0.824040;0.941760;-10.123920
3.635376;0.005005;-0.706320;0.941760;-10.123920
3.640350;0.004974;-0.588600;1.177200;-10.123920
3.645355;0.005005;-0.706320;1.412640;-9.653040
3.650360;0.005005;-0.470880;1.177200;-9.535320
3.655334;0.004974;-0.706320;1.294920;-9.888480
3.660339;0.005005;-0.824040;1.412640;-9.888480
3.665314;0.004974;-0.588600;1.648080;-9.888480
3.670319;0.005005;-0.588600;2.001240;-9.653040
3.675323;0.005005;-0.824040;2.118960;-9.182160
3.680298;0.004974;-0.941760;2.001240;-8.829000
3.685303;0.005005;-0.470880;2.118960;-8.593560
3.690277;0.004974;-0.470880;2.001240;-8.711280
3.695282;0.005005;-0.706320;2.118960;-9.417600
3.700256;0.004974;-0.588600;2.118960;-9.417600
3.705261;0.005005;-0.706320;2.001240;-9.535320
3.710266;0.005005;-0.941760;2.118960;-9.535320
3.715240;0.004974;-0.941760;2.001240;-9.417600
3.720245;0.005005;-0.824040;2.001240;-9.888480
3.725220;0.004974;-0.706320;2.118960;-9.653040
3.730225;0.005005;-0.470880;2.001240;-9.417600
3.735199;0.004974;-0.588600;2.001240;-9.888480
3.740204;0.005005;-0.588600;1.883520;-10.123920
3.745209;0.005005;-0.588600;1.765800;-9.888480
3.750183;0.004974;-0.941760;1.883520;-9.653040
3.755188;0.005005;-0.588600;1.765800;-9.064440
3.760193;0.005005;-0.470880;1.883520;-9.182160
3.765167;0.004974;-0.588600;1.883520;-9.770760
3.770172;0.005005;-0.824040;1.765800;-9.417600
3.775177;0.005005;-0.824040;1.883520;-9.299880
3.780151;0.004974;-0.824040;1.883520;-9.770760
3.785156;0.005005;-0.470880;2.001240;-10.006200
3.790161;0.005005;-0.470880;2.001240;-9.182160
3.795135;0.004974;-0.588600;2.001240;-9.417600
3.800140;0.005005;-0.824040;2.001240;-9.888480
3.805115;0.004974;-1.294920;1.883520;-9.299880
3.810120;0.005005;-1.294920;2.236680;-9.182160
3.815125;0.005005;-1.412640;2.354400;-9.653040
3.820099;0.004974;-1.412640;2.001240;-9.182160
3.825104;0.005005;-1.412640;2.001240;-8.829000
3.830078;0.004974;-1.059480;2.236680;-9.535320
3.835083;0.005005;-0.470880;2.354400;-8.358120
3.840057;0.004974;-0.353160;2.589840;-10.477080
3.845062;0.005005;-0.235440;2.707560;-9.535320
3.850067;0.005005;-0.353160;2.472120;-8.829000
3.855042;0.004974;-0.117720;2.001240;-9.535320
3.860046;0.005005;-0.706320;1.765800;-9.653040
3.865021;0.004974;-0.824040;1.294920;-9.653040
3.870026;0.005005;-0.706320;1.294920;-9.535320
3.875000;0.004974;-0.824040;1.059480;-9.535320
3.880005;0.005005;-1.294920;1.294920;-9.299880
3.884979;0.004974;-1.412640;1.530360;-9.535320
3.889984;0.005005;-1.294920;1.648080;-9.653040
3.894989;0.005005;-1.294920;1.648080;-9.535320
3.899963;0.004974;-1.177200;1.648080;-9.299880
3.904968;0.005005;-1.412640;1.765800;-9.653040
3.909973;0.005005;-1.648080;1.765800;-9.535320
3.914948;0.004974;-1.530360;1.765800;-9.299880
3.919952;0.005005;-1.059480;1.765800;-9.299880
3.924957;0.005005;-1.412640;1.883520;-9.770760
3.929932;0.004974;-1.648080;1.883520;-10.006200
3.934937;0.005005;-1.648080;1.648080;-10.123920
3.939911;0.004974;-1.765800;1.530360;-9.770760
3.944916;0.005005;-1.648080;1.412640;-9.653040
3.949921;0.005005;-1.648080;1.412640;-9.770760
3.954895;0.004974;-1.883520;1.177200;-9.417600
3.959900;0.005005;-1.883520;0.706320;-9.888480
3.964905;0.005005;-1.883520;0.470880;-9.770760
3.969879;0.004974;-1.883520;0.470880;-9.535320
3.974884;0.005005;-2.001240;0.824040;-9.064440
3.979889;0.005005;-1.883520;1.059480;-8.946720
3.984863;0.004974;-1.883520;1.412640;-10.123920
3.989868;0.005005;-2.472120;1.294920;-10.594800
3.994843;0.004974;-2.472120;1.530360;-9.417600
3.999847;0.005005;-2.118960;2.001240;-8.946720
4.004852;0.005005;-2.118960;2.118960;-8.946720
4.009827;0.004974;-2.001240;2.001240;-8.829000
4.014832;0.005005;-1.883520;2.001240;-8.711280
4.019806;0.004974;-1.765800;1.883520;-8.593560
4.024811;0.005005;-1.765800;1.648080;-9.064440
4.029816;0.005005;-1.765800;1.530360;-9.653040
4.034790;0.004974;-1.883520;1.294920;-9.770760
4.039795;0.005005;-2.001240;1.177200;-9.770760
4.044800;0.005005;-1.648080;0.824040;-9.770760
4.049774;0.004974;-1.648080;0.588600;-9.653040
4.054779;0.005005;-1.765800;0.588600;-9.653040
4.059784;0.005005;-1.765800;0.588600;-9.888480
4.064789;0.005005;-1.648080;0.706320;-9.888480
4.069763;0.004974;-1.648080;1.177200;-9.888480
4.074768;0.005005;-1.648080;1.530360;-9.653040
4.079742;0.004974;-1.648080;1.648080;-9.535320
4.084747;0.005005;-1.765800;1.648080;-9.417600
4.089722;0.004974;-1.648080;1.530360;-9.535320
4.094727;0.005005;-1.765800;1.294920;-9.417600
4.099731;0.005005;-1.412640;0.706320;-9.653040
4.104706;0.004974;-1.648080;0.706320;-9.653040
4.109711;0.005005;-1.530360;0.824040;-9.653040
4.114716;0.005005;-1.412640;1.059480;-9.653040
4.119690;0.004974;-1.412640;1.177200;-9.417600
4.124695;0.005005;-1.412640;1.177200;-9.064440
4.129669;0.004974;-1.648080;1.412640;-9.182160
4.134674;0.005005;-1.648080;1.412640;-9.182160
4.139679;0.005005;-1.648080;1.530360;-9.064440
4.144653;0.004974;-1.412640;1.765800;-9.417600
4.149658;0.005005;-1.648080;1.530360;-9.770760
4.154633;0.004974;-2.236680;0.824040;-10.241640
4.159637;0.005005;-2.118960;0.706320;-10.241640
4.164642;0.005005;-1.883520;1.294920;-9.888480
4.169617;0.004974;-1.883520;1.412640;-9.653040
4.174622;0.005005;-1.883520;1.648080;-9.182160
4.179596;0.004974;-1.883520;1.765800;-9.299880
4.184601;0.005005;-1.765800;1.883520;-9.299880
4.189575;0.004974;-1.765800;1.765800;-9.535320
4.194580;0.005005;-1.648080;1.648080;-9.299880
4.199585;0.005005;-1.530360;1.412640;-9.417600
4.204559;0.004974;-1.530360;0.824040;-9.417600
4.209564;0.005005;-1.412640;0.588600;-9.535320
4.214539;0.004974;-1.765800;0.588600;-9.653040
4.219543;0.005005;-1.648080;0.706320;-10.006200
4.224548;0.005005;-1.765800;1.059480;-9.770760
4.229523;0.004974;-1.765800;1.059480;-10.006200
4.234528;0.005005;-1.765800;1.412640;-9.653040
4.239532;0.005005;-1.530360;1.412640;-9.888480
4.244507;0.004974;-1.530360;1.294920;-9.888480
4.249512;0.005005;-1.648080;1.294920;-10.006200
4.254517;0.005005;-1.883520;1.059480;-9.888480
4.259491;0.004974;-1.765800;0.941760;-9.888480
4.264496;0.005005;-1.765800;0.941760;-10.006200
4.269470;0.004974;-1.648080;1.294920;-9.653040
4.274475;0.005005;-1.648080;1.294920;-9.653040
4.279449;0.004974;-1.765800;1.530360;-9.888480
4.284454;0.005005;-1.765800;1.530360;-9.535320
4.289459;0.005005;-1.765800;1.294920;-9.535320
4.294434;0.004974;-1.648080;1.412640;-9.535320
4.299438;0.005005;-1.765800;1.412640;-9.653040
4.304413;0.004974;-1.765800;1.412640;-9.653040
4.309418;0.005005;-1.765800;1.294920;-9.535320
4.314423;0.005005;-1.765800;1.294920;-9.888480
4.319397;0.004974;-1.765800;1.294920;-9.888480
4.324402;0.005005;-1.765800;1.059480;-9.770760
4.329407;0.005005;-1.765800;1.412640;-9.417600
4.334381;0.004974;-1.765800;1.412640;-9.770760
4.339386;0.005005;-1.765800;1.412640;-9.770760
4.344391;0.005005;-1.765800;1.412640;-9.888480
4.349365;0.004974;-1.765800;1.412640;-9.888480
4.354370;0.005005;-1.765800;1.412640;-10.123920
4.359375;0.005005;-1.765800;1.059480;-10.123920
4.364349;0.004974;-1.530360;1.294920;-9.770760
4.369354;0.005005;-1.648080;1.294920;-9.653040
4.374329;0.004974;-1.765800;1.177200;-9.888480
4.379333;0.005005;-1.765800;1.294920;-9.888480
4.384338;0.005005;-1.765800;1.294920;-9.653040
4.389313;0.004974;-1.765800;1.294920;-9.182160
4.394318;0.005005;-1.765800;1.412640;-9.417600
4.399323;0.005005;-1.765800;1.530360;-9.653040
4.404297;0.004974;-1.765800;1.412640;-9.770760
4.409302;0.005005;-1.765800;1.177200;-9.535320
4.414276;0.004974;-1.765800;1.294920;-9.770760
4.419281;0.005005;-1.765800;1.294920;-9.653040
4.424286;0.005005;-1.765800;1.294920;-9.888480
4.429260;0.004974;-1.765800;1.412640;-9.888480
4.434265;0.005005;-1.883520;1.530360;-9.535320
4.439240;0.004974;-1.883520;1.765800;-9.770760
4.444244;0.005005;-1.765800;1.883520;-9.888480
4.449249;0.005005;-1.883520;1.883520;-9.770760
4.454254;0.005005;-1.765800;1.648080;-9.770760
4.459229;0.004974;-1.765800;1.648080;-9.535320
4.464233;0.005005;-1.765800;1.412640;-9.535320
4.469238;0.005005;-1.765800;1.177200;-9.653040
4.474213;0.004974;-1.765800;1.059480;-9.770760
4.479218;0.005005;-1.765800;1.177200;-9.770760
4.484192;0.004974;-1.765800;1.177200;-9.888480
4.489197;0.005005;-1.648080;1.530360;-9.888480
4.494202;0.005005;-1.765800;1.412640;-9.770760
4.499176;0.004974;-1.765800;1.530360;-9.535320
4.504181;0.005005;-1.765800;1.648080;-9.299880
4.509155;0.004974;-1.765800;1.648080;-9.535320
4.514160;0.005005;-1.765800;1.412640;-9.417600
4.519165;0.005005;-1.765800;1.294920;-9.417600
4.524139;0.004974;-1.530360;1.648080;-9.299880
4.529144;0.005005;-1.412640;1.648080;-9.770760
4.534149;0.005005;-1.530360;1.648080;-10.123920
4.539124;0.004974;-1.530360;1.177200;-10.006200
4.544128;0.005005;-1.530360;0.824040;-9.417600
4.549103;0.004974;-1.648080;0.824040;-9.535320
4.554108;0.005005;-1.765800;0.941760;-9.535320
4.559082;0.004974;-1.765800;1.059480;-9.770760
4.564087;0.005005;-1.765800;0.941760;-9.888480
4.569092;0.005005;-1.765800;1.294920;-9.888480
4.574066;0.004974;-1.883520;1.059480;-9.888480
4.579071;0.005005;-1.883520;1.294920;-9.299880
4.584045;0.004974;-2.001240;1.294920;-9.182160
4.589050;0.005005;-1.883520;1.648080;-9.417600
4.594025;0.004974;-1.883520;1.294920;-9.653040
4.599030;0.005005;-1.883520;1.294920;-9.770760
4.604034;0.005005;-1.883520;1.412640;-9.653040
4.609009;0.004974;-1.765800;1.412640;-9.417600
4.614014;0.005005;-1.412640;1.412640;-9.417600
4.619019;0.005005;-1.648080;1.059480;-9.888480
4.623993;0.004974;-1.883520;0.470880;-10.123920
4.628998;0.005005;-2.001240;-0.588600;-10.241640
4.634003;0.005005;-1.883520;-1.059480;-9.653040
4.638977;0.004974;-1.765800;-0.941760;-9.064440
4.643982;0.005005;-1.530360;-0.235440;-8.829000
4.648987;0.005005;-1.530360;0.706320;-8.829000
4.653961;0.004974;-1.648080;0.824040;-8.358120
4.658966;0.005005;-1.883520;1.059480;-8.829000
4.663971;0.005005;-2.001240;1.412640;-9.182160
4.668945;0.004974;-1.883520;1.177200;-9.535320
4.673950;0.005005;-1.883520;1.177200;-9.535320
4.678955;0.005005;-1.883520;0.941760;-9.417600
4.683929;0.004974;-1.883520;0.470880;-9.299880
4.688934;0.005005;-1.883520;0.353160;-9.417600
4.693909;0.004974;-1.765800;0.235440;-9.770760
4.698914;0.005005;-1.765800;0.117720;-9.535320
4.703918;0.005005;-1.765800;0.588600;-9.535320
4.708893;0.004974;-1.765800;0.706320;-9.653040
4.713898;0.005005;-1.765800;0.706320;-9.770760
4.718903;0.005005;-1.765800;0.706320;-9.888480
4.723877;0.004974;-1.765800;0.941760;-9.888480
4.728882;0.005005;-1.765800;0.824040;-9.888480
4.733887;0.005005;-1.648080;0.824040;-9.888480
4.738861;0.004974;-1.765800;0.706320;-9.770760
4.743866;0.005005;-1.765800;0.588600;-9.653040
4.748871;0.005005;-1.648080;0.824040;-9.535320
4.753845;0.004974;-1.765800;0.824040;-9.417600
4.758850;0.005005;-1.765800;0.706320;-9.653040
4.763855;0.005005;-1.412640;0.588600;-9.770760
4.768829;0.004974;-1.294920;1.059480;-9.417600
4.773834;0.005005;-1.059480;1.412640;-8.946720
4.778809;0.004974;-1.294920;1.412640;-9.182160
4.783813;0.005005;-1.294920;1.412640;-9.299880
4.788788;0.004974;-1.294920;1.648080;-9.888480
4.793793;0.005005;-1.294920;0.941760;-9.888480
4.798798;0.005005;-1.059480;1.177200;-10.006200
4.803772;0.004974;-1.059480;1.294920;-10.006200
4.808777;0.005005;-1.294920;0.941760;-9.888480
4.813782;0.005005;-1.294920;1.177200;-10.006200
4.818756;0.004974;-1.294920;0.824040;-9.535320
4.823761;0.005005;-1.412640;0.588600;-9.653040
4.828766;0.005005;-1.530360;0.706320;-10.006200
4.833740;0.004974;-1.648080;0.941760;-10.123920
4.838745;0.005005;-1.765800;0.824040;-9.770760
4.843719;0.004974;-1.648080;0.824040;-9.417600
4.848724;0.005005;-1.648080;0.941760;-9.770760
4.853729;0.005005;-1.883520;0.706320;-9.535320
4.858704;0.004974;-1.883520;1.059480;-9.535320
4.863708;0.005005;-1.883520;1.412640;-9.299880
4.868683;0.004974;-1.883520;1.530360;-9.182160
4.873688;0.005005;-2.001240;1.530360;-9.299880
4.878693;0.005005;-2.118960;1.648080;-9.064440
4.883667;0.004974;-2.118960;1.765800;-9.417600
4.888672;0.005005;-2.001240;1.648080;-9.770760
4.893646;0.004974;-1.883520;1.530360;-9.535320
4.898651;0.005005;-2.118960;1.648080;-9.770760
4.903656;0.005005;-2.001240;1.530360;-9.653040
4.908630;0.004974;-1.883520;1.765800;-9.417600
4.913635;0.005005;-2.118960;1.530360;-9.535320
4.918610;0.004974;-2.001240;1.059480;-9.888480
4.923615;0.005005;-1.765800;0.941760;-9.888480
4.928589;0.004974;-1.648080;0.706320;-9.770760
4.933594;0.005005;-1.765800;0.824040;-9.535320
4.938599;0.005005;-1.765800;0.706320;-9.417600
4.943573;0.004974;-1.765800;0.588600;-9.535320
4.948578;0.005005;-1.765800;1.059480;-9.417600
4.953552;0.004974;-1.765800;0.941760;-9.653040
4.958557;0.005005;-1.765800;1.177200;-10.006200
4.963562;0.005005;-1.765800;1.530360;-9.182160
4.968536;0.004974;-1.648080;1.648080;-9.064440
4.973541;0.005005;-1.765800;1.648080;-9.299880
4.978516;0.004974;-1.765800;1.648080;-9.535320
4.983521;0.005005;-1.765800;1.177200;-9.770760
4.988525;0.005005;-1.883520;0.824040;-9.653040
4.993500;0.004974;-1.883520;0.941760;-9.417600
4.998505;0.005005;-1.648080;1.059480;-9.299880
5.003510;0.005005;-1.648080;1.294920;-9.417600
5.008484;0.004974;-1.765800;1.294920;-9.770760
5.013489;0.005005;-1.765800;1.294920;-9.417600
5.018463;0.004974;-1.765800;1.412640;-9.535320
5.023468;0.005005;-1.765800;1.294920;-9.535320
5.028442;0.004974;-1.648080;1.294920;-9.535320
5.033447;0.005005;-1.765800;1.177200;-9.535320
5.038452;0.005005;-1.765800;1.177200;-9.653040
5.043427;0.004974;-1.765800;0.941760;-9.653040
5.048431;0.005005;-1.765800;1.059480;-9.653040
5.053436;0.005005;-1.765800;1.177200;-9.299880
5.058411;0.004974;-1.765800;1.177200;-9.064440
5.063416;0.005005;-1.765800;1.294920;-9.299880
5.068390;0.004974;-1.765800;1.294920;-9.299880
5.073395;0.005005;-1.765800;0.941760;-9.417600
5.078400;0.005005;-1.765800;1.294920;-9.770760
5.083374;0.004974;-1.765800;1.294920;-9.653040
5.088379;0.005005;-1.648080;1.294920;-9.653040
5.093384;0.005005;-1.765800;1.294920;-9.653040
5.098358;0.004974;-1.765800;1.412640;-10.006200
5.103363;0.005005;-1.765800;1.412640;-10.006200
5.108337;0.004974;-1.648080;1.412640;-9.535320
5.113342;0.005005;-1.765800;1.177200;-9.653040
5.118347;0.005005;-1.765800;1.294920;-9.535320
5.123322;0.004974;-1.883520;1.412640;-9.535320
5.128326;0.005005;-1.765800;1.412640;-9.535320
5.133301;0.004974;-1.765800;1.412640;-9.653040
5.138306;0.005005;-1.765800;1.294920;-9.417600
5.143280;0.004974;-1.765800;1.412640;-9.535320
5.148285;0.005005;-1.765800;1.059480;-9.770760
5.153290;0.005005;-1.765800;1.412640;-9.535320
5.158264;0.004974;-1.765800;1.059480;-9.653040
5.163269;0.005005;-1.765800;0.824040;-9.888480
5.168243;0.004974;-1.765800;1.177200;-9.417600
5.173248;0.005005;-1.530360;1.294920;-9.182160
5.178253;0.005005;-1.648080;1.412640;-9.417600
5.183228;0.004974;-1.883520;0.941760;-9.417600
5.188232;0.005005;-1.883520;0.706320;-9.888480
5.193207;0.004974;-1.883520;0.941760;-10.123920
5.198212;0.005005;-1.765800;0.824040;-9.888480
5.203186;0.004974;-1.765800;1.294920;-9.535320
5.208191;0.005005;-1.765800;1.294920;-9.182160
5.213196;0.005005;-1.648080;0.941760;-9.417600
5.218170;0.004974;-1.765800;0.941760;-9.535320
5.223175;0.005005;-1.883520;1.059480;-9.888480
5.228149;0.004974;-1.883520;0.706320;-10.006200
5.233154;0.005005;-1.883520;0.706320;-9.888480
5.238159;0.005005;-1.765800;0.588600;-9.770760
5.243134;0.004974;-1.648080;0.941760;-9.417600
5.248138;0.005005;-1.648080;0.941760;-9.182160
5.253113;0.004974;-1.648080;1.294920;-9.182160
5.258118;0.005005;-1.765800;1.530360;-8.829000
5.263123;0.005005;-1.765800;1.765800;-8.829000
5.268097;0.004974;-1.765800;1.883520;-9.299880
5.273102;0.005005;-1.765800;1.883520;-9.417600
5.278107;0.005005;-1.765800;1.765800;-9.653040
5.283081;0.004974;-1.883520;1.883520;-9.535320
5.288086;0.005005;-2.001240;1.883520;-9.535320
5.293060;0.004974;-1.765800;1.648080;-9.299880
5.298065;0.005005;-1.883520;1.412640;-9.417600
5.303070;0.005005;-1.883520;1.294920;-9.535320
5.308044;0.004974;-1.883520;1.059480;-9.770760
5.313049;0.005005;-1.883520;1.412640;-10.006200
5.318054;0.005005;-1.883520;1.412640;-10.006200
5.323029;0.004974;-1.765800;1.412640;-9.299880
5.328033;0.005005;-1.765800;1.530360;-9.299880
5.333008;0.004974;-1.765800;1.530360;-9.299880
5.338013;0.005005;-1.765800;1.648080;-9.535320
5.343018;0.005005;-1.765800;1.648080;-9.770760
5.347992;0.004974;-1.648080;1.530360;-9.535320
5.352997;0.005005;-1.765800;1.648080;-9.770760
5.358002;0.005005;-1.765800;1.530360;-9.770760
5.362976;0.004974;-1.648080;1.412640;-9.653040
5.367981;0.005005;-1.765800;1.530360;-9.770760
5.372955;0.004974;-1.765800;1.530360;-9.535320
5.377960;0.005005;-1.765800;1.530360;-9.417600
5.382965;0.005005;-1.765800;1.765800;-9.535320
5.387939;0.004974;-1.765800;1.883520;-9.299880
5.392944;0.005005;-1.765800;1.883520;-9.182160
5.397919;0.004974;-1.765800;1.648080;-9.417600
5.402924;0.005005;-1.648080;1.648080;-9.653040
5.407928;0.005005;-1.765800;1.412640;-9.182160
5.412903;0.004974;-1.765800;1.530360;-9.417600
5.417908;0.005005;-1.765800;1.530360;-9.653040
5.422913;0.005005;-1.765800;1.765800;-9.299880
5.427887;0.004974;-1.765800;1.648080;-9.535320
5.432892;0.005005;-1.883520;1.530360;-9.535320
5.437897;0.005005;-1.765800;1.530360;-9.653040
5.442871;0.004974;-1.765800;1.294920;-9.888480
5.447876;0.005005;-1.648080;0.941760;-9.770760
5.452881;0.005005;-1.883520;1.059480;-9.888480
5.457855;0.004974;-1.648080;1.177200;-9.888480
5.462860;0.005005;-1.648080;1.177200;-9.770760
5.467834;0.004974;-1.648080;1.294920;-9.417600
5.472839;0.005005;-1.765800;1.530360;-9.653040
5.477814;0.004974;-1.765800;1.530360;-9.417600
5.482819;0.005005;-1.883520;1.177200;-9.182160
5.487823;0.005005;-1.883520;1.294920;-9.299880
5.492798;0.004974;-1.883520;1.412640;-9.417600
5.497803;0.005005;-2.001240;1.530360;-9.653040
5.502808;0.005005;-1.883520;1.294920;-9.888480
5.507782;0.004974;-2.118960;0.941760;-10.594800
5.512787;0.005005;-2.001240;0.470880;-10.477080
5.517761;0.004974;-1.883520;0.588600;-10.359360
5.522766;0.005005;-1.883520;0.588600;-10.359360
5.527771;0.005005;-1.765800;0.824040;-10.241640
5.532745;0.004974;-1.059480;1.294920;-10.006200
5.537750;0.005005;0.235440;2.236680;-15.421320
5.542725;0.004974;0.000000;2.236680;-12.125160
5.547729;0.005005;-0.470880;2.001240;-10.241640
5.552734;0.005005;-0.941760;1.765800;-9.535320
5.557709;0.004974;-0.941760;1.765800;-9.653040
5.562714;0.005005;-0.706320;1.765800;-9.653040
5.567719;0.005005;-0.941760;1.883520;-9.653040
5.572693;0.004974;-1.412640;1.883520;-9.653040
5.577698;0.005005;-1.530360;1.883520;-9.535320
5.582672;0.004974;-1.530360;1.883520;-9.653040
5.587677;0.005005;-1.412640;1.883520;-9.770760
5.592682;0.005005;-1.530360;1.765800;-9.653040
5.597656;0.004974;-1.530360;1.765800;-9.535320
5.602661;0.005005;-1.648080;1.883520;-9.653040
5.607635;0.004974;-1.765800;1.648080;-9.888480
5.612640;0.005005;-1.765800;1.530360;-9.653040
5.617645;0.005005;-1.765800;1.530360;-10.006200
5.622620;0.004974;-1.765800;1.412640;-10.006200
5.627625;0.005005;-1.765800;1.177200;-10.006200
5.632599;0.004974;-1.765800;1.294920;-10.123920
5.637604;0.005005;-1.765800;1.294920;-10.241640
5.642609;0.005005;-1.883520;1.530360;-10.123920
5.647583;0.004974;-1.883520;1.648080;-10.241640
5.652588;0.005005;-1.883520;1.765800;-10.123920
5.657593;0.005005;-1.883520;1.765800;-10.241640
5.662567;0.004974;-0.470880;1.059480;-7.298640
5.667572;0.005005;-0.588600;0.941760;-11.536560
5.672577;0.005005;-0.470880;1.530360;-11.183400
5.677551;0.004974;-0.235440;1.883520;-10.123920
5.682556;0.005005;-0.706320;1.883520;-11.065680
5.687531;0.004974;-0.353160;1.765800;-9.299880
5.692535;0.005005;0.000000;1.883520;-10.477080
5.697510;0.004974;0.000000;1.883520;-10.006200
5.702515;0.005005;0.000000;1.648080;-9.535320
5.707520;0.005005;-0.824040;1.530360;-9.770760
5.712494;0.004974;-0.470880;1.765800;-9.770760
5.717499;0.005005;-0.470880;1.648080;-9.888480
5.722473;0.004974;-0.706320;1.530360;-10.241640
5.727478;0.005005;-0.824040;1.765800;-10.241640
5.732483;0.005005;-0.824040;1.883520;-9.653040
5.737457;0.004974;-0.235440;1.883520;-9.299880
5.742462;0.005005;-0.353160;1.883520;-9.653040
5.747437;0.004974;-0.588600;1.765800;-9.888480
5.752441;0.005005;-0.824040;2.001240;-9.417600
5.757446;0.005005;-0.941760;2.001240;-9.182160
5.762421;0.004974;-0.824040;2.236680;-8.829000
5.767426;0.005005;-0.824040;2.472120;-8.946720
5.772400;0.004974;-0.824040;2.354400;-8.829000
5.777405;0.005005;-1.059480;2.472120;-8.946720
5.782379;0.004974;-0.941760;2.354400;-9.182160
5.787384;0.005005;-1.059480;2.354400;-9.182160
5.792389;0.005005;-1.177200;2.236680;-9.653040
5.797363;0.004974;-1.177200;2.118960;-9.770760
5.802368;0.005005;-1.294920;2.118960;-9.653040
5.807343;0.004974;-1.530360;2.001240;-9.535320
5.812347;0.005005;-1.412640;2.001240;-9.770760
5.817352;0.005005;-1.177200;2.001240;-9.653040
5.822327;0.004974;-1.294920;2.118960;-9.888480
5.827332;0.005005;-1.530360;2.001240;-10.123920
5.832306;0.004974;-1.412640;2.001240;-10.123920
5.837311;0.005005;-1.294920;2.001240;-10.123920
5.842316;0.005005;-1.059480;2.001240;-9.888480
5.847290;0.004974;-0.470880;2.001240;-8.240400
5.852295;0.005005;-0.941760;2.001240;-9.417600
5.857269;0.004974;-0.824040;1.883520;-9.888480
5.862274;0.005005;-0.941760;1.530360;-10.123920
5.867279;0.005005;-0.824040;1.648080;-9.888480
5.872253;0.004974;-0.941760;1.765800;-10.006200
5.877258;0.005005;-1.177200;1.883520;-9.888480
5.882233;0.004974;-0.824040;1.883520;-9.182160
5.887238;0.005005;-0.824040;2.001240;-9.064440
5.892212;0.004974;-0.588600;2.118960;-9.182160
5.897217;0.005005;-0.470880;2.001240;-9.182160
5.902222;0.005005;-0.588600;2.001240;-9.064440
5.907196;0.004974;-0.706320;2.001240;-9.299880
5.912201;0.005005;-0.588600;2.001240;-8.946720
5.917175;0.004974;-0.941760;2.001240;-9.182160
5.922180;0.005005;-0.706320;2.001240;-9.299880
5.927185;0.005005;-0.470880;2.001240;-9.182160
5.932159;0.004974;-0.235440;1.765800;-9.535320
5.937164;0.005005;0.000000;1.765800;-8.946720
5.942169;0.005005;-0.117720;1.412640;-8.946720
5.947144;0.004974;-0.470880;1.294920;-8.829000
5.952148;0.005005;-1.177200;1.177200;-9.064440
5.957123;0.004974;-1.648080;0.824040;-9.535320
5.962128;0.005005;-1.883520;0.117720;-11.301120
5.967133;0.005005;-2.354400;0.235440;-11.889720
5.972107;0.004974;-2.825280;-0.235440;-10.947960
5.977112;0.005005;-2.707560;0.824040;-10.123920
5.982086;0.004974;-2.354400;1.412640;-9.888480
5.987091;0.005005;-1.530360;1.530360;-9.888480
5.992096;0.005005;-0.235440;1.765800;-9.770760
5.997070;0.004974;-0.235440;1.883520;-9.653040
6.002075;0.005005;-0.353160;1.883520;-9.299880
6.007050;0.004974;-0.470880;1.883520;-9.299880
6.012054;0.005005;-1.177200;1.530360;-9.653040
6.017029;0.004974;-1.765800;1.765800;-9.770760
6.022034;0.005005;-1.294920;1.883520;-11.301120
6.027039;0.005005;-0.824040;1.765800;-9.888480
6.032013;0.004974;-1.294920;1.883520;-10.006200
6.037018;0.005005;-1.412640;1.883520;-9.653040
6.041992;0.004974;-1.530360;1.883520;-10.594800
6.046997;0.005005;-1.294920;2.118960;-10.006200
6.052002;0.005005;-1.530360;2.001240;-9.770760
6.056976;0.004974;-1.412640;2.118960;-9.888480
6.061981;0.005005;-1.412640;2.118960;-9.299880
6.066956;0.004974;-1.530360;2.118960;-9.535320
6.071960;0.005005;-1.530360;2.236680;-9.182160
6.076965;0.005005;-1.648080;2.118960;-9.064440
6.081940;0.004974;-1.765800;2.001240;-9.182160
6.086945;0.005005;-1.530360;2.001240;-9.417600
6.091949;0.005005;-1.530360;2.118960;-9.770760
6.096924;0.004974;-1.530360;1.883520;-9.770760
6.101929;0.005005;-1.530360;1.883520;-9.535320
6.106903;0.004974;-1.648080;1.883520;-9.770760
6.111908;0.005005;-1.530360;2.118960;-9.653040
6.116913;0.005005;-1.648080;2.001240;-9.535320
6.121887;0.004974;-1.648080;2.001240;-9.535320
6.126892;0.005005;-1.530360;2.001240;-9.182160
6.131866;0.004974;-1.059480;2.001240;-9.417600
6.136871;0.005005;0.117720;1.412640;-6.827760
6.141876;0.005005;0.235440;1.765800;-10.123920
6.146851;0.004974;0.000000;2.001240;-9.299880
6.151855;0.005005;0.000000;2.118960;-9.535320
6.156830;0.004974;-0.117720;2.001240;-9.182160
6.161835;0.005005;0.000000;2.001240;-9.182160
6.166840;0.005005;-0.235440;1.883520;-9.299880
6.171814;0.004974;-0.824040;1.412640;-9.770760
6.176819;0.005005;-0.353160;1.177200;-9.653040
6.181824;0.005005;-1.177200;0.706320;-11.889720
6.186798;0.004974;-1.294920;0.000000;-11.065680
6.191803;0.005005;-1.059480;-0.353160;-10.594800
6.196777;0.004974;-0.470880;-0.588600;-10.241640
6.201782;0.005005;-0.941760;-0.353160;-10.359360
6.206787;0.005005;-1.059480;-0.117720;-10.359360
6.211761;0.004974;-0.824040;0.000000;-10.123920
6.216766;0.005005;-0.941760;0.117720;-10.123920
6.221741;0.004974;-1.059480;0.353160;-10.006200
6.226746;0.005005;-1.059480;1.177200;-12.478320
6.231750;0.005005;-0.706320;1.530360;-11.418840
6.236725;0.004974;-1.059480;1.648080;-10.594800
6.241730;0.005005;-0.941760;1.765800;-10.123920
6.246704;0.004974;-0.941760;1.883520;-9.653040
6.251709;0.005005;-0.824040;1.765800;-9.299880
6.256683;0.004974;-0.470880;1.883520;-9.182160
6.261688;0.005005;-0.706320;1.883520;-9.064440
6.266663;0.004974;-1.059480;1.883520;-9.417600
6.271667;0.005005;-1.177200;1.883520;-9.535320
6.276672;0.005005;-1.294920;1.765800;-9.535320
6.281647;0.004974;-1.177200;1.530360;-9.535320
6.286652;0.005005;-1.059480;1.648080;-9.770760
6.291656;0.005005;-1.294920;1.530360;-9.888480
6.296631;0.004974;-1.059480;1.412640;-9.888480
6.301636;0.005005;-0.706320;1.530360;-9.653040
6.306641;0.005005;-0.824040;1.294920;-9.888480
6.311646;0.005005;-0.941760;1.177200;-10.006200
6.316620;0.004974;-0.706320;1.294920;-9.888480
6.321625;0.005005;-1.059480;1.059480;-9.770760
6.326599;0.004974;-0.824040;0.824040;-10.006200
6.331604;0.005005;-0.824040;0.588600;-9.770760
6.336609;0.005005;-0.824040;0.824040;-9.770760
6.341583;0.004974;-0.941760;0.824040;-9.888480
6.346588;0.005005;-1.059480;1.177200;-9.770760
6.351593;0.005005;-0.824040;1.059480;-9.888480
6.356567;0.004974;-0.588600;1.294920;-9.888480
6.361572;0.005005;-0.706320;0.941760;-10.006200
6.366577;0.005005;-0.824040;1.177200;-10.006200
6.371552;0.004974;-1.059480;1.412640;-9.888480
6.376556;0.005005;-0.941760;1.648080;-9.770760
6.381561;0.005005;-1.177200;1.648080;-9.770760
6.386536;0.004974;-0.470880;1.765800;-8.829000
6.391541;0.005005;-0.824040;1.883520;-9.653040
6.396545;0.005005;-0.706320;1.883520;-9.064440
6.401520;0.004974;-0.941760;2.118960;-9.182160
6.406525;0.005005;-0.470880;2.236680;-8.711280
6.411499;0.004974;-1.177200;2.354400;-9.182160
6.416504;0.005005;-1.530360;2.236680;-9.182160
6.421509;0.005005;-0.941760;2.472120;-8.829000
6.426483;0.004974;-0.941760;2.472120;-8.946720
6.431488;0.005005;-1.177200;2.236680;-8.829000
6.436462;0.004974;-1.177200;2.354400;-8.946720
6.441467;0.005005;-0.706320;2.001240;-8.711280
6.446472;0.005005;-0.941760;2.001240;-9.299880
6.451447;0.004974;-0.588600;2.001240;-9.535320
6.456451;0.005005;-0.941760;2.001240;-9.770760
6.461456;0.005005;-0.706320;2.001240;-9.653040
6.466431;0.004974;-0.706320;2.001240;-9.653040
6.471436;0.005005;-0.588600;1.765800;-9.653040
6.476440;0.005005;-0.706320;1.765800;-10.006200
6.481415;0.004974;-0.470880;1.530360;-9.770760
6.486420;0.005005;-0.470880;1.530360;-9.888480
6.491425;0.005005;-0.824040;1.648080;-9.770760
6.496399;0.004974;-0.824040;1.765800;-9.770760
6.501404;0.005005;-0.706320;1.765800;-9.888480
6.506378;0.004974;-0.588600;1.883520;-9.653040
6.511383;0.005005;-0.235440;2.001240;-9.653040
6.516388;0.005005;-0.353160;2.001240;-9.417600
6.521362;0.004974;-0.117720;2.001240;-8.946720
6.526367;0.005005;-0.235440;2.118960;-9.064440
6.531372;0.005005;-0.706320;2.001240;-9.299880
6.536346;0.004974;-0.824040;2.001240;-9.535320
6.541351;0.005005;-0.941760;2.236680;-9.653040
6.546326;0.004974;-1.177200;2.118960;-9.417600
6.551331;0.005005;-1.294920;2.001240;-9.770760
6.556335;0.005005;-1.177200;2.001240;-9.535320
6.561310;0.004974;-1.177200;2.001240;-9.770760
6.566315;0.005005;-1.177200;2.236680;-9.535320
6.571320;0.005005;-0.824040;2.118960;-9.653040
6.576294;0.004974;-1.059480;2.001240;-9.888480
6.581299;0.005005;-0.941760;2.001240;-9.888480
6.586304;0.005005;-0.941760;2.118960;-9.770760
6.591278;0.004974;-1.059480;2.001240;-9.653040
6.596283;0.005005;-0.824040;2.236680;-9.182160
6.601257;0.004974;-0.706320;2.472120;-9.888480
6.606262;0.005005;-0.470880;2.589840;-9.770760
6.611267;0.005005;-0.235440;2.472120;-9.653040
6.616241;0.004974;-0.235440;2.236680;-9.299880
6.621246;0.005005;-0.117720;2.589840;-9.417600
6.626251;0.005005;-0.117720;2.589840;-9.182160
6.631226;0.004974;0.235440;2.354400;-8.946720
6.636230;0.005005;0.117720;2.472120;-8.946720
6.641235;0.005005;-0.117720;3.178440;-8.829000
6.646210;0.004974;-0.470880;3.884760;-8.711280
6.651215;0.005005;-0.588600;3.531600;-8.122680
6.656219;0.005005;-0.470880;3.649320;-8.593560
6.661194;0.004974;-0.235440;4.002480;-8.358120
6.666199;0.005005;-0.235440;4.002480;-8.122680
6.671204;0.005005;-0.235440;4.708800;-8.240400
6.676178;0.004974;-0.470880;4.708800;-8.240400
6.681183;0.005005;-0.588600;4.591080;-8.240400
6.686157;0.004974;-0.235440;4.826520;-8.240400
6.691162;0.005005;-0.706320;5.415120;-8.004960
6.696167;0.005005;-1.059480;5.532840;-8.004960
6.701141;0.004974;-0.824040;5.532840;-7.534080
6.706146;0.005005;-0.941760;6.592320;-8.240400
6.711151;0.005005;-0.470880;6.474600;-7.651800
6.716125;0.004974;-0.824040;6.121440;-7.063200
6.721130;0.005005;-0.588600;6.003720;-6.710040
6.726135;0.005005;-0.706320;6.474600;-6.121440
6.731110;0.004974;-0.470880;6.592320;-6.239160
6.736115;0.005005;-0.706320;6.592320;-5.532840
6.741089;0.004974;-1.177200;6.356880;-5.297400
6.746094;0.005005;-1.294920;6.827760;-5.650560
6.751099;0.005005;-1.412640;6.710040;-5.650560
6.756073;0.004974;-1.412640;6.592320;-5.297400
6.761078;0.005005;-1.648080;6.945480;-4.591080
6.766083;0.005005;-1.530360;7.063200;-4.002480
6.771057;0.004974;-1.648080;8.711280;-4.355640
6.776062;0.005005;-1.294920;9.653040;-3.531600
6.781036;0.004974;-0.588600;5.768280;-1.059480
6.786041;0.005005;-1.059480;2.943000;-0.117720
6.791046;0.005005;-2.354400;15.421320;3.413880
6.796021;0.004974;-1.765800;11.183400;2.001240
6.801025;0.005005;-1.177200;9.888480;1.530360
6.806030;0.005005;-1.530360;9.064440;2.001240
6.811035;0.005005;-1.530360;8.946720;2.354400
6.816010;0.004974;-1.177200;4.826520;2.001240
6.821014;0.005005;1.530360;6.945480;1.177200
6.825989;0.004974;1.177200;12.949200;0.117720
6.830994;0.005005;0.824040;11.065680;2.001240
6.835999;0.005005;0.470880;5.179680;-0.941760
6.840973;0.004974;-0.824040;10.477080;3.767040
6.845978;0.005005;-1.294920;8.475840;2.707560
6.850983;0.005005;-1.530360;8.711280;2.472120
6.855957;0.004974;-1.530360;9.064440;2.236680
6.860962;0.005005;-0.824040;9.417600;2.001240
6.865936;0.004974;-0.588600;9.417600;1.883520
6.870941;0.005005;-0.588600;9.535320;1.765800
6.875946;0.005005;-0.824040;9.770760;1.294920
6.880920;0.004974;-0.470880;9.535320;1.294920
6.885925;0.005005;-0.470880;9.770760;0.941760
6.890930;0.005005;-0.941760;9.653040;0.706320
6.895905;0.004974;-0.588600;9.770760;1.294920
6.900909;0.005005;-0.353160;9.770760;1.177200
6.905884;0.004974;-0.235440;9.888480;1.294920
6.910889;0.005005;-0.470880;9.535320;1.412640
6.915894;0.005005;0.235440;7.063200;0.588600
6.920868;0.004974;0.588600;7.298640;0.706320
6.925873;0.005005;0.470880;8.475840;0.470880
6.930847;0.004974;0.235440;8.946720;0.824040
6.935852;0.005005;0.470880;9.770760;0.824040
6.940857;0.005005;0.353160;10.241640;1.294920
6.945831;0.004974;0.235440;9.653040;0.941760
6.950836;0.005005;0.941760;10.712520;0.941760
6.955811;0.004974;0.706320;10.123920;0.706320
6.960815;0.005005;0.353160;9.888480;0.235440
6.965820;0.005005;0.117720;9.653040;0.117720
6.970795;0.004974;0.117720;9.535320;0.824040
6.975800;0.005005;0.000000;9.535320;0.706320
6.980774;0.004974;0.000000;9.417600;0.588600
6.985779;0.005005;0.000000;9.535320;0.941760
6.990784;0.005005;-0.117720;10.123920;0.824040
6.995758;0.004974;-0.117720;10.006200;0.588600
7.000763;0.005005;-0.353160;9.770760;0.941760
7.005737;0.004974;-0.117720;9.653040;0.824040
7.010742;0.005005;-0.470880;10.241640;0.235440
7.015717;0.004974;-0.588600;10.123920;0.117720
7.020721;0.005005;-0.353160;9.888480;0.706320
7.025726;0.005005;-0.117720;9.770760;1.177200
7.030701;0.004974;-0.117720;9.770760;0.824040
7.035706;0.005005;0.235440;13.066920;2.118960
7.040710;0.005005;0.706320;12.478320;1.412640
7.045685;0.004974;0.824040;11.536560;1.648080
7.050690;0.005005;0.824040;10.712520;1.648080
7.055695;0.005005;0.353160;10.123920;1.648080
7.060669;0.004974;0.117720;9.770760;1.177200
7.065674;0.005005;0.117720;9.888480;0.470880
7.070648;0.004974;-0.588600;6.121440;0.353160
7.075653;0.005005;-0.706320;6.827760;0.000000
7.080658;0.005005;-0.588600;8.475840;-0.824040
7.085632;0.004974;-0.353160;8.946720;-0.706320
7.090637;0.005005;0.235440;11.301120;-0.117720
7.095612;0.004974;0.588600;10.006200;-0.117720
7.100616;0.005005;0.353160;9.770760;-0.353160
7.105621;0.005005;0.941760;9.417600;-0.235440
7.110596;0.004974;0.353160;9.299880;-0.235440
7.115601;0.005005;-0.117720;9.064440;0.353160
7.120575;0.004974;0.117720;9.182160;0.470880
7.125580;0.005005;0.117720;9.182160;0.588600
7.130585;0.005005;0.117720;9.299880;0.941760
7.135559;0.004974;0.588600;11.536560;1.883520
7.140564;0.005005;0.588600;10.477080;1.883520
7.145569;0.005005;0.941760;10.477080;1.294920
7.150543;0.004974;0.353160;10.006200;1.294920
7.155548;0.005005;0.117720;9.770760;1.059480
7.160553;0.005005;-0.235440;9.653040;1.294920
7.165527;0.004974;-0.353160;9.653040;1.294920
7.170532;0.005005;-0.824040;9.653040;1.412640
7.175537;0.005005;-0.470880;9.770760;1.059480
7.180511;0.004974;-0.470880;9.888480;0.941760
7.185516;0.005005;-1.059480;10.123920;1.294920
7.190491;0.004974;-0.706320;9.888480;1.177200
7.195496;0.005005;-0.824040;9.888480;1.177200
7.200470;0.004974;-0.470880;10.006200;1.412640
7.205475;0.005005;-0.470880;9.653040;1.883520
7.210480;0.005005;-0.353160;9.653040;1.648080
7.215454;0.004974;-0.235440;9.535320;1.883520
7.220459;0.005005;-0.235440;9.535320;2.118960
7.225464;0.005005;-0.235440;9.535320;1.294920
7.230438;0.004974;-0.117720;9.535320;1.177200
7.235443;0.005005;-0.117720;9.535320;1.059480
7.240448;0.005005;0.000000;9.653040;0.941760
7.245453;0.005005;-0.117720;9.417600;0.824040
7.250427;0.004974;0.117720;9.417600;0.941760
7.255432;0.005005;0.117720;9.417600;1.059480
7.260406;0.004974;-0.117720;9.299880;1.177200
7.265411;0.005005;-0.235440;9.299880;1.177200
7.270416;0.005005;-0.117720;9.299880;1.294920
7.275391;0.004974;0.000000;9.417600;1.059480
7.280396;0.005005;0.000000;9.417600;1.294920
7.285370;0.004974;-0.117720;9.417600;1.294920
7.290375;0.005005;0.000000;9.299880;1.177200
7.295380;0.005005;-2.236680;8.004960;2.589840
7.300354;0.004974;-1.294920;8.122680;2.707560
7.305328;0.004974;-1.059480;9.653040;1.294920
7.310333;0.005005;-0.470880;9.182160;1.648080
7.315338;0.005005;-0.470880;9.299880;1.177200
7.320312;0.004974;-0.235440;9.417600;1.177200
7.325317;0.005005;-0.117720;9.299880;1.294920
7.330322;0.005005;0.117720;13.184640;0.353160
7.335297;0.004974;-0.117720;11.301120;0.941760
7.340302;0.005005;0.000000;10.006200;1.412640
7.345276;0.004974;-0.117720;9.770760;1.412640
7.350281;0.005005;-0.117720;9.653040;1.294920
7.355286;0.005005;-0.353160;9.417600;1.530360
7.360260;0.004974;-0.117720;9.535320;1.412640
7.365265;0.005005;-0.235440;9.535320;1.412640
7.370239;0.004974;-0.353160;9.535320;1.294920
7.375244;0.005005;-0.235440;9.535320;1.177200
7.380249;0.005005;-0.470880;9.535320;1.294920
7.385223;0.004974;-0.470880;9.653040;1.530360
7.390228;0.005005;-0.353160;9.535320;1.648080
7.395233;0.005005;-0.470880;9.653040;1.530360
7.400208;0.004974;-0.353160;9.535320;1.765800
7.405212;0.005005;-0.353160;9.535320;1.765800
7.410187;0.004974;-0.353160;9.417600;1.648080
7.415192;0.005005;-0.117720;9.653040;1.412640
7.420166;0.004974;-0.235440;9.535320;1.648080
7.425171;0.005005;-0.470880;9.299880;1.530360
7.430176;0.005005;-0.353160;9.417600;1.765800
7.435150;0.004974;-0.235440;9.417600;1.765800
7.440155;0.005005;-0.353160;9.417600;1.530360
7.445160;0.005005;-0.470880;9.535320;1.412640
7.450134;0.004974;-0.235440;9.535320;1.412640
7.455139;0.005005;-0.353160;9.535320;1.412640
7.460114;0.004974;-0.353160;9.653040;1.412640
7.465118;0.005005;-0.235440;9.535320;1.648080
7.470123;0.005005;-0.470880;9.653040;1.412640
7.475098;0.004974;-0.470880;9.417600;1.530360
7.480103;0.005005;-0.470880;9.417600;1.412640
7.485077;0.004974;-0.706320;9.417600;1.412640
7.490082;0.005005;-0.588600;9.299880;1.294920
7.495087;0.005005;-0.470880;9.417600;1.530360
7.500061;0.004974;-0.235440;9.417600;1.412640
7.505066;0.005005;-0.235440;9.299880;1.412640
7.510071;0.005005;-0.353160;9.417600;1.294920
7.515045;0.004974;-0.235440;9.299880;1.412640
7.520050;0.005005;-0.117720;9.535320;1.530360
7.525024;0.004974;-0.117720;9.535320;1.648080
7.530029;0.005005;-0.117720;9.535320;1.412640
7.535034;0.005005;-0.235440;9.535320;1.648080
7.540009;0.004974;-0.470880;9.653040;1.530360
7.545013;0.005005;-0.353160;9.535320;1.530360
7.549988;0.004974;-0.235440;9.770760;1.412640
7.554993;0.005005;-0.117720;9.653040;1.530360
7.559998;0.005005;-0.235440;9.535320;1.530360
7.564972;0.004974;-0.117720;9.535320;1.530360
7.569977;0.005005;0.000000;9.535320;1.648080
7.574982;0.005005;-0.353160;9.535320;1.412640
7.579956;0.004974;-0.353160;9.653040;1.530360
7.584961;0.005005;-0.588600;9.535320;2.236680
7.589966;0.005005;-0.470880;9.653040;2.943000
7.594940;0.004974;-0.470880;9.770760;2.825280
7.599945;0.005005;-1.530360;9.535320;1.648080
7.604919;0.004974;-2.236680;8.946720;0.000000
7.609924;0.005005;-2.001240;8.829000;1.059480
7.614929;0.005005;-1.059480;8.946720;1.294920
7.619904;0.004974;-0.235440;8.829000;1.412640
7.624908;0.005005;-0.235440;8.946720;0.824040
7.629913;0.005005;-0.353160;8.829000;1.177200
7.634888;0.004974;1.294920;10.006200;-0.235440
7.639893;0.005005;2.472120;10.241640;-1.059480
7.644867;0.004974;1.412640;9.299880;0.117720
7.649872;0.005005;0.824040;9.182160;0.353160
7.654877;0.005005;0.470880;9.417600;0.353160
7.659851;0.004974;0.235440;9.535320;0.588600
7.664856;0.005005;0.117720;9.653040;0.706320
7.669830;0.004974;-0.235440;9.653040;0.706320
7.674835;0.005005;0.000000;9.535320;0.824040
7.679840;0.005005;0.000000;9.417600;0.824040
7.684814;0.004974;0.000000;9.299880;1.059480
7.689819;0.005005;0.000000;9.417600;0.941760
7.694824;0.005005;-0.117720;9.417600;0.824040
7.699799;0.004974;-0.470880;9.417600;1.059480
7.704803;0.005005;-0.235440;9.417600;1.294920
7.709808;0.005005;-0.117720;9.535320;1.177200
7.714783;0.004974;-0.235440;9.535320;1.530360
7.719788;0.005005;-0.353160;9.535320;1.530360
7.724762;0.004974;-0.117720;9.535320;1.412640
7.729767;0.005005;-0.353160;9.653040;1.294920
7.734772;0.005005;-0.353160;9.770760;1.294920
7.739746;0.004974;-0.117720;9.653040;1.294920
7.744751;0.005005;-0.235440;9.535320;1.177200
7.749756;0.005005;0.117720;9.299880;0.941760
7.754730;0.004974;-0.235440;10.241640;1.177200
7.759735;0.005005;-0.470880;9.770760;1.530360
7.764740;0.005005;-0.235440;9.653040;1.412640
7.769714;0.004974;-0.353160;9.299880;1.412640
7.774719;0.005005;-0.353160;9.417600;1.294920
7.779724;0.005005;-0.353160;9.417600;1.648080
7.784698;0.004974;-0.470880;9.299880;1.765800
7.789703;0.005005;-0.706320;9.299880;1.530360
7.794708;0.005005;-0.706320;9.299880;1.648080
7.799683;0.004974;-0.353160;9.535320;1.530360
7.804688;0.005005;-0.235440;9.653040;1.648080
7.809662;0.004974;-0.353160;9.535320;1.648080
7.814667;0.005005;-0.588600;9.535320;1.648080
7.819672;0.005005;-0.470880;9.535320;1.765800
7.824646;0.004974;-0.353160;9.535320;1.530360
7.829651;0.005005;-0.706320;9.535320;1.294920
7.834625;0.004974;-0.470880;9.770760;1.648080
7.839630;0.005005;-0.706320;9.653040;1.530360
7.844635;0.005005;-0.706320;9.535320;1.648080
7.849640;0.005005;-0.588600;9.417600;1.648080
7.854614;0.004974;-0.235440;9.417600;0.353160
7.859619;0.005005;-0.353160;9.064440;1.177200
7.864594;0.004974;-0.235440;9.417600;0.941760
7.869598;0.005005;-0.353160;9.417600;1.059480
7.874603;0.005005;-0.941760;9.299880;2.001240
7.879578;0.004974;-0.588600;9.417600;1.177200
7.884583;0.005005;-0.353160;9.299880;1.765800
7.889557;0.004974;-0.706320;9.535320;1.883520
7.894562;0.005005;-0.706320;9.770760;1.765800
7.899567;0.005005;-0.353160;9.653040;1.883520
7.904541;0.004974;-0.117720;9.653040;1.765800
7.909546;0.005005;-0.117720;9.535320;1.765800
7.914551;0.005005;-0.117720;9.653040;1.765800
7.919525;0.004974;-0.353160;9.535320;1.765800
7.924530;0.005005;-0.353160;9.417600;1.530360
7.929535;0.005005;-0.353160;9.417600;1.412640
7.934509;0.004974;-0.117720;9.535320;1.648080
7.939514;0.005005;0.000000;9.653040;1.412640
7.944519;0.005005;-0.353160;9.417600;1.294920
7.949493;0.004974;-0.353160;9.417600;1.412640
7.954498;0.005005;-0.353160;9.299880;1.530360
7.959473;0.004974;-0.470880;9.417600;1.412640
7.964478;0.005005;-0.235440;9.299880;1.648080
7.969482;0.005005;-0.117720;9.417600;1.530360
7.974457;0.004974;-0.235440;9.417600;1.765800
7.979462;0.005005;-0.353160;9.417600;1.648080
7.984467;0.005005;-0.353160;9.417600;1.765800
7.989441;0.004974;-0.117720;9.417600;1.765800
7.994446;0.005005;0.000000;9.417600;1.883520
7.999451;0.005005;0.353160;9.535320;1.765800
8.004425;0.004974;0.706320;9.417600;1.648080
8.009430;0.005005;-0.117720;9.417600;1.412640
8.014435;0.005005;-0.470880;9.417600;1.648080
8.019409;0.004974;-0.235440;9.182160;1.765800
8.024414;0.005005;-0.824040;9.182160;1.883520
8.029419;0.005005;-1.177200;9.182160;2.118960
8.034393;0.004974;-0.824040;9.182160;2.001240
8.039398;0.005005;-0.588600;9.182160;2.001240
8.044373;0.004974;-0.706320;9.182160;1.883520
8.049377;0.005005;-0.353160;9.299880;1.883520
8.054382;0.005005;-0.235440;9.417600;2.001240
8.059357;0.004974;-0.117720;9.299880;2.001240
8.064362;0.005005;-0.117720;9.417600;2.001240
8.069366;0.005005;-0.353160;9.417600;2.001240
8.074341;0.004974;-0.470880;9.299880;2.118960
8.079346;0.005005;-0.353160;9.299880;2.118960
8.084351;0.005005;-0.117720;9.299880;1.883520
8.089325;0.004974;-0.353160;9.299880;1.883520
8.094330;0.005005;-0.353160;9.417600;1.883520
8.099335;0.005005;-0.353160;9.417600;1.883520
8.104309;0.004974;-0.235440;9.417600;1.883520
8.109314;0.005005;-0.353160;9.417600;1.648080
8.114288;0.004974;-0.353160;9.535320;1.765800
8.119293;0.005005;-0.117720;9.653040;1.883520
8.124298;0.005005;-0.235440;9.417600;1.883520
8.129272;0.004974;-0.117720;9.182160;1.765800
8.134277;0.005005;-0.235440;9.299880;2.001240
8.139282;0.005005;-0.117720;9.417600;1.883520
8.144287;0.005005;-0.706320;9.299880;1.883520
8.149261;0.004974;-0.588600;9.064440;1.883520
8.154266;0.005005;-0.588600;9.417600;2.001240
8.159271;0.005005;-0.470880;9.653040;2.118960
8.164246;0.004974;-0.353160;9.653040;2.001240
8.169250;0.005005;-0.117720;9.535320;2.236680
8.174225;0.004974;-0.353160;9.299880;2.118960
8.179230;0.005005;-0.353160;9.417600;2.118960
8.184235;0.005005;-0.117720;9.417600;2.118960
8.189209;0.004974;0.117720;9.299880;2.001240
8.194214;0.005005;-0.235440;9.417600;2.001240
8.199188;0.004974;-0.588600;9.653040;2.118960
8.204193;0.005005;-0.706320;9.535320;1.883520
8.209198;0.005005;-0.470880;9.417600;2.118960
8.214172;0.004974;-0.353160;9.417600;2.118960
8.219177;0.005005;-0.235440;9.299880;2.118960
8.224152;0.004974;-0.353160;9.417600;2.118960
8.229156;0.005005;-0.353160;9.417600;2.236680
8.234161;0.005005;-0.235440;9.535320;2.118960
8.239136;0.004974;-0.235440;9.299880;2.001240
8.244141;0.005005;-0.235440;9.299880;2.118960
8.249115;0.004974;-0.117720;9.299880;2.001240
8.254120;0.005005;-0.470880;9.417600;2.001240
8.259125;0.005005;-0.470880;9.535320;2.001240
8.264099;0.004974;-0.470880;9.417600;2.118960
8.269104;0.005005;-0.470880;9.417600;2.118960
8.274078;0.004974;-0.353160;9.299880;1.765800
8.279083;0.005005;-0.117720;9.417600;2.001240
8.284088;0.005005;-0.117720;9.417600;2.001240
8.289062;0.004974;-0.117720;9.299880;2.118960
8.294067;0.005005;0.000000;9.299880;1.883520
8.299072;0.005005;-0.235440;9.535320;1.883520
8.304047;0.004974;-0.235440;9.535320;1.883520
8.309052;0.005005;-0.235440;9.417600;2.001240
8.314056;0.005005;-0.470880;9.535320;2.354400
8.319031;0.004974;-0.235440;9.653040;2.001240
8.324036;0.005005;-0.117720;9.653040;2.001240
8.329010;0.004974;-0.470880;9.535320;1.883520
8.334015;0.005005;-0.235440;9.417600;2.001240
8.339020;0.005005;-0.470880;9.417600;2.001240
8.343994;0.004974;-0.353160;9.299880;1.883520
8.348999;0.005005;-0.353160;9.299880;1.648080
8.353973;0.004974;-0.235440;9.417600;1.765800
8.358978;0.005005;-0.353160;9.417600;1.883520
8.363983;0.005005;-0.353160;9.417600;2.001240
8.368958;0.004974;-0.235440;9.535320;2.001240
8.373962;0.005005;-0.353160;9.535320;2.001240
8.378937;0.004974;-0.470880;9.535320;2.118960
8.383942;0.005005;-0.353160;9.535320;1.765800
8.388947;0.005005;-0.235440;9.653040;1.765800
8.393921;0.004974;-0.353160;9.299880;1.883520
8.398926;0.005005;-0.470880;9.417600;1.765800
8.403900;0.004974;-0.470880;9.299880;2.001240
8.408905;0.005005;-0.353160;9.417600;1.883520
8.413910;0.005005;-0.235440;9.182160;2.001240
8.418884;0.004974;-0.588600;9.182160;1.883520
8.423889;0.005005;-0.353160;9.182160;2.001240
8.428864;0.004974;-0.588600;9.182160;2.354400
8.433868;0.005005;-0.470880;9.417600;2.118960
8.438873;0.005005;-0.588600;9.535320;2.118960
8.443848;0.004974;-0.588600;9.417600;2.001240
8.448853;0.005005;-0.353160;9.653040;1.765800
8.453827;0.004974;-0.235440;9.535320;1.883520
8.458832;0.005005;-0.353160;9.417600;1.765800
8.463837;0.005005;-0.235440;9.299880;2.001240
8.468811;0.004974;-0.117720;9.417600;1.883520
8.473816;0.005005;-0.353160;9.417600;1.883520
8.478790;0.004974;-0.235440;9.417600;1.883520
8.483795;0.005005;-0.117720;9.417600;1.765800
8.488800;0.005005;-0.235440;9.417600;2.001240
8.493774;0.004974;-0.117720;9.535320;1.883520
8.498779;0.005005;-0.235440;9.417600;1.883520
8.503784;0.005005;-0.470880;9.535320;2.001240
8.508789;0.005005;-0.470880;9.417600;2.001240
8.513763;0.004974;-0.706320;9.299880;2.118960
8.518768;0.005005;-0.588600;9.299880;2.001240
8.523743;0.004974;-0.353160;9.535320;2.001240
8.528748;0.005005;-0.353160;9.535320;2.001240
8.533722;0.004974;-0.117720;9.535320;1.883520
8.538727;0.005005;-0.117720;9.417600;2.001240
8.543701;0.004974;-0.235440;9.299880;2.001240
8.548706;0.005005;-0.470880;9.417600;2.118960
8.553711;0.005005;-0.235440;9.417600;1.883520
8.558685;0.004974;-0.353160;9.417600;2.118960
8.563690;0.005005;-0.353160;9.417600;2.001240
8.568665;0.004974;-0.117720;9.299880;2.001240
8.573669;0.005005;-0.235440;9.299880;2.118960
8.578674;0.005005;-0.353160;9.299880;2.118960
8.583649;0.004974;-0.117720;9.417600;2.118960
8.588654;0.005005;-0.353160;9.535320;1.883520
8.593658;0.005005;-0.235440;9.417600;1.765800
8.598633;0.004974;-0.117720;9.535320;2.001240
8.603638;0.005005;-0.235440;9.770760;1.883520
8.608643;0.005005;-0.235440;9.535320;2.001240
8.613617;0.004974;-0.235440;9.417600;2.118960
8.618622;0.005005;-0.353160;9.417600;2.236680
8.623596;0.004974;-0.235440;9.299880;2.118960
8.628601;0.005005;-0.235440;9.182160;1.883520
8.633606;0.005005;-0.470880;9.182160;2.001240
8.638580;0.004974;-0.470880;9.182160;2.118960
8.643585;0.005005;-0.235440;9.299880;2.001240
8.648560;0.004974;-0.235440;9.299880;2.001240
8.653564;0.005005;-0.235440;9.535320;2.118960
8.658569;0.005005;-0.235440;9.535320;2.118960
8.663544;0.004974;-0.588600;9.535320;2.118960
8.668549;0.005005;-0.353160;9.535320;2.118960
8.673553;0.005005;-0.235440;9.535320;1.883520
8.678528;0.004974;-0.235440;9.535320;1.883520
8.683533;0.005005;-0.235440;9.535320;1.883520
8.688507;0.004974;-0.117720;9.653040;1.883520
8.693512;0.005005;0.000000;9.653040;1.765800
8.698517;0.005005;-0.353160;9.535320;1.765800
8.703491;0.004974;-0.117720;9.653040;2.118960
8.708496;0.005005;-0.117720;9.535320;2.001240
8.713501;0.005005;-0.117720;9.535320;1.883520
8.718475;0.004974;-0.235440;9.417600;1.765800
8.723480;0.005005;-0.353160;9.417600;2.001240
8.728455;0.004974;0.000000;9.182160;2.589840
8.733459;0.005005;-0.117720;9.064440;2.118960
8.738464;0.005005;-0.117720;9.299880;2.236680
8.743439;0.004974;-0.353160;9.417600;2.118960
8.748444;0.005005;-0.470880;9.417600;2.001240
8.753418;0.004974;-0.470880;9.417600;1.765800
8.758423;0.005005;-0.353160;9.417600;1.765800
8.763428;0.005005;-0.117720;9.417600;1.883520
8.768402;0.004974;-0.235440;9.417600;1.883520
8.773407;0.005005;-0.588600;9.417600;2.001240
8.778412;0.005005;-0.470880;9.182160;1.883520
8.783386;0.004974;-0.588600;9.182160;1.883520
8.788391;0.005005;-0.588600;9.299880;2.001240
8.793365;0.004974;-0.588600;9.417600;1.883520
8.798370;0.005005;-0.470880;9.417600;1.883520
8.803375;0.005005;-0.353160;9.417600;1.765800
8.808350;0.004974;-0.235440;9.182160;1.883520
8.813354;0.005005;-0.235440;9.299880;1.883520
8.818359;0.005005;-0.235440;9.299880;1.883520
8.823334;0.004974;-0.235440;9.417600;1.883520
8.828339;0.005005;-0.235440;9.299880;1.883520
8.833344;0.005005;-0.235440;9.535320;1.765800
8.838318;0.004974;-0.117720;9.535320;1.765800
8.843323;0.005005;-0.353160;9.535320;2.118960
8.848328;0.005005;-0.470880;9.535320;2.001240
8.853302;0.004974;-0.353160;9.653040;2.118960
8.858307;0.005005;-0.235440;9.417600;2.001240
8.863281;0.004974;-0.117720;9.417600;2.001240
8.868286;0.005005;-0.117720;9.299880;2.001240
8.873291;0.005005;-0.353160;9.299880;2.001240
8.878265;0.004974;-0.353160;9.417600;2.001240
8.883270;0.005005;-0.353160;9.417600;2.001240
8.888275;0.005005;-0.353160;9.299880;2.118960
8.893250;0.004974;-0.470880;9.299880;2.236680
8.898254;0.005005;-0.353160;9.417600;2.118960
8.903259;0.005005;-0.353160;9.299880;1.883520
8.908234;0.004974;-0.235440;9.417600;1.765800
8.913239;0.005005;-0.353160;9.182160;1.883520
8.918213;0.004974;-0.706320;9.417600;2.001240
8.923218;0.005005;-0.470880;9.299880;2.001240
8.928223;0.005005;-0.235440;9.299880;2.001240
8.933228;0.005005;-0.235440;9.182160;2.001240
8.938202;0.004974;-0.235440;9.299880;2.001240
8.943207;0.005005;-0.235440;9.535320;2.118960
8.948181;0.004974;-0.235440;9.535320;2.236680
8.953186;0.005005;-0.235440;9.535320;2.118960
8.958160;0.004974;-0.470880;9.182160;1.883520
8.963165;0.005005;-0.353160;9.182160;1.883520
8.968170;0.005005;-0.353160;9.299880;1.883520
8.973145;0.004974;-0.588600;9.417600;1.883520
8.978149;0.005005;-0.235440;9.299880;1.883520
8.983124;0.004974;-0.353160;9.417600;1.765800
8.988129;0.005005;-0.235440;9.417600;1.883520
8.993134;0.005005;-0.353160;9.417600;1.883520
8.998138;0.005005;-0.235440;9.535320;2.001240
9.003113;0.004974;-0.353160;9.417600;2.001240
9.008118;0.005005;-0.353160;9.417600;1.883520
9.013123;0.005005;-0.235440;9.182160;2.001240
9.018097;0.004974;-0.353160;9.182160;1.883520
9.023102;0.005005;-0.235440;9.299880;2.118960
9.028076;0.004974;-0.235440;9.417600;2.001240
9.033081;0.005005;-0.235440;9.417600;1.883520
9.038086;0.005005;-0.235440;9.417600;1.765800
9.043060;0.004974;-0.117720;9.417600;2.118960
9.048065;0.005005;-0.235440;9.299880;2.001240
9.053070;0.005005;-0.117720;9.417600;2.118960
9.058044;0.004974;-0.235440;9.417600;2.001240
9.063049;0.005005;-0.235440;9.299880;2.001240
9.068054;0.005005;-0.235440;9.770760;2.001240
9.073029;0.004974;-0.353160;9.653040;1.883520
9.078033;0.005005;-0.470880;9.535320;2.001240
9.083038;0.005005;-0.353160;9.417600;2.001240
9.088013;0.004974;-0.470880;9.417600;2.001240
9.093018;0.005005;-0.470880;9.417600;2.001240
9.097992;0.004974;-0.470880;9.299880;2.001240
9.102997;0.005005;-0.353160;9.417600;2.001240
9.108002;0.005005;-0.235440;9.417600;2.001240
9.113007;0.005005;-0.117720;9.299880;1.883520
9.117981;0.004974;-0.235440;9.417600;1.883520
9.122986;0.005005;-0.235440;9.535320;1.648080
9.127991;0.005005;-0.470880;9.535320;1.765800
9.132965;0.004974;-0.353160;9.535320;1.883520
9.137970;0.005005;-0.235440;9.417600;2.001240
9.142975;0.005005;-0.235440;9.417600;2.236680
9.147949;0.004974;-0.117720;9.417600;2.354400
9.152954;0.005005;-0.235440;9.299880;2.118960
9.157928;0.004974;-0.235440;9.299880;2.001240
9.162933;0.005005;-0.235440;9.417600;2.118960
9.167908;0.004974;-0.235440;9.299880;2.118960
9.172913;0.005005;-0.353160;9.299880;2.825280
9.177887;0.004974;-0.117720;9.417600;1.883520
9.182892;0.005005;0.000000;9.417600;1.883520
9.187897;0.005005;-0.117720;9.299880;1.883520
9.192902;0.005005;-0.235440;9.535320;1.765800
9.197876;0.004974;-0.235440;9.417600;2.001240
9.202881;0.005005;-0.235440;9.299880;2.001240
9.207855;0.004974;-0.353160;9.417600;2.001240
9.212860;0.005005;-0.353160;9.299880;1.883520
9.217865;0.005005;-0.235440;9.417600;2.118960
9.222870;0.005005;-0.470880;9.653040;2.236680
9.227844;0.004974;-0.470880;9.535320;2.236680
9.232849;0.005005;-0.588600;9.417600;2.118960
9.237854;0.005005;-0.470880;9.299880;2.472120
9.242828;0.004974;-0.470880;9.417600;2.236680
9.247833;0.005005;-0.353160;9.417600;2.118960
9.252808;0.004974;-0.470880;9.417600;2.118960
9.257812;0.005005;-0.470880;9.299880;1.530360
9.262817;0.005005;-0.470880;9.299880;2.001240
9.267792;0.004974;-0.470880;9.417600;2.236680
9.272797;0.005005;-0.470880;9.417600;2.118960
9.277771;0.004974;-0.470880;9.417600;2.354400
9.282776;0.005005;-0.117720;9.299880;2.354400
9.287781;0.005005;-0.353160;9.182160;2.118960
9.292755;0.004974;-0.588600;9.182160;2.118960
9.297760;0.005005;-0.117720;9.299880;2.001240
9.302765;0.005005;-0.117720;9.417600;2.118960
9.307739;0.004974;0.000000;9.417600;2.118960
9.312744;0.005005;-0.117720;9.417600;2.236680
9.317749;0.005005;0.000000;9.299880;2.118960
9.322723;0.004974;-0.470880;9.299880;1.883520
9.327728;0.005005;-0.588600;9.299880;2.001240
9.332733;0.005005;-0.235440;9.535320;2.001240
9.337708;0.004974;-0.235440;9.299880;2.236680
9.342712;0.005005;-0.353160;9.299880;2.118960
9.347717;0.005005;-0.353160;9.417600;2.001240
9.352692;0.004974;-0.353160;9.417600;2.001240
9.357697;0.005005;-0.117720;9.299880;2.001240
9.362701;0.005005;0.000000;9.417600;2.001240
9.367706;0.005005;-0.117720;9.299880;2.354400
9.372681;0.004974;-0.235440;9.535320;2.354400
9.377686;0.005005;-0.353160;9.653040;2.236680
9.382690;0.005005;-0.117720;9.535320;2.236680
9.387665;0.004974;0.000000;9.417600;2.118960
9.392670;0.005005;-0.706320;9.182160;1.765800
9.397644;0.004974;-0.588600;9.299880;1.883520
9.402649;0.005005;-0.588600;9.417600;2.001240
9.407654;0.005005;-0.353160;9.535320;2.001240
9.412628;0.004974;-0.353160;9.535320;2.001240
9.417633;0.005005;0.000000;9.653040;2.943000
9.422638;0.005005;2.589840;10.594800;5.061960
9.427612;0.004974;2.001240;9.888480;4.591080
9.432617;0.005005;-0.353160;9.299880;3.413880
9.437622;0.005005;0.824040;9.653040;3.296160
9.442596;0.004974;0.117720;9.299880;2.472120
9.447601;0.005005;-0.470880;8.946720;2.001240
9.452606;0.005005;-0.824040;9.064440;2.236680
9.457581;0.004974;-1.294920;9.064440;2.236680
9.462585;0.005005;-0.235440;9.299880;2.472120
9.467590;0.005005;-0.941760;9.182160;2.589840
9.472565;0.004974;-0.706320;8.829000;2.472120
9.477570;0.005005;-0.824040;9.182160;2.472120
9.482574;0.005005;-0.706320;8.946720;2.472120
9.487549;0.004974;-1.059480;8.946720;2.472120
9.492554;0.005005;-0.824040;9.182160;2.589840
9.497528;0.004974;-0.470880;9.064440;2.707560
9.502533;0.005005;-0.353160;9.182160;2.707560
9.507507;0.004974;-0.235440;9.182160;2.707560
9.512512;0.005005;-0.588600;9.182160;2.825280
9.517517;0.005005;-0.706320;9.064440;2.472120
9.522491;0.004974;-0.941760;8.946720;2.472120
9.527496;0.005005;-0.588600;9.064440;2.707560
9.532501;0.005005;-0.470880;9.299880;2.825280
9.537476;0.004974;-0.470880;9.182160;2.943000
9.542480;0.005005;-0.824040;9.182160;2.825280
9.547485;0.005005;-0.353160;9.182160;2.825280
9.552460;0.004974;-0.470880;9.182160;2.589840
9.557465;0.005005;-0.588600;8.946720;2.354400
9.562469;0.005005;-0.117720;8.711280;2.354400
9.567444;0.004974;-0.470880;8.829000;2.589840
9.572449;0.005005;-0.353160;9.182160;2.589840
9.577454;0.005005;-0.235440;9.299880;2.589840
9.582428;0.004974;-0.353160;9.299880;2.472120
9.587433;0.005005;-0.117720;9.299880;2.589840
9.592438;0.005005;0.000000;9.417600;2.589840
9.597412;0.004974;0.000000;9.182160;2.589840
9.602417;0.005005;0.000000;9.064440;2.354400
9.607391;0.004974;0.235440;8.946720;2.354400
9.612396;0.005005;-0.470880;9.064440;2.589840
9.617401;0.005005;-0.470880;9.299880;2.589840
9.622375;0.004974;-0.706320;9.182160;2.589840
9.627380;0.005005;-0.470880;9.417600;2.589840
9.632385;0.005005;-0.706320;9.417600;2.707560
9.637360;0.004974;-0.588600;9.299880;2.707560
9.642365;0.005005;-0.470880;9.417600;2.707560
9.647369;0.005005;-0.470880;9.182160;2.825280
9.652344;0.004974;-0.353160;9.182160;2.825280
9.657349;0.005005;-0.117720;9.182160;2.589840
9.662354;0.005005;-0.117720;9.064440;2.589840
9.667358;0.005005;-0.117720;9.182160;2.589840
9.672333;0.004974;-0.117720;9.064440;2.472120
9.677338;0.005005;-0.117720;9.064440;2.707560
9.682343;0.005005;-0.117720;9.417600;2.707560
9.687317;0.004974;-0.353160;9.535320;2.589840
9.692322;0.005005;-0.470880;9.535320;2.589840
9.697327;0.005005;-0.353160;9.417600;2.589840
9.702301;0.004974;-0.235440;9.299880;2.472120
9.707306;0.005005;-0.470880;9.064440;2.589840
9.712311;0.005005;-0.353160;9.182160;2.589840
9.717285;0.004974;-0.235440;9.299880;2.589840
9.722290;0.005005;-0.353160;9.417600;2.707560
9.727295;0.005005;-0.353160;9.299880;2.589840
9.732269;0.004974;-0.353160;9.182160;2.472120
9.737274;0.005005;-0.353160;9.182160;2.707560
9.742279;0.005005;-0.353160;9.182160;2.707560
9.747253;0.004974;-0.117720;9.182160;2.589840
9.752258;0.005005;0.000000;9.064440;2.707560
9.757263;0.005005;-0.353160;9.182160;2.707560
9.762268;0.005005;-0.588600;9.182160;2.825280
9.767242;0.004974;-0.706320;9.299880;2.589840
9.772247;0.005005;-0.941760;9.182160;2.707560
9.777252;0.005005;-0.470880;9.182160;2.589840
9.782257;0.005005;-0.353160;9.299880;2.707560
9.787231;0.004974;-0.235440;9.299880;2.589840
9.792236;0.005005;-0.117720;8.946720;2.707560
9.797241;0.005005;-0.353160;9.182160;2.707560
9.802216;0.004974;-0.235440;9.182160;2.825280
9.807220;0.005005;-0.235440;9.064440;2.707560
9.812225;0.005005;-0.235440;9.299880;2.707560
9.817200;0.004974;-0.235440;9.299880;2.707560
9.822205;0.005005;-0.235440;9.299880;2.707560
9.827209;0.005005;-0.235440;9.182160;2.707560
9.832184;0.004974;-0.470880;8.946720;2.472120
9.837189;0.005005;-0.470880;8.946720;2.707560
9.842163;0.004974;-0.470880;8.946720;2.589840
9.847168;0.005005;-0.470880;8.946720;2.589840
9.852173;0.005005;-0.235440;9.182160;2.589840
9.857147;0.004974;-0.235440;9.299880;2.589840
9.862152;0.005005;-0.117720;9.299880;2.472120
9.867157;0.005005;0.000000;9.182160;2.589840
9.872131;0.004974;0.000000;9.299880;2.589840
9.877136;0.005005;0.000000;9.182160;2.589840
9.882111;0.004974;-0.353160;9.064440;2.354400
9.887115;0.005005;-0.117720;9.064440;2.354400
9.892090;0.004974;-0.117720;9.299880;2.589840
9.897095;0.005005;-0.117720;9.299880;2.589840
9.902100;0.005005;-0.235440;9.417600;2.707560
9.907074;0.004974;-0.117720;9.417600;2.707560
9.912079;0.005005;-0.117720;9.417600;2.825280
9.917084;0.005005;-0.235440;9.417600;2.825280
9.922058;0.004974;-0.235440;9.417600;2.707560
9.927063;0.005005;-0.353160;9.182160;2.825280
9.932068;0.005005;-0.117720;9.064440;2.707560
9.937042;0.004974;-0.117720;9.064440;2.825280
9.942047;0.005005;0.000000;9.064440;2.707560
9.947052;0.005005;0.000000;9.182160;2.589840
9.952026;0.004974;-0.235440;9.182160;2.354400
9.957031;0.005005;-0.117720;9.182160;2.236680
9.962036;0.005005;0.000000;9.182160;2.118960
9.967010;0.004974;0.000000;9.299880;2.236680
9.972015;0.005005;0.000000;9.299880;2.354400
9.976990;0.004974;0.000000;9.299880;2.236680
9.981995;0.005005;0.000000;9.417600;2.236680
9.986969;0.004974;0.000000;9.064440;2.354400
9.991974;0.005005;-0.117720;9.064440;2.472120
9.996979;0.005005;-0.117720;9.299880;2.589840
10.001953;0.004974;-0.117720;9.182160;2.589840
10.006958;0.005005;-0.117720;9.182160;2.589840
10.011963;0.005005;-0.117720;9.064440;2.236680
10.016937;0.004974;-0.117720;8.946720;2.354400
10.021942;0.005005;-0.117720;9.064440;2.589840
10.026917;0.004974;0.000000;9.299880;2.472120
10.031921;0.005005;-0.235440;9.299880;2.707560
10.036926;0.005005;-0.235440;8.946720;2.589840
10.041901;0.004974;-0.588600;9.064440;2.472120
10.046906;0.005005;-0.235440;9.535320;2.589840
10.051910;0.005005;-0.235440;9.417600;2.589840
10.056915;0.005005;-0.235440;9.299880;2.472120
10.061890;0.004974;-0.353160;9.417600;2.707560
10.066895;0.005005;-0.235440;9.182160;2.825280
10.071899;0.005005;-0.353160;9.064440;2.707560
10.076874;0.004974;-0.235440;9.182160;2.707560
10.081879;0.005005;-0.353160;9.182160;2.589840
10.086884;0.005005;-0.117720;9.299880;2.472120
10.091858;0.004974;-0.117720;9.182160;2.589840
10.096863;0.005005;0.000000;9.299880;2.707560
10.101837;0.004974;0.000000;9.299880;2.707560
10.106842;0.005005;0.000000;9.182160;2.589840
10.111847;0.005005;0.000000;9.299880;2.354400
10.116821;0.004974;-0.117720;9.182160;2.354400
10.121826;0.005005;0.000000;9.182160;2.236680
10.126831;0.005005;-0.235440;9.064440;2.354400
10.131805;0.004974;-0.353160;9.182160;2.354400
10.136810;0.005005;-0.235440;9.064440;2.589840
10.141815;0.005005;-0.353160;8.946720;2.707560
10.146790;0.004974;-0.235440;9.182160;2.589840
10.151794;0.005005;-0.235440;9.064440;2.589840
10.156799;0.005005;0.000000;9.299880;2.589840
10.161774;0.004974;0.000000;9.299880;2.472120
10.166779;0.005005;0.000000;9.299880;2.589840
10.171783;0.005005;0.000000;9.417600;2.472120
10.176758;0.004974;-0.235440;9.417600;2.472120
10.181763;0.005005;-0.235440;9.417600;2.589840
10.186768;0.005005;-0.353160;9.535320;2.589840
10.191742;0.004974;-0.117720;9.535320;2.589840
10.196747;0.005005;0.000000;9.535320;2.589840
10.201721;0.004974;-0.235440;9.299880;2.472120
10.206726;0.005005;-0.235440;9.417600;2.707560
10.211731;0.005005;-0.706320;9.417600;2.589840
10.216705;0.004974;-0.353160;9.417600;2.354400
10.221710;0.005005;-0.235440;9.064440;2.472120
10.226685;0.004974;-0.470880;9.182160;2.589840
10.231689;0.005005;-0.470880;9.182160;2.472120
10.236694;0.005005;-0.353160;9.299880;2.354400
10.241669;0.004974;-0.353160;9.417600;2.472120
10.246674;0.005005;-0.353160;9.417600;2.354400
10.251648;0.004974;-0.235440;9.182160;2.236680
10.256653;0.005005;-0.353160;9.182160;2.118960
10.261658;0.005005;-0.235440;9.299880;2.354400
10.266632;0.004974;-0.353160;9.417600;2.472120
10.271637;0.005005;-0.235440;9.417600;2.707560
10.276611;0.004974;-0.353160;9.182160;2.589840
10.281616;0.005005;-0.470880;9.064440;2.707560
10.286621;0.005005;-0.235440;9.064440;2.825280
10.291595;0.004974;-0.117720;9.299880;2.707560
10.296600;0.005005;-0.117720;9.299880;2.825280
10.301575;0.004974;-0.117720;9.417600;2.825280
10.306580;0.005005;-0.117720;9.299880;2.589840
10.311584;0.005005;-0.353160;9.417600;2.589840
10.316589;0.005005;-0.706320;9.299880;2.825280
10.321564;0.004974;-0.470880;9.299880;2.825280
10.326569;0.005005;-0.824040;9.299880;2.589840
10.331573;0.005005;-0.588600;9.299880;2.707560
10.336548;0.004974;-0.706320;9.417600;2.589840
10.341553;0.005005;-0.470880;9.299880;2.589840
10.346558;0.005005;-0.235440;9.299880;2.707560
10.351532;0.004974;-0.588600;9.417600;2.707560
10.356537;0.005005;-0.588600;9.182160;2.589840
10.361511;0.004974;-0.353160;9.299880;2.589840
10.366516;0.005005;-0.470880;9.299880;2.589840
10.371521;0.005005;-0.470880;9.299880;2.354400
10.376495;0.004974;-0.353160;9.182160;2.472120
10.381500;0.005005;-0.235440;9.064440;2.707560
10.386475;0.004974;-0.117720;9.182160;2.825280
10.391479;0.005005;-0.117720;9.299880;2.825280
10.396484;0.005005;-0.117720;9.417600;2.825280
10.401459;0.004974;0.000000;9.299880;2.825280
10.406464;0.005005;0.000000;9.064440;2.825280
10.411469;0.005005;-0.235440;9.299880;2.825280
10.416443;0.004974;-0.235440;9.182160;2.825280
10.421448;0.005005;-0.235440;9.182160;2.825280
10.426453;0.005005;0.000000;9.064440;2.825280
10.431427;0.004974;-0.117720;9.299880;2.825280
10.436432;0.005005;-0.235440;9.417600;2.825280
10.441437;0.005005;-0.353160;9.417600;2.707560
10.446411;0.004974;-0.706320;9.535320;2.472120
10.451416;0.005005;-0.941760;9.653040;2.589840
10.456421;0.005005;-1.059480;10.830240;2.001240
10.461395;0.004974;-0.706320;10.359360;1.648080
10.466400;0.005005;-0.706320;10.123920;1.530360
10.471405;0.005005;-0.235440;9.417600;1.883520
10.476379;0.004974;-0.235440;9.182160;1.883520
10.481384;0.005005;0.117720;9.064440;2.118960
10.486359;0.004974;0.235440;8.946720;2.118960
10.491364;0.005005;0.117720;7.651800;4.120200
10.496368;0.005005;0.117720;8.711280;2.943000
10.501343;0.004974;0.117720;8.946720;2.589840
10.506348;0.005005;0.117720;8.946720;2.354400
10.511353;0.005005;0.235440;8.711280;2.354400
10.516327;0.004974;0.117720;8.829000;2.118960
10.521332;0.005005;0.117720;8.946720;2.118960
10.526337;0.005005;0.117720;9.064440;2.236680
10.531311;0.004974;0.117720;9.299880;2.118960
10.536316;0.005005;0.117720;9.299880;2.236680
10.541290;0.004974;0.000000;9.417600;2.236680
10.546295;0.005005;-0.117720;9.417600;2.589840
10.551300;0.005005;0.000000;9.299880;2.472120
10.556274;0.004974;-0.117720;9.182160;2.472120
10.561279;0.005005;0.000000;9.182160;2.472120
10.566284;0.005005;-0.117720;9.182160;2.354400
10.571259;0.004974;-0.353160;9.182160;2.354400
10.576263;0.005005;-0.117720;9.299880;2.472120
10.581238;0.004974;-0.235440;9.417600;2.236680
10.586273;0.005035;-0.353160;9.182160;2.472120
10.591248;0.004974;-0.353160;9.299880;2.472120
10.596222;0.004974;-0.235440;9.417600;2.236680
10.601227;0.005005;-0.235440;9.417600;2.472120
10.606232;0.005005;-0.353160;9.299880;2.472120
10.611237;0.005005;-0.235440;9.417600;2.354400
10.616211;0.004974;-0.353160;9.417600;2.236680
10.621216;0.005005;-0.470880;9.299880;2.354400
10.626221;0.005005;-0.353160;9.299880;2.118960
10.631195;0.004974;-0.235440;9.417600;2.118960
10.636200;0.005005;-0.117720;9.299880;2.001240
10.641174;0.004974;-0.353160;9.299880;2.354400
10.646179;0.005005;-0.353160;9.182160;2.354400
10.651184;0.005005;-0.117720;9.064440;2.354400
10.656158;0.004974;-0.235440;9.064440;2.354400
10.661163;0.005005;-0.117720;9.182160;2.354400
10.666138;0.004974;-0.235440;9.064440;2.472120
10.671143;0.005005;-0.235440;9.299880;2.354400
10.676147;0.005005;-0.235440;9.299880;2.472120
10.681122;0.004974;-0.824040;10.241640;3.060720
10.686127;0.005005;-0.235440;9.770760;2.707560
10.691132;0.005005;0.117720;9.535320;2.354400
10.696106;0.004974;0.353160;9.417600;2.236680
10.701111;0.005005;0.117720;9.653040;2.118960
10.706116;0.005005;0.470880;9.417600;2.236680
10.711090;0.004974;0.353160;8.946720;2.236680
10.716095;0.005005;-0.117720;9.182160;2.472120
10.721100;0.005005;-0.941760;9.182160;2.472120
10.726074;0.004974;-0.235440;9.064440;2.472120
10.731079;0.005005;-0.588600;9.299880;2.236680
10.736053;0.004974;-1.177200;9.182160;2.472120
10.741058;0.005005;-0.941760;9.182160;2.589840
10.746063;0.005005;-0.706320;9.299880;2.707560
10.751038;0.004974;-1.294920;8.711280;2.472120
10.756042;0.005005;-0.824040;9.064440;2.589840
10.761047;0.005005;-0.470880;9.182160;2.236680
10.766022;0.004974;-0.470880;8.946720;2.472120
10.771027;0.005005;-0.235440;8.946720;2.236680
10.776001;0.004974;-0.235440;9.064440;2.118960
10.781006;0.005005;-0.588600;9.299880;2.118960
10.786011;0.005005;-0.353160;9.182160;2.236680
10.790985;0.004974;-0.470880;9.417600;2.001240
10.795990;0.005005;-0.470880;9.299880;2.118960
10.800995;0.005005;-0.588600;9.299880;2.118960
10.805969;0.004974;-0.353160;9.299880;2.118960
10.810974;0.005005;-0.588600;9.299880;2.118960
10.815948;0.004974;-0.235440;9.182160;2.118960
10.820953;0.005005;-0.588600;9.417600;2.001240
10.825958;0.005005;-0.470880;9.417600;2.001240
10.830933;0.004974;-0.235440;9.417600;2.236680
10.835938;0.005005;-0.235440;9.417600;2.118960
10.840942;0.005005;-0.117720;9.417600;2.118960
10.845917;0.004974;0.000000;9.417600;2.001240
10.850922;0.005005;-0.353160;9.417600;2.118960
10.855927;0.005005;-0.235440;9.299880;2.001240
10.860901;0.004974;-0.353160;9.299880;2.001240
10.865906;0.005005;-0.235440;9.299880;1.883520
10.870911;0.005005;-0.235440;9.417600;1.883520
10.875885;0.004974;0.000000;9.417600;1.765800
10.880890;0.005005;0.235440;9.653040;1.648080
10.885864;0.004974;0.000000;9.417600;1.059480
10.890869;0.005005;0.824040;9.535320;1.059480
10.895844;0.004974;0.941760;9.653040;-0.353160
10.900848;0.005005;0.235440;9.064440;-0.588600
10.905853;0.005005;-0.353160;9.182160;-0.235440
10.910858;0.005005;0.000000;5.650560;-2.825280
10.915833;0.004974;0.588600;7.063200;-2.001240
10.920837;0.005005;-0.235440;6.710040;-0.470880
10.925812;0.004974;-0.824040;7.416360;0.000000
10.930817;0.005005;-1.294920;8.004960;0.235440
10.935822;0.005005;-1.530360;9.299880;0.353160
10.940826;0.005005;-1.412640;10.123920;0.470880
10.945801;0.004974;-1.177200;8.711280;0.941760
10.950806;0.005005;-1.177200;8.358120;-0.235440
10.955811;0.005005;-0.706320;9.653040;-0.353160
10.960785;0.004974;-0.588600;9.417600;-0.353160
10.965790;0.005005;-0.588600;9.535320;0.706320
10.970795;0.005005;-0.235440;10.006200;0.353160
10.975769;0.004974;-0.353160;10.006200;1.412640
10.980774;0.005005;-0.117720;9.888480;0.824040
10.985779;0.005005;-0.117720;9.653040;0.353160
10.990753;0.004974;-0.235440;9.535320;-0.235440
10.995758;0.005005;-0.353160;9.535320;-0.235440
11.000763;0.005005;-0.117720;9.535320;-0.824040
11.005737;0.004974;0.117720;9.299880;-1.412640
11.010742;0.005005;0.353160;9.417600;-1.294920
11.015747;0.005005;0.353160;9.417600;-1.883520
11.020721;0.004974;0.235440;9.182160;-2.118960
11.025726;0.005005;-0.117720;9.417600;-2.236680
11.030731;0.005005;-0.588600;9.535320;-2.001240
11.035706;0.004974;-0.353160;9.535320;-1.412640
11.040710;0.005005;-0.941760;9.770760;-1.059480
11.045715;0.005005;-1.177200;9.417600;-0.117720
11.050720;0.005005;-1.530360;9.417600;0.824040
11.055725;0.005005;-1.765800;9.535320;1.765800
11.060699;0.004974;-2.589840;5.297400;3.060720
11.065704;0.005005;-2.236680;7.416360;2.589840
11.070679;0.004974;-1.883520;8.829000;2.001240
11.075684;0.005005;-1.765800;9.417600;1.530360
11.080688;0.005005;-1.177200;8.475840;1.294920
11.085663;0.004974;-1.177200;8.946720;1.412640
11.090668;0.005005;-1.177200;9.182160;1.059480
11.095642;0.004974;-1.177200;9.770760;1.059480
11.100647;0.005005;1.530360;19.776960;-0.706320
11.105652;0.005005;0.588600;14.244120;-0.470880
11.110626;0.004974;-0.588600;11.654280;0.588600
11.115631;0.005005;-1.059480;10.359360;0.824040
11.120605;0.004974;-1.059480;9.888480;0.706320
11.125610;0.005005;-1.177200;9.770760;1.059480
11.130615;0.005005;-1.059480;9.888480;1.294920
11.135590;0.004974;-1.177200;9.417600;1.765800
11.140594;0.005005;-0.706320;9.299880;1.530360
11.145599;0.005005;-0.353160;8.946720;1.765800
11.150574;0.004974;0.470880;9.299880;1.412640
11.155579;0.005005;0.235440;9.417600;1.883520
11.160583;0.005005;0.117720;9.064440;1.765800
11.165558;0.004974;0.353160;9.299880;1.412640
11.170563;0.005005;0.117720;9.888480;1.294920
11.175568;0.005005;-0.353160;9.653040;0.941760
11.180542;0.004974;-0.706320;9.535320;0.824040
11.185547;0.005005;-0.706320;9.417600;1.294920
11.190552;0.005005;-1.059480;9.417600;1.177200
11.195526;0.004974;-1.177200;9.182160;0.941760
11.200531;0.005005;-1.530360;9.299880;1.059480
11.205536;0.005005;-1.059480;9.417600;1.648080
11.210510;0.004974;-1.059480;8.946720;1.648080
11.215515;0.005005;-0.470880;9.182160;1.648080
11.220520;0.005005;-0.470880;9.299880;1.765800
11.225525;0.005005;0.000000;9.888480;2.354400
11.230499;0.004974;-0.235440;9.653040;1.883520
11.235504;0.005005;-0.235440;9.417600;1.648080
11.240509;0.005005;-0.117720;9.653040;1.530360
11.245483;0.004974;-0.706320;9.535320;1.530360
11.250488;0.005005;-0.353160;9.417600;1.765800
11.255493;0.005005;-0.353160;9.535320;1.177200
11.260498;0.005005;0.000000;9.535320;1.412640
11.265472;0.004974;-0.235440;9.535320;1.648080
11.270477;0.005005;-0.117720;9.535320;1.765800
11.275482;0.005005;0.235440;9.653040;1.530360
11.280457;0.004974;0.000000;9.653040;1.530360
11.285461;0.005005;0.470880;9.653040;1.530360
11.290466;0.005005;0.353160;9.653040;1.059480
11.295471;0.005005;0.470880;9.653040;1.530360
11.300446;0.004974;0.000000;9.653040;1.530360
11.305450;0.005005;-0.470880;9.535320;1.294920
11.310455;0.005005;-0.706320;9.299880;1.294920
11.315430;0.004974;-0.706320;9.417600;1.648080
11.320435;0.005005;-0.941760;9.417600;1.765800
11.325409;0.004974;-0.941760;9.417600;1.648080
11.330414;0.005005;-0.941760;9.299880;1.412640
11.335419;0.005005;-0.470880;9.417600;1.412640
11.340424;0.005005;-1.177200;9.417600;1.648080
11.345398;0.004974;-0.824040;9.417600;1.530360
11.350403;0.005005;-0.117720;9.535320;1.530360
11.355377;0.004974;0.117720;9.417600;1.412640
11.360382;0.005005;-0.117720;9.417600;1.412640
11.365387;0.005005;-0.117720;9.417600;0.941760
11.370361;0.004974;-0.117720;9.299880;1.294920
11.375366;0.005005;0.353160;9.417600;1.059480
11.380341;0.004974;0.117720;9.417600;1.530360
11.385345;0.005005;0.235440;9.417600;1.412640
11.390320;0.004974;0.000000;9.417600;1.177200
11.395325;0.005005;0.117720;9.417600;1.530360
11.400330;0.005005;0.117720;9.535320;1.648080
11.405304;0.004974;0.117720;9.535320;1.530360
11.410309;0.005005;0.000000;9.653040;1.412640
11.415314;0.005005;-0.117720;9.535320;1.530360
11.420288;0.004974;-0.117720;9.535320;1.648080
11.425293;0.005005;0.000000;9.535320;1.412640
11.430298;0.005005;-0.117720;9.653040;1.412640
11.435272;0.004974;-0.235440;9.535320;1.412640
11.440277;0.005005;-0.235440;9.535320;1.412640
11.445251;0.004974;-0.470880;9.535320;1.412640
11.450256;0.005005;-0.235440;9.535320;1.648080
11.455231;0.004974;-0.235440;9.417600;1.530360
11.460236;0.005005;-0.235440;9.417600;1.412640
11.465240;0.005005;-0.235440;9.535320;1.530360
11.470215;0.004974;-0.353160;9.653040;1.530360
11.475220;0.005005;-0.235440;9.535320;1.648080
11.480225;0.005005;-0.117720;9.299880;1.294920
11.485199;0.004974;-0.353160;9.417600;1.648080
11.490204;0.005005;-0.470880;9.417600;1.412640
11.495178;0.004974;-0.353160;9.417600;1.294920
11.500183;0.005005;-0.117720;9.417600;1.530360
11.505188;0.005005;-0.353160;9.535320;1.412640
11.510162;0.004974;-0.117720;9.535320;1.294920
11.515167;0.005005;-0.235440;9.653040;1.412640
11.520172;0.005005;-0.235440;9.535320;1.177200
11.525146;0.004974;-0.235440;9.653040;1.530360
11.530151;0.005005;-0.235440;9.535320;1.177200
11.535156;0.005005;-0.117720;9.417600;1.294920
11.540131;0.004974;-0.117720;9.417600;1.412640
11.545135;0.005005;-0.235440;9.417600;1.294920
11.550140;0.005005;-0.117720;9.535320;1.412640
11.555115;0.004974;-0.235440;9.535320;1.294920
11.560120;0.005005;-0.588600;9.535320;1.294920
11.565125;0.005005;-0.588600;9.653040;1.412640
11.570099;0.004974;-0.353160;9.535320;1.059480
11.575104;0.005005;-0.353160;9.535320;1.412640
11.580078;0.004974;-0.235440;9.535320;1.412640
11.585083;0.005005;-0.235440;9.535320;1.294920
11.590088;0.005005;-0.470880;9.535320;1.294920
11.595062;0.004974;-0.353160;9.535320;1.294920
11.600067;0.005005;-0.470880;9.535320;1.530360
11.605072;0.005005;-0.235440;9.535320;1.294920
11.610046;0.004974;-0.235440;9.535320;1.294920
11.615051;0.005005;-0.235440;9.417600;1.294920
11.620026;0.004974;-0.117720;9.535320;1.294920
11.625031;0.005005;-0.117720;9.653040;1.294920
11.630005;0.004974;-0.353160;9.535320;1.294920
11.635010;0.005005;-0.235440;9.417600;1.412640
11.640015;0.005005;-0.235440;9.535320;1.059480
11.644989;0.004974;-0.353160;9.417600;1.294920
11.649994;0.005005;-0.353160;9.417600;1.294920
11.654999;0.005005;-0.235440;9.535320;1.294920
11.659973;0.004974;-0.117720;9.299880;1.412640
11.664978;0.005005;-0.117720;9.535320;1.294920
11.669952;0.004974;-0.235440;9.535320;1.412640
11.674957;0.005005;-0.353160;9.417600;1.294920
11.679962;0.005005;-0.117720;9.417600;1.412640
11.684937;0.004974;0.000000;9.535320;1.294920
11.689941;0.005005;0.000000;9.417600;1.412640
11.694946;0.005005;0.000000;9.417600;1.294920
11.699951;0.005005;-0.117720;9.535320;1.412640
11.704926;0.004974;0.000000;9.535320;1.059480
11.709930;0.005005;0.000000;9.535320;1.412640
11.714935;0.005005;0.000000;9.535320;1.412640
11.719910;0.004974;-0.117720;9.653040;1.648080
11.724915;0.005005;-0.235440;9.653040;1.294920
11.729919;0.005005;-0.117720;9.653040;1.412640
11.734894;0.004974;-0.470880;9.653040;1.530360
11.739899;0.005005;-0.470880;9.535320;1.412640
11.744904;0.005005;-0.353160;9.535320;1.059480
11.749878;0.004974;-0.235440;9.653040;1.177200
11.754883;0.005005;-0.117720;9.653040;1.294920
11.759888;0.005005;-0.235440;9.653040;1.530360
11.764862;0.004974;-0.117720;9.299880;1.765800
11.769867;0.005005;-0.235440;9.417600;1.530360
11.774872;0.005005;-0.117720;9.535320;1.412640
11.779846;0.004974;-0.235440;9.535320;1.294920
11.784851;0.005005;-0.353160;9.535320;1.294920
11.789856;0.005005;-0.353160;9.535320;1.648080
11.794830;0.004974;-0.235440;9.535320;1.765800
11.799835;0.005005;-0.353160;9.653040;1.648080
11.804810;0.004974;-0.117720;9.653040;1.177200
11.809814;0.005005;-0.235440;9.535320;1.177200
11.814819;0.005005;-0.588600;9.535320;1.530360
11.819794;0.004974;-0.470880;9.535320;1.648080
11.824799;0.005005;-0.470880;9.535320;1.177200
11.829803;0.005005;-0.353160;9.653040;1.412640
11.834778;0.004974;-0.235440;9.653040;1.530360
11.839783;0.005005;-0.470880;9.535320;1.412640
11.844788;0.005005;-0.706320;9.535320;1.294920
11.849792;0.005005;-0.588600;9.535320;1.530360
11.854767;0.004974;-0.588600;9.417600;1.648080
11.859772;0.005005;-0.353160;9.417600;1.530360
11.864746;0.004974;-0.353160;9.417600;1.530360
11.869751;0.005005;-0.235440;9.299880;1.648080
11.874725;0.004974;-0.117720;9.417600;1.294920
11.879730;0.005005;-0.235440;9.417600;1.412640
11.884735;0.005005;-0.235440;9.417600;1.412640
11.889709;0.004974;-0.470880;9.417600;1.530360
11.894714;0.005005;-0.470880;9.535320;1.765800
11.899719;0.005005;-0.235440;9.653040;1.648080
11.904694;0.004974;-0.470880;9.535320;1.648080
11.909698;0.005005;-0.824040;9.535320;1.530360
11.914673;0.004974;-0.353160;9.417600;1.412640
11.919678;0.005005;-0.235440;9.653040;1.412640
11.924652;0.004974;-0.353160;9.535320;1.177200
11.929657;0.005005;-0.353160;9.535320;1.177200
11.934662;0.005005;-0.235440;9.417600;1.412640
11.939636;0.004974;-0.235440;9.417600;1.412640
11.944641;0.005005;-0.470880;9.417600;1.412640
11.949615;0.004974;-0.470880;9.535320;1.530360
11.954620;0.005005;-0.470880;9.653040;1.294920
11.959625;0.005005;-0.353160;9.653040;1.648080
11.964630;0.005005;-0.117720;9.535320;1.530360
11.969604;0.004974;-0.235440;9.535320;1.412640
11.974609;0.005005;-0.235440;9.535320;1.412640
11.979584;0.004974;-0.235440;9.535320;1.412640
11.984589;0.005005;-0.235440;9.299880;1.648080
11.989594;0.005005;-0.117720;9.417600;1.412640
11.994568;0.004974;-0.235440;9.535320;1.530360
11.999573;0.005005;-0.470880;9.535320;1.883520
12.004578;0.005005;-0.353160;9.535320;1.412640
12.009552;0.004974;-0.117720;9.535320;1.530360
12.014557;0.005005;-0.235440;9.417600;1.765800
12.019562;0.005005;-0.353160;9.417600;1.648080
12.024536;0.004974;-0.353160;9.535320;1.530360
12.029541;0.005005;-0.588600;9.417600;1.412640
12.034546;0.005005;-0.470880;9.299880;1.530360
12.039520;0.004974;-0.353160;9.299880;1.530360
12.044525;0.005005;-0.470880;9.417600;1.412640
12.049530;0.005005;-0.235440;9.417600;1.294920
12.054504;0.004974;-0.117720;9.299880;1.294920
12.059509;0.005005;-0.117720;9.417600;1.648080
12.064514;0.005005;-0.117720;9.417600;1.530360
12.069489;0.004974;0.000000;9.299880;1.648080
12.074493;0.005005;-0.117720;9.417600;1.765800
12.079498;0.005005;-0.353160;9.535320;1.883520
12.084473;0.004974;-0.353160;9.535320;1.530360
12.089478;0.005005;-0.353160;9.417600;1.530360
12.094452;0.004974;-0.235440;9.417600;1.648080
12.099457;0.005005;-0.117720;9.653040;1.530360
12.104462;0.005005;-0.235440;9.535320;1.412640
12.109436;0.004974;-0.353160;9.417600;1.530360
12.114441;0.005005;-0.588600;9.417600;1.648080
12.119446;0.005005;-0.235440;9.417600;1.412640
12.124420;0.004974;-0.117720;9.417600;1.294920
12.129425;0.005005;-0.117720;9.535320;1.294920
12.134399;0.004974;-0.353160;9.535320;1.412640
12.139404;0.005005;-0.353160;9.653040;1.294920
12.144409;0.005005;-0.353160;9.535320;1.530360
12.149384;0.004974;-0.470880;9.535320;1.412640
12.154388;0.005005;-0.353160;9.653040;1.294920
12.159393;0.005005;-0.470880;9.653040;1.412640
12.164368;0.004974;-0.706320;9.653040;1.177200
12.169373;0.005005;-0.353160;9.535320;1.294920
12.174377;0.005005;-0.353160;9.535320;1.294920
12.179352;0.004974;-0.353160;9.417600;1.412640
12.184357;0.005005;-0.353160;9.535320;1.530360
12.189362;0.005005;-0.470880;9.535320;1.530360
12.194336;0.004974;-0.470880;9.535320;1.530360
12.199341;0.005005;-0.353160;9.535320;1.530360
12.204315;0.004974;-0.353160;9.417600;1.648080
12.209320;0.005005;-0.117720;9.417600;1.648080
12.214325;0.005005;-0.117720;9.417600;1.294920
12.219299;0.004974;0.000000;9.417600;1.412640
12.224304;0.005005;0.000000;9.299880;1.294920
12.229279;0.004974;-0.353160;9.535320;1.412640
12.234283;0.005005;-0.235440;9.535320;1.294920
12.239288;0.005005;-0.235440;9.535320;1.294920
12.244263;0.004974;-0.353160;9.417600;1.648080
12.249268;0.005005;-0.824040;9.535320;1.530360
12.254272;0.005005;-0.588600;9.535320;1.648080
12.259247;0.004974;-0.470880;9.535320;1.412640
12.264252;0.005005;-0.470880;9.299880;1.530360
12.269226;0.004974;-0.353160;9.653040;1.412640
12.274231;0.005005;-0.353160;9.653040;1.530360
12.279236;0.005005;-0.235440;9.535320;1.530360
12.284241;0.005005;-0.235440;9.535320;1.765800
12.289215;0.004974;-0.588600;9.535320;2.001240
12.294220;0.005005;-0.706320;9.535320;2.118960
12.299225;0.005005;-1.059480;9.653040;2.825280
12.304199;0.004974;-0.824040;9.299880;2.825280
12.309204;0.005005;-0.588600;10.712520;1.648080
12.314209;0.005005;-0.824040;9.535320;2.118960
12.319183;0.004974;-0.470880;9.182160;2.354400
12.324188;0.005005;-1.059480;8.946720;2.472120
12.329193;0.005005;-1.294920;9.182160;2.354400
12.334167;0.004974;-1.530360;8.358120;2.236680
12.339172;0.005005;-1.177200;9.535320;1.883520
12.344177;0.005005;-1.059480;9.535320;1.765800
12.349152;0.004974;-0.353160;9.888480;2.118960
12.354156;0.005005;-0.235440;9.770760;2.118960
12.359161;0.005005;-0.353160;8.829000;2.354400
12.364136;0.004974;0.000000;9.299880;2.472120
12.369141;0.005005;0.000000;8.711280;2.472120
12.374146;0.005005;-0.706320;9.064440;1.883520
12.379150;0.005005;-1.177200;9.888480;1.883520
12.384125;0.004974;-0.706320;9.770760;2.001240
12.389130;0.005005;-1.294920;9.535320;1.530360
12.394135;0.005005;-0.470880;9.182160;1.883520
12.399109;0.004974;-0.470880;8.711280;1.765800
12.404114;0.005005;-0.706320;9.064440;1.883520
12.409088;0.004974;-0.588600;9.299880;1.765800
12.414093;0.005005;-0.235440;8.829000;2.001240
12.419098;0.005005;-0.117720;9.182160;2.001240
12.424103;0.005005;-0.470880;9.182160;1.530360
12.429077;0.004974;-0.470880;9.182160;1.412640
12.434052;0.004974;-0.353160;9.182160;1.530360
12.439056;0.005005;-0.235440;9.299880;1.530360
12.444031;0.004974;0.824040;9.182160;-0.117720
12.449036;0.005005;0.235440;9.299880;0.235440
12.454041;0.005005;-0.235440;9.064440;0.588600
12.459015;0.004974;0.000000;8.829000;1.059480
12.464020;0.005005;-0.588600;8.829000;0.588600
12.468994;0.004974;-0.117720;9.064440;0.117720
12.473999;0.005005;0.117720;9.299880;0.588600
12.478973;0.004974;-0.235440;9.417600;1.412640
12.483978;0.005005;-0.117720;8.946720;1.412640
12.488953;0.004974;0.000000;9.064440;1.059480
12.493958;0.005005;-0.353160;9.417600;1.294920
