# FOX Logger (IMU file)
# (c) HiKoB 2011-2012
#
# File created from file calib/bin/IMU08.RAW
#
# File format:
# id	t	dt	ax	ay	az	mx	my	mz	gx	gy	gz
#
# Units:
#	Time: s
#	Acceleration: m.s^-2
#	Magnetic field: gauss
#	Rotation speed: rad.s^-1
#
1	14.687347	14.687347	1.648080	-0.470880	9.417600	-0.911940	-0.431343	-0.348333	0.102625	-0.026878	0.008552
2	14.691742	0.004395	1.648080	-0.353160	9.535320	-0.911940	-0.434328	-0.345000	0.057421	0.004887	0.039095
3	14.700562	0.008820	1.177200	-0.235440	9.299880	-0.929851	-0.447761	-0.328333	0.046426	0.052534	0.006109
4	14.709381	0.008820	1.294920	-0.235440	9.182160	-0.923881	-0.450746	-0.330000	0.019548	0.078191	-0.004887
5	14.718201	0.008820	0.353160	-0.235440	8.946720	-0.931343	-0.453731	-0.330000	-0.019548	0.080634	-0.001222
6	14.727020	0.008820	0.117720	-0.117720	9.064440	-0.925373	-0.450746	-0.323333	-0.072082	0.064752	0.012217
7	14.735840	0.008820	0.000000	-0.117720	9.653040	-0.934328	-0.450746	-0.326667	-0.098960	0.026878	0.029322
8	14.744659	0.008820	0.000000	-0.706320	10.006200	-0.929851	-0.449254	-0.331667	-0.114843	-0.040317	0.040317
9	14.753479	0.008820	0.117720	-0.588600	10.241640	-0.923881	-0.450746	-0.325000	-0.106291	-0.068417	0.057421
10	14.762299	0.008820	0.353160	-0.353160	10.006200	-0.931343	-0.444776	-0.323333	-0.065973	-0.085521	0.062308
11	14.771149	0.008850	0.470880	-0.353160	10.359360	-0.932836	-0.450746	-0.323333	-0.034208	-0.048869	0.075747
12	14.779968	0.008820	0.470880	-0.588600	10.123920	-0.926866	-0.450746	-0.326667	-0.051313	-0.009774	0.081856
13	14.788788	0.008820	0.588600	-0.588600	10.359360	-0.931343	-0.443284	-0.325000	-0.007330	0.037874	0.101404
14	14.797607	0.008820	0.941760	-0.941760	10.006200	-0.929851	-0.444776	-0.323333	0.001222	0.076969	0.101404
15	14.806458	0.008850	1.059480	-0.588600	9.888480	-0.914925	-0.435821	-0.335000	0.010996	0.116064	0.094073
16	14.815277	0.008820	0.824040	-0.941760	9.653040	-0.908955	-0.426866	-0.351667	-0.015882	0.131947	0.096517
17	14.824097	0.008820	0.706320	-0.824040	9.535320	-0.907463	-0.425373	-0.350000	-0.018326	0.103847	0.064752
18	14.832916	0.008820	0.470880	-0.470880	9.417600	-0.905970	-0.423881	-0.350000	-0.023213	0.056200	0.081856
19	14.841766	0.008850	0.117720	-0.235440	9.535320	-0.913433	-0.431343	-0.340000	-0.067195	0.019548	0.075747
20	14.850586	0.008820	0.353160	-0.470880	9.535320	-0.926866	-0.440299	-0.328333	-0.064752	0.002443	0.086743
21	14.859406	0.008820	0.000000	-1.294920	9.888480	-0.923881	-0.440299	-0.333333	-0.092852	0.003665	0.107512
22	14.868256	0.008850	0.353160	-1.530360	10.477080	-0.907463	-0.425373	-0.350000	-0.026878	-0.015882	0.152716
23	14.877075	0.008820	1.294920	-1.765800	10.477080	-0.905970	-0.419403	-0.353333	0.004887	-0.007330	0.163712
24	14.885895	0.008820	1.648080	-1.530360	10.241640	-0.905970	-0.419403	-0.353333	0.017104	0.084299	0.150273
25	14.894714	0.008820	1.765800	-1.530360	10.123920	-0.907463	-0.416418	-0.355000	0.001222	0.136834	0.109956
26	14.903564	0.008850	1.765800	-1.648080	10.477080	-0.902985	-0.419403	-0.355000	0.034208	0.155160	0.085521
27	14.912384	0.008820	1.412640	-1.530360	10.123920	-0.902985	-0.417910	-0.355000	0.001222	0.111177	0.029322
28	14.921204	0.008820	1.530360	-1.530360	9.770760	-0.901493	-0.419403	-0.356667	-0.003665	0.138056	0.020769
29	14.930023	0.008820	1.412640	-1.177200	10.359360	-0.898507	-0.419403	-0.355000	0.014661	0.131947	-0.002443
30	14.938843	0.008820	0.824040	-0.824040	10.006200	-0.900000	-0.420896	-0.355000	0.024435	0.120951	-0.041539
31	14.947662	0.008820	0.588600	-1.177200	10.359360	-0.898507	-0.419403	-0.356667	-0.008552	0.102625	0.001222
32	14.956482	0.008820	0.353160	-1.530360	10.123920	-0.898507	-0.420896	-0.356667	0.021991	0.106291	-0.004887
33	14.965332	0.008850	0.470880	-0.824040	10.947960	-0.895522	-0.417910	-0.356667	0.056200	0.116064	0.025656
34	14.974304	0.008972	0.941760	-0.824040	10.241640	-0.894030	-0.417910	-0.358333	0.061087	0.151495	0.025656
35	14.982971	0.008667	0.824040	-0.824040	10.477080	-0.894030	-0.420896	-0.358333	0.043982	0.162490	0.028100
36	14.991791	0.008820	0.941760	-1.059480	10.123920	-0.894030	-0.420896	-0.360000	0.047647	0.178373	0.008552
37	15.000641	0.008850	0.706320	-0.941760	10.241640	-0.891045	-0.422388	-0.361667	0.053756	0.177151	-0.004887
38	15.009460	0.008820	0.588600	-0.470880	10.123920	-0.905970	-0.431343	-0.343333	0.014661	0.174707	-0.004887
39	15.018311	0.008850	0.235440	-0.353160	10.359360	-0.889552	-0.425373	-0.360000	-0.003665	0.149051	0.001222
40	15.027130	0.008820	0.000000	-0.588600	10.477080	-0.888060	-0.422388	-0.361667	-0.009774	0.097738	0.010996
41	15.035950	0.008820	-0.117720	-0.470880	10.477080	-0.885075	-0.420896	-0.363333	0.001222	0.083078	0.021991
42	15.044800	0.008850	0.000000	-0.706320	10.477080	-0.886567	-0.422388	-0.363333	0.026878	0.053756	0.026878
43	15.054291	0.009491	0.117720	-0.706320	10.359360	-0.885075	-0.426866	-0.361667	0.043982	0.056200	0.032987
44	15.062439	0.008148	0.117720	-0.470880	10.359360	-0.883582	-0.432836	-0.363333	0.039095	0.062308	0.039095
45	15.071259	0.008820	0.117720	-0.588600	10.006200	-0.885075	-0.423881	-0.363333	0.028100	0.076969	0.034208
46	15.080078	0.008820	-0.117720	-0.235440	9.888480	-0.885075	-0.425373	-0.361667	0.006109	0.080634	0.050091
47	15.088928	0.008850	-0.588600	-0.235440	9.770760	-0.883582	-0.423881	-0.363333	-0.043982	0.064752	0.089186
48	15.097748	0.008820	-0.588600	-0.588600	9.888480	-0.880597	-0.422388	-0.361667	-0.098960	0.026878	0.114843
49	15.106567	0.008820	-0.706320	-1.059480	10.006200	-0.883582	-0.419403	-0.363333	-0.072082	-0.023213	0.138056
50	15.115387	0.008820	0.117720	-1.059480	10.359360	-0.882090	-0.420896	-0.368333	-0.054978	-0.076969	0.147829
51	15.124207	0.008820	0.588600	-1.294920	10.594800	-0.883582	-0.419403	-0.363333	-0.052534	-0.036652	0.151495
52	15.133057	0.008850	0.941760	-1.530360	10.712520	-0.883582	-0.417910	-0.361667	-0.025656	-0.030543	0.129503
53	15.141876	0.008820	1.294920	-1.530360	10.477080	-0.885075	-0.416418	-0.365000	0.014661	0.015882	0.101404
54	15.150696	0.008820	1.530360	-1.648080	10.477080	-0.883582	-0.417910	-0.363333	0.052534	0.021991	0.078191
55	15.159515	0.008820	1.412640	-1.648080	10.006200	-0.885075	-0.420896	-0.365000	0.053756	0.030543	0.058643
56	15.168365	0.008850	1.412640	-1.294920	10.006200	-0.897015	-0.428358	-0.345000	0.018326	0.069639	0.017104
57	15.177185	0.008820	0.941760	-1.412640	9.770760	-0.885075	-0.423881	-0.360000	0.041539	0.074526	0.001222
58	15.186005	0.008820	0.824040	-1.648080	10.477080	-0.882090	-0.419403	-0.365000	0.028100	0.052534	-0.002443
59	15.194824	0.008820	0.941760	-1.412640	10.241640	-0.882090	-0.420896	-0.365000	0.026878	0.032987	-0.004887
60	15.203644	0.008820	0.588600	-0.941760	9.653040	-0.883582	-0.422388	-0.366667	0.037874	0.094073	-0.014661
61	15.212463	0.008820	0.353160	-1.177200	10.241640	-0.880597	-0.422388	-0.363333	0.034208	0.085521	-0.035430
62	15.221313	0.008850	0.000000	-0.706320	9.888480	-0.882090	-0.417910	-0.368333	0.023213	0.074526	-0.042761
63	15.230133	0.008820	-0.353160	-0.117720	9.653040	-0.879104	-0.425373	-0.366667	-0.014661	0.089186	-0.019548
64	15.238953	0.008820	-1.059480	-0.117720	10.006200	-0.879104	-0.423881	-0.365000	-0.050091	0.057421	-0.002443
65	15.247772	0.008820	-1.530360	-0.353160	9.888480	-0.877612	-0.422388	-0.365000	-0.097738	0.026878	0.030543
66	15.256592	0.008820	-1.648080	-0.588600	10.359360	-0.879104	-0.422388	-0.368333	-0.140499	-0.032987	0.080634
67	15.265442	0.008850	-1.059480	-1.177200	10.477080	-0.879104	-0.420896	-0.366667	-0.120951	-0.083078	0.107512
68	15.274261	0.008820	0.117720	-1.059480	10.830240	-0.880597	-0.417910	-0.368333	-0.084299	-0.108734	0.102625
69	15.283081	0.008820	0.235440	-1.530360	10.712520	-0.880597	-0.417910	-0.366667	-0.009774	-0.084299	0.141721
70	15.291901	0.008820	0.706320	-1.530360	11.889720	-0.882090	-0.417910	-0.368333	0.007330	-0.046426	0.052534
71	15.300720	0.008820	1.059480	-0.706320	10.006200	-0.883582	-0.419403	-0.368333	0.090408	0.001222	0.065973
72	15.309570	0.008850	0.588600	-1.412640	10.006200	-0.883582	-0.420896	-0.366667	0.073304	0.042761	0.047647
73	15.318390	0.008820	0.470880	-1.648080	10.123920	-0.882090	-0.420896	-0.365000	0.112399	-0.002443	0.048869
74	15.327209	0.008820	0.470880	-1.177200	9.770760	-0.880597	-0.420896	-0.366667	0.091630	0.034208	0.040317
75	15.336060	0.008850	0.353160	-1.177200	9.888480	-0.894030	-0.428358	-0.350000	0.076969	0.001222	0.047647
76	15.344879	0.008820	0.353160	-1.648080	9.770760	-0.882090	-0.422388	-0.363333	0.057421	-0.020769	0.045204
77	15.353699	0.008820	0.353160	-1.530360	9.888480	-0.880597	-0.420896	-0.365000	0.042761	-0.054978	0.046426
78	15.362518	0.008820	0.235440	-1.412640	10.006200	-0.880597	-0.420896	-0.365000	0.023213	-0.058643	0.024435
79	15.371338	0.008820	0.470880	-1.177200	10.006200	-0.882090	-0.420896	-0.363333	0.008552	-0.045204	0.025656
80	15.380157	0.008820	0.706320	-1.059480	10.359360	-0.882090	-0.425373	-0.365000	0.001222	-0.036652	0.021991
81	15.388977	0.008820	0.588600	-0.941760	10.241640	-0.882090	-0.423881	-0.363333	0.000000	-0.021991	0.002443
82	15.397827	0.008850	0.117720	-1.177200	10.359360	-0.883582	-0.423881	-0.363333	0.013439	-0.035430	0.006109
83	15.406647	0.008820	0.353160	-1.530360	10.477080	-0.883582	-0.423881	-0.361667	0.059865	-0.028100	0.019548
84	15.415466	0.008820	0.235440	-1.530360	10.241640	-0.882090	-0.422388	-0.361667	0.075747	-0.032987	0.031765
85	15.424286	0.008820	0.353160	-1.412640	9.888480	-0.883582	-0.423881	-0.365000	0.095295	-0.024435	0.023213
86	15.433105	0.008820	0.117720	-0.706320	9.535320	-0.883582	-0.425373	-0.363333	0.113621	-0.009774	0.015882
87	15.441925	0.008820	0.235440	-0.235440	9.299880	-0.883582	-0.425373	-0.361667	0.108734	0.017104	0.002443
88	15.450745	0.008820	-0.117720	0.000000	9.888480	-0.883582	-0.425373	-0.361667	0.050091	-0.028100	-0.015882
89	15.459595	0.008850	-0.470880	-0.235440	9.653040	-0.883582	-0.425373	-0.363333	0.054978	-0.020769	-0.004887
90	15.468414	0.008820	-0.824040	0.000000	9.770760	-0.882090	-0.428358	-0.360000	0.034208	-0.046426	0.037874
91	15.477234	0.008820	-0.706320	-0.235440	9.888480	-0.883582	-0.429851	-0.360000	0.050091	-0.051313	0.056200
92	15.486053	0.008820	-0.470880	-0.588600	10.123920	-0.883582	-0.428358	-0.363333	-0.130725	-0.040317	0.102625
93	15.494873	0.008820	0.235440	-0.235440	9.535320	-0.883582	-0.429851	-0.361667	0.025656	0.025656	0.139277
94	15.503693	0.008820	0.941760	-1.294920	10.947960	-0.897015	-0.435821	-0.345000	0.025656	0.152716	0.116064
95	15.512512	0.008820	0.941760	-1.648080	10.712520	-0.885075	-0.431343	-0.360000	0.091630	0.072082	0.108734
96	15.521362	0.008850	1.412640	-1.648080	10.594800	-0.882090	-0.428358	-0.361667	0.067195	0.122173	0.097738
97	15.530182	0.008820	0.941760	-1.412640	11.065680	-0.880597	-0.428358	-0.363333	0.096517	0.042761	0.095295
98	15.539001	0.008820	1.177200	-1.530360	10.477080	-0.879104	-0.434328	-0.361667	0.105069	-0.006109	0.047647
99	15.547821	0.008820	1.059480	-1.412640	10.359360	-0.880597	-0.428358	-0.361667	0.074526	-0.012217	0.039095
100	15.556641	0.008820	0.588600	-1.294920	10.123920	-0.879104	-0.431343	-0.363333	0.056200	-0.075747	0.018326
101	15.565491	0.008850	0.470880	-1.059480	10.006200	-0.882090	-0.434328	-0.361667	0.045204	-0.087965	0.018326
102	15.574310	0.008820	0.470880	-0.824040	10.123920	-0.883582	-0.429851	-0.361667	0.012217	-0.084299	0.013439
103	15.583130	0.008820	0.235440	-0.941760	10.359360	-0.882090	-0.432836	-0.363333	0.017104	-0.068417	0.006109
104	15.591949	0.008820	0.117720	-0.588600	10.006200	-0.886567	-0.431343	-0.361667	-0.007330	-0.047647	0.017104
105	15.600769	0.008820	-0.235440	-0.470880	10.006200	-0.883582	-0.432836	-0.363333	-0.009774	-0.050091	0.024435
106	15.609619	0.008850	0.000000	-0.470880	10.123920	-0.882090	-0.432836	-0.363333	-0.002443	-0.063530	0.031765
107	15.618439	0.008820	0.000000	-0.588600	10.006200	-0.883582	-0.429851	-0.361667	0.004887	-0.034208	0.058643
108	15.627258	0.008820	-0.235440	0.117720	7.887240	-0.888060	-0.432836	-0.360000	0.036652	-0.053756	0.024435
109	15.636047	0.008789	-0.588600	-0.824040	10.006200	-0.886567	-0.432836	-0.360000	-0.135612	-0.107512	0.092852
110	15.644897	0.008850	-0.117720	-0.235440	8.946720	-0.886567	-0.429851	-0.360000	-0.026878	-0.042761	0.134390
111	15.653717	0.008820	1.059480	-0.353160	11.536560	-0.886567	-0.429851	-0.361667	-0.095295	0.047647	0.085521
112	15.662537	0.008820	0.235440	-1.059480	9.770760	-0.900000	-0.435821	-0.350000	-0.026878	0.035430	0.081856
113	15.671356	0.008820	0.117720	-1.530360	10.830240	-0.888060	-0.431343	-0.358333	-0.018326	0.012217	0.091630
114	15.680206	0.008850	0.353160	-0.941760	10.477080	-0.885075	-0.426866	-0.361667	-0.047647	-0.040317	0.089186
115	15.689026	0.008820	0.470880	-1.059480	10.947960	-0.886567	-0.426866	-0.360000	-0.007330	-0.083078	0.084299
116	15.697845	0.008820	0.353160	-1.059480	10.123920	-0.888060	-0.435821	-0.358333	-0.001222	-0.080634	0.087965
117	15.706665	0.008820	0.588600	-1.412640	10.712520	-0.888060	-0.428358	-0.360000	-0.015882	-0.136834	0.081856
118	15.715485	0.008820	0.353160	-1.177200	9.535320	-0.889552	-0.428358	-0.360000	0.015882	-0.097738	0.098960
119	15.724304	0.008820	0.588600	-1.059480	10.123920	-0.888060	-0.425373	-0.360000	-0.017104	-0.068417	0.101404
120	15.733124	0.008820	0.588600	-1.059480	9.653040	-0.889552	-0.423881	-0.358333	-0.029322	-0.039095	0.090408
121	15.741943	0.008820	0.824040	-0.824040	10.123920	-0.889552	-0.425373	-0.360000	-0.042761	0.007330	0.108734
122	15.750793	0.008850	0.117720	-1.059480	10.123920	-0.889552	-0.423881	-0.360000	-0.013439	-0.020769	0.085521
123	15.759613	0.008820	0.353160	-1.294920	10.359360	-0.891045	-0.422388	-0.358333	0.002443	-0.062308	0.094073
124	15.768433	0.008820	0.588600	-1.530360	10.123920	-0.889552	-0.426866	-0.360000	0.021991	-0.087965	0.074526
125	15.777252	0.008820	0.941760	-1.648080	10.123920	-0.891045	-0.422388	-0.361667	0.025656	-0.067195	0.092852
126	15.786072	0.008820	1.059480	-1.765800	10.359360	-0.892537	-0.426866	-0.358333	0.041539	-0.042761	0.040317
127	15.794891	0.008820	1.412640	-1.765800	10.359360	-0.891045	-0.425373	-0.356667	0.065973	-0.015882	0.037874
128	15.803711	0.008820	1.530360	-1.294920	10.359360	-0.891045	-0.425373	-0.358333	0.102625	0.029322	-0.003665
129	15.812531	0.008820	1.177200	-1.412640	8.946720	-0.892537	-0.426866	-0.360000	0.108734	0.095295	-0.007330
130	15.821350	0.008820	0.824040	-1.294920	10.123920	-0.889552	-0.426866	-0.360000	0.042761	0.090408	-0.045204
131	15.830170	0.008820	0.588600	-0.706320	9.535320	-0.902985	-0.437313	-0.343333	0.067195	0.151495	-0.034208
132	15.839020	0.008850	0.353160	-0.824040	9.770760	-0.891045	-0.428358	-0.358333	0.021991	0.059865	-0.036652
133	15.847839	0.008820	0.117720	-1.177200	9.770760	-0.889552	-0.429851	-0.360000	-0.003665	0.039095	-0.056200
134	15.856659	0.008820	0.000000	-0.706320	9.535320	-0.889552	-0.429851	-0.360000	-0.006109	-0.001222	-0.003665
135	15.865479	0.008820	0.117720	-0.824040	9.888480	-0.888060	-0.429851	-0.360000	-0.086743	-0.032987	-0.018326
136	15.874298	0.008820	0.353160	-0.353160	9.888480	-0.888060	-0.429851	-0.358333	-0.028100	-0.020769	-0.019548
137	15.883118	0.008820	0.588600	-0.706320	10.006200	-0.885075	-0.429851	-0.358333	-0.065973	-0.050091	-0.007330
138	15.891937	0.008820	0.941760	-0.824040	10.359360	-0.888060	-0.428358	-0.360000	-0.098960	0.019548	-0.029322
139	15.900787	0.008850	0.470880	-0.588600	10.477080	-0.888060	-0.426866	-0.360000	-0.006109	-0.006109	-0.026878
140	15.909607	0.008820	0.353160	-0.353160	10.123920	-0.886567	-0.426866	-0.360000	-0.007330	0.017104	-0.029322
141	15.918427	0.008820	0.235440	-0.588600	10.241640	-0.888060	-0.428358	-0.360000	-0.025656	0.036652	-0.014661
142	15.927246	0.008820	0.000000	-0.470880	10.359360	-0.886567	-0.426866	-0.358333	-0.029322	0.013439	0.004887
143	15.936066	0.008820	-0.117720	-0.235440	9.888480	-0.889552	-0.425373	-0.360000	-0.061087	0.017104	0.003665
144	15.944885	0.008820	-0.235440	-0.235440	10.359360	-0.886567	-0.428358	-0.360000	-0.048869	0.013439	0.023213
145	15.953705	0.008820	-0.353160	-0.470880	10.123920	-0.885075	-0.425373	-0.360000	-0.063530	-0.052534	0.035430
146	15.962524	0.008820	-0.353160	-0.235440	10.359360	-0.886567	-0.425373	-0.361667	-0.061087	-0.107512	0.067195
147	15.971344	0.008820	-0.353160	-0.706320	10.241640	-0.889552	-0.423881	-0.360000	-0.050091	-0.147829	0.080634
148	15.980164	0.008820	-0.117720	-1.177200	10.477080	-0.892537	-0.422388	-0.360000	-0.074526	-0.215025	0.097738
149	15.988983	0.008820	0.235440	-1.294920	10.241640	-0.891045	-0.425373	-0.358333	-0.045204	-0.193033	0.118508
150	15.997803	0.008820	0.353160	-1.294920	10.241640	-0.908955	-0.431343	-0.346667	-0.069639	-0.189368	0.125838
151	16.006622	0.008820	0.588600	-1.177200	10.477080	-0.900000	-0.425373	-0.355000	-0.075747	-0.163712	0.114843
152	16.015442	0.008820	0.824040	-1.177200	10.241640	-0.897015	-0.416418	-0.356667	-0.047647	-0.125838	0.096517
153	16.024261	0.008820	0.941760	-1.530360	10.359360	-0.895522	-0.420896	-0.355000	-0.041539	-0.119730	0.101404
154	16.033081	0.008820	1.059480	-1.648080	10.359360	-0.895522	-0.419403	-0.356667	-0.021991	-0.098960	0.090408
155	16.041901	0.008820	1.059480	-1.530360	10.359360	-0.898507	-0.416418	-0.356667	-0.014661	-0.085521	0.072082
156	16.050720	0.008820	1.059480	-1.530360	10.123920	-0.898507	-0.417910	-0.356667	0.013439	-0.081856	0.072082
157	16.065308	0.014587	0.588600	-1.530360	9.888480	-0.898507	-0.417910	-0.356667	0.025656	-0.069639	0.080634
158	16.072784	0.007477	0.588600	-1.530360	9.535320	-0.902985	-0.416418	-0.355000	0.026878	-0.042761	0.085521
159	16.081604	0.008820	0.706320	-1.294920	9.417600	-0.902985	-0.419403	-0.353333	0.003665	-0.042761	0.092852
160	16.090424	0.008820	0.470880	-1.294920	9.064440	-0.901493	-0.419403	-0.353333	0.006109	-0.023213	0.109956
161	16.099243	0.008820	0.941760	-1.648080	9.417600	-0.897015	-0.419403	-0.356667	0.024435	-0.018326	0.096517
162	16.108093	0.008850	0.941760	-1.530360	8.946720	-0.901493	-0.417910	-0.353333	-0.020769	0.000000	0.089186
163	16.116913	0.008820	1.648080	-1.530360	9.182160	-0.901493	-0.416418	-0.355000	-0.035430	0.024435	0.073304
164	16.125732	0.008820	1.648080	-1.648080	9.064440	-0.900000	-0.416418	-0.355000	-0.040317	0.051313	0.042761
165	16.134552	0.008820	1.648080	-1.530360	9.535320	-0.900000	-0.414925	-0.356667	-0.046426	0.078191	0.026878
166	16.143402	0.008850	1.412640	-1.648080	10.006200	-0.900000	-0.414925	-0.356667	-0.048869	0.095295	0.012217
167	16.152222	0.008820	0.824040	-1.765800	10.241640	-0.900000	-0.413433	-0.358333	-0.046426	0.118508	-0.001222
168	16.161041	0.008820	0.706320	-1.648080	10.477080	-0.911940	-0.423881	-0.341667	-0.045204	0.103847	0.006109
169	16.169861	0.008820	0.353160	-1.648080	10.712520	-0.902985	-0.416418	-0.355000	-0.034208	0.109956	0.019548
170	16.178711	0.008850	0.117720	-1.648080	10.947960	-0.900000	-0.416418	-0.355000	-0.024435	0.073304	0.035430
171	16.187531	0.008820	0.235440	-1.648080	11.065680	-0.894030	-0.414925	-0.358333	0.000000	0.026878	0.025656
172	16.196350	0.008820	0.353160	-1.412640	11.065680	-0.894030	-0.413433	-0.356667	0.007330	-0.006109	0.043982
173	16.205170	0.008820	0.470880	-1.530360	10.830240	-0.897015	-0.411940	-0.360000	0.020769	-0.067195	0.052534
174	16.213989	0.008820	0.706320	-1.648080	10.830240	-0.895522	-0.410448	-0.358333	0.031765	-0.102625	0.062308
175	16.222809	0.008820	0.824040	-1.883520	10.594800	-0.897015	-0.413433	-0.360000	0.075747	-0.100182	0.058643
176	16.231628	0.008820	1.059480	-1.648080	10.477080	-0.898507	-0.414925	-0.358333	0.097738	-0.074526	0.052534
177	16.240479	0.008850	1.294920	-1.412640	10.123920	-0.895522	-0.414925	-0.358333	0.103847	-0.042761	0.030543
178	16.249298	0.008820	0.941760	-1.294920	9.888480	-0.900000	-0.417910	-0.355000	0.114843	0.002443	0.021991
179	16.258118	0.008820	0.824040	-1.294920	9.535320	-0.897015	-0.417910	-0.355000	0.086743	-0.014661	0.017104
180	16.266937	0.008820	0.470880	-1.530360	10.123920	-0.898507	-0.420896	-0.355000	0.072082	-0.013439	0.019548
181	16.275787	0.008850	0.235440	-1.059480	9.770760	-0.898507	-0.417910	-0.358333	0.046426	-0.035430	0.009774
182	16.284607	0.008820	0.235440	-0.941760	10.123920	-0.898507	-0.417910	-0.358333	0.056200	-0.101404	0.043982
183	16.293427	0.008820	0.588600	-1.294920	9.299880	-0.897015	-0.419403	-0.355000	0.043982	-0.089186	0.039095
184	16.302246	0.008820	0.470880	-1.294920	10.006200	-0.900000	-0.419403	-0.355000	0.013439	-0.089186	0.057421
185	16.311066	0.008820	0.588600	-1.059480	10.123920	-0.901493	-0.420896	-0.355000	0.042761	-0.084299	0.050091
186	16.319916	0.008850	1.059480	-1.412640	10.359360	-0.902985	-0.420896	-0.355000	0.051313	-0.037874	0.063530
187	16.328735	0.008820	1.177200	-1.412640	10.477080	-0.914925	-0.431343	-0.341667	0.105069	-0.007330	0.064752
188	16.337555	0.008820	1.648080	-1.412640	10.241640	-0.902985	-0.422388	-0.350000	0.139277	0.000000	0.030543
189	16.346375	0.008820	1.059480	-1.177200	9.888480	-0.902985	-0.423881	-0.353333	0.118508	0.014661	0.021991
190	16.355194	0.008820	0.824040	-0.824040	9.417600	-0.902985	-0.423881	-0.356667	0.092852	0.018326	0.007330
191	16.364014	0.008820	0.588600	-0.588600	9.299880	-0.900000	-0.420896	-0.355000	0.064752	-0.018326	0.013439
192	16.372833	0.008820	0.470880	-0.470880	9.182160	-0.901493	-0.422388	-0.353333	0.001222	-0.040317	0.023213
193	16.381653	0.008820	0.235440	-0.588600	9.064440	-0.902985	-0.423881	-0.355000	-0.007330	-0.048869	0.026878
194	16.390472	0.008820	0.353160	-0.941760	9.535320	-0.901493	-0.423881	-0.350000	-0.029322	-0.065973	0.048869
195	16.399323	0.008850	0.117720	-0.470880	9.417600	-0.904478	-0.425373	-0.351667	-0.052534	-0.036652	0.045204
196	16.408142	0.008820	0.117720	-0.353160	9.888480	-0.902985	-0.426866	-0.351667	-0.072082	-0.035430	0.062308
197	16.416962	0.008820	0.117720	-0.824040	9.770760	-0.902985	-0.429851	-0.350000	-0.080634	-0.072082	0.063530
198	16.425812	0.008850	0.353160	-0.824040	9.770760	-0.902985	-0.422388	-0.355000	-0.083078	-0.031765	0.075747
199	16.434631	0.008820	0.470880	-1.059480	10.006200	-0.904478	-0.420896	-0.353333	-0.078191	-0.053756	0.081856
200	16.443451	0.008820	1.059480	-1.294920	9.888480	-0.904478	-0.417910	-0.353333	-0.100182	-0.042761	0.073304
201	16.452271	0.008820	1.177200	-1.294920	10.123920	-0.905970	-0.419403	-0.351667	-0.075747	-0.013439	0.073304
202	16.461090	0.008820	0.941760	-1.530360	10.123920	-0.905970	-0.417910	-0.353333	-0.065973	-0.003665	0.058643
203	16.469910	0.008820	1.294920	-1.294920	9.770760	-0.904478	-0.416418	-0.353333	-0.043982	0.013439	0.048869
204	16.478729	0.008820	0.941760	-1.530360	10.006200	-0.905970	-0.419403	-0.353333	-0.069639	-0.002443	0.045204
205	16.487549	0.008820	1.059480	-1.648080	10.006200	-0.917910	-0.423881	-0.335000	-0.045204	-0.004887	0.042761
206	16.496368	0.008820	1.059480	-1.530360	10.359360	-0.907463	-0.414925	-0.350000	-0.035430	-0.043982	0.052534
207	16.505188	0.008820	0.824040	-1.294920	10.123920	-0.905970	-0.413433	-0.353333	-0.030543	-0.036652	0.061087
208	16.514008	0.008820	0.824040	-1.294920	10.006200	-0.905970	-0.413433	-0.351667	-0.051313	-0.031765	0.061087
209	16.522827	0.008820	1.059480	-0.941760	10.123920	-0.905970	-0.410448	-0.355000	-0.073304	-0.036652	0.065973
210	16.531647	0.008820	1.059480	-1.059480	10.241640	-0.905970	-0.413433	-0.355000	-0.069639	-0.036652	0.053756
211	16.540497	0.008850	0.824040	-1.648080	10.359360	-0.907463	-0.411940	-0.351667	-0.075747	-0.079412	0.056200
212	16.549316	0.008820	1.177200	-1.648080	10.477080	-0.907463	-0.411940	-0.353333	-0.092852	-0.096517	0.043982
213	16.558136	0.008820	1.412640	-1.648080	11.065680	-0.905970	-0.410448	-0.348333	-0.046426	-0.096517	0.042761
214	16.566956	0.008820	1.648080	-1.530360	10.594800	-0.907463	-0.408955	-0.351667	-0.007330	-0.069639	0.000000
215	16.575775	0.008820	1.765800	-1.530360	10.712520	-0.910448	-0.413433	-0.351667	0.032987	-0.079412	-0.017104
216	16.584595	0.008820	0.824040	-1.412640	10.123920	-0.907463	-0.410448	-0.350000	0.147829	-0.050091	-0.051313
217	16.593414	0.008820	1.059480	-1.059480	10.477080	-0.910448	-0.411940	-0.351667	0.020769	-0.025656	-0.008552
218	16.602234	0.008820	-0.117720	-0.470880	10.006200	-0.911940	-0.411940	-0.351667	0.041539	-0.034208	0.023213
219	16.611053	0.008820	0.235440	-1.177200	9.888480	-0.910448	-0.411940	-0.351667	0.024435	-0.040317	0.029322
220	16.619873	0.008820	0.000000	-1.059480	9.653040	-0.911940	-0.411940	-0.353333	-0.028100	-0.050091	0.068417
221	16.628693	0.008820	0.824040	-1.412640	9.888480	-0.911940	-0.410448	-0.350000	-0.037874	-0.063530	0.073304
222	16.637512	0.008820	1.294920	-1.648080	10.123920	-0.913433	-0.413433	-0.350000	-0.001222	-0.072082	0.079412
223	16.646332	0.008820	1.648080	-1.648080	10.241640	-0.911940	-0.410448	-0.350000	-0.035430	-0.047647	0.067195
224	16.655182	0.008850	1.883520	-1.648080	9.535320	-0.919403	-0.423881	-0.336667	0.025656	-0.004887	0.058643
225	16.664001	0.008820	1.883520	-1.412640	9.299880	-0.916418	-0.414925	-0.345000	0.041539	0.059865	0.025656
226	16.672821	0.008820	1.648080	-1.177200	8.004960	-0.910448	-0.410448	-0.350000	0.006109	0.092852	0.029322
227	16.681641	0.008820	1.294920	-1.412640	8.829000	-0.913433	-0.411940	-0.351667	0.043982	0.261450	0.017104
228	16.690460	0.008820	0.706320	-1.412640	9.299880	-0.908955	-0.410448	-0.353333	0.010996	0.207694	0.058643
229	16.699280	0.008820	0.588600	-1.530360	9.888480	-0.907463	-0.408955	-0.351667	-0.070860	0.234572	0.036652
230	16.708099	0.008820	0.000000	-1.059480	10.594800	-0.905970	-0.410448	-0.353333	-0.134390	0.150273	0.058643
231	16.716919	0.008820	0.117720	-1.530360	12.007440	-0.905970	-0.410448	-0.353333	-0.086743	-0.029322	0.074526
232	16.725739	0.008820	0.235440	-1.648080	10.947960	-0.907463	-0.408955	-0.353333	0.047647	-0.230907	0.048869
233	16.734558	0.008820	0.470880	-1.412640	11.065680	-0.905970	-0.404478	-0.355000	-0.025656	-0.211359	0.042761
234	16.743408	0.008850	0.706320	-1.177200	10.594800	-0.908955	-0.408955	-0.351667	-0.026878	-0.163712	0.072082
235	16.752197	0.008789	0.588600	-1.530360	10.241640	-0.908955	-0.407463	-0.348333	-0.075747	-0.085521	0.076969
236	16.761017	0.008820	0.706320	-0.824040	9.653040	-0.910448	-0.407463	-0.351667	-0.030543	0.008552	0.106291
237	16.769867	0.008850	0.941760	-0.824040	9.653040	-0.910448	-0.405970	-0.350000	-0.081856	0.047647	0.134390
238	16.778687	0.008820	0.588600	-1.648080	9.770760	-0.911940	-0.404478	-0.346667	-0.041539	0.012217	0.173486
239	16.787506	0.008820	1.177200	-1.648080	10.241640	-0.911940	-0.404478	-0.351667	-0.030543	-0.024435	0.130725
240	16.796326	0.008820	1.883520	-1.883520	10.006200	-0.910448	-0.402985	-0.353333	-0.025656	0.000000	0.089186
241	16.805176	0.008850	1.765800	-1.883520	10.359360	-0.910448	-0.404478	-0.348333	-0.012217	-0.034208	0.070860
242	16.813995	0.008820	1.883520	-1.530360	10.006200	-0.911940	-0.400000	-0.353333	-0.015882	-0.029322	0.042761
243	16.822815	0.008820	1.412640	-1.765800	10.006200	-0.925373	-0.414925	-0.336667	0.030543	-0.025656	-0.006109
244	16.831635	0.008820	1.177200	-1.648080	9.770760	-0.914925	-0.404478	-0.348333	0.000000	-0.023213	0.056200
245	16.840454	0.008820	1.059480	-1.765800	10.123920	-0.910448	-0.400000	-0.351667	0.002443	0.006109	0.018326
246	16.849274	0.008820	1.059480	-1.765800	10.006200	-0.913433	-0.401493	-0.348333	0.037874	0.026878	0.035430
247	16.858124	0.008850	1.294920	-1.648080	9.653040	-0.910448	-0.404478	-0.348333	0.019548	0.065973	0.041539
248	16.866943	0.008820	1.530360	-1.765800	10.006200	-0.908955	-0.402985	-0.346667	0.052534	0.061087	0.023213
249	16.875763	0.008820	1.648080	-1.883520	10.359360	-0.908955	-0.404478	-0.350000	0.091630	0.087965	0.019548
250	16.884583	0.008820	1.294920	-1.765800	9.770760	-0.910448	-0.404478	-0.351667	-0.010996	0.051313	-0.002443
251	16.893982	0.009399	0.706320	-2.001240	11.418840	-0.907463	-0.401493	-0.353333	0.097738	0.091630	-0.028100
252	16.902222	0.008240	0.588600	-1.883520	10.594800	-0.907463	-0.402985	-0.350000	0.097738	-0.094073	-0.050091
253	16.911041	0.008820	1.412640	-1.412640	9.888480	-0.907463	-0.404478	-0.351667	0.096517	0.053756	-0.029322
254	16.919861	0.008820	0.470880	-1.530360	10.830240	-0.908955	-0.407463	-0.353333	0.084299	-0.031765	-0.023213
255	16.928680	0.008820	1.059480	-1.177200	9.770760	-0.907463	-0.410448	-0.351667	0.096517	0.024435	-0.023213
256	16.937500	0.008820	0.706320	-0.588600	9.888480	-0.908955	-0.408955	-0.351667	0.058643	0.067195	-0.009774
257	16.946320	0.008820	0.588600	-1.412640	9.770760	-0.907463	-0.411940	-0.350000	0.061087	-0.032987	0.006109
258	16.955139	0.008820	0.824040	-1.059480	9.888480	-0.908955	-0.410448	-0.350000	0.028100	-0.013439	-0.002443
259	16.963959	0.008820	0.588600	-0.588600	9.535320	-0.907463	-0.411940	-0.351667	0.028100	-0.040317	0.004887
260	16.972778	0.008820	0.706320	-0.824040	9.417600	-0.907463	-0.411940	-0.350000	0.032987	-0.064752	0.004887
261	16.981598	0.008820	0.353160	-0.941760	9.653040	-0.913433	-0.408955	-0.345000	0.010996	-0.048869	0.018326
262	16.990417	0.008820	0.235440	-0.588600	9.299880	-0.919403	-0.422388	-0.338333	0.024435	-0.037874	0.037874
263	16.999237	0.008820	0.235440	-0.824040	8.829000	-0.908955	-0.408955	-0.351667	-0.017104	-0.008552	0.069639
264	17.008057	0.008820	0.353160	-0.824040	9.299880	-0.908955	-0.411940	-0.351667	-0.036652	0.031765	0.084299
265	17.016907	0.008850	0.824040	-1.294920	9.535320	-0.907463	-0.411940	-0.348333	-0.046426	0.050091	0.098960
266	17.025726	0.008820	1.530360	-1.412640	9.888480	-0.907463	-0.410448	-0.351667	-0.015882	0.087965	0.086743
267	17.034546	0.008820	1.412640	-1.530360	10.241640	-0.905970	-0.410448	-0.353333	-0.006109	0.068417	0.081856
268	17.043365	0.008820	1.177200	-1.294920	9.888480	-0.905970	-0.408955	-0.348333	-0.014661	0.070860	0.057421
269	17.052185	0.008820	1.177200	-1.294920	10.123920	-0.904478	-0.407463	-0.353333	0.008552	0.067195	0.050091
270	17.061005	0.008820	0.824040	-1.412640	9.770760	-0.904478	-0.405970	-0.353333	0.030543	0.076969	0.052534
271	17.069824	0.008820	0.353160	-1.648080	9.653040	-0.902985	-0.410448	-0.353333	0.008552	0.089186	0.065973
272	17.078644	0.008820	0.353160	-1.530360	9.770760	-0.904478	-0.410448	-0.353333	-0.006109	0.085521	0.076969
273	17.087463	0.008820	0.235440	-1.530360	9.535320	-0.904478	-0.408955	-0.355000	0.002443	0.074526	0.079412
274	17.096283	0.008820	0.706320	-1.530360	10.123920	-0.905970	-0.410448	-0.351667	0.002443	0.050091	0.092852
275	17.105103	0.008820	1.177200	-1.765800	10.123920	-0.902985	-0.408955	-0.353333	-0.002443	0.030543	0.081856
276	17.113953	0.008850	1.412640	-1.765800	10.359360	-0.904478	-0.408955	-0.353333	0.032987	0.021991	0.065973
277	17.122772	0.008820	1.648080	-1.765800	10.712520	-0.902985	-0.408955	-0.356667	0.069639	0.008552	0.029322
278	17.131592	0.008820	1.530360	-1.648080	10.359360	-0.901493	-0.408955	-0.355000	0.070860	0.014661	0.000000
279	17.140411	0.008820	1.294920	-1.765800	10.123920	-0.911940	-0.410448	-0.350000	0.073304	0.013439	-0.015882
280	17.149231	0.008820	0.706320	-1.412640	9.770760	-0.910448	-0.417910	-0.341667	0.062308	0.029322	-0.020769
281	17.158051	0.008820	0.470880	-1.412640	9.653040	-0.901493	-0.410448	-0.353333	0.015882	0.031765	-0.001222
282	17.166870	0.008820	0.353160	-1.412640	10.123920	-0.902985	-0.413433	-0.355000	0.010996	0.020769	0.026878
283	17.175690	0.008820	0.353160	-1.648080	10.123920	-0.901493	-0.411940	-0.355000	0.021991	0.003665	0.054978
284	17.184509	0.008820	0.824040	-1.648080	10.359360	-0.902985	-0.410448	-0.356667	0.023213	-0.007330	0.057421
285	17.193329	0.008820	1.059480	-1.530360	10.477080	-0.901493	-0.411940	-0.355000	0.076969	0.023213	0.057421
286	17.202148	0.008820	0.941760	-1.648080	10.359360	-0.901493	-0.413433	-0.355000	0.075747	0.013439	0.067195
287	17.210968	0.008820	1.177200	-1.648080	10.359360	-0.901493	-0.410448	-0.356667	0.074526	0.039095	0.046426
288	17.219788	0.008820	0.706320	-1.059480	10.241640	-0.902985	-0.413433	-0.356667	0.061087	0.030543	0.040317
289	17.228607	0.008820	0.470880	-0.706320	10.006200	-0.898507	-0.414925	-0.355000	0.018326	-0.007330	0.010996
290	17.237457	0.008850	0.235440	-0.588600	9.653040	-0.902985	-0.414925	-0.355000	-0.012217	-0.032987	0.020769
291	17.246277	0.008820	0.117720	-1.059480	9.888480	-0.900000	-0.413433	-0.355000	-0.029322	-0.097738	0.024435
292	17.255096	0.008820	0.353160	-1.059480	9.653040	-0.902985	-0.413433	-0.353333	-0.013439	-0.135612	0.034208
293	17.263916	0.008820	0.470880	-1.294920	9.182160	-0.902985	-0.413433	-0.355000	0.030543	-0.097738	0.061087
294	17.272736	0.008820	1.177200	-1.294920	9.417600	-0.902985	-0.411940	-0.353333	0.062308	-0.081856	0.067195
295	17.281555	0.008820	1.177200	-1.294920	8.829000	-0.902985	-0.411940	-0.355000	0.059865	0.045204	0.111177
296	17.290405	0.008850	1.648080	-1.648080	9.299880	-0.902985	-0.413433	-0.355000	0.021991	0.138056	0.120951
297	17.299225	0.008820	1.530360	-1.648080	8.946720	-0.902985	-0.408955	-0.356667	0.026878	0.197920	0.092852
298	17.308044	0.008820	1.530360	-1.530360	9.417600	-0.913433	-0.419403	-0.341667	-0.021991	0.248011	0.075747
299	17.316864	0.008820	1.412640	-1.412640	10.123920	-0.901493	-0.413433	-0.353333	-0.091630	0.240681	0.029322
300	17.325684	0.008820	0.706320	-1.530360	10.241640	-0.895522	-0.411940	-0.356667	-0.058643	0.068417	-0.006109
301	17.334503	0.008820	0.353160	-1.530360	10.359360	-0.895522	-0.411940	-0.358333	-0.092852	0.008552	-0.029322
302	17.343323	0.008820	0.235440	-1.530360	11.301120	-0.897015	-0.411940	-0.358333	-0.061087	-0.117286	-0.006109
303	17.352142	0.008820	0.117720	-1.648080	11.065680	-0.897015	-0.408955	-0.356667	-0.045204	-0.010996	-0.007330
304	17.360962	0.008820	0.235440	-1.765800	10.594800	-0.898507	-0.408955	-0.356667	-0.070860	-0.129503	0.028100
305	17.369812	0.008850	0.235440	-1.765800	10.594800	-0.901493	-0.407463	-0.356667	-0.028100	-0.085521	0.074526
306	17.378632	0.008820	0.588600	-1.765800	10.947960	-0.902985	-0.402985	-0.356667	-0.025656	-0.014661	0.070860
307	17.387451	0.008820	0.706320	-1.765800	10.947960	-0.901493	-0.410448	-0.356667	-0.004887	-0.021991	0.070860
308	17.396271	0.008820	1.294920	-1.648080	10.947960	-0.900000	-0.408955	-0.355000	0.054978	-0.018326	0.059865
309	17.405090	0.008820	1.412640	-1.765800	10.594800	-0.900000	-0.410448	-0.355000	0.076969	-0.070860	0.041539
310	17.413910	0.008820	1.294920	-1.648080	10.359360	-0.900000	-0.411940	-0.355000	0.095295	-0.081856	0.032987
311	17.422729	0.008820	0.353160	-1.177200	10.006200	-0.902985	-0.410448	-0.356667	0.075747	-0.136834	0.017104
312	17.431549	0.008820	0.117720	-1.177200	10.006200	-0.901493	-0.411940	-0.355000	0.028100	-0.141721	0.051313
313	17.440369	0.008820	0.000000	-1.530360	10.123920	-0.902985	-0.410448	-0.353333	0.059865	-0.156382	0.076969
314	17.449188	0.008820	0.000000	-1.294920	9.770760	-0.905970	-0.408955	-0.353333	0.087965	-0.175929	0.067195
315	17.458008	0.008820	0.588600	-1.294920	8.358120	-0.905970	-0.414925	-0.351667	0.052534	-0.086743	0.122173
316	17.466827	0.008820	1.648080	-1.530360	9.888480	-0.907463	-0.411940	-0.353333	0.039095	0.070860	0.131947
317	17.475647	0.008820	1.530360	-1.765800	9.064440	-0.922388	-0.422388	-0.335000	0.102625	-0.019548	0.129503
318	17.484467	0.008820	1.883520	-1.648080	8.829000	-0.910448	-0.411940	-0.348333	0.026878	0.152716	0.063530
319	17.493286	0.008820	1.648080	-1.530360	8.946720	-0.905970	-0.414925	-0.351667	0.031765	0.125838	0.050091
320	17.502106	0.008820	1.530360	-1.765800	9.182160	-0.904478	-0.413433	-0.355000	-0.001222	0.144164	0.003665
321	17.510925	0.008820	1.294920	-1.294920	9.770760	-0.901493	-0.411940	-0.355000	-0.021991	0.141721	0.032987
322	17.519745	0.008820	0.000000	-1.294920	10.594800	-0.900000	-0.411940	-0.356667	-0.057421	0.117286	0.029322
323	17.528564	0.008820	-0.353160	-1.412640	10.830240	-0.901493	-0.410448	-0.355000	-0.073304	-0.010996	0.045204
324	17.537384	0.008820	-0.706320	-1.530360	11.065680	-0.902985	-0.407463	-0.356667	-0.042761	-0.068417	0.080634
325	17.546204	0.008820	-0.706320	-1.765800	11.772000	-0.902985	-0.410448	-0.355000	0.002443	-0.310320	0.134390
326	17.555023	0.008820	-0.235440	-1.648080	10.830240	-0.904478	-0.408955	-0.355000	0.056200	-0.180816	0.145386
327	17.563873	0.008850	0.353160	-1.530360	9.770760	-0.907463	-0.410448	-0.353333	0.097738	-0.140499	0.157603
328	17.572693	0.008820	0.941760	-1.530360	9.535320	-0.905970	-0.410448	-0.353333	0.062308	-0.101404	0.183260
329	17.581512	0.008820	1.412640	-1.648080	8.711280	-0.907463	-0.410448	-0.350000	0.078191	-0.017104	0.167377
330	17.590332	0.008820	1.648080	-1.530360	8.829000	-0.905970	-0.408955	-0.355000	0.017104	0.074526	0.145386
331	17.599152	0.008820	1.530360	-1.648080	9.182160	-0.904478	-0.407463	-0.351667	-0.018326	0.107512	0.112399
332	17.607971	0.008820	1.883520	-1.765800	9.888480	-0.905970	-0.407463	-0.353333	-0.013439	0.114843	0.087965
333	17.616791	0.008820	1.412640	-1.648080	10.123920	-0.902985	-0.410448	-0.353333	-0.023213	0.103847	0.075747
334	17.625610	0.008820	1.412640	-1.765800	10.241640	-0.901493	-0.407463	-0.353333	0.015882	0.067195	0.048869
335	17.634430	0.008820	1.294920	-1.648080	10.477080	-0.917910	-0.416418	-0.340000	0.036652	0.040317	0.048869
336	17.643250	0.008820	1.177200	-1.765800	10.477080	-0.901493	-0.410448	-0.351667	0.068417	-0.001222	0.040317
337	17.652069	0.008820	0.824040	-1.648080	10.594800	-0.902985	-0.410448	-0.355000	0.090408	-0.012217	0.047647
338	17.660919	0.008850	0.941760	-1.648080	10.241640	-0.901493	-0.408955	-0.355000	0.068417	-0.004887	0.064752
339	17.669739	0.008820	1.059480	-1.648080	10.241640	-0.901493	-0.407463	-0.356667	0.050091	0.013439	0.043982
340	17.678558	0.008820	0.706320	-1.530360	10.241640	-0.901493	-0.408955	-0.356667	0.023213	0.030543	0.059865
341	17.687378	0.008820	0.588600	-1.412640	10.359360	-0.904478	-0.408955	-0.355000	0.030543	0.029322	0.063530
342	17.696198	0.008820	0.824040	-1.530360	10.477080	-0.901493	-0.404478	-0.358333	0.013439	-0.003665	0.046426
343	17.705017	0.008820	0.706320	-1.412640	10.123920	-0.900000	-0.410448	-0.355000	0.031765	-0.015882	0.068417
344	17.713837	0.008820	0.706320	-1.765800	10.830240	-0.901493	-0.411940	-0.355000	0.078191	-0.053756	0.076969
345	17.722656	0.008820	0.588600	-1.765800	10.359360	-0.901493	-0.410448	-0.355000	0.085521	-0.061087	0.080634
346	17.731506	0.008850	0.941760	-1.648080	9.653040	-0.902985	-0.411940	-0.353333	0.087965	-0.039095	0.103847
347	17.740326	0.008820	1.530360	-1.648080	9.653040	-0.904478	-0.411940	-0.355000	0.101404	-0.017104	0.078191
348	17.749146	0.008820	1.765800	-1.765800	9.182160	-0.901493	-0.410448	-0.351667	0.111177	-0.009774	0.047647
349	17.757965	0.008820	1.765800	-1.530360	9.182160	-0.902985	-0.413433	-0.353333	0.084299	0.041539	0.015882
350	17.766785	0.008820	1.177200	-1.412640	8.946720	-0.902985	-0.411940	-0.353333	0.079412	0.037874	-0.012217
351	17.775635	0.008850	0.706320	-1.412640	9.299880	-0.902985	-0.417910	-0.353333	0.130725	0.030543	-0.028100
352	17.784454	0.008820	0.117720	-1.177200	9.653040	-0.901493	-0.416418	-0.353333	0.029322	0.021991	-0.029322
353	17.793274	0.008820	-0.235440	-1.059480	9.535320	-0.901493	-0.416418	-0.355000	0.035430	0.040317	0.024435
354	17.802094	0.008820	-0.706320	-1.412640	10.006200	-0.914925	-0.425373	-0.336667	0.018326	0.050091	0.047647
355	17.810944	0.008850	-0.353160	-1.412640	9.888480	-0.902985	-0.417910	-0.348333	0.012217	0.053756	0.095295
356	17.819763	0.008820	-0.117720	-1.294920	9.888480	-0.900000	-0.416418	-0.356667	0.015882	0.046426	0.106291
357	17.828583	0.008820	0.706320	-1.294920	9.417600	-0.900000	-0.414925	-0.356667	0.001222	0.046426	0.103847
358	17.837433	0.008850	1.059480	-1.648080	10.006200	-0.898507	-0.414925	-0.356667	0.009774	0.046426	0.119730
359	17.846252	0.008820	1.530360	-1.648080	10.006200	-0.900000	-0.413433	-0.358333	0.030543	0.062308	0.083078
360	17.855072	0.008820	1.294920	-1.177200	10.006200	-0.900000	-0.411940	-0.356667	0.034208	0.079412	0.064752
361	17.863892	0.008820	0.824040	-1.294920	10.359360	-0.898507	-0.417910	-0.358333	0.031765	0.083078	0.048869
362	17.872711	0.008820	-0.117720	-1.412640	10.712520	-0.897015	-0.417910	-0.356667	0.015882	0.045204	0.070860
363	17.881531	0.008820	-0.470880	-1.412640	10.594800	-0.898507	-0.416418	-0.356667	0.032987	0.014661	0.113621
364	17.890350	0.008820	-0.588600	-1.648080	10.712520	-0.897015	-0.416418	-0.356667	0.063530	-0.046426	0.129503
365	17.899170	0.008820	-0.588600	-1.530360	10.477080	-0.898507	-0.414925	-0.355000	0.087965	-0.112399	0.180816
366	17.908020	0.008850	0.000000	-1.648080	10.594800	-0.897015	-0.414925	-0.356667	0.091630	-0.134390	0.206472
367	17.916840	0.008820	0.470880	-1.648080	11.065680	-0.900000	-0.416418	-0.358333	0.151495	-0.145386	0.229685
368	17.925659	0.008820	1.294920	-1.412640	10.594800	-0.902985	-0.416418	-0.355000	0.191812	-0.156382	0.234572
369	17.934479	0.008820	1.648080	-1.294920	10.006200	-0.904478	-0.419403	-0.351667	0.230907	-0.068417	0.206472
370	17.943329	0.008850	1.765800	-0.706320	10.123920	-0.901493	-0.420896	-0.353333	0.139277	-0.127060	0.163712
371	17.952148	0.008820	2.354400	-0.824040	9.299880	-0.904478	-0.422388	-0.353333	0.155160	0.047647	0.133169
372	17.960999	0.008850	0.706320	-0.117720	9.535320	-0.914925	-0.432836	-0.338333	0.205251	0.008552	0.133169
373	17.969818	0.008820	0.824040	-1.059480	10.006200	-0.904478	-0.425373	-0.350000	0.050091	-0.045204	0.125838
374	17.978638	0.008820	1.177200	-1.412640	10.006200	-0.904478	-0.422388	-0.355000	0.105069	0.042761	0.182038
375	17.987488	0.008850	0.470880	-0.588600	10.712520	-0.904478	-0.422388	-0.355000	0.158825	-0.100182	0.172264
376	17.996307	0.008820	1.059480	-1.294920	10.477080	-0.902985	-0.420896	-0.355000	0.056200	-0.043982	0.131947
377	18.005127	0.008820	0.706320	-0.470880	10.594800	-0.904478	-0.422388	-0.353333	0.102625	-0.023213	0.189368
378	18.013977	0.008850	0.588600	-0.824040	10.830240	-0.902985	-0.419403	-0.351667	0.113621	-0.095295	0.194255
379	18.022797	0.008820	0.824040	-0.824040	10.594800	-0.905970	-0.423881	-0.351667	0.125838	-0.084299	0.184481
380	18.031616	0.008820	0.353160	-0.353160	10.594800	-0.905970	-0.423881	-0.350000	0.111177	-0.119730	0.202807
381	18.040436	0.008820	0.470880	-0.353160	10.241640	-0.907463	-0.425373	-0.350000	0.116064	-0.089186	0.217468
382	18.049255	0.008820	0.353160	-0.470880	10.241640	-0.908955	-0.423881	-0.351667	0.140499	-0.051313	0.227242
383	18.058075	0.008820	0.824040	-0.235440	10.006200	-0.908955	-0.423881	-0.348333	0.140499	-0.030543	0.238237
384	18.066925	0.008850	1.059480	-0.235440	9.653040	-0.910448	-0.422388	-0.350000	0.108734	0.013439	0.255342
385	18.075745	0.008820	0.706320	-0.353160	10.006200	-0.910448	-0.422388	-0.350000	0.074526	0.006109	0.256563
386	18.084564	0.008820	0.470880	-0.353160	10.359360	-0.910448	-0.422388	-0.351667	0.079412	-0.032987	0.248011
387	18.093781	0.009216	0.235440	0.000000	10.359360	-0.908955	-0.425373	-0.346667	0.084299	-0.062308	0.266337
388	18.102203	0.008423	0.235440	-0.235440	10.477080	-0.914925	-0.423881	-0.346667	0.040317	-0.098960	0.272446
389	18.111053	0.008850	0.353160	-0.235440	9.888480	-0.911940	-0.423881	-0.346667	0.068417	-0.059865	0.305433
390	18.119873	0.008820	0.706320	-0.470880	9.653040	-0.913433	-0.420896	-0.345000	0.020769	-0.063530	0.305433
391	18.128693	0.008820	1.294920	-1.059480	9.299880	-0.919403	-0.431343	-0.328333	0.035430	-0.009774	0.321315
392	18.137543	0.008850	1.294920	-1.294920	9.653040	-0.920896	-0.428358	-0.340000	0.021991	-0.031765	0.309098
393	18.146362	0.008820	1.765800	-1.648080	9.770760	-0.916418	-0.414925	-0.346667	0.012217	-0.018326	0.267559
394	18.155182	0.008820	1.648080	-1.412640	9.770760	-0.914925	-0.417910	-0.348333	0.048869	-0.029322	0.243124
395	18.164001	0.008820	1.530360	-1.530360	9.888480	-0.914925	-0.416418	-0.346667	0.046426	-0.018326	0.246790
396	18.173767	0.009766	1.177200	-1.648080	9.653040	-0.917910	-0.414925	-0.345000	0.048869	0.009774	0.239459
397	18.181671	0.007904	0.706320	-1.177200	9.653040	-0.916418	-0.414925	-0.343333	0.057421	0.012217	0.207694
398	18.190491	0.008820	0.470880	-0.706320	9.535320	-0.916418	-0.416418	-0.343333	0.052534	0.002443	0.207694
399	18.199310	0.008820	0.235440	-0.706320	9.299880	-0.914925	-0.414925	-0.345000	0.009774	0.026878	0.206472
400	18.208130	0.008820	-0.235440	-0.706320	9.417600	-0.916418	-0.411940	-0.345000	-0.039095	0.009774	0.248011
401	18.216949	0.008820	-0.235440	-1.059480	9.770760	-0.916418	-0.413433	-0.346667	-0.031765	0.008552	0.273668
402	18.225769	0.008820	0.235440	-0.941760	9.770760	-0.913433	-0.410448	-0.346667	-0.054978	0.000000	0.273668
403	18.234589	0.008820	0.470880	-1.177200	10.359360	-0.916418	-0.410448	-0.346667	-0.039095	-0.017104	0.289550
404	18.243439	0.008850	0.470880	-1.648080	10.712520	-0.916418	-0.408955	-0.348333	-0.009774	-0.065973	0.277333
405	18.252258	0.008820	0.941760	-1.530360	10.477080	-0.917910	-0.407463	-0.345000	0.012217	-0.057421	0.266337
406	18.261078	0.008820	1.177200	-1.530360	10.359360	-0.922388	-0.402985	-0.345000	0.020769	-0.052534	0.279776
407	18.269897	0.008820	1.530360	-1.412640	9.888480	-0.917910	-0.404478	-0.345000	0.078191	-0.025656	0.261450
408	18.278717	0.008820	1.412640	-1.294920	9.535320	-0.917910	-0.404478	-0.343333	0.048869	0.019548	0.263894
409	18.287567	0.008850	1.412640	-1.530360	9.653040	-0.916418	-0.402985	-0.345000	0.050091	0.008552	0.249233
410	18.296387	0.008820	1.530360	-1.412640	9.653040	-0.931343	-0.413433	-0.336667	0.023213	0.048869	0.216246
411	18.305206	0.008820	1.412640	-1.294920	9.888480	-0.919403	-0.404478	-0.343333	0.003665	0.050091	0.216246
412	18.314026	0.008820	1.412640	-1.412640	10.006200	-0.917910	-0.398507	-0.346667	-0.020769	0.029322	0.213803
413	18.322876	0.008850	0.824040	-1.530360	10.006200	-0.917910	-0.401493	-0.346667	-0.020769	0.014661	0.166155
414	18.331696	0.008820	0.706320	-0.941760	10.477080	-0.919403	-0.402985	-0.346667	0.003665	-0.046426	0.205251
415	18.340515	0.008820	0.470880	-1.177200	10.477080	-0.916418	-0.402985	-0.345000	-0.006109	-0.041539	0.167377
416	18.349335	0.008820	0.588600	-1.294920	10.594800	-0.919403	-0.400000	-0.346667	0.000000	0.006109	0.175929
417	18.358185	0.008850	0.588600	-1.177200	11.065680	-0.919403	-0.397015	-0.345000	0.026878	-0.019548	0.196699
418	18.367004	0.008820	1.059480	-1.412640	10.359360	-0.919403	-0.395522	-0.345000	0.036652	0.025656	0.190590
419	18.375824	0.008820	1.177200	-1.412640	10.359360	-0.917910	-0.397015	-0.346667	0.068417	0.048869	0.208916
420	18.384644	0.008820	1.294920	-1.412640	10.123920	-0.919403	-0.395522	-0.345000	0.067195	0.051313	0.193033
421	18.393463	0.008820	1.294920	-1.294920	9.888480	-0.917910	-0.394030	-0.346667	0.094073	0.063530	0.164934
422	18.402283	0.008820	1.059480	-0.706320	9.770760	-0.919403	-0.397015	-0.348333	0.080634	0.062308	0.164934
423	18.411102	0.008820	1.059480	-1.294920	9.888480	-0.919403	-0.398507	-0.350000	0.041539	0.051313	0.144164
424	18.419952	0.008850	1.059480	-1.177200	10.123920	-0.917910	-0.402985	-0.346667	0.017104	0.018326	0.139277
425	18.428772	0.008820	1.177200	-1.412640	10.123920	-0.917910	-0.397015	-0.345000	-0.013439	0.020769	0.103847
426	18.437592	0.008820	1.294920	-1.648080	10.123920	-0.916418	-0.397015	-0.346667	0.000000	0.036652	0.105069
427	18.446411	0.008820	0.706320	-1.294920	10.477080	-0.916418	-0.395522	-0.346667	0.013439	0.014661	0.106291
428	18.455231	0.008820	0.353160	-1.059480	10.241640	-0.929851	-0.405970	-0.336667	0.008552	0.004887	0.113621
429	18.464050	0.008820	0.353160	-1.059480	10.006200	-0.919403	-0.397015	-0.343333	-0.041539	-0.023213	0.117286
430	18.472870	0.008820	0.824040	-1.530360	10.241640	-0.917910	-0.394030	-0.346667	0.007330	-0.025656	0.111177
431	18.481689	0.008820	0.470880	-1.412640	10.241640	-0.917910	-0.394030	-0.346667	0.006109	-0.054978	0.122173
432	18.490509	0.008820	1.412640	-1.530360	10.123920	-0.917910	-0.397015	-0.346667	0.040317	-0.078191	0.112399
433	18.499359	0.008850	1.294920	-1.648080	9.535320	-0.917910	-0.392537	-0.343333	0.019548	-0.004887	0.074526
434	18.508179	0.008820	1.177200	-1.648080	10.241640	-0.917910	-0.394030	-0.345000	0.048869	-0.102625	0.059865
435	18.516998	0.008820	1.765800	-1.648080	9.653040	-0.917910	-0.392537	-0.348333	0.026878	-0.001222	0.029322
436	18.525818	0.008820	1.412640	-1.412640	9.770760	-0.919403	-0.394030	-0.346667	0.036652	0.014661	0.035430
437	18.534637	0.008820	1.177200	-1.294920	9.535320	-0.919403	-0.394030	-0.345000	0.001222	0.035430	0.037874
438	18.543457	0.008820	0.824040	-1.530360	9.653040	-0.919403	-0.392537	-0.345000	-0.026878	0.057421	0.032987
439	18.552307	0.008850	1.177200	-1.530360	9.888480	-0.917910	-0.392537	-0.345000	-0.024435	0.080634	0.032987
440	18.561127	0.008820	1.059480	-1.530360	10.241640	-0.917910	-0.394030	-0.346667	-0.041539	0.047647	0.036652
441	18.569946	0.008820	1.177200	-1.530360	10.359360	-0.914925	-0.394030	-0.346667	0.003665	0.041539	0.004887
442	18.578766	0.008820	1.177200	-1.530360	10.241640	-0.919403	-0.395522	-0.346667	-0.002443	0.035430	0.003665
443	18.587585	0.008820	1.177200	-1.765800	10.359360	-0.916418	-0.395522	-0.346667	0.028100	-0.007330	-0.014661
444	18.596405	0.008820	1.412640	-1.648080	10.241640	-0.917910	-0.392537	-0.348333	0.007330	-0.004887	-0.013439
445	18.605225	0.008820	1.412640	-1.530360	10.241640	-0.914925	-0.392537	-0.348333	0.056200	-0.019548	-0.043982
446	18.614075	0.008850	1.530360	-1.648080	10.006200	-0.916418	-0.394030	-0.348333	0.053756	-0.032987	-0.052534
447	18.622894	0.008820	0.588600	-1.530360	10.241640	-0.929851	-0.407463	-0.340000	0.067195	-0.041539	-0.063530
448	18.631714	0.008820	0.824040	-1.294920	10.594800	-0.919403	-0.401493	-0.345000	0.058643	-0.108734	-0.053756
449	18.640533	0.008820	1.059480	-0.588600	10.477080	-0.917910	-0.400000	-0.345000	0.028100	-0.124617	-0.063530
450	18.649384	0.008850	0.706320	-1.177200	10.477080	-0.919403	-0.400000	-0.343333	0.017104	-0.085521	-0.067195
451	18.658203	0.008820	0.706320	-1.177200	10.947960	-0.917910	-0.398507	-0.345000	0.034208	-0.147829	-0.068417
452	18.667023	0.008820	1.294920	-0.706320	10.477080	-0.920896	-0.401493	-0.345000	0.063530	-0.117286	-0.086743
453	18.675873	0.008850	1.059480	-1.177200	10.712520	-0.920896	-0.400000	-0.343333	0.067195	-0.127060	-0.063530
454	18.684692	0.008820	1.177200	-1.412640	10.830240	-0.922388	-0.401493	-0.343333	0.102625	-0.169821	-0.067195
455	18.693512	0.008820	1.648080	-1.294920	10.359360	-0.922388	-0.405970	-0.343333	0.111177	-0.152716	-0.079412
456	18.702332	0.008820	1.530360	-1.059480	10.123920	-0.923881	-0.405970	-0.343333	0.125838	-0.155160	-0.095295
457	18.711151	0.008820	1.648080	-0.941760	10.006200	-0.925373	-0.408955	-0.340000	0.100182	-0.146608	-0.109956
458	18.720001	0.008850	1.294920	-0.117720	9.770760	-0.928358	-0.411940	-0.338333	0.083078	-0.139277	-0.138056
459	18.728821	0.008820	0.824040	0.000000	9.417600	-0.928358	-0.410448	-0.338333	0.035430	-0.146608	-0.139277
460	18.737640	0.008820	0.000000	-0.117720	9.182160	-0.928358	-0.410448	-0.336667	-0.018326	-0.156382	-0.109956
461	18.746460	0.008820	-0.470880	0.000000	9.299880	-0.929851	-0.411940	-0.336667	-0.051313	-0.189368	-0.083078
462	18.755280	0.008820	-0.824040	0.000000	9.770760	-0.931343	-0.411940	-0.336667	-0.054978	-0.202807	-0.046426
463	18.764130	0.008850	-0.235440	0.000000	9.770760	-0.935821	-0.410448	-0.335000	-0.069639	-0.210138	0.024435
464	18.772949	0.008820	0.000000	-0.117720	10.006200	-0.934328	-0.413433	-0.331667	-0.043982	-0.226020	0.070860
465	18.781769	0.008820	0.824040	-0.941760	9.770760	-0.950746	-0.425373	-0.316667	-0.020769	-0.178373	0.085521
466	18.790588	0.008820	1.294920	-0.706320	10.123920	-0.940299	-0.414925	-0.330000	0.000000	-0.075747	0.100182
467	18.799408	0.008820	1.412640	-0.588600	10.006200	-0.937313	-0.411940	-0.328333	-0.006109	-0.002443	0.087965
468	18.808228	0.008820	1.648080	-0.470880	9.888480	-0.938806	-0.411940	-0.330000	0.019548	0.032987	0.086743
469	18.817047	0.008820	1.412640	0.000000	10.241640	-0.935821	-0.414925	-0.328333	-0.009774	0.035430	0.059865
470	18.825897	0.008850	1.177200	-0.470880	10.241640	-0.938806	-0.410448	-0.328333	-0.020769	-0.029322	0.036652
471	18.834717	0.008820	1.177200	-0.235440	9.888480	-0.938806	-0.410448	-0.328333	-0.042761	-0.091630	0.030543
472	18.843536	0.008820	1.177200	-0.353160	9.770760	-0.941791	-0.410448	-0.330000	-0.052534	-0.085521	0.035430
473	18.852356	0.008820	0.706320	-0.941760	10.123920	-0.941791	-0.408955	-0.330000	-0.065973	-0.158825	0.050091
474	18.861176	0.008820	1.294920	-1.059480	10.006200	-0.941791	-0.410448	-0.328333	-0.074526	-0.166155	0.072082
475	18.870026	0.008850	0.824040	-1.059480	10.123920	-0.941791	-0.407463	-0.328333	-0.074526	-0.147829	0.092852
476	18.878845	0.008820	0.824040	-1.294920	10.241640	-0.941791	-0.407463	-0.326667	-0.069639	-0.175929	0.113621
477	18.887665	0.008820	0.824040	-1.059480	9.653040	-0.946269	-0.405970	-0.326667	-0.076969	-0.166155	0.135612
478	18.896484	0.008820	1.059480	-1.294920	9.535320	-0.947761	-0.405970	-0.325000	-0.046426	-0.156382	0.166155
479	18.905304	0.008820	1.294920	-1.530360	9.299880	-0.946269	-0.404478	-0.325000	-0.028100	-0.146608	0.162490
480	18.914154	0.008850	1.765800	-1.412640	8.711280	-0.949254	-0.402985	-0.325000	-0.052534	-0.118508	0.152716
481	18.922974	0.008820	2.001240	-1.294920	8.946720	-0.949254	-0.401493	-0.325000	-0.081856	-0.085521	0.142942
482	18.931793	0.008820	2.001240	-1.530360	9.535320	-0.950746	-0.397015	-0.323333	-0.061087	-0.057421	0.116064
483	18.940613	0.008820	2.001240	-1.294920	9.182160	-0.952239	-0.400000	-0.323333	-0.081856	-0.032987	0.068417
484	18.949432	0.008820	2.001240	-1.412640	9.417600	-0.962687	-0.411940	-0.313333	-0.076969	0.003665	0.047647
485	18.958252	0.008820	1.765800	-1.530360	9.417600	-0.953731	-0.402985	-0.320000	-0.045204	0.002443	0.025656
486	18.967072	0.008820	1.765800	-1.412640	9.653040	-0.950746	-0.398507	-0.323333	-0.021991	0.007330	0.013439
487	18.975891	0.008820	1.412640	-1.294920	9.888480	-0.950746	-0.400000	-0.323333	-0.046426	-0.001222	0.015882
488	18.984711	0.008820	1.294920	-1.177200	9.888480	-0.950746	-0.395522	-0.325000	-0.012217	-0.013439	0.024435
489	18.993530	0.008820	1.059480	-1.294920	9.888480	-0.950746	-0.395522	-0.325000	-0.013439	-0.012217	0.054978
490	19.002350	0.008820	1.177200	-1.530360	10.006200	-0.950746	-0.397015	-0.323333	-0.008552	-0.026878	0.076969
491	19.011169	0.008820	1.648080	-1.765800	10.241640	-0.952239	-0.395522	-0.323333	-0.010996	-0.021991	0.072082
492	19.019989	0.008820	1.765800	-1.648080	10.241640	-0.950746	-0.395522	-0.323333	0.010996	0.009774	0.069639
493	19.028839	0.008850	2.001240	-1.648080	10.594800	-0.950746	-0.400000	-0.323333	0.039095	0.014661	0.046426
494	19.037659	0.008820	2.001240	-1.294920	10.477080	-0.949254	-0.398507	-0.321667	0.050091	0.026878	0.024435
495	19.046478	0.008820	1.765800	-1.294920	10.359360	-0.950746	-0.397015	-0.325000	0.059865	0.023213	-0.001222
496	19.055298	0.008820	1.530360	-1.412640	10.241640	-0.950746	-0.407463	-0.325000	0.074526	0.014661	-0.020769
497	19.064148	0.008850	1.412640	-0.941760	10.123920	-0.949254	-0.397015	-0.323333	0.101404	-0.017104	-0.013439
498	19.072968	0.008820	1.059480	-0.941760	9.888480	-0.949254	-0.397015	-0.325000	0.087965	0.000000	0.007330
499	19.081787	0.008820	0.941760	-1.177200	9.770760	-0.950746	-0.400000	-0.323333	0.058643	-0.012217	0.014661
500	19.090607	0.008820	1.530360	-1.177200	10.006200	-0.949254	-0.401493	-0.323333	0.046426	0.000000	0.036652
501	19.099426	0.008820	1.765800	-1.412640	10.006200	-0.949254	-0.401493	-0.321667	0.057421	0.028100	0.034208
502	19.108276	0.008850	1.765800	-1.294920	10.006200	-0.947761	-0.401493	-0.323333	0.064752	0.061087	0.030543
503	19.117096	0.008820	2.001240	-1.530360	10.006200	-0.961194	-0.416418	-0.310000	0.081856	0.078191	0.028100
504	19.125916	0.008820	2.001240	-1.412640	10.123920	-0.949254	-0.404478	-0.318333	0.081856	0.074526	0.009774
505	19.134735	0.008820	1.765800	-1.177200	9.770760	-0.949254	-0.401493	-0.326667	0.065973	0.061087	0.024435
506	19.143555	0.008820	1.294920	-1.177200	9.653040	-0.947761	-0.405970	-0.325000	0.024435	0.046426	0.023213
507	19.152374	0.008820	1.294920	-1.412640	10.123920	-0.947761	-0.404478	-0.326667	0.009774	0.009774	0.015882
508	19.161194	0.008820	1.177200	-0.941760	10.123920	-0.946269	-0.405970	-0.326667	-0.014661	-0.002443	0.015882
509	19.170013	0.008820	1.177200	-1.294920	10.241640	-0.946269	-0.402985	-0.326667	-0.036652	-0.019548	0.030543
510	19.178833	0.008820	1.177200	-1.530360	10.477080	-0.944776	-0.405970	-0.325000	-0.029322	-0.053756	0.034208
511	19.187683	0.008850	1.294920	-1.412640	10.359360	-0.947761	-0.405970	-0.325000	0.008552	-0.054978	0.047647
512	19.196503	0.008820	1.530360	-1.412640	10.123920	-0.950746	-0.404478	-0.326667	0.004887	-0.073304	0.051313
513	19.205322	0.008820	1.648080	-1.412640	10.123920	-0.950746	-0.404478	-0.323333	0.023213	-0.056200	0.034208
514	19.214142	0.008820	1.648080	-0.941760	10.241640	-0.949254	-0.401493	-0.325000	0.035430	-0.052534	0.040317
515	19.222992	0.008850	1.648080	-1.530360	10.123920	-0.950746	-0.404478	-0.323333	0.051313	-0.036652	0.026878
516	19.231812	0.008820	1.883520	-1.412640	10.006200	-0.947761	-0.405970	-0.321667	0.069639	-0.015882	0.031765
517	19.240631	0.008820	1.765800	-1.294920	10.006200	-0.950746	-0.404478	-0.321667	0.051313	0.000000	0.025656
518	19.249451	0.008820	1.765800	-0.824040	9.535320	-0.950746	-0.404478	-0.325000	0.052534	0.013439	0.021991
519	19.258301	0.008850	1.412640	-0.706320	9.535320	-0.950746	-0.410448	-0.323333	0.061087	0.013439	0.029322
520	19.267120	0.008820	1.412640	-0.941760	9.417600	-0.949254	-0.408955	-0.323333	0.025656	0.010996	0.034208
521	19.275940	0.008820	1.177200	-0.824040	9.653040	-0.962687	-0.420896	-0.315000	0.017104	0.010996	0.045204
522	19.284760	0.008820	1.294920	-1.059480	9.770760	-0.952239	-0.408955	-0.321667	-0.028100	-0.002443	0.051313
523	19.293579	0.008820	1.530360	-0.941760	10.123920	-0.949254	-0.411940	-0.321667	-0.029322	0.017104	0.056200
524	19.302399	0.008820	1.530360	-1.177200	10.477080	-0.950746	-0.405970	-0.325000	-0.017104	0.014661	0.058643
525	19.311218	0.008820	1.765800	-1.412640	10.359360	-0.949254	-0.407463	-0.325000	-0.003665	0.010996	0.056200
526	19.320038	0.008820	1.883520	-1.412640	10.241640	-0.949254	-0.405970	-0.325000	0.031765	0.009774	0.059865
527	19.328857	0.008820	1.765800	-1.530360	10.123920	-0.947761	-0.405970	-0.325000	0.035430	0.004887	0.051313
528	19.337708	0.008850	1.883520	-1.177200	10.006200	-0.949254	-0.407463	-0.325000	0.037874	0.013439	0.051313
529	19.346527	0.008820	1.648080	-1.059480	10.123920	-0.949254	-0.405970	-0.323333	0.034208	0.021991	0.043982
530	19.355347	0.008820	1.648080	-1.177200	10.241640	-0.947761	-0.404478	-0.323333	0.018326	0.010996	0.053756
531	19.364166	0.008820	1.294920	-1.294920	10.123920	-0.949254	-0.408955	-0.325000	0.017104	0.012217	0.052534
532	19.373566	0.009399	1.412640	-1.530360	10.123920	-0.949254	-0.413433	-0.325000	0.017104	-0.007330	0.065973
533	19.381836	0.008270	1.294920	-1.059480	10.241640	-0.949254	-0.405970	-0.325000	0.023213	0.003665	0.062308
534	19.390656	0.008820	1.648080	-1.294920	10.123920	-0.950746	-0.404478	-0.325000	0.007330	0.003665	0.063530
535	19.399506	0.008850	1.883520	-1.294920	9.888480	-0.947761	-0.405970	-0.325000	0.029322	0.014661	0.051313
536	19.408325	0.008820	1.530360	-1.294920	9.770760	-0.946269	-0.405970	-0.325000	0.024435	0.014661	0.046426
537	19.417145	0.008820	1.765800	-1.412640	9.770760	-0.947761	-0.407463	-0.325000	0.063530	0.007330	0.042761
538	19.425964	0.008820	1.765800	-1.294920	9.653040	-0.946269	-0.408955	-0.325000	0.056200	0.000000	0.042761
539	19.434784	0.008820	1.530360	-1.177200	9.535320	-0.949254	-0.407463	-0.325000	0.089186	0.041539	0.039095
540	19.443604	0.008820	1.294920	-0.941760	9.182160	-0.961194	-0.419403	-0.313333	0.117286	0.042761	0.042761
541	19.452484	0.008881	1.530360	-0.941760	9.182160	-0.949254	-0.410448	-0.321667	0.094073	0.031765	0.062308
542	19.461243	0.008759	1.412640	-0.588600	9.417600	-0.947761	-0.408955	-0.325000	0.056200	0.108734	0.063530
543	19.470093	0.008850	1.294920	-0.824040	9.535320	-0.944776	-0.408955	-0.325000	0.048869	0.098960	0.074526
544	19.478912	0.008820	1.648080	-0.941760	9.770760	-0.944776	-0.408955	-0.328333	0.037874	0.105069	0.079412
545	19.487732	0.008820	1.530360	-1.059480	10.006200	-0.944776	-0.411940	-0.326667	0.050091	0.127060	0.089186
546	19.496552	0.008820	1.412640	-1.294920	10.241640	-0.943284	-0.410448	-0.328333	0.059865	0.108734	0.083078
547	19.505371	0.008820	1.530360	-1.294920	10.477080	-0.941791	-0.410448	-0.328333	0.040317	0.102625	0.095295
548	19.514191	0.008820	1.412640	-1.530360	10.712520	-0.941791	-0.410448	-0.328333	0.050091	0.069639	0.098960
549	19.523010	0.008820	1.530360	-0.941760	10.712520	-0.941791	-0.408955	-0.330000	0.031765	0.039095	0.070860
550	19.531830	0.008820	1.412640	-0.706320	10.712520	-0.940299	-0.410448	-0.328333	0.042761	-0.001222	0.075747
551	19.540649	0.008820	1.059480	-0.941760	10.594800	-0.941791	-0.407463	-0.328333	0.063530	-0.054978	0.069639
552	19.549469	0.008820	1.294920	-1.177200	10.594800	-0.940299	-0.411940	-0.330000	0.063530	-0.083078	0.074526
553	19.558289	0.008820	1.412640	-0.941760	10.123920	-0.943284	-0.411940	-0.328333	0.069639	-0.083078	0.076969
554	19.567108	0.008820	1.765800	-0.824040	10.241640	-0.941791	-0.413433	-0.326667	0.096517	-0.036652	0.083078
555	19.575958	0.008850	1.765800	-0.941760	9.888480	-0.946269	-0.413433	-0.326667	0.107512	0.035430	0.064752
556	19.584778	0.008820	1.883520	-0.824040	9.888480	-0.941791	-0.414925	-0.326667	0.114843	0.072082	0.054978
557	19.593597	0.008820	1.648080	-1.294920	9.417600	-0.941791	-0.416418	-0.326667	0.089186	0.090408	0.046426
558	19.602417	0.008820	1.765800	-1.177200	10.006200	-0.941791	-0.414925	-0.330000	0.122173	0.140499	0.057421
559	19.611237	0.008820	1.412640	-0.941760	9.770760	-0.952239	-0.426866	-0.320000	0.117286	0.114843	0.047647
560	19.620087	0.008850	1.530360	-1.294920	10.006200	-0.943284	-0.416418	-0.328333	0.122173	0.163712	0.050091
561	19.628906	0.008820	1.059480	-1.177200	10.359360	-0.938806	-0.417910	-0.331667	0.130725	0.156382	0.056200
562	19.637726	0.008820	1.059480	-0.824040	10.123920	-0.935821	-0.420896	-0.330000	0.144164	0.145386	0.064752
563	19.646545	0.008820	0.470880	-1.059480	10.123920	-0.937313	-0.422388	-0.331667	0.156382	0.151495	0.072082
564	19.655365	0.008820	0.470880	-1.059480	10.477080	-0.935821	-0.420896	-0.330000	0.136834	0.096517	0.078191
565	19.664185	0.008820	0.235440	-0.824040	10.359360	-0.932836	-0.422388	-0.331667	0.131947	0.045204	0.116064
566	19.673004	0.008820	0.235440	-0.706320	10.006200	-0.934328	-0.425373	-0.330000	0.109956	0.019548	0.118508
567	19.681824	0.008820	0.470880	-0.470880	10.006200	-0.932836	-0.420896	-0.330000	0.069639	-0.015882	0.135612
568	19.690643	0.008820	0.824040	-0.353160	10.006200	-0.934328	-0.420896	-0.330000	0.074526	-0.042761	0.145386
569	19.699493	0.008850	1.294920	-0.353160	9.888480	-0.934328	-0.420896	-0.330000	0.045204	-0.047647	0.139277
570	19.708313	0.008820	1.530360	-0.470880	10.006200	-0.935821	-0.423881	-0.330000	0.032987	-0.061087	0.123395
571	19.717133	0.008820	1.648080	-0.353160	10.123920	-0.932836	-0.423881	-0.330000	0.018326	-0.043982	0.119730
572	19.725952	0.008820	1.648080	-0.470880	10.241640	-0.935821	-0.423881	-0.330000	0.029322	-0.039095	0.109956
573	19.734802	0.008850	1.883520	-0.588600	10.477080	-0.937313	-0.423881	-0.328333	0.040317	-0.029322	0.102625
574	19.743622	0.008820	1.648080	-0.706320	10.594800	-0.937313	-0.423881	-0.331667	0.054978	-0.008552	0.090408
575	19.752441	0.008820	1.648080	-0.706320	10.359360	-0.935821	-0.423881	-0.331667	0.057421	-0.010996	0.081856
576	19.761292	0.008850	1.294920	-0.470880	10.241640	-0.938806	-0.422388	-0.330000	0.054978	0.000000	0.085521
577	19.770111	0.008820	1.059480	-0.824040	10.359360	-0.949254	-0.435821	-0.318333	0.037874	-0.032987	0.091630
578	19.778931	0.008820	0.824040	-0.941760	10.477080	-0.938806	-0.425373	-0.328333	0.053756	-0.040317	0.100182
579	19.787781	0.008850	0.824040	-0.941760	10.359360	-0.937313	-0.422388	-0.328333	0.043982	-0.076969	0.118508
580	19.796600	0.008820	0.941760	-1.059480	10.594800	-0.938806	-0.423881	-0.326667	0.068417	-0.106291	0.120951
581	19.805420	0.008820	1.294920	-0.824040	10.712520	-0.938806	-0.423881	-0.328333	0.070860	-0.123395	0.134390
582	19.814270	0.008850	1.177200	-0.941760	10.359360	-0.940299	-0.422388	-0.325000	0.080634	-0.117286	0.130725
583	19.823090	0.008820	1.177200	-1.059480	10.006200	-0.941791	-0.422388	-0.326667	0.069639	-0.141721	0.125838
584	19.831940	0.008850	1.177200	-0.941760	9.299880	-0.943284	-0.420896	-0.326667	0.052534	-0.153938	0.128282
585	19.840790	0.008850	0.824040	-0.824040	8.829000	-0.941791	-0.422388	-0.325000	0.076969	-0.130725	0.130725
586	19.849609	0.008820	1.177200	-1.059480	8.475840	-0.943284	-0.422388	-0.326667	0.052534	-0.168599	0.158825
587	19.858429	0.008820	1.412640	-0.706320	7.769520	-0.944776	-0.420896	-0.323333	-0.001222	-0.116064	0.162490
588	19.867249	0.008820	1.883520	-1.294920	7.887240	-0.947761	-0.423881	-0.325000	-0.045204	-0.040317	0.162490
589	19.876068	0.008820	2.236680	-1.177200	9.182160	-0.946269	-0.422388	-0.323333	-0.070860	-0.008552	0.127060
590	19.884918	0.008850	2.354400	-1.412640	8.829000	-0.947761	-0.422388	-0.323333	-0.095295	0.045204	0.068417
591	19.893738	0.008820	2.118960	-1.648080	9.535320	-0.944776	-0.417910	-0.325000	-0.067195	0.122173	0.065973
592	19.902557	0.008820	1.765800	-1.530360	10.359360	-0.946269	-0.419403	-0.325000	-0.063530	0.084299	0.035430
593	19.911407	0.008850	1.883520	-1.530360	10.123920	-0.944776	-0.416418	-0.325000	-0.054978	0.092852	0.007330
594	19.920227	0.008820	1.648080	-1.294920	10.359360	-0.943284	-0.416418	-0.326667	-0.023213	0.147829	0.015882
595	19.929077	0.008850	1.059480	-0.941760	10.594800	-0.943284	-0.414925	-0.325000	-0.040317	0.102625	0.010996
596	19.937897	0.008820	0.706320	-0.941760	10.477080	-0.943284	-0.420896	-0.315000	-0.013439	0.087965	0.020769
597	19.946747	0.008850	0.235440	-1.059480	10.594800	-0.952239	-0.426866	-0.315000	-0.031765	0.034208	0.059865
598	19.955566	0.008820	0.117720	-0.824040	10.594800	-0.941791	-0.417910	-0.326667	-0.030543	-0.025656	0.075747
599	19.964417	0.008850	0.706320	-0.470880	10.359360	-0.941791	-0.416418	-0.325000	-0.026878	-0.064752	0.086743
600	19.973236	0.008820	0.941760	-0.353160	10.123920	-0.943284	-0.414925	-0.326667	-0.020769	-0.120951	0.095295
601	19.982086	0.008850	1.530360	-0.706320	9.888480	-0.944776	-0.413433	-0.325000	-0.045204	-0.119730	0.081856
602	19.990906	0.008820	1.648080	-0.941760	9.770760	-0.943284	-0.411940	-0.325000	-0.047647	-0.102625	0.070860
603	19.999725	0.008820	1.765800	-0.824040	10.006200	-0.946269	-0.413433	-0.325000	-0.039095	-0.076969	0.062308
604	20.008545	0.008820	1.883520	-1.059480	9.417600	-0.946269	-0.413433	-0.325000	-0.025656	-0.024435	0.054978
605	20.017365	0.008820	1.883520	-1.059480	9.653040	-0.944776	-0.407463	-0.325000	-0.013439	0.034208	0.032987
606	20.026215	0.008850	1.883520	-1.412640	10.006200	-0.946269	-0.411940	-0.325000	-0.006109	0.059865	0.017104
607	20.035034	0.008820	1.648080	-1.177200	9.770760	-0.944776	-0.411940	-0.325000	-0.008552	0.072082	0.018326
608	20.043884	0.008850	1.530360	-0.941760	9.888480	-0.943284	-0.411940	-0.326667	-0.002443	0.079412	0.009774
609	20.052704	0.008820	1.294920	-1.294920	10.123920	-0.941791	-0.411940	-0.326667	-0.025656	0.070860	0.010996
610	20.061523	0.008820	1.177200	-1.059480	10.241640	-0.943284	-0.411940	-0.328333	0.012217	0.058643	0.034208
611	20.070374	0.008850	0.941760	-0.941760	10.241640	-0.941791	-0.411940	-0.326667	-0.018326	0.042761	0.028100
612	20.079193	0.008820	0.824040	-0.824040	10.359360	-0.944776	-0.410448	-0.330000	0.000000	0.034208	0.054978
613	20.088043	0.008850	0.941760	-0.706320	10.241640	-0.941791	-0.413433	-0.326667	-0.021991	0.017104	0.051313
614	20.096863	0.008820	1.412640	-1.059480	10.477080	-0.950746	-0.416418	-0.311667	-0.002443	-0.008552	0.054978
615	20.105682	0.008820	1.294920	-0.706320	10.477080	-0.943284	-0.414925	-0.325000	0.002443	-0.024435	0.069639
616	20.114532	0.008850	1.648080	-1.059480	10.241640	-0.941791	-0.408955	-0.325000	-0.002443	-0.017104	0.072082
617	20.123352	0.008820	1.765800	-0.706320	10.359360	-0.943284	-0.410448	-0.326667	0.021991	-0.025656	0.073304
618	20.132172	0.008820	1.765800	-0.353160	10.123920	-0.941791	-0.411940	-0.328333	-0.001222	-0.017104	0.072082
619	20.140991	0.008820	1.648080	-0.941760	9.888480	-0.943284	-0.410448	-0.325000	0.014661	-0.007330	0.073304
620	20.149841	0.008850	1.530360	-1.059480	10.006200	-0.943284	-0.408955	-0.326667	0.008552	-0.018326	0.078191
621	20.158661	0.008820	1.648080	-0.941760	9.888480	-0.943284	-0.408955	-0.326667	0.029322	-0.006109	0.074526
622	20.167480	0.008820	1.294920	-0.588600	9.888480	-0.943284	-0.410448	-0.326667	0.003665	0.006109	0.067195
623	20.176300	0.008820	1.412640	-0.353160	9.770760	-0.943284	-0.408955	-0.326667	0.004887	0.023213	0.065973
624	20.185150	0.008850	1.412640	-0.824040	9.770760	-0.941791	-0.410448	-0.328333	-0.006109	0.030543	0.073304
625	20.193970	0.008820	1.530360	-0.824040	9.888480	-0.941791	-0.410448	-0.328333	0.001222	0.046426	0.075747
626	20.202820	0.008850	1.883520	-0.706320	9.770760	-0.941791	-0.408955	-0.326667	0.012217	0.067195	0.080634
627	20.211639	0.008820	1.765800	-1.177200	10.123920	-0.941791	-0.410448	-0.326667	0.015882	0.080634	0.061087
628	20.220490	0.008850	1.648080	-1.294920	9.888480	-0.940299	-0.410448	-0.328333	0.039095	0.116064	0.061087
629	20.229309	0.008820	1.765800	-1.294920	10.594800	-0.940299	-0.408955	-0.331667	0.030543	0.130725	0.062308
630	20.238129	0.008820	1.765800	-1.294920	10.712520	-0.940299	-0.408955	-0.330000	0.030543	0.105069	0.053756
631	20.246979	0.008850	1.648080	-1.412640	11.065680	-0.937313	-0.408955	-0.331667	0.075747	0.061087	0.040317
632	20.255798	0.008820	1.883520	-1.648080	10.947960	-0.937313	-0.411940	-0.331667	0.117286	0.008552	0.036652
633	20.264648	0.008850	1.765800	-1.648080	10.477080	-0.952239	-0.422388	-0.316667	0.125838	0.014661	0.020769
634	20.273468	0.008820	1.765800	-1.412640	10.830240	-0.940299	-0.419403	-0.328333	0.142942	0.013439	0.019548
635	20.282318	0.008850	1.648080	-1.294920	10.830240	-0.935821	-0.416418	-0.328333	0.171042	0.067195	0.018326
636	20.291138	0.008820	1.648080	-1.412640	10.712520	-0.937313	-0.417910	-0.330000	0.179594	0.102625	0.019548
637	20.299957	0.008820	1.412640	-1.412640	11.301120	-0.934328	-0.417910	-0.331667	0.249233	0.122173	0.039095
638	20.308807	0.008850	1.648080	-1.530360	10.947960	-0.934328	-0.419403	-0.331667	0.312763	0.127060	0.043982
639	20.317627	0.008820	1.765800	-1.412640	10.712520	-0.932836	-0.422388	-0.331667	0.342085	0.133169	0.043982
640	20.326447	0.008820	1.648080	-1.059480	10.477080	-0.931343	-0.426866	-0.333333	0.353080	0.131947	0.035430
641	20.335266	0.008820	1.530360	-0.706320	10.123920	-0.931343	-0.423881	-0.335000	0.329867	0.109956	0.013439
642	20.344086	0.008820	1.177200	-0.353160	9.888480	-0.931343	-0.434328	-0.330000	0.294437	0.072082	0.008552
643	20.352936	0.008850	1.177200	-0.117720	9.299880	-0.928358	-0.435821	-0.331667	0.266337	0.021991	-0.007330
644	20.361755	0.008820	1.059480	-0.117720	9.182160	-0.929851	-0.437313	-0.330000	0.201586	-0.031765	-0.021991
645	20.370575	0.008820	0.941760	0.117720	8.946720	-0.931343	-0.440299	-0.330000	0.158825	-0.080634	-0.024435
646	20.379425	0.008850	1.177200	0.000000	9.064440	-0.931343	-0.441791	-0.328333	0.111177	-0.119730	-0.034208
647	20.388245	0.008820	1.059480	0.117720	8.946720	-0.932836	-0.441791	-0.328333	0.067195	-0.138056	-0.037874
648	20.397095	0.008850	1.059480	0.235440	9.182160	-0.932836	-0.441791	-0.328333	0.048869	-0.116064	-0.032987
649	20.405945	0.008850	1.177200	0.117720	9.064440	-0.934328	-0.441791	-0.326667	0.009774	-0.097738	-0.017104
650	20.414764	0.008820	0.824040	0.235440	9.064440	-0.937313	-0.444776	-0.325000	-0.013439	-0.062308	0.000000
651	20.423615	0.008850	0.941760	0.000000	9.535320	-0.947761	-0.458209	-0.310000	-0.007330	-0.017104	0.028100
652	20.432434	0.008820	1.059480	0.000000	9.653040	-0.937313	-0.446269	-0.323333	-0.006109	-0.018326	0.036652
653	20.441254	0.008820	1.412640	-0.235440	9.535320	-0.934328	-0.443284	-0.326667	0.001222	0.000000	0.047647
654	20.450104	0.008850	1.294920	-0.117720	9.653040	-0.935821	-0.444776	-0.326667	-0.001222	-0.006109	0.046426
655	20.458923	0.008820	1.294920	-0.117720	9.888480	-0.937313	-0.441791	-0.326667	-0.012217	-0.014661	0.042761
656	20.467773	0.008850	1.530360	-0.353160	9.888480	-0.932836	-0.444776	-0.326667	-0.007330	-0.024435	0.041539
657	20.476593	0.008820	1.412640	-0.235440	9.888480	-0.935821	-0.441791	-0.326667	-0.003665	-0.010996	0.039095
658	20.485443	0.008850	1.412640	-0.117720	9.888480	-0.937313	-0.443284	-0.325000	-0.021991	-0.002443	0.031765
659	20.494263	0.008820	1.412640	-0.117720	9.770760	-0.937313	-0.450746	-0.325000	-0.018326	0.008552	0.025656
660	20.503113	0.008850	1.294920	-0.117720	9.770760	-0.938806	-0.441791	-0.325000	-0.045204	0.002443	0.034208
661	20.511932	0.008820	1.412640	-0.235440	10.123920	-0.935821	-0.441791	-0.326667	-0.045204	-0.013439	0.019548
662	20.520782	0.008850	1.294920	-0.353160	10.241640	-0.937313	-0.444776	-0.326667	-0.025656	-0.014661	0.008552
663	20.529602	0.008820	1.294920	-0.353160	10.123920	-0.937313	-0.441791	-0.326667	-0.037874	-0.019548	0.008552
664	20.538452	0.008850	1.294920	-0.235440	10.006200	-0.935821	-0.441791	-0.325000	-0.030543	-0.035430	0.009774
665	20.547272	0.008820	1.294920	-0.235440	10.241640	-0.937313	-0.441791	-0.328333	-0.037874	-0.042761	0.010996
666	20.556122	0.008850	0.941760	0.000000	10.241640	-0.934328	-0.441791	-0.325000	-0.023213	-0.030543	0.035430
667	20.564941	0.008820	0.941760	-0.235440	10.241640	-0.935821	-0.443284	-0.325000	-0.026878	-0.021991	0.054978
668	20.573792	0.008850	1.294920	-0.235440	10.241640	-0.937313	-0.441791	-0.323333	-0.029322	-0.026878	0.056200
669	20.582611	0.008820	1.177200	-0.235440	10.123920	-0.935821	-0.443284	-0.325000	-0.014661	-0.002443	0.064752
670	20.591431	0.008820	1.412640	-0.117720	10.594800	-0.949254	-0.452239	-0.316667	-0.018326	0.008552	0.063530
671	20.600281	0.008850	1.412640	-0.117720	10.123920	-0.938806	-0.441791	-0.323333	-0.009774	0.028100	0.056200
672	20.609100	0.008820	1.412640	-0.117720	9.653040	-0.938806	-0.438806	-0.326667	-0.043982	0.003665	0.052534
673	20.617920	0.008820	1.412640	0.000000	9.535320	-0.938806	-0.437313	-0.326667	-0.084299	-0.007330	0.040317
674	20.626770	0.008850	1.059480	-0.117720	9.888480	-0.937313	-0.437313	-0.325000	-0.109956	-0.025656	0.046426
675	20.635590	0.008820	1.177200	0.117720	9.653040	-0.937313	-0.435821	-0.325000	-0.152716	-0.050091	0.045204
676	20.644409	0.008820	1.177200	-0.353160	10.006200	-0.940299	-0.435821	-0.325000	-0.163712	-0.078191	0.061087
677	20.653351	0.008942	1.177200	-0.117720	10.359360	-0.940299	-0.432836	-0.323333	-0.183260	-0.079412	0.063530
678	20.662079	0.008728	1.412640	-0.117720	10.477080	-0.938806	-0.432836	-0.326667	-0.152716	-0.074526	0.065973
679	20.670929	0.008850	1.648080	-0.470880	10.477080	-0.937313	-0.431343	-0.323333	-0.153938	-0.062308	0.064752
680	20.679749	0.008820	1.177200	-0.470880	10.477080	-0.940299	-0.429851	-0.325000	-0.127060	-0.059865	0.074526
681	20.688568	0.008820	1.530360	-0.824040	10.712520	-0.941791	-0.428358	-0.326667	-0.100182	-0.040317	0.076969
682	20.697418	0.008850	1.294920	-1.059480	11.065680	-0.940299	-0.426866	-0.325000	-0.065973	-0.021991	0.092852
683	20.710663	0.013245	1.177200	-1.294920	10.830240	-0.943284	-0.426866	-0.325000	-0.012217	-0.003665	0.113621
684	20.719513	0.008850	1.059480	-1.059480	10.830240	-0.941791	-0.426866	-0.325000	0.037874	-0.001222	0.112399
685	20.728363	0.008850	0.941760	-0.470880	10.477080	-0.943284	-0.426866	-0.323333	0.065973	0.015882	0.124617
686	20.737183	0.008820	0.588600	-0.706320	10.477080	-0.944776	-0.422388	-0.323333	0.078191	-0.153938	0.136834
687	20.746002	0.008820	0.706320	-0.706320	10.123920	-0.941791	-0.426866	-0.325000	0.074526	-0.026878	0.155160
688	20.754852	0.008850	0.824040	-0.470880	10.123920	-0.953731	-0.440299	-0.311667	0.070860	-0.054978	0.155160
689	20.763702	0.008850	1.412640	-0.824040	9.888480	-0.944776	-0.428358	-0.320000	0.054978	-0.074526	0.156382
690	20.772522	0.008820	1.530360	-0.706320	9.770760	-0.944776	-0.425373	-0.321667	0.043982	-0.079412	0.149051
691	20.781372	0.008850	1.412640	-0.941760	9.888480	-0.944776	-0.426866	-0.323333	0.032987	-0.061087	0.127060
692	20.790222	0.008850	1.648080	-1.412640	10.123920	-0.944776	-0.425373	-0.325000	0.024435	-0.040317	0.123395
693	20.799042	0.008820	1.765800	-1.294920	10.241640	-0.946269	-0.426866	-0.321667	0.026878	-0.037874	0.113621
694	20.807861	0.008820	1.765800	-1.412640	10.006200	-0.944776	-0.426866	-0.323333	0.023213	-0.040317	0.087965
695	20.816711	0.008850	1.294920	-0.941760	8.946720	-0.944776	-0.423881	-0.318333	0.002443	-0.040317	0.094073
696	20.825531	0.008820	1.530360	-0.941760	9.064440	-0.946269	-0.425373	-0.320000	-0.041539	-0.035430	0.090408
697	20.834351	0.008820	1.412640	-0.941760	9.182160	-0.944776	-0.426866	-0.320000	-0.054978	-0.039095	0.078191
698	20.843201	0.008850	1.765800	-1.059480	8.711280	-0.946269	-0.423881	-0.321667	-0.090408	-0.105069	0.026878
699	20.852020	0.008820	1.765800	-1.294920	9.182160	-0.947761	-0.422388	-0.321667	-0.085521	-0.028100	0.045204
700	20.860870	0.008850	1.530360	-1.648080	10.359360	-0.946269	-0.422388	-0.320000	-0.070860	-0.052534	0.017104
701	20.869690	0.008820	1.765800	-1.648080	10.006200	-0.949254	-0.419403	-0.320000	-0.040317	-0.037874	0.026878
702	20.878540	0.008850	1.530360	-1.530360	9.535320	-0.947761	-0.422388	-0.321667	-0.034208	0.002443	0.036652
703	20.887360	0.008820	1.765800	-1.530360	11.772000	-0.946269	-0.420896	-0.320000	0.070860	0.075747	0.039095
704	20.896210	0.008850	2.001240	-1.765800	11.301120	-0.947761	-0.422388	-0.323333	0.147829	0.107512	-0.004887
705	20.905029	0.008820	1.765800	-1.648080	9.888480	-0.943284	-0.425373	-0.321667	0.169821	0.228464	0.028100
706	20.913849	0.008820	1.059480	-1.412640	10.359360	-0.943284	-0.423881	-0.321667	0.107512	0.168599	0.020769
707	20.922699	0.008850	0.353160	-1.177200	9.417600	-0.953731	-0.437313	-0.315000	0.164934	-0.018326	-0.004887
708	20.931519	0.008820	0.588600	-0.353160	9.653040	-0.943284	-0.429851	-0.321667	0.124617	0.051313	0.059865
709	20.940338	0.008820	0.588600	-0.353160	10.241640	-0.943284	-0.426866	-0.325000	0.063530	-0.037874	0.072082
710	20.949188	0.008850	0.706320	-0.470880	10.006200	-0.941791	-0.428358	-0.323333	0.047647	0.003665	0.096517
711	20.958008	0.008820	0.588600	-0.470880	10.123920	-0.941791	-0.428358	-0.323333	0.045204	-0.040317	0.120951
712	20.966858	0.008850	1.294920	-0.706320	10.006200	-0.941791	-0.426866	-0.323333	0.046426	-0.064752	0.131947
713	20.975677	0.008820	1.530360	-0.588600	9.770760	-0.943284	-0.425373	-0.321667	0.031765	-0.068417	0.080634
714	20.984528	0.008850	2.001240	-0.706320	9.535320	-0.943284	-0.428358	-0.321667	0.057421	-0.045204	0.040317
715	20.993347	0.008820	2.354400	-1.177200	10.123920	-0.946269	-0.426866	-0.323333	0.003665	-0.024435	0.020769
716	21.002167	0.008820	2.354400	-1.059480	9.653040	-0.943284	-0.426866	-0.321667	0.026878	-0.018326	0.018326
717	21.011017	0.008850	2.118960	-0.824040	9.417600	-0.944776	-0.428358	-0.323333	-0.006109	0.036652	-0.040317
718	21.019867	0.008850	1.648080	-1.059480	9.535320	-0.946269	-0.426866	-0.323333	-0.026878	0.026878	-0.042761
719	21.028687	0.008820	0.824040	-0.824040	9.535320	-0.944776	-0.429851	-0.325000	-0.057421	-0.002443	-0.041539
720	21.037506	0.008820	1.412640	-0.706320	9.770760	-0.944776	-0.428358	-0.323333	-0.042761	-0.007330	-0.018326
721	21.046356	0.008850	1.294920	-0.824040	10.241640	-0.943284	-0.428358	-0.321667	-0.040317	0.007330	0.004887
722	21.055176	0.008820	1.530360	-0.941760	10.359360	-0.947761	-0.428358	-0.325000	-0.031765	-0.004887	0.014661
723	21.063995	0.008820	1.648080	-1.177200	10.477080	-0.941791	-0.428358	-0.323333	-0.003665	0.014661	0.014661
724	21.072845	0.008850	1.883520	-1.412640	10.359360	-0.943284	-0.428358	-0.323333	0.031765	0.063530	0.000000
725	21.081665	0.008820	1.648080	-1.294920	10.359360	-0.943284	-0.428358	-0.325000	0.050091	0.061087	0.000000
726	21.090485	0.008820	1.648080	-0.941760	10.123920	-0.956716	-0.443284	-0.311667	0.067195	0.067195	-0.010996
727	21.099335	0.008850	1.177200	-0.941760	10.123920	-0.943284	-0.431343	-0.323333	0.054978	0.068417	0.007330
728	21.108154	0.008820	0.117720	-0.588600	9.770760	-0.940299	-0.431343	-0.323333	0.029322	0.018326	0.025656
729	21.117004	0.008850	-0.117720	0.000000	9.182160	-0.941791	-0.432836	-0.325000	-0.029322	-0.063530	0.065973
730	21.125824	0.008820	0.824040	-0.117720	9.653040	-0.940299	-0.431343	-0.323333	-0.063530	-0.089186	0.079412
731	21.134674	0.008850	1.177200	-0.117720	10.006200	-0.943284	-0.440299	-0.321667	-0.059865	-0.112399	0.084299
732	21.143494	0.008820	1.530360	-0.470880	9.770760	-0.944776	-0.428358	-0.321667	-0.076969	-0.109956	0.073304
733	21.152344	0.008850	1.765800	-0.824040	9.653040	-0.944776	-0.426866	-0.323333	-0.083078	-0.047647	0.057421
734	21.161163	0.008820	1.765800	-1.177200	10.359360	-0.943284	-0.425373	-0.323333	-0.061087	-0.021991	0.045204
735	21.169983	0.008820	2.118960	-1.177200	10.006200	-0.944776	-0.425373	-0.323333	-0.013439	0.036652	0.025656
736	21.178802	0.008820	2.236680	-1.530360	10.123920	-0.944776	-0.423881	-0.321667	0.002443	0.125838	-0.010996
737	21.187622	0.008820	1.177200	-1.294920	10.594800	-0.941791	-0.428358	-0.323333	0.019548	0.131947	0.002443
738	21.196472	0.008850	0.706320	-0.824040	10.241640	-0.943284	-0.426866	-0.323333	0.045204	0.097738	0.001222
739	21.205292	0.008820	0.235440	-0.588600	10.006200	-0.941791	-0.428358	-0.325000	0.042761	0.043982	0.050091
740	21.214142	0.008850	0.588600	-0.353160	9.888480	-0.944776	-0.426866	-0.323333	0.037874	0.019548	0.073304
741	21.222961	0.008820	0.706320	-0.588600	10.123920	-0.941791	-0.428358	-0.325000	0.036652	0.037874	0.085521
742	21.231812	0.008850	1.765800	-0.941760	10.359360	-0.941791	-0.426866	-0.323333	0.035430	0.046426	0.079412
743	21.240631	0.008820	2.001240	-1.059480	10.241640	-0.941791	-0.426866	-0.326667	0.045204	0.102625	0.063530
744	21.249481	0.008850	2.001240	-1.412640	10.359360	-0.953731	-0.440299	-0.313333	0.058643	0.130725	0.030543
745	21.258301	0.008820	2.001240	-1.412640	10.241640	-0.940299	-0.429851	-0.325000	0.073304	0.136834	0.000000
746	21.267151	0.008850	1.648080	-1.412640	10.123920	-0.937313	-0.428358	-0.326667	0.087965	0.098960	-0.023213
747	21.276001	0.008850	1.059480	-1.177200	10.123920	-0.935821	-0.429851	-0.325000	0.095295	0.067195	-0.007330
748	21.284821	0.008820	0.706320	-1.059480	9.770760	-0.937313	-0.431343	-0.326667	0.051313	-0.012217	0.002443
749	21.293671	0.008850	1.294920	-0.470880	9.535320	-0.938806	-0.431343	-0.325000	0.070860	-0.008552	0.006109
750	21.302490	0.008820	1.412640	-0.824040	9.535320	-0.937313	-0.431343	-0.328333	0.051313	-0.002443	0.013439
751	21.311340	0.008850	1.648080	-0.706320	9.888480	-0.935821	-0.431343	-0.326667	0.046426	0.018326	0.009774
752	21.320160	0.008820	1.883520	-0.353160	9.299880	-0.935821	-0.432836	-0.328333	0.008552	0.068417	-0.009774
753	21.328979	0.008820	1.648080	-0.470880	9.299880	-0.932836	-0.432836	-0.330000	-0.009774	0.089186	-0.015882
754	21.337830	0.008850	0.941760	-0.941760	9.535320	-0.932836	-0.431343	-0.330000	-0.032987	0.076969	-0.007330
755	21.346649	0.008820	0.353160	-0.706320	10.123920	-0.934328	-0.434328	-0.325000	-0.017104	0.051313	0.017104
756	21.355469	0.008820	0.235440	-0.706320	10.359360	-0.934328	-0.432836	-0.330000	-0.010996	0.019548	0.056200
757	21.364288	0.008820	0.117720	-0.706320	10.594800	-0.932836	-0.431343	-0.330000	-0.002443	0.001222	0.064752
758	21.373230	0.008942	0.706320	-0.470880	10.359360	-0.931343	-0.437313	-0.328333	0.021991	-0.036652	0.067195
759	21.381958	0.008728	1.765800	-0.470880	10.123920	-0.934328	-0.431343	-0.328333	0.008552	-0.036652	0.048869
760	21.390778	0.008820	1.294920	-0.470880	9.888480	-0.935821	-0.431343	-0.326667	0.007330	-0.065973	0.030543
761	21.399628	0.008850	0.941760	-0.588600	9.417600	-0.935821	-0.432836	-0.328333	-0.036652	-0.085521	0.036652
762	21.408447	0.008820	0.824040	-0.353160	9.299880	-0.937313	-0.431343	-0.328333	-0.059865	-0.097738	0.053756
763	21.417267	0.008820	1.059480	-0.588600	9.182160	-0.952239	-0.444776	-0.315000	-0.029322	-0.122173	0.048869
764	21.426117	0.008850	1.648080	-1.059480	9.770760	-0.941791	-0.432836	-0.323333	-0.054978	-0.040317	0.087965
765	21.434967	0.008850	1.648080	-1.177200	10.123920	-0.938806	-0.429851	-0.326667	-0.059865	0.004887	0.064752
766	21.443787	0.008820	1.765800	-1.412640	10.006200	-0.938806	-0.429851	-0.326667	-0.020769	0.043982	0.053756
767	21.453217	0.009430	1.883520	-1.059480	9.299880	-0.937313	-0.428358	-0.330000	-0.007330	0.131947	0.052534
768	21.461456	0.008240	1.883520	-1.177200	9.770760	-0.935821	-0.431343	-0.328333	-0.020769	0.155160	0.029322
769	21.470276	0.008820	1.177200	-0.941760	9.535320	-0.934328	-0.428358	-0.328333	-0.007330	0.144164	0.010996
770	21.479126	0.008850	0.470880	-1.059480	9.770760	-0.935821	-0.428358	-0.330000	-0.007330	0.146608	0.043982
771	21.487946	0.008820	0.117720	-0.941760	10.006200	-0.931343	-0.428358	-0.331667	0.008552	0.105069	0.073304
772	21.496765	0.008820	0.470880	-0.470880	10.123920	-0.934328	-0.429851	-0.331667	0.021991	0.080634	0.098960
773	21.505615	0.008850	1.177200	-0.588600	10.123920	-0.932836	-0.428358	-0.330000	0.025656	0.105069	0.105069
774	21.514435	0.008820	3.296160	-0.941760	11.183400	-0.929851	-0.429851	-0.331667	0.113621	0.207694	-0.009774
775	21.523254	0.008820	1.648080	-0.941760	10.947960	-0.929851	-0.428358	-0.335000	0.128282	0.320093	-0.001222
776	21.532135	0.008881	1.530360	-1.648080	11.065680	-0.926866	-0.429851	-0.333333	0.106291	0.302989	0.039095
777	21.540924	0.008789	0.941760	-0.706320	9.770760	-0.922388	-0.431343	-0.338333	0.147829	0.288328	0.019548
778	21.549774	0.008850	0.941760	-0.824040	10.594800	-0.920896	-0.431343	-0.338333	0.130725	0.356745	-0.023213
779	21.558594	0.008820	0.353160	-0.353160	10.594800	-0.917910	-0.434328	-0.341667	0.135612	0.285885	0.051313
780	21.567444	0.008850	0.117720	-0.470880	10.123920	-0.916418	-0.434328	-0.340000	0.061087	0.206472	0.010996
781	21.576263	0.008820	0.000000	-0.353160	10.359360	-0.929851	-0.447761	-0.330000	0.105069	0.186925	0.054978
782	21.585114	0.008850	0.117720	-0.824040	10.830240	-0.914925	-0.441791	-0.340000	0.073304	0.208916	0.067195
783	21.593933	0.008820	0.235440	-0.941760	10.830240	-0.911940	-0.438806	-0.343333	0.078191	0.111177	0.074526
784	21.602783	0.008850	0.588600	-0.824040	10.594800	-0.910448	-0.437313	-0.343333	0.072082	0.161268	0.085521
785	21.611603	0.008820	0.706320	-0.824040	11.183400	-0.908955	-0.438806	-0.343333	0.087965	0.155160	0.087965
786	21.620422	0.008820	0.706320	-1.412640	11.418840	-0.908955	-0.438806	-0.345000	0.129503	0.129503	0.105069
787	21.629272	0.008850	1.059480	-1.648080	11.065680	-0.907463	-0.438806	-0.345000	0.139277	0.100182	0.075747
788	21.638092	0.008820	1.412640	-1.412640	10.477080	-0.908955	-0.438806	-0.346667	0.133169	0.072082	0.054978
789	21.646942	0.008850	1.530360	-1.412640	10.477080	-0.905970	-0.440299	-0.345000	0.120951	0.045204	0.029322
790	21.655762	0.008820	0.706320	-0.706320	9.770760	-0.907463	-0.444776	-0.346667	0.079412	-0.046426	0.041539
791	21.664581	0.008820	0.470880	-0.941760	9.535320	-0.907463	-0.443284	-0.345000	0.036652	-0.091630	-0.028100
792	21.673431	0.008850	1.412640	-0.235440	9.653040	-0.907463	-0.444776	-0.343333	0.029322	-0.046426	-0.010996
793	21.682251	0.008820	1.177200	-0.706320	10.477080	-0.907463	-0.444776	-0.343333	-0.021991	-0.031765	-0.009774
794	21.691071	0.008820	0.941760	-0.941760	10.123920	-0.908955	-0.443284	-0.343333	-0.020769	-0.053756	-0.023213
795	21.699921	0.008850	0.941760	-0.706320	9.770760	-0.910448	-0.441791	-0.343333	0.006109	0.023213	-0.028100
796	21.708740	0.008820	0.706320	-0.706320	9.888480	-0.907463	-0.443284	-0.343333	0.012217	0.043982	-0.020769
797	21.717590	0.008850	0.353160	-0.588600	10.477080	-0.908955	-0.446269	-0.346667	0.007330	0.021991	0.004887
798	21.726410	0.008820	0.117720	-0.470880	10.359360	-0.908955	-0.444776	-0.343333	0.014661	0.007330	0.015882
799	21.735260	0.008850	0.353160	-0.353160	9.888480	-0.908955	-0.446269	-0.343333	0.030543	-0.009774	0.017104
800	21.744080	0.008820	0.470880	0.000000	10.123920	-0.920896	-0.458209	-0.331667	0.047647	-0.001222	0.020769
801	21.752899	0.008820	0.470880	-0.235440	10.241640	-0.911940	-0.449254	-0.343333	0.025656	-0.002443	0.019548
802	21.761719	0.008820	0.588600	-0.235440	10.006200	-0.907463	-0.447761	-0.343333	0.042761	0.026878	0.015882
803	21.770569	0.008850	0.588600	-0.117720	10.123920	-0.907463	-0.446269	-0.343333	0.028100	0.063530	0.024435
804	21.779388	0.008820	0.706320	-0.235440	10.006200	-0.910448	-0.450746	-0.343333	0.004887	0.073304	0.021991
805	21.788239	0.008850	0.353160	-0.470880	10.123920	-0.905970	-0.444776	-0.343333	0.004887	0.053756	0.030543
806	21.797058	0.008820	0.235440	-0.588600	10.006200	-0.905970	-0.447761	-0.346667	-0.002443	0.040317	0.034208
807	21.805878	0.008820	0.706320	-0.941760	10.241640	-0.905970	-0.447761	-0.346667	0.000000	0.017104	0.031765
808	21.814697	0.008820	0.824040	-0.941760	10.359360	-0.905970	-0.449254	-0.345000	0.035430	0.000000	0.032987
809	21.823547	0.008850	0.824040	-0.941760	10.241640	-0.904478	-0.447761	-0.343333	0.054978	-0.023213	0.029322
810	21.832367	0.008820	0.588600	-0.941760	10.477080	-0.902985	-0.447761	-0.343333	0.063530	-0.034208	0.034208
811	21.841187	0.008820	0.588600	-0.824040	10.241640	-0.905970	-0.449254	-0.345000	0.095295	-0.050091	0.026878
812	21.850006	0.008820	0.706320	-0.706320	9.770760	-0.905970	-0.447761	-0.345000	0.069639	-0.035430	0.043982
813	21.858826	0.008820	0.588600	-0.470880	9.653040	-0.907463	-0.458209	-0.343333	0.053756	-0.039095	0.042761
814	21.867645	0.008820	0.588600	-0.235440	9.417600	-0.907463	-0.450746	-0.343333	0.036652	-0.019548	0.048869
815	21.876495	0.008850	0.588600	-0.235440	9.417600	-0.905970	-0.450746	-0.343333	0.007330	-0.008552	0.043982
816	21.885315	0.008820	0.588600	-0.353160	9.653040	-0.907463	-0.449254	-0.343333	-0.029322	-0.010996	0.043982
817	21.894165	0.008850	0.824040	-0.235440	9.653040	-0.905970	-0.449254	-0.343333	-0.051313	0.018326	0.047647
818	21.902985	0.008820	0.824040	-0.235440	9.888480	-0.907463	-0.449254	-0.345000	-0.067195	0.017104	0.041539
819	21.911804	0.008820	0.706320	-0.588600	10.123920	-0.919403	-0.459701	-0.333333	-0.048869	0.025656	0.048869
820	21.920624	0.008820	0.353160	-0.588600	10.241640	-0.910448	-0.450746	-0.341667	-0.013439	0.013439	0.056200
821	21.929474	0.008850	0.588600	-0.235440	10.123920	-0.904478	-0.447761	-0.345000	-0.019548	0.003665	0.062308
822	21.938293	0.008820	0.353160	-0.353160	10.123920	-0.905970	-0.447761	-0.345000	-0.003665	-0.010996	0.057421
823	21.947144	0.008850	0.117720	-0.117720	10.006200	-0.907463	-0.446269	-0.346667	-0.151495	-0.026878	0.058643
824	21.955963	0.008820	0.706320	-0.353160	10.123920	-0.907463	-0.444776	-0.345000	0.000000	-0.004887	0.076969
825	21.964783	0.008820	0.588600	-0.470880	10.006200	-0.902985	-0.447761	-0.345000	-0.002443	0.001222	0.067195
826	21.973633	0.008850	1.294920	-0.470880	9.888480	-0.905970	-0.446269	-0.343333	0.007330	0.018326	0.053756
827	21.982452	0.008820	1.530360	-0.706320	10.123920	-0.905970	-0.446269	-0.345000	0.021991	0.061087	0.042761
828	21.991272	0.008820	1.294920	-0.941760	10.241640	-0.905970	-0.447761	-0.346667	0.021991	0.083078	0.048869
829	22.000122	0.008850	0.824040	-0.588600	10.477080	-0.905970	-0.446269	-0.345000	0.039095	0.078191	0.054978
830	22.008942	0.008820	0.117720	-0.706320	10.594800	-0.904478	-0.446269	-0.348333	0.039095	0.068417	0.065973
831	22.017761	0.008820	0.235440	-0.941760	10.712520	-0.902985	-0.447761	-0.346667	0.028100	-0.012217	0.070860
832	22.026581	0.008820	0.706320	-1.059480	10.594800	-0.904478	-0.446269	-0.345000	0.048869	-0.046426	0.078191
833	22.035431	0.008850	0.941760	-0.824040	10.594800	-0.904478	-0.444776	-0.345000	0.056200	-0.095295	0.076969
834	22.044250	0.008820	1.059480	-0.941760	10.594800	-0.905970	-0.444776	-0.343333	0.029322	-0.141721	0.072082
835	22.053070	0.008820	1.059480	-0.824040	10.123920	-0.904478	-0.447761	-0.345000	0.000000	-0.177151	0.051313
836	22.061890	0.008820	1.412640	-0.706320	9.299880	-0.907463	-0.446269	-0.345000	-0.031765	-0.157603	0.037874
837	22.070740	0.008850	1.294920	-0.824040	9.535320	-0.922388	-0.459701	-0.328333	-0.052534	-0.113621	0.034208
838	22.079559	0.008820	1.059480	-0.706320	10.006200	-0.913433	-0.447761	-0.340000	-0.053756	-0.098960	0.023213
839	22.088379	0.008820	0.941760	-0.470880	10.477080	-0.908955	-0.444776	-0.343333	-0.030543	-0.034208	0.028100
840	22.097198	0.008820	1.177200	-0.824040	10.241640	-0.910448	-0.441791	-0.343333	-0.003665	0.017104	0.021991
841	22.106049	0.008850	1.412640	-0.824040	10.123920	-0.908955	-0.446269	-0.343333	0.014661	0.039095	0.015882
842	22.114868	0.008820	0.588600	-0.470880	10.123920	-0.908955	-0.444776	-0.341667	0.020769	0.052534	0.004887
843	22.123688	0.008820	0.000000	-0.235440	10.477080	-0.911940	-0.447761	-0.341667	0.031765	0.018326	0.019548
844	22.132538	0.008850	0.000000	-0.235440	10.359360	-0.908955	-0.447761	-0.345000	0.028100	-0.003665	0.052534
845	22.141357	0.008820	0.235440	-0.353160	10.006200	-0.908955	-0.446269	-0.341667	0.020769	-0.047647	0.068417
846	22.150177	0.008820	0.941760	-0.353160	9.653040	-0.910448	-0.444776	-0.340000	0.018326	-0.023213	0.059865
847	22.158997	0.008820	1.648080	-0.824040	9.653040	-0.910448	-0.446269	-0.343333	-0.003665	-0.006109	0.057421
848	22.167847	0.008850	1.648080	-0.824040	9.770760	-0.910448	-0.443284	-0.343333	-0.006109	-0.019548	0.031765
849	22.176666	0.008820	1.648080	-0.706320	10.123920	-0.908955	-0.441791	-0.341667	-0.024435	0.031765	0.020769
850	22.185486	0.008820	0.941760	-0.941760	10.359360	-0.910448	-0.444776	-0.345000	-0.025656	0.014661	0.013439
851	22.194336	0.008850	0.235440	-0.588600	10.006200	-0.910448	-0.446269	-0.341667	-0.036652	-0.012217	0.023213
852	22.203156	0.008820	-0.353160	-0.353160	10.359360	-0.908955	-0.447761	-0.341667	-0.018326	-0.051313	0.057421
853	22.212006	0.008850	0.000000	-0.117720	10.241640	-0.911940	-0.446269	-0.341667	-0.042761	-0.065973	0.076969
854	22.220825	0.008820	0.353160	-0.588600	10.477080	-0.910448	-0.444776	-0.340000	-0.045204	-0.120951	0.090408
855	22.229675	0.008850	1.530360	-0.941760	9.770760	-0.910448	-0.443284	-0.343333	-0.031765	-0.122173	0.056200
856	22.242920	0.013245	1.177200	-0.588600	9.888480	-0.934328	-0.455224	-0.335000	-0.025656	-0.138056	0.014661
857	22.251740	0.008820	1.765800	-0.588600	9.535320	-0.913433	-0.441791	-0.341667	-0.041539	-0.070860	0.041539
858	22.260559	0.008820	1.059480	-0.824040	9.888480	-0.917910	-0.441791	-0.343333	-0.046426	-0.053756	0.045204
859	22.269379	0.008820	1.059480	-0.824040	10.477080	-0.911940	-0.441791	-0.341667	-0.035430	-0.018326	0.035430
860	22.278229	0.008850	0.941760	-0.941760	10.359360	-0.916418	-0.441791	-0.340000	-0.004887	0.029322	0.047647
861	22.287048	0.008820	1.177200	-1.059480	10.241640	-0.914925	-0.441791	-0.340000	-0.006109	0.021991	0.041539
862	22.295868	0.008820	1.177200	-1.177200	10.123920	-0.914925	-0.441791	-0.340000	-0.004887	0.045204	0.059865
863	22.304718	0.008850	1.059480	-0.941760	10.123920	-0.913433	-0.440299	-0.341667	0.017104	0.017104	0.026878
864	22.313538	0.008820	0.941760	-1.059480	10.006200	-0.914925	-0.441791	-0.343333	0.045204	0.230907	0.105069
865	22.322388	0.008850	-0.824040	-1.412640	10.241640	-0.913433	-0.440299	-0.343333	0.037874	-0.081856	0.042761
866	22.331207	0.008820	0.824040	-0.353160	9.417600	-0.913433	-0.441791	-0.343333	0.002443	-0.026878	0.111177
867	22.340057	0.008850	1.059480	-0.470880	9.535320	-0.913433	-0.441791	-0.341667	-0.018326	-0.013439	0.098960
868	22.348877	0.008820	1.530360	-0.588600	9.888480	-0.913433	-0.440299	-0.343333	-0.036652	-0.106291	0.043982
869	22.357727	0.008850	1.294920	-0.470880	9.299880	-0.913433	-0.440299	-0.341667	-0.036652	-0.078191	0.008552
870	22.366547	0.008820	1.059480	-0.941760	10.006200	-0.914925	-0.440299	-0.340000	-0.075747	-0.048869	0.017104
871	22.375397	0.008850	0.824040	-0.941760	10.241640	-0.914925	-0.438806	-0.340000	-0.074526	-0.036652	0.026878
872	22.384216	0.008820	0.824040	-0.941760	10.241640	-0.914925	-0.438806	-0.341667	-0.028100	-0.021991	0.037874
873	22.393066	0.008850	0.235440	-0.941760	10.594800	-0.914925	-0.435821	-0.343333	-0.003665	0.037874	0.095295
874	22.401886	0.008820	0.941760	-1.530360	10.477080	-0.928358	-0.450746	-0.328333	0.017104	0.047647	0.081856
875	22.410706	0.008820	1.530360	-1.412640	10.477080	-0.917910	-0.437313	-0.340000	0.091630	0.067195	0.107512
876	22.419556	0.008850	1.530360	-1.294920	10.123920	-0.917910	-0.440299	-0.341667	0.090408	0.084299	0.064752
877	22.428375	0.008820	1.765800	-1.530360	9.770760	-0.913433	-0.438806	-0.341667	0.105069	0.078191	0.073304
878	22.437225	0.008850	1.530360	-1.294920	9.770760	-0.913433	-0.441791	-0.341667	0.094073	0.078191	0.054978
879	22.446045	0.008820	1.648080	-0.706320	9.535320	-0.911940	-0.440299	-0.343333	0.094073	0.067195	0.034208
880	22.454895	0.008850	1.765800	-0.941760	9.535320	-0.911940	-0.441791	-0.341667	0.035430	0.092852	0.009774
881	22.463715	0.008820	1.530360	-0.941760	9.535320	-0.910448	-0.441791	-0.345000	0.015882	0.090408	-0.019548
882	22.472565	0.008850	1.294920	-1.294920	10.006200	-0.908955	-0.440299	-0.341667	0.004887	0.108734	-0.003665
883	22.481415	0.008850	0.824040	-0.824040	10.477080	-0.907463	-0.441791	-0.343333	0.003665	0.101404	-0.010996
884	22.490234	0.008820	1.059480	-1.059480	10.241640	-0.907463	-0.441791	-0.345000	0.031765	0.113621	-0.008552
885	22.499084	0.008850	1.059480	-0.941760	10.477080	-0.905970	-0.440299	-0.345000	0.065973	0.173486	-0.003665
886	22.507904	0.008820	0.941760	-1.177200	10.712520	-0.905970	-0.443284	-0.345000	0.089186	0.182038	-0.012217
887	22.516724	0.008820	1.059480	-0.941760	10.241640	-0.902985	-0.446269	-0.346667	0.091630	0.175929	-0.002443
888	22.525574	0.008850	0.235440	-1.059480	9.299880	-0.901493	-0.447761	-0.346667	0.108734	0.201586	0.021991
889	22.534393	0.008820	0.000000	-0.824040	10.006200	-0.900000	-0.446269	-0.348333	0.106291	0.190590	0.006109
890	22.543213	0.008820	0.000000	-0.353160	10.006200	-0.900000	-0.447761	-0.345000	0.103847	0.145386	0.028100
891	22.552032	0.008820	0.000000	-0.235440	9.770760	-0.897015	-0.447761	-0.350000	0.089186	0.112399	0.048869
892	22.560883	0.008850	-0.117720	0.000000	9.653040	-0.897015	-0.449254	-0.353333	0.048869	0.091630	0.050091
893	22.569702	0.008820	0.117720	0.000000	10.123920	-0.910448	-0.462687	-0.343333	0.058643	0.083078	0.062308
894	22.578522	0.008820	0.235440	-0.117720	10.359360	-0.901493	-0.452239	-0.348333	0.012217	0.052534	0.054978
895	22.587372	0.008850	0.000000	-0.353160	10.241640	-0.894030	-0.450746	-0.351667	0.001222	0.039095	0.062308
896	22.596191	0.008820	0.117720	-0.470880	10.241640	-0.897015	-0.450746	-0.350000	-0.013439	0.032987	0.064752
897	22.605042	0.008850	0.353160	-0.706320	10.594800	-0.894030	-0.452239	-0.351667	-0.001222	0.032987	0.065973
898	22.613861	0.008820	0.353160	-0.941760	11.065680	-0.894030	-0.450746	-0.351667	0.043982	0.023213	0.070860
899	22.622711	0.008850	0.117720	-1.059480	10.830240	-0.894030	-0.447761	-0.350000	0.045204	0.032987	0.079412
900	22.631531	0.008820	0.117720	-0.824040	11.065680	-0.892537	-0.450746	-0.353333	0.069639	0.037874	0.102625
901	22.640381	0.008850	0.353160	-0.706320	10.830240	-0.892537	-0.447761	-0.353333	0.096517	0.021991	0.102625
902	22.649200	0.008820	0.588600	-0.824040	10.712520	-0.892537	-0.452239	-0.353333	0.141721	0.018326	0.098960
903	22.658051	0.008850	0.824040	-0.706320	10.123920	-0.891045	-0.449254	-0.351667	0.129503	0.013439	0.089186
904	22.666870	0.008820	0.706320	-0.588600	10.123920	-0.894030	-0.452239	-0.350000	0.134390	0.010996	0.081856
905	22.675690	0.008820	0.588600	-0.706320	9.417600	-0.894030	-0.455224	-0.346667	0.112399	-0.019548	0.067195
906	22.684540	0.008850	0.000000	-0.235440	8.358120	-0.894030	-0.453731	-0.346667	0.061087	-0.116064	0.064752
907	22.693359	0.008820	0.470880	-0.235440	9.182160	-0.892537	-0.455224	-0.346667	0.048869	-0.106291	0.063530
908	22.702179	0.008820	0.941760	-0.117720	9.064440	-0.895522	-0.455224	-0.351667	0.032987	-0.097738	0.062308
909	22.711029	0.008850	0.588600	-0.117720	9.182160	-0.897015	-0.455224	-0.348333	-0.042761	-0.105069	0.086743
910	22.719849	0.008820	1.059480	-0.117720	8.829000	-0.897015	-0.453731	-0.348333	-0.080634	-0.052534	0.075747
911	22.728668	0.008820	0.706320	-0.353160	9.770760	-0.897015	-0.452239	-0.348333	-0.076969	-0.043982	0.084299
912	22.737518	0.008850	0.824040	-1.059480	10.006200	-0.904478	-0.452239	-0.343333	-0.114843	-0.114843	0.053756
913	22.746338	0.008820	1.412640	-0.588600	9.770760	-0.905970	-0.461194	-0.336667	-0.095295	-0.004887	0.054978
914	22.755157	0.008820	1.177200	-0.941760	10.830240	-0.901493	-0.452239	-0.346667	-0.073304	-0.031765	0.057421
915	22.764008	0.008850	1.294920	-1.412640	10.712520	-0.901493	-0.449254	-0.346667	-0.021991	-0.043982	0.025656
916	22.772827	0.008820	0.588600	-0.706320	10.594800	-0.900000	-0.450746	-0.346667	0.010996	0.040317	0.047647
917	22.781647	0.008820	0.588600	-0.824040	10.712520	-0.900000	-0.446269	-0.350000	0.029322	0.029322	0.043982
918	22.790466	0.008820	0.588600	-0.706320	10.359360	-0.898507	-0.449254	-0.348333	0.056200	0.070860	0.061087
919	22.799316	0.008850	0.353160	-0.588600	10.241640	-0.898507	-0.449254	-0.346667	0.057421	0.056200	0.075747
920	22.808136	0.008820	0.353160	-0.941760	9.770760	-0.898507	-0.450746	-0.346667	0.062308	0.052534	0.080634
921	22.816986	0.008850	0.235440	-0.824040	10.123920	-0.900000	-0.455224	-0.346667	0.023213	0.023213	0.091630
922	22.825806	0.008820	0.588600	-0.588600	10.123920	-0.898507	-0.449254	-0.348333	0.023213	0.009774	0.087965
923	22.834656	0.008850	0.470880	-0.824040	10.123920	-0.897015	-0.449254	-0.348333	-0.008552	-0.015882	0.085521
924	22.843475	0.008820	1.294920	-1.177200	10.594800	-0.898507	-0.449254	-0.346667	-0.035430	-0.102625	0.086743
925	22.852325	0.008850	0.706320	0.117720	4.002480	-0.904478	-0.443284	-0.345000	-0.230907	-0.967611	0.259007
926	22.861145	0.008820	1.648080	-0.588600	13.655520	-0.901493	-0.443284	-0.350000	0.416610	1.323134	0.054978
927	22.869965	0.008820	-1.177200	-2.707560	8.711280	-0.895522	-0.446269	-0.350000	0.180816	0.064752	-0.131947
928	22.878815	0.008850	1.412640	1.059480	8.711280	-0.901493	-0.446269	-0.350000	-0.751364	-1.167974	0.285885
929	22.887634	0.008820	1.412640	-1.412640	9.535320	-0.904478	-0.443284	-0.346667	0.089186	0.390954	-0.239459
930	22.896484	0.008850	-0.706320	0.000000	9.653040	-0.908955	-0.458209	-0.336667	-0.197920	0.037874	0.094073
931	22.905304	0.008820	-0.941760	-0.941760	10.241640	-0.905970	-0.444776	-0.345000	-0.092852	-0.249233	-0.006109
932	22.914154	0.008850	0.353160	0.000000	9.770760	-0.904478	-0.440299	-0.346667	-0.155160	0.010996	0.083078
933	22.922974	0.008820	0.117720	-1.648080	11.889720	-0.904478	-0.440299	-0.346667	-0.085521	0.014661	0.108734
934	22.931824	0.008850	0.470880	-0.941760	11.654280	-0.904478	-0.438806	-0.350000	0.146608	-0.040317	0.122173
935	22.940643	0.008820	0.941760	-0.824040	10.123920	-0.904478	-0.437313	-0.346667	-0.007330	0.100182	0.092852
936	22.949463	0.008820	0.235440	-1.412640	12.007440	-0.901493	-0.437313	-0.348333	0.061087	0.000000	0.120951
937	22.958313	0.008850	0.470880	-1.530360	11.418840	-0.901493	-0.435821	-0.350000	0.103847	0.021991	0.079412
938	22.967133	0.008820	-0.235440	-0.470880	10.477080	-0.902985	-0.438806	-0.346667	0.116064	-0.050091	0.129503
939	22.975983	0.008850	0.000000	-0.353160	9.299880	-0.902985	-0.449254	-0.345000	0.127060	-0.215025	0.067195
940	22.984802	0.008820	1.059480	-0.353160	8.946720	-0.905970	-0.441791	-0.346667	0.031765	-0.074526	0.085521
941	22.993652	0.008850	0.824040	-0.941760	10.006200	-0.907463	-0.438806	-0.346667	0.001222	-0.200364	0.075747
942	23.002472	0.008820	1.648080	-1.294920	9.653040	-0.908955	-0.438806	-0.345000	-0.003665	-0.172264	0.058643
943	23.011292	0.008820	1.412640	-0.706320	9.417600	-0.907463	-0.438806	-0.346667	-0.014661	-0.092852	0.059865
944	23.020142	0.008850	1.648080	-0.941760	9.770760	-0.910448	-0.438806	-0.345000	-0.028100	-0.158825	0.052534
945	23.028961	0.008820	1.648080	-0.706320	9.770760	-0.911940	-0.435821	-0.340000	0.052534	-0.368963	0.156382
946	23.037811	0.008850	1.883520	-1.412640	8.946720	-0.916418	-0.438806	-0.341667	0.155160	-0.422719	0.085521
947	23.046631	0.008820	1.765800	-1.412640	8.475840	-0.919403	-0.438806	-0.338333	0.075747	-0.299324	-0.002443
948	23.055481	0.008850	1.765800	-1.294920	8.946720	-0.920896	-0.435821	-0.336667	-0.056200	-0.036652	-0.106291
949	23.064301	0.008820	1.412640	-1.294920	9.888480	-0.934328	-0.450746	-0.320000	-0.086743	0.028100	-0.048869
950	23.073151	0.008850	0.588600	-1.177200	10.006200	-0.922388	-0.440299	-0.336667	-0.070860	0.102625	0.009774
951	23.081970	0.008820	0.588600	-1.294920	10.241640	-0.917910	-0.437313	-0.340000	-0.065973	0.113621	0.004887
952	23.090790	0.008820	0.470880	-1.059480	10.594800	-0.916418	-0.437313	-0.340000	-0.012217	0.081856	-0.010996
953	23.099640	0.008850	1.059480	-1.412640	10.477080	-0.919403	-0.437313	-0.341667	0.034208	0.079412	-0.006109
954	23.108490	0.008850	1.294920	-1.177200	10.712520	-0.916418	-0.434328	-0.341667	0.031765	0.097738	0.013439
955	23.117310	0.008820	1.059480	-1.177200	10.594800	-0.916418	-0.437313	-0.343333	0.083078	0.106291	0.062308
956	23.126160	0.008850	0.470880	-1.412640	10.947960	-0.916418	-0.441791	-0.341667	0.103847	0.056200	0.034208
957	23.134979	0.008820	0.706320	-1.177200	10.241640	-0.913433	-0.440299	-0.345000	0.145386	0.068417	0.018326
958	23.143829	0.008850	0.353160	-0.588600	10.241640	-0.913433	-0.441791	-0.345000	0.063530	0.211359	0.028100
959	23.152649	0.008820	0.588600	-0.706320	10.594800	-0.911940	-0.441791	-0.341667	0.089186	0.194255	0.035430
960	23.161499	0.008850	1.177200	-1.059480	10.477080	-0.908955	-0.443284	-0.343333	0.080634	0.183260	0.021991
961	23.170319	0.008820	1.412640	-1.177200	10.830240	-0.908955	-0.441791	-0.343333	0.069639	0.150273	0.037874
962	23.179169	0.008850	1.648080	-1.530360	10.830240	-0.907463	-0.444776	-0.346667	0.153938	0.013439	0.051313
963	23.188019	0.008850	1.765800	-1.294920	10.359360	-0.907463	-0.444776	-0.345000	0.178373	-0.039095	-0.017104
964	23.196838	0.008820	1.648080	-1.177200	9.653040	-0.907463	-0.447761	-0.343333	0.141721	-0.098960	-0.037874
965	23.205688	0.008850	1.059480	-0.824040	8.946720	-0.910448	-0.446269	-0.343333	0.111177	-0.070860	-0.028100
966	23.214508	0.008820	1.177200	-0.470880	8.829000	-0.908955	-0.444776	-0.343333	0.039095	0.045204	0.032987
967	23.223328	0.008820	0.941760	-0.941760	8.946720	-0.920896	-0.458209	-0.331667	-0.036652	0.117286	0.030543
968	23.232178	0.008850	0.235440	-0.706320	9.417600	-0.910448	-0.452239	-0.343333	-0.050091	0.133169	0.031765
969	23.241028	0.008850	0.588600	-0.588600	9.417600	-0.907463	-0.449254	-0.346667	-0.034208	0.184481	0.039095
970	23.249847	0.008820	0.117720	-0.470880	9.770760	-0.904478	-0.447761	-0.345000	-0.032987	0.197920	0.032987
971	23.258698	0.008850	0.706320	-0.588600	10.123920	-0.904478	-0.446269	-0.345000	0.015882	0.034208	0.036652
972	23.267517	0.008820	0.941760	-0.470880	9.535320	-0.904478	-0.449254	-0.346667	-0.008552	0.032987	0.032987
973	23.276367	0.008850	0.824040	-0.588600	9.888480	-0.901493	-0.450746	-0.345000	-0.004887	0.034208	0.014661
974	23.285187	0.008820	0.706320	-0.941760	10.006200	-0.901493	-0.450746	-0.348333	-0.007330	0.024435	0.024435
975	23.294037	0.008850	0.353160	-0.824040	9.888480	-0.902985	-0.450746	-0.346667	-0.004887	0.012217	0.052534
976	23.302887	0.008850	0.588600	-1.294920	9.888480	-0.902985	-0.449254	-0.346667	-0.020769	0.006109	0.050091
977	23.311707	0.008820	0.824040	-1.177200	10.241640	-0.901493	-0.449254	-0.345000	0.000000	0.020769	0.079412
978	23.320526	0.008820	1.059480	-1.177200	10.241640	-0.901493	-0.449254	-0.346667	0.012217	0.030543	0.059865
979	23.329376	0.008850	0.941760	-1.177200	10.123920	-0.901493	-0.450746	-0.350000	0.037874	0.017104	0.035430
980	23.338196	0.008820	0.941760	-0.824040	9.770760	-0.901493	-0.447761	-0.346667	0.042761	0.009774	0.045204
981	23.347015	0.008820	1.177200	-0.588600	9.299880	-0.900000	-0.447761	-0.348333	-0.001222	0.020769	0.026878
982	23.355865	0.008850	0.941760	-0.353160	9.535320	-0.902985	-0.447761	-0.348333	-0.017104	0.045204	0.015882
983	23.364685	0.008820	0.824040	-0.706320	9.888480	-0.901493	-0.449254	-0.346667	-0.070860	0.048869	0.021991
984	23.373535	0.008850	0.470880	-0.706320	9.770760	-0.898507	-0.453731	-0.346667	-0.085521	0.037874	0.001222
985	23.382355	0.008820	0.470880	-0.117720	9.770760	-0.900000	-0.447761	-0.346667	-0.108734	0.052534	0.026878
986	23.391205	0.008850	0.000000	-0.588600	10.241640	-0.913433	-0.458209	-0.336667	-0.116064	0.036652	0.025656
987	23.400024	0.008820	0.117720	-0.706320	10.477080	-0.901493	-0.446269	-0.345000	-0.101404	-0.029322	0.052534
988	23.408844	0.008820	0.117720	-0.824040	10.594800	-0.901493	-0.443284	-0.350000	-0.083078	-0.034208	0.062308
989	23.417664	0.008820	0.353160	-0.706320	10.712520	-0.901493	-0.443284	-0.351667	-0.065973	-0.053756	0.086743
990	23.426514	0.008850	0.588600	-1.059480	10.477080	-0.901493	-0.441791	-0.350000	-0.046426	-0.032987	0.092852
991	23.435333	0.008820	0.824040	-1.294920	10.006200	-0.900000	-0.440299	-0.350000	-0.035430	-0.026878	0.081856
992	23.444183	0.008850	1.177200	-1.177200	10.006200	-0.901493	-0.443284	-0.350000	-0.020769	-0.017104	0.065973
993	23.453033	0.008850	1.412640	-1.177200	9.888480	-0.901493	-0.435821	-0.348333	-0.045204	-0.012217	0.058643
994	23.461853	0.008820	0.706320	-1.177200	10.006200	-0.900000	-0.438806	-0.348333	-0.040317	0.035430	0.041539
995	23.470703	0.008850	1.059480	-1.530360	10.359360	-0.901493	-0.438806	-0.351667	-0.048869	0.018326	0.021991
996	23.479523	0.008820	0.941760	-1.648080	10.359360	-0.900000	-0.438806	-0.351667	-0.052534	0.019548	0.039095
997	23.488373	0.008850	0.706320	-1.530360	10.359360	-0.900000	-0.435821	-0.351667	-0.018326	0.043982	0.036652
998	23.497223	0.008850	0.470880	-1.294920	10.594800	-0.900000	-0.438806	-0.351667	0.006109	0.048869	0.056200
999	23.506042	0.008820	0.235440	-1.530360	10.830240	-0.898507	-0.437313	-0.351667	0.024435	0.031765	0.075747
1000	23.514893	0.008850	0.470880	-1.294920	10.712520	-0.897015	-0.437313	-0.350000	0.073304	0.019548	0.087965
1001	23.523712	0.008820	0.235440	-1.177200	9.888480	-0.900000	-0.437313	-0.353333	0.045204	0.004887	0.136834
1002	23.532867	0.009155	0.235440	-1.177200	10.123920	-0.900000	-0.434328	-0.351667	0.032987	-0.034208	0.100182
1003	23.541382	0.008514	0.706320	-0.824040	9.888480	-0.898507	-0.438806	-0.351667	0.030543	-0.045204	0.098960
1004	23.550232	0.008850	1.059480	-0.824040	10.006200	-0.913433	-0.449254	-0.343333	0.032987	-0.034208	0.092852
1005	23.559052	0.008820	1.530360	-1.412640	11.183400	-0.901493	-0.440299	-0.348333	0.079412	0.015882	0.097738
1006	23.567902	0.008850	1.530360	-1.294920	10.241640	-0.900000	-0.437313	-0.351667	0.061087	-0.001222	0.072082
1007	23.576721	0.008820	1.412640	-1.648080	10.712520	-0.900000	-0.438806	-0.350000	0.048869	0.025656	0.051313
1008	23.585571	0.008850	1.294920	-1.412640	10.123920	-0.898507	-0.440299	-0.350000	0.062308	0.043982	0.051313
1009	23.594391	0.008820	1.177200	-1.765800	11.301120	-0.897015	-0.443284	-0.346667	-0.065973	-0.085521	0.057421
1010	23.603241	0.008850	1.530360	-1.530360	10.006200	-0.900000	-0.441791	-0.350000	0.010996	-0.166155	0.068417
1011	23.612854	0.009613	1.177200	-1.059480	9.417600	-0.902985	-0.438806	-0.346667	0.014661	-0.076969	0.007330
1012	23.620911	0.008057	0.706320	-0.941760	9.770760	-0.900000	-0.440299	-0.346667	0.006109	-0.010996	-0.079412
1013	23.629730	0.008820	0.470880	-0.706320	9.535320	-0.901493	-0.438806	-0.353333	0.048869	-0.017104	0.008552
1014	23.638580	0.008850	-0.353160	-0.824040	10.359360	-0.900000	-0.437313	-0.348333	0.142942	-0.008552	0.053756
1015	23.647400	0.008820	-1.059480	-0.706320	10.712520	-0.900000	-0.441791	-0.346667	0.000000	-0.026878	0.103847
1016	23.656250	0.008850	-0.353160	-0.824040	10.947960	-0.904478	-0.437313	-0.350000	-0.020769	-0.169821	0.133169
1017	23.665070	0.008820	0.588600	-0.588600	10.477080	-0.905970	-0.438806	-0.350000	-0.075747	-0.289550	0.136834
1018	23.673920	0.008850	1.648080	-0.706320	10.123920	-0.905970	-0.437313	-0.346667	-0.160047	-0.323759	0.127060
1019	23.682739	0.008820	1.765800	-0.588600	9.770760	-0.910448	-0.435821	-0.345000	-0.273668	-0.377515	0.065973
1020	23.691589	0.008850	1.765800	-1.412640	9.182160	-0.910448	-0.431343	-0.343333	-0.301767	-0.372628	0.063530
1021	23.700409	0.008820	1.412640	-1.530360	9.182160	-0.911940	-0.423881	-0.343333	-0.353080	-0.346971	0.076969
1022	23.709229	0.008820	1.059480	-1.530360	9.299880	-0.916418	-0.423881	-0.343333	-0.282220	-0.287107	0.094073
1023	23.718079	0.008850	0.706320	-1.648080	9.417600	-0.929851	-0.435821	-0.326667	-0.177151	-0.243124	0.089186
1024	23.726898	0.008820	0.706320	-1.530360	9.770760	-0.923881	-0.423881	-0.338333	-0.117286	-0.246790	0.092852
1025	23.735718	0.008820	1.294920	-1.530360	9.770760	-0.922388	-0.419403	-0.336667	-0.045204	-0.210138	0.136834
1026	23.744568	0.008850	1.530360	-1.648080	10.123920	-0.923881	-0.417910	-0.336667	-0.052534	-0.131947	0.109956
1027	23.753387	0.008820	1.294920	-1.765800	10.359360	-0.923881	-0.417910	-0.333333	0.040317	-0.100182	0.072082
1028	23.762238	0.008850	1.294920	-1.412640	10.359360	-0.926866	-0.420896	-0.336667	0.039095	-0.078191	0.017104
1029	23.771057	0.008820	1.530360	-1.530360	10.241640	-0.925373	-0.419403	-0.336667	-0.029322	-0.124617	0.010996
1030	23.779877	0.008820	1.765800	-1.412640	9.653040	-0.928358	-0.416418	-0.336667	-0.100182	-0.146608	0.006109
1031	23.788727	0.008850	1.883520	-1.294920	9.417600	-0.928358	-0.416418	-0.336667	-0.021991	-0.147829	0.009774
1032	23.797546	0.008820	2.001240	-1.412640	9.064440	-0.928358	-0.419403	-0.335000	0.025656	-0.076969	0.031765
1033	23.806366	0.008820	1.412640	-1.177200	9.064440	-0.926866	-0.416418	-0.335000	0.103847	0.069639	0.040317
1034	23.815216	0.008850	1.059480	-1.294920	10.006200	-0.929851	-0.419403	-0.335000	0.149051	0.134390	0.081856
1035	23.824036	0.008820	1.530360	-2.589840	12.478320	-0.928358	-0.420896	-0.335000	0.164934	0.054978	-0.009774
1036	23.832886	0.008850	3.767040	-1.294920	11.536560	-0.926866	-0.420896	-0.335000	0.482584	0.262672	0.171042
1037	23.841705	0.008820	1.648080	-2.118960	12.242880	-0.923881	-0.422388	-0.335000	0.036652	0.255342	0.032987
1038	23.850525	0.008820	1.412640	-1.765800	10.830240	-0.925373	-0.423881	-0.336667	0.144164	-0.193033	0.074526
1039	23.859375	0.008850	1.412640	-1.294920	8.829000	-0.926866	-0.419403	-0.335000	0.041539	-0.048869	0.042761
1040	23.868195	0.008820	1.177200	-1.530360	9.064440	-0.926866	-0.423881	-0.336667	0.064752	0.063530	0.015882
1041	23.877014	0.008820	0.941760	-1.294920	10.594800	-0.938806	-0.434328	-0.326667	0.030543	-0.030543	0.003665
1042	23.885864	0.008850	0.824040	-1.059480	10.359360	-0.926866	-0.426866	-0.331667	-0.061087	-0.164934	-0.059865
1043	23.894684	0.008820	0.824040	-0.824040	9.417600	-0.926866	-0.422388	-0.333333	-0.080634	-0.168599	0.002443
1044	23.903534	0.008850	1.177200	-0.353160	9.535320	-0.926866	-0.420896	-0.335000	-0.197920	-0.144164	0.051313
1045	23.912354	0.008820	1.059480	-1.177200	8.946720	-0.928358	-0.419403	-0.333333	-0.195477	-0.119730	0.042761
1046	23.921204	0.008850	1.412640	-1.177200	8.593560	-0.929851	-0.419403	-0.333333	-0.047647	-0.047647	0.029322
1047	23.930023	0.008820	1.648080	-0.824040	9.064440	-0.926866	-0.417910	-0.331667	-0.004887	0.058643	0.052534
1048	23.938873	0.008850	1.765800	-1.412640	9.535320	-0.931343	-0.416418	-0.331667	0.058643	0.124617	0.098960
1049	23.947693	0.008820	1.648080	-1.648080	10.006200	-0.929851	-0.416418	-0.335000	0.083078	0.097738	0.084299
1050	23.956543	0.008850	1.765800	-1.412640	9.535320	-0.928358	-0.417910	-0.333333	0.118508	0.109956	0.074526
1051	23.965363	0.008820	1.765800	-1.648080	9.182160	-0.926866	-0.417910	-0.335000	0.196699	0.241903	0.102625
1052	23.974182	0.008820	1.648080	-1.765800	10.477080	-0.923881	-0.419403	-0.336667	0.163712	0.361632	0.076969
1053	23.983032	0.008850	1.648080	-1.765800	10.123920	-0.922388	-0.423881	-0.338333	0.230907	0.359189	0.057421
1054	23.991852	0.008820	1.765800	-1.765800	10.241640	-0.919403	-0.425373	-0.336667	0.251676	0.442266	0.034208
1055	24.000702	0.008850	1.765800	-1.765800	10.359360	-0.916418	-0.428358	-0.341667	0.326202	0.428827	0.043982
1056	24.009521	0.008820	1.648080	-1.530360	9.770760	-0.913433	-0.429851	-0.343333	0.321315	0.467923	0.019548
1057	24.018341	0.008820	1.059480	-1.177200	10.477080	-0.910448	-0.431343	-0.348333	0.287107	0.465479	0.031765
1058	24.027191	0.008850	1.294920	-0.824040	10.359360	-0.902985	-0.432836	-0.345000	0.207694	0.421497	-0.059865
1059	24.036011	0.008820	1.412640	-0.941760	10.359360	-0.902985	-0.438806	-0.350000	0.122173	0.169821	-0.029322
1060	24.044830	0.008820	1.177200	-1.412640	10.241640	-0.911940	-0.450746	-0.336667	0.119730	0.141721	-0.069639
1061	24.053680	0.008850	0.824040	-1.059480	10.241640	-0.904478	-0.443284	-0.346667	0.085521	0.092852	-0.046426
1062	24.062500	0.008820	0.470880	-1.059480	9.888480	-0.897015	-0.441791	-0.350000	0.050091	0.109956	-0.045204
1063	24.071320	0.008820	0.000000	-0.824040	10.006200	-0.898507	-0.443284	-0.353333	0.063530	0.092852	0.000000
1064	24.080170	0.008850	-0.353160	-0.353160	10.241640	-0.897015	-0.444776	-0.346667	0.034208	0.050091	0.053756
1065	24.088989	0.008820	-0.470880	-0.235440	10.123920	-0.897015	-0.443284	-0.351667	0.036652	0.074526	0.068417
1066	24.097839	0.008850	-0.470880	-0.470880	10.830240	-0.897015	-0.438806	-0.351667	0.063530	0.037874	0.114843
1067	24.106659	0.008820	-0.235440	-0.470880	10.477080	-0.895522	-0.443284	-0.350000	0.073304	0.057421	0.119730
1068	24.115509	0.008850	-0.117720	-0.235440	10.594800	-0.897015	-0.441791	-0.351667	0.098960	0.047647	0.131947
1069	24.124329	0.008820	0.235440	-0.235440	10.123920	-0.895522	-0.444776	-0.351667	0.136834	0.029322	0.118508
1070	24.133148	0.008820	0.235440	-0.353160	10.006200	-0.895522	-0.444776	-0.350000	0.140499	0.034208	0.133169
1071	24.141998	0.008850	0.824040	-0.235440	9.417600	-0.894030	-0.446269	-0.350000	0.107512	0.024435	0.127060
1072	24.150818	0.008820	0.588600	-0.235440	8.946720	-0.895522	-0.447761	-0.350000	0.056200	0.029322	0.109956
1073	24.159668	0.008850	0.470880	-0.470880	8.829000	-0.894030	-0.447761	-0.350000	0.029322	0.015882	0.101404
1074	24.168518	0.008850	0.235440	-0.353160	8.946720	-0.894030	-0.443284	-0.350000	-0.036652	-0.020769	0.091630
1075	24.177338	0.008820	0.588600	-0.588600	8.946720	-0.895522	-0.449254	-0.350000	-0.062308	-0.048869	0.103847
1076	24.186188	0.008850	0.588600	-0.470880	9.299880	-0.895522	-0.443284	-0.351667	-0.098960	-0.056200	0.102625
1077	24.195007	0.008820	0.706320	-0.824040	9.770760	-0.897015	-0.440299	-0.351667	-0.102625	-0.059865	0.105069
1078	24.203857	0.008850	0.824040	-0.941760	10.006200	-0.898507	-0.443284	-0.351667	-0.092852	-0.041539	0.103847
1079	24.212677	0.008820	1.059480	-1.177200	10.241640	-0.911940	-0.452239	-0.343333	-0.100182	-0.030543	0.103847
1080	24.221497	0.008820	1.059480	-1.412640	10.006200	-0.901493	-0.443284	-0.348333	-0.073304	0.001222	0.105069
1081	24.230347	0.008850	1.059480	-1.412640	10.241640	-0.897015	-0.440299	-0.351667	-0.064752	0.024435	0.105069
1082	24.239166	0.008820	0.824040	-1.412640	10.477080	-0.897015	-0.437313	-0.351667	-0.061087	0.045204	0.100182
