# FOX Logger (IMU file)
# (c) INRIA 2013
## File created from file data/imutest_deprec.raw
#
# File format:
# id	t	dt	ax	ay	az	mx	my	mz	gx	gy	gz
#
# Units:
#	Time: s
#	Acceleration: m.s^-2
#	Magnetic field: gauss
#	Rotation speed: rad.s^-1
#
1	7.554626	7.554626	4.826520	2.354400	-6.592320	-0.200000	-0.247761	0.596667	0.425162	-0.477697	0.293215
2	7.812408	0.283417	1.294920	0.588600	-8.358120	-0.056716	-0.202985	0.480000	-0.229685	-0.223577	0.061087
3	8.070221	0.301270	0.941760	0.235440	-8.593560	-0.052239	-0.213433	0.478333	-0.140499	-0.129503	-0.448375
4	8.328033	0.319122	1.059480	0.588600	-8.946720	0.014925	-0.232836	0.423333	0.342085	-0.245568	-0.101404
5	8.585815	0.255188	0.588600	0.824040	-9.888480	0.114925	-0.234328	0.368333	0.030543	0.028100	-0.008552
6	8.843567	0.274750	0.706320	1.412640	-8.475840	0.092537	-0.240299	0.403333	0.081856	-0.031765	-0.199142
7	9.101257	0.292480	0.353160	0.353160	-9.417600	0.117910	-0.182090	0.310000	0.878424	-0.586431	0.503353
8	9.359009	0.310272	-1.530360	-0.470880	-9.064440	0.168657	-0.137313	0.211667	0.013439	-0.026878	-0.120951
9	9.616760	0.328064	-1.648080	-0.706320	-10.006200	0.195522	-0.116418	0.161667	0.564439	-0.204029	-0.166155
10	9.874542	0.265900	-1.765800	-1.412640	-8.946720	0.189552	-0.117910	0.150000	-0.020769	-0.045204	-0.208916
11	10.132324	0.283722	-1.883520	-0.588600	-9.182160	0.195522	-0.120896	0.170000	0.025656	0.078191	0.300546
12	10.390167	0.301605	-1.530360	-0.235440	-9.417600	0.207463	-0.182090	0.235000	0.002443	-0.009774	-0.140499
13	10.647980	0.319458	-0.941760	-0.706320	-9.299880	0.200000	-0.182090	0.281667	0.008552	-0.008552	-0.041539
14	10.905792	0.255188	-1.177200	-0.117720	-8.593560	0.194030	-0.198507	0.266667	0.013439	-0.006109	-0.047647
15	11.163605	0.275177	-1.294920	0.117720	-9.535320	0.180597	-0.195522	0.278333	0.009774	0.002443	-0.046426
16	11.421448	0.293060	-0.706320	0.000000	-9.535320	0.150746	-0.214925	0.358333	-0.030543	-0.059865	-0.750143
17	11.679260	0.310913	-0.588600	-0.235440	-9.888480	0.137313	-0.229851	0.371667	0.009774	-0.013439	-0.043982
18	11.937073	0.328766	-0.941760	-0.941760	-8.475840	0.132836	-0.226866	0.370000	0.109956	-0.092852	-0.386067
19	12.194885	0.266632	-0.824040	-1.294920	-9.182160	0.137313	-0.213433	0.348333	0.117286	-0.007330	0.296881
20	12.452667	0.284454	-0.588600	-0.117720	-9.535320	0.131343	-0.201493	0.341667	0.178373	-0.014661	0.046426
21	12.710449	0.302277	-1.412640	-0.706320	-8.711280	0.114925	-0.182090	0.331667	0.403171	0.018326	0.040317
22	12.969147	0.321014	-1.177200	-1.412640	-9.299880	0.097015	-0.156716	0.300000	0.168599	-0.041539	-0.306654
23	13.226105	0.258026	-1.059480	-2.236680	-8.004960	0.070149	-0.126866	0.250000	-0.255342	0.423940	-0.084299
24	13.483856	0.275818	-0.706320	-2.472120	-8.711280	0.073134	-0.113433	0.225000	0.404393	0.001222	0.081856
25	13.741699	0.293701	-0.824040	-2.354400	-9.182160	0.082090	-0.108955	0.198333	0.492357	0.193033	0.000000
26	13.999542	0.311584	-0.235440	-2.825280	-8.946720	0.043284	-0.070149	0.210000	0.054978	-0.007330	0.211359
27	14.257385	0.329468	0.000000	-3.649320	-9.064440	0.035821	-0.073134	0.198333	1.354899	-0.377515	-0.189368
28	14.515198	0.267334	-0.117720	-4.708800	-7.887240	0.022388	-0.092537	0.163333	-1.350012	-0.113621	0.080634
29	14.772980	0.285156	-0.824040	-2.589840	-7.534080	0.089552	-0.144776	0.195000	0.432493	-0.134390	0.339641
30	15.030823	0.303040	-1.059480	-3.296160	-8.946720	0.064179	-0.126866	0.168333	0.020769	-0.017104	-0.090408
31	15.288757	0.321014	0.353160	-0.117720	-7.769520	0.107463	-0.126866	0.180000	-0.234572	-0.653626	0.403171
32	15.546539	0.258850	-1.412640	-0.824040	-8.711280	0.137313	-0.132836	0.140000	0.008552	0.204029	-0.037874
33	15.804382	0.276733	-2.001240	-0.353160	-9.417600	0.135821	-0.165672	0.156667	-0.135612	0.058643	-0.046426
34	16.062225	0.294617	-2.118960	0.000000	-8.829000	0.128358	-0.170149	0.193333	-0.083078	0.610865	-0.199142
35	16.320129	0.312561	-1.648080	0.470880	-9.653040	0.149254	-0.153731	0.193333	-0.498466	0.368963	0.120951
36	16.578003	0.330475	-0.706320	0.588600	-9.535320	0.152239	-0.167164	0.231667	-0.048869	-0.035430	0.084299
37	16.835785	0.268311	-1.177200	0.117720	-9.417600	0.170149	-0.173134	0.215000	0.001222	-0.004887	-0.017104
38	17.093628	0.286194	-1.177200	-0.353160	-9.299880	0.140299	-0.147761	0.211667	1.905900	-1.616349	0.184481
39	17.351471	0.304077	-5.179680	-1.177200	-6.121440	0.091045	-0.123881	0.181667	-0.195477	-0.365297	0.409280
40	17.609375	0.322021	-5.179680	1.059480	-6.827760	0.140299	-0.183582	0.246667	-0.040317	0.130725	0.128282
41	17.867249	0.259949	-5.297400	-2.354400	-8.358120	0.153731	-0.198507	0.280000	0.186925	0.312763	-0.123395
42	18.125153	0.277893	-3.884760	-5.532840	-9.653040	0.117910	-0.168657	0.308333	-0.102625	0.064752	-0.332311
43	18.383087	0.295868	-3.060720	-3.178440	-8.475840	0.095522	-0.174627	0.326667	-0.679282	0.642630	-0.034208
44	18.640961	0.313782	-0.470880	-0.706320	-8.711280	0.038806	-0.213433	0.440000	-0.323759	0.504575	0.111177
45	18.898865	0.331726	0.000000	-0.941760	-8.004960	0.001493	-0.226866	0.476667	0.157603	0.839329	-0.007330
46	19.156830	0.269745	0.353160	0.470880	-8.711280	-0.011940	-0.225373	0.483333	0.072082	-0.921185	-0.199142
47	19.414734	0.287689	-1.412640	-0.470880	-9.064440	0.020896	-0.208955	0.450000	-0.076969	-0.164934	-0.098960
48	19.672607	0.305603	0.353160	0.824040	-9.653040	0.010448	-0.222388	0.476667	0.037874	-0.030543	-0.025656
49	19.930511	0.323547	2.236680	3.060720	-14.597280	-0.010448	-0.188060	0.456667	-0.117286	-1.885130	0.423940
50	20.188416	0.261505	-0.941760	-2.354400	-8.475840	-0.005970	-0.119403	0.356667	-0.395841	0.461814	-0.260229
51	20.446381	0.279510	-0.353160	-2.236680	-8.240400	-0.049254	-0.105970	0.355000	0.026878	-0.722043	-1.811826
52	20.704346	0.297516	0.353160	-2.001240	-8.829000	-0.246269	-0.131343	0.348333	-0.295659	0.488692	-1.078788
53	20.962280	0.315491	1.765800	0.353160	-9.417600	-0.241791	-0.250746	0.353333	-0.436158	-0.037874	-0.795347
54	21.220184	0.333435	0.824040	3.884760	-10.241640	-0.129851	-0.377612	0.510000	0.715934	-0.614530	-0.335976
55	21.478149	0.271454	-1.177200	-0.706320	-9.888480	-0.167164	-0.337313	0.598333	0.001222	0.013439	-0.221133
56	21.736053	0.289398	-0.470880	0.117720	-9.535320	-0.192537	-0.334328	0.608333	0.013439	-0.009774	-0.039095
57	21.993958	0.307343	-0.470880	0.000000	-9.299880	-0.191045	-0.335821	0.610000	0.001222	-0.009774	0.052534
58	22.251862	0.325287	-0.353160	0.000000	-9.535320	-0.189552	-0.334328	0.608333	0.008552	-0.010996	-0.042761
59	22.509796	0.263275	-0.353160	-0.117720	-9.653040	-0.192537	-0.334328	0.605000	0.012217	-0.014661	-0.041539
60	22.767761	0.281281	-0.353160	0.000000	-9.417600	-0.191045	-0.334328	0.608333	0.010996	-0.012217	-0.037874
61	23.025696	0.299255	-0.470880	0.000000	-9.417600	-0.191045	-0.335821	0.610000	0.010996	-0.004887	-0.046426
62	23.283691	0.317291	-0.353160	0.000000	-9.417600	-0.189552	-0.335821	0.605000	0.015882	-0.008552	-0.042761
63	23.541718	0.255371	-0.353160	0.000000	-9.299880	-0.191045	-0.337313	0.608333	0.014661	-0.009774	-0.041539
64	23.799713	0.273407	-0.470880	0.000000	-9.064440	-0.191045	-0.332836	0.610000	0.006109	-0.010996	-0.041539
65	24.057617	0.291351	-0.470880	0.000000	-9.417600	-0.189552	-0.338806	0.608333	0.006109	-0.008552	-0.040317
66	24.315582	0.309357	-0.588600	0.000000	-9.535320	-0.189552	-0.334328	0.608333	0.014661	-0.013439	-0.046426
67	24.573547	0.327362	-0.470880	0.000000	-9.535320	-0.188060	-0.334328	0.608333	0.010996	-0.013439	-0.039095
68	24.831543	0.265411	-0.353160	0.000000	-9.535320	-0.189552	-0.332836	0.610000	0.009774	-0.010996	-0.035430
69	25.089447	0.283356	-0.470880	0.000000	-9.417600	-0.189552	-0.335821	0.608333	0.009774	-0.013439	-0.036652
70	25.347443	0.301392	-0.588600	-0.117720	-9.299880	-0.191045	-0.335821	0.608333	0.009774	-0.007330	-0.034208
71	25.605347	0.319336	-0.353160	0.000000	-9.064440	-0.189552	-0.334328	0.610000	0.014661	-0.008552	-0.041539
72	25.863312	0.255371	-0.588600	0.117720	-9.417600	-0.189552	-0.332836	0.606667	0.008552	-0.010996	-0.039095
73	26.121246	0.275330	-0.706320	0.117720	-9.417600	-0.189552	-0.337313	0.608333	0.006109	-0.009774	-0.041539
74	26.379242	0.293365	-0.470880	0.000000	-9.535320	-0.185075	-0.332836	0.608333	0.006109	-0.012217	-0.039095
75	26.637268	0.311432	-0.470880	0.000000	-9.535320	-0.189552	-0.332836	0.611667	0.009774	-0.010996	-0.046426
76	26.895294	0.329498	-0.470880	0.000000	-9.299880	-0.192537	-0.332836	0.611667	0.012217	-0.009774	-0.037874
77	27.153351	0.267609	-0.235440	-0.117720	-9.417600	-0.189552	-0.335821	0.606667	0.012217	-0.015882	-0.040317
78	27.411407	0.285706	-0.588600	0.000000	-9.417600	-0.189552	-0.334328	0.610000	0.015882	-0.010996	-0.041539
79	27.669434	0.303772	-0.470880	0.000000	-9.299880	-0.189552	-0.335821	0.610000	0.010996	-0.010996	-0.042761
80	27.927582	0.321960	-0.353160	-0.117720	-9.417600	-0.186567	-0.334328	0.611667	0.000000	-0.007330	-0.035430
81	28.185638	0.260071	-0.470880	0.000000	-9.417600	-0.188060	-0.334328	0.610000	0.012217	-0.012217	-0.043982
82	28.443604	0.278076	-0.588600	0.000000	-9.064440	-0.191045	-0.335821	0.610000	0.001222	-0.017104	-0.045204
83	28.701599	0.296112	-0.588600	0.000000	-9.299880	-0.186567	-0.334328	0.608333	0.007330	-0.015882	-0.041539
84	28.959656	0.314209	-0.470880	0.000000	-9.299880	-0.188060	-0.335821	0.608333	0.008552	-0.008552	-0.035430
85	29.217651	0.332245	-0.470880	0.000000	-9.299880	-0.189552	-0.334328	0.608333	0.013439	-0.009774	-0.040317
86	29.475708	0.270355	-0.588600	0.000000	-9.417600	-0.188060	-0.334328	0.608333	0.003665	-0.009774	-0.032987
87	29.733734	0.288422	-0.588600	0.000000	-9.417600	-0.189552	-0.334328	0.610000	0.007330	-0.010996	-0.041539
88	29.991760	0.306488	-0.353160	0.000000	-9.299880	-0.189552	-0.337313	0.611667	0.009774	-0.007330	-0.042761
89	30.249786	0.324554	-0.706320	0.117720	-9.299880	-0.189552	-0.332836	0.608333	0.003665	-0.012217	-0.045204
90	30.507782	0.262604	-0.470880	0.000000	-9.535320	-0.189552	-0.335821	0.606667	0.010996	-0.012217	-0.046426
91	30.765808	0.280670	-0.706320	0.000000	-9.535320	-0.189552	-0.335821	0.606667	0.010996	-0.008552	-0.042761
92	31.023804	0.298706	-0.353160	-0.117720	-9.299880	-0.189552	-0.335821	0.605000	0.008552	-0.013439	-0.029322
93	31.281799	0.316742	-0.353160	0.000000	-9.299880	-0.188060	-0.335821	0.610000	0.009774	-0.013439	-0.042761
94	31.539825	0.334808	-0.588600	-0.117720	-9.417600	-0.191045	-0.332836	0.611667	0.012217	-0.008552	-0.041539
95	31.797760	0.272797	-0.470880	0.000000	-9.417600	-0.191045	-0.334328	0.606667	0.010996	-0.014661	-0.042761
96	32.055756	0.290833	-0.470880	0.000000	-9.417600	-0.189552	-0.329851	0.611667	0.009774	-0.014661	-0.037874
97	32.313751	0.308868	-0.470880	0.117720	-9.417600	-0.191045	-0.335821	0.608333	0.015882	-0.009774	-0.039095
98	32.571777	0.326935	-0.353160	0.000000	-9.417600	-0.189552	-0.332836	0.608333	0.008552	-0.014661	-0.047647
99	32.829803	0.265015	-0.470880	0.000000	-9.417600	-0.188060	-0.337313	0.608333	0.009774	-0.013439	-0.040317
100	33.087830	0.283081	-0.470880	0.117720	-9.535320	-0.191045	-0.334328	0.610000	0.007330	-0.008552	-0.039095
101	33.345795	0.301086	-0.353160	0.000000	-9.417600	-0.188060	-0.335821	0.610000	0.012217	-0.012217	-0.039095
102	33.603760	0.319092	-0.470880	0.000000	-9.417600	-0.189552	-0.332836	0.608333	0.010996	-0.008552	-0.036652
103	33.861755	0.255371	-0.353160	0.000000	-9.299880	-0.189552	-0.337313	0.606667	0.012217	-0.012217	-0.040317
104	34.119751	0.275177	-0.353160	0.000000	-9.535320	-0.191045	-0.334328	0.606667	0.009774	-0.007330	-0.041539
105	34.377808	0.293274	-0.470880	0.000000	-9.299880	-0.189552	-0.332836	0.610000	0.010996	-0.010996	-0.040317
106	34.635803	0.311310	-0.470880	0.117720	-9.535320	-0.189552	-0.334328	0.608333	0.013439	-0.007330	-0.040317
107	34.893768	0.329315	-0.470880	0.000000	-9.299880	-0.191045	-0.334328	0.606667	0.008552	-0.010996	-0.036652
108	35.151764	0.267365	-0.588600	0.000000	-9.417600	-0.188060	-0.335821	0.606667	0.009774	-0.007330	-0.041539
109	35.409790	0.285431	-0.470880	0.000000	-9.770760	-0.189552	-0.337313	0.606667	0.009774	-0.009774	-0.046426
110	35.667786	0.303467	-0.470880	-0.117720	-9.653040	-0.189552	-0.334328	0.605000	0.009774	-0.012217	-0.040317
111	35.925781	0.321503	-0.588600	0.000000	-9.535320	-0.191045	-0.334328	0.610000	0.021991	-0.007330	-0.043982
112	36.183807	0.259583	-0.353160	0.000000	-9.417600	-0.191045	-0.335821	0.608333	0.010996	-0.009774	-0.040317
113	36.441833	0.277649	-0.353160	0.000000	-9.182160	-0.191045	-0.332836	0.608333	0.003665	-0.006109	-0.039095
114	36.699829	0.295685	-0.470880	0.000000	-9.417600	-0.189552	-0.332836	0.608333	0.008552	-0.017104	-0.040317
115	36.957825	0.313721	-0.470880	0.000000	-9.299880	-0.188060	-0.337313	0.606667	0.012217	-0.012217	-0.045204
116	37.215881	0.331818	-0.353160	0.000000	-9.535320	-0.188060	-0.335821	0.610000	0.012217	-0.014661	-0.040317
117	37.473907	0.269897	-0.235440	0.117720	-9.417600	-0.189552	-0.334328	0.606667	0.015882	-0.008552	-0.047647
118	37.731873	0.287903	-0.470880	0.117720	-9.417600	-0.189552	-0.334328	0.608333	0.007330	-0.012217	-0.037874
119	37.989838	0.305908	-0.353160	0.000000	-9.299880	-0.191045	-0.335821	0.608333	0.013439	-0.008552	-0.041539
120	38.247833	0.323944	-0.470880	0.000000	-9.417600	-0.189552	-0.337313	0.608333	0.017104	-0.006109	-0.043982
121	38.505859	0.262024	-0.353160	0.000000	-9.770760	-0.189552	-0.334328	0.608333	0.010996	-0.007330	-0.041539
122	38.763885	0.280090	-0.588600	-0.117720	-9.299880	-0.188060	-0.332836	0.608333	0.007330	-0.012217	-0.039095
123	39.021942	0.298187	-0.588600	-0.117720	-9.182160	-0.189552	-0.332836	0.610000	0.004887	-0.012217	-0.036652
124	39.279968	0.316254	-0.353160	0.000000	-9.417600	-0.186567	-0.334328	0.606667	0.012217	-0.010996	-0.041539
125	39.538055	0.334381	-0.470880	0.000000	-9.535320	-0.189552	-0.332836	0.608333	0.014661	-0.012217	-0.047647
126	39.796112	0.272491	-0.470880	-0.117720	-9.535320	-0.188060	-0.332836	0.608333	0.009774	-0.010996	-0.042761
127	40.054230	0.290649	-0.470880	0.000000	-9.182160	-0.191045	-0.332836	0.608333	0.009774	-0.013439	-0.037874
128	40.312378	0.308838	-0.470880	0.000000	-9.535320	-0.189552	-0.332836	0.608333	0.008552	-0.008552	-0.045204
129	40.570465	0.326965	-0.470880	0.000000	-9.299880	-0.191045	-0.332836	0.610000	0.010996	-0.008552	-0.041539
130	40.828461	0.265015	-0.470880	0.000000	-9.417600	-0.186567	-0.334328	0.606667	0.010996	-0.014661	-0.045204
131	41.086487	0.283081	-0.470880	0.000000	-9.299880	-0.188060	-0.331343	0.605000	0.003665	-0.010996	-0.040317
132	41.344574	0.301208	-0.706320	0.000000	-9.535320	-0.189552	-0.337313	0.608333	0.008552	-0.010996	-0.036652
133	41.602692	0.319366	-0.588600	-0.117720	-9.417600	-0.188060	-0.332836	0.608333	0.007330	-0.009774	-0.042761
134	41.860748	0.255463	-0.470880	0.000000	-9.299880	-0.188060	-0.332836	0.608333	0.013439	-0.012217	-0.037874
135	42.118835	0.275604	-0.470880	0.000000	-9.417600	-0.191045	-0.334328	0.610000	0.015882	-0.010996	-0.041539
136	42.376923	0.293732	0.117720	-0.588600	-9.535320	-0.192537	-0.337313	0.610000	0.036652	-0.028100	-1.781283
137	42.634979	0.311829	0.000000	-1.648080	-9.182160	-0.202985	-0.320896	0.601667	0.178373	-0.048869	-0.259007
138	42.893036	0.329926	0.000000	-3.060720	-8.711280	-0.202985	-0.249254	0.573333	0.514349	-0.107512	-0.296881
139	43.151123	0.268066	-0.235440	-3.413880	-8.946720	-0.204478	-0.185075	0.540000	0.630413	0.222355	-0.119730
140	43.409119	0.286102	-0.117720	-7.298640	-5.532840	-0.205970	-0.070149	0.380000	1.022588	-0.360410	-0.179594
141	43.667175	0.304199	-0.588600	-7.769520	3.531600	-0.213433	-0.111940	0.045000	0.007330	0.026878	-0.032987
142	43.925232	0.322296	-0.235440	-5.179680	8.240400	-0.204478	-0.204478	-0.121667	0.376293	0.627969	-0.714712
143	44.183258	0.260376	-0.353160	-2.943000	8.358120	-0.189552	-0.311940	-0.171667	4.197866	-0.213803	0.626748
144	44.441315	0.278473	-0.588600	0.000000	10.241640	-0.185075	-0.449254	-0.186667	0.002443	-0.007330	0.061087
145	44.699341	0.296539	-0.588600	0.353160	10.477080	-0.185075	-0.468657	-0.188333	0.014661	-0.014661	0.057421
146	44.957458	0.314697	-0.470880	0.353160	10.359360	-0.185075	-0.467164	-0.185000	0.009774	-0.007330	0.057421
147	45.215546	0.332825	-0.470880	0.470880	10.359360	-0.182090	-0.468657	-0.185000	0.012217	-0.028100	-0.696386
148	45.473602	0.270935	-0.588600	0.235440	10.477080	-0.171642	-0.477612	-0.181667	0.010996	-0.008552	0.065973
149	45.731689	0.289062	-0.353160	0.235440	10.594800	-0.174627	-0.476119	-0.186667	0.004887	-0.013439	0.056200
150	45.989777	0.307190	-0.470880	0.353160	10.477080	-0.171642	-0.476119	-0.183333	0.013439	-0.015882	0.058643
151	46.247833	0.325287	-0.353160	0.353160	10.359360	-0.173134	-0.476119	-0.185000	0.006109	-0.015882	0.061087
152	46.505920	0.263428	-0.353160	0.353160	10.359360	-0.174627	-0.476119	-0.183333	0.000000	-0.009774	0.063530
153	46.763977	0.281525	-0.470880	0.353160	10.359360	-0.174627	-0.476119	-0.185000	0.006109	-0.007330	0.061087
154	47.022034	0.299622	-0.470880	0.353160	10.477080	-0.176119	-0.476119	-0.183333	0.008552	-0.002443	0.064752
155	47.280060	0.317688	-0.470880	0.117720	10.477080	-0.173134	-0.477612	-0.186667	0.008552	-0.003665	0.061087
156	47.538116	0.255463	-0.588600	0.235440	10.477080	-0.174627	-0.476119	-0.185000	0.017104	-0.006109	0.065973
157	47.796204	0.273926	-0.470880	0.470880	10.477080	-0.173134	-0.479104	-0.183333	0.007330	-0.007330	0.064752
158	48.054260	0.292023	-0.588600	0.235440	10.477080	-0.174627	-0.479104	-0.181667	0.006109	-0.009774	0.062308
159	48.312378	0.310181	-0.470880	0.353160	10.477080	-0.174627	-0.479104	-0.185000	0.010996	-0.010996	0.061087
160	48.570435	0.328278	-0.470880	0.470880	10.359360	-0.174627	-0.477612	-0.181667	0.014661	-0.003665	0.058643
161	48.828583	0.266479	-0.353160	0.117720	10.359360	-0.171642	-0.482090	-0.181667	0.014661	-0.010996	0.064752
162	49.086670	0.284607	-0.470880	0.235440	10.477080	-0.173134	-0.474627	-0.183333	0.008552	-0.008552	0.065973
163	49.344788	0.302765	-0.470880	0.353160	10.477080	-0.174627	-0.477612	-0.185000	0.008552	-0.013439	0.063530
164	49.602997	0.321014	-0.353160	0.117720	10.477080	-0.174627	-0.480597	-0.181667	0.008552	-0.006109	0.061087
165	49.860901	0.258972	-0.353160	0.353160	10.477080	-0.173134	-0.479104	-0.181667	0.009774	-0.007330	0.057421
166	50.118988	0.277100	-0.235440	0.235440	10.359360	-0.177612	-0.479104	-0.183333	0.012217	-0.009774	0.056200
167	50.377106	0.295258	-0.588600	0.235440	10.477080	-0.176119	-0.477612	-0.183333	0.009774	-0.004887	0.063530
168	50.635193	0.313385	-0.588600	0.117720	10.477080	-0.174627	-0.477612	-0.181667	0.008552	-0.009774	0.063530
169	50.893311	0.331543	-0.706320	0.235440	10.359360	-0.173134	-0.477612	-0.183333	0.006109	-0.009774	0.056200
170	51.151367	0.269653	-0.353160	0.470880	10.359360	-0.174627	-0.480597	-0.185000	0.009774	-0.004887	0.062308
171	51.409454	0.287781	-0.470880	0.117720	10.477080	-0.174627	-0.480597	-0.185000	0.008552	-0.012217	0.063530
172	51.667511	0.305878	-0.588600	0.353160	10.477080	-0.173134	-0.477612	-0.183333	0.010996	-0.007330	0.061087
173	51.925629	0.324036	-0.470880	0.235440	10.359360	-0.176119	-0.476119	-0.185000	0.003665	-0.002443	0.064752
174	52.183746	0.262207	-0.235440	0.353160	10.359360	-0.174627	-0.476119	-0.183333	0.012217	-0.013439	0.059865
175	52.441864	0.280365	-0.470880	0.235440	10.241640	-0.173134	-0.479104	-0.183333	0.014661	-0.004887	0.059865
176	52.699921	0.298462	-0.588600	0.117720	10.477080	-0.174627	-0.477612	-0.183333	0.018326	-0.010996	0.061087
177	52.958008	0.316589	-0.470880	0.353160	10.477080	-0.173134	-0.480597	-0.183333	0.004887	-0.013439	0.056200
178	53.216156	0.334778	-0.353160	0.353160	10.359360	-0.176119	-0.482090	-0.180000	0.012217	-0.012217	0.067195
179	53.474274	0.272949	-0.353160	0.353160	10.359360	-0.174627	-0.477612	-0.181667	0.012217	-0.007330	0.061087
180	53.732361	0.291077	-0.470880	0.353160	10.477080	-0.176119	-0.485075	-0.183333	0.013439	-0.010996	0.059865
181	53.990509	0.309265	-0.353160	0.117720	10.477080	-0.171642	-0.477612	-0.183333	0.012217	-0.004887	0.061087
182	54.248596	0.327393	-0.235440	0.353160	10.477080	-0.174627	-0.477612	-0.181667	0.010996	-0.009774	0.063530
183	54.506653	0.265503	-0.353160	0.470880	10.477080	-0.176119	-0.477612	-0.183333	0.004887	-0.004887	0.062308
184	54.764801	0.283691	-0.470880	0.353160	10.241640	-0.173134	-0.477612	-0.185000	0.008552	-0.013439	0.062308
185	55.022888	0.301819	-0.353160	0.353160	10.359360	-0.173134	-0.477612	-0.181667	0.006109	-0.007330	0.061087
186	55.282074	0.321045	-0.470880	0.470880	10.477080	-0.174627	-0.477612	-0.181667	0.007330	-0.008552	0.062308
187	55.539124	0.258148	-0.470880	0.235440	10.477080	-0.174627	-0.480597	-0.181667	0.009774	-0.006109	0.059865
188	55.797302	0.276367	-0.470880	0.353160	10.477080	-0.174627	-0.477612	-0.183333	0.010996	-0.004887	0.054978
189	56.055420	0.294525	-0.470880	0.235440	10.477080	-0.171642	-0.479104	-0.183333	0.012217	-0.008552	0.068417
190	56.313507	0.312653	-0.588600	0.353160	10.359360	-0.173134	-0.477612	-0.183333	0.006109	-0.007330	0.067195
191	56.571625	0.330811	-0.470880	0.235440	10.477080	-0.173134	-0.479104	-0.185000	0.012217	-0.008552	0.061087
192	56.829742	0.268982	-0.588600	0.353160	10.477080	-0.176119	-0.477612	-0.183333	0.013439	-0.008552	0.065973
193	57.087891	0.287170	-0.470880	0.235440	10.477080	-0.173134	-0.479104	-0.183333	0.006109	-0.009774	0.056200
194	57.346039	0.305359	-0.588600	0.353160	10.477080	-0.173134	-0.477612	-0.183333	0.010996	-0.008552	0.056200
195	57.604126	0.323486	-0.353160	0.117720	10.477080	-0.174627	-0.476119	-0.183333	0.002443	-0.008552	0.059865
196	57.862213	0.261627	-0.588600	0.353160	10.359360	-0.174627	-0.477612	-0.183333	0.015882	-0.008552	0.057421
197	58.120392	0.279846	-0.470880	0.353160	10.359360	-0.171642	-0.476119	-0.185000	0.007330	-0.009774	0.061087
198	58.378540	0.298035	-0.588600	0.353160	10.477080	-0.176119	-0.477612	-0.183333	0.001222	-0.007330	0.059865
199	58.636597	0.316132	-0.588600	0.470880	10.359360	-0.171642	-0.479104	-0.181667	0.010996	-0.007330	0.064752
200	58.894653	0.334229	-0.353160	0.353160	10.594800	-0.176119	-0.477612	-0.181667	0.013439	-0.007330	0.062308
201	59.152771	0.272400	-0.353160	0.235440	10.477080	-0.176119	-0.477612	-0.183333	0.008552	-0.008552	0.059865
202	59.410858	0.290527	-0.353160	0.353160	10.359360	-0.173134	-0.476119	-0.181667	0.009774	-0.003665	0.059865
203	59.668945	0.308655	-0.588600	0.235440	10.477080	-0.174627	-0.479104	-0.181667	0.007330	-0.010996	0.061087
204	59.927002	0.326752	-0.353160	0.353160	10.359360	-0.174627	-0.477612	-0.185000	0.010996	-0.009774	0.063530
205	60.185120	0.264923	-0.235440	0.235440	10.359360	-0.174627	-0.477612	-0.183333	0.013439	-0.004887	0.058643
206	60.443268	0.283112	-0.588600	0.470880	10.477080	-0.173134	-0.477612	-0.183333	0.008552	-0.010996	0.063530
207	60.701416	0.301300	-0.353160	0.235440	10.359360	-0.174627	-0.476119	-0.183333	0.006109	-0.010996	0.067195
208	60.959564	0.319489	-0.353160	0.235440	10.477080	-0.174627	-0.479104	-0.185000	0.007330	-0.010996	0.061087
209	61.217682	0.255524	-0.470880	0.353160	10.477080	-0.174627	-0.477612	-0.183333	0.010996	-0.008552	0.064752
210	61.475739	0.275757	-0.353160	0.235440	10.359360	-0.174627	-0.477612	-0.181667	0.012217	-0.008552	0.062308
211	61.733887	0.293945	-2.354400	-0.235440	10.123920	-0.125373	-0.480597	-0.183333	0.394619	2.074498	-0.438601
212	61.991974	0.312073	-8.711280	0.235440	4.355640	0.176119	-0.501493	0.056667	0.459371	1.302365	-0.522901
213	62.250122	0.330261	-10.241640	-1.059480	-1.294920	0.211940	-0.508955	0.186667	-0.028100	-0.024435	0.043982
214	62.508301	0.268494	-9.535320	0.588600	0.235440	0.207463	-0.541791	0.218333	-0.259007	-0.134390	0.073304
215	62.766388	0.286621	-10.123920	1.530360	-0.235440	0.204478	-0.555224	0.178333	-0.062308	0.163712	-0.064752
216	63.024536	0.304810	-9.888480	1.765800	-0.353160	0.211940	-0.564179	0.175000	-0.188146	-0.096517	0.179594
217	63.282715	0.323029	-10.006200	1.765800	0.000000	0.216418	-0.528358	0.148333	-0.219911	-0.144164	-0.272446
218	63.540833	0.261200	-10.123920	-0.470880	-0.588600	0.228358	-0.479104	0.166667	0.112399	0.106291	0.086743
219	63.798950	0.279358	-10.241640	-0.117720	-0.235440	0.226866	-0.483582	0.183333	-0.009774	-0.271224	0.018326
220	64.057129	0.297577	-10.241640	-0.588600	-0.588600	0.222388	-0.488060	0.166667	0.062308	-0.202807	0.004887
221	64.315308	0.315796	-10.123920	-0.588600	0.000000	0.223881	-0.479104	0.156667	-0.106291	-0.006109	-0.007330
222	64.573486	0.334015	-10.123920	-0.470880	0.117720	0.223881	-0.477612	0.155000	-0.025656	0.028100	0.054978
223	64.831665	0.272247	-10.241640	-0.235440	-0.353160	0.220896	-0.482090	0.156667	-0.039095	-0.023213	0.000000
224	65.089722	0.290344	-10.006200	-0.235440	-0.117720	0.220896	-0.477612	0.160000	-0.023213	-0.050091	0.020769
225	65.347809	0.308472	-10.123920	-0.353160	-0.235440	0.223881	-0.482090	0.158333	-0.025656	-0.039095	0.015882
226	65.605896	0.326599	-10.241640	-0.353160	-0.117720	0.225373	-0.483582	0.161667	-0.025656	0.008552	0.002443
227	65.864014	0.264771	-10.006200	-0.235440	-0.235440	0.223881	-0.485075	0.166667	-0.035430	0.023213	-0.012217
228	66.122162	0.282959	-10.006200	-0.470880	-0.117720	0.223881	-0.483582	0.166667	0.004887	0.232129	-0.024435
229	66.380371	0.301208	-10.123920	-0.235440	-0.941760	0.220896	-0.488060	0.190000	0.061087	0.037874	0.024435
230	66.638580	0.319458	-9.888480	-0.588600	-1.294920	0.226866	-0.479104	0.191667	0.052534	-0.163712	-0.048869
231	66.896698	0.255524	-9.888480	-1.059480	-0.824040	0.225373	-0.479104	0.180000	-0.091630	0.234572	0.047647
232	67.154816	0.275787	-10.241640	-0.470880	-0.588600	0.222388	-0.482090	0.173333	-0.051313	-0.001222	-0.001222
233	67.412933	0.293945	-10.006200	-0.706320	-1.059480	0.225373	-0.480597	0.185000	-0.069639	0.054978	0.004887
234	67.671112	0.312164	-10.123920	-0.470880	-1.294920	0.226866	-0.480597	0.186667	-0.052534	0.008552	-0.013439
235	67.929260	0.330353	-10.123920	-0.706320	-1.059480	0.223881	-0.480597	0.186667	-0.042761	-0.013439	-0.008552
236	68.187439	0.268585	-10.123920	-0.588600	-0.824040	0.225373	-0.482090	0.183333	-0.040317	-0.019548	-0.001222
237	68.445648	0.286835	-10.123920	-0.470880	-1.059480	0.225373	-0.482090	0.185000	-0.037874	-0.002443	-0.001222
238	68.703796	0.305023	-10.006200	-0.824040	-1.294920	0.226866	-0.479104	0.186667	-0.028100	-0.003665	-0.007330
239	68.961975	0.323242	-10.123920	-0.588600	-1.059480	0.222388	-0.480597	0.190000	-0.040317	-0.018326	-0.003665
240	69.220154	0.261475	-10.123920	-0.588600	-1.059480	0.225373	-0.480597	0.191667	-0.035430	-0.014661	-0.002443
241	69.478333	0.279694	-9.888480	-0.470880	-1.059480	0.223881	-0.480597	0.188333	-0.032987	-0.030543	0.000000
242	69.736542	0.297943	-10.006200	-0.706320	-0.941760	0.223881	-0.482090	0.186667	-0.035430	-0.012217	-0.001222
243	69.994781	0.316223	-10.123920	-0.588600	-0.824040	0.223881	-0.479104	0.188333	-0.036652	-0.018326	0.001222
244	70.252930	0.334412	-10.006200	-0.824040	-1.059480	0.222388	-0.482090	0.193333	-0.020769	-0.026878	-0.003665
245	70.511047	0.272583	-10.006200	-0.824040	-1.059480	0.223881	-0.482090	0.190000	-0.034208	-0.003665	0.002443
246	70.769104	0.290680	-10.006200	-0.706320	-1.059480	0.225373	-0.483582	0.186667	-0.037874	-0.014661	0.004887
247	71.027252	0.308868	-10.006200	-0.706320	-1.059480	0.225373	-0.480597	0.190000	-0.031765	-0.014661	0.009774
248	71.285431	0.327087	-9.888480	-0.588600	-1.059480	0.223881	-0.479104	0.193333	-0.026878	-0.008552	0.002443
249	71.543579	0.265289	-10.123920	-0.824040	-1.177200	0.222388	-0.480597	0.190000	-0.047647	-0.002443	-0.001222
250	71.801727	0.283478	-10.006200	-0.706320	-1.177200	0.223881	-0.482090	0.190000	-0.041539	-0.002443	0.001222
251	72.059845	0.301636	-9.888480	-0.824040	-1.177200	0.223881	-0.483582	0.193333	-0.037874	-0.009774	0.001222
252	72.317932	0.319763	-9.888480	-0.470880	-1.177200	0.223881	-0.483582	0.193333	-0.043982	-0.007330	0.000000
253	72.576019	0.255463	-10.123920	-0.706320	-1.177200	0.226866	-0.480597	0.196667	-0.037874	-0.021991	0.001222
254	72.834137	0.276062	-10.123920	-0.706320	-1.059480	0.225373	-0.483582	0.195000	-0.028100	-0.031765	0.008552
255	73.092316	0.294281	-10.006200	-0.706320	-1.177200	0.223881	-0.482090	0.193333	-0.037874	-0.156382	0.001222
256	73.350433	0.312439	-10.006200	-0.588600	-1.177200	0.225373	-0.480597	0.198333	-0.034208	-0.021991	0.009774
257	73.608551	0.330597	-10.006200	-0.941760	-1.294920	0.222388	-0.482090	0.198333	-0.034208	-0.015882	0.002443
258	73.866730	0.268829	-10.123920	-0.588600	-0.941760	0.225373	-0.480597	0.196667	-0.048869	0.004887	0.001222
259	74.124878	0.287018	-9.888480	-0.470880	-1.177200	0.225373	-0.485075	0.196667	-0.042761	0.000000	-0.007330
260	74.382965	0.305145	-10.006200	-0.588600	-1.294920	0.223881	-0.482090	0.200000	-0.045204	-0.009774	-0.008552
261	74.641113	0.323334	-10.123920	-0.588600	-1.294920	0.225373	-0.482090	0.200000	-0.042761	-0.014661	0.002443
262	74.899261	0.261536	-10.006200	-0.588600	-1.412640	0.223881	-0.482090	0.200000	-0.039095	-0.010996	0.003665
263	75.157379	0.279694	-10.006200	-0.588600	-1.177200	0.220896	-0.483582	0.196667	-0.031765	-0.001222	-0.003665
264	75.415497	0.297852	-10.006200	-0.470880	-1.294920	0.223881	-0.485075	0.195000	-0.037874	-0.030543	-0.003665
265	75.673645	0.316040	-10.006200	-0.588600	-1.294920	0.222388	-0.480597	0.198333	-0.037874	-0.013439	0.006109
266	75.931793	0.334229	-10.123920	-0.824040	-1.177200	0.223881	-0.483582	0.198333	-0.041539	-0.014661	0.006109
267	76.189941	0.272430	-10.123920	-0.706320	-1.294920	0.225373	-0.483582	0.196667	-0.037874	-0.020769	-0.002443
268	76.448059	0.290588	-10.006200	-0.588600	-1.177200	0.225373	-0.480597	0.198333	-0.037874	-0.018326	-0.002443
269	76.706207	0.308777	-10.006200	-0.588600	-1.177200	0.222388	-0.482090	0.203333	-0.040317	-0.010996	-0.001222
270	76.964325	0.326935	-9.888480	-0.824040	-1.177200	0.223881	-0.480597	0.201667	-0.034208	-0.010996	-0.004887
271	77.222443	0.265106	-10.123920	-0.470880	-1.177200	0.223881	-0.480597	0.198333	-0.043982	-0.018326	-0.006109
272	77.480591	0.283295	-10.123920	-0.588600	-1.294920	0.222388	-0.482090	0.198333	-0.034208	-0.018326	-0.001222
273	77.738708	0.301453	-10.006200	-0.706320	-1.294920	0.223881	-0.483582	0.198333	-0.037874	-0.019548	0.002443
274	77.996857	0.319641	-10.006200	-0.824040	-1.294920	0.223881	-0.479104	0.201667	-0.041539	-0.026878	0.002443
275	78.255005	0.255554	-10.006200	-0.588600	-1.177200	0.225373	-0.482090	0.200000	-0.036652	-0.003665	-0.002443
276	78.513153	0.276031	-10.006200	-0.706320	-1.177200	0.222388	-0.479104	0.198333	-0.039095	-0.010996	-0.002443
277	78.771393	0.294312	-10.123920	-0.588600	-1.177200	0.223881	-0.482090	0.198333	-0.046426	-0.004887	-0.004887
278	79.029602	0.312561	-10.123920	-0.588600	-1.294920	0.222388	-0.482090	0.198333	-0.036652	-0.018326	0.007330
279	79.287842	0.330841	-9.888480	-0.588600	-1.059480	0.222388	-0.480597	0.198333	-0.040317	-0.014661	-0.002443
280	79.546021	0.269073	-10.123920	-0.588600	-1.412640	0.223881	-0.477612	0.198333	-0.032987	-0.013439	-0.003665
281	79.804199	0.287292	-9.888480	-0.941760	-1.294920	0.223881	-0.477612	0.196667	-0.034208	-0.014661	-0.003665
282	80.062378	0.305511	-10.006200	-0.588600	-1.294920	0.222388	-0.479104	0.200000	-0.042761	-0.006109	-0.003665
283	80.320618	0.323792	-10.006200	-0.824040	-1.294920	0.220896	-0.480597	0.198333	-0.041539	-0.009774	-0.006109
284	80.578827	0.262054	-10.123920	-0.941760	-1.412640	0.223881	-0.479104	0.196667	-0.035430	0.007330	0.009774
285	80.837036	0.280304	-10.123920	-0.706320	-1.177200	0.222388	-0.482090	0.200000	-0.046426	-0.004887	0.006109
286	81.095215	0.298523	-10.006200	-0.706320	-1.412640	0.222388	-0.483582	0.198333	-0.051313	-0.017104	0.003665
287	81.353394	0.316742	-9.888480	-0.941760	-1.059480	0.222388	-0.483582	0.196667	-0.036652	-0.023213	0.007330
288	81.611572	0.334961	-10.006200	-0.824040	-1.059480	0.226866	-0.482090	0.196667	-0.039095	-0.018326	-0.001222
289	81.869751	0.273193	-10.006200	-0.470880	-1.412640	0.223881	-0.483582	0.196667	-0.034208	-0.009774	0.003665
290	82.127930	0.291412	-9.888480	-0.824040	-1.177200	0.222388	-0.479104	0.196667	-0.040317	-0.029322	0.000000
291	82.386169	0.309692	-10.123920	-0.706320	-1.294920	0.222388	-0.477612	0.196667	-0.035430	-0.024435	-0.004887
292	82.644379	0.327942	-10.241640	-0.824040	-1.294920	0.225373	-0.480597	0.196667	-0.053756	-0.012217	0.000000
293	82.902588	0.266205	-10.241640	-0.824040	-1.177200	0.225373	-0.477612	0.198333	-0.047647	-0.020769	0.014661
294	83.160767	0.284424	-9.888480	-0.824040	-1.294920	0.223881	-0.479104	0.196667	-0.035430	-0.010996	-0.001222
295	83.418945	0.302643	-9.888480	-0.824040	-1.294920	0.220896	-0.480597	0.198333	-0.040317	-0.010996	0.000000
296	83.677277	0.321014	-10.123920	-0.706320	-1.294920	0.223881	-0.483582	0.198333	-0.029322	-0.018326	0.000000
297	83.935303	0.259094	-10.123920	-0.941760	-1.177200	0.223881	-0.477612	0.196667	-0.036652	-0.024435	0.000000
298	84.193481	0.277313	-10.123920	-0.706320	-1.177200	0.222388	-0.479104	0.200000	-0.045204	0.000000	0.003665
299	84.451630	0.295502	-10.123920	-0.706320	-1.177200	0.223881	-0.480597	0.198333	-0.043982	-0.010996	0.003665
300	84.709839	0.313751	-10.123920	-0.824040	-1.177200	0.223881	-0.480597	0.200000	-0.042761	-0.012217	0.002443
301	84.968018	0.331970	-9.888480	-0.588600	-1.412640	0.223881	-0.479104	0.198333	-0.042761	-0.020769	-0.003665
302	85.226227	0.270233	-9.770760	-0.706320	-1.059480	0.225373	-0.482090	0.201667	-0.037874	-0.021991	0.006109
303	85.484436	0.288483	-10.006200	-0.706320	-1.412640	0.222388	-0.480597	0.200000	-0.040317	-0.009774	-0.008552
304	85.742615	0.306702	-10.006200	-0.588600	-1.059480	0.222388	-0.479104	0.196667	-0.046426	-0.009774	0.009774
305	86.000793	0.324921	-10.123920	-0.588600	-1.059480	0.225373	-0.480597	0.200000	-0.037874	-0.010996	-0.001222
306	86.258972	0.263153	-9.888480	-0.824040	-1.177200	0.223881	-0.482090	0.201667	-0.037874	-0.023213	0.006109
307	86.517151	0.281372	-10.006200	-0.941760	-1.412640	0.223881	-0.480597	0.200000	-0.034208	-0.025656	-0.002443
308	86.775330	0.299591	-9.888480	-0.706320	-1.294920	0.223881	-0.477612	0.198333	-0.037874	-0.014661	-0.008552
309	87.033508	0.317810	-10.006200	-0.824040	-1.294920	0.223881	-0.479104	0.201667	-0.037874	-0.020769	0.001222
310	87.291687	0.255585	-10.006200	-0.941760	-1.177200	0.223881	-0.477612	0.200000	-0.039095	-0.018326	0.003665
311	87.549896	0.274292	-10.006200	-0.706320	-1.177200	0.223881	-0.479104	0.200000	-0.039095	-0.021991	0.008552
312	87.808044	0.292480	-9.888480	-0.941760	-1.059480	0.225373	-0.480597	0.201667	-0.037874	-0.023213	0.013439
313	88.066193	0.310669	-9.770760	-0.706320	-0.941760	0.225373	-0.483582	0.200000	-0.021991	-0.026878	-0.041539
314	88.324371	0.328888	-9.888480	-0.588600	-1.177200	0.222388	-0.479104	0.195000	0.155160	-0.202807	0.140499
315	88.582611	0.267181	-10.006200	-1.059480	-1.059480	0.222388	-0.483582	0.183333	-0.043982	-0.041539	0.029322
316	88.840851	0.285461	-9.888480	-0.824040	-0.824040	0.222388	-0.485075	0.193333	-0.091630	-0.009774	0.026878
317	89.099091	0.303741	-10.123920	-0.941760	-1.883520	0.219403	-0.468657	0.230000	0.789238	1.392773	-1.323134
318	89.357330	0.322021	-4.237920	-8.004960	-2.472120	0.094030	-0.174627	0.265000	0.956615	-0.340863	-2.247984
319	89.615570	0.260315	4.120200	-7.063200	-1.177200	-0.200000	-0.065672	0.176667	-0.463036	-0.090408	-2.247984
320	89.873779	0.278564	9.064440	-2.943000	-1.177200	-0.401493	-0.189552	0.208333	0.263894	-0.229685	-1.004262
321	90.132019	0.296844	9.770760	-0.353160	-1.294920	-0.441791	-0.235821	0.188333	0.803899	0.294437	-1.181413
322	90.390289	0.315155	8.829000	-0.117720	-1.530360	-0.464179	-0.274627	0.198333	0.173486	0.068417	-0.013439
323	90.648499	0.333405	8.593560	-0.117720	-1.412640	-0.468657	-0.280597	0.181667	-0.051313	0.010996	0.013439
324	90.906738	0.271698	8.946720	0.000000	-0.824040	-0.465672	-0.282090	0.180000	0.080634	-0.014661	0.014661
325	91.164948	0.289948	8.946720	0.000000	-0.824040	-0.465672	-0.285075	0.175000	0.075747	-0.008552	0.010996
326	91.423157	0.308197	8.946720	0.000000	-1.177200	-0.462687	-0.277612	0.178333	0.061087	-0.017104	-0.004887
327	91.681335	0.326416	8.829000	-0.353160	-0.941760	-0.462687	-0.280597	0.175000	0.074526	-0.009774	0.004887
328	91.939575	0.264709	9.064440	-0.235440	-0.941760	-0.465672	-0.280597	0.175000	0.062308	-0.051313	-0.003665
329	92.197754	0.282928	8.711280	-0.117720	-0.941760	-0.464179	-0.277612	0.178333	0.057421	-0.023213	0.006109
330	92.456024	0.301239	8.829000	-0.117720	-0.941760	-0.459701	-0.276119	0.178333	0.035430	0.004887	-0.014661
331	92.714294	0.319550	8.829000	-0.117720	-1.059480	-0.461194	-0.280597	0.180000	0.061087	0.003665	0.003665
332	92.972565	0.255676	8.711280	0.000000	-1.059480	-0.465672	-0.282090	0.180000	0.048869	0.002443	0.001222
333	93.230835	0.276184	8.593560	-0.117720	-1.177200	-0.465672	-0.279104	0.176667	0.057421	-0.017104	0.003665
334	93.489075	0.294464	8.946720	-0.235440	-1.059480	-0.461194	-0.280597	0.178333	0.061087	-0.028100	0.000000
335	93.747314	0.312744	8.829000	0.000000	-1.177200	-0.465672	-0.280597	0.178333	0.059865	-0.009774	0.001222
336	94.005524	0.330994	8.829000	-0.117720	-1.177200	-0.465672	-0.279104	0.178333	0.061087	-0.018326	-0.007330
337	94.263763	0.269287	8.946720	0.000000	-1.059480	-0.462687	-0.279104	0.178333	0.062308	0.000000	0.002443
338	94.522034	0.287598	8.829000	-0.353160	-1.059480	-0.462687	-0.277612	0.176667	0.058643	-0.006109	0.001222
339	94.780273	0.305878	8.829000	-0.235440	-1.059480	-0.462687	-0.279104	0.176667	0.067195	-0.002443	0.004887
340	95.038483	0.324127	9.064440	-0.235440	-0.941760	-0.464179	-0.280597	0.175000	0.058643	-0.019548	0.009774
341	95.296753	0.262451	8.946720	-0.117720	-0.941760	-0.464179	-0.280597	0.175000	0.051313	-0.006109	-0.006109
342	95.554993	0.280731	8.829000	-0.117720	-1.177200	-0.461194	-0.279104	0.175000	0.063530	-0.019548	0.001222
343	95.813232	0.299011	8.946720	-0.235440	-1.059480	-0.464179	-0.280597	0.176667	0.057421	-0.019548	0.008552
344	96.071472	0.317291	8.946720	-0.235440	-1.294920	-0.467164	-0.277612	0.178333	0.056200	-0.014661	0.004887
345	96.329742	0.255615	8.946720	-0.117720	-0.941760	-0.464179	-0.279104	0.178333	0.051313	-0.004887	0.004887
346	96.587982	0.273895	8.946720	-0.235440	-1.059480	-0.461194	-0.277612	0.176667	0.057421	0.000000	0.004887
347	96.846222	0.292175	9.064440	-0.353160	-0.941760	-0.462687	-0.277612	0.178333	0.052534	-0.014661	-0.004887
348	97.104431	0.310425	8.829000	0.000000	-0.941760	-0.464179	-0.276119	0.178333	0.054978	-0.018326	0.010996
349	97.362640	0.328674	8.711280	-0.235440	-1.059480	-0.462687	-0.277612	0.180000	0.061087	-0.007330	0.006109
350	97.620850	0.266937	8.946720	-0.117720	-1.059480	-0.462687	-0.277612	0.180000	0.057421	0.000000	0.004887
351	97.879059	0.285187	8.946720	-0.117720	-1.177200	-0.464179	-0.277612	0.178333	0.057421	-0.006109	-0.002443
352	98.137268	0.303436	8.829000	-0.117720	-1.177200	-0.462687	-0.276119	0.176667	0.065973	-0.012217	-0.004887
353	98.395477	0.321686	9.064440	-0.235440	-0.941760	-0.462687	-0.279104	0.176667	0.067195	-0.017104	0.004887
354	98.653656	0.259918	8.946720	0.000000	-0.941760	-0.462687	-0.279104	0.175000	0.069639	-0.013439	-0.003665
355	98.911896	0.278198	8.711280	-0.353160	-1.177200	-0.462687	-0.280597	0.176667	0.054978	0.000000	0.006109
356	99.170135	0.296478	8.829000	-0.117720	-1.177200	-0.461194	-0.279104	0.173333	0.051313	-0.012217	0.008552
357	99.428314	0.314697	9.064440	0.000000	-1.059480	-0.462687	-0.277612	0.176667	0.062308	-0.009774	0.004887
358	99.686523	0.332947	8.711280	-0.235440	-0.941760	-0.461194	-0.279104	0.176667	0.050091	-0.003665	0.007330
359	99.944672	0.271149	8.829000	-0.117720	-1.059480	-0.462687	-0.277612	0.175000	0.025656	-0.032987	-0.018326
360	100.202911	0.289429	8.946720	-0.235440	-1.294920	-0.465672	-0.280597	0.185000	0.026878	-0.025656	-0.010996
361	100.461151	0.307709	8.946720	-0.117720	-1.177200	-0.464179	-0.279104	0.183333	0.050091	0.042761	0.004887
362	100.719360	0.325958	8.829000	-0.117720	-0.941760	-0.464179	-0.282090	0.173333	-0.026878	0.122173	0.014661
363	100.977570	0.264221	8.829000	-0.235440	-0.588600	-0.461194	-0.279104	0.163333	0.069639	-0.298102	-0.092852
364	101.235809	0.282501	9.064440	-0.470880	-1.765800	-0.462687	-0.270149	0.185000	0.017104	0.244346	-0.013439
365	101.494019	0.300751	8.829000	-0.117720	-1.294920	-0.459701	-0.271642	0.171667	0.133169	0.058643	-0.102625
366	101.752289	0.319061	8.829000	0.000000	-0.706320	-0.464179	-0.283582	0.163333	-0.128282	-0.067195	-0.075747
367	102.010498	0.255615	8.829000	0.000000	-0.470880	-0.465672	-0.289552	0.156667	0.076969	0.015882	0.026878
368	102.268799	0.275665	8.946720	0.235440	0.000000	-0.462687	-0.291045	0.148333	0.092852	-0.012217	0.013439
369	102.527039	0.293945	9.064440	0.000000	-0.706320	-0.467164	-0.295522	0.155000	0.070860	-0.006109	0.030543
370	102.785248	0.312195	8.946720	0.117720	-0.706320	-0.465672	-0.291045	0.158333	0.043982	-0.006109	0.000000
371	103.043457	0.330444	8.829000	0.117720	-0.706320	-0.465672	-0.292537	0.160000	0.029322	-0.039095	-0.002443
372	103.301666	0.268707	8.711280	0.000000	-0.706320	-0.464179	-0.292537	0.161667	0.125838	-0.031765	-0.023213
373	103.559906	0.286987	9.064440	0.235440	-0.706320	-0.468657	-0.292537	0.161667	0.040317	-0.010996	-0.004887
374	103.818146	0.305267	9.182160	0.000000	-0.941760	-0.467164	-0.292537	0.166667	0.070860	-0.034208	0.003665
375	104.076385	0.323547	8.946720	0.117720	-0.824040	-0.468657	-0.291045	0.171667	0.065973	-0.007330	-0.010996
376	104.334625	0.261841	8.946720	0.353160	-1.059480	-0.468657	-0.294030	0.170000	0.025656	-0.002443	-0.012217
377	104.592865	0.280121	8.946720	0.470880	-0.941760	-0.468657	-0.298507	0.171667	0.041539	-0.013439	0.002443
378	104.851135	0.298431	8.593560	0.235440	-1.059480	-0.468657	-0.300000	0.170000	0.037874	0.000000	-0.003665
379	105.109375	0.316711	8.946720	0.353160	-0.941760	-0.473134	-0.302985	0.173333	0.052534	-0.006109	0.004887
380	105.367584	0.334961	8.946720	0.353160	-0.824040	-0.470149	-0.302985	0.176667	0.061087	-0.026878	0.006109
381	105.625916	0.273346	8.946720	0.235440	-0.941760	-0.474627	-0.305970	0.175000	0.053756	0.006109	0.013439
382	105.884155	0.291626	8.829000	0.235440	-0.941760	-0.468657	-0.298507	0.171667	0.058643	-0.010996	0.001222
383	106.142456	0.309967	8.829000	0.353160	-0.941760	-0.473134	-0.301493	0.176667	0.048869	-0.002443	0.001222
384	106.400757	0.328308	8.593560	0.470880	-1.059480	-0.468657	-0.300000	0.173333	0.032987	0.003665	-0.003665
385	106.659027	0.266632	8.946720	0.353160	-0.941760	-0.467164	-0.302985	0.170000	0.024435	0.017104	0.002443
386	106.917297	0.284943	8.946720	0.588600	-0.706320	-0.471642	-0.300000	0.170000	0.069639	0.013439	0.001222
387	107.175598	0.303284	8.946720	0.235440	-0.706320	-0.468657	-0.298507	0.173333	0.029322	-0.003665	0.003665
388	107.433929	0.321655	8.711280	0.235440	-0.824040	-0.470149	-0.295522	0.176667	0.065973	0.013439	-0.012217
389	107.692291	0.260071	8.946720	0.353160	-0.588600	-0.465672	-0.294030	0.175000	0.146608	-0.018326	0.036652
390	107.950623	0.278442	8.829000	0.117720	-0.706320	-0.465672	-0.289552	0.178333	-0.014661	-0.053756	0.003665
391	108.208954	0.296814	8.829000	0.117720	-1.059480	-0.464179	-0.289552	0.181667	0.063530	-0.018326	0.023213
392	108.467255	0.315155	8.711280	0.235440	-0.941760	-0.465672	-0.289552	0.183333	0.056200	-0.003665	0.004887
393	108.725525	0.333466	8.829000	0.117720	-1.177200	-0.467164	-0.288060	0.180000	0.045204	-0.018326	0.007330
394	108.983795	0.271790	8.946720	0.117720	-1.177200	-0.465672	-0.286567	0.181667	0.053756	-0.031765	0.017104
395	109.242096	0.290131	8.946720	0.000000	-0.941760	-0.462687	-0.280597	0.185000	-0.053756	-0.048869	0.127060
396	109.500397	0.308472	8.711280	-0.235440	-1.177200	-0.458209	-0.267164	0.193333	0.079412	-0.076969	0.111177
397	109.758667	0.326782	8.946720	-1.530360	-1.412640	-0.449254	-0.235821	0.203333	0.138056	-0.056200	0.043982
398	110.016937	0.265106	8.711280	-1.530360	-1.765800	-0.444776	-0.225373	0.201667	0.050091	-0.041539	0.036652
399	110.275208	0.283417	8.593560	-1.412640	-1.530360	-0.441791	-0.225373	0.203333	0.047647	0.147829	-0.025656
400	110.533508	0.301758	8.829000	-1.530360	-1.530360	-0.440299	-0.223881	0.203333	0.069639	-0.006109	-0.021991
401	110.792725	0.321014	8.711280	-1.648080	-1.294920	-0.443284	-0.222388	0.200000	0.059865	-0.028100	0.003665
402	111.049988	0.258331	8.829000	-1.530360	-1.412640	-0.441791	-0.226866	0.201667	0.062308	-0.014661	-0.006109
403	111.308258	0.276642	8.711280	-1.412640	-1.648080	-0.443284	-0.231343	0.198333	0.074526	-0.078191	-0.076969
404	111.566559	0.294983	8.711280	-1.412640	-1.412640	-0.444776	-0.232836	0.196667	0.000000	-0.003665	-0.002443
405	111.824799	0.313263	8.593560	-1.530360	-0.941760	-0.438806	-0.222388	0.198333	-0.316428	0.234572	0.620639
406	112.083099	0.331604	6.827760	-6.121440	0.235440	-0.302985	-0.086567	0.160000	-0.105069	-0.086743	0.013439
407	112.341400	0.269958	5.768280	-6.592320	-0.353160	-0.270149	-0.065672	0.171667	0.056200	-0.094073	0.006109
408	112.599670	0.288269	5.297400	-8.122680	-0.117720	-0.234328	-0.056716	0.158333	0.455705	-0.163712	0.792903
409	112.857910	0.306549	2.236680	-10.947960	-0.353160	-0.067164	-0.056716	0.155000	-0.199142	0.450819	0.097738
410	113.116150	0.324829	-0.824040	-9.417600	-0.470880	-0.031343	-0.067164	0.165000	0.087965	-0.046426	-0.083078
411	113.374390	0.263123	-0.470880	-9.535320	-0.470880	-0.034328	-0.065672	0.158333	0.006109	-0.076969	-0.002443
412	113.632690	0.281464	-0.824040	-9.535320	-0.353160	-0.035821	-0.065672	0.155000	0.064752	-0.058643	0.010996
413	113.890930	0.299744	-0.588600	-9.535320	-0.117720	-0.040299	-0.062687	0.148333	0.012217	0.003665	0.008552
414	114.149231	0.318085	-0.941760	-9.653040	-0.470880	-0.038806	-0.064179	0.151667	-0.102625	-0.083078	-0.004887
415	114.407501	0.255676	-0.588600	-9.770760	-0.706320	-0.044776	-0.058209	0.160000	0.000000	-0.185703	0.004887
416	114.665833	0.274780	0.000000	-9.064440	-0.588600	-0.061194	-0.055224	0.128333	0.029322	-0.113621	0.023213
417	114.924164	0.293152	0.000000	-9.417600	0.470880	-0.064179	-0.056716	0.126667	0.007330	-0.076969	0.053756
418	115.182495	0.311523	-0.470880	-9.299880	0.235440	-0.062687	-0.058209	0.120000	0.140499	-0.090408	0.085521
419	115.440796	0.329865	-0.235440	-9.417600	0.235440	-0.062687	-0.059701	0.113333	-0.105069	-0.090408	0.023213
420	115.699066	0.268188	-0.117720	-9.535320	0.470880	-0.061194	-0.059701	0.111667	0.023213	-0.057421	0.025656
421	115.957367	0.286530	-0.235440	-9.417600	0.353160	-0.058209	-0.064179	0.110000	0.018326	-0.076969	0.018326
422	116.215698	0.304901	-0.117720	-9.535320	0.588600	-0.059701	-0.061194	0.110000	0.015882	-0.052534	-0.008552
423	116.474060	0.323303	-0.235440	-9.653040	0.706320	-0.062687	-0.059701	0.108333	0.007330	-0.047647	-0.003665
424	116.732422	0.261719	0.000000	-9.535320	0.588600	-0.062687	-0.058209	0.110000	0.017104	-0.051313	0.002443
425	116.990753	0.280090	-0.235440	-9.535320	0.470880	-0.061194	-0.059701	0.113333	0.009774	-0.061087	0.000000
426	117.249084	0.298462	-0.117720	-9.535320	0.706320	-0.064179	-0.056716	0.116667	0.012217	-0.062308	0.015882
427	117.507385	0.316803	-0.235440	-9.535320	0.470880	-0.061194	-0.062687	0.115000	0.020769	-0.054978	0.010996
428	117.765656	0.335114	-0.117720	-9.417600	0.235440	-0.061194	-0.058209	0.113333	0.010996	-0.052534	0.015882
429	118.023987	0.273499	0.000000	-9.653040	0.470880	-0.062687	-0.059701	0.113333	0.010996	-0.054978	0.000000
430	118.282288	0.291840	0.000000	-9.299880	0.470880	-0.062687	-0.058209	0.115000	0.036652	-0.050091	0.000000
431	118.540558	0.310150	-0.235440	-9.653040	0.353160	-0.062687	-0.058209	0.113333	0.010996	-0.052534	0.006109
432	118.798859	0.328491	-0.117720	-9.535320	0.235440	-0.061194	-0.058209	0.115000	0.017104	-0.053756	0.008552
433	119.057129	0.266815	-0.235440	-9.653040	0.353160	-0.061194	-0.059701	0.113333	0.009774	-0.047647	0.007330
434	119.315399	0.285126	0.000000	-9.417600	0.353160	-0.059701	-0.061194	0.115000	-0.001222	-0.068417	0.013439
435	119.573761	0.303528	0.000000	-9.299880	0.353160	-0.062687	-0.058209	0.116667	0.001222	-0.061087	0.012217
436	119.832123	0.321930	-0.117720	-9.417600	0.470880	-0.065672	-0.056716	0.116667	0.003665	-0.058643	0.000000
437	120.090424	0.260284	0.000000	-9.299880	0.470880	-0.065672	-0.059701	0.116667	0.004887	-0.061087	0.006109
438	120.348785	0.278687	0.000000	-9.299880	0.353160	-0.062687	-0.058209	0.118333	0.014661	-0.054978	-0.004887
439	120.607086	0.297028	-0.235440	-9.417600	0.000000	-0.065672	-0.058209	0.120000	0.008552	-0.047647	0.009774
440	120.865479	0.315460	-0.117720	-9.535320	0.353160	-0.065672	-0.056716	0.120000	0.009774	-0.059865	0.009774
441	121.123810	0.333832	-0.235440	-9.417600	0.353160	-0.065672	-0.058209	0.118333	0.029322	-0.051313	0.002443
442	121.382141	0.272217	0.000000	-9.653040	0.117720	-0.064179	-0.059701	0.120000	0.010996	-0.059865	0.008552
443	121.640503	0.290619	-0.117720	-9.535320	0.353160	-0.062687	-0.061194	0.123333	0.002443	-0.061087	0.000000
444	121.898865	0.309021	0.117720	-9.417600	0.353160	-0.068657	-0.056716	0.120000	0.007330	-0.068417	0.020769
445	122.157196	0.327393	0.000000	-9.535320	0.235440	-0.064179	-0.056716	0.120000	0.013439	-0.065973	0.002443
446	122.415558	0.265808	0.117720	-9.417600	0.235440	-0.064179	-0.061194	0.123333	0.021991	-0.050091	0.010996
447	122.673889	0.284180	0.000000	-9.535320	0.353160	-0.064179	-0.058209	0.120000	0.015882	-0.062308	0.001222
448	122.932220	0.302551	0.000000	-9.299880	0.353160	-0.062687	-0.059701	0.121667	0.010996	-0.051313	0.006109
449	123.190643	0.321014	-0.235440	-9.535320	0.353160	-0.065672	-0.059701	0.121667	0.014661	-0.058643	0.012217
450	123.448792	0.259216	0.000000	-9.417600	0.117720	-0.064179	-0.056716	0.121667	0.018326	-0.064752	0.017104
451	123.707153	0.277618	0.000000	-9.417600	0.353160	-0.062687	-0.059701	0.118333	0.012217	-0.062308	0.003665
452	123.965485	0.295990	-0.235440	-9.417600	0.235440	-0.064179	-0.059701	0.118333	-0.002443	-0.074526	0.009774
453	124.223846	0.314392	-0.117720	-9.299880	0.117720	-0.064179	-0.058209	0.120000	0.031765	-0.032987	-0.004887
454	124.482178	0.332764	-0.117720	-9.417600	0.235440	-0.062687	-0.058209	0.121667	0.001222	-0.064752	0.004887
455	124.740540	0.271179	0.000000	-9.535320	0.353160	-0.064179	-0.055224	0.120000	0.006109	-0.043982	0.002443
456	124.998871	0.289551	-0.117720	-9.535320	0.000000	-0.064179	-0.061194	0.118333	0.039095	-0.050091	0.000000
457	125.257263	0.307983	-0.117720	-9.535320	0.706320	-0.065672	-0.059701	0.120000	0.020769	-0.070860	0.010996
458	125.515656	0.326416	-0.117720	-9.535320	0.353160	-0.065672	-0.058209	0.118333	0.009774	-0.058643	0.009774
459	125.773987	0.264801	0.000000	-9.417600	0.117720	-0.064179	-0.058209	0.120000	0.007330	-0.057421	0.004887
460	126.032349	0.283203	0.000000	-9.535320	0.235440	-0.062687	-0.058209	0.120000	0.018326	-0.051313	0.008552
461	126.290741	0.301636	-0.117720	-9.417600	0.353160	-0.067164	-0.058209	0.123333	0.008552	-0.042761	0.003665
462	126.550079	0.321014	0.000000	-9.417600	0.353160	-0.064179	-0.056716	0.120000	0.007330	-0.059865	0.009774
463	126.807495	0.258484	0.000000	-9.417600	0.235440	-0.064179	-0.058209	0.123333	0.007330	-0.057421	0.003665
464	127.065826	0.276855	0.000000	-9.535320	0.117720	-0.064179	-0.058209	0.125000	-0.001222	-0.075747	0.015882
465	127.324188	0.295258	0.000000	-9.417600	0.353160	-0.064179	-0.058209	0.123333	0.009774	-0.054978	0.003665
466	127.582550	0.313660	0.000000	-9.653040	0.235440	-0.064179	-0.056716	0.125000	0.004887	-0.061087	0.008552
467	127.840881	0.332031	0.000000	-9.535320	0.235440	-0.064179	-0.056716	0.123333	0.012217	-0.054978	0.002443
468	128.099304	0.270508	0.000000	-9.417600	0.353160	-0.062687	-0.056716	0.121667	0.019548	-0.056200	0.001222
469	128.357758	0.289001	-0.117720	-9.417600	0.353160	-0.064179	-0.058209	0.120000	0.019548	-0.054978	0.012217
470	128.616119	0.307404	-0.235440	-9.417600	0.117720	-0.062687	-0.059701	0.118333	0.062308	0.002443	0.042761
471	128.874451	0.325775	-1.059480	-9.182160	1.294920	-0.019403	-0.083582	0.116667	-0.802677	0.425162	0.807564
472	129.132782	0.264160	-3.060720	-7.063200	-1.059480	0.156716	-0.243284	0.228333	-0.547335	0.237016	1.749518
473	129.391174	0.282593	-9.653040	-2.118960	-2.236680	0.222388	-0.471642	0.248333	-0.268781	0.212581	0.538783
474	129.649475	0.300934	-7.887240	4.473360	-2.707560	0.119403	-0.711940	0.223333	0.135612	-0.144164	1.353677
475	129.907867	0.319366	-3.178440	8.829000	0.000000	-0.062687	-0.811940	0.203333	-0.411723	0.311541	-0.013439
476	130.166290	0.255829	-1.294920	9.770760	-0.824040	-0.101493	-0.817910	0.183333	-0.256563	0.002443	0.279776
477	130.424683	0.276276	-2.354400	9.770760	-0.588600	-0.129851	-0.811940	0.173333	0.178373	0.059865	0.084299
478	130.683105	0.294739	-2.001240	9.888480	-0.470880	-0.140299	-0.813433	0.180000	0.012217	0.059865	0.069639
479	130.941498	0.313171	-1.294920	9.888480	-0.470880	-0.162687	-0.808955	0.173333	-0.073304	-0.001222	0.075747
480	131.199890	0.331604	-1.177200	9.888480	-0.470880	-0.173134	-0.802985	0.151667	-0.026878	0.020769	0.003665
481	131.458252	0.270020	-1.412640	9.888480	0.353160	-0.164179	-0.802985	0.136667	0.007330	0.031765	-0.003665
482	131.716614	0.288422	-1.530360	9.770760	0.470880	-0.164179	-0.800000	0.135000	0.023213	0.013439	0.002443
483	131.975037	0.306885	-1.530360	10.006200	0.470880	-0.165672	-0.800000	0.133333	0.009774	0.034208	0.010996
484	132.233398	0.325287	-1.294920	9.770760	0.470880	-0.162687	-0.797015	0.131667	0.020769	0.067195	0.009774
485	132.491791	0.263733	-1.294920	10.123920	0.353160	-0.159701	-0.800000	0.126667	-0.036652	0.020769	-0.001222
486	132.750153	0.282135	-1.412640	9.770760	0.706320	-0.161194	-0.800000	0.126667	0.100182	0.063530	0.008552
487	133.008514	0.300537	-1.648080	10.006200	0.000000	-0.159701	-0.804478	0.148333	-0.023213	0.002443	-0.006109
488	133.266907	0.318970	-1.412640	9.888480	-0.117720	-0.159701	-0.802985	0.150000	0.000000	0.045204	0.010996
489	133.525208	0.255707	-1.294920	9.770760	-0.117720	-0.159701	-0.802985	0.153333	0.003665	0.035430	0.004887
490	133.783569	0.275726	-1.530360	9.888480	0.000000	-0.161194	-0.802985	0.150000	0.007330	0.042761	0.006109
491	134.041962	0.294159	-1.648080	9.888480	-0.117720	-0.158209	-0.802985	0.151667	0.002443	0.040317	0.006109
492	134.300323	0.312561	-1.530360	9.770760	0.000000	-0.159701	-0.804478	0.151667	-0.020769	0.036652	0.012217
493	134.558655	0.330933	-1.412640	9.770760	-0.117720	-0.162687	-0.801493	0.151667	0.019548	0.041539	0.001222
494	134.816986	0.269318	-1.530360	9.770760	-0.117720	-0.159701	-0.802985	0.151667	-0.002443	0.041539	0.012217
495	135.075317	0.287689	-1.530360	9.888480	0.000000	-0.158209	-0.805970	0.150000	0.030543	0.041539	0.004887
496	135.333740	0.306152	-1.530360	10.006200	-0.117720	-0.159701	-0.804478	0.151667	0.009774	0.043982	0.003665
497	135.592102	0.324554	-1.530360	10.123920	0.000000	-0.158209	-0.802985	0.150000	0.002443	0.037874	0.018326
498	135.850494	0.263000	-1.648080	10.006200	-0.235440	-0.158209	-0.804478	0.155000	0.018326	0.041539	0.014661
499	136.108856	0.281403	-1.648080	9.888480	-0.235440	-0.161194	-0.805970	0.151667	0.013439	0.032987	0.003665
500	136.367249	0.299835	-1.765800	9.770760	-0.117720	-0.156716	-0.804478	0.153333	0.006109	0.045204	0.007330
501	136.625671	0.318298	-1.765800	9.770760	0.000000	-0.158209	-0.802985	0.158333	-0.008552	0.031765	0.000000
502	136.884033	0.255768	-1.412640	10.006200	-0.235440	-0.159701	-0.802985	0.156667	0.025656	0.050091	0.009774
503	137.142456	0.275177	-1.648080	10.006200	-0.353160	-0.158209	-0.805970	0.155000	0.000000	0.041539	0.010996
504	137.400848	0.293610	-1.648080	9.888480	-0.235440	-0.158209	-0.804478	0.153333	-0.010996	0.042761	0.014661
505	137.659241	0.312042	-1.648080	9.770760	-0.235440	-0.158209	-0.804478	0.155000	-0.002443	0.041539	0.007330
506	137.917633	0.330475	-1.530360	9.888480	-0.235440	-0.158209	-0.804478	0.155000	0.002443	0.039095	0.008552
507	138.176056	0.268951	-1.648080	9.770760	-0.235440	-0.158209	-0.802985	0.155000	-0.006109	0.037874	0.007330
508	138.434448	0.287384	-1.765800	9.888480	-0.235440	-0.156716	-0.805970	0.155000	0.021991	0.056200	0.004887
509	138.692841	0.305817	-1.648080	9.888480	-0.117720	-0.158209	-0.805970	0.156667	0.018326	0.073304	-0.001222
510	138.951233	0.324249	-1.530360	9.888480	-0.235440	-0.156716	-0.802985	0.156667	0.002443	0.032987	0.000000
511	139.209625	0.262695	-1.765800	10.006200	-0.235440	-0.156716	-0.804478	0.156667	-0.003665	0.023213	-0.003665
512	139.468018	0.281128	-1.648080	10.006200	-0.235440	-0.156716	-0.804478	0.158333	0.008552	0.043982	0.002443
513	139.726471	0.299622	-1.648080	9.653040	-0.117720	-0.155224	-0.807463	0.163333	0.013439	0.032987	-0.002443
514	139.984894	0.318085	-1.530360	9.770760	-0.353160	-0.156716	-0.804478	0.156667	-0.008552	0.034208	0.012217
515	140.243286	0.255798	-1.765800	9.888480	-0.117720	-0.153731	-0.805970	0.158333	-0.002443	0.052534	0.010996
516	140.501709	0.274994	-1.530360	9.770760	-0.235440	-0.155224	-0.807463	0.158333	0.014661	0.041539	0.006109
517	140.760162	0.293488	-1.648080	9.535320	0.000000	-0.153731	-0.807463	0.160000	0.031765	-0.024435	-0.072082
518	141.018524	0.311890	-1.883520	9.535320	-1.294920	-0.137313	-0.813433	0.183333	0.513127	-0.035430	-0.145386
519	141.276886	0.330292	-1.883520	8.829000	-2.707560	-0.141791	-0.813433	0.260000	0.320093	0.092852	0.191812
520	141.535278	0.268738	0.824040	8.593560	-2.472120	-0.213433	-0.802985	0.248333	-0.249233	-0.527788	-0.239459
521	141.793701	0.287201	-1.765800	8.829000	-3.296160	-0.162687	-0.802985	0.303333	0.458149	-0.138056	0.322537
522	142.052063	0.305603	-1.177200	8.358120	-4.237920	-0.182090	-0.785075	0.355000	0.010996	-0.326202	-0.190590
523	142.310486	0.324066	-2.354400	8.475840	-4.120200	-0.138806	-0.782090	0.353333	0.549779	0.507018	-0.095295
524	142.568939	0.262573	-2.943000	3.296160	-6.710040	-0.065672	-0.647761	0.510000	-0.533896	-0.313985	-1.293813
525	142.827362	0.281036	-6.945480	-1.059480	-10.830240	0.058209	-0.422388	0.521667	0.535118	0.014661	-0.123395
526	143.085724	0.299438	-2.707560	-2.943000	-8.004960	0.019403	-0.395522	0.551667	0.087965	0.382402	-0.326202
527	143.344086	0.317841	-1.530360	-1.648080	-8.593560	-0.044776	-0.420896	0.578333	-1.876578	0.868650	0.961502
528	143.602539	0.255859	-0.941760	0.941760	-9.535320	-0.091045	-0.497015	0.581667	-0.002443	-0.003665	-0.069639
529	143.860870	0.274719	-0.353160	0.000000	-9.653040	-0.086567	-0.497015	0.583333	0.001222	-0.012217	-0.046426
530	144.119202	0.293091	-0.353160	0.117720	-9.535320	-0.085075	-0.497015	0.585000	0.009774	-0.012217	-0.147829
531	144.377563	0.311493	-1.177200	1.883520	-9.182160	-0.129851	-0.501493	0.596667	-0.020769	0.063530	7.015176
532	144.635956	0.329926	-1.765800	1.059480	-6.710040	-0.222388	-0.465672	0.623333	-0.072082	-0.039095	2.448348
533	144.894348	0.268372	-0.470880	-0.470880	-9.299880	-0.232836	-0.343284	0.601667	0.008552	-0.015882	-0.041539
534	145.152710	0.286774	-3.178440	-0.470880	-8.240400	-0.225373	-0.340299	0.605000	0.009774	-0.014661	1.459968
535	145.411072	0.305176	-1.294920	-0.353160	-9.535320	-0.198507	-0.316418	0.600000	0.012217	-0.009774	-0.048869
536	145.669434	0.323578	-0.706320	-0.117720	-9.417600	-0.198507	-0.317910	0.598333	0.013439	-0.008552	-0.037874
537	145.927795	0.261993	-0.470880	0.000000	-9.770760	-0.197015	-0.320896	0.600000	0.003665	-0.010996	-0.046426
538	146.186157	0.280396	-0.470880	0.117720	-9.299880	-0.198507	-0.317910	0.601667	0.006109	-0.010996	-0.037874
539	146.444550	0.298828	-0.470880	-0.117720	-9.535320	-0.197015	-0.317910	0.601667	0.010996	-0.015882	-0.046426
540	146.702911	0.317230	-0.353160	0.000000	-9.417600	-0.197015	-0.316418	0.600000	0.010996	-0.017104	-0.041539
541	146.961243	0.335602	-0.353160	0.000000	-9.535320	-0.201493	-0.316418	0.600000	0.006109	-0.009774	-0.041539
542	147.219635	0.274048	-0.353160	0.000000	-9.535320	-0.198507	-0.316418	0.598333	0.013439	-0.013439	-0.042761
543	147.478088	0.292542	-0.353160	0.000000	-9.653040	-0.200000	-0.316418	0.600000	0.010996	-0.012217	-0.046426
544	147.736450	0.310944	-0.353160	0.000000	-9.535320	-0.198507	-0.319403	0.598333	0.013439	-0.006109	-0.041539
545	147.994843	0.329376	-0.353160	0.000000	-9.417600	-0.198507	-0.317910	0.601667	0.007330	-0.004887	-0.040317
546	148.253204	0.267792	-0.588600	0.117720	-9.299880	-0.197015	-0.317910	0.600000	0.012217	-0.012217	-0.037874
547	148.511536	0.286163	-0.470880	0.000000	-9.535320	-0.198507	-0.316418	0.600000	0.009774	-0.009774	-0.041539
548	148.769928	0.304596	-0.588600	0.000000	-9.417600	-0.200000	-0.319403	0.600000	0.007330	-0.012217	-0.040317
549	149.028320	0.323029	-0.353160	0.000000	-9.535320	-0.200000	-0.316418	0.598333	0.003665	-0.009774	-0.034208
550	149.286713	0.261475	-0.353160	0.000000	-9.299880	-0.198507	-0.316418	0.596667	0.012217	-0.006109	-0.037874
551	149.545135	0.279938	-0.470880	0.117720	-9.417600	-0.201493	-0.317910	0.598333	0.009774	-0.015882	-0.041539
552	149.803528	0.298370	-0.353160	0.000000	-9.535320	-0.197015	-0.316418	0.600000	0.009774	-0.008552	-0.040317
553	150.061920	0.316803	-0.470880	0.000000	-9.535320	-0.200000	-0.314925	0.598333	0.003665	-0.012217	-0.040317
554	150.320251	0.335175	-0.706320	0.000000	-9.535320	-0.198507	-0.316418	0.596667	0.006109	-0.014661	-0.039095
555	150.578583	0.273560	-0.235440	0.000000	-9.535320	-0.198507	-0.317910	0.598333	0.009774	-0.015882	-0.035430
556	150.836975	0.291992	-0.588600	0.000000	-9.653040	-0.197015	-0.316418	0.598333	0.003665	-0.010996	-0.032987
557	151.095367	0.310425	-0.470880	0.000000	-9.653040	-0.198507	-0.316418	0.600000	0.006109	-0.013439	-0.041539
558	151.353760	0.328857	-0.588600	0.117720	-9.653040	-0.198507	-0.317910	0.600000	0.013439	-0.007330	-0.042761
559	151.612091	0.267242	-0.706320	0.000000	-9.535320	-0.200000	-0.316418	0.598333	0.014661	-0.014661	-0.041539
560	151.870422	0.285614	-0.470880	0.000000	-9.417600	-0.200000	-0.316418	0.600000	0.006109	-0.010996	-0.041539
561	152.128784	0.304016	-0.470880	0.000000	-9.299880	-0.198507	-0.316418	0.600000	0.012217	-0.006109	-0.042761
562	152.387146	0.322418	-0.470880	0.000000	-9.535320	-0.195522	-0.313433	0.608333	0.013439	-0.013439	-0.040317
563	152.645538	0.260864	-0.470880	0.000000	-9.535320	-0.189552	-0.322388	0.610000	0.010996	-0.010996	-0.042761
564	152.903931	0.279297	-0.588600	0.000000	-9.535320	-0.179104	-0.325373	0.613333	0.003665	-0.010996	-0.041539
565	153.162292	0.297699	-0.706320	0.824040	-9.888480	-0.173134	-0.328358	0.633333	-0.054978	-0.306654	0.318872
566	153.420685	0.316132	-2.589840	1.059480	-9.653040	-0.153731	-0.407463	0.675000	-0.240681	0.081856	0.043982
567	153.679108	0.334595	0.941760	2.236680	-9.182160	-0.137313	-0.558209	0.706667	-0.036652	-0.032987	-0.023213
568	153.937531	0.273071	0.000000	2.354400	-8.946720	-0.128358	-0.643284	0.708333	-0.054978	0.007330	-0.056200
569	154.195923	0.291504	-5.768280	14.950440	-30.254040	-0.143284	-0.501493	0.785000	0.003665	-0.009774	-0.045204
570	154.454315	0.309937	-0.824040	0.117720	-9.299880	-0.155224	-0.455224	0.750000	0.006109	-0.012217	-0.041539
571	154.712769	0.328430	-0.353160	0.000000	-9.653040	-0.101493	-0.489552	0.770000	0.006109	-0.009774	-0.042761
572	154.971191	0.266907	-0.353160	0.000000	-9.299880	-0.065672	-0.467164	0.760000	0.014661	-0.007330	-0.046426
573	155.229645	0.285400	-0.706320	-0.117720	-9.653040	-0.058209	-0.373134	0.723333	0.010996	-0.012217	-0.045204
574	155.488037	0.303833	-0.235440	0.000000	-9.653040	-0.126866	-0.343284	0.596667	0.010996	-0.010996	-0.042761
575	155.746429	0.322266	-0.470880	0.117720	-9.535320	-0.170149	-0.350746	0.600000	0.004887	-0.002443	-0.048869
576	156.004822	0.260712	-0.588600	0.000000	-9.535320	-0.131343	-0.255224	0.711667	0.010996	-0.004887	-0.036652
577	156.263214	0.279144	-0.706320	0.000000	-9.299880	-0.105970	0.007463	0.706667	-0.036652	-0.009774	-0.113621
578	156.521637	0.297607	-0.470880	0.235440	-9.417600	-0.108955	0.220896	0.661667	-0.013439	-0.012217	-0.224798
579	156.780029	0.316040	-0.235440	0.117720	-9.770760	-0.076119	0.700000	0.803333	0.013439	-0.010996	-0.158825
580	157.038391	0.334442	-0.470880	0.117720	-9.770760	0.010448	0.982090	0.828333	0.013439	-0.010996	-0.079412
581	157.296875	0.272980	-0.588600	0.000000	-9.653040	0.147761	1.252239	0.536667	0.004887	-0.008552	-0.059865
582	157.555267	0.291412	-0.117720	0.000000	-9.535320	0.441791	1.271642	0.500000	0.019548	-0.012217	-0.043982
583	157.813721	0.309906	-0.353160	0.117720	-9.417600	-0.013433	0.765672	0.686667	0.008552	-0.009774	-0.102625
584	158.072205	0.328430	-0.353160	0.117720	-9.535320	-0.010448	0.171642	0.878333	0.007330	-0.009774	-0.035430
585	158.330688	0.266968	-0.470880	0.000000	-9.417600	0.088060	0.434328	0.760000	0.012217	-0.007330	-0.040317
586	158.589172	0.285492	-0.235440	0.000000	-9.417600	0.125373	0.682090	0.696667	0.002443	-0.013439	-0.053756
587	158.847626	0.303986	-0.470880	0.000000	-9.299880	0.201493	0.917910	0.685000	0.000000	-0.010996	0.045204
588	159.106079	0.322479	-0.470880	0.000000	-9.299880	0.314925	1.070149	0.595000	0.013439	-0.012217	0.036652
