# FOX Logger (IMU file)
# (c) INRIA 2013
## File created from file sensbiotk output
#
# File format:
# id	t	dt	ax	ay	az	mx	my	mz	gx	gy	gz
#
# Units:
#	Time: s
#	Acceleration: m.s^-2
#	Magnetic field: gauss
#	Rotation speed: rad.s^-1
#
1	7.554626	7.554626	4.826520	2.354400	-6.592320	-0.200000	-0.247761	0.596667	0.425162	-0.477697	0.293215
2	7.812408	0.257782	1.294920	0.588600	-8.358120	-0.056716	-0.202985	0.480000	-0.229685	-0.223577	0.061087
3	8.070221	0.257812	0.941760	0.235440	-8.593560	-0.052239	-0.213433	0.478333	-0.140499	-0.129503	-0.448375
4	8.328033	0.257812	1.059480	0.588600	-8.946720	0.014925	-0.232836	0.423333	0.342085	-0.245568	-0.101404
5	8.585815	0.257782	0.588600	0.824040	-9.888480	0.114925	-0.234328	0.368333	0.030543	0.028100	-0.008552
6	8.843567	0.257751	0.706320	1.412640	-8.475840	0.092537	-0.240299	0.403333	0.081856	-0.031765	-0.199142
7	9.101257	0.257690	0.353160	0.353160	-9.417600	0.117910	-0.182090	0.310000	0.878424	-0.586431	0.503353
8	9.359009	0.257751	-1.530360	-0.470880	-9.064440	0.168657	-0.137313	0.211667	0.013439	-0.026878	-0.120951
9	9.616760	0.257751	-1.648080	-0.706320	-10.006200	0.195522	-0.116418	0.161667	0.564439	-0.204029	-0.166155
10	9.874542	0.257782	-1.765800	-1.412640	-8.946720	0.189552	-0.117910	0.150000	-0.020769	-0.045204	-0.208916
11	10.132324	0.257782	-1.883520	-0.588600	-9.182160	0.195522	-0.120896	0.170000	0.025656	0.078191	0.300546
12	10.390167	0.257843	-1.530360	-0.235440	-9.417600	0.207463	-0.182090	0.235000	0.002443	-0.009774	-0.140499
13	10.647980	0.257812	-0.941760	-0.706320	-9.299880	0.200000	-0.182090	0.281667	0.008552	-0.008552	-0.041539
14	10.905792	0.257812	-1.177200	-0.117720	-8.593560	0.194030	-0.198507	0.266667	0.013439	-0.006109	-0.047647
15	11.163605	0.257812	-1.294920	0.117720	-9.535320	0.180597	-0.195522	0.278333	0.009774	0.002443	-0.046426
16	11.421448	0.257843	-0.706320	0.000000	-9.535320	0.150746	-0.214925	0.358333	-0.030543	-0.059865	-0.750143
17	11.679260	0.257812	-0.588600	-0.235440	-9.888480	0.137313	-0.229851	0.371667	0.009774	-0.013439	-0.043982
18	11.937073	0.257812	-0.941760	-0.941760	-8.475840	0.132836	-0.226866	0.370000	0.109956	-0.092852	-0.386067
19	12.194885	0.257812	-0.824040	-1.294920	-9.182160	0.137313	-0.213433	0.348333	0.117286	-0.007330	0.296881
20	12.452667	0.257782	-0.588600	-0.117720	-9.535320	0.131343	-0.201493	0.341667	0.178373	-0.014661	0.046426
21	12.710449	0.257782	-1.412640	-0.706320	-8.711280	0.114925	-0.182090	0.331667	0.403171	0.018326	0.040317
22	12.969147	0.258698	-1.177200	-1.412640	-9.299880	0.097015	-0.156716	0.300000	0.168599	-0.041539	-0.306654
23	13.226105	0.256958	-1.059480	-2.236680	-8.004960	0.070149	-0.126866	0.250000	-0.255342	0.423940	-0.084299
24	13.483856	0.257751	-0.706320	-2.472120	-8.711280	0.073134	-0.113433	0.225000	0.404393	0.001222	0.081856
25	13.741699	0.257843	-0.824040	-2.354400	-9.182160	0.082090	-0.108955	0.198333	0.492357	0.193033	0.000000
26	13.999542	0.257843	-0.235440	-2.825280	-8.946720	0.043284	-0.070149	0.210000	0.054978	-0.007330	0.211359
27	14.257385	0.257843	0.000000	-3.649320	-9.064440	0.035821	-0.073134	0.198333	1.354899	-0.377515	-0.189368
28	14.515198	0.257812	-0.117720	-4.708800	-7.887240	0.022388	-0.092537	0.163333	-1.350012	-0.113621	0.080634
29	14.772980	0.257782	-0.824040	-2.589840	-7.534080	0.089552	-0.144776	0.195000	0.432493	-0.134390	0.339641
30	15.030823	0.257843	-1.059480	-3.296160	-8.946720	0.064179	-0.126866	0.168333	0.020769	-0.017104	-0.090408
31	15.288757	0.257935	0.353160	-0.117720	-7.769520	0.107463	-0.126866	0.180000	-0.234572	-0.653626	0.403171
32	15.546539	0.257782	-1.412640	-0.824040	-8.711280	0.137313	-0.132836	0.140000	0.008552	0.204029	-0.037874
33	15.804382	0.257843	-2.001240	-0.353160	-9.417600	0.135821	-0.165672	0.156667	-0.135612	0.058643	-0.046426
34	16.062225	0.257843	-2.118960	0.000000	-8.829000	0.128358	-0.170149	0.193333	-0.083078	0.610865	-0.199142
35	16.320129	0.257904	-1.648080	0.470880	-9.653040	0.149254	-0.153731	0.193333	-0.498466	0.368963	0.120951
36	16.578003	0.257874	-0.706320	0.588600	-9.535320	0.152239	-0.167164	0.231667	-0.048869	-0.035430	0.084299
37	16.835785	0.257782	-1.177200	0.117720	-9.417600	0.170149	-0.173134	0.215000	0.001222	-0.004887	-0.017104
38	17.093628	0.257843	-1.177200	-0.353160	-9.299880	0.140299	-0.147761	0.211667	1.905900	-1.616349	0.184481
39	17.351471	0.257843	-5.179680	-1.177200	-6.121440	0.091045	-0.123881	0.181667	-0.195477	-0.365297	0.409280
40	17.609375	0.257904	-5.179680	1.059480	-6.827760	0.140299	-0.183582	0.246667	-0.040317	0.130725	0.128282
41	17.867249	0.257874	-5.297400	-2.354400	-8.358120	0.153731	-0.198507	0.280000	0.186925	0.312763	-0.123395
42	18.125153	0.257904	-3.884760	-5.532840	-9.653040	0.117910	-0.168657	0.308333	-0.102625	0.064752	-0.332311
43	18.383087	0.257935	-3.060720	-3.178440	-8.475840	0.095522	-0.174627	0.326667	-0.679282	0.642630	-0.034208
44	18.640961	0.257874	-0.470880	-0.706320	-8.711280	0.038806	-0.213433	0.440000	-0.323759	0.504575	0.111177
45	18.898865	0.257904	0.000000	-0.941760	-8.004960	0.001493	-0.226866	0.476667	0.157603	0.839329	-0.007330
46	19.156830	0.257965	0.353160	0.470880	-8.711280	-0.011940	-0.225373	0.483333	0.072082	-0.921185	-0.199142
47	19.414734	0.257904	-1.412640	-0.470880	-9.064440	0.020896	-0.208955	0.450000	-0.076969	-0.164934	-0.098960
48	19.672607	0.257874	0.353160	0.824040	-9.653040	0.010448	-0.222388	0.476667	0.037874	-0.030543	-0.025656
49	19.930511	0.257904	2.236680	3.060720	-14.597280	-0.010448	-0.188060	0.456667	-0.117286	-1.885130	0.423940
50	20.188416	0.257904	-0.941760	-2.354400	-8.475840	-0.005970	-0.119403	0.356667	-0.395841	0.461814	-0.260229
51	20.446381	0.257965	-0.353160	-2.236680	-8.240400	-0.049254	-0.105970	0.355000	0.026878	-0.722043	-1.811826
52	20.704346	0.257965	0.353160	-2.001240	-8.829000	-0.246269	-0.131343	0.348333	-0.295659	0.488692	-1.078788
53	20.962280	0.257935	1.765800	0.353160	-9.417600	-0.241791	-0.250746	0.353333	-0.436158	-0.037874	-0.795347
54	21.220184	0.257904	0.824040	3.884760	-10.241640	-0.129851	-0.377612	0.510000	0.715934	-0.614530	-0.335976
55	21.478149	0.257965	-1.177200	-0.706320	-9.888480	-0.167164	-0.337313	0.598333	0.001222	0.013439	-0.221133
56	21.736053	0.257904	-0.470880	0.117720	-9.535320	-0.192537	-0.334328	0.608333	0.013439	-0.009774	-0.039095
57	21.993958	0.257904	-0.470880	0.000000	-9.299880	-0.191045	-0.335821	0.610000	0.001222	-0.009774	0.052534
58	22.251862	0.257904	-0.353160	0.000000	-9.535320	-0.189552	-0.334328	0.608333	0.008552	-0.010996	-0.042761
59	22.509796	0.257935	-0.353160	-0.117720	-9.653040	-0.192537	-0.334328	0.605000	0.012217	-0.014661	-0.041539
60	22.767761	0.257965	-0.353160	0.000000	-9.417600	-0.191045	-0.334328	0.608333	0.010996	-0.012217	-0.037874
61	23.025696	0.257935	-0.470880	0.000000	-9.417600	-0.191045	-0.335821	0.610000	0.010996	-0.004887	-0.046426
62	23.283691	0.257996	-0.353160	0.000000	-9.417600	-0.189552	-0.335821	0.605000	0.015882	-0.008552	-0.042761
63	23.541718	0.258026	-0.353160	0.000000	-9.299880	-0.191045	-0.337313	0.608333	0.014661	-0.009774	-0.041539
64	23.799713	0.257996	-0.470880	0.000000	-9.064440	-0.191045	-0.332836	0.610000	0.006109	-0.010996	-0.041539
65	24.057617	0.257904	-0.470880	0.000000	-9.417600	-0.189552	-0.338806	0.608333	0.006109	-0.008552	-0.040317
66	24.315582	0.257965	-0.588600	0.000000	-9.535320	-0.189552	-0.334328	0.608333	0.014661	-0.013439	-0.046426
67	24.573547	0.257965	-0.470880	0.000000	-9.535320	-0.188060	-0.334328	0.608333	0.010996	-0.013439	-0.039095
68	24.831543	0.257996	-0.353160	0.000000	-9.535320	-0.189552	-0.332836	0.610000	0.009774	-0.010996	-0.035430
69	25.089447	0.257904	-0.470880	0.000000	-9.417600	-0.189552	-0.335821	0.608333	0.009774	-0.013439	-0.036652
70	25.347443	0.257996	-0.588600	-0.117720	-9.299880	-0.191045	-0.335821	0.608333	0.009774	-0.007330	-0.034208
71	25.605347	0.257904	-0.353160	0.000000	-9.064440	-0.189552	-0.334328	0.610000	0.014661	-0.008552	-0.041539
72	25.863312	0.257965	-0.588600	0.117720	-9.417600	-0.189552	-0.332836	0.606667	0.008552	-0.010996	-0.039095
73	26.121246	0.257935	-0.706320	0.117720	-9.417600	-0.189552	-0.337313	0.608333	0.006109	-0.009774	-0.041539
74	26.379242	0.257996	-0.470880	0.000000	-9.535320	-0.185075	-0.332836	0.608333	0.006109	-0.012217	-0.039095
75	26.637268	0.258026	-0.470880	0.000000	-9.535320	-0.189552	-0.332836	0.611667	0.009774	-0.010996	-0.046426
76	26.895294	0.258026	-0.470880	0.000000	-9.299880	-0.192537	-0.332836	0.611667	0.012217	-0.009774	-0.037874
77	27.153351	0.258057	-0.235440	-0.117720	-9.417600	-0.189552	-0.335821	0.606667	0.012217	-0.015882	-0.040317
78	27.411407	0.258057	-0.588600	0.000000	-9.417600	-0.189552	-0.334328	0.610000	0.015882	-0.010996	-0.041539
79	27.669434	0.258026	-0.470880	0.000000	-9.299880	-0.189552	-0.335821	0.610000	0.010996	-0.010996	-0.042761
80	27.927582	0.258148	-0.353160	-0.117720	-9.417600	-0.186567	-0.334328	0.611667	0.000000	-0.007330	-0.035430
81	28.185638	0.258057	-0.470880	0.000000	-9.417600	-0.188060	-0.334328	0.610000	0.012217	-0.012217	-0.043982
82	28.443604	0.257965	-0.588600	0.000000	-9.064440	-0.191045	-0.335821	0.610000	0.001222	-0.017104	-0.045204
83	28.701599	0.257996	-0.588600	0.000000	-9.299880	-0.186567	-0.334328	0.608333	0.007330	-0.015882	-0.041539
84	28.959656	0.258057	-0.470880	0.000000	-9.299880	-0.188060	-0.335821	0.608333	0.008552	-0.008552	-0.035430
85	29.217651	0.257996	-0.470880	0.000000	-9.299880	-0.189552	-0.334328	0.608333	0.013439	-0.009774	-0.040317
86	29.475708	0.258057	-0.588600	0.000000	-9.417600	-0.188060	-0.334328	0.608333	0.003665	-0.009774	-0.032987
87	29.733734	0.258026	-0.588600	0.000000	-9.417600	-0.189552	-0.334328	0.610000	0.007330	-0.010996	-0.041539
88	29.991760	0.258026	-0.353160	0.000000	-9.299880	-0.189552	-0.337313	0.611667	0.009774	-0.007330	-0.042761
89	30.249786	0.258026	-0.706320	0.117720	-9.299880	-0.189552	-0.332836	0.608333	0.003665	-0.012217	-0.045204
90	30.507782	0.257996	-0.470880	0.000000	-9.535320	-0.189552	-0.335821	0.606667	0.010996	-0.012217	-0.046426
91	30.765808	0.258026	-0.706320	0.000000	-9.535320	-0.189552	-0.335821	0.606667	0.010996	-0.008552	-0.042761
92	31.023804	0.257996	-0.353160	-0.117720	-9.299880	-0.189552	-0.335821	0.605000	0.008552	-0.013439	-0.029322
93	31.281799	0.257996	-0.353160	0.000000	-9.299880	-0.188060	-0.335821	0.610000	0.009774	-0.013439	-0.042761
94	31.539825	0.258026	-0.588600	-0.117720	-9.417600	-0.191045	-0.332836	0.611667	0.012217	-0.008552	-0.041539
95	31.797760	0.257935	-0.470880	0.000000	-9.417600	-0.191045	-0.334328	0.606667	0.010996	-0.014661	-0.042761
96	32.055756	0.257996	-0.470880	0.000000	-9.417600	-0.189552	-0.329851	0.611667	0.009774	-0.014661	-0.037874
97	32.313751	0.257996	-0.470880	0.117720	-9.417600	-0.191045	-0.335821	0.608333	0.015882	-0.009774	-0.039095
98	32.571777	0.258026	-0.353160	0.000000	-9.417600	-0.189552	-0.332836	0.608333	0.008552	-0.014661	-0.047647
99	32.829803	0.258026	-0.470880	0.000000	-9.417600	-0.188060	-0.337313	0.608333	0.009774	-0.013439	-0.040317
100	33.087830	0.258026	-0.470880	0.117720	-9.535320	-0.191045	-0.334328	0.610000	0.007330	-0.008552	-0.039095
101	33.345795	0.257965	-0.353160	0.000000	-9.417600	-0.188060	-0.335821	0.610000	0.012217	-0.012217	-0.039095
102	33.603760	0.257965	-0.470880	0.000000	-9.417600	-0.189552	-0.332836	0.608333	0.010996	-0.008552	-0.036652
103	33.861755	0.257996	-0.353160	0.000000	-9.299880	-0.189552	-0.337313	0.606667	0.012217	-0.012217	-0.040317
104	34.119751	0.257996	-0.353160	0.000000	-9.535320	-0.191045	-0.334328	0.606667	0.009774	-0.007330	-0.041539
105	34.377808	0.258057	-0.470880	0.000000	-9.299880	-0.189552	-0.332836	0.610000	0.010996	-0.010996	-0.040317
106	34.635803	0.257996	-0.470880	0.117720	-9.535320	-0.189552	-0.334328	0.608333	0.013439	-0.007330	-0.040317
107	34.893768	0.257965	-0.470880	0.000000	-9.299880	-0.191045	-0.334328	0.606667	0.008552	-0.010996	-0.036652
108	35.151764	0.257996	-0.588600	0.000000	-9.417600	-0.188060	-0.335821	0.606667	0.009774	-0.007330	-0.041539
109	35.409790	0.258026	-0.470880	0.000000	-9.770760	-0.189552	-0.337313	0.606667	0.009774	-0.009774	-0.046426
110	35.667786	0.257996	-0.470880	-0.117720	-9.653040	-0.189552	-0.334328	0.605000	0.009774	-0.012217	-0.040317
111	35.925781	0.257996	-0.588600	0.000000	-9.535320	-0.191045	-0.334328	0.610000	0.021991	-0.007330	-0.043982
112	36.183807	0.258026	-0.353160	0.000000	-9.417600	-0.191045	-0.335821	0.608333	0.010996	-0.009774	-0.040317
113	36.441833	0.258026	-0.353160	0.000000	-9.182160	-0.191045	-0.332836	0.608333	0.003665	-0.006109	-0.039095
114	36.699829	0.257996	-0.470880	0.000000	-9.417600	-0.189552	-0.332836	0.608333	0.008552	-0.017104	-0.040317
115	36.957825	0.257996	-0.470880	0.000000	-9.299880	-0.188060	-0.337313	0.606667	0.012217	-0.012217	-0.045204
116	37.215881	0.258057	-0.353160	0.000000	-9.535320	-0.188060	-0.335821	0.610000	0.012217	-0.014661	-0.040317
117	37.473907	0.258026	-0.235440	0.117720	-9.417600	-0.189552	-0.334328	0.606667	0.015882	-0.008552	-0.047647
118	37.731873	0.257965	-0.470880	0.117720	-9.417600	-0.189552	-0.334328	0.608333	0.007330	-0.012217	-0.037874
119	37.989838	0.257965	-0.353160	0.000000	-9.299880	-0.191045	-0.335821	0.608333	0.013439	-0.008552	-0.041539
120	38.247833	0.257996	-0.470880	0.000000	-9.417600	-0.189552	-0.337313	0.608333	0.017104	-0.006109	-0.043982
121	38.505859	0.258026	-0.353160	0.000000	-9.770760	-0.189552	-0.334328	0.608333	0.010996	-0.007330	-0.041539
122	38.763885	0.258026	-0.588600	-0.117720	-9.299880	-0.188060	-0.332836	0.608333	0.007330	-0.012217	-0.039095
123	39.021942	0.258057	-0.588600	-0.117720	-9.182160	-0.189552	-0.332836	0.610000	0.004887	-0.012217	-0.036652
124	39.279968	0.258026	-0.353160	0.000000	-9.417600	-0.186567	-0.334328	0.606667	0.012217	-0.010996	-0.041539
125	39.538055	0.258087	-0.470880	0.000000	-9.535320	-0.189552	-0.332836	0.608333	0.014661	-0.012217	-0.047647
126	39.796112	0.258057	-0.470880	-0.117720	-9.535320	-0.188060	-0.332836	0.608333	0.009774	-0.010996	-0.042761
127	40.054230	0.258118	-0.470880	0.000000	-9.182160	-0.191045	-0.332836	0.608333	0.009774	-0.013439	-0.037874
128	40.312378	0.258148	-0.470880	0.000000	-9.535320	-0.189552	-0.332836	0.608333	0.008552	-0.008552	-0.045204
129	40.570465	0.258087	-0.470880	0.000000	-9.299880	-0.191045	-0.332836	0.610000	0.010996	-0.008552	-0.041539
130	40.828461	0.257996	-0.470880	0.000000	-9.417600	-0.186567	-0.334328	0.606667	0.010996	-0.014661	-0.045204
131	41.086487	0.258026	-0.470880	0.000000	-9.299880	-0.188060	-0.331343	0.605000	0.003665	-0.010996	-0.040317
132	41.344574	0.258087	-0.706320	0.000000	-9.535320	-0.189552	-0.337313	0.608333	0.008552	-0.010996	-0.036652
133	41.602692	0.258118	-0.588600	-0.117720	-9.417600	-0.188060	-0.332836	0.608333	0.007330	-0.009774	-0.042761
134	41.860748	0.258057	-0.470880	0.000000	-9.299880	-0.188060	-0.332836	0.608333	0.013439	-0.012217	-0.037874
135	42.118835	0.258087	-0.470880	0.000000	-9.417600	-0.191045	-0.334328	0.610000	0.015882	-0.010996	-0.041539
136	42.376923	0.258087	0.117720	-0.588600	-9.535320	-0.192537	-0.337313	0.610000	0.036652	-0.028100	-1.781283
137	42.634979	0.258057	0.000000	-1.648080	-9.182160	-0.202985	-0.320896	0.601667	0.178373	-0.048869	-0.259007
138	42.893036	0.258057	0.000000	-3.060720	-8.711280	-0.202985	-0.249254	0.573333	0.514349	-0.107512	-0.296881
139	43.151123	0.258087	-0.235440	-3.413880	-8.946720	-0.204478	-0.185075	0.540000	0.630413	0.222355	-0.119730
140	43.409119	0.257996	-0.117720	-7.298640	-5.532840	-0.205970	-0.070149	0.380000	1.022588	-0.360410	-0.179594
141	43.667175	0.258057	-0.588600	-7.769520	3.531600	-0.213433	-0.111940	0.045000	0.007330	0.026878	-0.032987
142	43.925232	0.258057	-0.235440	-5.179680	8.240400	-0.204478	-0.204478	-0.121667	0.376293	0.627969	-0.714712
143	44.183258	0.258026	-0.353160	-2.943000	8.358120	-0.189552	-0.311940	-0.171667	4.197866	-0.213803	0.626748
144	44.441315	0.258057	-0.588600	0.000000	10.241640	-0.185075	-0.449254	-0.186667	0.002443	-0.007330	0.061087
145	44.699341	0.258026	-0.588600	0.353160	10.477080	-0.185075	-0.468657	-0.188333	0.014661	-0.014661	0.057421
146	44.957458	0.258118	-0.470880	0.353160	10.359360	-0.185075	-0.467164	-0.185000	0.009774	-0.007330	0.057421
147	45.215546	0.258087	-0.470880	0.470880	10.359360	-0.182090	-0.468657	-0.185000	0.012217	-0.028100	-0.696386
148	45.473602	0.258057	-0.588600	0.235440	10.477080	-0.171642	-0.477612	-0.181667	0.010996	-0.008552	0.065973
149	45.731689	0.258087	-0.353160	0.235440	10.594800	-0.174627	-0.476119	-0.186667	0.004887	-0.013439	0.056200
150	45.989777	0.258087	-0.470880	0.353160	10.477080	-0.171642	-0.476119	-0.183333	0.013439	-0.015882	0.058643
151	46.247833	0.258057	-0.353160	0.353160	10.359360	-0.173134	-0.476119	-0.185000	0.006109	-0.015882	0.061087
152	46.505920	0.258087	-0.353160	0.353160	10.359360	-0.174627	-0.476119	-0.183333	0.000000	-0.009774	0.063530
153	46.763977	0.258057	-0.470880	0.353160	10.359360	-0.174627	-0.476119	-0.185000	0.006109	-0.007330	0.061087
154	47.022034	0.258057	-0.470880	0.353160	10.477080	-0.176119	-0.476119	-0.183333	0.008552	-0.002443	0.064752
155	47.280060	0.258026	-0.470880	0.117720	10.477080	-0.173134	-0.477612	-0.186667	0.008552	-0.003665	0.061087
156	47.538116	0.258057	-0.588600	0.235440	10.477080	-0.174627	-0.476119	-0.185000	0.017104	-0.006109	0.065973
157	47.796204	0.258087	-0.470880	0.470880	10.477080	-0.173134	-0.479104	-0.183333	0.007330	-0.007330	0.064752
158	48.054260	0.258057	-0.588600	0.235440	10.477080	-0.174627	-0.479104	-0.181667	0.006109	-0.009774	0.062308
159	48.312378	0.258118	-0.470880	0.353160	10.477080	-0.174627	-0.479104	-0.185000	0.010996	-0.010996	0.061087
160	48.570435	0.258057	-0.470880	0.470880	10.359360	-0.174627	-0.477612	-0.181667	0.014661	-0.003665	0.058643
161	48.828583	0.258148	-0.353160	0.117720	10.359360	-0.171642	-0.482090	-0.181667	0.014661	-0.010996	0.064752
162	49.086670	0.258087	-0.470880	0.235440	10.477080	-0.173134	-0.474627	-0.183333	0.008552	-0.008552	0.065973
163	49.344788	0.258118	-0.470880	0.353160	10.477080	-0.174627	-0.477612	-0.185000	0.008552	-0.013439	0.063530
164	49.602997	0.258209	-0.353160	0.117720	10.477080	-0.174627	-0.480597	-0.181667	0.008552	-0.006109	0.061087
165	49.860901	0.257904	-0.353160	0.353160	10.477080	-0.173134	-0.479104	-0.181667	0.009774	-0.007330	0.057421
166	50.118988	0.258087	-0.235440	0.235440	10.359360	-0.177612	-0.479104	-0.183333	0.012217	-0.009774	0.056200
167	50.377106	0.258118	-0.588600	0.235440	10.477080	-0.176119	-0.477612	-0.183333	0.009774	-0.004887	0.063530
168	50.635193	0.258087	-0.588600	0.117720	10.477080	-0.174627	-0.477612	-0.181667	0.008552	-0.009774	0.063530
169	50.893311	0.258118	-0.706320	0.235440	10.359360	-0.173134	-0.477612	-0.183333	0.006109	-0.009774	0.056200
170	51.151367	0.258057	-0.353160	0.470880	10.359360	-0.174627	-0.480597	-0.185000	0.009774	-0.004887	0.062308
171	51.409454	0.258087	-0.470880	0.117720	10.477080	-0.174627	-0.480597	-0.185000	0.008552	-0.012217	0.063530
172	51.667511	0.258057	-0.588600	0.353160	10.477080	-0.173134	-0.477612	-0.183333	0.010996	-0.007330	0.061087
173	51.925629	0.258118	-0.470880	0.235440	10.359360	-0.176119	-0.476119	-0.185000	0.003665	-0.002443	0.064752
174	52.183746	0.258118	-0.235440	0.353160	10.359360	-0.174627	-0.476119	-0.183333	0.012217	-0.013439	0.059865
175	52.441864	0.258118	-0.470880	0.235440	10.241640	-0.173134	-0.479104	-0.183333	0.014661	-0.004887	0.059865
176	52.699921	0.258057	-0.588600	0.117720	10.477080	-0.174627	-0.477612	-0.183333	0.018326	-0.010996	0.061087
177	52.958008	0.258087	-0.470880	0.353160	10.477080	-0.173134	-0.480597	-0.183333	0.004887	-0.013439	0.056200
178	53.216156	0.258148	-0.353160	0.353160	10.359360	-0.176119	-0.482090	-0.180000	0.012217	-0.012217	0.067195
179	53.474274	0.258118	-0.353160	0.353160	10.359360	-0.174627	-0.477612	-0.181667	0.012217	-0.007330	0.061087
180	53.732361	0.258087	-0.470880	0.353160	10.477080	-0.176119	-0.485075	-0.183333	0.013439	-0.010996	0.059865
181	53.990509	0.258148	-0.353160	0.117720	10.477080	-0.171642	-0.477612	-0.183333	0.012217	-0.004887	0.061087
182	54.248596	0.258087	-0.235440	0.353160	10.477080	-0.174627	-0.477612	-0.181667	0.010996	-0.009774	0.063530
183	54.506653	0.258057	-0.353160	0.470880	10.477080	-0.176119	-0.477612	-0.183333	0.004887	-0.004887	0.062308
184	54.764801	0.258148	-0.470880	0.353160	10.241640	-0.173134	-0.477612	-0.185000	0.008552	-0.013439	0.062308
185	55.022888	0.258087	-0.353160	0.353160	10.359360	-0.173134	-0.477612	-0.181667	0.006109	-0.007330	0.061087
186	55.282074	0.259186	-0.470880	0.470880	10.477080	-0.174627	-0.477612	-0.181667	0.007330	-0.008552	0.062308
187	55.539124	0.257050	-0.470880	0.235440	10.477080	-0.174627	-0.480597	-0.181667	0.009774	-0.006109	0.059865
188	55.797302	0.258179	-0.470880	0.353160	10.477080	-0.174627	-0.477612	-0.183333	0.010996	-0.004887	0.054978
189	56.055420	0.258118	-0.470880	0.235440	10.477080	-0.171642	-0.479104	-0.183333	0.012217	-0.008552	0.068417
190	56.313507	0.258087	-0.588600	0.353160	10.359360	-0.173134	-0.477612	-0.183333	0.006109	-0.007330	0.067195
191	56.571625	0.258118	-0.470880	0.235440	10.477080	-0.173134	-0.479104	-0.185000	0.012217	-0.008552	0.061087
192	56.829742	0.258118	-0.588600	0.353160	10.477080	-0.176119	-0.477612	-0.183333	0.013439	-0.008552	0.065973
193	57.087891	0.258148	-0.470880	0.235440	10.477080	-0.173134	-0.479104	-0.183333	0.006109	-0.009774	0.056200
194	57.346039	0.258148	-0.588600	0.353160	10.477080	-0.173134	-0.477612	-0.183333	0.010996	-0.008552	0.056200
195	57.604126	0.258087	-0.353160	0.117720	10.477080	-0.174627	-0.476119	-0.183333	0.002443	-0.008552	0.059865
196	57.862213	0.258087	-0.588600	0.353160	10.359360	-0.174627	-0.477612	-0.183333	0.015882	-0.008552	0.057421
197	58.120392	0.258179	-0.470880	0.353160	10.359360	-0.171642	-0.476119	-0.185000	0.007330	-0.009774	0.061087
198	58.378540	0.258148	-0.588600	0.353160	10.477080	-0.176119	-0.477612	-0.183333	0.001222	-0.007330	0.059865
199	58.636597	0.258057	-0.588600	0.470880	10.359360	-0.171642	-0.479104	-0.181667	0.010996	-0.007330	0.064752
200	58.894653	0.258057	-0.353160	0.353160	10.594800	-0.176119	-0.477612	-0.181667	0.013439	-0.007330	0.062308
201	59.152771	0.258118	-0.353160	0.235440	10.477080	-0.176119	-0.477612	-0.183333	0.008552	-0.008552	0.059865
202	59.410858	0.258087	-0.353160	0.353160	10.359360	-0.173134	-0.476119	-0.181667	0.009774	-0.003665	0.059865
203	59.668945	0.258087	-0.588600	0.235440	10.477080	-0.174627	-0.479104	-0.181667	0.007330	-0.010996	0.061087
204	59.927002	0.258057	-0.353160	0.353160	10.359360	-0.174627	-0.477612	-0.185000	0.010996	-0.009774	0.063530
205	60.185120	0.258118	-0.235440	0.235440	10.359360	-0.174627	-0.477612	-0.183333	0.013439	-0.004887	0.058643
206	60.443268	0.258148	-0.588600	0.470880	10.477080	-0.173134	-0.477612	-0.183333	0.008552	-0.010996	0.063530
207	60.701416	0.258148	-0.353160	0.235440	10.359360	-0.174627	-0.476119	-0.183333	0.006109	-0.010996	0.067195
208	60.959564	0.258148	-0.353160	0.235440	10.477080	-0.174627	-0.479104	-0.185000	0.007330	-0.010996	0.061087
209	61.217682	0.258118	-0.470880	0.353160	10.477080	-0.174627	-0.477612	-0.183333	0.010996	-0.008552	0.064752
210	61.475739	0.258057	-0.353160	0.235440	10.359360	-0.174627	-0.477612	-0.181667	0.012217	-0.008552	0.062308
211	61.733887	0.258148	-2.354400	-0.235440	10.123920	-0.125373	-0.480597	-0.183333	0.394619	2.074498	-0.438601
212	61.991974	0.258087	-8.711280	0.235440	4.355640	0.176119	-0.501493	0.056667	0.459371	1.302365	-0.522901
213	62.250122	0.258148	-10.241640	-1.059480	-1.294920	0.211940	-0.508955	0.186667	-0.028100	-0.024435	0.043982
214	62.508301	0.258179	-9.535320	0.588600	0.235440	0.207463	-0.541791	0.218333	-0.259007	-0.134390	0.073304
215	62.766388	0.258087	-10.123920	1.530360	-0.235440	0.204478	-0.555224	0.178333	-0.062308	0.163712	-0.064752
216	63.024536	0.258148	-9.888480	1.765800	-0.353160	0.211940	-0.564179	0.175000	-0.188146	-0.096517	0.179594
217	63.282715	0.258179	-10.006200	1.765800	0.000000	0.216418	-0.528358	0.148333	-0.219911	-0.144164	-0.272446
218	63.540833	0.258118	-10.123920	-0.470880	-0.588600	0.228358	-0.479104	0.166667	0.112399	0.106291	0.086743
219	63.798950	0.258118	-10.241640	-0.117720	-0.235440	0.226866	-0.483582	0.183333	-0.009774	-0.271224	0.018326
220	64.057129	0.258179	-10.241640	-0.588600	-0.588600	0.222388	-0.488060	0.166667	0.062308	-0.202807	0.004887
221	64.315308	0.258179	-10.123920	-0.588600	0.000000	0.223881	-0.479104	0.156667	-0.106291	-0.006109	-0.007330
222	64.573486	0.258179	-10.123920	-0.470880	0.117720	0.223881	-0.477612	0.155000	-0.025656	0.028100	0.054978
223	64.831665	0.258179	-10.241640	-0.235440	-0.353160	0.220896	-0.482090	0.156667	-0.039095	-0.023213	0.000000
224	65.089722	0.258057	-10.006200	-0.235440	-0.117720	0.220896	-0.477612	0.160000	-0.023213	-0.050091	0.020769
225	65.347809	0.258087	-10.123920	-0.353160	-0.235440	0.223881	-0.482090	0.158333	-0.025656	-0.039095	0.015882
226	65.605896	0.258087	-10.241640	-0.353160	-0.117720	0.225373	-0.483582	0.161667	-0.025656	0.008552	0.002443
227	65.864014	0.258118	-10.006200	-0.235440	-0.235440	0.223881	-0.485075	0.166667	-0.035430	0.023213	-0.012217
228	66.122162	0.258148	-10.006200	-0.470880	-0.117720	0.223881	-0.483582	0.166667	0.004887	0.232129	-0.024435
229	66.380371	0.258209	-10.123920	-0.235440	-0.941760	0.220896	-0.488060	0.190000	0.061087	0.037874	0.024435
230	66.638580	0.258209	-9.888480	-0.588600	-1.294920	0.226866	-0.479104	0.191667	0.052534	-0.163712	-0.048869
231	66.896698	0.258118	-9.888480	-1.059480	-0.824040	0.225373	-0.479104	0.180000	-0.091630	0.234572	0.047647
232	67.154816	0.258118	-10.241640	-0.470880	-0.588600	0.222388	-0.482090	0.173333	-0.051313	-0.001222	-0.001222
233	67.412933	0.258118	-10.006200	-0.706320	-1.059480	0.225373	-0.480597	0.185000	-0.069639	0.054978	0.004887
234	67.671112	0.258179	-10.123920	-0.470880	-1.294920	0.226866	-0.480597	0.186667	-0.052534	0.008552	-0.013439
235	67.929260	0.258148	-10.123920	-0.706320	-1.059480	0.223881	-0.480597	0.186667	-0.042761	-0.013439	-0.008552
236	68.187439	0.258179	-10.123920	-0.588600	-0.824040	0.225373	-0.482090	0.183333	-0.040317	-0.019548	-0.001222
237	68.445648	0.258209	-10.123920	-0.470880	-1.059480	0.225373	-0.482090	0.185000	-0.037874	-0.002443	-0.001222
238	68.703796	0.258148	-10.006200	-0.824040	-1.294920	0.226866	-0.479104	0.186667	-0.028100	-0.003665	-0.007330
239	68.961975	0.258179	-10.123920	-0.588600	-1.059480	0.222388	-0.480597	0.190000	-0.040317	-0.018326	-0.003665
240	69.220154	0.258179	-10.123920	-0.588600	-1.059480	0.225373	-0.480597	0.191667	-0.035430	-0.014661	-0.002443
241	69.478333	0.258179	-9.888480	-0.470880	-1.059480	0.223881	-0.480597	0.188333	-0.032987	-0.030543	0.000000
242	69.736542	0.258209	-10.006200	-0.706320	-0.941760	0.223881	-0.482090	0.186667	-0.035430	-0.012217	-0.001222
243	69.994781	0.258240	-10.123920	-0.588600	-0.824040	0.223881	-0.479104	0.188333	-0.036652	-0.018326	0.001222
244	70.252930	0.258148	-10.006200	-0.824040	-1.059480	0.222388	-0.482090	0.193333	-0.020769	-0.026878	-0.003665
245	70.511047	0.258118	-10.006200	-0.824040	-1.059480	0.223881	-0.482090	0.190000	-0.034208	-0.003665	0.002443
246	70.769104	0.258057	-10.006200	-0.706320	-1.059480	0.225373	-0.483582	0.186667	-0.037874	-0.014661	0.004887
247	71.027252	0.258148	-10.006200	-0.706320	-1.059480	0.225373	-0.480597	0.190000	-0.031765	-0.014661	0.009774
248	71.285431	0.258179	-9.888480	-0.588600	-1.059480	0.223881	-0.479104	0.193333	-0.026878	-0.008552	0.002443
249	71.543579	0.258148	-10.123920	-0.824040	-1.177200	0.222388	-0.480597	0.190000	-0.047647	-0.002443	-0.001222
250	71.801727	0.258148	-10.006200	-0.706320	-1.177200	0.223881	-0.482090	0.190000	-0.041539	-0.002443	0.001222
251	72.059845	0.258118	-9.888480	-0.824040	-1.177200	0.223881	-0.483582	0.193333	-0.037874	-0.009774	0.001222
252	72.317932	0.258087	-9.888480	-0.470880	-1.177200	0.223881	-0.483582	0.193333	-0.043982	-0.007330	0.000000
253	72.576019	0.258087	-10.123920	-0.706320	-1.177200	0.226866	-0.480597	0.196667	-0.037874	-0.021991	0.001222
254	72.834137	0.258118	-10.123920	-0.706320	-1.059480	0.225373	-0.483582	0.195000	-0.028100	-0.031765	0.008552
255	73.092316	0.258179	-10.006200	-0.706320	-1.177200	0.223881	-0.482090	0.193333	-0.037874	-0.156382	0.001222
256	73.350433	0.258118	-10.006200	-0.588600	-1.177200	0.225373	-0.480597	0.198333	-0.034208	-0.021991	0.009774
257	73.608551	0.258118	-10.006200	-0.941760	-1.294920	0.222388	-0.482090	0.198333	-0.034208	-0.015882	0.002443
258	73.866730	0.258179	-10.123920	-0.588600	-0.941760	0.225373	-0.480597	0.196667	-0.048869	0.004887	0.001222
259	74.124878	0.258148	-9.888480	-0.470880	-1.177200	0.225373	-0.485075	0.196667	-0.042761	0.000000	-0.007330
260	74.382965	0.258087	-10.006200	-0.588600	-1.294920	0.223881	-0.482090	0.200000	-0.045204	-0.009774	-0.008552
261	74.641113	0.258148	-10.123920	-0.588600	-1.294920	0.225373	-0.482090	0.200000	-0.042761	-0.014661	0.002443
262	74.899261	0.258148	-10.006200	-0.588600	-1.412640	0.223881	-0.482090	0.200000	-0.039095	-0.010996	0.003665
263	75.157379	0.258118	-10.006200	-0.588600	-1.177200	0.220896	-0.483582	0.196667	-0.031765	-0.001222	-0.003665
264	75.415497	0.258118	-10.006200	-0.470880	-1.294920	0.223881	-0.485075	0.195000	-0.037874	-0.030543	-0.003665
265	75.673645	0.258148	-10.006200	-0.588600	-1.294920	0.222388	-0.480597	0.198333	-0.037874	-0.013439	0.006109
266	75.931793	0.258148	-10.123920	-0.824040	-1.177200	0.223881	-0.483582	0.198333	-0.041539	-0.014661	0.006109
267	76.189941	0.258148	-10.123920	-0.706320	-1.294920	0.225373	-0.483582	0.196667	-0.037874	-0.020769	-0.002443
268	76.448059	0.258118	-10.006200	-0.588600	-1.177200	0.225373	-0.480597	0.198333	-0.037874	-0.018326	-0.002443
269	76.706207	0.258148	-10.006200	-0.588600	-1.177200	0.222388	-0.482090	0.203333	-0.040317	-0.010996	-0.001222
270	76.964325	0.258118	-9.888480	-0.824040	-1.177200	0.223881	-0.480597	0.201667	-0.034208	-0.010996	-0.004887
271	77.222443	0.258118	-10.123920	-0.470880	-1.177200	0.223881	-0.480597	0.198333	-0.043982	-0.018326	-0.006109
272	77.480591	0.258148	-10.123920	-0.588600	-1.294920	0.222388	-0.482090	0.198333	-0.034208	-0.018326	-0.001222
273	77.738708	0.258118	-10.006200	-0.706320	-1.294920	0.223881	-0.483582	0.198333	-0.037874	-0.019548	0.002443
274	77.996857	0.258148	-10.006200	-0.824040	-1.294920	0.223881	-0.479104	0.201667	-0.041539	-0.026878	0.002443
275	78.255005	0.258148	-10.006200	-0.588600	-1.177200	0.225373	-0.482090	0.200000	-0.036652	-0.003665	-0.002443
276	78.513153	0.258148	-10.006200	-0.706320	-1.177200	0.222388	-0.479104	0.198333	-0.039095	-0.010996	-0.002443
277	78.771393	0.258240	-10.123920	-0.588600	-1.177200	0.223881	-0.482090	0.198333	-0.046426	-0.004887	-0.004887
278	79.029602	0.258209	-10.123920	-0.588600	-1.294920	0.222388	-0.482090	0.198333	-0.036652	-0.018326	0.007330
279	79.287842	0.258240	-9.888480	-0.588600	-1.059480	0.222388	-0.480597	0.198333	-0.040317	-0.014661	-0.002443
280	79.546021	0.258179	-10.123920	-0.588600	-1.412640	0.223881	-0.477612	0.198333	-0.032987	-0.013439	-0.003665
281	79.804199	0.258179	-9.888480	-0.941760	-1.294920	0.223881	-0.477612	0.196667	-0.034208	-0.014661	-0.003665
282	80.062378	0.258179	-10.006200	-0.588600	-1.294920	0.222388	-0.479104	0.200000	-0.042761	-0.006109	-0.003665
283	80.320618	0.258240	-10.006200	-0.824040	-1.294920	0.220896	-0.480597	0.198333	-0.041539	-0.009774	-0.006109
284	80.578827	0.258209	-10.123920	-0.941760	-1.412640	0.223881	-0.479104	0.196667	-0.035430	0.007330	0.009774
285	80.837036	0.258209	-10.123920	-0.706320	-1.177200	0.222388	-0.482090	0.200000	-0.046426	-0.004887	0.006109
286	81.095215	0.258179	-10.006200	-0.706320	-1.412640	0.222388	-0.483582	0.198333	-0.051313	-0.017104	0.003665
287	81.353394	0.258179	-9.888480	-0.941760	-1.059480	0.222388	-0.483582	0.196667	-0.036652	-0.023213	0.007330
288	81.611572	0.258179	-10.006200	-0.824040	-1.059480	0.226866	-0.482090	0.196667	-0.039095	-0.018326	-0.001222
289	81.869751	0.258179	-10.006200	-0.470880	-1.412640	0.223881	-0.483582	0.196667	-0.034208	-0.009774	0.003665
290	82.127930	0.258179	-9.888480	-0.824040	-1.177200	0.222388	-0.479104	0.196667	-0.040317	-0.029322	0.000000
291	82.386169	0.258240	-10.123920	-0.706320	-1.294920	0.222388	-0.477612	0.196667	-0.035430	-0.024435	-0.004887
292	82.644379	0.258209	-10.241640	-0.824040	-1.294920	0.225373	-0.480597	0.196667	-0.053756	-0.012217	0.000000
293	82.902588	0.258209	-10.241640	-0.824040	-1.177200	0.225373	-0.477612	0.198333	-0.047647	-0.020769	0.014661
294	83.160767	0.258179	-9.888480	-0.824040	-1.294920	0.223881	-0.479104	0.196667	-0.035430	-0.010996	-0.001222
