# FOX Logger (IMU file)
# (c) INRIA 2011-2014
# File created from file sensbiotk output
#
# File format:
# id	t	dt	ax	ay	az	mx	my	mz	gx	gy	gz
#
# Units:
#	Time: s
#\Acceleration: m.s^-2
#\Magneto: gauss
#\Gyrometer: rad/s
#
1	0.013519	0.013519	-0.271365	-0.166906	-9.970275	-0.576119	0.026866	-0.316667	0.004546	0.008552	-0.011934
2	0.018519	0.005000	-0.274680	-0.156960	-10.065393	-0.576232	0.027092	-0.316667	0.016073	0.015177	-0.011661
3	0.023519	0.005000	-0.304160	-0.156960	-10.079800	-0.576345	0.027318	-0.316667	0.022823	0.014998	-0.010826
4	0.028519	0.005000	-0.313920	-0.229538	-10.023907	-0.576458	0.027544	-0.316667	0.016549	0.020524	-0.023141
5	0.033519	0.005000	-0.241900	-0.169880	-10.019120	-0.576571	0.027770	-0.316667	0.024700	0.017929	-0.006426
6	0.038519	0.005000	-0.313920	-0.267210	-10.060380	-0.576684	0.027995	-0.316667	0.005464	0.014596	-0.006651
7	0.043519	0.005000	-0.204321	-0.235440	-10.179402	-0.576797	0.028221	-0.316667	0.005591	0.016393	-0.016317
8	0.048519	0.005000	-0.313920	-0.235440	-10.054487	-0.576910	0.028447	-0.316667	0.011020	0.011965	-0.009798
9	0.053519	0.005000	-0.313920	-0.284749	-10.026339	-0.577023	0.028673	-0.316667	0.007162	0.014268	-0.005598
10	0.058519	0.005000	-0.274680	-0.274680	-10.016943	-0.577136	0.028899	-0.316667	0.010071	0.022947	-0.010863
11	0.063519	0.005000	-0.263046	-0.341526	-10.033806	-0.577249	0.029125	-0.316667	0.000152	0.017743	-0.013990
12	0.068519	0.005000	-0.274680	-0.340503	-10.084680	-0.577362	0.029351	-0.316667	0.000589	0.013607	-0.005055
13	0.073519	0.005000	-0.262798	-0.300241	-10.071001	-0.577475	0.029577	-0.316667	-0.008637	0.013419	-0.002223
14	0.078519	0.005000	-0.338939	-0.313920	-10.020421	-0.577588	0.029803	-0.316667	-0.010374	0.012898	-0.009630
15	0.083519	0.005000	-0.281171	-0.313920	-9.936473	-0.577434	0.029141	-0.316964	-0.033849	0.003230	-0.001059
16	0.088519	0.005000	-0.242148	-0.228732	-10.075122	-0.577208	0.028237	-0.317343	-0.028821	0.008566	-0.022449
17	0.093519	0.005000	-0.297105	-0.179385	-10.034220	-0.576982	0.027332	-0.317722	-0.012873	0.003798	-0.008224
18	0.098519	0.005000	-0.292511	-0.256849	-10.027609	-0.576756	0.026428	-0.318100	-0.011288	0.007793	-0.012107
19	0.103519	0.005000	-0.254293	-0.235440	-10.025053	-0.576530	0.025524	-0.318479	-0.012914	0.015235	-0.007612
20	0.108519	0.005000	-0.195782	-0.313920	-9.967378	-0.576304	0.024620	-0.318857	-0.010267	0.004276	-0.001151
21	0.113519	0.005000	-0.196200	-0.237067	-9.966960	-0.576078	0.023716	-0.319236	-0.022429	0.019887	-0.013260
22	0.118519	0.005000	-0.274680	-0.196200	-9.966960	-0.575852	0.022812	-0.319614	-0.031913	0.022104	-0.011632
23	0.123519	0.005000	-0.235440	-0.196200	-10.006200	-0.575626	0.021908	-0.319993	-0.029376	0.015649	-0.015810
24	0.128519	0.005000	-0.251660	-0.251660	-10.061660	-0.575400	0.021004	-0.320371	-0.022592	0.008732	-0.009558
25	0.133519	0.005000	-0.265834	-0.229088	-10.030243	-0.575174	0.020100	-0.320750	-0.019096	0.009999	-0.003293
26	0.138519	0.005000	-0.245370	-0.279405	-10.006200	-0.574948	0.019196	-0.321129	-0.020247	0.019868	-0.009109
27	0.143519	0.005000	-0.197858	-0.378767	-9.953327	-0.574722	0.018292	-0.321507	-0.037677	0.007032	-0.005273
28	0.148519	0.005000	-0.260660	-0.235440	-9.940330	-0.575019	0.018106	-0.321740	-0.042983	0.012755	-0.011627
29	0.153519	0.005000	-0.289784	-0.223372	-9.900548	-0.575696	0.018445	-0.321866	-0.038804	0.010601	0.005440
30	0.158519	0.005000	-0.302875	-0.156960	-9.955915	-0.576374	0.018784	-0.321992	-0.053581	0.007554	0.000075
31	0.163519	0.005000	-0.324063	-0.146817	-9.987246	-0.577052	0.019122	-0.322118	-0.044245	0.016200	-0.004663
32	0.168519	0.005000	-0.284145	-0.079859	-10.104989	-0.577729	0.019461	-0.322244	-0.035689	0.014882	-0.011877
33	0.173519	0.005000	-0.291566	-0.039240	-10.028554	-0.578407	0.019800	-0.322370	-0.019911	0.023806	-0.014322
34	0.178519	0.005000	-0.196200	-0.179221	-9.991359	-0.579085	0.020139	-0.322496	-0.010945	0.016255	-0.007175
35	0.183519	0.005000	-0.242318	-0.228562	-10.006200	-0.579762	0.020478	-0.322622	-0.007707	0.014638	-0.014476
36	0.188519	0.005000	-0.262968	-0.235440	-9.961104	-0.580440	0.020817	-0.322748	-0.011232	0.021903	-0.009735
37	0.193519	0.005000	-0.313920	-0.294587	-9.966960	-0.581118	0.021156	-0.322875	-0.012535	0.015559	-0.001030
38	0.198519	0.005000	-0.235440	-0.266098	-10.001909	-0.581795	0.021495	-0.323001	-0.009938	0.018339	-0.014468
39	0.203519	0.005000	-0.235440	-0.166766	-9.970229	-0.582473	0.021834	-0.323127	0.002593	0.012644	-0.011401
40	0.208519	0.005000	-0.239933	-0.311674	-9.929966	-0.583151	0.022172	-0.323253	0.008546	0.016027	-0.008129
41	0.213519	0.005000	-0.315624	-0.313920	-10.082976	-0.583377	0.022593	-0.323104	0.002624	0.023790	-0.010752
42	0.218519	0.005000	-0.313920	-0.275362	-10.122557	-0.582812	0.023158	-0.322473	-0.021082	0.011468	-0.027812
43	0.223519	0.005000	-0.275021	-0.352819	-10.123238	-0.582248	0.023722	-0.321843	-0.016754	0.012615	-0.018915
44	0.228519	0.005000	-0.117720	-0.275589	-10.045440	-0.581683	0.024287	-0.321213	-0.025602	0.011113	-0.005531
45	0.233519	0.005000	-0.156960	-0.355081	-9.968881	-0.581119	0.024851	-0.320582	-0.023406	0.014709	-0.021653
46	0.238519	0.005000	-0.196200	-0.386542	-9.812929	-0.580554	0.025416	-0.319952	-0.041455	0.010803	-0.012474
47	0.243519	0.005000	-0.196200	-0.428113	-9.845713	-0.579990	0.025980	-0.319322	-0.076317	0.019782	-0.010821
48	0.248519	0.005000	-0.270172	-0.283696	-9.844732	-0.579425	0.026545	-0.318691	-0.095340	0.010916	-0.013555
49	0.253519	0.005000	-0.235440	-0.229910	-9.922190	-0.578861	0.027109	-0.318061	-0.104764	0.015161	-0.003915
50	0.258519	0.005000	-0.241588	-0.136164	-9.940016	-0.578296	0.027674	-0.317431	-0.107711	0.012998	-0.013060
51	0.263519	0.005000	-0.267585	-0.149865	-10.006200	-0.577732	0.028238	-0.316801	-0.074185	0.008953	-0.013900
52	0.268519	0.005000	-0.243558	-0.156960	-9.952073	-0.577167	0.028803	-0.316170	-0.051387	0.014172	-0.007431
53	0.273519	0.005000	-0.213734	-0.217906	-9.979899	-0.576603	0.029367	-0.315540	-0.039418	0.001451	-0.005560
54	0.278519	0.005000	-0.284362	-0.166642	-9.927720	-0.576119	0.029819	-0.314928	-0.032561	0.009602	0.002180
55	0.283519	0.005000	-0.246145	-0.128425	-9.870649	-0.576119	0.029593	-0.314423	-0.039641	0.019498	-0.014290
56	0.288519	0.005000	-0.302193	-0.129447	-9.994473	-0.576119	0.029367	-0.313919	-0.027739	0.015104	-0.005526
57	0.293519	0.005000	-0.299250	-0.051525	-10.030770	-0.576119	0.029141	-0.313414	-0.024194	0.013660	-0.020281
58	0.298519	0.005000	-0.196200	-0.065188	-9.966960	-0.576119	0.028915	-0.312909	0.003288	0.019138	-0.008235
59	0.303519	0.005000	-0.196200	-0.260366	-9.942034	-0.576119	0.028689	-0.312405	0.015932	0.018336	-0.015814
60	0.308519	0.005000	-0.225944	-0.250312	-9.907473	-0.576119	0.028463	-0.311900	0.011755	0.013434	-0.007330
61	0.313519	0.005000	-0.204643	-0.298026	-9.865134	-0.576119	0.028237	-0.311396	-0.001585	0.017403	-0.015284
62	0.318519	0.005000	-0.297003	-0.218523	-9.849240	-0.576119	0.028011	-0.310891	-0.015024	0.015400	-0.022125
63	0.323519	0.005000	-0.296461	-0.191878	-9.910261	-0.576119	0.027786	-0.310387	-0.015452	0.013671	-0.007374
64	0.328519	0.005000	-0.233163	-0.193923	-10.022404	-0.576119	0.027560	-0.309882	-0.018298	0.019620	-0.023529
65	0.333519	0.005000	-0.235440	-0.196432	-9.947456	-0.576119	0.027334	-0.309378	-0.013024	0.014606	-0.007997
66	0.338519	0.005000	-0.177254	-0.255734	-10.006200	-0.576119	0.027108	-0.308873	-0.019205	0.018082	-0.016907
67	0.343519	0.005000	-0.132995	-0.274680	-9.903755	-0.576119	0.026882	-0.308369	-0.048563	0.019175	-0.026923
68	0.348519	0.005000	-0.235440	-0.296771	-10.028291	-0.576119	0.026446	-0.309154	-0.079916	0.014804	-0.012702
69	0.353519	0.005000	-0.258553	-0.196200	-10.029313	-0.576119	0.025994	-0.310037	-0.083489	0.017616	-0.026024
70	0.358519	0.005000	-0.274680	-0.219856	-10.069096	-0.576119	0.025542	-0.310921	-0.064405	0.006375	-0.013280
71	0.363519	0.005000	-0.245556	-0.167076	-10.006200	-0.576119	0.025090	-0.311804	-0.040391	0.009192	-0.008470
72	0.368519	0.005000	-0.197579	-0.156960	-10.031900	-0.576119	0.024638	-0.312687	-0.029493	0.008226	-0.013146
73	0.373519	0.005000	-0.222164	-0.169942	-9.888480	-0.576119	0.024186	-0.313571	-0.032330	0.012516	-0.002957
74	0.378519	0.005000	-0.192838	-0.117720	-10.018159	-0.576119	0.023734	-0.314454	-0.028771	0.016377	-0.016009
75	0.383519	0.005000	-0.252512	-0.185116	-10.006200	-0.576119	0.023282	-0.315337	-0.026016	0.012134	-0.016228
76	0.388519	0.005000	-0.253890	-0.167355	-9.995805	-0.576119	0.022830	-0.316221	-0.031636	0.015159	-0.026082
77	0.393519	0.005000	-0.166332	-0.196200	-10.054812	-0.576119	0.022378	-0.317104	-0.037008	0.014610	-0.002190
78	0.398519	0.005000	-0.218533	-0.196200	-9.919267	-0.576119	0.021926	-0.317987	-0.041134	0.018037	-0.002204
79	0.403519	0.005000	-0.204008	-0.164768	-9.959152	-0.576119	0.021474	-0.318871	-0.051641	0.012542	-0.011939
80	0.408519	0.005000	-0.177568	-0.228571	-9.973829	-0.576119	0.021022	-0.319754	-0.048650	0.006348	-0.003364
81	0.413519	0.005000	-0.196200	-0.084723	-10.039197	-0.576119	0.019837	-0.319545	-0.055749	0.007264	-0.007191
82	0.418519	0.005000	-0.274680	-0.167401	-10.000979	-0.576119	0.018370	-0.318915	-0.039909	0.020571	-0.010953
83	0.423519	0.005000	-0.274680	-0.226943	-10.010449	-0.576119	0.016902	-0.318285	-0.038732	0.009181	-0.004973
84	0.428519	0.005000	-0.239081	-0.239081	-9.991638	-0.576119	0.015434	-0.317654	-0.041031	0.012523	-0.008789
85	0.433519	0.005000	-0.232822	-0.240676	-9.859712	-0.576119	0.013967	-0.317024	-0.041047	0.009117	-0.011684
86	0.438519	0.005000	-0.122509	-0.309131	-9.929316	-0.576119	0.012499	-0.316394	-0.040158	0.011069	-0.011454
87	0.443519	0.005000	-0.234387	-0.156960	-9.926667	-0.576119	0.011031	-0.315763	-0.044752	0.015010	-0.007184
88	0.448519	0.005000	-0.235409	-0.196169	-9.966991	-0.576119	0.009563	-0.315133	-0.049267	0.014745	-0.008247
89	0.453519	0.005000	-0.234449	-0.195209	-10.044449	-0.576119	0.008096	-0.314503	-0.044404	0.013820	-0.010766
90	0.458519	0.005000	-0.199267	-0.194666	-9.968494	-0.576119	0.006628	-0.313872	-0.044637	0.016541	-0.013178
91	0.463519	0.005000	-0.303696	-0.120276	-9.935388	-0.576119	0.005160	-0.313242	-0.028769	0.018126	-0.006021
92	0.468519	0.005000	-0.242597	-0.153381	-9.970539	-0.576119	0.003693	-0.312612	-0.025095	0.013056	-0.004387
93	0.473519	0.005000	-0.270559	-0.192079	-9.975201	-0.576119	0.002225	-0.311981	-0.021573	0.019246	-0.020075
94	0.478519	0.005000	-0.342874	-0.264394	-10.079537	-0.576062	0.002343	-0.311983	-0.030195	0.018983	-0.001884
95	0.483519	0.005000	-0.268514	-0.256183	-9.946217	-0.575949	0.004038	-0.312614	-0.044705	0.015355	-0.017741
96	0.488519	0.005000	-0.313920	-0.209647	-9.953513	-0.575836	0.005733	-0.313245	-0.064510	0.015839	-0.012293
97	0.493519	0.005000	-0.211692	-0.156960	-9.966960	-0.575723	0.007428	-0.313876	-0.069606	0.004382	-0.014436
98	0.498519	0.005000	-0.257899	-0.126111	-9.992132	-0.575611	0.009123	-0.314507	-0.076188	0.015192	-0.024825
99	0.503519	0.005000	-0.214821	-0.117720	-10.054750	-0.575498	0.010818	-0.315138	-0.063584	0.014549	-0.014118
100	0.508519	0.005000	-0.167293	-0.107387	-10.026866	-0.575385	0.012513	-0.315769	-0.040313	0.018095	-0.014766
101	0.513519	0.005000	-0.196200	-0.168178	-10.023004	-0.575272	0.014208	-0.316400	-0.029527	0.012508	-0.013654
102	0.518519	0.005000	-0.223543	-0.129617	-10.084680	-0.575159	0.015903	-0.317030	-0.029890	0.013125	-0.014847
103	0.523519	0.005000	-0.288080	-0.091880	-10.084680	-0.575046	0.017598	-0.317661	-0.007487	0.017877	-0.016460
104	0.528519	0.005000	-0.261051	-0.156960	-10.084680	-0.574933	0.019293	-0.318292	0.002192	0.014594	-0.020433
105	0.533519	0.005000	-0.181715	-0.196200	-10.055711	-0.574820	0.020988	-0.318923	0.004250	0.010372	-0.023060
106	0.538519	0.005000	-0.172467	-0.196200	-10.076454	-0.574707	0.022683	-0.319554	0.003582	0.014213	-0.008460
107	0.543519	0.005000	-0.202926	-0.242166	-9.983217	-0.574693	0.023881	-0.319667	-0.019810	0.014893	-0.021744
108	0.548519	0.005000	-0.252527	-0.252527	-10.045440	-0.574919	0.023881	-0.318532	-0.024129	0.014094	-0.015353
109	0.553519	0.005000	-0.274680	-0.178090	-10.063550	-0.575145	0.023881	-0.317397	-0.032301	0.012753	-0.004817
110	0.558519	0.005000	-0.233951	-0.216565	-10.026565	-0.575371	0.023881	-0.316262	-0.047729	0.019853	-0.021114
111	0.563519	0.005000	-0.215766	-0.196308	-10.025874	-0.575597	0.023881	-0.315127	-0.046307	0.011381	-0.010867
112	0.568519	0.005000	-0.196200	-0.138417	-10.105377	-0.575823	0.023881	-0.313991	-0.058232	0.021290	-0.016061
113	0.573519	0.005000	-0.196200	-0.021502	-10.123920	-0.576049	0.023881	-0.312856	-0.046214	0.014554	-0.014856
114	0.578519	0.005000	-0.134699	-0.112437	-10.129203	-0.576274	0.023881	-0.311721	-0.037278	0.010307	-0.007320
115	0.583519	0.005000	-0.212156	-0.133676	-9.998873	-0.576500	0.023881	-0.310586	-0.029656	0.014796	-0.013053
116	0.588519	0.005000	-0.259561	-0.117720	-10.012317	-0.576726	0.023881	-0.309451	-0.021151	0.012580	-0.008752
117	0.593519	0.005000	-0.313920	-0.092872	-10.031048	-0.576952	0.023881	-0.308316	-0.037002	0.024141	-0.016720
118	0.598519	0.005000	-0.262178	-0.144458	-10.072178	-0.577178	0.023881	-0.307181	-0.034497	0.009380	-0.001011
119	0.603519	0.005000	-0.262333	-0.223093	-10.138467	-0.577404	0.023881	-0.306045	-0.039610	0.019280	-0.012828
120	0.608519	0.005000	-0.223651	-0.156960	-9.966960	-0.577576	0.023890	-0.305050	-0.050114	0.011803	-0.017845
121	0.613519	0.005000	-0.150066	-0.146178	-9.916938	-0.577125	0.024003	-0.305680	-0.069131	0.017349	-0.016324
122	0.618519	0.005000	-0.245317	-0.186590	-9.927987	-0.576673	0.024116	-0.306311	-0.064600	0.022144	-0.011873
123	0.623519	0.005000	-0.217036	-0.265478	-10.114718	-0.576221	0.024229	-0.306942	-0.046575	0.011993	-0.013956
124	0.628519	0.005000	-0.266500	-0.188020	-10.012722	-0.575769	0.024342	-0.307572	-0.052655	0.018706	-0.020180
125	0.633519	0.005000	-0.249932	-0.164206	-9.856486	-0.575317	0.024454	-0.308203	-0.043610	0.010082	-0.014678
126	0.638519	0.005000	-0.307305	-0.124335	-9.986805	-0.574866	0.024567	-0.308834	-0.031835	0.004110	-0.010392
127	0.643519	0.005000	-0.269088	-0.123312	-10.017385	-0.574414	0.024680	-0.309464	-0.022809	0.020019	-0.017216
128	0.648519	0.005000	-0.210080	-0.122347	-10.089307	-0.573962	0.024793	-0.310095	-0.014423	0.007625	-0.008104
129	0.653519	0.005000	-0.313920	-0.223357	-10.068569	-0.573510	0.024906	-0.310725	-0.024503	0.016428	-0.007205
130	0.658519	0.005000	-0.350155	-0.114715	-9.855251	-0.573058	0.025019	-0.311356	-0.037263	0.018315	-0.018011
131	0.663519	0.005000	-0.353160	-0.036792	-9.969408	-0.572607	0.025132	-0.311987	-0.022644	0.018428	-0.003437
132	0.668519	0.005000	-0.393826	-0.002852	-10.081828	-0.572155	0.025245	-0.312617	-0.012176	0.021442	-0.018934
133	0.673519	0.005000	-0.313920	-0.156542	-10.122665	-0.571703	0.025358	-0.313248	0.009911	0.015683	-0.012158
134	0.678519	0.005000	-0.274821	-0.039522	-9.967101	-0.571740	0.025568	-0.313333	0.018538	0.026266	-0.016933
135	0.683519	0.005000	-0.275842	-0.115396	-10.003876	-0.571853	0.025794	-0.313333	0.028102	0.012281	-0.000735
136	0.688519	0.005000	-0.198384	-0.156960	-10.006200	-0.571966	0.026020	-0.313333	0.022681	0.018048	-0.022002
137	0.693519	0.005000	-0.269159	-0.151439	-10.045440	-0.572079	0.026246	-0.313333	0.037697	0.016703	-0.013013
138	0.698519	0.005000	-0.235440	-0.184953	-9.938967	-0.572192	0.026472	-0.313333	0.039190	0.020773	-0.010733
139	0.703519	0.005000	-0.230669	-0.225897	-9.996657	-0.572305	0.026698	-0.313333	0.049650	0.022936	-0.020562
140	0.708519	0.005000	-0.274680	-0.303161	-10.063162	-0.572417	0.026924	-0.313333	0.038408	0.017257	-0.008972
141	0.713519	0.005000	-0.268344	-0.235440	-9.973296	-0.572530	0.027150	-0.313333	0.025891	0.013889	-0.008898
142	0.718519	0.005000	-0.306562	-0.164318	-10.006200	-0.572643	0.027376	-0.313333	0.016053	0.020053	-0.006819
143	0.723519	0.005000	-0.235440	-0.156960	-9.998284	-0.572756	0.027602	-0.313333	0.006432	0.018012	-0.013353
144	0.728519	0.005000	-0.165883	-0.087403	-9.975883	-0.572869	0.027828	-0.313333	0.026927	0.022993	-0.008175
145	0.733519	0.005000	-0.196200	-0.176309	-10.143269	-0.572982	0.028054	-0.313333	0.035617	0.017814	-0.009668
146	0.738519	0.005000	-0.235440	-0.196200	-10.027206	-0.573095	0.028280	-0.313333	0.045863	0.015674	-0.016702
147	0.743519	0.005000	-0.263154	-0.184674	-9.978486	-0.573357	0.028358	-0.312421	0.042100	0.022584	-0.021068
148	0.748519	0.005000	-0.288824	-0.169508	-9.993652	-0.573696	0.028358	-0.311034	0.033803	0.026471	-0.020004
149	0.753519	0.005000	-0.313920	-0.104661	-9.980050	-0.574034	0.028358	-0.309647	0.018348	0.023683	-0.007496
150	0.758519	0.005000	-0.288793	-0.117720	-10.095694	-0.574373	0.028358	-0.308259	0.008158	0.017802	-0.010167
151	0.763519	0.005000	-0.235440	-0.141825	-9.966960	-0.574712	0.028358	-0.306872	0.004817	0.014491	-0.007802
152	0.768519	0.005000	-0.196200	-0.156960	-9.943878	-0.575051	0.028358	-0.305485	0.008602	0.006846	-0.003447
153	0.773519	0.005000	-0.257980	-0.218740	-9.989500	-0.575390	0.028358	-0.304097	-0.003802	0.009308	-0.008867
154	0.778519	0.005000	-0.217718	-0.192405	-9.970755	-0.575729	0.028358	-0.302710	0.002542	0.022330	-0.010387
155	0.783519	0.005000	-0.373655	-0.156960	-10.024945	-0.576068	0.028358	-0.301323	0.004012	0.020454	-0.011738
156	0.788519	0.005000	-0.235440	-0.137246	-9.966772	-0.576407	0.028358	-0.299935	0.006208	0.019272	-0.017599
157	0.793519	0.005000	-0.217888	-0.116341	-10.023752	-0.576745	0.028358	-0.298548	-0.000873	0.010540	-0.008373
158	0.798519	0.005000	-0.217532	-0.135628	-10.045440	-0.577084	0.028358	-0.297160	-0.004589	0.022907	-0.020160
159	0.803519	0.005000	-0.264553	-0.146833	-10.074553	-0.577423	0.028358	-0.295773	-0.005315	0.018849	-0.015520
160	0.808519	0.005000	-0.258352	-0.196200	-10.058608	-0.578112	0.027758	-0.295168	0.007417	0.017623	-0.008889
161	0.813519	0.005000	-0.274680	-0.148343	-10.045440	-0.579242	0.026402	-0.295546	0.008985	0.030075	-0.009005
162	0.818519	0.005000	-0.185557	-0.128363	-10.123920	-0.580371	0.025047	-0.295924	0.007025	0.020543	-0.010557
163	0.823519	0.005000	-0.234374	-0.078480	-10.033071	-0.581501	0.023692	-0.296303	0.018646	0.015311	-0.019411
164	0.828519	0.005000	-0.353160	-0.091199	-10.097399	-0.582630	0.022336	-0.296681	0.023911	0.014148	-0.014834
165	0.833519	0.005000	-0.302224	-0.078480	-10.029592	-0.583760	0.020981	-0.297059	0.030970	0.019771	-0.016858
166	0.838519	0.005000	-0.246114	-0.107046	-10.056114	-0.584889	0.019626	-0.297438	0.030156	0.018135	-0.010655
167	0.843519	0.005000	-0.382629	-0.107792	-10.084680	-0.586019	0.018270	-0.297816	0.033975	0.020872	-0.019160
168	0.848519	0.005000	-0.265571	-0.117720	-10.036331	-0.587148	0.016915	-0.298195	0.031787	0.009799	-0.022033
169	0.853519	0.005000	-0.266593	-0.078480	-9.990027	-0.588277	0.015559	-0.298573	0.031094	0.025085	-0.014180
170	0.858519	0.005000	-0.235440	-0.196200	-10.002281	-0.589407	0.014204	-0.298951	0.033580	0.025648	-0.022011
171	0.863519	0.005000	-0.274680	-0.163482	-10.143486	-0.590536	0.012849	-0.299330	0.020623	0.013491	-0.013301
172	0.868519	0.005000	-0.235440	-0.173458	-10.163160	-0.591666	0.011493	-0.299708	0.012356	0.015077	-0.017640
173	0.873519	0.005000	-0.274680	-0.235440	-10.006200	-0.592356	0.010629	-0.300115	0.023972	0.011620	-0.029356
174	0.878519	0.005000	-0.235440	-0.278615	-9.974830	-0.591566	0.011420	-0.300620	0.030553	0.010600	-0.013035
175	0.883519	0.005000	-0.235440	-0.392400	-10.151510	-0.590775	0.012210	-0.301125	0.024477	0.018656	-0.029866
176	0.888519	0.005000	-0.198113	-0.351247	-10.004287	-0.589984	0.013001	-0.301629	0.023353	0.013041	-0.011447
177	0.893519	0.005000	-0.274680	-0.430308	-9.931717	-0.589194	0.013792	-0.302134	0.003546	0.018301	-0.013022
178	0.898519	0.005000	-0.313920	-0.430710	-9.889410	-0.588403	0.014582	-0.302638	-0.025033	0.018854	-0.010712
179	0.903519	0.005000	-0.275377	-0.275377	-9.890571	-0.587613	0.015373	-0.303143	-0.034647	0.017748	-0.005815
180	0.908519	0.005000	-0.197455	-0.273425	-10.004945	-0.586822	0.016164	-0.303647	-0.040121	0.009970	-0.007243
181	0.913519	0.005000	-0.159237	-0.235440	-10.003923	-0.586031	0.016954	-0.304152	-0.031637	0.021868	-0.017095
182	0.918519	0.005000	-0.232140	-0.160260	-10.006200	-0.585241	0.017745	-0.304656	-0.023839	0.016908	-0.009770
183	0.923519	0.005000	-0.306236	-0.192358	-9.892322	-0.584450	0.018536	-0.305161	-0.036647	0.015957	-0.005476
184	0.928519	0.005000	-0.269816	-0.191336	-9.903073	-0.583660	0.019326	-0.305665	-0.044136	0.016110	-0.007558
185	0.933519	0.005000	-0.202087	-0.162847	-10.033666	-0.582869	0.020117	-0.306170	-0.048663	0.020257	-0.005309
186	0.938519	0.005000	-0.228931	-0.117720	-9.979977	-0.582082	0.020899	-0.306674	-0.044568	0.020765	-0.005708
187	0.943519	0.005000	-0.313920	-0.078480	-10.052891	-0.581517	0.021125	-0.307179	-0.037360	0.017112	-0.015656
188	0.948519	0.005000	-0.274680	-0.047714	-9.927720	-0.580952	0.021351	-0.307684	-0.032469	0.000910	-0.008089
189	0.953519	0.005000	-0.313920	-0.068984	-10.085935	-0.580387	0.021577	-0.308188	-0.011748	0.012184	-0.017253
190	0.958519	0.005000	-0.206242	-0.039240	-10.104765	-0.579822	0.021803	-0.308693	0.018378	0.016209	-0.021273
191	0.963519	0.005000	-0.196200	-0.106659	-9.966960	-0.579257	0.022029	-0.309198	0.031652	0.012707	-0.006335
192	0.968519	0.005000	-0.220367	-0.169043	-9.897574	-0.578692	0.022255	-0.309703	0.037050	0.014577	-0.030479
193	0.973519	0.005000	-0.222647	-0.196200	-10.018993	-0.578126	0.022481	-0.310207	0.024216	0.016960	-0.015691
194	0.978519	0.005000	-0.249104	-0.170624	-10.098344	-0.577561	0.022707	-0.310712	0.032513	0.010638	-0.012277
195	0.983519	0.005000	-0.181514	-0.083298	-9.981646	-0.576996	0.022933	-0.311217	0.039389	0.013704	-0.010512
196	0.988519	0.005000	-0.196200	-0.047646	-9.943137	-0.576431	0.023159	-0.311721	0.066610	0.016940	-0.017558
197	0.993519	0.005000	-0.258429	-0.094731	-9.875002	-0.575866	0.023385	-0.312226	0.075725	0.020468	-0.018413
198	0.998519	0.005000	-0.213473	-0.235440	-10.010894	-0.575301	0.023611	-0.312731	0.072308	0.017039	-0.017542
199	1.003519	0.005000	-0.199810	-0.296105	-10.009810	-0.574736	0.023837	-0.313235	0.075618	0.018665	-0.015668
200	1.008519	0.005000	-0.274680	-0.213473	-10.045440	-0.574354	0.024154	-0.313537	0.076589	0.019238	-0.014319
201	1.013519	0.005000	-0.333780	-0.215580	-9.986820	-0.574015	0.024493	-0.313789	0.059458	0.014487	-0.030818
202	1.018519	0.005000	-0.334322	-0.334322	-10.026602	-0.573676	0.024832	-0.314041	0.056626	0.005496	-0.012154
203	1.023519	0.005000	-0.274680	-0.335345	-9.970570	-0.573337	0.025171	-0.314293	0.040867	0.016745	-0.004782
204	1.028519	0.005000	-0.235440	-0.330713	-9.866033	-0.572998	0.025509	-0.314546	0.016025	0.013419	-0.013470
205	1.033519	0.005000	-0.235440	-0.297685	-9.989965	-0.572659	0.025848	-0.314798	0.001793	0.013301	-0.009420
206	1.038519	0.005000	-0.296291	-0.389983	-9.773177	-0.572320	0.026187	-0.315050	-0.010016	0.018361	-0.014626
207	1.043519	0.005000	-0.203701	-0.324768	-9.977002	-0.571982	0.026526	-0.315303	-0.038510	0.011980	-0.007746
208	1.048519	0.005000	-0.197904	-0.208144	-10.304768	-0.571643	0.026865	-0.315555	-0.077830	0.010416	-0.017356
209	1.053519	0.005000	-0.210189	-0.026614	-9.969687	-0.571304	0.027203	-0.315807	-0.076364	0.013310	-0.010860
210	1.058519	0.005000	-0.207947	-0.011747	-9.829495	-0.570965	0.027542	-0.316060	-0.019833	0.015764	-0.016092
211	1.063519	0.005000	-0.246501	-0.218322	-10.106802	-0.570626	0.027881	-0.316312	0.013481	0.020215	-0.014363
212	1.068519	0.005000	-0.225402	-0.225402	-10.054565	-0.570287	0.028220	-0.316564	0.014579	0.018557	-0.010636
213	1.073519	0.005000	-0.295664	-0.126848	-10.006200	-0.570417	0.028291	-0.316592	-0.002314	0.013034	-0.020511
214	1.078519	0.005000	-0.235440	-0.086954	-10.014674	-0.570868	0.028178	-0.316466	-0.018290	0.016646	-0.009904
215	1.083519	0.005000	-0.227989	-0.093383	-10.077229	-0.571320	0.028065	-0.316340	-0.012118	0.018202	-0.011424
216	1.088519	0.005000	-0.241946	-0.241946	-10.025922	-0.571772	0.027952	-0.316214	0.008827	0.019233	-0.018540
217	1.093519	0.005000	-0.247183	-0.274680	-9.984574	-0.572224	0.027839	-0.316088	0.018986	0.018667	-0.011599
218	1.098519	0.005000	-0.274680	-0.328467	-9.932569	-0.572676	0.027727	-0.315961	0.011445	0.023702	-0.026102
219	1.103519	0.005000	-0.239747	-0.379480	-10.049747	-0.573127	0.027614	-0.315835	-0.002463	0.015880	-0.006710
220	1.108519	0.005000	-0.274680	-0.235440	-9.931004	-0.573579	0.027501	-0.315709	-0.031707	0.018079	-0.006564
221	1.113519	0.005000	-0.198462	-0.193938	-10.047702	-0.574031	0.027388	-0.315583	-0.049076	0.022212	-0.017208
222	1.118519	0.005000	-0.275935	-0.194945	-10.080916	-0.574483	0.027275	-0.315457	-0.044788	0.009492	-0.002667
223	1.123519	0.005000	-0.236834	-0.079177	-9.891268	-0.574935	0.027162	-0.315331	-0.045066	0.021332	-0.020290
224	1.128519	0.005000	-0.197176	-0.117720	-10.123269	-0.575386	0.027049	-0.315205	-0.023988	0.013865	-0.014924
225	1.133519	0.005000	-0.234092	-0.231397	-10.083332	-0.575838	0.026936	-0.315078	-0.017731	0.015613	-0.013943
226	1.138519	0.005000	-0.237353	-0.347420	-10.045440	-0.576290	0.026781	-0.315143	-0.020476	0.017860	-0.009300
227	1.143519	0.005000	-0.238352	-0.232528	-10.118095	-0.576742	0.026555	-0.315522	-0.031827	0.014242	-0.011697
228	1.148519	0.005000	-0.262875	-0.160895	-9.974830	-0.577194	0.026329	-0.315900	-0.034223	0.016048	-0.009620
229	1.153519	0.005000	-0.196200	-0.156960	-9.966960	-0.577646	0.026103	-0.316278	-0.029937	0.011301	-0.009933
230	1.158519	0.005000	-0.190685	-0.156960	-10.084680	-0.578097	0.025877	-0.316657	-0.029263	0.016270	-0.008929
231	1.163519	0.005000	-0.235440	-0.268158	-10.078158	-0.578549	0.025651	-0.317035	-0.012515	0.015577	-0.001501
232	1.168519	0.005000	-0.267600	-0.203280	-10.006200	-0.579001	0.025425	-0.317413	-0.017974	0.016830	-0.006712
233	1.173519	0.005000	-0.266578	-0.086582	-9.881648	-0.579453	0.025199	-0.317792	-0.016337	0.017073	-0.009626
234	1.178519	0.005000	-0.265555	-0.156960	-9.957835	-0.579905	0.024973	-0.318170	-0.026317	0.014533	-0.005312
235	1.183519	0.005000	-0.313920	-0.137053	-9.996533	-0.580357	0.024747	-0.318549	-0.043695	0.024092	-0.020983
236	1.188519	0.005000	-0.296058	-0.174822	-10.027578	-0.580809	0.024522	-0.318927	-0.031457	0.006411	-0.000712
237	1.193519	0.005000	-0.235440	-0.156960	-9.994488	-0.581260	0.024296	-0.319305	-0.032870	0.010317	-0.013790
238	1.198519	0.005000	-0.220708	-0.183946	-9.876226	-0.581712	0.024070	-0.319684	-0.050551	0.010251	-0.020008
239	1.203519	0.005000	-0.143684	-0.091756	-9.966960	-0.581997	0.023937	-0.320000	-0.048570	0.010996	-0.011900
240	1.208519	0.005000	-0.221141	-0.153304	-10.031141	-0.581433	0.024275	-0.320000	-0.039419	0.016298	-0.010189
241	1.213519	0.005000	-0.235440	-0.181058	-9.918764	-0.580868	0.024614	-0.320000	-0.036677	0.008062	-0.001839
242	1.218519	0.005000	-0.227927	-0.117720	-9.927720	-0.580304	0.024953	-0.320000	-0.016711	0.014730	-0.006307
243	1.223519	0.005000	-0.201669	-0.162429	-10.006200	-0.579739	0.025291	-0.320000	-0.008011	0.017917	-0.009839
244	1.228519	0.005000	-0.257237	-0.235440	-9.927720	-0.579175	0.025630	-0.320000	-0.019392	0.013084	-0.015787
245	1.233519	0.005000	-0.272372	-0.256214	-9.966960	-0.578610	0.025968	-0.320000	-0.040684	0.010324	-0.010690
246	1.238519	0.005000	-0.254928	-0.215688	-10.064928	-0.578046	0.026307	-0.320000	-0.042978	0.012520	-0.012712
247	1.243519	0.005000	-0.254649	-0.156960	-10.007842	-0.577481	0.026646	-0.320000	-0.043821	0.020719	-0.021759
248	1.248519	0.005000	-0.178013	-0.178013	-10.024387	-0.576917	0.026984	-0.320000	-0.034603	0.012962	-0.003705
249	1.253519	0.005000	-0.252605	-0.095645	-10.067515	-0.576352	0.027323	-0.320000	-0.039482	0.014309	-0.016402
250	1.258519	0.005000	-0.235440	-0.101098	-10.006200	-0.575788	0.027662	-0.320000	-0.016835	0.008131	-0.014567
251	1.263519	0.005000	-0.251040	-0.070440	-9.990600	-0.575223	0.028000	-0.320000	-0.005595	0.015433	-0.014684
252	1.268519	0.005000	-0.250018	-0.107635	-9.913142	-0.574659	0.028339	-0.320000	0.006787	0.025135	-0.024559
253	1.273519	0.005000	-0.260655	-0.117720	-9.888480	-0.575160	0.028038	-0.319643	0.022292	0.011857	-0.019279
254	1.278519	0.005000	-0.209213	-0.078480	-10.045440	-0.575725	0.027699	-0.319264	0.022345	0.014058	-0.017806
255	1.283519	0.005000	-0.262546	-0.208334	-10.021172	-0.576290	0.027360	-0.318886	0.022949	0.013545	-0.025457
256	1.288519	0.005000	-0.263247	-0.196200	-9.939153	-0.576856	0.027021	-0.318507	0.002287	0.010572	-0.023875
257	1.293519	0.005000	-0.264270	-0.185790	-9.859650	-0.577421	0.026682	-0.318128	-0.010237	0.019556	-0.027199
258	1.298519	0.005000	-0.235440	-0.216432	-9.977687	-0.577986	0.026343	-0.317750	-0.009449	0.014947	-0.020560
259	1.303519	0.005000	-0.244286	-0.183497	-9.888480	-0.578551	0.026004	-0.317371	0.000238	0.011018	-0.021143
260	1.308519	0.005000	-0.274680	-0.258910	-9.888480	-0.579116	0.025665	-0.316993	-0.006822	0.010996	-0.016527
261	1.313519	0.005000	-0.242241	-0.221838	-9.999399	-0.579681	0.025326	-0.316614	-0.017593	0.021075	-0.024251
262	1.318519	0.005000	-0.235440	-0.150701	-10.045440	-0.580246	0.024987	-0.316236	-0.009917	0.015467	-0.013219
263	1.323519	0.005000	-0.235440	-0.122956	-9.966960	-0.580811	0.024648	-0.315857	-0.014276	0.013910	-0.014874
264	1.328519	0.005000	-0.200414	-0.239654	-9.940361	-0.581376	0.024309	-0.315478	-0.010053	0.017424	-0.025644
265	1.333519	0.005000	-0.199871	-0.267337	-10.045440	-0.581941	0.023970	-0.315100	-0.018372	0.008598	-0.005505
266	1.338519	0.005000	-0.238089	-0.159609	-10.191804	-0.581757	0.023715	-0.315093	-0.019398	0.008575	-0.014894
267	1.343519	0.005000	-0.273053	-0.116093	-10.045440	-0.581306	0.023489	-0.315219	-0.019242	0.015984	-0.013202
268	1.348519	0.005000	-0.235440	-0.081687	-10.046509	-0.580854	0.023263	-0.315345	-0.004457	0.011776	-0.009683
269	1.353519	0.005000	-0.235486	-0.117766	-10.045486	-0.580402	0.023037	-0.315471	-0.009897	0.020806	-0.018791
270	1.358519	0.005000	-0.274680	-0.195224	-10.084680	-0.579950	0.022811	-0.315597	0.000044	0.007348	-0.019231
271	1.363519	0.005000	-0.274680	-0.235440	-10.008184	-0.579498	0.022585	-0.315724	-0.001206	0.017987	-0.023213
272	1.368519	0.005000	-0.311379	-0.308839	-9.935342	-0.579046	0.022359	-0.315850	-0.024309	0.017419	-0.019420
273	1.373519	0.005000	-0.231877	-0.306794	-10.006200	-0.578594	0.022133	-0.315976	-0.026935	0.011460	-0.017866
274	1.378519	0.005000	-0.240025	-0.279265	-10.010785	-0.578142	0.021908	-0.316102	-0.039315	0.011153	-0.007099
275	1.383519	0.005000	-0.342778	-0.196200	-9.932911	-0.577691	0.021682	-0.316228	-0.029119	0.009422	-0.010431
276	1.388519	0.005000	-0.280830	-0.117720	-9.993900	-0.577239	0.021456	-0.316354	-0.026397	0.018731	-0.010984
277	1.393519	0.005000	-0.210545	-0.156960	-9.927720	-0.576787	0.021230	-0.316481	-0.021302	0.013610	-0.009224
278	1.398519	0.005000	-0.165155	-0.219050	-9.958765	-0.576335	0.021004	-0.316607	-0.011511	0.019713	-0.018827
279	1.403519	0.005000	-0.156960	-0.204937	-10.084680	-0.576178	0.020955	-0.316667	-0.007636	0.012868	-0.006756
280	1.408519	0.005000	-0.255161	-0.117720	-9.957200	-0.576291	0.021068	-0.316667	-0.005555	0.027487	-0.010505
281	1.413519	0.005000	-0.235440	-0.135396	-9.977742	-0.576404	0.021181	-0.316667	-0.000523	0.016102	-0.015421
282	1.418519	0.005000	-0.259049	-0.117720	-10.006200	-0.576517	0.021294	-0.316667	0.011591	0.020524	-0.007682
283	1.423519	0.005000	-0.220893	-0.237640	-10.072333	-0.576630	0.021407	-0.316667	0.019842	0.022796	-0.030914
284	1.428519	0.005000	-0.209569	-0.248809	-10.032938	-0.576743	0.021519	-0.316667	0.018629	0.010730	-0.009603
285	1.433519	0.005000	-0.274680	-0.278615	-10.020592	-0.576856	0.021632	-0.316667	0.008106	0.010132	-0.014624
286	1.438519	0.005000	-0.226099	-0.211149	-9.966960	-0.576969	0.021745	-0.316667	-0.000776	0.022583	-0.010175
287	1.443519	0.005000	-0.290652	-0.078480	-10.045440	-0.577082	0.021858	-0.316667	-0.002707	0.009415	-0.006066
288	1.448519	0.005000	-0.235440	-0.173945	-10.040171	-0.577195	0.021971	-0.316667	-0.010624	0.018216	-0.018113
289	1.453519	0.005000	-0.313920	-0.199947	-10.013694	-0.577308	0.022084	-0.316667	-0.009604	0.017114	-0.005151
290	1.458519	0.005000	-0.235440	-0.194078	-10.004078	-0.577421	0.022197	-0.316667	-0.018005	0.012314	-0.009389
291	1.463519	0.005000	-0.215781	-0.255099	-9.966960	-0.577534	0.022310	-0.316667	-0.023422	0.020662	-0.015984
292	1.468519	0.005000	-0.214836	-0.235440	-9.985596	-0.577473	0.022562	-0.316434	-0.017782	0.012879	-0.015711
293	1.473519	0.005000	-0.253272	-0.253272	-9.984792	-0.577021	0.023127	-0.315677	-0.018383	0.013708	-0.020391
294	1.478519	0.005000	-0.235440	-0.139888	-9.978935	-0.576569	0.023691	-0.314921	-0.018479	0.012033	-0.017685
295	1.483519	0.005000	-0.297871	-0.087388	-10.061489	-0.576118	0.024256	-0.314164	-0.010199	0.018761	-0.015754
296	1.488519	0.005000	-0.196200	-0.181173	-10.093866	-0.575666	0.024821	-0.313407	-0.000589	0.014601	-0.006101
297	1.493519	0.005000	-0.249925	-0.181715	-10.045440	-0.575214	0.025386	-0.312650	-0.002995	0.017533	-0.015906
298	1.498519	0.005000	-0.248902	-0.196200	-10.019662	-0.574762	0.025950	-0.311893	0.006911	0.014355	-0.009796
299	1.503519	0.005000	-0.208640	-0.183760	-10.033000	-0.574310	0.026515	-0.311137	0.003073	0.015131	-0.010272
300	1.508519	0.005000	-0.250885	-0.129617	-10.069235	-0.573859	0.027080	-0.310380	0.007359	0.013923	-0.017612
301	1.513519	0.005000	-0.196200	-0.246315	-10.073805	-0.573407	0.027645	-0.309623	0.005436	0.013029	-0.003700
302	1.518519	0.005000	-0.176665	-0.225587	-9.966790	-0.572955	0.028210	-0.308866	0.002066	0.020374	-0.019299
303	1.523519	0.005000	-0.235440	-0.165896	-9.810000	-0.572503	0.028774	-0.308110	0.004777	0.019953	-0.012865
304	1.528519	0.005000	-0.235440	-0.142537	-9.874057	-0.572051	0.029339	-0.307353	-0.002149	0.009660	-0.011959
305	1.533519	0.005000	-0.181694	-0.267427	-9.998947	-0.571631	0.029851	-0.306667	0.005326	0.018446	-0.030234
306	1.538519	0.005000	-0.175689	-0.229197	-9.915234	-0.571518	0.029851	-0.306667	0.003682	0.015255	-0.004705
307	1.543519	0.005000	-0.319605	-0.162645	-9.787816	-0.571405	0.029851	-0.306667	0.007914	0.020698	-0.020983
308	1.548519	0.005000	-0.191537	-0.161623	-9.893143	-0.571292	0.029851	-0.306667	-0.004573	0.018931	-0.015585
309	1.553519	0.005000	-0.160601	-0.235440	-9.824562	-0.571179	0.029851	-0.306667	0.001621	0.014113	-0.007091
310	1.558519	0.005000	-0.199298	-0.235440	-10.009298	-0.571066	0.029851	-0.306667	0.005298	0.014849	-0.009101
311	1.563519	0.005000	-0.235440	-0.194124	-10.004124	-0.570954	0.029851	-0.306667	-0.007019	0.013183	-0.004341
312	1.568519	0.005000	-0.274680	-0.158013	-9.966960	-0.570841	0.029851	-0.306667	-0.018072	0.017789	-0.017262
313	1.573519	0.005000	-0.274649	-0.156929	-9.927657	-0.570728	0.029851	-0.306667	-0.009815	0.014509	-0.014452
314	1.578519	0.005000	-0.235440	-0.078991	-9.926698	-0.570615	0.029851	-0.306667	-0.005375	0.020424	-0.014010
315	1.583519	0.005000	-0.233906	-0.114653	-10.045440	-0.570502	0.029851	-0.306667	0.006670	0.012582	-0.007844
316	1.588519	0.005000	-0.159516	-0.117720	-10.053108	-0.570389	0.029851	-0.306667	0.012913	0.016990	-0.014387
317	1.593519	0.005000	-0.235440	-0.190001	-10.006200	-0.570276	0.029851	-0.306667	0.015175	0.020866	-0.013910
318	1.598519	0.005000	-0.200321	-0.270559	-10.006200	-0.570163	0.029851	-0.306667	0.011630	0.012786	-0.007854
319	1.603519	0.005000	-0.230297	-0.240583	-10.074394	-0.570944	0.029752	-0.307222	-0.005130	0.018465	-0.025512
320	1.608519	0.005000	-0.302518	-0.162661	-10.051141	-0.571848	0.029639	-0.307853	0.003489	0.017644	-0.010957
321	1.613519	0.005000	-0.235440	-0.221993	-10.084680	-0.572752	0.029525	-0.308484	0.005970	0.009865	-0.006894
322	1.618519	0.005000	-0.243186	-0.180197	-9.927209	-0.573656	0.029412	-0.309115	-0.000571	0.013982	-0.024573
323	1.623519	0.005000	-0.274680	-0.142892	-9.880089	-0.574561	0.029299	-0.309746	-0.006700	0.010417	-0.011448
324	1.628519	0.005000	-0.304610	-0.117720	-9.946341	-0.575465	0.029186	-0.310376	-0.017078	0.028554	-0.011458
325	1.633519	0.005000	-0.274680	-0.117720	-10.082589	-0.576369	0.029073	-0.311007	-0.003274	0.018638	-0.011835
326	1.638519	0.005000	-0.263670	-0.067470	-10.028220	-0.577273	0.028960	-0.311638	-0.002795	0.010690	-0.006889
327	1.643519	0.005000	-0.196200	-0.156960	-10.072783	-0.578177	0.028847	-0.312269	0.005979	0.020278	-0.012362
328	1.648519	0.005000	-0.222520	-0.156960	-10.019120	-0.579081	0.028734	-0.312900	0.001939	0.017197	-0.018498
329	1.653519	0.005000	-0.261051	-0.168942	-9.902109	-0.579985	0.028621	-0.313531	0.000996	0.010585	-0.007450
330	1.658519	0.005000	-0.260195	-0.156960	-9.981445	-0.580889	0.028508	-0.314162	-0.006720	0.005443	-0.005222
331	1.663519	0.005000	-0.172467	-0.243666	-10.147653	-0.581793	0.028395	-0.314793	0.002014	0.020645	-0.015438
332	1.668519	0.005000	-0.235440	-0.290937	-10.100937	-0.581635	0.028206	-0.315000	0.005588	0.023942	-0.014751
333	1.673519	0.005000	-0.218353	-0.235440	-9.961894	-0.580957	0.027980	-0.315000	0.014784	0.024996	-0.017338
334	1.678519	0.005000	-0.256570	-0.193179	-9.966960	-0.580279	0.027755	-0.315000	0.011053	0.016832	-0.010099
335	1.683519	0.005000	-0.197689	-0.197689	-9.946595	-0.579602	0.027529	-0.315000	-0.003165	0.012381	-0.000670
336	1.688519	0.005000	-0.235440	-0.235657	-9.986634	-0.578924	0.027303	-0.315000	-0.010398	0.028607	-0.020332
337	1.693519	0.005000	-0.216897	-0.175503	-9.966960	-0.578246	0.027077	-0.315000	-0.002118	0.015968	-0.001737
338	1.698519	0.005000	-0.192962	-0.178199	-9.924482	-0.577568	0.026851	-0.315000	0.002186	0.015489	-0.010791
339	1.703519	0.005000	-0.286376	-0.179221	-9.927720	-0.576891	0.026625	-0.315000	0.003825	0.020610	-0.017902
340	1.708519	0.005000	-0.266051	-0.172916	-9.998873	-0.576213	0.026399	-0.315000	-0.007556	0.012641	-0.012354
341	1.713519	0.005000	-0.196200	-0.187788	-10.021614	-0.575535	0.026173	-0.315000	-0.005772	0.009641	-0.019501
342	1.718519	0.005000	-0.224983	-0.181808	-10.074223	-0.574857	0.025947	-0.315000	0.003891	0.011047	-0.014140
343	1.723519	0.005000	-0.313920	-0.196200	-10.098049	-0.574180	0.025721	-0.315000	0.010235	0.012064	-0.023215
344	1.728519	0.005000	-0.249691	-0.144465	-10.047196	-0.573502	0.025496	-0.315000	0.008583	0.016242	-0.004934
345	1.733519	0.005000	-0.223651	-0.156960	-9.994411	-0.573392	0.025425	-0.314250	0.000664	0.021715	-0.011109
346	1.738519	0.005000	-0.156960	-0.224658	-10.006200	-0.573957	0.025538	-0.312611	-0.004915	0.011676	-0.013134
347	1.743519	0.005000	-0.235440	-0.098233	-9.898357	-0.574521	0.025651	-0.310972	0.003020	0.020894	-0.004371
348	1.748519	0.005000	-0.235440	-0.186998	-9.927720	-0.575086	0.025763	-0.309334	0.010804	0.021592	-0.015301
349	1.753519	0.005000	-0.266873	-0.204007	-9.998393	-0.575650	0.025876	-0.307695	0.023891	0.015367	-0.004258
350	1.758519	0.005000	-0.260366	-0.228283	-9.999043	-0.576215	0.025989	-0.306056	0.014565	0.015601	-0.021824
351	1.763519	0.005000	-0.274680	-0.170190	-9.934335	-0.576779	0.026102	-0.304417	0.004465	0.015996	-0.012847
352	1.768519	0.005000	-0.269088	-0.257903	-9.961368	-0.577344	0.026215	-0.302778	0.000032	0.013766	-0.006659
353	1.773519	0.005000	-0.279250	-0.166100	-10.050010	-0.577908	0.026328	-0.301139	-0.000635	0.021594	-0.020775
354	1.778519	0.005000	-0.274680	-0.165016	-9.962932	-0.578473	0.026441	-0.299500	-0.000005	0.012908	-0.005352
355	1.783519	0.005000	-0.235440	-0.238445	-9.975976	-0.579037	0.026554	-0.297861	-0.002104	0.017410	-0.003021
356	1.788519	0.005000	-0.231427	-0.272673	-10.084680	-0.579602	0.026667	-0.296222	-0.002564	0.015891	-0.022202
357	1.793519	0.005000	-0.235440	-0.199052	-9.926294	-0.580166	0.026780	-0.294583	-0.016873	0.017391	-0.017140
358	1.798519	0.005000	-0.196200	-0.273425	-10.007037	-0.580865	0.026652	-0.293303	-0.017689	0.021380	-0.010972
359	1.803519	0.005000	-0.196200	-0.117861	-10.045581	-0.581995	0.025747	-0.293177	-0.024662	0.021980	-0.020433
360	1.808519	0.005000	-0.156960	-0.116558	-10.046602	-0.583125	0.024843	-0.293051	-0.007664	0.021813	-0.024613
361	1.813519	0.005000	-0.237624	-0.196200	-9.975697	-0.584255	0.023939	-0.292925	0.005291	0.017969	-0.011601
362	1.818519	0.005000	-0.202613	-0.271473	-9.996580	-0.585385	0.023035	-0.292799	0.003639	0.020472	-0.011996
363	1.823519	0.005000	-0.231691	-0.235440	-10.037942	-0.586515	0.022131	-0.292672	0.001750	0.018625	-0.018773
364	1.828519	0.005000	-0.265137	-0.230669	-9.922949	-0.587645	0.021227	-0.292546	0.001651	0.025474	-0.019202
365	1.833519	0.005000	-0.269301	-0.167719	-9.966960	-0.588775	0.020323	-0.292420	-0.005712	0.022646	-0.017521
366	1.838519	0.005000	-0.274680	-0.156960	-9.979632	-0.589905	0.019419	-0.292294	0.001950	0.007528	-0.002650
367	1.843519	0.005000	-0.242798	-0.188842	-10.187683	-0.591035	0.018515	-0.292168	-0.002502	0.016214	-0.017631
368	1.848519	0.005000	-0.204211	-0.188189	-9.966960	-0.592165	0.017611	-0.292042	-0.000745	0.011500	-0.008487
369	1.853519	0.005000	-0.187277	-0.205123	-10.045440	-0.593295	0.016707	-0.291916	-0.004683	0.006691	-0.018009
370	1.858519	0.005000	-0.166906	-0.206146	-10.153214	-0.594425	0.015803	-0.291789	0.000033	0.024163	-0.016532
371	1.863519	0.005000	-0.321273	-0.264051	-10.045440	-0.595496	0.014948	-0.291704	-0.006463	0.018537	-0.015034
372	1.868519	0.005000	-0.286206	-0.302394	-10.050103	-0.594592	0.015739	-0.292965	-0.009650	0.019048	-0.017339
373	1.873519	0.005000	-0.301372	-0.274680	-9.992056	-0.593688	0.016529	-0.294226	-0.014802	0.021903	-0.011475
374	1.878519	0.005000	-0.300667	-0.209453	-9.927720	-0.592785	0.017320	-0.295488	-0.013058	0.015664	-0.011144
375	1.883519	0.005000	-0.263666	-0.156960	-9.810000	-0.591881	0.018111	-0.296749	-0.005192	0.013108	-0.013856
376	1.888519	0.005000	-0.265710	-0.250575	-9.873345	-0.590978	0.018901	-0.298010	-0.002532	0.014746	-0.009716
377	1.893519	0.005000	-0.290838	-0.196200	-9.888480	-0.590074	0.019692	-0.299271	-0.001961	0.017217	-0.016960
378	1.898519	0.005000	-0.229600	-0.257980	-9.989500	-0.589171	0.020483	-0.300532	-0.014080	0.011611	-0.010096
379	1.903519	0.005000	-0.199995	-0.231645	-9.945442	-0.588267	0.021274	-0.301794	-0.025338	0.021380	-0.023851
380	1.908519	0.005000	-0.293425	-0.197951	-9.869735	-0.587363	0.022064	-0.303055	-0.015673	0.014782	-0.013862
381	1.913519	0.005000	-0.372447	-0.255393	-9.966294	-0.586460	0.022855	-0.304316	-0.025318	0.009081	-0.009675
382	1.918519	0.005000	-0.373469	-0.235440	-9.926341	-0.585556	0.023646	-0.305577	-0.015703	0.018737	-0.018658
383	1.923519	0.005000	-0.296012	-0.256772	-10.006200	-0.584653	0.024436	-0.306839	-0.005335	0.004303	-0.003112
384	1.928519	0.005000	-0.230901	-0.296570	-9.893019	-0.583749	0.025227	-0.308100	-0.006990	0.018347	-0.009671
385	1.933519	0.005000	-0.258352	-0.258352	-9.934304	-0.583030	0.025281	-0.308436	0.005053	0.018326	-0.021075
386	1.938519	0.005000	-0.235440	-0.165577	-9.919103	-0.582352	0.025168	-0.308562	0.003303	0.015192	-0.022393
387	1.943519	0.005000	-0.156960	-0.196200	-10.006200	-0.581674	0.025055	-0.308688	0.009349	0.018043	-0.018654
388	1.948519	0.005000	-0.235440	-0.170701	-9.966960	-0.580997	0.024942	-0.308814	0.001657	0.012309	-0.012944
389	1.953519	0.005000	-0.313920	-0.235440	-9.954241	-0.580319	0.024829	-0.308940	0.010228	0.016635	-0.013126
390	1.958519	0.005000	-0.262839	-0.196200	-10.112079	-0.579641	0.024716	-0.309067	0.002773	0.013622	-0.001613
391	1.963519	0.005000	-0.302766	-0.173892	-9.995046	-0.578963	0.024604	-0.309193	0.003279	0.020158	-0.014066
392	1.968519	0.005000	-0.264549	-0.146829	-10.055571	-0.578286	0.024491	-0.309319	0.008250	0.019244	-0.006108
393	1.973519	0.005000	-0.274680	-0.184626	-9.987756	-0.577608	0.024378	-0.309445	0.002920	0.013715	-0.016859
394	1.978519	0.005000	-0.257546	-0.257546	-9.927720	-0.576930	0.024265	-0.309571	0.007968	0.018007	-0.014647
395	1.983519	0.005000	-0.242984	-0.235440	-9.856784	-0.576253	0.024152	-0.309697	-0.007683	0.007075	-0.010998
396	1.988519	0.005000	-0.235440	-0.268158	-10.012722	-0.575575	0.024039	-0.309824	-0.013623	0.017847	-0.018951
397	1.993519	0.005000	-0.180817	-0.262752	-10.033512	-0.574897	0.023926	-0.309950	-0.002442	0.013148	-0.001250
398	1.998519	0.005000	-0.240397	-0.201157	-9.966960	-0.574763	0.023881	-0.310531	0.003538	0.008292	-0.000656
399	2.003519	0.005000	-0.235440	-0.258941	-9.919850	-0.574989	0.023881	-0.311414	-0.001488	0.016667	-0.014874
400	2.008519	0.005000	-0.310973	-0.120667	-9.969907	-0.575215	0.023881	-0.312296	-0.004396	0.009538	-0.000912
401	2.013519	0.005000	-0.237795	-0.196200	-9.962251	-0.575440	0.023881	-0.313179	-0.004863	0.018490	-0.014567
402	2.018519	0.005000	-0.274680	-0.234108	-9.891145	-0.575666	0.023881	-0.314062	-0.005885	0.017655	-0.007144
403	2.023519	0.005000	-0.195573	-0.196827	-10.005886	-0.575892	0.023881	-0.314945	-0.015914	0.019253	-0.014071
404	2.028519	0.005000	-0.195735	-0.274680	-10.005968	-0.576118	0.023881	-0.315828	-0.015855	0.017523	-0.014633
405	2.033519	0.005000	-0.196200	-0.158215	-9.970724	-0.576344	0.023881	-0.316711	-0.009546	0.007790	-0.010577
406	2.038519	0.005000	-0.230885	-0.152405	-10.043163	-0.576570	0.023881	-0.317594	-0.013807	0.013556	-0.019354
407	2.043519	0.005000	-0.235440	-0.232621	-9.857698	-0.576796	0.023881	-0.318477	-0.005546	0.014378	-0.011783
408	2.048519	0.005000	-0.239282	-0.200042	-10.006200	-0.577022	0.023881	-0.319360	0.010221	0.015092	-0.009938
409	2.053519	0.005000	-0.274680	-0.230576	-10.079816	-0.577248	0.023881	-0.320243	0.000958	0.014437	-0.001649
410	2.058519	0.005000	-0.207147	-0.240914	-10.045440	-0.577474	0.023881	-0.321126	-0.007031	0.018667	-0.001747
411	2.063519	0.005000	-0.222582	-0.124149	-9.960531	-0.577699	0.024012	-0.321521	-0.006261	0.017964	-0.014031
412	2.068519	0.005000	-0.299017	-0.102817	-9.981863	-0.577925	0.024351	-0.321142	0.000898	0.009513	-0.008299
413	2.073519	0.005000	-0.274680	-0.117720	-9.927720	-0.578151	0.024690	-0.320764	0.019372	0.025864	-0.013522
414	2.078519	0.005000	-0.265648	-0.265648	-9.966960	-0.578377	0.025029	-0.320385	0.030868	0.017444	-0.004992
415	2.083519	0.005000	-0.264638	-0.254595	-9.996158	-0.578603	0.025367	-0.320007	0.018275	0.017394	-0.016412
416	2.088519	0.005000	-0.224379	-0.257562	-10.062558	-0.578829	0.025706	-0.319629	0.005064	0.018389	-0.017934
417	2.093519	0.005000	-0.247059	-0.219437	-10.123920	-0.579055	0.026045	-0.319250	-0.004982	0.009812	-0.012256
418	2.098519	0.005000	-0.262039	-0.037923	-10.032799	-0.579281	0.026384	-0.318872	0.001709	0.019590	-0.015641
419	2.103519	0.005000	-0.235440	-0.129633	-10.006200	-0.579507	0.026723	-0.318494	0.001987	0.019496	-0.015985
420	2.108519	0.005000	-0.224611	-0.288886	-9.995371	-0.579732	0.027061	-0.318115	0.000052	0.024585	-0.020824
421	2.113519	0.005000	-0.141732	-0.220212	-9.960516	-0.579958	0.027400	-0.317737	-0.009652	0.021742	-0.016283
422	2.118519	0.005000	-0.258714	-0.219474	-10.006200	-0.580184	0.027739	-0.317358	-0.009585	0.014609	-0.007829
423	2.123519	0.005000	-0.246578	-0.179407	-10.045440	-0.580410	0.028078	-0.316980	-0.012107	0.020820	-0.005615
424	2.128519	0.005000	-0.174775	-0.256865	-10.066865	-0.580617	0.028260	-0.316732	-0.007133	0.009379	-0.009398
425	2.133519	0.005000	-0.237494	-0.216847	-10.047494	-0.580730	0.027696	-0.317111	-0.009201	0.012887	-0.017565
426	2.138519	0.005000	-0.216045	-0.234991	-10.044991	-0.580842	0.027131	-0.317489	-0.011931	0.009604	-0.001238
427	2.143519	0.005000	-0.177362	-0.177362	-10.026602	-0.580955	0.026566	-0.317868	-0.010346	0.015611	-0.019543
428	2.148519	0.005000	-0.253469	-0.235440	-10.045440	-0.581068	0.026002	-0.318246	-0.006864	0.012599	-0.010619
429	2.153519	0.005000	-0.323370	-0.222907	-10.032907	-0.581181	0.025437	-0.318624	0.005137	0.014363	-0.005451
430	2.158519	0.005000	-0.258445	-0.251675	-9.950725	-0.581294	0.024872	-0.319003	0.011892	0.018824	-0.017769
431	2.163519	0.005000	-0.243878	-0.250841	-9.927720	-0.581407	0.024308	-0.319381	0.019959	0.016087	-0.006601
432	2.168519	0.005000	-0.181530	-0.196200	-9.957061	-0.581520	0.023743	-0.319759	0.014292	0.020917	-0.014715
433	2.173519	0.005000	-0.182552	-0.249088	-10.072736	-0.581633	0.023178	-0.320138	0.009404	0.023944	-0.004508
434	2.178519	0.005000	-0.221764	-0.208982	-10.111138	-0.581746	0.022613	-0.320516	0.009698	0.017357	-0.015288
435	2.183519	0.005000	-0.223357	-0.259607	-10.006200	-0.581859	0.022049	-0.320895	0.003377	0.020481	-0.009880
436	2.188519	0.005000	-0.196200	-0.331038	-10.034379	-0.581972	0.021484	-0.321273	-0.002745	0.017057	-0.007416
437	2.193519	0.005000	-0.303761	-0.235440	-10.144238	-0.582085	0.020919	-0.321651	0.002749	0.015838	-0.014050
438	2.198519	0.005000	-0.244936	-0.313920	-10.144167	-0.581440	0.021329	-0.321667	-0.013124	0.023882	-0.013471
439	2.203519	0.005000	-0.313920	-0.313920	-10.014674	-0.580763	0.021781	-0.321667	-0.015558	0.018414	-0.023482
440	2.208519	0.005000	-0.274680	-0.306379	-10.155619	-0.580085	0.022233	-0.321667	-0.009500	0.019544	-0.019302
441	2.213519	0.005000	-0.228546	-0.235440	-10.170054	-0.579407	0.022684	-0.321667	-0.005451	0.018631	-0.010371
442	2.218519	0.005000	-0.207943	-0.168703	-10.012071	-0.578729	0.023136	-0.321667	-0.000356	0.019384	-0.018009
443	2.223519	0.005000	-0.260133	-0.166658	-10.084680	-0.578051	0.023588	-0.321667	0.001714	0.015645	-0.006652
444	2.228519	0.005000	-0.200507	-0.196200	-10.128227	-0.577374	0.024040	-0.321667	-0.014534	0.019548	-0.022267
445	2.233519	0.005000	-0.271396	-0.271396	-10.009484	-0.576696	0.024492	-0.321667	0.000864	0.015237	-0.011528
446	2.238519	0.005000	-0.237730	-0.198490	-9.973829	-0.576018	0.024943	-0.321667	0.006996	0.013952	-0.016952
447	2.243519	0.005000	-0.196200	-0.197920	-10.125640	-0.575340	0.025395	-0.321667	0.007197	0.013871	-0.022177
448	2.248519	0.005000	-0.196200	-0.273286	-10.004806	-0.574663	0.025847	-0.321667	0.008492	0.013758	-0.007615
449	2.253519	0.005000	-0.235115	-0.157285	-9.927720	-0.573985	0.026299	-0.321667	0.003994	0.021637	-0.019010
450	2.258519	0.005000	-0.119477	-0.080237	-9.887602	-0.573307	0.026751	-0.321667	-0.009164	0.007587	-0.006110
451	2.263519	0.005000	-0.153180	-0.227880	-10.004310	-0.573386	0.026277	-0.321291	-0.003236	0.015593	-0.022258
452	2.268519	0.005000	-0.154048	-0.274680	-10.039615	-0.573725	0.025487	-0.320787	-0.009198	0.020176	-0.016066
453	2.273519	0.005000	-0.274680	-0.238952	-9.899015	-0.574064	0.024696	-0.320282	-0.007694	0.012093	-0.009106
454	2.278519	0.005000	-0.205185	-0.304935	-10.010693	-0.574403	0.023905	-0.319778	-0.010315	0.012554	-0.014203
455	2.283519	0.005000	-0.201715	-0.381370	-9.972475	-0.574742	0.023115	-0.319273	-0.017138	0.013239	-0.009943
456	2.288519	0.005000	-0.196200	-0.220719	-9.973090	-0.575081	0.022324	-0.318769	-0.022513	0.016942	-0.015262
457	2.293519	0.005000	-0.196200	-0.221281	-9.941879	-0.575420	0.021533	-0.318264	-0.024879	0.016760	-0.013145
458	2.298519	0.005000	-0.219236	-0.156960	-9.857342	-0.575758	0.020743	-0.317760	-0.016650	0.019338	-0.015483
459	2.303519	0.005000	-0.313920	-0.148209	-9.910217	-0.576097	0.019952	-0.317255	-0.011167	0.016015	-0.019043
460	2.308519	0.005000	-0.185960	-0.176867	-9.966960	-0.576436	0.019161	-0.316751	0.001360	0.011017	-0.014326
461	2.313519	0.005000	-0.206889	-0.235440	-10.024062	-0.576775	0.018371	-0.316246	-0.007608	0.021686	-0.019816
462	2.318519	0.005000	-0.246671	-0.196200	-10.028663	-0.577114	0.017580	-0.315741	-0.003526	0.016532	-0.012358
463	2.323519	0.005000	-0.274680	-0.223186	-9.912988	-0.577453	0.016789	-0.315237	0.001448	0.016243	-0.012527
464	2.328519	0.005000	-0.209476	-0.248716	-10.032164	-0.577552	0.016957	-0.314933	-0.002220	0.018766	-0.023447
465	2.333519	0.005000	-0.249274	-0.311658	-10.059274	-0.577439	0.017974	-0.314807	-0.002368	0.018021	-0.020525
466	2.338519	0.005000	-0.274680	-0.313920	-9.947905	-0.577326	0.018990	-0.314681	-0.004841	0.020341	-0.018759
467	2.343519	0.005000	-0.196200	-0.298337	-9.975034	-0.577213	0.020007	-0.314555	-0.018327	0.013596	-0.016648
468	2.348519	0.005000	-0.212621	-0.251861	-10.068259	-0.577100	0.021023	-0.314428	-0.021991	0.008291	-0.009778
469	2.353519	0.005000	-0.217997	-0.279033	-9.984403	-0.576987	0.022040	-0.314302	-0.023895	0.017312	-0.005907
470	2.358519	0.005000	-0.232617	-0.292888	-10.006200	-0.576874	0.023057	-0.314176	-0.026164	0.019855	-0.006702
471	2.363519	0.005000	-0.197424	-0.255672	-10.026432	-0.576761	0.024073	-0.314050	-0.029591	0.012183	-0.016999
472	2.368519	0.005000	-0.273859	-0.255471	-9.986169	-0.576648	0.025090	-0.313924	-0.019759	0.008390	0.001110
473	2.373519	0.005000	-0.237345	-0.235440	-9.989438	-0.576535	0.026106	-0.313798	-0.015487	0.018209	-0.020506
474	2.378519	0.005000	-0.174605	-0.274680	-9.963010	-0.576422	0.027123	-0.313672	-0.014673	0.007636	-0.005058
475	2.383519	0.005000	-0.156960	-0.156960	-10.028818	-0.576309	0.028139	-0.313545	-0.021193	0.010904	-0.016323
476	2.388519	0.005000	-0.219653	-0.180413	-10.037774	-0.576196	0.029156	-0.313419	-0.019726	0.016606	-0.020522
477	2.393519	0.005000	-0.235440	-0.132762	-9.897635	-0.576190	0.029815	-0.313413	-0.010945	0.016052	-0.015295
478	2.398519	0.005000	-0.313920	-0.221415	-9.969796	-0.576416	0.029702	-0.313665	-0.029066	0.017996	-0.021161
479	2.403519	0.005000	-0.183031	-0.235440	-10.058342	-0.576642	0.029589	-0.313917	-0.027398	0.010767	-0.010849
480	2.408519	0.005000	-0.260350	-0.301465	-9.927720	-0.576868	0.029476	-0.314169	-0.017307	0.014135	-0.016038
481	2.413519	0.005000	-0.291055	-0.279622	-9.983335	-0.577094	0.029364	-0.314422	-0.029381	0.010405	-0.012548
482	2.418519	0.005000	-0.245979	-0.295759	-10.045440	-0.577319	0.029251	-0.314674	-0.025302	0.007782	-0.007610
483	2.423519	0.005000	-0.186332	-0.206068	-10.055308	-0.577545	0.029138	-0.314926	-0.014697	0.011783	-0.011791
484	2.428519	0.005000	-0.196200	-0.313920	-9.997354	-0.577771	0.029025	-0.315178	-0.008259	0.007124	-0.013326
485	2.433519	0.005000	-0.141190	-0.259034	-9.927720	-0.577997	0.028912	-0.315430	-0.015198	0.012982	-0.018962
486	2.438519	0.005000	-0.260118	-0.267399	-9.935001	-0.578223	0.028799	-0.315683	-0.015548	0.010433	0.005101
487	2.443519	0.005000	-0.123979	-0.274680	-9.993683	-0.578448	0.028686	-0.315935	-0.003501	0.017387	-0.013600
488	2.448519	0.005000	-0.190964	-0.190964	-9.927720	-0.578674	0.028573	-0.316187	0.004602	0.006813	-0.012637
489	2.453519	0.005000	-0.200464	-0.200464	-10.088944	-0.578900	0.028460	-0.316439	0.000254	0.009831	-0.010606
490	2.458519	0.005000	-0.164303	-0.239111	-10.045440	-0.579071	0.028358	-0.316521	-0.011672	0.016959	-0.027661
491	2.463519	0.005000	-0.274680	-0.272031	-10.155213	-0.578732	0.028358	-0.315007	-0.004505	0.018039	-0.005820
492	2.468519	0.005000	-0.237531	-0.233349	-10.006200	-0.578393	0.028358	-0.313493	-0.006226	0.020042	-0.010756
493	2.473519	0.005000	-0.236509	-0.158029	-10.044371	-0.578055	0.028358	-0.311979	-0.003768	0.016097	-0.013168
494	2.478519	0.005000	-0.235440	-0.157006	-10.045394	-0.577716	0.028358	-0.310464	0.001141	0.015627	-0.012102
495	2.483519	0.005000	-0.311968	-0.196200	-10.044464	-0.577377	0.028358	-0.308950	0.000160	0.020146	-0.004795
496	2.488519	0.005000	-0.315438	-0.156960	-9.969996	-0.577038	0.028358	-0.307436	0.009892	0.013666	-0.016705
497	2.493519	0.005000	-0.277221	-0.235440	-10.045440	-0.576699	0.028358	-0.305922	0.006412	0.015269	-0.007465
498	2.498519	0.005000	-0.307678	-0.274680	-10.006200	-0.576360	0.028358	-0.304407	-0.020252	0.013434	-0.018343
499	2.503519	0.005000	-0.274680	-0.282891	-9.861556	-0.576021	0.028358	-0.302893	-0.012308	0.009534	-0.017965
500	2.508519	0.005000	-0.206455	-0.240568	-10.035185	-0.575682	0.028358	-0.301379	-0.019356	0.011026	-0.010359
501	2.513519	0.005000	-0.117720	-0.235440	-10.078530	-0.575343	0.028358	-0.299865	-0.009574	0.004298	-0.011323
502	2.518519	0.005000	-0.156960	-0.177037	-10.058825	-0.575004	0.028358	-0.298351	-0.014440	0.012146	-0.007789
503	2.523519	0.005000	-0.203915	-0.227725	-9.982390	-0.574665	0.028358	-0.296836	-0.019287	0.020739	-0.002665
504	2.528519	0.005000	-0.196200	-0.235440	-9.927720	-0.574828	0.028759	-0.297787	-0.023574	0.023340	-0.009732
505	2.533519	0.005000	-0.166255	-0.175550	-10.036145	-0.575054	0.029211	-0.299048	-0.022175	0.008467	-0.014252
506	2.538519	0.005000	-0.206517	-0.196200	-10.121891	-0.575279	0.029663	-0.300310	-0.022406	0.015802	-0.015744
507	2.543519	0.005000	-0.196200	-0.117720	-10.079426	-0.575505	0.030115	-0.301571	-0.021966	0.020649	-0.028482
508	2.548519	0.005000	-0.211391	-0.184176	-10.057464	-0.575731	0.030566	-0.302832	-0.011997	0.013293	-0.011349
509	2.553519	0.005000	-0.183296	-0.169864	-9.966960	-0.575957	0.031018	-0.304093	-0.007073	0.030207	-0.015235
510	2.558519	0.005000	-0.207586	-0.182273	-9.955574	-0.576183	0.031470	-0.305355	-0.012085	0.015495	-0.011174
511	2.563519	0.005000	-0.186257	-0.260032	-10.011438	-0.576409	0.031922	-0.306616	-0.014064	0.008719	-0.007664
512	2.568519	0.005000	-0.235440	-0.172452	-9.903972	-0.576635	0.032374	-0.307877	-0.015535	0.014740	-0.015172
513	2.573519	0.005000	-0.313920	-0.117720	-9.904994	-0.576861	0.032825	-0.309138	-0.013175	0.007347	-0.010841
514	2.578519	0.005000	-0.279385	-0.117720	-9.944987	-0.577087	0.033277	-0.310399	-0.035893	0.016359	-0.009675
515	2.583519	0.005000	-0.292759	-0.099641	-9.909641	-0.577312	0.033729	-0.311661	-0.028985	0.013009	-0.005706
516	2.588519	0.005000	-0.274680	-0.137859	-9.947859	-0.577538	0.034181	-0.312922	-0.020866	0.006589	-0.010564
517	2.593519	0.005000	-0.235440	-0.235363	-10.006277	-0.577231	0.034176	-0.313418	-0.015141	0.014137	-0.006327
518	2.598519	0.005000	-0.235440	-0.216881	-10.024759	-0.576667	0.033950	-0.313544	-0.027165	0.012984	-0.020074
519	2.603519	0.005000	-0.217888	-0.156960	-9.988648	-0.576102	0.033724	-0.313670	-0.020361	0.013820	-0.019470
520	2.608519	0.005000	-0.229655	-0.196200	-9.944448	-0.575537	0.033498	-0.313796	-0.016290	0.007941	-0.008146
521	2.613519	0.005000	-0.219468	-0.156960	-9.982932	-0.574972	0.033272	-0.313923	-0.018482	0.020151	-0.020826
522	2.618519	0.005000	-0.171909	-0.181251	-10.060389	-0.574407	0.033046	-0.314049	-0.011775	0.011220	-0.012442
523	2.623519	0.005000	-0.260581	-0.131819	-10.101838	-0.573843	0.032820	-0.314175	-0.002574	0.015969	-0.007620
524	2.628519	0.005000	-0.170345	-0.143575	-10.057911	-0.573278	0.032594	-0.314301	-0.002496	0.022655	-0.024017
525	2.633519	0.005000	-0.208562	-0.181684	-9.927720	-0.572713	0.032369	-0.314427	-0.007253	0.018037	-0.009737
526	2.638519	0.005000	-0.246920	-0.196200	-9.989921	-0.572148	0.032143	-0.314553	-0.011469	0.025741	-0.012344
527	2.643519	0.005000	-0.313920	-0.100075	-10.067035	-0.571584	0.031917	-0.314680	0.003119	0.013769	-0.010019
528	2.648519	0.005000	-0.245355	-0.196200	-10.074905	-0.571019	0.031691	-0.314806	0.000582	0.014719	-0.004886
529	2.653519	0.005000	-0.165818	-0.165818	-10.123920	-0.570454	0.031465	-0.314932	-0.012352	0.020057	-0.011606
530	2.658519	0.005000	-0.235440	-0.251836	-10.051887	-0.570253	0.031291	-0.314942	-0.018743	0.011414	-0.008585
531	2.663519	0.005000	-0.306732	-0.267492	-9.995712	-0.570479	0.031178	-0.314816	-0.023376	0.019146	-0.009351
532	2.668519	0.005000	-0.175679	-0.189960	-10.123920	-0.570705	0.031065	-0.314690	-0.029772	0.017026	-0.013378
533	2.673519	0.005000	-0.246656	-0.162568	-10.079072	-0.570931	0.030952	-0.314563	-0.016896	0.018451	-0.024130
534	2.678519	0.005000	-0.279265	-0.161545	-10.001615	-0.571157	0.030839	-0.314437	-0.013722	0.014636	-0.012949
535	2.683519	0.005000	-0.310357	-0.199763	-9.931283	-0.571383	0.030726	-0.314311	-0.013182	0.017167	-0.024455
536	2.688519	0.005000	-0.310899	-0.193179	-9.930741	-0.571609	0.030613	-0.314185	-0.021161	0.011804	-0.006158
537	2.693519	0.005000	-0.278677	-0.196200	-10.045440	-0.571835	0.030500	-0.314058	0.001812	0.014070	-0.011307
538	2.698519	0.005000	-0.314896	-0.194248	-9.966960	-0.572061	0.030387	-0.313932	-0.008177	0.017082	-0.012615
539	2.703519	0.005000	-0.274246	-0.118588	-9.888914	-0.572287	0.030274	-0.313806	-0.003921	0.013184	-0.012129
540	2.708519	0.005000	-0.274091	-0.234851	-10.005023	-0.572513	0.030161	-0.313680	-0.000088	0.015804	-0.012864
541	2.713519	0.005000	-0.269847	-0.389178	-10.040607	-0.572739	0.030048	-0.313554	-0.005774	0.021078	-0.016962
542	2.718519	0.005000	-0.274680	-0.279040	-10.008380	-0.572965	0.029936	-0.313427	-0.005186	0.013928	-0.002822
543	2.723519	0.005000	-0.235440	-0.202552	-9.970136	-0.573333	0.029709	-0.313047	-0.003792	0.019744	-0.012984
544	2.728519	0.005000	-0.231242	-0.192002	-9.971158	-0.574124	0.029144	-0.311912	-0.000361	0.011165	-0.016285
545	2.733519	0.005000	-0.245066	-0.240253	-9.986948	-0.574914	0.028579	-0.310777	0.005397	0.017265	-0.015724
546	2.738519	0.005000	-0.302363	-0.308142	-10.033883	-0.575705	0.028014	-0.309642	-0.002732	0.018561	-0.004218
547	2.743519	0.005000	-0.288282	-0.346359	-10.038639	-0.576496	0.027450	-0.308507	-0.012089	0.010818	-0.008668
548	2.748519	0.005000	-0.306489	-0.196200	-10.006200	-0.577286	0.026885	-0.307371	-0.010244	0.028020	-0.011118
549	2.753519	0.005000	-0.204565	-0.196200	-10.084680	-0.578077	0.026320	-0.306236	-0.016708	0.012202	-0.006181
550	2.758519	0.005000	-0.196200	-0.196200	-10.006200	-0.578868	0.025755	-0.305101	-0.018887	0.026548	-0.022251
551	2.763519	0.005000	-0.185790	-0.196200	-10.160759	-0.579659	0.025191	-0.303966	-0.017712	0.016702	-0.005748
552	2.768519	0.005000	-0.218376	-0.235440	-9.989136	-0.580449	0.024626	-0.302831	-0.015330	0.019834	-0.018257
553	2.773519	0.005000	-0.289970	-0.262705	-9.966960	-0.581240	0.024061	-0.301696	-0.016062	0.008792	-0.009479
554	2.778519	0.005000	-0.235440	-0.287677	-9.979957	-0.582031	0.023496	-0.300560	-0.026388	0.017531	-0.005612
555	2.783519	0.005000	-0.209907	-0.249147	-10.072855	-0.582821	0.022931	-0.299425	-0.035064	0.017627	-0.010595
556	2.788519	0.005000	-0.260118	-0.142398	-10.001754	-0.583620	0.022362	-0.298319	-0.018764	0.014209	-0.003828
557	2.793519	0.005000	-0.196200	-0.180616	-10.014271	-0.584637	0.021684	-0.297940	-0.035719	0.013475	-0.005186
558	2.798519	0.005000	-0.235440	-0.218833	-10.140527	-0.585655	0.021006	-0.297562	-0.029547	0.006219	-0.006642
559	2.803519	0.005000	-0.257524	-0.252596	-9.984116	-0.586672	0.020328	-0.297183	-0.027112	0.003532	-0.007341
560	2.808519	0.005000	-0.196200	-0.232543	-9.924823	-0.587689	0.019650	-0.296804	-0.023884	0.020351	-0.008858
561	2.813519	0.005000	-0.196200	-0.177006	-9.967812	-0.588706	0.018972	-0.296426	-0.019387	0.015039	-0.009658
562	2.818519	0.005000	-0.196200	-0.156960	-10.084680	-0.589723	0.018294	-0.296047	-0.017661	0.019745	-0.013374
563	2.823519	0.005000	-0.233132	-0.156960	-10.024666	-0.590740	0.017616	-0.295669	-0.008855	0.020612	-0.002890
564	2.828519	0.005000	-0.213643	-0.257237	-10.145717	-0.591757	0.016938	-0.295290	-0.006415	0.015195	-0.014240
565	2.833519	0.005000	-0.252073	-0.319893	-10.012173	-0.592774	0.016260	-0.294912	-0.006109	0.012341	-0.008059
566	2.838519	0.005000	-0.258801	-0.274680	-9.974442	-0.593791	0.015582	-0.294533	-0.014881	0.015534	-0.019809
567	2.843519	0.005000	-0.211056	-0.151631	-9.927720	-0.594808	0.014904	-0.294155	-0.022077	0.009749	-0.007966
568	2.848519	0.005000	-0.288514	-0.156960	-9.863074	-0.595825	0.014226	-0.293776	-0.025993	0.009663	-0.002555
569	2.853519	0.005000	-0.327220	-0.222140	-9.979930	-0.596842	0.013548	-0.293397	-0.015971	0.020749	-0.013811
570	2.858519	0.005000	-0.223171	-0.169229	-9.861509	-0.596359	0.013902	-0.294275	0.001587	0.012128	-0.013969
571	2.863519	0.005000	-0.184953	-0.196200	-9.944466	-0.595568	0.014466	-0.295410	-0.009957	0.019120	-0.006513
572	2.868519	0.005000	-0.206424	-0.175751	-9.966960	-0.594778	0.015031	-0.296545	-0.019635	0.013352	-0.013813
573	2.873519	0.005000	-0.225758	-0.147278	-10.015882	-0.593987	0.015596	-0.297680	-0.016590	0.016284	-0.007689
574	2.878519	0.005000	-0.235440	-0.235440	-10.137181	-0.593196	0.016161	-0.298816	-0.016624	0.024112	-0.018570
575	2.883519	0.005000	-0.345523	-0.164597	-9.998563	-0.592406	0.016726	-0.299951	-0.011311	0.006812	-0.011197
576	2.888519	0.005000	-0.313920	-0.242522	-9.895562	-0.591615	0.017290	-0.301086	-0.009026	0.017358	-0.006200
577	2.893519	0.005000	-0.241513	-0.235440	-9.939865	-0.590824	0.017855	-0.302221	-0.005558	0.014677	-0.020954
578	2.898519	0.005000	-0.284780	-0.264580	-10.118870	-0.590034	0.018420	-0.303356	-0.010320	0.007338	-0.007057
579	2.903519	0.005000	-0.196200	-0.196200	-10.080187	-0.589243	0.018985	-0.304491	-0.022723	0.020736	-0.012563
580	2.908519	0.005000	-0.199670	-0.192730	-10.006200	-0.588452	0.019549	-0.305626	-0.021075	0.016307	-0.016828
581	2.913519	0.005000	-0.235440	-0.235440	-9.932615	-0.587662	0.020114	-0.306762	-0.016878	0.018683	-0.010052
582	2.918519	0.005000	-0.272775	-0.239251	-10.045440	-0.586871	0.020679	-0.307897	-0.018242	0.009057	-0.013357
583	2.923519	0.005000	-0.235440	-0.234557	-9.966960	-0.586010	0.021174	-0.308644	-0.019894	0.015315	-0.016550
584	2.928519	0.005000	-0.235440	-0.157099	-9.966960	-0.585107	0.021626	-0.309149	-0.027324	0.017222	-0.006318
585	2.933519	0.005000	-0.273518	-0.196200	-9.813486	-0.584203	0.022078	-0.309653	-0.033334	0.012928	-0.002952
586	2.938519	0.005000	-0.197904	-0.158664	-9.924312	-0.583299	0.022530	-0.310158	-0.034181	0.015983	-0.021094
587	2.943519	0.005000	-0.235440	-0.269227	-10.000747	-0.582395	0.022982	-0.310663	-0.026156	0.018362	-0.012835
588	2.948519	0.005000	-0.235440	-0.231691	-10.077182	-0.581491	0.023434	-0.311168	-0.031932	0.017414	-0.016556
589	2.953519	0.005000	-0.309629	-0.169833	-9.966960	-0.580587	0.023886	-0.311672	-0.022056	0.016929	-0.016970
590	2.958519	0.005000	-0.319234	-0.201514	-9.933034	-0.579683	0.024338	-0.312177	-0.023044	0.006654	-0.006269
591	2.963519	0.005000	-0.268344	-0.156960	-9.954288	-0.578779	0.024790	-0.312682	-0.034900	0.019159	-0.016259
592	2.968519	0.005000	-0.371719	-0.156960	-9.999306	-0.577875	0.025242	-0.313187	-0.035209	0.014025	-0.010370
593	2.973519	0.005000	-0.282596	-0.156960	-9.959044	-0.576971	0.025694	-0.313691	-0.021767	0.012020	-0.006630
594	2.978519	0.005000	-0.252559	-0.187640	-10.106801	-0.576067	0.026146	-0.314196	-0.027618	0.012292	-0.021233
595	2.983519	0.005000	-0.244921	-0.166441	-9.946682	-0.575163	0.026598	-0.314701	-0.016411	0.006659	-0.018704
596	2.988519	0.005000	-0.206703	-0.214434	-9.945954	-0.574673	0.026682	-0.314897	-0.029431	0.014791	-0.015359
597	2.993519	0.005000	-0.196200	-0.274680	-9.983149	-0.574786	0.026230	-0.314645	-0.032117	0.019461	-0.018545
598	2.998519	0.005000	-0.277716	-0.259576	-9.991096	-0.574899	0.025778	-0.314392	-0.023943	0.017167	-0.016557
599	3.003519	0.005000	-0.313889	-0.222350	-9.953870	-0.575012	0.025326	-0.314140	-0.024065	0.014376	-0.005755
600	3.008519	0.005000	-0.274680	-0.235440	-10.031327	-0.575125	0.024874	-0.313888	-0.032257	0.017240	-0.018305
601	3.013519	0.005000	-0.260025	-0.220785	-9.966960	-0.575238	0.024422	-0.313635	-0.035010	0.013404	-0.013946
602	3.018519	0.005000	-0.196200	-0.172637	-10.029763	-0.575351	0.023970	-0.313383	-0.040147	0.014900	-0.013845
603	3.023519	0.005000	-0.173660	-0.179500	-10.039600	-0.575464	0.023518	-0.313131	-0.031916	0.023364	-0.017604
604	3.028519	0.005000	-0.161685	-0.200925	-9.984218	-0.575577	0.023066	-0.312878	-0.021687	0.009494	-0.008610
605	3.033519	0.005000	-0.198897	-0.156960	-9.930417	-0.575690	0.022614	-0.312626	-0.023283	0.019795	-0.009845
606	3.038519	0.005000	-0.216153	-0.137673	-9.889146	-0.575803	0.022162	-0.312374	-0.015245	0.017299	-0.013464
607	3.043519	0.005000	-0.274680	-0.196200	-10.025358	-0.575916	0.021710	-0.312121	-0.021945	0.008548	-0.012238
608	3.048519	0.005000	-0.253813	-0.115226	-10.082186	-0.576029	0.021258	-0.311869	-0.025499	0.013183	-0.012946
609	3.053519	0.005000	-0.313920	-0.156960	-10.062790	-0.576119	0.021031	-0.311667	-0.016703	0.011215	-0.006102
610	3.058519	0.005000	-0.297112	-0.213008	-10.129543	-0.576119	0.021709	-0.311667	-0.016325	0.016418	-0.014891
611	3.063519	0.005000	-0.337374	-0.211986	-10.061226	-0.576119	0.022387	-0.311667	-0.015170	0.016786	-0.015248
612	3.068519	0.005000	-0.210963	-0.205913	-10.079630	-0.576119	0.023064	-0.311667	-0.016078	0.017110	-0.015692
613	3.073519	0.005000	-0.209941	-0.274680	-9.992459	-0.576119	0.023742	-0.311667	-0.009968	0.026177	-0.015919
614	3.078519	0.005000	-0.261481	-0.222241	-9.928076	-0.576119	0.024420	-0.311667	0.000336	0.017990	-0.017028
615	3.083519	0.005000	-0.220553	-0.184024	-10.018376	-0.576119	0.025097	-0.311667	-0.009229	0.021576	-0.016193
616	3.088519	0.005000	-0.223821	-0.161344	-10.061443	-0.576119	0.025775	-0.311667	-0.026071	0.014208	-0.004080
617	3.093519	0.005000	-0.206812	-0.156960	-10.006200	-0.576119	0.026453	-0.311667	-0.029115	0.022747	-0.004874
618	3.098519	0.005000	-0.264208	-0.147371	-10.035851	-0.576119	0.027130	-0.311667	-0.008212	0.010962	-0.001991
619	3.103519	0.005000	-0.295857	-0.117720	-9.927720	-0.576119	0.027808	-0.311667	-0.014287	0.016731	-0.011437
620	3.108519	0.005000	-0.313920	-0.117720	-9.982978	-0.576119	0.028486	-0.311667	-0.015777	0.017545	-0.010453
621	3.113519	0.005000	-0.313920	-0.163947	-9.985240	-0.576119	0.029164	-0.311667	-0.014732	0.009525	0.002658
622	3.118519	0.005000	-0.307476	-0.156960	-9.959942	-0.576119	0.029841	-0.311667	-0.025038	0.009917	-0.009517
623	3.123519	0.005000	-0.240862	-0.190778	-10.130628	-0.576453	0.029740	-0.312289	-0.024420	0.016455	-0.012380
624	3.128519	0.005000	-0.200600	-0.226641	-10.006200	-0.576792	0.029627	-0.312920	-0.020200	0.015415	-0.012059
625	3.133519	0.005000	-0.235440	-0.164675	-10.037725	-0.577131	0.029514	-0.313551	-0.028152	0.010019	-0.016882
626	3.138519	0.005000	-0.238275	-0.269010	-10.000530	-0.577470	0.029400	-0.314182	-0.024129	0.015577	-0.006720
627	3.143519	0.005000	-0.198013	-0.121345	-9.968773	-0.577809	0.029287	-0.314812	-0.011289	0.005836	0.006089
628	3.148519	0.005000	-0.273425	-0.197455	-10.004945	-0.578148	0.029174	-0.315443	-0.021746	0.009544	-0.007063
629	3.153519	0.005000	-0.274928	-0.274184	-10.006200	-0.578487	0.029061	-0.316074	-0.024936	0.014446	-0.012289
630	3.158519	0.005000	-0.236989	-0.196200	-9.890804	-0.578826	0.028948	-0.316705	-0.030561	0.015063	-0.007867
631	3.163519	0.005000	-0.387009	-0.233643	-10.229061	-0.579165	0.028835	-0.317336	-0.029265	0.015763	-0.003200
632	3.168519	0.005000	-0.164024	-0.193845	-9.868078	-0.579504	0.028722	-0.317967	-0.018680	0.019891	-0.012437
633	3.173519	0.005000	-0.271303	-0.078480	-9.839109	-0.579844	0.028609	-0.318598	-0.007129	0.019914	-0.008415
634	3.178519	0.005000	-0.200586	-0.305148	-10.210939	-0.580183	0.028496	-0.319229	-0.011054	0.022770	-0.014050
635	3.183519	0.005000	-0.304036	-0.274680	-10.138745	-0.580522	0.028383	-0.319860	-0.006844	0.017911	-0.010061
636	3.188519	0.005000	-0.280644	-0.274680	-9.900408	-0.580421	0.028534	-0.319411	-0.009354	0.018261	-0.011227
637	3.193519	0.005000	-0.235440	-0.235440	-9.888480	-0.580195	0.028760	-0.318654	-0.018923	0.008025	-0.013939
638	3.198519	0.005000	-0.164489	-0.242969	-10.030382	-0.579969	0.028986	-0.317897	-0.045360	0.003760	-0.006186
639	3.203519	0.005000	-0.274680	-0.134823	-9.975511	-0.579743	0.029212	-0.317140	-0.045101	0.015838	-0.014458
640	3.208519	0.005000	-0.265106	-0.108146	-9.917201	-0.579517	0.029438	-0.316383	-0.033212	0.009098	-0.013304
641	3.213519	0.005000	-0.274680	-0.136477	-9.857756	-0.579291	0.029664	-0.315626	-0.024076	0.013162	-0.004573
642	3.218519	0.005000	-0.274680	-0.196200	-9.955822	-0.579065	0.029890	-0.314869	-0.025182	0.015852	-0.013772
643	3.223519	0.005000	-0.208361	-0.144799	-10.033279	-0.578839	0.030116	-0.314111	-0.015685	0.014352	-0.006511
644	3.228519	0.005000	-0.196200	-0.156960	-10.058623	-0.578613	0.030342	-0.313354	-0.006007	0.016848	-0.003991
645	3.233519	0.005000	-0.223682	-0.221699	-10.084680	-0.578387	0.030568	-0.312597	-0.012448	0.011242	-0.006050
646	3.238519	0.005000	-0.230436	-0.210948	-9.903228	-0.578161	0.030794	-0.311840	-0.002046	0.024290	-0.017082
647	3.243519	0.005000	-0.243139	-0.196200	-10.006200	-0.577935	0.031020	-0.311083	-0.011900	0.022403	-0.005145
648	3.248519	0.005000	-0.207338	-0.168098	-10.073542	-0.577709	0.031246	-0.310326	-0.014134	0.022742	-0.014661
649	3.253519	0.005000	-0.274680	-0.100370	-10.102030	-0.577676	0.031407	-0.310072	-0.005372	0.014284	-0.023587
650	3.258519	0.005000	-0.256307	-0.096853	-10.068801	-0.577789	0.031520	-0.310198	-0.011807	0.011164	-0.012691
651	3.263519	0.005000	-0.235440	-0.156960	-10.065285	-0.577902	0.031633	-0.310324	-0.005850	0.022250	-0.022697
652	3.268519	0.005000	-0.333222	-0.117720	-10.046075	-0.578015	0.031746	-0.310450	0.004335	0.007007	-0.011665
653	3.273519	0.005000	-0.334880	-0.175240	-10.048120	-0.578128	0.031859	-0.310576	-0.004544	0.026117	-0.019229
654	3.278519	0.005000	-0.284130	-0.243248	-10.028182	-0.578241	0.031972	-0.310703	-0.010810	0.017816	-0.014307
655	3.283519	0.005000	-0.196200	-0.274680	-10.022636	-0.578354	0.032085	-0.310829	-0.013145	0.013029	-0.005054
656	3.288519	0.005000	-0.172653	-0.156960	-10.053294	-0.578467	0.032198	-0.310955	-0.022556	0.023057	-0.021577
657	3.293519	0.005000	-0.171630	-0.196200	-10.020870	-0.578580	0.032311	-0.311081	-0.016577	0.022558	-0.011523
658	3.298519	0.005000	-0.288328	-0.209848	-10.007904	-0.578692	0.032424	-0.311207	-0.025835	0.018589	-0.007309
659	3.303519	0.005000	-0.287708	-0.183094	-9.980143	-0.578805	0.032537	-0.311333	-0.027059	0.017551	-0.012621
660	3.308519	0.005000	-0.259607	-0.172033	-10.024263	-0.578918	0.032650	-0.311460	-0.033829	0.019448	-0.011805
661	3.313519	0.005000	-0.252558	-0.106659	-10.023318	-0.579031	0.032763	-0.311586	-0.039874	0.017710	-0.008389
662	3.318519	0.005000	-0.245599	-0.156960	-10.035281	-0.579104	0.032475	-0.311532	-0.032195	0.016970	-0.000490
663	3.323519	0.005000	-0.196200	-0.225944	-10.075184	-0.579104	0.031458	-0.311154	-0.025900	0.013234	-0.011111
664	3.328519	0.005000	-0.165434	-0.156960	-10.084680	-0.579104	0.030440	-0.310775	-0.027748	0.014355	-0.015121
665	3.333519	0.005000	-0.242981	-0.181119	-9.991119	-0.579104	0.029423	-0.310397	-0.034514	0.013636	-0.013197
666	3.338519	0.005000	-0.242334	-0.117720	-9.920826	-0.579104	0.028406	-0.310018	-0.025890	0.015716	-0.002252
667	3.343519	0.005000	-0.268809	-0.117720	-9.927720	-0.579104	0.027389	-0.309640	-0.034208	0.015407	-0.010789
668	3.348519	0.005000	-0.313920	-0.073631	-9.962111	-0.579104	0.026372	-0.309261	-0.021149	0.014146	-0.012190
669	3.353519	0.005000	-0.306144	-0.078480	-9.966960	-0.579104	0.025355	-0.308883	-0.005644	0.013685	-0.001411
670	3.358519	0.005000	-0.196200	-0.156960	-10.078112	-0.579104	0.024338	-0.308504	-0.010827	0.018274	-0.017691
671	3.363519	0.005000	-0.235440	-0.159222	-10.003938	-0.579104	0.023321	-0.308125	0.005230	0.012103	-0.015208
672	3.368519	0.005000	-0.235440	-0.156960	-10.006200	-0.579104	0.022304	-0.307747	-0.006228	0.011795	-0.006486
673	3.373519	0.005000	-0.273983	-0.197594	-10.046834	-0.579104	0.021287	-0.307368	-0.005255	0.024622	-0.014503
674	3.378519	0.005000	-0.352184	-0.235765	-10.162835	-0.579104	0.020270	-0.306990	-0.013312	0.019274	-0.002768
675	3.383519	0.005000	-0.158308	-0.312572	-10.084680	-0.579087	0.019503	-0.306741	-0.023655	0.015991	-0.020630
676	3.388519	0.005000	-0.193830	-0.237810	-9.890850	-0.578974	0.020181	-0.307246	-0.031629	0.013906	-0.012333
677	3.393519	0.005000	-0.308023	-0.084377	-10.039543	-0.578862	0.020858	-0.307750	-0.027899	0.010725	-0.011418
678	3.398519	0.005000	-0.239375	-0.113785	-9.974830	-0.578749	0.021536	-0.308255	-0.040296	0.017307	-0.025414
679	3.403519	0.005000	-0.161917	-0.152003	-10.114005	-0.578636	0.022214	-0.308759	-0.036955	0.013640	-0.013953
680	3.408519	0.005000	-0.235440	-0.112139	-10.028524	-0.578523	0.022891	-0.309264	-0.024491	0.017278	-0.012885
681	3.413519	0.005000	-0.268158	-0.150438	-9.921198	-0.578410	0.023569	-0.309768	-0.022602	0.009384	-0.016293
682	3.418519	0.005000	-0.164504	-0.149416	-9.959416	-0.578297	0.024247	-0.310273	-0.027670	0.013835	-0.009179
683	3.423519	0.005000	-0.187633	-0.148393	-9.975527	-0.578184	0.024924	-0.310777	-0.035736	0.014811	-0.004401
684	3.428519	0.005000	-0.265555	-0.135969	-9.976085	-0.578071	0.025602	-0.311281	-0.018285	0.008797	-0.005182
685	3.433519	0.005000	-0.264533	-0.204999	-10.123920	-0.577958	0.026280	-0.311786	-0.003739	0.019047	-0.009639
686	3.438519	0.005000	-0.246609	-0.291581	-10.095849	-0.577845	0.026957	-0.312290	-0.016490	0.026572	-0.020024
687	3.443519	0.005000	-0.223264	-0.142073	-10.033264	-0.577732	0.027635	-0.312795	-0.026199	0.020217	-0.016987
688	3.448519	0.005000	-0.183466	-0.183466	-10.111186	-0.577620	0.028313	-0.313299	-0.038214	0.009934	-0.008482
689	3.453519	0.005000	-0.286407	-0.143204	-10.149404	-0.577401	0.028147	-0.313333	-0.041849	0.016224	-0.010690
690	3.458519	0.005000	-0.328699	-0.171739	-10.187621	-0.577175	0.027921	-0.313333	-0.039735	0.018269	-0.009668
691	3.463519	0.005000	-0.290001	-0.141639	-10.123920	-0.576949	0.027695	-0.313333	-0.034241	0.002862	-0.006008
692	3.468519	0.005000	-0.284471	-0.117720	-10.038887	-0.576724	0.027470	-0.313333	-0.034480	0.026539	-0.022897
693	3.473519	0.005000	-0.257314	-0.156960	-10.040932	-0.576498	0.027244	-0.313333	-0.025515	0.015519	-0.006497
694	3.478519	0.005000	-0.274680	-0.196200	-9.942870	-0.576272	0.027018	-0.313333	-0.026608	0.014687	-0.019184
695	3.483519	0.005000	-0.274680	-0.196200	-9.965581	-0.576046	0.026792	-0.313333	-0.019836	0.012480	-0.018962
696	3.488519	0.005000	-0.274680	-0.176913	-10.006200	-0.575820	0.026566	-0.313333	-0.021751	0.014076	-0.008689
697	3.493519	0.005000	-0.334896	-0.117720	-10.081969	-0.575594	0.026340	-0.313333	-0.031643	0.022412	-0.015190
698	3.498519	0.005000	-0.414184	-0.091607	-10.128249	-0.575368	0.026114	-0.313333	-0.032889	0.010099	-0.002671
699	3.503519	0.005000	-0.330620	-0.117720	-10.090520	-0.575142	0.025888	-0.313333	-0.028514	0.007033	-0.000313
700	3.508519	0.005000	-0.243325	-0.094157	-9.990523	-0.574916	0.025662	-0.313333	-0.033231	0.018803	-0.012941
701	3.513519	0.005000	-0.274680	-0.054071	-10.045440	-0.574690	0.025436	-0.313333	-0.030733	0.018098	-0.013258
702	3.518519	0.005000	-0.221343	-0.078480	-9.952863	-0.574708	0.025535	-0.313242	-0.024000	0.010836	-0.020958
703	3.523519	0.005000	-0.209275	-0.104645	-10.006200	-0.574821	0.025761	-0.313116	-0.022426	0.009666	-0.007931
704	3.528519	0.005000	-0.196200	-0.117720	-9.966960	-0.574934	0.025987	-0.312990	-0.011424	0.026025	-0.024884
705	3.533519	0.005000	-0.258460	-0.089990	-10.010909	-0.575047	0.026213	-0.312864	-0.004128	0.006077	-0.017358
706	3.538519	0.005000	-0.313920	-0.196200	-10.016688	-0.575160	0.026439	-0.312738	-0.013725	0.015272	-0.023632
707	3.543519	0.005000	-0.265215	-0.156960	-9.966960	-0.575273	0.026665	-0.312612	-0.002094	0.016230	-0.009960
708	3.548519	0.005000	-0.266133	-0.226893	-9.975507	-0.575386	0.026891	-0.312486	-0.012326	0.011267	-0.000334
709	3.553519	0.005000	-0.235440	-0.133521	-9.998299	-0.575499	0.027117	-0.312360	-0.021864	0.020285	-0.015128
710	3.558519	0.005000	-0.189322	-0.117720	-9.966960	-0.575611	0.027343	-0.312234	-0.027503	0.008535	-0.005492
711	3.563519	0.005000	-0.268824	-0.078480	-9.939432	-0.575724	0.027569	-0.312108	-0.027005	0.014744	-0.018891
712	3.568519	0.005000	-0.240754	-0.117720	-9.972274	-0.575837	0.027794	-0.311982	-0.017987	0.009901	-0.010322
713	3.573519	0.005000	-0.261807	-0.126302	-10.001909	-0.575950	0.028020	-0.311855	-0.002584	0.007101	-0.015048
714	3.578519	0.005000	-0.241977	-0.114451	-9.960423	-0.576063	0.028246	-0.311729	-0.007955	0.016513	-0.021528
715	3.583519	0.005000	-0.272406	-0.156960	-9.923172	-0.576119	0.028301	-0.311731	-0.010101	0.016787	-0.011014
716	3.588519	0.005000	-0.235440	-0.078480	-9.963552	-0.576119	0.028188	-0.311857	-0.026163	0.005517	-0.006869
717	3.593519	0.005000	-0.235440	-0.156278	-9.966278	-0.576119	0.028075	-0.311983	-0.022105	0.012540	-0.004965
718	3.598519	0.005000	-0.352138	-0.117720	-9.927720	-0.576119	0.027962	-0.312109	-0.012566	0.013161	-0.017952
719	3.603519	0.005000	-0.312123	-0.117720	-10.006200	-0.576119	0.027849	-0.312235	-0.011679	0.012756	-0.019381
720	3.608519	0.005000	-0.162723	-0.155039	-10.002358	-0.576119	0.027736	-0.312361	-0.012811	0.014013	-0.013294
721	3.613519	0.005000	-0.271751	-0.196200	-10.006200	-0.576119	0.027624	-0.312487	-0.014715	0.014088	-0.016175
722	3.618519	0.005000	-0.271153	-0.164015	-10.156105	-0.576119	0.027511	-0.312613	-0.008797	0.017026	-0.004472
723	3.623519	0.005000	-0.239948	-0.187184	-10.154144	-0.576119	0.027398	-0.312739	-0.002940	0.018517	-0.017922
724	3.628519	0.005000	-0.207261	-0.117720	-9.938781	-0.576119	0.027285	-0.312865	-0.009958	0.012247	-0.006657
725	3.633519	0.005000	-0.268127	-0.215781	-9.999647	-0.576119	0.027172	-0.312991	-0.018140	0.014416	-0.018515
726	3.638519	0.005000	-0.274680	-0.196200	-10.006200	-0.576119	0.027059	-0.313118	-0.014716	0.018816	-0.017274
727	3.643519	0.005000	-0.181313	-0.179965	-9.966960	-0.576119	0.026946	-0.313244	-0.021551	0.009383	-0.001352
728	3.648519	0.005000	-0.304780	-0.156960	-10.057260	-0.576119	0.026866	-0.313370	-0.023621	0.013199	-0.021380
729	3.653519	0.005000	-0.284362	-0.186518	-10.055122	-0.576119	0.026866	-0.313496	-0.015186	0.016379	-0.007000
730	3.658519	0.005000	-0.246145	-0.099889	-10.045440	-0.576119	0.026866	-0.313622	-0.017919	0.014945	-0.003066
731	3.663519	0.005000	-0.262953	-0.105993	-9.978687	-0.576119	0.026866	-0.313748	-0.033343	0.015465	-0.022256
732	3.668519	0.005000	-0.313920	-0.132390	-9.952290	-0.576119	0.026866	-0.313874	-0.009701	0.012078	-0.007546
733	3.673519	0.005000	-0.248732	-0.131012	-9.966960	-0.576119	0.026866	-0.314000	-0.013412	0.021099	-0.013251
734	3.678519	0.005000	-0.288994	-0.167572	-10.066663	-0.576119	0.026866	-0.314127	-0.018338	0.020033	-0.012716
735	3.683519	0.005000	-0.259630	-0.156960	-10.090590	-0.576119	0.026866	-0.314253	-0.007918	0.011810	-0.013721
736	3.688519	0.005000	-0.235440	-0.156960	-10.061334	-0.576119	0.026866	-0.314379	-0.015594	0.012783	-0.008413
737	3.693519	0.005000	-0.274680	-0.257763	-10.028523	-0.576119	0.026866	-0.314505	-0.017029	0.011806	-0.004174
738	3.698519	0.005000	-0.221654	-0.192311	-10.027765	-0.576119	0.026866	-0.314631	-0.007493	0.018001	-0.009722
739	3.703519	0.005000	-0.256199	-0.119997	-9.909239	-0.576119	0.026866	-0.314757	-0.013463	0.018010	-0.008191
740	3.708519	0.005000	-0.274680	-0.137224	-10.025936	-0.576119	0.026866	-0.314884	0.007883	0.014674	-0.014674
741	3.713519	0.005000	-0.235440	-0.156960	-10.103394	-0.576154	0.026840	-0.314952	0.009151	0.008538	-0.012340
742	3.718519	0.005000	-0.235440	-0.214372	-10.108645	-0.576606	0.026501	-0.314321	0.016611	0.012605	-0.015048
743	3.723519	0.005000	-0.213349	-0.179051	-9.989051	-0.577058	0.026162	-0.313690	0.006917	0.014425	-0.019630
744	3.728519	0.005000	-0.219313	-0.140833	-9.934707	-0.577510	0.025823	-0.313059	-0.005669	0.010067	-0.008393
745	3.733519	0.005000	-0.196200	-0.102429	-9.951669	-0.577962	0.025484	-0.312428	-0.014121	0.021201	-0.015056
746	3.738519	0.005000	-0.225324	0.000000	-9.942282	-0.578414	0.025145	-0.311797	-0.006547	0.014956	-0.006395
747	3.743519	0.005000	-0.300380	-0.117720	-9.942638	-0.578866	0.024806	-0.311166	-0.006230	0.012933	-0.018771
748	3.748519	0.005000	-0.247957	-0.090997	-9.954443	-0.579318	0.024467	-0.310535	0.001868	0.018200	-0.024022
749	3.753519	0.005000	-0.223808	-0.191857	-10.049783	-0.579770	0.024128	-0.309904	-0.007988	0.018147	-0.007215
750	3.758519	0.005000	-0.218105	-0.224488	-9.934103	-0.580222	0.023789	-0.309273	-0.018860	0.015425	-0.026781
751	3.763519	0.005000	-0.274680	-0.117720	-9.966960	-0.580674	0.023450	-0.308642	-0.020070	0.011795	-0.015026
752	3.768519	0.005000	-0.205108	-0.165868	-9.954443	-0.581127	0.023111	-0.308012	-0.005192	0.022714	-0.012134
753	3.773519	0.005000	-0.274680	-0.156960	-10.123920	-0.581579	0.022772	-0.307381	-0.003080	0.020149	-0.004737
754	3.778519	0.005000	-0.338505	-0.228113	-10.087283	-0.582031	0.022432	-0.306750	-0.000372	0.018556	-0.006759
755	3.783519	0.005000	-0.274680	-0.235440	-9.992180	-0.582581	0.021701	-0.305462	-0.011002	0.014091	0.003753
756	3.788519	0.005000	-0.269318	-0.263957	-10.063234	-0.583145	0.020910	-0.304074	-0.026285	0.016442	-0.005939
757	3.793519	0.005000	-0.235440	-0.087961	-9.922980	-0.583710	0.020120	-0.302687	-0.028158	0.017971	-0.012377
758	3.798519	0.005000	-0.239158	-0.074762	-9.895916	-0.584275	0.019329	-0.301299	-0.017326	0.021430	-0.016517
759	3.803519	0.005000	-0.232711	-0.008187	-9.933178	-0.584839	0.018538	-0.299912	-0.017652	0.019347	-0.018159
760	3.808519	0.005000	-0.163420	-0.082787	-10.047593	-0.585404	0.017748	-0.298524	-0.000490	0.007981	-0.015177
761	3.813519	0.005000	-0.273549	-0.193938	-10.044309	-0.585969	0.016957	-0.297137	0.009358	0.016227	-0.014501
762	3.818519	0.005000	-0.235440	-0.078697	-9.967068	-0.586534	0.016166	-0.295749	0.013170	0.014014	-0.021500
763	3.823519	0.005000	-0.235440	-0.156960	-9.852896	-0.587098	0.015376	-0.294362	0.014355	0.008552	-0.007220
764	3.828519	0.005000	-0.161329	-0.156960	-9.811456	-0.587663	0.014585	-0.292974	0.010027	0.016238	-0.011139
765	3.833519	0.005000	-0.235440	-0.122677	-10.038004	-0.588228	0.013794	-0.291587	0.015640	0.017948	-0.004086
766	3.838519	0.005000	-0.231939	-0.189198	-10.009701	-0.588792	0.013004	-0.290199	0.009443	0.018626	-0.016218
767	3.843519	0.005000	-0.339589	-0.122244	-10.031869	-0.589357	0.012213	-0.288812	0.003377	0.020223	-0.014328
768	3.848519	0.005000	-0.308792	-0.078480	-9.982345	-0.588960	0.012310	-0.288911	0.001278	0.014708	-0.004131
769	3.853519	0.005000	-0.313920	-0.105544	-10.111744	-0.588057	0.012875	-0.289794	0.007049	0.018390	-0.016829
770	3.858519	0.005000	-0.267569	-0.142739	-9.941941	-0.587153	0.013439	-0.290677	0.026829	0.022248	-0.008263
771	3.863519	0.005000	-0.305787	-0.156960	-9.998067	-0.586250	0.014004	-0.291560	0.035609	0.017297	-0.020580
772	3.868519	0.005000	-0.183032	-0.135101	-10.023581	-0.585346	0.014569	-0.292443	0.035416	0.018572	-0.016755
773	3.873519	0.005000	-0.294494	-0.156960	-9.947146	-0.584442	0.015134	-0.293326	0.030934	0.006039	-0.001057
774	3.878519	0.005000	-0.206920	-0.128440	-9.917000	-0.583539	0.015698	-0.294209	0.026962	0.011691	-0.011943
775	3.883519	0.005000	-0.224027	-0.212614	-9.966960	-0.582635	0.016263	-0.295092	0.018727	0.008803	-0.017274
776	3.888519	0.005000	-0.223140	-0.142321	-9.937681	-0.581732	0.016828	-0.295974	0.022946	0.021200	-0.027912
777	3.893519	0.005000	-0.156960	-0.130315	-9.992877	-0.580828	0.017393	-0.296857	0.029509	0.017575	-0.010507
778	3.898519	0.005000	-0.221095	-0.181855	-9.917170	-0.579925	0.017958	-0.297740	0.029999	0.011778	-0.007974
779	3.903519	0.005000	-0.211272	-0.147864	-9.927720	-0.579021	0.018522	-0.298623	0.034592	0.009754	-0.013176
780	3.908519	0.005000	-0.203620	-0.110300	-9.920300	-0.578117	0.019087	-0.299506	0.025362	0.005033	-0.004876
781	3.913519	0.005000	-0.179268	-0.156960	-9.910788	-0.577761	0.019453	-0.300000	0.008413	0.016548	-0.015050
782	3.918519	0.005000	-0.196200	-0.196200	-10.023891	-0.578100	0.019566	-0.300000	0.007721	0.013744	-0.012217
783	3.923519	0.005000	-0.253937	-0.096977	-9.966960	-0.578439	0.019679	-0.300000	-0.019536	0.013782	-0.019109
784	3.928519	0.005000	-0.274881	-0.137441	-9.868558	-0.578778	0.019792	-0.300000	-0.009252	0.012670	-0.026326
785	3.933519	0.005000	-0.255750	-0.373470	-9.685379	-0.579117	0.019905	-0.300000	-0.000911	0.013905	-0.013133
786	3.938519	0.005000	-0.081408	-0.332076	-10.353504	-0.579456	0.020018	-0.300000	-0.022108	0.022517	-0.016857
787	3.943519	0.005000	-0.174094	-0.179066	-10.178078	-0.579795	0.020131	-0.300000	-0.059855	0.008376	-0.007341
788	3.948519	0.005000	-0.274680	-1.669133	-9.636929	-0.580133	0.020244	-0.300000	-0.053399	0.013914	-0.009667
789	3.953519	0.005000	-0.274680	-1.642085	-9.778180	-0.580472	0.020357	-0.300000	-0.103785	0.018356	0.007995
790	3.958519	0.005000	-0.274680	-0.678730	-10.035262	-0.580811	0.020470	-0.300000	-0.272798	0.016325	0.011475
791	3.963519	0.005000	-0.196200	0.055429	-10.018392	-0.581150	0.020583	-0.300000	-0.370403	0.015285	0.000789
792	3.968519	0.005000	-0.196200	0.599966	-9.901131	-0.581489	0.020696	-0.300000	-0.325545	0.007470	0.010009
793	3.973519	0.005000	-0.259328	0.863280	-10.105160	-0.581828	0.020809	-0.300000	-0.185064	0.020214	0.004462
794	3.978519	0.005000	-0.302998	0.786829	-10.073758	-0.581962	0.021024	-0.300257	-0.051239	0.008484	0.003485
795	3.983519	0.005000	-0.235440	0.254526	-10.074781	-0.581397	0.021589	-0.301393	0.053811	0.019124	-0.017015
796	3.988519	0.005000	-0.244797	-0.115907	-9.948246	-0.580832	0.022154	-0.302529	0.112323	0.014132	-0.016796
797	3.993519	0.005000	-0.243774	-0.378163	-9.944389	-0.580267	0.022719	-0.303664	0.090725	0.014414	-0.016117
798	3.998519	0.005000	-0.235440	-0.542048	-10.038128	-0.579702	0.023284	-0.304800	0.028624	0.020326	-0.022968
799	4.003519	0.005000	-0.274680	-0.418100	-9.902020	-0.579137	0.023849	-0.305936	-0.036864	0.008488	-0.008128
800	4.008519	0.005000	-0.241187	-0.196200	-10.051187	-0.578572	0.024414	-0.307071	-0.073677	0.015854	-0.019157
801	4.013519	0.005000	-0.269955	-0.182025	-10.045440	-0.578007	0.024979	-0.308207	-0.068394	0.008324	-0.009071
802	4.018519	0.005000	-0.156960	-0.184955	-9.951967	-0.577442	0.025544	-0.309343	-0.065007	0.009722	-0.010945
803	4.023519	0.005000	-0.130361	-0.153800	-9.885320	-0.576877	0.026109	-0.310478	-0.049472	0.013150	-0.014075
804	4.028519	0.005000	-0.200476	-0.078480	-9.772898	-0.576312	0.026674	-0.311614	-0.036965	0.003044	0.002064
805	4.033519	0.005000	-0.197780	-0.078480	-9.929300	-0.575747	0.027238	-0.312750	-0.044372	0.006778	-0.007581
806	4.038519	0.005000	-0.275238	-0.001673	-10.044882	-0.575182	0.027803	-0.313885	-0.042782	0.016353	-0.006808
807	4.043519	0.005000	-0.236369	-0.078945	-9.967425	-0.574621	0.028356	-0.315009	-0.025886	0.021563	-0.004646
808	4.048519	0.005000	-0.120694	-0.421230	-9.619749	-0.574282	0.028243	-0.315514	-0.004423	0.021481	-0.015828
809	4.053519	0.005000	-0.082539	-0.698202	-9.115856	-0.573943	0.028130	-0.316018	0.036764	0.025266	-0.002835
810	4.058519	0.005000	-0.229336	-1.044221	-10.246876	-0.573605	0.028017	-0.316522	0.107178	0.044283	0.021065
811	4.063519	0.005000	-0.200274	-1.568097	-11.117143	-0.573266	0.027904	-0.317026	0.122313	0.048159	0.035570
812	4.068519	0.005000	-0.329792	-2.139505	-9.977280	-0.572927	0.027792	-0.317531	0.117309	0.020251	0.045559
813	4.073519	0.005000	-0.414723	-2.102276	-9.428878	-0.572588	0.027679	-0.318035	0.116709	0.027761	0.063967
814	4.078519	0.005000	-0.588600	-0.918027	-10.057306	-0.572250	0.027566	-0.318539	0.063886	0.049685	0.080461
815	4.083519	0.005000	-0.375038	0.891745	-10.462494	-0.571911	0.027453	-0.319044	0.030230	0.047252	0.086787
816	4.088519	0.005000	-0.547470	2.146194	-10.274544	-0.571572	0.027340	-0.319548	0.037653	0.035230	0.085676
817	4.093519	0.005000	-0.510120	1.858284	-10.045440	-0.571234	0.027227	-0.320052	0.252300	0.040684	0.049764
818	4.098519	0.005000	-0.607298	1.385514	-9.985658	-0.570895	0.027114	-0.320557	0.680586	0.048733	0.052446
819	4.103519	0.005000	-0.688737	1.576354	-10.163160	-0.570556	0.027002	-0.321061	1.193626	0.069304	0.046021
820	4.108519	0.005000	-0.600436	1.875418	-10.339422	-0.570217	0.026889	-0.321565	1.696007	0.094015	0.048166
821	4.113519	0.005000	-0.614982	1.371402	-10.753092	-0.570870	0.030833	-0.329218	2.108714	0.106969	0.040380
822	4.118519	0.005000	-0.511609	0.644395	-10.662682	-0.571774	0.035803	-0.338677	2.367759	0.119863	0.023585
823	4.123519	0.005000	-0.342796	0.346870	-10.654768	-0.572678	0.040773	-0.348137	2.575889	0.123198	0.024514
824	4.128519	0.005000	-0.557679	0.039240	-11.010979	-0.573581	0.045742	-0.357597	2.786971	0.128236	0.009120
825	4.133519	0.005000	-0.532877	0.123994	-11.144160	-0.574485	0.050712	-0.367056	2.970619	0.148101	-0.010475
826	4.138519	0.005000	-0.627840	0.480443	-11.403508	-0.575389	0.055682	-0.376516	3.205046	0.163071	-0.008432
827	4.143519	0.005000	-0.787945	0.425350	-11.965876	-0.576292	0.060652	-0.385976	3.609113	0.208065	-0.026513
828	4.148519	0.005000	-0.961930	0.332990	-12.796640	-0.577196	0.065622	-0.395435	4.290530	0.249579	-0.040456
829	4.153519	0.005000	-1.450468	0.724293	-12.813977	-0.578100	0.070591	-0.404895	5.108769	0.284112	-0.053286
830	4.158519	0.005000	-1.817557	0.828099	-12.412357	-0.579003	0.075561	-0.414355	6.006607	0.318378	-0.078682
831	4.163519	0.005000	-1.769874	0.139377	-13.223880	-0.579907	0.080531	-0.423814	7.056004	0.377819	-0.109926
832	4.168519	0.005000	-1.598399	-0.394925	-13.492441	-0.580811	0.085501	-0.433274	8.122560	0.399947	-0.126810
833	4.173519	0.005000	-1.229236	-1.435103	-13.569836	-0.581714	0.090471	-0.442734	9.113226	0.414138	-0.162364
834	4.178519	0.005000	-0.857533	-2.721301	-13.498560	-0.582024	0.093922	-0.471561	9.896769	0.420275	-0.210711
835	4.183519	0.005000	-0.597213	-3.393973	-13.218520	-0.581911	0.096293	-0.514172	10.003529	0.399214	-0.226781
836	4.188519	0.005000	-0.246842	-4.174870	-12.419623	-0.581798	0.098664	-0.556784	10.003529	0.383356	-0.269230
837	4.193519	0.005000	-0.026842	-4.510554	-10.805320	-0.581685	0.101035	-0.599395	10.003529	0.346027	-0.323585
838	4.198519	0.005000	0.151879	-4.135444	-8.992451	-0.581572	0.103406	-0.642007	10.003529	0.321920	-0.356055
839	4.203519	0.005000	0.206902	-4.277160	-6.513840	-0.581459	0.105777	-0.684618	10.003529	0.323742	-0.404024
840	4.208519	0.005000	0.226099	-5.013348	-2.847774	-0.581346	0.108148	-0.727230	10.003529	0.319354	-0.465938
841	4.213519	0.005000	0.417357	-7.171191	1.200747	-0.581233	0.110519	-0.769841	10.003529	0.331945	-0.526401
842	4.218519	0.005000	0.259591	-11.885816	4.575991	-0.581121	0.112889	-0.812453	10.003529	0.337552	-0.584102
843	4.223519	0.005000	-0.125760	-20.928103	5.600708	-0.581008	0.115260	-0.855064	10.003529	0.299782	-0.604109
844	4.228519	0.005000	-0.427225	-25.360937	2.161717	-0.580895	0.117631	-0.897676	10.003529	0.218041	-0.595602
845	4.233519	0.005000	1.301380	-19.124953	-3.240948	-0.580782	0.120002	-0.940288	10.003529	0.191493	-0.497839
846	4.238519	0.005000	2.319312	-23.524852	-2.650102	-0.580669	0.122373	-0.982899	10.003353	0.219570	-0.414488
847	4.243519	0.005000	1.918190	-27.415050	0.786736	-0.579939	0.122812	-1.013076	8.987423	0.109024	-0.368531
848	4.248519	0.005000	0.881823	-23.045963	-2.814064	-0.578132	0.119875	-1.021527	5.817729	0.034693	-0.291040
849	4.253519	0.005000	0.393965	-19.230853	-2.805064	-0.576325	0.116939	-1.029977	3.914784	0.011761	-0.229325
850	4.258519	0.005000	0.674671	-17.121312	0.009217	-0.574518	0.114002	-1.038428	2.832263	0.016981	-0.216857
851	4.263519	0.005000	1.836596	-12.240618	1.481035	-0.572710	0.111065	-1.046878	2.124801	0.012469	-0.220812
852	4.268519	0.005000	2.278987	-9.985364	1.372378	-0.570903	0.108129	-1.055329	2.204774	0.004581	-0.254671
853	4.273519	0.005000	1.548764	-10.039305	1.906401	-0.569096	0.105192	-1.063779	2.820403	0.026966	-0.310110
854	4.278519	0.005000	1.156396	-10.126554	1.059747	-0.567289	0.102255	-1.072230	3.373155	0.023594	-0.311540
855	4.283519	0.005000	0.574627	-10.719274	0.271535	-0.565481	0.099319	-1.080680	3.729378	0.013767	-0.283858
856	4.288519	0.005000	0.283944	-11.391048	-0.138432	-0.563674	0.096382	-1.089131	3.831012	0.028776	-0.231578
857	4.293519	0.005000	0.056203	-11.284498	-0.285989	-0.561867	0.093445	-1.097581	3.734601	0.015159	-0.157775
858	4.298519	0.005000	-0.026816	-10.867513	-0.121965	-0.560060	0.090508	-1.106032	3.558939	0.012608	-0.121141
859	4.303519	0.005000	0.039240	-10.449242	-0.078480	-0.558253	0.087572	-1.114482	3.399121	-0.006214	-0.057202
860	4.308519	0.005000	0.272635	-9.735610	0.140446	-0.556479	0.084534	-1.122291	3.325014	-0.010857	-0.020552
861	4.313519	0.005000	0.622557	-8.830662	0.513741	-0.554898	0.080919	-1.126453	3.306568	-0.016987	0.016790
862	4.318519	0.005000	1.186929	-8.162013	0.519942	-0.553317	0.077305	-1.130615	3.288597	-0.010017	0.027069
863	4.323519	0.005000	1.419348	-7.627540	0.566912	-0.551735	0.073690	-1.134777	3.274303	-0.014661	0.032909
864	4.328519	0.005000	1.514175	-7.400175	0.426982	-0.550154	0.070076	-1.138940	3.283286	-0.008686	0.045323
865	4.333519	0.005000	1.505543	-7.350289	0.340751	-0.548573	0.066461	-1.143102	3.307214	0.002454	0.063746
866	4.338519	0.005000	1.426071	-7.417413	0.120880	-0.546991	0.062847	-1.147264	3.249469	0.010640	0.112446
867	4.343519	0.005000	0.664989	-6.800882	-0.241652	-0.545410	0.059232	-1.151426	3.116112	0.020623	0.153059
868	4.348519	0.005000	0.119966	-6.172175	-0.446636	-0.543829	0.055618	-1.155589	2.917006	0.032045	0.192282
869	4.353519	0.005000	-0.289087	-5.871593	-0.479695	-0.542248	0.052003	-1.159751	2.760286	0.031487	0.277263
870	4.358519	0.005000	-0.810593	-5.667601	-0.493079	-0.540666	0.048389	-1.163913	2.565165	0.028255	0.323273
871	4.363519	0.005000	-1.089208	-5.707398	-0.857811	-0.539085	0.044774	-1.168075	2.468872	0.016642	0.388525
872	4.368519	0.005000	-0.774727	-5.394493	-1.059480	-0.537504	0.041160	-1.172238	2.395697	0.007058	0.454426
873	4.373519	0.005000	-0.174534	-4.863941	-1.058116	-0.535923	0.037545	-1.176400	2.360295	-0.011528	0.499866
874	4.378519	0.005000	0.252233	-4.378087	-0.555014	-0.535187	0.030020	-1.184339	2.359986	-0.027998	0.548270
875	4.383519	0.005000	0.452848	-4.295192	0.602434	-0.534509	0.022226	-1.192537	2.473507	-0.045042	0.566100
876	4.388519	0.005000	0.150392	-4.939019	0.567717	-0.533831	0.014433	-1.200735	2.817931	-0.050979	0.598474
877	4.393519	0.005000	0.022773	-4.288360	1.384972	-0.533154	0.006639	-1.208934	3.406902	-0.055289	0.641466
878	4.398519	0.005000	-0.142770	-1.941148	2.796466	-0.532476	-0.001154	-1.217132	4.324563	-0.045298	0.659946
879	4.403519	0.005000	-0.065746	-0.840802	1.834536	-0.531798	-0.008948	-1.225330	5.624265	-0.022033	0.661643
880	4.408519	0.005000	-0.235440	0.233566	1.752446	-0.531121	-0.016741	-1.233528	6.903219	-0.026183	0.647967
881	4.413519	0.005000	-0.092670	1.266540	2.809091	-0.530443	-0.024535	-1.241726	8.051144	-0.031335	0.599162
882	4.418519	0.005000	0.412338	1.808773	3.653689	-0.529765	-0.032328	-1.249925	8.979298	-0.020009	0.506016
883	4.423519	0.005000	0.750108	1.045835	3.470466	-0.529088	-0.040122	-1.258123	9.614916	-0.000118	0.421932
884	4.428519	0.005000	1.418170	0.281264	3.302744	-0.528410	-0.047915	-1.266321	9.832664	0.025003	0.315409
885	4.433519	0.005000	2.192947	-0.542621	2.612829	-0.527732	-0.055709	-1.274519	9.682487	0.032425	0.235816
886	4.438519	0.005000	2.768659	-1.468998	1.944882	-0.527055	-0.063502	-1.282718	9.188554	0.029325	0.165254
887	4.443519	0.005000	2.583070	-2.289460	1.569600	-0.527029	-0.069338	-1.286365	8.412545	0.015763	0.103659
888	4.448519	0.005000	2.033199	-3.258190	1.392702	-0.527255	-0.074418	-1.288256	7.463278	-0.017865	0.076918
889	4.453519	0.005000	1.496201	-4.199903	1.132267	-0.527481	-0.079499	-1.290147	6.485765	-0.021688	0.060797
890	4.458519	0.005000	1.083476	-5.172337	0.999915	-0.527706	-0.084579	-1.292038	5.554324	-0.026456	0.071143
891	4.463519	0.005000	0.799687	-6.153910	0.855162	-0.527932	-0.089660	-1.293929	4.632184	-0.028327	0.086210
892	4.468519	0.005000	0.301624	-6.619264	0.790948	-0.528158	-0.094740	-1.295820	3.697691	-0.023079	0.129914
893	4.473519	0.005000	0.068503	-6.462129	0.787294	-0.528384	-0.099820	-1.297711	2.770668	-0.034950	0.165745
894	4.478519	0.005000	-0.164318	-5.797218	0.875054	-0.528609	-0.104901	-1.299602	1.912000	-0.039096	0.201583
895	4.483519	0.005000	-0.318013	-5.064234	1.214166	-0.528835	-0.109981	-1.301493	1.224730	-0.036924	0.219484
896	4.488519	0.005000	-0.823668	-5.101572	1.294269	-0.529061	-0.115062	-1.303384	0.770092	-0.039836	0.247388
897	4.493519	0.005000	-0.857703	-4.799751	0.952712	-0.529287	-0.120142	-1.305275	0.629053	-0.036740	0.284099
898	4.498519	0.005000	-1.820764	-5.561391	0.412400	-0.529513	-0.125223	-1.307166	0.814516	-0.054833	0.307969
899	4.503519	0.005000	-2.048663	-4.517005	3.015397	-0.529738	-0.130303	-1.309057	0.982185	-0.095069	0.329238
900	4.508519	0.005000	-2.268484	-4.056592	4.421309	-0.530418	-0.134762	-1.309747	1.327136	-0.107879	0.325611
901	4.513519	0.005000	-2.354400	-3.599201	5.422698	-0.531548	-0.138604	-1.309242	1.756142	-0.105973	0.312624
902	4.518519	0.005000	-2.140344	-3.288996	6.151807	-0.532678	-0.142447	-1.308737	2.242788	-0.101268	0.294745
903	4.523519	0.005000	-1.574495	-2.665501	6.540470	-0.533808	-0.146289	-1.308233	2.717831	-0.081958	0.264859
904	4.528519	0.005000	-0.921900	-1.601032	6.756607	-0.534938	-0.150131	-1.307728	3.178962	-0.072067	0.239719
905	4.533519	0.005000	-0.345789	-0.801330	6.780553	-0.536068	-0.153973	-1.307223	3.619730	-0.061352	0.199818
906	4.538519	0.005000	0.112499	-0.340596	6.888456	-0.537198	-0.157815	-1.306718	3.908755	-0.042447	0.127299
907	4.543519	0.005000	0.558438	-0.176789	7.043371	-0.538328	-0.161657	-1.306214	3.953777	-0.037100	0.071133
908	4.548519	0.005000	0.881347	-0.049826	6.984720	-0.539458	-0.165499	-1.305709	3.726069	-0.032980	0.019094
909	4.553519	0.005000	0.874759	0.022958	7.107242	-0.540588	-0.169341	-1.305204	3.289320	-0.030929	-0.017305
910	4.558519	0.005000	0.731323	-0.222938	7.170153	-0.541718	-0.173183	-1.304699	2.697042	-0.039309	-0.044902
911	4.563519	0.005000	0.472212	-0.392400	7.492175	-0.542848	-0.177025	-1.304194	2.030472	-0.056907	-0.043614
912	4.568519	0.005000	0.138924	-0.485121	7.916035	-0.543978	-0.180867	-1.303690	1.358491	-0.086840	-0.046299
913	4.573519	0.005000	-0.350170	-0.558423	8.986006	-0.545306	-0.183748	-1.303444	0.763119	-0.101722	-0.041466
914	4.578519	0.005000	-1.016088	-0.447751	9.704239	-0.547113	-0.184312	-1.303822	0.383142	-0.100759	-0.045638
915	4.583519	0.005000	-1.606625	-0.544387	10.155972	-0.548921	-0.184877	-1.304201	0.234885	-0.073597	-0.059934
916	4.588519	0.005000	-2.026646	-0.778681	10.506343	-0.550728	-0.185442	-1.304579	0.239397	-0.051553	-0.075137
917	4.593519	0.005000	-2.019954	-1.602814	10.555560	-0.552535	-0.186007	-1.304958	0.236168	-0.036292	-0.094855
918	4.598519	0.005000	-1.785528	-3.097356	10.281531	-0.554342	-0.186572	-1.305336	0.165240	-0.019539	-0.123207
919	4.603519	0.005000	-1.668358	-5.104360	9.929037	-0.556150	-0.187136	-1.305714	0.062278	-0.037079	-0.109810
920	4.608519	0.005000	-1.394701	-6.593451	9.463563	-0.557957	-0.187701	-1.306093	-0.051766	-0.044023	-0.095806
921	4.613519	0.005000	-1.148773	-7.040877	9.227504	-0.559764	-0.188266	-1.306471	-0.103931	-0.068621	-0.071770
922	4.618519	0.005000	-0.784800	-6.902847	10.016378	-0.561571	-0.188831	-1.306849	-0.219368	-0.093688	-0.043341
923	4.623519	0.005000	-0.871816	-6.312543	11.529682	-0.563378	-0.189395	-1.307228	-0.471460	-0.095807	-0.031771
924	4.628519	0.005000	-0.545611	-5.367716	12.467739	-0.565186	-0.189960	-1.307606	-0.776615	-0.075752	-0.026629
925	4.633519	0.005000	-0.300613	-3.985083	12.568744	-0.566993	-0.190525	-1.307985	-0.917822	-0.050003	-0.020169
926	4.638519	0.005000	-0.118665	-2.634750	12.256590	-0.568800	-0.191224	-1.308153	-0.776003	-0.026021	0.008132
927	4.643519	0.005000	0.039240	-1.173776	12.227125	-0.570607	-0.193483	-1.305883	-0.373927	-0.012542	0.020655
928	4.648519	0.005000	0.007080	-0.035398	12.235800	-0.572414	-0.195742	-1.303613	0.190946	-0.011316	0.036407
929	4.653519	0.005000	-0.088278	0.775017	12.213438	-0.574222	-0.198001	-1.301342	0.873538	-0.004630	0.037054
930	4.658519	0.005000	-0.018311	1.158889	11.662134	-0.576029	-0.200260	-1.299072	1.521299	0.005030	0.005317
931	4.663519	0.005000	-0.078480	0.994416	10.907295	-0.577836	-0.202519	-1.296802	2.084414	0.019887	-0.005095
932	4.668519	0.005000	-0.149849	0.353423	10.587689	-0.579643	-0.204778	-1.294531	2.546067	0.032837	-0.027963
933	4.673519	0.005000	-0.156960	-0.622418	10.510232	-0.581450	-0.207037	-1.292261	2.818677	0.023443	-0.059978
934	4.678519	0.005000	-0.162490	-1.512715	10.499729	-0.583258	-0.209296	-1.289991	2.834724	0.002261	-0.088200
935	4.683519	0.005000	-0.209729	-2.307489	10.446860	-0.585065	-0.211555	-1.287720	2.681650	-0.016618	-0.114750
936	4.688519	0.005000	-0.477882	-2.942272	10.776268	-0.586872	-0.213814	-1.285450	2.417686	-0.055459	-0.131435
937	4.693519	0.005000	-0.588600	-3.802361	11.270710	-0.588679	-0.216073	-1.283180	2.075622	-0.070026	-0.170697
938	4.698519	0.005000	-0.508199	-4.563366	11.751969	-0.590486	-0.218332	-1.280909	1.727267	-0.093655	-0.177040
939	4.703519	0.005000	-0.347769	-4.824723	12.321360	-0.592293	-0.220591	-1.278639	1.412513	-0.115951	-0.183701
940	4.708519	0.005000	-0.038171	-4.509037	12.360244	-0.593221	-0.221775	-1.277678	1.224567	-0.114575	-0.186803
941	4.713519	0.005000	0.117054	-3.734461	12.437082	-0.594012	-0.222792	-1.276921	1.179597	-0.112008	-0.160753
942	4.718519	0.005000	12.912144	-37.025674	10.560517	-0.594802	-0.223808	-1.276165	0.858480	1.156223	-0.156835
943	4.723519	0.005000	5.460371	-12.965575	-8.330654	-0.595593	-0.224825	-1.275408	-1.256341	0.542413	0.509184
944	4.728519	0.005000	-0.701827	-3.981179	15.355311	-0.596384	-0.225841	-1.274651	1.007335	-0.167392	0.671713
945	4.733519	0.005000	-2.240677	10.935691	6.220059	-0.597174	-0.226858	-1.273894	1.217718	0.414668	0.592617
946	4.738519	0.005000	-4.751014	12.557621	18.229141	-0.597965	-0.227874	-1.273138	2.204390	0.173473	0.333798
947	4.743519	0.005000	-4.259955	-1.986764	10.468517	-0.598756	-0.228891	-1.272381	0.875037	0.306636	0.096515
948	4.748519	0.005000	-3.000009	-2.810672	6.899548	-0.599546	-0.229907	-1.271624	0.196953	0.196478	0.129352
949	4.753519	0.005000	-1.828510	-4.003038	11.623669	-0.600337	-0.230924	-1.270867	-0.105372	0.142871	0.173989
950	4.758519	0.005000	-2.083200	-2.176872	8.509076	-0.601128	-0.231940	-1.270111	0.171359	0.146751	0.210753
951	4.763519	0.005000	-0.806488	-6.408157	15.456718	-0.601918	-0.232957	-1.269354	0.163545	0.085097	0.171780
952	4.768519	0.005000	0.135272	-1.382602	5.041124	-0.602709	-0.233973	-1.268597	-0.988177	-0.040402	0.079929
953	4.773519	0.005000	1.194380	-3.296563	14.790614	-0.603573	-0.234916	-1.267758	0.469724	0.044074	0.081765
954	4.778519	0.005000	1.689050	-1.485670	8.864520	-0.604477	-0.235820	-1.266875	0.141924	-0.036373	0.020612
955	4.783519	0.005000	2.302194	-2.315346	10.280926	-0.605380	-0.236724	-1.265993	0.589507	0.017174	0.016303
956	4.788519	0.005000	1.494272	-0.869585	10.177934	-0.606284	-0.237627	-1.265110	0.531239	-0.000330	0.020204
957	4.793519	0.005000	1.133886	-0.674175	9.661948	-0.607188	-0.238531	-1.264227	0.601487	0.018346	0.039804
958	4.798519	0.005000	0.784289	-0.376056	10.099490	-0.608091	-0.239435	-1.263344	0.418213	-0.013187	0.032239
959	4.803519	0.005000	0.425210	-1.382057	9.763012	-0.608995	-0.240338	-1.262461	0.288956	0.023923	-0.002512
960	4.808519	0.005000	-0.014361	-1.343734	9.559254	-0.609898	-0.241242	-1.261578	0.311067	0.020789	0.009471
961	4.813519	0.005000	-0.322146	-1.574139	10.326456	-0.610802	-0.242146	-1.260695	0.221110	0.016548	-0.020420
962	4.818519	0.005000	-0.805008	-1.284118	9.571989	-0.611706	-0.243049	-1.259813	0.061218	0.017765	-0.034246
963	4.823519	0.005000	-0.784382	-1.650590	9.796863	-0.612609	-0.243953	-1.258930	0.008215	0.015824	-0.036375
964	4.828519	0.005000	-0.614378	-1.342696	9.351265	-0.613513	-0.244857	-1.258047	-0.024661	0.006653	-0.042662
965	4.833519	0.005000	-0.313920	-1.515482	9.493384	-0.614416	-0.245760	-1.257164	-0.014105	0.031127	-0.044310
966	4.838519	0.005000	-0.241032	-1.401548	8.924304	-0.614629	-0.246220	-1.257053	0.006786	0.048878	-0.042570
967	4.843519	0.005000	0.462716	-2.571405	10.873430	-0.613951	-0.246107	-1.257936	0.016201	0.037620	-0.026081
968	4.848519	0.005000	0.074810	-0.983258	8.067066	-0.613273	-0.245994	-1.258819	-0.268364	0.008588	-0.034494
969	4.853519	0.005000	0.556657	-3.154149	10.555916	-0.612595	-0.245880	-1.259703	-0.026892	0.056728	-0.039612
970	4.858519	0.005000	0.104506	-1.256888	8.685657	-0.611917	-0.245767	-1.260586	-0.256486	-0.006553	-0.030874
971	4.863519	0.005000	0.328776	-3.135002	10.558225	-0.611239	-0.245654	-1.261469	-0.004654	0.048258	-0.050023
972	4.868519	0.005000	0.039240	-1.338451	8.872531	-0.610561	-0.245541	-1.262352	-0.161242	0.010156	-0.030983
973	4.873519	0.005000	0.413654	-2.714918	10.091217	-0.609883	-0.245428	-1.263236	0.139877	0.032715	-0.018017
974	4.878519	0.005000	0.353160	-1.284494	9.528178	-0.609205	-0.245315	-1.264119	0.081506	0.007074	-0.033024
975	4.883519	0.005000	0.419650	-1.850275	9.185103	-0.608527	-0.245202	-1.265002	0.358199	0.035415	-0.039760
976	4.888519	0.005000	0.047280	-2.088721	9.503160	-0.607849	-0.245089	-1.265886	0.395822	0.036041	-0.057681
977	4.893519	0.005000	0.096667	-2.532413	9.713333	-0.607171	-0.244976	-1.266769	0.463979	0.030804	-0.039914
978	4.898519	0.005000	-0.033173	-2.532399	9.628772	-0.606493	-0.244863	-1.267652	0.477994	0.025930	-0.042321
979	4.903519	0.005000	-0.016313	-2.332650	9.451402	-0.605841	-0.244802	-1.268506	0.531306	0.038134	-0.043088
980	4.908519	0.005000	-0.279095	-2.031650	9.422015	-0.605276	-0.244915	-1.269263	0.589805	0.029141	-0.053538
981	4.913519	0.005000	-0.363464	-1.968869	9.630973	-0.604711	-0.245028	-1.270021	0.676528	0.027089	-0.051116
982	4.918519	0.005000	-0.560762	-2.093972	10.056842	-0.604145	-0.245141	-1.270778	0.726381	0.035866	-0.043386
983	4.923519	0.005000	-0.792112	-2.524156	10.237984	-0.603580	-0.245254	-1.271535	0.772250	0.036563	-0.058446
984	4.928519	0.005000	-1.100331	-3.103182	10.122309	-0.603015	-0.245367	-1.272292	0.785867	0.035560	-0.039825
985	4.933519	0.005000	-1.216223	-3.295943	10.045440	-0.602450	-0.245480	-1.273049	0.711481	0.049474	-0.027666
986	4.938519	0.005000	-1.254921	-3.181476	10.162401	-0.601885	-0.245593	-1.273806	0.614087	0.057128	-0.007423
987	4.943519	0.005000	-1.102283	-2.720031	9.893825	-0.601320	-0.245706	-1.274563	0.477928	0.055146	0.022339
988	4.948519	0.005000	-0.608228	-2.337592	9.784780	-0.600755	-0.245819	-1.275320	0.346562	0.055891	0.026130
989	4.953519	0.005000	-0.250746	-1.949545	9.766934	-0.600190	-0.245932	-1.276078	0.232997	0.058276	0.046344
990	4.958519	0.005000	0.026134	-1.382215	9.430706	-0.599625	-0.246045	-1.276835	0.120149	0.054877	0.051860
991	4.963519	0.005000	0.151569	-0.637119	9.216009	-0.599060	-0.246158	-1.277592	0.076816	0.045588	0.051738
992	4.968519	0.005000	0.307507	-0.024895	9.221400	-0.598507	-0.246278	-1.278320	0.097345	0.044647	0.039473
993	4.973519	0.005000	0.470880	0.468293	9.103680	-0.598507	-0.246730	-1.277689	0.195385	0.029329	0.032472
994	4.978519	0.005000	0.439618	0.565316	9.189487	-0.598507	-0.247182	-1.277059	0.356648	0.014113	0.019745
995	4.983519	0.005000	0.449641	0.470880	9.191161	-0.598507	-0.247634	-1.276428	0.534740	0.010690	-0.012516
996	4.988519	0.005000	0.313371	0.067710	9.103680	-0.598507	-0.248086	-1.275797	0.699615	0.007134	-0.035492
997	4.993519	0.005000	0.167541	-0.485876	8.975379	-0.598507	-0.248537	-1.275167	0.767370	0.000184	-0.054499
998	4.998519	0.005000	0.172994	-0.950621	9.103680	-0.598507	-0.248989	-1.274536	0.706629	-0.005057	-0.070919
999	5.003519	0.005000	0.116325	-1.390199	9.142920	-0.598507	-0.249441	-1.273905	0.533039	0.006759	-0.075851
1000	5.008519	0.005000	-0.117457	-1.687320	9.247736	-0.598507	-0.249893	-1.273275	0.291860	0.002430	-0.081512
1001	5.013519	0.005000	-0.428309	-1.405111	9.375029	-0.598507	-0.250345	-1.272644	0.035746	-0.002807	-0.080583
1002	5.018519	0.005000	-0.675895	-1.074693	9.435229	-0.598507	-0.250796	-1.272014	-0.139559	-0.009110	-0.097834
1003	5.023519	0.005000	-0.815430	-0.848600	9.565950	-0.598507	-0.251248	-1.271383	-0.166151	-0.019582	-0.091526
1004	5.028519	0.005000	-0.885743	-0.728783	9.798908	-0.598507	-0.251700	-1.270752	-0.075587	-0.008198	-0.096706
1005	5.033519	0.005000	-0.845480	-0.927601	10.070521	-0.598507	-0.252152	-1.270122	0.103490	-0.002399	-0.114016
1006	5.038519	0.005000	-0.883951	-1.220643	10.444145	-0.598416	-0.252786	-1.269695	0.269968	-0.005649	-0.108801
1007	5.043519	0.005000	-0.882644	-1.689365	10.634551	-0.598303	-0.253464	-1.269316	0.402869	-0.009179	-0.119480
1008	5.048519	0.005000	-0.883667	-2.229012	10.751760	-0.598190	-0.254142	-1.268937	0.499181	-0.018064	-0.114349
1009	5.053519	0.005000	-0.881111	-2.718234	10.637619	-0.598077	-0.254820	-1.268559	0.548878	-0.015584	-0.107400
1010	5.058519	0.005000	-0.981000	-2.825280	10.386811	-0.597964	-0.255498	-1.268180	0.536579	-0.009880	-0.102679
1011	5.063519	0.005000	-0.987708	-2.815722	10.232082	-0.597851	-0.256176	-1.267802	0.478697	-0.015409	-0.084358
1012	5.068519	0.005000	-0.856789	-2.600854	9.984465	-0.597738	-0.256854	-1.267423	0.356109	-0.012627	-0.080943
1013	5.073519	0.005000	-0.569096	-2.109324	9.741388	-0.597625	-0.257532	-1.267045	0.243342	-0.021315	-0.063354
1014	5.078519	0.005000	-0.325833	-1.499532	9.415849	-0.597512	-0.258210	-1.266666	0.160649	-0.019748	-0.054659
1015	5.083519	0.005000	-0.197517	-1.008916	8.988594	-0.597399	-0.258888	-1.266288	0.110568	-0.007972	-0.040939
1016	5.088519	0.005000	-0.054282	-0.670023	8.856141	-0.597286	-0.259566	-1.265909	0.102264	-0.007904	-0.049817
1017	5.093519	0.005000	0.111709	-0.476891	8.846087	-0.597173	-0.260244	-1.265530	0.131583	-0.001556	-0.029852
1018	5.098519	0.005000	0.303866	-0.392400	9.035254	-0.597060	-0.260922	-1.265152	0.161648	0.007274	-0.027554
1019	5.103519	0.005000	0.362303	-0.410687	9.248830	-0.597150	-0.261126	-1.265076	0.204814	0.011164	-0.035835
1020	5.108519	0.005000	0.226951	-0.804985	9.473819	-0.597376	-0.261013	-1.265202	0.235769	0.016200	-0.009376
1021	5.113519	0.005000	0.188733	-1.285548	9.559626	-0.597602	-0.260900	-1.265328	0.240108	0.038458	-0.008814
1022	5.118519	0.005000	0.026191	-1.406116	9.384884	-0.597828	-0.260787	-1.265454	0.219487	0.043930	0.002801
1023	5.123519	0.005000	-0.107991	-1.400835	9.429405	-0.598054	-0.260674	-1.265580	0.186443	0.052748	0.014163
1024	5.128519	0.005000	-0.348280	-1.299800	9.432239	-0.598280	-0.260561	-1.265706	0.106192	0.063211	0.010697
1025	5.133519	0.005000	-0.255393	-2.102864	12.856623	-0.598506	-0.260448	-1.265832	0.004086	0.063902	0.028394
1026	5.138519	0.005000	-0.358830	-1.930816	9.678555	-0.598732	-0.260335	-1.265959	-0.059823	0.071057	0.039722
1027	5.143519	0.005000	-0.445304	-1.161259	10.602158	-0.598957	-0.260222	-1.266085	0.048386	0.066304	0.049985
1028	5.148519	0.005000	-0.621563	-0.945526	9.519931	-0.599183	-0.260109	-1.266211	0.015800	0.048871	0.032630
1029	5.153519	0.005000	-0.312929	-1.139199	10.317641	-0.599409	-0.259996	-1.266337	-0.091109	0.046526	0.015013
1030	5.158519	0.005000	-0.118034	-1.217381	10.122352	-0.599635	-0.259883	-1.266463	-0.111702	0.027623	0.006182
1031	5.163519	0.005000	-0.002665	-0.987661	9.934381	-0.599861	-0.259771	-1.266589	-0.074939	0.016072	-0.001469
1032	5.168519	0.005000	0.034531	-0.826395	10.003845	-0.599870	-0.259831	-1.266376	-0.056150	0.013216	-0.000976
1033	5.173519	0.005000	0.121097	-0.820663	9.901989	-0.599531	-0.260170	-1.265619	-0.032260	0.004960	-0.018236
1034	5.178519	0.005000	0.078480	-0.859361	9.727601	-0.599191	-0.260510	-1.264861	0.028354	0.009700	-0.022594
1035	5.183519	0.005000	0.039240	-0.824040	9.589385	-0.598852	-0.260849	-1.264104	0.086808	0.011823	-0.011219
1036	5.188519	0.005000	-0.027312	-0.835968	9.641112	-0.598513	-0.261188	-1.263347	0.185014	0.014826	-0.007947
1037	5.193519	0.005000	-0.064507	-1.077760	9.738507	-0.598174	-0.261527	-1.262590	0.285170	0.011918	-0.002457
1038	5.198519	0.005000	-0.093538	-1.162142	9.653040	-0.597835	-0.261866	-1.261833	0.333599	0.014238	-0.018093
1039	5.203519	0.005000	-0.034205	-0.998103	9.600214	-0.597496	-0.262205	-1.261076	0.389872	0.016965	0.001389
1040	5.208519	0.005000	0.098572	-0.844132	9.604226	-0.597157	-0.262544	-1.260319	0.416893	0.023566	0.002760
1041	5.213519	0.005000	0.225324	-0.844272	9.644148	-0.596818	-0.262883	-1.259562	0.407849	0.029653	0.000773
1042	5.218519	0.005000	0.246578	-0.745560	9.737345	-0.596479	-0.263222	-1.258804	0.376781	0.025779	0.010269
1043	5.223519	0.005000	0.380239	-0.995918	9.795082	-0.596140	-0.263561	-1.258047	0.342894	0.032601	-0.015105
1044	5.228519	0.005000	0.221942	-1.151458	9.784258	-0.595801	-0.263900	-1.257290	0.288526	0.038652	-0.013826
1045	5.233519	0.005000	0.121686	-1.151701	9.274520	-0.595542	-0.264199	-1.256622	0.234966	0.031343	-0.010196
1046	5.238519	0.005000	0.019752	-1.128479	10.144725	-0.595655	-0.264312	-1.256370	0.133894	0.029737	-0.028463
1047	5.243519	0.005000	-0.102231	-0.793062	8.829000	-0.595768	-0.264425	-1.256118	0.109202	0.010721	-0.035356
1048	5.248519	0.005000	-0.196200	-1.530360	10.238480	-0.595881	-0.264538	-1.255865	0.211785	0.020821	-0.047439
1049	5.253519	0.005000	-0.274680	-1.106992	9.407716	-0.595994	-0.264651	-1.255613	0.067961	0.010907	-0.034968
1050	5.258519	0.005000	-0.374286	-1.162097	9.818987	-0.596107	-0.264764	-1.255361	0.035844	0.023713	-0.035761
1051	5.263519	0.005000	-0.411315	-1.075576	9.699917	-0.596220	-0.264877	-1.255109	-0.025578	0.017598	-0.026354
1052	5.268519	0.005000	-0.411702	-0.921822	9.492269	-0.596333	-0.264990	-1.254856	-0.020053	0.015543	-0.033713
1053	5.273519	0.005000	-0.507440	-0.926160	9.993280	-0.596446	-0.265103	-1.254604	0.045117	0.027794	-0.036872
1054	5.278519	0.005000	-0.566831	-0.806569	9.470014	-0.596559	-0.265216	-1.254352	0.045519	0.012487	-0.024649
1055	5.283519	0.005000	-0.493405	-1.014431	9.966247	-0.596672	-0.265329	-1.254099	0.056071	0.028489	-0.036117
1056	5.288519	0.005000	-0.392400	-0.965307	9.700150	-0.596785	-0.265442	-1.253847	0.015384	0.010230	-0.024334
1057	5.293519	0.005000	-0.353160	-1.098720	9.865190	-0.596898	-0.265555	-1.253595	0.003604	0.016560	-0.031949
1058	5.298519	0.005000	-0.392400	-0.910359	9.764470	-0.597011	-0.265668	-1.253342	-0.007202	0.018308	-0.030669
1059	5.303519	0.005000	-0.326948	-0.824040	9.718569	-0.597015	-0.265781	-1.253576	-0.006825	0.004192	-0.020580
1060	5.308519	0.005000	-0.289464	-0.787355	9.999083	-0.597015	-0.265894	-1.253828	-0.013474	0.019077	-0.036611
1061	5.313519	0.005000	-0.263154	-0.655554	9.625326	-0.597015	-0.266007	-1.254081	-0.006482	0.010192	-0.031184
1062	5.318519	0.005000	-0.224937	-0.742787	9.802270	-0.597015	-0.266120	-1.254333	0.020634	0.014570	-0.020430
1063	5.323519	0.005000	-0.176980	-0.578190	9.711500	-0.597015	-0.266233	-1.254586	0.023244	0.021276	-0.021991
1064	5.328519	0.005000	-0.087419	-0.763437	9.801061	-0.597015	-0.266346	-1.254838	0.058332	0.017619	-0.013462
1065	5.333519	0.005000	-0.156960	-0.808548	9.731520	-0.597015	-0.266459	-1.255091	0.071505	0.015886	-0.024740
1066	5.338519	0.005000	-0.156960	-1.025011	9.706067	-0.597015	-0.266571	-1.255343	0.087401	0.013932	-0.020052
1067	5.343519	0.005000	-0.169663	-0.856928	9.685928	-0.597015	-0.266684	-1.255595	0.094676	0.013753	-0.018406
1068	5.348519	0.005000	-0.274680	-0.857951	9.697609	-0.597015	-0.266797	-1.255848	0.106714	0.017272	-0.019670
1069	5.353519	0.005000	-0.353160	-0.784800	9.770760	-0.597015	-0.266910	-1.256100	0.108832	0.022566	-0.030402
1070	5.358519	0.005000	-0.424111	-0.962178	9.763231	-0.597015	-0.267023	-1.256353	0.126156	0.024373	-0.031334
1071	5.363519	0.005000	-0.319404	-0.983742	9.653040	-0.597015	-0.267136	-1.256605	0.116116	0.021304	-0.030713
1072	5.368519	0.005000	-0.428201	-1.018520	9.654760	-0.596759	-0.267590	-1.256667	0.102890	0.020421	-0.039727
1073	5.373519	0.005000	-0.394516	-0.903225	9.809295	-0.596420	-0.268155	-1.256667	0.128336	0.016758	-0.023618
1074	5.378519	0.005000	-0.431501	-0.941481	9.731520	-0.596082	-0.268720	-1.256667	0.145256	0.023937	-0.041366
1075	5.383519	0.005000	-0.354028	-0.863280	9.654775	-0.595743	-0.269284	-1.256667	0.167906	0.026092	-0.046920
1076	5.388519	0.005000	-0.274680	-0.979110	9.766980	-0.595404	-0.269849	-1.256667	0.193950	0.023457	-0.039180
1077	5.393519	0.005000	-0.313920	-0.941760	9.731520	-0.595065	-0.270414	-1.256667	0.203324	0.023114	-0.049975
1078	5.398519	0.005000	-0.167370	-0.984470	9.770760	-0.594726	-0.270979	-1.256667	0.234426	0.009105	-0.029985
1079	5.403519	0.005000	-0.265695	-0.872265	9.814493	-0.594387	-0.271544	-1.256667	0.237688	0.017173	-0.025009
1080	5.408519	0.005000	-0.161995	-0.936725	9.775795	-0.594048	-0.272108	-1.256667	0.260941	0.023617	-0.032940
