# FOX Logger (IMU file)
# (c) INRIA 2011-2014
# File created from file sensbiotk output
#
# File format:
# id	t	dt	ax	ay	az	mx	my	mz	gx	gy	gz
#
# Units:
#	Time: s
#	Acceleration: m.s^-2
#	Magneto: gauss
#	Gyrometer: rad/s
#
1	0.011017	0.011017	7.047513	-0.470880	-6.490287	0.062687	-0.129851	-0.651667	-0.115157	0.349504	-0.070385
2	0.016017	0.005000	6.964011	-0.510120	-6.497487	0.062573	-0.130989	-0.652048	-0.120851	0.362041	-0.078887
3	0.021017	0.005000	6.984720	-0.470880	-6.535215	0.062459	-0.132127	-0.652429	-0.112255	0.361958	-0.086808
4	0.026017	0.005000	6.984720	-0.416619	-6.474600	0.062346	-0.133265	-0.652811	-0.108553	0.362039	-0.080827
5	0.031017	0.005000	6.906240	-0.461410	-6.540903	0.062232	-0.134403	-0.653192	-0.107070	0.362377	-0.090671
6	0.036017	0.005000	6.887355	-0.362603	-6.504397	0.062118	-0.135540	-0.653573	-0.102474	0.366435	-0.076097
7	0.041017	0.005000	6.795463	-0.445527	-6.474600	0.062004	-0.136678	-0.653954	-0.097526	0.375233	-0.089351
8	0.046017	0.005000	6.800818	-0.470880	-6.548981	0.061890	-0.137816	-0.654335	-0.114873	0.372235	-0.088893
9	0.051017	0.005000	6.791031	-0.432896	-6.513840	0.061776	-0.138954	-0.654717	-0.103353	0.392321	-0.097871
10	0.056017	0.005000	6.979955	-0.395577	-6.438537	0.061663	-0.140092	-0.655098	-0.104458	0.391905	-0.088914
11	0.061017	0.005000	6.915105	-0.392400	-6.448657	0.061549	-0.141230	-0.655479	-0.100123	0.395955	-0.093386
12	0.066017	0.005000	7.056310	-0.353160	-6.331419	0.061435	-0.142368	-0.655860	-0.105267	0.397612	-0.097026
13	0.071017	0.005000	6.925542	-0.353160	-6.386469	0.061321	-0.143506	-0.656241	-0.096615	0.391301	-0.098888
14	0.076017	0.005000	6.972225	-0.406650	-6.383625	0.061207	-0.144644	-0.656623	-0.105057	0.403172	-0.109034
15	0.081017	0.005000	6.993282	-0.368499	-6.293739	0.060289	-0.144977	-0.657341	-0.090198	0.397802	-0.103976
16	0.086017	0.005000	6.963663	-0.334977	-6.356880	0.059265	-0.145205	-0.658103	-0.092114	0.404679	-0.105948
17	0.091017	0.005000	6.885667	-0.390494	-6.354974	0.058241	-0.145432	-0.658865	-0.095744	0.409280	-0.107959
18	0.096017	0.005000	6.851177	-0.321514	-6.286629	0.057217	-0.145660	-0.659628	-0.098598	0.411510	-0.109871
19	0.101017	0.005000	6.879677	-0.300941	-6.278400	0.056193	-0.145887	-0.660390	-0.106390	0.416778	-0.119743
20	0.106017	0.005000	7.053065	-0.284815	-6.259430	0.055168	-0.146115	-0.661153	-0.085177	0.419831	-0.117937
21	0.111017	0.005000	6.952771	-0.274680	-6.278400	0.054144	-0.146343	-0.661915	-0.077540	0.430136	-0.124723
22	0.116017	0.005000	6.980219	-0.318421	-6.248162	0.053120	-0.146570	-0.662677	-0.070117	0.425779	-0.122427
23	0.121017	0.005000	6.908312	-0.272608	-6.199920	0.052096	-0.146798	-0.663440	-0.058405	0.430476	-0.127477
24	0.126017	0.005000	7.060886	-0.273909	-6.122983	0.051072	-0.147025	-0.664202	-0.074233	0.436107	-0.136597
25	0.131017	0.005000	7.027575	-0.196200	-6.167911	0.050048	-0.147253	-0.664965	-0.059786	0.431651	-0.130612
26	0.136017	0.005000	6.997639	-0.196200	-6.062338	0.049024	-0.147480	-0.665727	-0.048680	0.443417	-0.138017
27	0.141017	0.005000	7.155037	-0.156960	-6.121440	0.047999	-0.147708	-0.666490	-0.038831	0.439621	-0.137549
28	0.146017	0.005000	7.141680	-0.211780	-6.160680	0.047150	-0.148023	-0.667057	-0.025820	0.443783	-0.146918
29	0.151017	0.005000	7.116977	-0.156960	-6.096737	0.046353	-0.148364	-0.667565	-0.030643	0.452023	-0.150338
30	0.156017	0.005000	7.045819	-0.122198	-5.999242	0.045557	-0.148706	-0.668073	-0.023833	0.453296	-0.151249
31	0.161017	0.005000	7.063200	-0.156960	-6.044170	0.044760	-0.149047	-0.668582	-0.016832	0.464693	-0.164309
32	0.166017	0.005000	7.125509	-0.110822	-5.862931	0.043964	-0.149389	-0.669090	0.002359	0.445893	-0.165698
33	0.171017	0.005000	7.142935	-0.170458	-5.833262	0.043167	-0.149730	-0.669598	0.001845	0.470660	-0.165777
34	0.176017	0.005000	7.248448	-0.156960	-5.896952	0.042371	-0.150071	-0.670106	0.002107	0.463067	-0.168296
35	0.181017	0.005000	7.102440	-0.132635	-5.830544	0.041574	-0.150413	-0.670614	0.003582	0.460472	-0.169865
36	0.186017	0.005000	7.180920	-0.005264	-5.689800	0.040778	-0.150754	-0.671123	-0.000084	0.463019	-0.190222
37	0.191017	0.005000	7.261820	0.039240	-5.692220	0.039981	-0.151096	-0.671631	0.020711	0.464992	-0.182669
38	0.196017	0.005000	7.337456	-0.038393	-5.845489	0.039184	-0.151437	-0.672139	0.035400	0.473844	-0.194115
39	0.201017	0.005000	7.341147	0.000000	-5.660362	0.038388	-0.151778	-0.672647	0.040560	0.471073	-0.189338
40	0.206017	0.005000	7.483555	-0.145675	-5.644918	0.037591	-0.152120	-0.673155	0.025020	0.466709	-0.189864
41	0.211017	0.005000	7.581806	-0.095453	-5.619806	0.036573	-0.152683	-0.673829	0.047170	0.460102	-0.202842
42	0.216017	0.005000	7.707619	0.016579	-5.577329	0.035436	-0.153365	-0.674591	0.039485	0.470143	-0.202251
43	0.221017	0.005000	7.780412	-0.042523	-5.557906	0.034298	-0.154048	-0.675353	0.046573	0.476774	-0.214136
44	0.226017	0.005000	7.803556	-0.039240	-5.544654	0.033161	-0.154730	-0.676115	0.040313	0.462026	-0.214229
45	0.231017	0.005000	7.809244	0.039240	-5.494084	0.032024	-0.155413	-0.676877	0.032442	0.466949	-0.214972
46	0.236017	0.005000	7.960456	0.022252	-5.398132	0.030886	-0.156095	-0.677639	0.041040	0.461016	-0.223265
47	0.241017	0.005000	8.004960	-0.028288	-5.272304	0.029749	-0.156778	-0.678401	0.038192	0.455693	-0.233229
48	0.246017	0.005000	8.066800	-0.067180	-5.398480	0.028611	-0.157460	-0.679163	0.040228	0.453993	-0.239604
49	0.251017	0.005000	8.122680	-0.086936	-5.280488	0.027474	-0.158142	-0.679925	0.028655	0.442100	-0.231359
50	0.256017	0.005000	8.049812	-0.162572	-5.218920	0.026337	-0.158825	-0.680687	0.037263	0.439537	-0.229323
51	0.261017	0.005000	8.077903	-0.159728	-5.185217	0.025199	-0.159507	-0.681449	0.041080	0.430813	-0.232892
52	0.266017	0.005000	8.006140	-0.116933	-5.258553	0.024062	-0.160190	-0.682211	0.029035	0.426739	-0.240541
53	0.271017	0.005000	8.122680	-0.112819	-5.223821	0.022925	-0.160872	-0.682973	0.026774	0.414777	-0.235997
54	0.276017	0.005000	8.127975	0.028651	-5.247571	0.022208	-0.161014	-0.683736	0.017950	0.409651	-0.228402
55	0.281017	0.005000	8.114542	0.039240	-5.094514	0.021867	-0.160673	-0.684498	0.023371	0.391530	-0.231665
56	0.286017	0.005000	8.201160	-0.021965	-5.005445	0.021525	-0.160331	-0.685260	0.038498	0.379639	-0.225625
57	0.291017	0.005000	8.293466	-0.025414	-5.061960	0.021184	-0.159990	-0.686022	0.019250	0.381714	-0.224843
58	0.296017	0.005000	8.247207	0.000000	-5.061960	0.020843	-0.159649	-0.686784	0.028009	0.363404	-0.228678
59	0.301017	0.005000	8.279640	-0.177140	-5.022720	0.020502	-0.159308	-0.687546	0.016449	0.367052	-0.225807
60	0.306017	0.005000	8.380024	-0.095816	-4.944240	0.020160	-0.158966	-0.688308	0.004857	0.361951	-0.226221
61	0.311017	0.005000	8.254892	-0.074244	-4.997972	0.019819	-0.158625	-0.689070	-0.004621	0.351513	-0.208832
62	0.316017	0.005000	8.263696	-0.004296	-5.077904	0.019478	-0.158284	-0.689832	-0.028026	0.349877	-0.221349
63	0.321017	0.005000	8.183552	0.060872	-5.009892	0.019137	-0.157943	-0.690594	-0.019417	0.335941	-0.196599
64	0.326017	0.005000	8.214018	0.052098	-5.029149	0.018795	-0.157601	-0.691356	-0.009884	0.335657	-0.196490
65	0.331017	0.005000	8.311710	0.117720	-5.058375	0.018454	-0.157260	-0.692118	-0.019454	0.328382	-0.193638
66	0.336017	0.005000	8.241141	0.156960	-4.981998	0.018113	-0.156919	-0.692880	-0.022167	0.319752	-0.182881
67	0.341017	0.005000	8.279640	0.045548	-4.979275	0.017587	-0.156947	-0.693539	-0.028993	0.315900	-0.186069
68	0.346017	0.005000	8.245347	0.014840	-4.934347	0.016790	-0.157516	-0.694047	-0.003839	0.314348	-0.178881
69	0.351017	0.005000	8.176740	-0.031830	-4.968660	0.015994	-0.158085	-0.694556	-0.015501	0.312224	-0.179044
70	0.356017	0.005000	8.192416	0.087224	-4.973315	0.015198	-0.158654	-0.695064	-0.032751	0.308983	-0.174889
71	0.361017	0.005000	8.227391	0.026231	-4.904788	0.014401	-0.159223	-0.695572	-0.021666	0.317344	-0.171387
72	0.366017	0.005000	8.263787	0.055093	-4.834840	0.013605	-0.159792	-0.696081	-0.026878	0.316221	-0.180264
73	0.371017	0.005000	8.141377	0.198046	-4.824674	0.012808	-0.160361	-0.696589	-0.031582	0.304870	-0.157548
74	0.376017	0.005000	8.180073	0.196200	-4.865760	0.012012	-0.160930	-0.697097	-0.038150	0.300453	-0.159541
75	0.381017	0.005000	8.168606	0.126343	-4.944240	0.011215	-0.161499	-0.697605	-0.016270	0.289658	-0.150239
76	0.386017	0.005000	8.186850	0.090945	-4.789126	0.010419	-0.162068	-0.698114	-0.025788	0.294871	-0.139992
77	0.391017	0.005000	8.122680	0.147339	-4.846518	0.009622	-0.162637	-0.698622	-0.016645	0.293412	-0.141061
78	0.396017	0.005000	8.122680	0.182646	-4.800834	0.008826	-0.163205	-0.699130	-0.031615	0.295234	-0.130194
79	0.401017	0.005000	8.201160	0.117720	-4.926632	0.008029	-0.163774	-0.699639	-0.031687	0.291569	-0.130549
80	0.406017	0.005000	8.318880	0.117720	-4.862644	0.007397	-0.164310	-0.700147	-0.012531	0.279281	-0.131272
81	0.411017	0.005000	8.242972	0.193628	-4.749326	0.007170	-0.164765	-0.700655	-0.024149	0.286942	-0.125063
82	0.416017	0.005000	8.349861	0.223051	-4.717059	0.006942	-0.165220	-0.701163	-0.011331	0.284698	-0.114372
83	0.421017	0.005000	8.390386	0.196200	-4.780306	0.006715	-0.165675	-0.701671	-0.014311	0.276430	-0.117687
84	0.426017	0.005000	8.259347	0.225967	-4.716927	0.006487	-0.166130	-0.702179	-0.014043	0.275507	-0.116556
85	0.431017	0.005000	8.358120	0.299095	-4.642528	0.006260	-0.166585	-0.702687	-0.012646	0.275302	-0.104938
86	0.436017	0.005000	8.397360	0.259628	-4.732988	0.006032	-0.167040	-0.703195	-0.007340	0.281651	-0.112582
87	0.441017	0.005000	8.515080	0.353160	-4.655114	0.005805	-0.167495	-0.703703	0.003674	0.272188	-0.097124
88	0.446017	0.005000	8.496579	0.371661	-4.674038	0.005577	-0.167950	-0.704211	-0.000499	0.267397	-0.103431
89	0.451017	0.005000	8.491966	0.320909	-4.567966	0.005350	-0.168405	-0.704719	-0.008055	0.258867	-0.090760
90	0.456017	0.005000	8.475235	0.353160	-4.656883	0.005123	-0.168860	-0.705227	-0.002849	0.254473	-0.089236
91	0.461017	0.005000	8.407798	0.264242	-4.737602	0.004895	-0.169315	-0.705736	0.008067	0.245566	-0.093175
92	0.466017	0.005000	8.444194	0.282274	-4.723988	0.004668	-0.169770	-0.706244	0.027085	0.245235	-0.078726
93	0.471017	0.005000	8.402110	0.318670	-4.660060	0.004326	-0.170187	-0.706625	0.012105	0.240717	-0.064760
94	0.476017	0.005000	8.473912	0.351232	-4.589152	0.003416	-0.170414	-0.706370	0.012753	0.236033	-0.069127
95	0.481017	0.005000	8.359088	0.275164	-4.551840	0.002506	-0.170642	-0.706116	0.019640	0.228683	-0.078873
96	0.486017	0.005000	8.433272	0.310592	-4.738056	0.001595	-0.170870	-0.705862	0.022297	0.216972	-0.070393
97	0.491017	0.005000	8.508908	0.280852	-4.630320	0.000685	-0.171097	-0.705608	0.027848	0.219330	-0.056320
98	0.496017	0.005000	8.367136	0.313920	-4.609112	-0.000226	-0.171325	-0.705354	0.024399	0.223912	-0.060739
99	0.501017	0.005000	8.330740	0.302060	-4.551840	-0.001136	-0.171552	-0.705100	0.045374	0.218017	-0.054186
100	0.506017	0.005000	8.393379	0.299513	-4.566247	-0.002046	-0.171780	-0.704845	0.032324	0.221796	-0.048852
101	0.511017	0.005000	8.537241	0.330999	-4.439203	-0.002957	-0.172008	-0.704591	0.039328	0.216249	-0.059614
102	0.516017	0.005000	8.593560	0.353160	-4.511995	-0.003867	-0.172235	-0.704337	0.047202	0.208294	-0.051360
103	0.521017	0.005000	8.537647	0.392400	-4.596974	-0.004777	-0.172463	-0.704083	0.049973	0.194356	-0.060681
104	0.526017	0.005000	8.475840	0.378301	-4.580037	-0.005688	-0.172690	-0.703829	0.064567	0.194360	-0.048476
105	0.531017	0.005000	8.554320	0.369891	-4.540585	-0.006598	-0.172918	-0.703574	0.057892	0.203351	-0.042947
106	0.536017	0.005000	8.576739	0.322331	-4.495779	-0.007469	-0.173106	-0.703371	0.064677	0.188817	-0.034418
107	0.541017	0.005000	8.520647	0.280247	-4.512600	-0.007582	-0.172537	-0.704133	0.073150	0.185928	-0.027628
108	0.546017	0.005000	8.475840	0.311197	-4.554563	-0.007696	-0.171968	-0.704895	0.069187	0.173078	-0.031064
109	0.551017	0.005000	8.475840	0.352918	-4.551961	-0.007810	-0.171400	-0.705657	0.077288	0.174159	-0.022285
110	0.556017	0.005000	8.509150	0.244335	-4.518530	-0.007923	-0.170831	-0.706419	0.086813	0.170525	-0.026715
111	0.561017	0.005000	8.340300	0.201555	-4.434120	-0.008037	-0.170262	-0.707181	0.089449	0.163671	-0.029774
112	0.566017	0.005000	8.389161	0.274680	-4.527243	-0.008151	-0.169694	-0.707943	0.087234	0.165928	-0.025480
113	0.571017	0.005000	8.245331	0.285723	-4.641363	-0.008265	-0.169125	-0.708705	0.088315	0.179531	-0.029923
114	0.576017	0.005000	8.383473	0.313920	-4.655673	-0.008378	-0.168556	-0.709468	0.078802	0.179054	-0.027465
115	0.581017	0.005000	8.302149	0.274680	-4.675339	-0.008492	-0.167988	-0.710230	0.088462	0.181671	-0.031774
116	0.586017	0.005000	8.298746	0.353160	-4.709829	-0.008606	-0.167419	-0.710992	0.111090	0.185287	-0.026180
117	0.591017	0.005000	8.414650	0.296630	-4.617689	-0.008719	-0.166850	-0.711754	0.109389	0.200058	-0.030985
118	0.596017	0.005000	8.372566	0.303573	-4.591080	-0.008833	-0.166282	-0.712516	0.118984	0.191266	-0.031937
119	0.601017	0.005000	8.436600	0.364763	-4.607115	-0.008947	-0.165713	-0.713278	0.109996	0.213025	-0.024907
120	0.606017	0.005000	8.379843	0.422881	-4.569357	-0.008955	-0.165989	-0.713922	0.126800	0.206234	-0.024372
121	0.611017	0.005000	8.291469	0.319835	-4.736211	-0.008955	-0.166330	-0.714558	0.124137	0.205934	-0.028173
122	0.616017	0.005000	8.279640	0.350089	-4.741898	-0.008955	-0.166671	-0.715193	0.125758	0.218968	-0.026307
123	0.621017	0.005000	8.396679	0.313239	-4.669560	-0.008955	-0.167013	-0.715829	0.143433	0.217344	-0.030053
124	0.626017	0.005000	8.358120	0.348834	-4.669560	-0.008955	-0.167354	-0.716464	0.117249	0.222115	-0.021895
125	0.631017	0.005000	8.363127	0.421626	-4.601094	-0.008955	-0.167695	-0.717099	0.142041	0.227601	-0.030726
126	0.636017	0.005000	8.358120	0.392400	-4.536153	-0.008955	-0.168037	-0.717735	0.142272	0.232133	-0.032567
127	0.641017	0.005000	8.397360	0.410250	-4.591080	-0.008955	-0.168378	-0.718370	0.130110	0.224196	-0.039390
128	0.646017	0.005000	8.397360	0.392400	-4.526139	-0.008955	-0.168719	-0.719005	0.143669	0.217215	-0.035400
129	0.651017	0.005000	8.397360	0.290786	-4.535734	-0.008955	-0.169061	-0.719641	0.135970	0.224466	-0.042585
130	0.656017	0.005000	8.496322	0.295162	-4.550115	-0.008955	-0.169402	-0.720276	0.145013	0.220225	-0.047898
131	0.661017	0.005000	8.515080	0.313920	-4.512600	-0.008955	-0.169743	-0.720912	0.138442	0.225516	-0.037602
132	0.666017	0.005000	8.524731	0.338366	-4.517743	-0.008955	-0.170084	-0.721547	0.133140	0.220332	-0.047565
133	0.671017	0.005000	8.397360	0.274680	-4.570567	-0.009417	-0.170334	-0.721667	0.134589	0.215181	-0.036840
134	0.676017	0.005000	8.554320	0.304813	-4.473360	-0.009986	-0.170561	-0.721667	0.147785	0.219163	-0.047057
135	0.681017	0.005000	8.527752	0.241776	-4.473360	-0.010555	-0.170789	-0.721667	0.170003	0.214698	-0.047289
136	0.686017	0.005000	8.711280	0.274680	-4.430232	-0.011124	-0.171017	-0.721667	0.141199	0.216839	-0.041664
137	0.691017	0.005000	8.673084	0.313920	-4.353552	-0.011694	-0.171244	-0.721667	0.150942	0.215258	-0.051592
138	0.696017	0.005000	8.636400	0.276480	-4.389480	-0.012263	-0.171472	-0.721667	0.158839	0.213781	-0.052149
139	0.701017	0.005000	8.628156	0.313920	-4.390236	-0.012832	-0.171700	-0.721667	0.153566	0.208714	-0.056400
140	0.706017	0.005000	8.664552	0.306432	-4.379904	-0.013401	-0.171927	-0.721667	0.141351	0.199277	-0.049955
141	0.711017	0.005000	8.750520	0.313920	-4.405212	-0.013971	-0.172155	-0.721667	0.136199	0.197132	-0.050916
142	0.716017	0.005000	8.672040	0.222552	-4.434120	-0.014540	-0.172383	-0.721667	0.153236	0.194990	-0.049289
143	0.721017	0.005000	8.672040	0.258660	-4.466159	-0.015109	-0.172611	-0.721667	0.132245	0.186341	-0.044611
144	0.726017	0.005000	8.653415	0.293305	-4.337015	-0.015678	-0.172838	-0.721667	0.128551	0.183640	-0.049408
145	0.731017	0.005000	8.747253	0.217454	-4.434120	-0.016248	-0.173066	-0.721667	0.123175	0.183747	-0.048268
146	0.736017	0.005000	8.765662	0.259538	-4.394880	-0.016418	-0.173134	-0.722201	0.136019	0.176485	-0.052527
147	0.741017	0.005000	8.635145	0.313920	-4.340997	-0.016418	-0.173134	-0.722963	0.133151	0.167600	-0.046636
148	0.746017	0.005000	8.515080	0.304465	-4.434120	-0.016418	-0.173134	-0.723725	0.122656	0.164095	-0.036624
149	0.751017	0.005000	8.548133	0.281291	-4.349029	-0.016418	-0.173134	-0.724487	0.129473	0.157872	-0.041689
150	0.756017	0.005000	8.632800	0.263380	-4.430353	-0.016418	-0.173134	-0.725249	0.104305	0.164245	-0.024986
151	0.761017	0.005000	8.558495	0.236832	-4.355640	-0.016418	-0.173134	-0.726011	0.134998	0.159904	-0.031715
152	0.766017	0.005000	8.634252	0.274680	-4.317852	-0.016418	-0.173134	-0.726773	0.115699	0.148632	-0.018751
153	0.771017	0.005000	8.702688	0.278976	-4.242216	-0.016418	-0.173134	-0.727535	0.112336	0.144187	-0.020422
154	0.776017	0.005000	8.800440	0.242580	-4.394880	-0.016418	-0.173134	-0.728297	0.113194	0.134230	-0.015524
155	0.781017	0.005000	8.672736	0.235440	-4.375608	-0.016418	-0.173134	-0.729059	0.114316	0.135512	-0.020380
156	0.786017	0.005000	8.567148	0.169788	-4.342812	-0.016418	-0.173134	-0.729821	0.121144	0.122615	-0.012335
157	0.791017	0.005000	8.530752	0.243336	-4.324296	-0.016418	-0.173134	-0.730584	0.116449	0.117016	-0.005212
158	0.796017	0.005000	8.475840	0.317036	-4.213626	-0.016418	-0.173134	-0.731346	0.112969	0.109883	0.000388
159	0.801017	0.005000	8.496746	0.293014	-4.256254	-0.016484	-0.172937	-0.731961	0.107724	0.099711	0.002443
160	0.806017	0.005000	8.530570	0.353160	-4.277160	-0.016598	-0.172595	-0.732469	0.098554	0.102544	0.008962
161	0.811017	0.005000	8.593560	0.313920	-4.329046	-0.016711	-0.172254	-0.732977	0.107223	0.102096	0.017932
162	0.816017	0.005000	8.622998	0.304118	-4.336035	-0.016825	-0.171913	-0.733486	0.103583	0.100155	0.017980
163	0.821017	0.005000	8.665081	0.346201	-4.323359	-0.016939	-0.171571	-0.733994	0.095791	0.094637	0.006675
164	0.826017	0.005000	8.667925	0.274680	-4.281275	-0.017053	-0.171230	-0.734502	0.109307	0.093885	0.022690
165	0.831017	0.005000	8.668182	0.313920	-4.354354	-0.017166	-0.170889	-0.735010	0.110204	0.083881	0.033196
166	0.836017	0.005000	8.554320	0.275784	-4.316400	-0.017280	-0.170547	-0.735518	0.103966	0.077303	0.035998
167	0.841017	0.005000	8.585664	0.274680	-4.281108	-0.017394	-0.170206	-0.736027	0.098471	0.066865	0.046577
168	0.846017	0.005000	8.658456	0.110928	-4.329984	-0.017508	-0.169865	-0.736535	0.109857	0.059733	0.041991
169	0.851017	0.005000	8.740884	0.117720	-4.267524	-0.017621	-0.169523	-0.737043	0.097587	0.053727	0.047217
170	0.856017	0.005000	8.578654	0.196200	-4.279899	-0.017735	-0.169182	-0.737551	0.080913	0.058334	0.050299
171	0.861017	0.005000	8.657170	0.156960	-4.385380	-0.017849	-0.168841	-0.738059	0.091789	0.051792	0.055334
172	0.866017	0.005000	8.672040	0.096194	-4.377166	-0.018120	-0.168815	-0.738392	0.086676	0.053966	0.056228
173	0.871017	0.005000	8.574863	0.158806	-4.450972	-0.018575	-0.169156	-0.738519	0.095863	0.049391	0.059516
174	0.876017	0.005000	8.413213	0.117720	-4.496747	-0.019031	-0.169497	-0.738646	0.072774	0.050086	0.057070
175	0.881017	0.005000	8.541099	0.169969	-4.460139	-0.019486	-0.169839	-0.738773	0.071302	0.045320	0.063698
176	0.886017	0.005000	8.455509	0.136629	-4.336731	-0.019941	-0.170180	-0.738900	0.080744	0.042744	0.051117
177	0.891017	0.005000	8.451243	0.149638	-4.497957	-0.020396	-0.170521	-0.739027	0.086419	0.051758	0.056873
178	0.896017	0.005000	8.549389	0.117720	-4.497806	-0.020852	-0.170863	-0.739154	0.087925	0.044790	0.058149
179	0.901017	0.005000	8.515080	0.080568	-4.357728	-0.021307	-0.171204	-0.739281	0.081907	0.048689	0.059314
180	0.906017	0.005000	8.553564	0.156204	-4.433364	-0.021762	-0.171545	-0.739408	0.097068	0.040232	0.061087
181	0.911017	0.005000	8.361720	0.153360	-4.505399	-0.022217	-0.171887	-0.739536	0.095047	0.042455	0.069163
182	0.916017	0.005000	8.371008	0.052128	-4.434120	-0.022672	-0.172228	-0.739663	0.085263	0.041539	0.058838
183	0.921017	0.005000	8.515080	0.156960	-4.473360	-0.023128	-0.172569	-0.739790	0.084483	0.041976	0.064569
184	0.926017	0.005000	8.460208	0.133352	-4.418488	-0.023583	-0.172911	-0.739917	0.079479	0.052005	0.063913
185	0.931017	0.005000	8.372627	0.039240	-4.399161	-0.023802	-0.172898	-0.739956	0.131346	0.041597	0.053056
186	0.936017	0.005000	8.375471	0.061129	-4.342827	-0.023575	-0.172216	-0.739829	0.086424	0.048869	0.061766
187	0.941017	0.005000	8.437750	0.039240	-4.493555	-0.023347	-0.171533	-0.739702	0.091237	0.046271	0.058378
188	0.946017	0.005000	8.374321	-0.071642	-4.450321	-0.023120	-0.170850	-0.739575	0.107968	0.046416	0.066725
189	0.951017	0.005000	8.383707	-0.064827	-4.538187	-0.022892	-0.170167	-0.739448	0.098978	0.045115	0.062255
190	0.956017	0.005000	8.312542	-0.100414	-4.372946	-0.022665	-0.169485	-0.739321	0.100507	0.035446	0.063811
191	0.961017	0.005000	8.413607	-0.148837	-4.380010	-0.022437	-0.168802	-0.739194	0.096174	0.050084	0.064671
192	0.966017	0.005000	8.392081	-0.156960	-4.434120	-0.022209	-0.168119	-0.739066	0.106795	0.046777	0.059147
193	0.971017	0.005000	8.360555	-0.154525	-4.507729	-0.021982	-0.167436	-0.738939	0.095349	0.043566	0.052256
194	0.976017	0.005000	8.358528	-0.195383	-4.434120	-0.021754	-0.166754	-0.738812	0.091464	0.041601	0.056895
195	0.981017	0.005000	8.322132	-0.081732	-4.581323	-0.021527	-0.166071	-0.738685	0.087527	0.045365	0.067443
196	0.986017	0.005000	8.436600	-0.117720	-4.400575	-0.021299	-0.165388	-0.738558	0.081391	0.047920	0.071086
197	0.991017	0.005000	8.375062	-0.218498	-4.425649	-0.021072	-0.164706	-0.738431	0.089181	0.050960	0.063530
198	0.996017	0.005000	8.402655	-0.117720	-4.473360	-0.020870	-0.164283	-0.738391	0.063361	0.048625	0.059707
199	1.001017	0.005000	8.350435	-0.167882	-4.419961	-0.020756	-0.164738	-0.738645	0.077081	0.045739	0.061000
200	1.006017	0.005000	8.380357	-0.151726	-4.478594	-0.020642	-0.165193	-0.738899	0.072535	0.038208	0.070692
201	1.011017	0.005000	8.397360	-0.196200	-4.375033	-0.020529	-0.165648	-0.739153	0.070919	0.050068	0.065906
202	1.016017	0.005000	8.318880	-0.268538	-4.450669	-0.020415	-0.166103	-0.739407	0.072581	0.053326	0.066516
203	1.021017	0.005000	8.332585	-0.247269	-4.459655	-0.020301	-0.166558	-0.739661	0.061803	0.059335	0.062022
204	1.026017	0.005000	8.464979	-0.224579	-4.423259	-0.020187	-0.167013	-0.739916	0.081351	0.056180	0.063334
205	1.031017	0.005000	8.444617	-0.164977	-4.473360	-0.020074	-0.167468	-0.740170	0.081082	0.061886	0.061179
206	1.036017	0.005000	8.504733	-0.201374	-4.473360	-0.019960	-0.167923	-0.740424	0.065517	0.062388	0.059408
207	1.041017	0.005000	8.481407	-0.235440	-4.470577	-0.019846	-0.168378	-0.740678	0.085402	0.057977	0.070065
208	1.046017	0.005000	8.475961	-0.235440	-4.473299	-0.019732	-0.168832	-0.740932	0.067466	0.071033	0.066584
209	1.051017	0.005000	8.403141	-0.159850	-4.548950	-0.019618	-0.169287	-0.741186	0.066282	0.071116	0.071166
210	1.056017	0.005000	8.515080	-0.190467	-4.400613	-0.019505	-0.169742	-0.741440	0.057213	0.074948	0.069157
211	1.061017	0.005000	8.663463	-0.095634	-4.526109	-0.019403	-0.170137	-0.741640	0.054100	0.072974	0.066179
212	1.066017	0.005000	8.604981	-0.212598	-4.434120	-0.019403	-0.170023	-0.741386	0.055570	0.081765	0.064729
213	1.071017	0.005000	8.568585	-0.235440	-4.434120	-0.019403	-0.169910	-0.741132	0.056415	0.084605	0.065732
214	1.076017	0.005000	8.582250	-0.229900	-4.355640	-0.019403	-0.169796	-0.740878	0.057721	0.076397	0.069245
215	1.081017	0.005000	8.573819	-0.196200	-4.394880	-0.019403	-0.169682	-0.740624	0.059943	0.074851	0.065312
216	1.086017	0.005000	8.453497	-0.179303	-4.411777	-0.019403	-0.169568	-0.740370	0.047522	0.064665	0.065970
217	1.091017	0.005000	8.515080	-0.078480	-4.355640	-0.019403	-0.169455	-0.740116	0.034793	0.062623	0.063918
218	1.096017	0.005000	8.543111	-0.168169	-4.372461	-0.019403	-0.169341	-0.739862	0.035350	0.064832	0.073498
219	1.101017	0.005000	8.554320	-0.227075	-4.355640	-0.019403	-0.169227	-0.739607	0.048387	0.067038	0.067078
220	1.106017	0.005000	8.509559	-0.173524	-4.361161	-0.019403	-0.169114	-0.739353	0.038374	0.071603	0.069138
221	1.111017	0.005000	8.544881	-0.271534	-4.401173	-0.019403	-0.169000	-0.739099	0.043459	0.064566	0.059133
222	1.116017	0.005000	8.553715	-0.235440	-4.355640	-0.019403	-0.168886	-0.738845	0.033739	0.069631	0.063642
223	1.121017	0.005000	8.512539	-0.235440	-4.392339	-0.019403	-0.168773	-0.738591	0.029799	0.074040	0.064621
224	1.126017	0.005000	8.525851	-0.235440	-4.417964	-0.019403	-0.168659	-0.738337	0.045298	0.065009	0.069636
225	1.131017	0.005000	8.492298	-0.282909	-4.341088	-0.021418	-0.170336	-0.736958	0.041443	0.059140	0.056128
226	1.136017	0.005000	8.504461	-0.342541	-4.373641	-0.023466	-0.172043	-0.735560	0.026032	0.063437	0.061956
227	1.141017	0.005000	8.528543	-0.248903	-4.329863	-0.025514	-0.173750	-0.734163	0.030194	0.071932	0.068742
228	1.146017	0.005000	8.508454	-0.212507	-4.309774	-0.027563	-0.175456	-0.732765	0.034826	0.070442	0.072876
229	1.151017	0.005000	8.515080	-0.157898	-4.236982	-0.029611	-0.177163	-0.731367	0.045629	0.073259	0.066100
230	1.156017	0.005000	8.515080	-0.178955	-4.198680	-0.031659	-0.178870	-0.729970	0.043696	0.061134	0.057482
231	1.161017	0.005000	8.539919	-0.210601	-4.266722	-0.033707	-0.180577	-0.728572	0.037335	0.053623	0.066679
232	1.166017	0.005000	8.475840	-0.235440	-4.249946	-0.035756	-0.182284	-0.727174	0.034614	0.054726	0.060384
233	1.171017	0.005000	8.475840	-0.226258	-4.325582	-0.037804	-0.183991	-0.725776	0.051892	0.058678	0.073707
234	1.176017	0.005000	8.391022	-0.156960	-4.244258	-0.039852	-0.185698	-0.724379	0.037580	0.062305	0.075590
235	1.181017	0.005000	8.436600	-0.192706	-4.198680	-0.041900	-0.187405	-0.722981	0.045177	0.054986	0.067501
236	1.186017	0.005000	8.473889	-0.196850	-4.160090	-0.043949	-0.189111	-0.721583	0.047072	0.054080	0.073669
237	1.191017	0.005000	8.395167	-0.198393	-4.309820	-0.045997	-0.190818	-0.720186	0.041778	0.061763	0.080695
238	1.196017	0.005000	8.445874	-0.200837	-4.351003	-0.045677	-0.189368	-0.720000	0.027319	0.063405	0.079526
239	1.201017	0.005000	8.468413	-0.188773	-4.348213	-0.044995	-0.187435	-0.720000	0.038479	0.071471	0.076957
240	1.206017	0.005000	8.475840	-0.214897	-4.306129	-0.044312	-0.185501	-0.720000	0.036789	0.059021	0.069744
241	1.211017	0.005000	8.515080	-0.196306	-4.394880	-0.043630	-0.183568	-0.720000	0.028376	0.054535	0.079826
242	1.216017	0.005000	8.491799	-0.149638	-4.293119	-0.042947	-0.181634	-0.720000	0.035245	0.058514	0.076201
243	1.221017	0.005000	8.574757	-0.138157	-4.277160	-0.042265	-0.179701	-0.720000	0.059070	0.057532	0.076042
244	1.226017	0.005000	8.533142	-0.135782	-4.337578	-0.041582	-0.177767	-0.720000	0.030556	0.072372	0.068735
245	1.231017	0.005000	8.656822	-0.205004	-4.301182	-0.040900	-0.175833	-0.720000	0.039247	0.055715	0.077875
246	1.236017	0.005000	8.515080	-0.235440	-4.237920	-0.040217	-0.173900	-0.720000	0.032148	0.059349	0.060417
247	1.241017	0.005000	8.652980	-0.196200	-4.296220	-0.039535	-0.171966	-0.720000	0.041996	0.055358	0.065283
248	1.246017	0.005000	8.697908	-0.196200	-4.237920	-0.038852	-0.170033	-0.720000	0.047112	0.055676	0.065057
249	1.251017	0.005000	8.593560	-0.126343	-4.316400	-0.038170	-0.168099	-0.720000	0.053095	0.054978	0.062222
250	1.256017	0.005000	8.632800	-0.159895	-4.239387	-0.037487	-0.166166	-0.720000	0.048502	0.045323	0.068675
251	1.261017	0.005000	8.632800	-0.235440	-4.239297	-0.036550	-0.165333	-0.721230	0.030578	0.038295	0.061114
252	1.266017	0.005000	8.663599	-0.161180	-4.342979	-0.035526	-0.164878	-0.722882	0.054254	0.041025	0.053021
253	1.271017	0.005000	8.750520	-0.182071	-4.212809	-0.034502	-0.164423	-0.724534	0.041247	0.043186	0.073623
254	1.276017	0.005000	8.722156	-0.186745	-4.267705	-0.033478	-0.163967	-0.726186	0.042908	0.034529	0.058618
255	1.281017	0.005000	8.762818	-0.169258	-4.250218	-0.032454	-0.163512	-0.727838	0.049551	0.023571	0.083899
256	1.286017	0.005000	8.647942	-0.148005	-4.310213	-0.031430	-0.163057	-0.729490	0.053824	0.028388	0.059678
257	1.291017	0.005000	8.632800	-0.199467	-4.156173	-0.030406	-0.162602	-0.731141	0.052814	0.025997	0.062266
258	1.296017	0.005000	8.630825	-0.196200	-4.217312	-0.029382	-0.162146	-0.732793	0.052084	0.031883	0.063584
259	1.301017	0.005000	8.656005	-0.219405	-4.277160	-0.028358	-0.161691	-0.734445	0.058142	0.030879	0.050405
260	1.306017	0.005000	8.659182	-0.117720	-4.290351	-0.027334	-0.161236	-0.736097	0.064347	0.033761	0.046335
261	1.311017	0.005000	8.721627	-0.156960	-4.256466	-0.026310	-0.160781	-0.737749	0.050591	0.024355	0.052034
262	1.316017	0.005000	8.632800	-0.242943	-4.230417	-0.025286	-0.160325	-0.739401	0.048268	0.020058	0.064325
263	1.321017	0.005000	8.558979	-0.196200	-4.394880	-0.024262	-0.159870	-0.741053	0.045815	0.017252	0.048712
264	1.326017	0.005000	8.714953	-0.196200	-4.282670	-0.023952	-0.159487	-0.742066	0.077004	0.010909	0.047599
265	1.331017	0.005000	8.712430	-0.234865	-4.317550	-0.024066	-0.159145	-0.742701	0.056944	0.015552	0.056363
266	1.336017	0.005000	8.561158	-0.078480	-4.273741	-0.024180	-0.158804	-0.743337	0.057922	0.010473	0.049874
267	1.341017	0.005000	8.665777	-0.196200	-4.277160	-0.024294	-0.158463	-0.743972	0.050857	0.005578	0.045349
268	1.346017	0.005000	8.641907	-0.226333	-4.307293	-0.024407	-0.158121	-0.744607	0.055532	0.013943	0.044504
269	1.351017	0.005000	8.542369	-0.208151	-4.277160	-0.024521	-0.157780	-0.745243	0.054520	0.011007	0.045153
270	1.356017	0.005000	8.450925	-0.235440	-4.394880	-0.024635	-0.157439	-0.745878	0.043517	0.008473	0.049492
271	1.361017	0.005000	8.593560	-0.296751	-4.316400	-0.024749	-0.157097	-0.746513	0.044302	0.011006	0.042905
272	1.366017	0.005000	8.554320	-0.274680	-4.276373	-0.024862	-0.156756	-0.747149	0.064774	0.005105	0.040132
273	1.371017	0.005000	8.531463	-0.196200	-4.149532	-0.024976	-0.156415	-0.747784	0.048031	0.006124	0.033473
274	1.376017	0.005000	8.501087	-0.184945	-4.263167	-0.025090	-0.156073	-0.748419	0.051877	0.002384	0.037830
275	1.381017	0.005000	8.464691	-0.291622	-4.220978	-0.025204	-0.155732	-0.749055	0.038141	0.011894	0.033400
276	1.386017	0.005000	8.459230	-0.258070	-4.260550	-0.025317	-0.155391	-0.749690	0.053404	0.005598	0.033617
277	1.391017	0.005000	8.447522	-0.167882	-4.204141	-0.025082	-0.155224	-0.749740	0.056095	0.003884	0.038061
278	1.396017	0.005000	8.515080	-0.235440	-4.355640	-0.024513	-0.155224	-0.749232	0.056076	0.003379	0.029856
279	1.401017	0.005000	8.593318	-0.195716	-4.394396	-0.023944	-0.155224	-0.748723	0.047347	0.001482	0.028734
280	1.406017	0.005000	8.554320	-0.190996	-4.316400	-0.023375	-0.155224	-0.748215	0.049013	0.005045	0.026159
281	1.411017	0.005000	8.447492	-0.224548	-4.350194	-0.022806	-0.155224	-0.747707	0.045643	-0.000486	0.028405
282	1.416017	0.005000	8.531659	-0.173539	-4.324690	-0.022237	-0.155224	-0.747198	0.039600	0.008843	0.027479
283	1.421017	0.005000	8.565454	-0.207334	-4.220947	-0.021668	-0.155224	-0.746690	0.044367	0.006121	0.015064
284	1.426017	0.005000	8.565605	-0.207485	-4.198680	-0.021099	-0.155224	-0.746182	0.051960	0.001006	0.028969
285	1.431017	0.005000	8.576739	-0.213021	-4.282757	-0.020530	-0.155224	-0.745674	0.047350	0.007024	0.020302
286	1.436017	0.005000	8.672040	-0.177004	-4.277160	-0.019961	-0.155224	-0.745165	0.044545	0.001425	0.020129
287	1.441017	0.005000	8.689240	-0.208559	-4.289519	-0.019392	-0.155224	-0.744657	0.039673	0.001839	0.019886
288	1.446017	0.005000	8.589733	-0.181844	-4.345111	-0.018823	-0.155224	-0.744149	0.058356	-0.001295	0.014428
289	1.451017	0.005000	8.565832	-0.223928	-4.316400	-0.018254	-0.155224	-0.743640	0.048942	-0.000774	0.016682
290	1.456017	0.005000	8.663271	-0.165729	-4.198680	-0.017865	-0.155134	-0.743333	0.049842	0.003275	0.012769
291	1.461017	0.005000	8.659484	-0.177367	-4.316400	-0.017751	-0.154907	-0.743333	0.063918	-0.000916	0.011332
292	1.466017	0.005000	8.557754	-0.121154	-4.159440	-0.017638	-0.154679	-0.743333	0.060682	-0.006599	0.019340
293	1.471017	0.005000	8.593560	-0.195610	-4.160620	-0.017524	-0.154452	-0.743333	0.065181	-0.006221	0.014411
294	1.476017	0.005000	8.593560	-0.193946	-4.348878	-0.017410	-0.154224	-0.743333	0.052885	-0.003723	0.014686
295	1.481017	0.005000	8.627702	-0.191102	-4.208876	-0.017297	-0.153997	-0.743333	0.056713	-0.015899	0.009929
296	1.486017	0.005000	8.679603	-0.211326	-4.284723	-0.017183	-0.153769	-0.743333	0.058487	-0.016603	0.017017
297	1.491017	0.005000	8.661723	-0.128037	-4.345323	-0.017069	-0.153542	-0.743333	0.055006	-0.009596	0.009336
298	1.496017	0.005000	8.567481	-0.104801	-4.355640	-0.016955	-0.153314	-0.743333	0.059305	-0.012849	0.016149
299	1.501017	0.005000	8.640031	-0.156960	-4.246694	-0.016842	-0.153087	-0.743333	0.059008	-0.016861	0.006994
300	1.506017	0.005000	8.712823	-0.274680	-4.296009	-0.016728	-0.152859	-0.743333	0.047842	-0.022061	0.013253
301	1.511017	0.005000	8.654492	-0.186942	-4.124345	-0.016614	-0.152632	-0.743333	0.043301	-0.020847	0.017926
302	1.516017	0.005000	8.632800	-0.163192	-4.198680	-0.016501	-0.152404	-0.743333	0.059397	-0.020087	0.010570
303	1.521017	0.005000	8.591261	-0.250053	-4.134813	-0.016387	-0.152301	-0.743402	0.050880	-0.021572	0.017438
304	1.526017	0.005000	8.701810	-0.156960	-4.256859	-0.016273	-0.152529	-0.743657	0.036039	-0.026225	0.013439
305	1.531017	0.005000	8.678666	-0.228814	-4.316400	-0.016159	-0.152756	-0.743911	0.059175	-0.029258	0.020927
306	1.536017	0.005000	8.660695	-0.231658	-4.273378	-0.016045	-0.152984	-0.744165	0.053466	-0.024384	0.018869
307	1.541017	0.005000	8.594498	-0.234502	-4.238858	-0.015932	-0.153211	-0.744419	0.052882	-0.024790	0.010954
308	1.546017	0.005000	8.595466	-0.196200	-4.314494	-0.015818	-0.153439	-0.744673	0.044818	-0.029424	0.018714
309	1.551017	0.005000	8.488683	-0.239721	-4.202961	-0.015704	-0.153667	-0.744927	0.056987	-0.036133	0.014634
310	1.556017	0.005000	8.618550	-0.085605	-4.270035	-0.015590	-0.153894	-0.745182	0.068539	-0.030714	0.010519
311	1.561017	0.005000	8.574258	-0.176262	-4.247889	-0.015476	-0.154122	-0.745436	0.053594	-0.035119	0.011354
312	1.566017	0.005000	8.554320	-0.222627	-4.237920	-0.015363	-0.154349	-0.745690	0.070140	-0.033381	0.008670
313	1.571017	0.005000	8.546393	-0.203930	-4.237920	-0.015249	-0.154577	-0.745944	0.042087	-0.026153	0.008971
314	1.576017	0.005000	8.536070	-0.235440	-4.334650	-0.015135	-0.154804	-0.746198	0.047037	-0.032923	0.004077
315	1.581017	0.005000	8.475840	-0.196200	-4.316400	-0.015021	-0.155032	-0.746453	0.053399	-0.039878	0.015980
316	1.586017	0.005000	8.365442	-0.274680	-4.292681	-0.014925	-0.155171	-0.746607	0.053915	-0.033837	0.015797
317	1.591017	0.005000	8.540433	-0.262003	-4.330287	-0.014925	-0.154829	-0.746226	0.050790	-0.038645	0.016299
318	1.596017	0.005000	8.583727	-0.196200	-4.394880	-0.014925	-0.154488	-0.745845	0.055779	-0.032591	0.014876
319	1.601017	0.005000	8.501102	-0.235440	-4.459382	-0.014925	-0.154146	-0.745464	0.040623	-0.031011	0.013349
320	1.606017	0.005000	8.467550	-0.301485	-4.316400	-0.014925	-0.153805	-0.745083	0.049304	-0.026736	0.015439
321	1.611017	0.005000	8.397360	-0.235440	-4.316400	-0.014925	-0.153464	-0.744701	0.054587	-0.021655	0.014011
322	1.616017	0.005000	8.473662	-0.273591	-4.354551	-0.014925	-0.153122	-0.744320	0.057727	-0.033190	0.018937
323	1.621017	0.005000	8.471907	-0.196200	-4.394880	-0.014925	-0.152781	-0.743939	0.045702	-0.029068	0.015093
324	1.626017	0.005000	8.554320	-0.189423	-4.343508	-0.014925	-0.152439	-0.743558	0.053729	-0.024697	0.029004
325	1.631017	0.005000	8.535078	-0.147339	-4.414878	-0.014925	-0.152098	-0.743177	0.058344	-0.029107	0.022265
326	1.636017	0.005000	8.593560	-0.208341	-4.394880	-0.014925	-0.151757	-0.742795	0.058413	-0.025014	0.013392
327	1.641017	0.005000	8.505520	-0.156960	-4.482920	-0.014925	-0.151415	-0.742414	0.058073	-0.018816	0.011420
328	1.646017	0.005000	8.515080	-0.256996	-4.451804	-0.014925	-0.151074	-0.742033	0.060541	-0.016242	0.015887
329	1.651017	0.005000	8.531977	-0.177488	-4.357455	-0.014939	-0.150751	-0.741672	0.068802	-0.017169	0.020512
330	1.656017	0.005000	8.530948	-0.149457	-4.348137	-0.015280	-0.150864	-0.741799	0.048950	-0.017308	0.025410
331	1.661017	0.005000	8.489031	-0.235440	-4.447311	-0.015621	-0.150978	-0.741926	0.054225	-0.017004	0.016220
332	1.666017	0.005000	8.475840	-0.206381	-4.355640	-0.015963	-0.151092	-0.742053	0.055897	-0.020560	0.024594
333	1.671017	0.005000	8.522503	-0.196200	-4.277160	-0.016304	-0.151206	-0.742180	0.058846	-0.026794	0.014087
334	1.676017	0.005000	8.485733	-0.235440	-4.208573	-0.016646	-0.151320	-0.742307	0.062566	-0.028123	-0.000544
335	1.681017	0.005000	8.591457	-0.194097	-4.202885	-0.016987	-0.151433	-0.742434	0.054165	-0.025109	0.001980
336	1.686017	0.005000	8.515821	-0.118461	-4.315659	-0.017328	-0.151547	-0.742561	0.061122	-0.027908	0.016166
337	1.691017	0.005000	8.622045	-0.114135	-4.384125	-0.017670	-0.151661	-0.742688	0.050894	-0.033657	0.008424
338	1.696017	0.005000	8.672040	-0.144102	-4.446978	-0.018011	-0.151775	-0.742815	0.054169	-0.034800	0.003594
339	1.701017	0.005000	8.515080	-0.117720	-4.382372	-0.018353	-0.151889	-0.742942	0.049167	-0.039898	0.007027
340	1.706017	0.005000	8.499136	-0.156960	-4.316400	-0.018694	-0.152003	-0.743069	0.044066	-0.037448	0.002999
341	1.711017	0.005000	8.407616	-0.146704	-4.419628	-0.019035	-0.152116	-0.743196	0.063344	-0.042552	0.005458
342	1.716017	0.005000	8.388223	-0.139624	-4.333736	-0.019377	-0.152230	-0.743323	0.049517	-0.037372	0.007664
343	1.721017	0.005000	8.397360	-0.176686	-4.355640	-0.018878	-0.152344	-0.742864	0.047626	-0.035171	0.010344
344	1.726017	0.005000	8.374790	-0.252110	-4.333070	-0.018309	-0.152458	-0.742355	0.043542	-0.039453	0.009994
345	1.731017	0.005000	8.395121	-0.221614	-4.369466	-0.017740	-0.152572	-0.741847	0.057040	-0.035666	0.005261
346	1.736017	0.005000	8.329862	-0.218165	-4.434120	-0.017171	-0.152685	-0.741339	0.063337	-0.038828	0.012758
347	1.741017	0.005000	8.467233	-0.204807	-4.499182	-0.016602	-0.152799	-0.740831	0.049591	-0.032265	0.012497
348	1.746017	0.005000	8.475840	-0.241203	-4.524127	-0.016033	-0.152913	-0.740323	0.051369	-0.034525	0.018293
349	1.751017	0.005000	8.551400	-0.274680	-4.509680	-0.015464	-0.153027	-0.739814	0.045119	-0.031798	0.020588
350	1.756017	0.005000	8.475840	-0.235364	-4.590853	-0.014895	-0.153140	-0.739306	0.028270	-0.030498	0.013879
351	1.761017	0.005000	8.548783	-0.305615	-4.436888	-0.014326	-0.153254	-0.738798	0.048740	-0.035046	0.022006
352	1.766017	0.005000	8.475840	-0.319532	-4.361252	-0.013757	-0.153368	-0.738290	0.049767	-0.036372	0.012063
353	1.771017	0.005000	8.445056	-0.213112	-4.355640	-0.013188	-0.153482	-0.737782	0.043649	-0.040866	0.037073
354	1.776017	0.005000	8.497502	-0.185369	-4.512600	-0.012619	-0.153595	-0.737273	0.039239	-0.037620	0.030829
355	1.781017	0.005000	8.463950	-0.208090	-4.447795	-0.012050	-0.153709	-0.736765	0.047804	-0.038258	0.023911
356	1.786017	0.005000	8.475840	-0.189998	-4.417601	-0.012307	-0.154007	-0.736872	0.052018	-0.040841	0.027354
357	1.791017	0.005000	8.515080	-0.215563	-4.394880	-0.012763	-0.154348	-0.737126	0.050100	-0.038775	0.023734
358	1.796017	0.005000	8.453633	-0.230266	-4.355640	-0.013218	-0.154690	-0.737381	0.053791	-0.037730	0.025873
359	1.801017	0.005000	8.461651	-0.249629	-4.555168	-0.013674	-0.155031	-0.737635	0.052028	-0.033091	0.024077
360	1.806017	0.005000	8.436600	-0.235440	-4.551840	-0.014129	-0.155373	-0.737889	0.071651	-0.044651	0.020895
361	1.811017	0.005000	8.528816	-0.274680	-4.521101	-0.014584	-0.155714	-0.738143	0.042191	-0.043971	0.026570
362	1.816017	0.005000	8.436600	-0.190158	-4.479402	-0.015040	-0.156056	-0.738398	0.052448	-0.041727	0.016687
363	1.821017	0.005000	8.390825	-0.241975	-4.515867	-0.015495	-0.156398	-0.738652	0.059868	-0.039399	0.022599
364	1.826017	0.005000	8.280911	-0.351889	-4.590233	-0.015950	-0.156739	-0.738906	0.056875	-0.034520	0.011723
365	1.831017	0.005000	8.360540	-0.272260	-4.586239	-0.016406	-0.157081	-0.739160	0.053879	-0.041575	0.014427
366	1.836017	0.005000	8.397360	-0.235440	-4.546576	-0.016861	-0.157422	-0.739414	0.058195	-0.040506	0.012399
367	1.841017	0.005000	8.335096	-0.227332	-4.582972	-0.017316	-0.157764	-0.739669	0.067140	-0.034670	0.007082
368	1.846017	0.005000	8.329490	-0.292700	-4.580470	-0.017772	-0.158105	-0.739923	0.060133	-0.029331	0.008374
369	1.851017	0.005000	8.358120	-0.274680	-4.499273	-0.017752	-0.158130	-0.739735	0.053038	-0.027347	0.009853
370	1.856017	0.005000	8.374291	-0.235440	-4.512600	-0.017524	-0.158016	-0.739354	0.067951	-0.028030	0.005980
371	1.861017	0.005000	8.377135	-0.117720	-4.532825	-0.017297	-0.157902	-0.738973	0.048086	-0.023741	-0.003920
372	1.866017	0.005000	8.397360	-0.169864	-4.495219	-0.017069	-0.157788	-0.738592	0.058184	-0.027946	0.006039
373	1.871017	0.005000	8.289805	-0.220903	-4.487897	-0.016842	-0.157675	-0.738210	0.048364	-0.014947	0.014430
374	1.876017	0.005000	8.303300	-0.208030	-4.540010	-0.016614	-0.157561	-0.737829	0.048160	-0.017178	0.015239
375	1.881017	0.005000	8.337486	-0.256074	-4.551840	-0.016387	-0.157447	-0.737448	0.037254	-0.023442	0.008883
376	1.886017	0.005000	8.305961	-0.254818	-4.499681	-0.016159	-0.157333	-0.737067	0.047921	-0.016439	0.004261
377	1.891017	0.005000	8.361735	-0.196200	-4.441351	-0.015932	-0.157220	-0.736686	0.049665	-0.013419	0.007962
378	1.896017	0.005000	8.358891	-0.157731	-4.512600	-0.015704	-0.157106	-0.736305	0.037165	-0.011084	0.005901
379	1.901017	0.005000	8.360192	-0.121865	-4.438265	-0.015477	-0.156992	-0.735924	0.048400	-0.021451	0.005615
380	1.906017	0.005000	8.397360	-0.152044	-4.468444	-0.015249	-0.156878	-0.735543	0.052649	-0.019815	0.011377
381	1.911017	0.005000	8.397360	-0.196200	-4.402640	-0.015022	-0.156764	-0.735162	0.046126	-0.015753	0.012265
382	1.916017	0.005000	8.397360	-0.253472	-4.480787	-0.014990	-0.156716	-0.735146	0.058150	-0.021248	0.009591
383	1.921017	0.005000	8.383912	-0.261232	-4.446464	-0.015104	-0.156716	-0.735400	0.030622	-0.022709	0.016457
384	1.926017	0.005000	8.365331	-0.212214	-4.543037	-0.015218	-0.156716	-0.735654	0.051561	-0.019295	0.013169
385	1.931017	0.005000	8.360026	-0.136387	-4.492027	-0.015332	-0.156716	-0.735908	0.035606	-0.015660	0.008089
386	1.936017	0.005000	8.418871	-0.156960	-4.494871	-0.015446	-0.156716	-0.736162	0.049113	-0.014215	0.001733
387	1.941017	0.005000	8.397360	-0.235440	-4.419235	-0.015559	-0.156716	-0.736416	0.045658	-0.020467	0.014394
388	1.946017	0.005000	8.394244	-0.196200	-4.434120	-0.015673	-0.156716	-0.736671	0.038453	-0.016691	0.013300
389	1.951017	0.005000	8.406557	-0.196200	-4.551840	-0.015787	-0.156716	-0.736925	0.044246	-0.021707	0.016120
390	1.956017	0.005000	8.397360	-0.241870	-4.551840	-0.015901	-0.156716	-0.737179	0.032645	-0.020821	0.016718
391	1.961017	0.005000	8.401338	-0.168895	-4.438098	-0.016015	-0.156716	-0.737433	0.045696	-0.023277	0.016720
392	1.966017	0.005000	8.474705	-0.272411	-4.471091	-0.016129	-0.156716	-0.737687	0.046937	-0.021906	0.019825
393	1.971017	0.005000	8.474131	-0.158669	-4.507472	-0.016242	-0.156716	-0.737941	0.043107	-0.012037	0.020927
394	1.976017	0.005000	8.515080	-0.161513	-4.577420	-0.016356	-0.156716	-0.738195	0.042258	-0.014763	0.019269
395	1.981017	0.005000	8.429203	-0.228043	-4.676957	-0.016262	-0.156560	-0.738391	0.037426	-0.009496	0.008854
396	1.986017	0.005000	8.504839	-0.214958	-4.562081	-0.015920	-0.156218	-0.738518	0.054613	-0.018321	0.018623
397	1.991017	0.005000	8.383678	-0.156960	-4.578301	-0.015579	-0.155877	-0.738645	0.034726	-0.015217	0.011433
398	1.996017	0.005000	8.412835	-0.235440	-4.504310	-0.015238	-0.155536	-0.738772	0.064312	-0.017214	0.014966
399	2.001017	0.005000	8.399962	-0.253759	-4.491679	-0.014896	-0.155195	-0.738900	0.056853	-0.005352	0.016818
400	2.006017	0.005000	8.421609	-0.235440	-4.476446	-0.014555	-0.154853	-0.739027	0.039230	-0.000726	0.013126
401	2.011017	0.005000	8.412593	-0.250673	-4.394880	-0.014213	-0.154512	-0.739154	0.040267	-0.006310	0.010106
402	2.016017	0.005000	8.358120	-0.196200	-4.458898	-0.013872	-0.154171	-0.739281	0.039249	-0.007965	0.017713
403	2.021017	0.005000	8.466295	-0.147415	-4.501996	-0.013531	-0.153829	-0.739408	0.057214	-0.014661	0.018895
404	2.026017	0.005000	8.454329	-0.242610	-4.455631	-0.013189	-0.153488	-0.739535	0.055825	-0.014532	0.011822
405	2.031017	0.005000	8.471514	-0.239766	-4.512600	-0.012848	-0.153147	-0.739662	0.056858	-0.007245	0.006050
406	2.036017	0.005000	8.436600	-0.274680	-4.474842	-0.012506	-0.152805	-0.739789	0.051189	-0.008313	0.011866
407	2.041017	0.005000	8.398721	-0.274680	-4.512600	-0.012165	-0.152464	-0.739916	0.050081	-0.008436	0.008154
408	2.046017	0.005000	8.510875	-0.196200	-4.543429	-0.011979	-0.152433	-0.739697	0.027588	-0.009049	0.006293
409	2.051017	0.005000	8.482889	-0.228391	-4.480409	-0.012093	-0.153002	-0.738807	0.048107	-0.010269	0.015547
410	2.056017	0.005000	8.436600	-0.245333	-4.365866	-0.012206	-0.153571	-0.737918	0.056822	-0.005815	0.011492
411	2.061017	0.005000	8.492904	-0.235440	-4.488033	-0.012320	-0.154140	-0.737028	0.060135	-0.014122	0.017680
412	2.066017	0.005000	8.388374	-0.274680	-4.551840	-0.012434	-0.154709	-0.736139	0.045067	-0.006068	0.017099
413	2.071017	0.005000	8.397360	-0.277978	-4.587782	-0.012548	-0.155278	-0.735249	0.052469	-0.013815	0.015747
414	2.076017	0.005000	8.436600	-0.274680	-4.593470	-0.012662	-0.155846	-0.734360	0.038080	-0.015546	0.013507
415	2.081017	0.005000	8.366198	-0.235440	-4.512600	-0.012776	-0.156415	-0.733470	0.040648	-0.022673	0.014895
416	2.086017	0.005000	8.344354	-0.235440	-4.408646	-0.012889	-0.156984	-0.732581	0.042421	-0.020621	0.019367
417	2.091017	0.005000	8.444754	-0.256164	-4.551840	-0.013003	-0.157553	-0.731691	0.050035	-0.023833	0.012366
418	2.096017	0.005000	8.397360	-0.321438	-4.505082	-0.013117	-0.158122	-0.730802	0.052071	-0.029628	0.021576
419	2.101017	0.005000	8.427251	-0.274680	-4.595754	-0.013231	-0.158691	-0.729912	0.042896	-0.020509	0.014785
420	2.106017	0.005000	8.434770	-0.237270	-4.512600	-0.013345	-0.159260	-0.729023	0.054290	-0.019579	0.026312
421	2.111017	0.005000	8.359134	-0.274680	-4.512600	-0.013382	-0.159573	-0.728362	0.021687	-0.014773	0.018397
422	2.116017	0.005000	8.405075	-0.270823	-4.536410	-0.013154	-0.159004	-0.728489	0.044851	-0.021638	0.004553
423	2.121017	0.005000	8.390659	-0.196200	-4.539405	-0.012927	-0.158435	-0.728616	0.054717	-0.023853	0.020615
424	2.126017	0.005000	8.427414	-0.217068	-4.503414	-0.012699	-0.157867	-0.728743	0.045880	-0.022552	0.015441
425	2.131017	0.005000	8.346200	-0.235440	-4.500680	-0.012472	-0.157298	-0.728870	0.054655	-0.026140	0.023715
426	2.136017	0.005000	8.431548	-0.259916	-4.576316	-0.012244	-0.156729	-0.728997	0.036357	-0.025289	0.025823
427	2.141017	0.005000	8.354096	-0.309896	-4.490968	-0.012016	-0.156160	-0.729124	0.050074	-0.018800	0.023845
428	2.146017	0.005000	8.238736	-0.235440	-4.611532	-0.011789	-0.155591	-0.729251	0.041213	-0.018748	0.019146
429	2.151017	0.005000	8.358120	-0.313920	-4.591080	-0.011561	-0.155022	-0.729378	0.038752	-0.020067	0.020216
430	2.156017	0.005000	8.423347	-0.248173	-4.551840	-0.011334	-0.154453	-0.729505	0.037998	-0.019511	0.029185
431	2.161017	0.005000	8.340300	-0.224730	-4.541130	-0.011106	-0.153884	-0.729632	0.034483	-0.013165	0.016564
432	2.166017	0.005000	8.452242	-0.196200	-4.481226	-0.010879	-0.153315	-0.729760	0.057782	-0.012035	0.012399
433	2.171017	0.005000	8.407404	-0.240462	-4.556862	-0.010651	-0.152746	-0.729887	0.042539	-0.005481	0.021438
434	2.176017	0.005000	8.399538	-0.196200	-4.554018	-0.010436	-0.152288	-0.730041	0.046314	-0.021417	0.017970
435	2.181017	0.005000	8.513749	-0.196200	-4.475357	-0.010322	-0.152744	-0.730423	0.045982	-0.017546	0.027299
436	2.186017	0.005000	8.365139	-0.235440	-4.469850	-0.010208	-0.153199	-0.730804	0.042424	-0.009648	0.020973
437	2.191017	0.005000	8.318880	-0.290097	-4.624364	-0.010094	-0.153654	-0.731185	0.029616	-0.009470	0.016177
438	2.196017	0.005000	8.388632	-0.252897	-4.643375	-0.009980	-0.154110	-0.731567	0.019674	-0.009163	0.019751
439	2.201017	0.005000	8.385788	-0.263108	-4.496505	-0.009866	-0.154565	-0.731948	0.036243	-0.011215	0.016096
440	2.206017	0.005000	8.471831	-0.289096	-4.566256	-0.009752	-0.155020	-0.732330	0.036346	-0.014743	0.021702
441	2.211017	0.005000	8.431880	-0.196200	-4.495340	-0.009639	-0.155476	-0.732711	0.038125	-0.004921	0.020624
442	2.216017	0.005000	8.359088	-0.077512	-4.531736	-0.009525	-0.155931	-0.733092	0.033576	-0.007680	0.031155
443	2.221017	0.005000	8.430325	-0.173443	-4.574597	-0.009411	-0.156387	-0.733474	0.010972	-0.006769	0.019489
444	2.226017	0.005000	8.487276	-0.221538	-4.591080	-0.009297	-0.156842	-0.733855	0.043674	-0.012467	0.018354
445	2.231017	0.005000	8.425542	-0.207258	-4.557906	-0.009183	-0.157297	-0.734236	0.023609	-0.005356	0.017410
446	2.236017	0.005000	8.444814	-0.282894	-4.512600	-0.009069	-0.157753	-0.734618	0.022803	-0.008145	0.019507
447	2.241017	0.005000	8.509710	-0.240810	-4.551840	-0.008955	-0.158208	-0.734999	0.026183	-0.009055	0.022799
448	2.246017	0.005000	8.439595	-0.162950	-4.588085	-0.008955	-0.157869	-0.735127	0.030444	-0.009619	0.015405
449	2.251017	0.005000	8.436449	-0.196049	-4.551689	-0.008955	-0.157527	-0.735254	0.038489	-0.011052	0.018321
450	2.256017	0.005000	8.470455	-0.193507	-4.585695	-0.008955	-0.157186	-0.735381	0.038351	0.000051	0.016829
451	2.261017	0.005000	8.397360	-0.151423	-4.652950	-0.008955	-0.156845	-0.735508	0.041392	-0.000496	0.021614
452	2.266017	0.005000	8.450699	-0.165340	-4.568601	-0.008955	-0.156504	-0.735635	0.023073	0.002627	0.022957
453	2.271017	0.005000	8.419809	-0.196200	-4.529391	-0.008955	-0.156162	-0.735762	0.035902	0.001356	0.014269
454	2.276017	0.005000	8.411428	-0.171028	-4.565908	-0.008955	-0.155821	-0.735889	0.045435	-0.000089	0.018272
455	2.281017	0.005000	8.436600	-0.218528	-4.680391	-0.008955	-0.155480	-0.736016	0.036814	0.003080	0.010847
456	2.286017	0.005000	8.416681	-0.157159	-4.610600	-0.008955	-0.155139	-0.736143	0.030361	-0.003685	0.020123
457	2.291017	0.005000	8.353098	-0.240462	-4.539753	-0.008955	-0.154797	-0.736270	0.023967	0.003854	0.015057
458	2.296017	0.005000	8.358120	-0.196200	-4.448385	-0.008955	-0.154456	-0.736397	0.033357	0.003962	0.011943
459	2.301017	0.005000	8.363097	-0.196200	-4.546863	-0.008955	-0.154115	-0.736524	0.040784	0.004757	0.010748
460	2.306017	0.005000	8.397360	-0.204777	-4.613166	-0.008955	-0.153774	-0.736651	0.043846	0.001640	0.006046
461	2.311017	0.005000	8.452907	-0.134920	-4.569040	-0.008955	-0.153831	-0.736778	0.059116	0.000536	0.012966
462	2.316017	0.005000	8.250429	-0.264651	-4.698771	-0.008955	-0.153945	-0.736905	0.039325	0.008465	0.006027
463	2.321017	0.005000	8.358120	-0.117720	-4.629821	-0.008955	-0.154058	-0.737032	0.048228	-0.003956	0.008621
464	2.326017	0.005000	8.321225	-0.154615	-4.517289	-0.008955	-0.154172	-0.737159	0.036057	0.001391	0.006366
465	2.331017	0.005000	8.308503	-0.269491	-4.428931	-0.008955	-0.154286	-0.737287	0.041039	0.000948	0.002749
466	2.336017	0.005000	8.374185	-0.164993	-4.480470	-0.008955	-0.154400	-0.737414	0.057971	0.009719	0.004010
467	2.341017	0.005000	8.379873	-0.167836	-4.580204	-0.008955	-0.154514	-0.737541	0.053829	0.007857	0.003087
468	2.346017	0.005000	8.373762	-0.182480	-4.508758	-0.008955	-0.154628	-0.737668	0.057241	0.007813	0.004541
469	2.351017	0.005000	8.426147	-0.218876	-4.591080	-0.008955	-0.154742	-0.737795	0.054608	0.009305	0.005272
470	2.356017	0.005000	8.377059	-0.215139	-4.492299	-0.008955	-0.154856	-0.737922	0.059278	0.004325	-0.003885
471	2.361017	0.005000	8.358120	-0.196200	-4.408010	-0.008955	-0.154969	-0.738049	0.051440	-0.000496	0.003351
472	2.366017	0.005000	8.348106	-0.250053	-4.512600	-0.008955	-0.155083	-0.738176	0.049988	0.002281	-0.003502
473	2.371017	0.005000	8.452302	-0.262911	-4.630320	-0.008955	-0.155197	-0.738303	0.058171	-0.001240	0.002239
474	2.376017	0.005000	8.436600	-0.217590	-4.651710	-0.008955	-0.155137	-0.738236	0.056600	-0.004566	0.000531
475	2.381017	0.005000	8.351585	-0.228905	-4.578010	-0.008955	-0.155023	-0.738109	0.066798	0.003505	-0.006107
476	2.386017	0.005000	8.436600	-0.235440	-4.591080	-0.008955	-0.154909	-0.737982	0.070047	0.010384	0.003970
477	2.391017	0.005000	8.435753	-0.232899	-4.513447	-0.008955	-0.154795	-0.737855	0.065532	0.012563	-0.011044
478	2.396017	0.005000	8.360117	-0.154963	-4.626326	-0.008955	-0.154682	-0.737728	0.069808	0.010366	-0.010669
479	2.401017	0.005000	8.432175	-0.200625	-4.608779	-0.008955	-0.154568	-0.737601	0.051135	0.010868	-0.013108
480	2.406017	0.005000	8.475840	-0.188984	-4.623104	-0.008955	-0.154454	-0.737474	0.065973	0.004678	-0.009740
481	2.411017	0.005000	8.417479	-0.127780	-4.659500	-0.008955	-0.154340	-0.737347	0.054628	0.005509	-0.007217
482	2.416017	0.005000	8.358120	-0.144056	-4.577647	-0.008955	-0.154226	-0.737220	0.070111	0.010405	-0.009448
483	2.421017	0.005000	8.428305	-0.282975	-4.591080	-0.008955	-0.154112	-0.737093	0.063750	0.012000	-0.005758
484	2.426017	0.005000	8.397360	-0.235440	-4.593620	-0.008955	-0.153999	-0.736966	0.062518	0.004443	-0.007860
485	2.431017	0.005000	8.342584	-0.198923	-4.572821	-0.008955	-0.153885	-0.736839	0.072450	0.007771	-0.002801
486	2.436017	0.005000	8.366531	-0.196200	-4.560251	-0.008955	-0.153771	-0.736712	0.070955	0.010685	-0.007891
487	2.441017	0.005000	8.384789	-0.169531	-4.551840	-0.009693	-0.154469	-0.735183	0.048549	0.013118	-0.016978
488	2.446017	0.005000	8.308684	-0.235440	-4.630320	-0.010832	-0.155608	-0.732895	0.059469	0.000024	-0.010171
489	2.451017	0.005000	8.365472	-0.196200	-4.662208	-0.011970	-0.156746	-0.730607	0.073148	0.006850	-0.015707
490	2.456017	0.005000	8.358120	-0.191692	-4.586572	-0.013109	-0.157885	-0.728318	0.071954	0.004751	-0.014281
491	2.461017	0.005000	8.358120	-0.155296	-4.514264	-0.014247	-0.159023	-0.726030	0.066860	0.013373	-0.014080
492	2.466017	0.005000	8.396180	-0.155780	-4.666020	-0.015386	-0.160162	-0.723742	0.071796	0.003869	-0.018142
493	2.471017	0.005000	8.362144	-0.156960	-4.516624	-0.016524	-0.161300	-0.721454	0.052360	-0.000262	-0.021904
494	2.476017	0.005000	8.378723	-0.242308	-4.493963	-0.017663	-0.162439	-0.719165	0.069497	0.004307	-0.016364
495	2.481017	0.005000	8.397360	-0.265325	-4.581725	-0.018801	-0.163577	-0.716877	0.062964	0.013696	-0.007633
496	2.486017	0.005000	8.439580	-0.220373	-4.578993	-0.019940	-0.164716	-0.714589	0.065083	0.020973	-0.011746
497	2.491017	0.005000	8.285192	-0.205579	-4.488291	-0.021078	-0.165854	-0.712300	0.054908	0.024800	-0.009617
498	2.496017	0.005000	8.318880	-0.178426	-4.637702	-0.022217	-0.166993	-0.710012	0.054536	0.021510	-0.014222
499	2.501017	0.005000	8.261018	-0.214822	-4.535215	-0.023355	-0.168131	-0.707724	0.076712	0.015702	-0.012216
500	2.506017	0.005000	8.264271	-0.258902	-4.520693	-0.023881	-0.168902	-0.706804	0.049275	0.015341	-0.004421
501	2.511017	0.005000	8.357197	-0.183735	-4.592003	-0.023881	-0.169357	-0.707058	0.067618	0.011630	-0.011066
502	2.516017	0.005000	8.269096	-0.206744	-4.551840	-0.023881	-0.169812	-0.707312	0.079646	0.013378	-0.004581
503	2.521017	0.005000	8.154220	-0.266980	-4.559540	-0.023881	-0.170267	-0.707566	0.054024	0.025347	-0.009594
504	2.526017	0.005000	8.245256	-0.313920	-4.576512	-0.023881	-0.170723	-0.707820	0.060839	0.014112	-0.015433
505	2.531017	0.005000	8.312844	-0.307884	-4.597116	-0.023881	-0.171178	-0.708074	0.050740	0.013382	-0.008342
506	2.536017	0.005000	8.354792	-0.119384	-4.708800	-0.023881	-0.171633	-0.708328	0.055236	0.017674	-0.010449
507	2.541017	0.005000	8.328501	-0.232233	-4.708800	-0.023881	-0.172088	-0.708582	0.070634	0.016007	-0.004773
508	2.546017	0.005000	8.391309	-0.307869	-4.485462	-0.023881	-0.172543	-0.708837	0.054151	0.016500	-0.006852
509	2.551017	0.005000	8.397360	-0.283575	-4.534050	-0.023881	-0.172998	-0.709091	0.055716	0.010627	-0.007679
510	2.556017	0.005000	8.362144	-0.196200	-4.500861	-0.023881	-0.173453	-0.709345	0.064002	0.010319	-0.002386
511	2.561017	0.005000	8.432092	-0.171543	-4.463285	-0.023881	-0.173909	-0.709599	0.056875	0.012377	-0.005853
512	2.566017	0.005000	8.410400	-0.152573	-4.438507	-0.023881	-0.174364	-0.709853	0.050590	0.015765	0.002393
513	2.571017	0.005000	8.436207	-0.235047	-4.453937	-0.023785	-0.174195	-0.710375	0.055288	-0.002448	-0.004874
514	2.576017	0.005000	8.475840	-0.179621	-4.411459	-0.023558	-0.173172	-0.711264	0.060680	0.007188	0.006155
515	2.581017	0.005000	8.448369	-0.198167	-4.604816	-0.023330	-0.172148	-0.712153	0.049809	0.007991	0.001183
516	2.586017	0.005000	8.397360	-0.235440	-4.540948	-0.023103	-0.171124	-0.713042	0.057201	0.013900	-0.006411
517	2.591017	0.005000	8.358120	-0.297825	-4.505551	-0.022875	-0.170101	-0.713931	0.058973	0.011617	-0.004287
518	2.596017	0.005000	8.358120	-0.313920	-4.591080	-0.022648	-0.169077	-0.714820	0.049271	0.014371	0.001400
519	2.601017	0.005000	8.400189	-0.308262	-4.658245	-0.022420	-0.168053	-0.715709	0.057111	0.007064	0.013404
520	2.606017	0.005000	8.279701	-0.196215	-4.473375	-0.022193	-0.167030	-0.716598	0.044752	0.017617	0.001420
521	2.611017	0.005000	8.400219	-0.193341	-4.515459	-0.021965	-0.166006	-0.717488	0.053366	0.009137	0.002904
522	2.616017	0.005000	8.329501	-0.235440	-4.444741	-0.021738	-0.164982	-0.718377	0.051313	0.016116	0.002425
523	2.621017	0.005000	8.310787	-0.188107	-4.543747	-0.021510	-0.163959	-0.719266	0.051528	0.014140	-0.001527
524	2.626017	0.005000	8.397360	-0.235440	-4.608446	-0.021283	-0.162935	-0.720155	0.052681	0.014282	0.010079
525	2.631017	0.005000	8.332646	-0.235440	-4.565606	-0.021055	-0.161911	-0.721044	0.044539	0.016330	0.000686
526	2.636017	0.005000	8.403381	-0.252050	-4.545819	-0.020794	-0.161126	-0.721857	0.061628	0.019838	0.006398
527	2.641017	0.005000	8.475840	-0.254662	-4.473360	-0.020452	-0.160898	-0.722492	0.043271	0.018849	0.012464
528	2.646017	0.005000	8.384411	-0.222491	-4.647716	-0.020111	-0.160671	-0.723128	0.036975	0.021106	0.021295
529	2.651017	0.005000	8.436600	-0.249992	-4.605632	-0.019770	-0.160443	-0.723763	0.039978	0.009189	0.003817
530	2.656017	0.005000	8.373943	-0.235440	-4.642028	-0.019428	-0.160216	-0.724398	0.042327	0.012612	-0.001222
531	2.661017	0.005000	8.388495	-0.235440	-4.551840	-0.019087	-0.159988	-0.725034	0.051099	0.023255	0.013481
532	2.666017	0.005000	8.391339	-0.190179	-4.624299	-0.018745	-0.159760	-0.725669	0.043176	0.027499	0.011762
533	2.671017	0.005000	8.472663	-0.199377	-4.630320	-0.018404	-0.159533	-0.726304	0.045314	0.014779	0.000775
534	2.676017	0.005000	8.436933	-0.235773	-4.551507	-0.018063	-0.159305	-0.726939	0.045751	0.021252	0.004584
535	2.681017	0.005000	8.364321	-0.274680	-4.438254	-0.017721	-0.159078	-0.727575	0.047037	0.020834	0.006739
536	2.686017	0.005000	8.363006	-0.201086	-4.502828	-0.017380	-0.158850	-0.728210	0.033210	0.024750	0.010099
537	2.691017	0.005000	8.412820	-0.188470	-4.497140	-0.017038	-0.158623	-0.728845	0.040890	0.024727	-0.000738
538	2.696017	0.005000	8.426026	-0.185626	-4.491452	-0.016697	-0.158395	-0.729481	0.045538	0.016957	0.007683
539	2.701017	0.005000	8.501662	-0.156960	-4.500196	-0.016335	-0.158188	-0.730116	0.042599	0.021965	0.004290
540	2.706017	0.005000	8.459578	-0.143527	-4.473360	-0.015880	-0.158074	-0.730751	0.038990	0.016202	0.009481
541	2.711017	0.005000	8.417730	-0.117720	-4.493730	-0.015425	-0.157961	-0.731387	0.024049	0.025755	0.005814
542	2.716017	0.005000	8.515080	-0.178456	-4.434120	-0.014969	-0.157847	-0.732022	0.026014	0.021220	0.004613
543	2.721017	0.005000	8.460940	-0.142060	-4.488260	-0.014514	-0.157733	-0.732657	0.037485	0.023777	0.006317
544	2.726017	0.005000	8.409416	-0.129776	-4.536713	-0.014059	-0.157619	-0.733293	0.033490	0.026375	0.004456
545	2.731017	0.005000	8.436600	-0.147748	-4.491785	-0.013604	-0.157505	-0.733928	0.035718	0.014945	0.012300
546	2.736017	0.005000	8.554320	-0.124089	-4.506231	-0.013149	-0.157391	-0.734563	0.018855	0.016688	0.012578
547	2.741017	0.005000	8.385379	-0.196200	-4.477354	-0.012694	-0.157278	-0.735199	0.026209	0.000960	0.008904
548	2.746017	0.005000	8.241550	-0.158110	-4.394880	-0.012238	-0.157164	-0.735834	0.027538	0.004854	0.006175
549	2.751017	0.005000	8.354732	-0.196200	-4.469972	-0.011783	-0.157050	-0.736469	0.034677	0.006741	0.006234
550	2.756017	0.005000	8.358120	-0.230902	-4.577466	-0.011328	-0.156936	-0.737104	0.040075	0.006220	0.009552
551	2.761017	0.005000	8.397360	-0.235440	-4.519982	-0.010873	-0.156822	-0.737740	0.020148	0.016524	0.013023
552	2.766017	0.005000	8.475840	-0.138172	-4.599642	-0.010440	-0.156739	-0.738274	0.018675	0.007130	0.006588
553	2.771017	0.005000	8.384596	-0.130484	-4.512600	-0.010327	-0.157080	-0.737385	0.025180	0.015303	0.011081
554	2.776017	0.005000	8.349800	-0.086800	-4.457900	-0.010213	-0.157421	-0.736496	0.038332	0.020769	0.003817
555	2.781017	0.005000	8.460168	-0.138656	-4.376576	-0.010099	-0.157762	-0.735607	0.028352	0.014515	0.007768
556	2.786017	0.005000	8.533172	-0.214292	-4.452212	-0.009985	-0.158104	-0.734718	0.017822	0.011624	0.011513
557	2.791017	0.005000	8.491088	-0.196200	-4.512600	-0.009872	-0.158445	-0.733829	0.020621	0.000646	0.014495
558	2.796017	0.005000	8.490271	-0.196200	-4.446524	-0.009758	-0.158786	-0.732940	0.023465	0.005640	0.010174
559	2.801017	0.005000	8.612912	-0.185988	-4.483036	-0.009644	-0.159127	-0.732051	0.032107	-0.002336	0.011886
560	2.806017	0.005000	8.579189	-0.196200	-4.583895	-0.009530	-0.159469	-0.731162	0.021245	0.003683	0.008601
561	2.811017	0.005000	8.523763	-0.156960	-4.482043	-0.009417	-0.159810	-0.730273	0.044464	0.001282	0.009656
562	2.816017	0.005000	8.515080	-0.156960	-4.669560	-0.009303	-0.160151	-0.729384	0.039680	-0.004276	0.019465
563	2.821017	0.005000	8.477186	-0.043279	-4.555879	-0.009189	-0.160492	-0.728495	0.034416	-0.002295	0.013646
564	2.826017	0.005000	8.506700	-0.113530	-4.595270	-0.009075	-0.160834	-0.727606	0.033524	-0.005783	0.014376
565	2.831017	0.005000	8.508435	-0.117720	-4.558485	-0.008961	-0.161175	-0.726717	0.027233	0.010934	0.013304
566	2.836017	0.005000	8.427191	-0.156960	-4.620911	-0.009492	-0.161301	-0.726907	0.044852	0.007314	0.013583
567	2.841017	0.005000	8.358120	-0.171694	-4.537106	-0.010061	-0.161415	-0.727161	0.039951	0.011382	0.014677
568	2.846017	0.005000	8.427554	-0.172057	-4.506549	-0.010631	-0.161529	-0.727415	0.032895	0.012800	0.004093
569	2.851017	0.005000	8.475840	-0.096421	-4.515958	-0.011200	-0.161643	-0.727670	0.055398	0.004581	0.012488
570	2.856017	0.005000	8.475840	-0.175415	-4.551840	-0.011769	-0.161757	-0.727924	0.046286	0.007823	0.003207
571	2.861017	0.005000	8.468730	-0.133785	-4.607145	-0.012338	-0.161871	-0.728178	0.052890	0.007418	0.008134
572	2.866017	0.005000	8.501859	-0.208998	-4.538619	-0.012908	-0.161985	-0.728432	0.045514	0.008951	0.018091
573	2.871017	0.005000	8.446977	-0.138475	-4.522977	-0.013477	-0.162099	-0.728686	0.037294	0.009737	0.001861
574	2.876017	0.005000	8.415113	-0.253193	-4.544678	-0.014046	-0.162212	-0.728941	0.045936	0.002238	0.002849
575	2.881017	0.005000	8.475840	-0.191511	-4.581701	-0.014615	-0.162326	-0.729195	0.034033	0.001073	-0.001082
576	2.886017	0.005000	8.438468	-0.196200	-4.393012	-0.015185	-0.162440	-0.729449	0.052614	0.002687	0.012192
577	2.891017	0.005000	8.398419	-0.157489	-4.433061	-0.015754	-0.162554	-0.729703	0.041598	0.006498	0.009492
578	2.896017	0.005000	8.508333	-0.189453	-4.473360	-0.016323	-0.162668	-0.729958	0.056803	0.005023	0.001095
579	2.901017	0.005000	8.403577	-0.189983	-4.518817	-0.016228	-0.162497	-0.730317	0.059506	-0.002188	0.008285
580	2.906017	0.005000	8.406421	-0.166021	-4.394880	-0.016001	-0.162270	-0.730699	0.049670	0.003003	-0.002802
581	2.911017	0.005000	8.393427	-0.141258	-4.449822	-0.015774	-0.162042	-0.731080	0.049724	0.004643	0.003711
582	2.916017	0.005000	8.397360	-0.181905	-4.526895	-0.015546	-0.161815	-0.731461	0.058717	0.006813	-0.000661
583	2.921017	0.005000	8.453739	-0.179061	-4.539663	-0.015319	-0.161587	-0.731842	0.042281	-0.002666	-0.002745
584	2.926017	0.005000	8.417343	-0.215457	-4.512600	-0.015091	-0.161360	-0.732223	0.048101	0.002887	-0.001564
585	2.931017	0.005000	8.380947	-0.219027	-4.479774	-0.014864	-0.161132	-0.732604	0.056949	0.009988	0.001166
586	2.936017	0.005000	8.281600	-0.221707	-4.445894	-0.014636	-0.160905	-0.732985	0.056718	0.008570	0.009723
587	2.941017	0.005000	8.397360	-0.185138	-4.501538	-0.014409	-0.160677	-0.733366	0.045132	0.009630	0.003530
588	2.946017	0.005000	8.428250	-0.212900	-4.403230	-0.014181	-0.160449	-0.733747	0.057851	0.000420	-0.002731
589	2.951017	0.005000	8.341601	-0.263667	-4.507094	-0.013954	-0.160222	-0.734128	0.052742	0.008530	-0.000150
590	2.956017	0.005000	8.352795	-0.115058	-4.476022	-0.013726	-0.159994	-0.734509	0.055734	-0.002751	-0.002729
591	2.961017	0.005000	8.318698	-0.195655	-4.629775	-0.013499	-0.159767	-0.734890	0.036974	0.007328	0.005704
592	2.966017	0.005000	8.470697	-0.198772	-4.556983	-0.013352	-0.159782	-0.735090	0.048095	0.011916	-0.000686
593	2.971017	0.005000	8.352704	-0.235440	-4.546424	-0.013238	-0.159896	-0.735217	0.048929	0.002841	0.003516
594	2.976017	0.005000	8.405608	-0.156960	-4.675810	-0.013124	-0.160010	-0.735345	0.043049	0.002549	0.010073
595	2.981017	0.005000	8.408448	-0.185112	-4.686624	-0.013011	-0.160123	-0.735472	0.046455	0.002701	-0.004225
596	2.986017	0.005000	8.397360	-0.196200	-4.672116	-0.012897	-0.160237	-0.735599	0.050945	0.001729	-0.002541
597	2.991017	0.005000	8.420278	-0.156960	-4.597675	-0.012783	-0.160351	-0.735726	0.070419	0.006355	-0.010287
598	2.996017	0.005000	8.534246	-0.156960	-4.571914	-0.012669	-0.160465	-0.735853	0.058020	0.003983	-0.007735
599	3.001017	0.005000	8.497850	-0.196200	-4.512600	-0.012555	-0.160579	-0.735980	0.054413	0.005922	-0.003079
600	3.006017	0.005000	8.475840	-0.167428	-4.640788	-0.012441	-0.160693	-0.736107	0.061515	0.005680	-0.000281
601	3.011017	0.005000	8.480035	-0.062603	-4.551840	-0.012328	-0.160806	-0.736234	0.052160	0.003801	-0.003550
602	3.016017	0.005000	8.427433	-0.048407	-4.611986	-0.012214	-0.160920	-0.736361	0.045949	0.004307	0.001970
603	3.021017	0.005000	8.430277	-0.169606	-4.506277	-0.012100	-0.161034	-0.736488	0.044570	0.003078	-0.001621
604	3.026017	0.005000	8.322359	-0.271201	-4.584121	-0.011986	-0.161148	-0.736615	0.043772	0.000051	-0.005024
605	3.031017	0.005000	8.437871	-0.234805	-4.473360	-0.011940	-0.160856	-0.736440	0.029490	0.003206	0.005984
606	3.036017	0.005000	8.477615	-0.196200	-4.623219	-0.011940	-0.160287	-0.736059	0.049740	0.006683	0.007599
607	3.041017	0.005000	8.475840	-0.117720	-4.517199	-0.011940	-0.159718	-0.735678	0.061079	0.008520	-0.003593
608	3.046017	0.005000	8.397360	-0.173872	-4.473360	-0.011940	-0.159149	-0.735297	0.051104	0.002984	0.001887
609	3.051017	0.005000	8.426313	-0.165340	-4.570507	-0.011940	-0.158580	-0.734916	0.061199	0.008922	0.002636
610	3.056017	0.005000	8.370935	-0.156960	-4.616709	-0.011940	-0.158011	-0.734534	0.058701	0.007033	0.005177
611	3.061017	0.005000	8.381855	-0.259175	-4.434120	-0.011940	-0.157442	-0.734153	0.056604	0.008552	0.000625
612	3.066017	0.005000	8.358120	-0.253789	-4.515141	-0.011940	-0.156873	-0.733772	0.068978	-0.002864	0.002051
613	3.071017	0.005000	8.457793	-0.232294	-4.470214	-0.011940	-0.156304	-0.733391	0.060532	0.003915	0.000278
614	3.076017	0.005000	8.484674	-0.172163	-4.497397	-0.011940	-0.155735	-0.733010	0.045846	0.007397	-0.004420
615	3.081017	0.005000	8.409864	-0.171193	-4.460856	-0.011940	-0.155166	-0.732628	0.048647	0.004757	0.002357
616	3.086017	0.005000	8.465871	-0.117720	-4.493298	-0.011940	-0.154597	-0.732247	0.049126	0.001624	-0.002878
617	3.091017	0.005000	8.436600	-0.196200	-4.533975	-0.011940	-0.154028	-0.731866	0.056099	0.002515	0.005535
618	3.096017	0.005000	8.366682	-0.235440	-4.626039	-0.012103	-0.153894	-0.731667	0.041512	-0.005471	0.011479
619	3.101017	0.005000	8.320317	-0.155523	-4.509726	-0.012445	-0.154236	-0.731667	0.071324	-0.001078	0.007492
620	3.106017	0.005000	8.320287	-0.117720	-4.471953	-0.012786	-0.154577	-0.731667	0.042154	-0.001097	0.005937
621	3.111017	0.005000	8.428099	-0.051992	-4.508349	-0.013128	-0.154919	-0.731667	0.053360	0.002712	0.007587
622	3.116017	0.005000	8.404455	-0.182011	-4.448309	-0.013469	-0.155260	-0.731667	0.059944	0.006543	-0.000171
623	3.121017	0.005000	8.465901	-0.196200	-4.492723	-0.013811	-0.155602	-0.731667	0.065965	0.013132	0.002255
624	3.126017	0.005000	8.341208	-0.198499	-4.512600	-0.014153	-0.155944	-0.731667	0.067307	0.010344	0.012820
625	3.131017	0.005000	8.373277	-0.220283	-4.512600	-0.014494	-0.156285	-0.731667	0.058819	0.004232	0.014791
626	3.136017	0.005000	8.400597	-0.174961	-4.448884	-0.014836	-0.156627	-0.731667	0.066518	0.003917	0.006778
627	3.141017	0.005000	8.397360	-0.217045	-4.510149	-0.015177	-0.156968	-0.731667	0.052483	0.007577	0.012832
628	3.146017	0.005000	8.373671	-0.196200	-4.598492	-0.015519	-0.157310	-0.731667	0.039309	0.005282	0.001184
629	3.151017	0.005000	8.384653	-0.196200	-4.564547	-0.015860	-0.157651	-0.731667	0.047674	-0.001579	0.001503
630	3.156017	0.005000	8.387497	-0.166611	-4.649834	-0.016202	-0.157993	-0.731667	0.063852	0.004861	-0.000316
631	3.161017	0.005000	8.365608	-0.125208	-4.637808	-0.016334	-0.158209	-0.731807	0.059442	-0.003151	0.000766
632	3.166017	0.005000	8.436600	-0.240084	-4.621032	-0.016107	-0.158209	-0.732188	0.047599	0.001425	0.007735
633	3.171017	0.005000	8.472240	-0.198000	-4.512600	-0.015879	-0.158209	-0.732569	0.053895	-0.005803	0.005444
634	3.176017	0.005000	8.359164	-0.197244	-4.474404	-0.015652	-0.158209	-0.732950	0.054644	-0.003139	0.013853
635	3.181017	0.005000	8.440488	-0.121608	-4.508712	-0.015425	-0.158209	-0.733331	0.060262	0.004368	0.011515
636	3.186017	0.005000	8.436600	-0.117720	-4.479638	-0.015197	-0.158209	-0.733712	0.057765	0.000711	0.012297
637	3.191017	0.005000	8.307005	-0.177957	-4.503478	-0.014970	-0.158209	-0.734093	0.041185	0.008495	0.003545
638	3.196017	0.005000	8.412669	-0.196200	-4.500634	-0.014742	-0.158209	-0.734474	0.035221	0.011036	0.007410
639	3.201017	0.005000	8.382550	-0.211010	-4.458550	-0.014515	-0.158209	-0.734855	0.042672	0.016914	0.001819
640	3.206017	0.005000	8.283573	-0.121653	-4.551840	-0.014287	-0.158209	-0.735236	0.045854	0.014834	0.001651
641	3.211017	0.005000	8.318880	-0.194445	-4.531343	-0.014060	-0.158209	-0.735617	0.049717	0.011503	0.010398
642	3.216017	0.005000	8.365563	-0.172859	-4.606979	-0.013832	-0.158209	-0.735998	0.040396	0.012828	0.012172
643	3.221017	0.005000	8.292695	-0.170015	-4.525730	-0.013605	-0.158209	-0.736379	0.050988	0.010314	0.014986
644	3.226017	0.005000	8.378789	-0.196200	-4.669560	-0.013545	-0.158265	-0.736636	0.057371	0.006295	0.019082
645	3.231017	0.005000	8.475840	-0.109884	-4.591080	-0.014000	-0.158492	-0.736509	0.046675	0.002654	0.004362
646	3.236017	0.005000	8.402352	-0.122712	-4.566816	-0.014455	-0.158720	-0.736382	0.042083	0.006669	0.008444
647	3.241017	0.005000	8.434452	-0.156960	-4.558284	-0.014910	-0.158947	-0.736255	0.052233	0.015845	0.011726
648	3.246017	0.005000	8.358816	-0.234048	-4.592472	-0.015365	-0.159175	-0.736127	0.064937	0.008645	0.017150
649	3.251017	0.005000	8.436600	-0.235440	-4.516140	-0.015820	-0.159403	-0.736000	0.047313	0.012367	0.011073
650	3.256017	0.005000	8.397360	-0.169727	-4.512600	-0.016275	-0.159630	-0.735873	0.043997	0.008538	0.016344
651	3.261017	0.005000	8.327654	-0.139412	-4.534292	-0.016731	-0.159858	-0.735746	0.055298	0.006939	0.009381
652	3.266017	0.005000	8.424982	-0.247058	-4.575075	-0.017186	-0.160085	-0.735619	0.042815	0.010745	0.012454
653	3.271017	0.005000	8.382898	-0.196200	-4.516745	-0.017641	-0.160313	-0.735492	0.062568	0.004303	0.017282
654	3.276017	0.005000	8.463163	-0.218134	-4.573774	-0.018096	-0.160540	-0.735365	0.043149	0.005359	0.007469
655	3.281017	0.005000	8.495989	-0.275739	-4.570931	-0.018551	-0.160768	-0.735238	0.058299	0.004500	0.015172
656	3.286017	0.005000	8.348620	-0.196200	-4.528847	-0.019006	-0.160996	-0.735111	0.049076	0.009635	0.011211
657	3.291017	0.005000	8.344248	-0.103848	-4.487232	-0.019374	-0.161150	-0.734918	0.040077	0.010544	0.012602
658	3.296017	0.005000	8.397360	-0.128748	-4.434120	-0.019146	-0.160809	-0.734283	0.039612	0.013837	0.008061
659	3.301017	0.005000	8.380992	-0.258312	-4.504416	-0.018919	-0.160467	-0.733648	0.047399	0.008891	0.008761
660	3.306017	0.005000	8.363460	-0.240780	-4.517940	-0.018691	-0.160126	-0.733012	0.059943	-0.000149	0.010737
661	3.311017	0.005000	8.436600	-0.313920	-4.625328	-0.018463	-0.159785	-0.732377	0.057644	0.011582	0.007680
662	3.316017	0.005000	8.475492	-0.313920	-4.551840	-0.018236	-0.159443	-0.731742	0.061119	0.008059	0.008543
663	3.321017	0.005000	8.397360	-0.277872	-4.512600	-0.018008	-0.159102	-0.731107	0.035367	0.009272	0.015618
664	3.326017	0.005000	8.408498	-0.246578	-4.585511	-0.017781	-0.158760	-0.730471	0.034154	0.010939	0.015189
665	3.331017	0.005000	8.335701	-0.182192	-4.582669	-0.017553	-0.158419	-0.729836	0.057219	0.011248	0.017696
666	3.336017	0.005000	8.229145	-0.089735	-4.495869	-0.017326	-0.158078	-0.729201	0.036333	0.008902	0.006787
667	3.341017	0.005000	8.344021	-0.156960	-4.548784	-0.017098	-0.157736	-0.728565	0.058672	0.012669	0.014625
668	3.346017	0.005000	8.352765	-0.196200	-4.551840	-0.016870	-0.157395	-0.727930	0.040740	0.011623	0.006134
669	3.351017	0.005000	8.397360	-0.157293	-4.551507	-0.016643	-0.157053	-0.727295	0.041382	0.002350	0.008850
670	3.356017	0.005000	8.313767	-0.174024	-4.534776	-0.016415	-0.156719	-0.726675	0.042112	0.007842	0.009084
671	3.361017	0.005000	8.422380	-0.288900	-4.541039	-0.016188	-0.156946	-0.727310	0.038107	0.006414	0.005344
672	3.366017	0.005000	8.341631	-0.240553	-4.641696	-0.015960	-0.157174	-0.727945	0.054234	0.005612	0.015353
673	3.371017	0.005000	8.419536	-0.165492	-4.529664	-0.015733	-0.157401	-0.728580	0.045848	0.010770	0.013214
674	3.376017	0.005000	8.375184	-0.235440	-4.579704	-0.015505	-0.157629	-0.729215	0.053893	0.007403	0.010944
675	3.381017	0.005000	8.400238	-0.229683	-4.479117	-0.015278	-0.157856	-0.729850	0.046870	0.013642	0.011505
676	3.386017	0.005000	8.318417	-0.196663	-4.589226	-0.015050	-0.158084	-0.730485	0.041746	0.010736	0.010092
677	3.391017	0.005000	8.353313	-0.198604	-4.397284	-0.014823	-0.158311	-0.731120	0.054019	0.011308	0.004877
678	3.396017	0.005000	8.324099	-0.196200	-4.444558	-0.014596	-0.158538	-0.731755	0.049326	0.011693	0.003695
679	3.401017	0.005000	8.373172	-0.156960	-4.465297	-0.014368	-0.158766	-0.732390	0.052621	0.010917	0.011557
680	3.406017	0.005000	8.475840	-0.167867	-4.445027	-0.014141	-0.158993	-0.733025	0.049100	0.013301	0.010054
681	3.411017	0.005000	8.423148	-0.170412	-4.434120	-0.013913	-0.159221	-0.733660	0.033969	0.008050	0.009599
682	3.416017	0.005000	8.452741	-0.071521	-4.417979	-0.013686	-0.159448	-0.734295	0.049315	0.001798	0.007712
683	3.421017	0.005000	8.417615	-0.177215	-4.375895	-0.013458	-0.159676	-0.734930	0.062514	0.002730	0.001384
684	3.426017	0.005000	8.401777	-0.191783	-4.564834	-0.013129	-0.159296	-0.735000	0.070173	0.002541	0.011021
685	3.431017	0.005000	8.411928	-0.235440	-4.644888	-0.012788	-0.158841	-0.735000	0.048964	0.008033	0.008032
686	3.436017	0.005000	8.409084	-0.223716	-4.477429	-0.012447	-0.158386	-0.735000	0.050625	0.012496	0.008044
687	3.441017	0.005000	8.472548	-0.117720	-4.443107	-0.012105	-0.157931	-0.735000	0.045089	0.016569	0.008400
688	3.446017	0.005000	8.449821	-0.045745	-4.591080	-0.011764	-0.157476	-0.735000	0.046472	0.014176	0.006174
689	3.451017	0.005000	8.354459	-0.121381	-4.587419	-0.011422	-0.157020	-0.735000	0.045804	0.000251	0.011981
690	3.456017	0.005000	8.358120	-0.157777	-4.512600	-0.011081	-0.156565	-0.735000	0.042077	0.004275	0.006299
691	3.461017	0.005000	8.320907	-0.158987	-4.400961	-0.010740	-0.156110	-0.735000	0.057303	0.000430	0.011731
692	3.466017	0.005000	8.397360	-0.161831	-4.399751	-0.010398	-0.155655	-0.735000	0.049765	0.007441	0.014513
693	3.471017	0.005000	8.397360	-0.149699	-4.505339	-0.010057	-0.155200	-0.735000	0.057493	0.005574	0.005075
694	3.476017	0.005000	8.358120	-0.127825	-4.444225	-0.009715	-0.154745	-0.735000	0.052479	0.011780	0.016221
695	3.481017	0.005000	8.397360	-0.078480	-4.525942	-0.009374	-0.154289	-0.735000	0.050466	0.013134	0.008382
696	3.486017	0.005000	8.405014	-0.078480	-4.575287	-0.009032	-0.153834	-0.735000	0.051268	0.007524	0.010712
697	3.491017	0.005000	8.436600	-0.158927	-4.611683	-0.009131	-0.153819	-0.735098	0.057531	0.005443	0.015297
698	3.496017	0.005000	8.376348	-0.235440	-4.533612	-0.009358	-0.153933	-0.735225	0.045274	0.003324	0.014852
699	3.501017	0.005000	8.388889	-0.180816	-4.551840	-0.009586	-0.154047	-0.735352	0.055810	0.000766	0.016859
700	3.506017	0.005000	8.527620	-0.130260	-4.591080	-0.009814	-0.154160	-0.735480	0.043470	0.005164	0.011983
701	3.511017	0.005000	8.407510	-0.166657	-4.542143	-0.010041	-0.154274	-0.735607	0.045697	0.000776	0.013675
702	3.516017	0.005000	8.332751	-0.189264	-4.505664	-0.010269	-0.154388	-0.735734	0.053072	0.011513	0.011145
703	3.521017	0.005000	8.471362	-0.161438	-4.512600	-0.010496	-0.154502	-0.735861	0.043651	0.001222	0.018008
704	3.526017	0.005000	8.516714	-0.196200	-4.509333	-0.010724	-0.154616	-0.735988	0.040462	0.004986	0.016489
705	3.531017	0.005000	8.516290	-0.158170	-4.548209	-0.010952	-0.154730	-0.736115	0.046010	0.003525	0.014411
706	3.536017	0.005000	8.405468	-0.047348	-4.551840	-0.011179	-0.154843	-0.736242	0.047643	0.003932	0.009016
707	3.541017	0.005000	8.318880	-0.110822	-4.558738	-0.011407	-0.154957	-0.736369	0.046377	0.004735	0.007104
708	3.546017	0.005000	8.436600	-0.177406	-4.542443	-0.011634	-0.155071	-0.736496	0.053564	0.000507	0.015059
709	3.551017	0.005000	8.331012	-0.144828	-4.551840	-0.011862	-0.155185	-0.736623	0.050562	0.002695	0.013809
710	3.556017	0.005000	8.318880	-0.117720	-4.660272	-0.011641	-0.155224	-0.736333	0.034119	0.010468	0.006644
711	3.561017	0.005000	8.443801	-0.217620	-4.669560	-0.011186	-0.155224	-0.735825	0.043611	0.002640	0.010777
712	3.566017	0.005000	8.533656	-0.136296	-4.572504	-0.010730	-0.155224	-0.735316	0.046128	0.009460	0.003052
713	3.571017	0.005000	8.467883	-0.156960	-4.622363	-0.010275	-0.155224	-0.734808	0.052145	0.002944	0.011883
714	3.576017	0.005000	8.489303	-0.182737	-4.551840	-0.009820	-0.155224	-0.734299	0.055733	-0.000468	0.014067
715	3.581017	0.005000	8.436600	-0.156960	-4.601593	-0.009364	-0.155224	-0.733790	0.051004	-0.004867	0.019020
716	3.586017	0.005000	8.484402	-0.172299	-4.630320	-0.008909	-0.155224	-0.733282	0.055423	-0.000398	0.017884
717	3.591017	0.005000	8.431774	-0.304269	-4.620669	-0.008453	-0.155224	-0.732773	0.064031	-0.007981	0.015405
718	3.596017	0.005000	8.358120	-0.158942	-4.510618	-0.007998	-0.155224	-0.732265	0.058972	-0.003499	0.010434
719	3.601017	0.005000	8.396498	-0.234578	-4.550115	-0.007543	-0.155224	-0.731756	0.054046	0.002640	0.006280
720	3.606017	0.005000	8.390779	-0.160250	-4.551840	-0.007087	-0.155224	-0.731248	0.061774	-0.007071	0.013062
721	3.611017	0.005000	8.358120	-0.144767	-4.630320	-0.006632	-0.155224	-0.730739	0.037465	-0.003495	0.011027
722	3.616017	0.005000	8.349180	-0.296040	-4.639260	-0.006177	-0.155224	-0.730231	0.056042	-0.004746	0.009920
723	3.621017	0.005000	8.369904	-0.207984	-4.591080	-0.006157	-0.155411	-0.730208	0.030330	0.006002	0.018617
724	3.626017	0.005000	8.294268	-0.142332	-4.591080	-0.006498	-0.155752	-0.730590	0.053701	0.000401	0.010790
725	3.631017	0.005000	8.397360	-0.196200	-4.547544	-0.006840	-0.156093	-0.730971	0.045456	-0.007546	0.012487
726	3.636017	0.005000	8.379141	-0.236374	-4.591080	-0.007181	-0.156435	-0.731352	0.053058	-0.008528	0.011074
727	3.641017	0.005000	8.302331	-0.140411	-4.601488	-0.007523	-0.156776	-0.731734	0.058445	-0.007106	0.010311
728	3.646017	0.005000	8.318880	-0.182804	-4.630320	-0.007864	-0.157118	-0.732115	0.054328	-0.002858	0.006035
729	3.651017	0.005000	8.358120	-0.185339	-4.512600	-0.008206	-0.157459	-0.732497	0.054252	-0.003100	0.012381
730	3.656017	0.005000	8.365290	-0.235440	-4.458172	-0.008547	-0.157801	-0.732878	0.055613	-0.001341	0.013900
731	3.661017	0.005000	8.289987	-0.230266	-4.483707	-0.008889	-0.158142	-0.733259	0.046560	0.004470	-0.002269
732	3.666017	0.005000	8.431886	-0.196200	-4.627963	-0.009231	-0.158484	-0.733641	0.059894	-0.009916	0.007396
733	3.671017	0.005000	8.593197	-0.196200	-4.512721	-0.009572	-0.158825	-0.734022	0.043767	0.001733	-0.000383
734	3.676017	0.005000	8.407220	-0.196200	-4.475825	-0.009914	-0.159167	-0.734403	0.047973	0.001450	-0.003034
735	3.681017	0.005000	8.402639	-0.128279	-4.434120	-0.010255	-0.159508	-0.734785	0.044971	0.006347	0.002693
736	3.686017	0.005000	8.444723	-0.156960	-4.543717	-0.010299	-0.159552	-0.734889	0.032149	0.005074	-0.000786
737	3.691017	0.005000	8.464873	-0.185233	-4.556469	-0.009958	-0.159211	-0.734635	0.052077	0.006235	0.009269
738	3.696017	0.005000	8.410702	-0.196200	-4.551840	-0.009616	-0.158870	-0.734381	0.051098	-0.001541	0.004452
739	3.701017	0.005000	8.390492	-0.180014	-4.584212	-0.009275	-0.158528	-0.734127	0.061403	0.000215	-0.000205
740	3.706017	0.005000	8.436600	-0.137930	-4.608930	-0.008934	-0.158187	-0.733873	0.056118	0.000410	0.003918
741	3.711017	0.005000	8.392852	-0.183342	-4.551840	-0.008592	-0.157846	-0.733619	0.046889	-0.005195	0.006869
742	3.716017	0.005000	8.347924	-0.132242	-4.541644	-0.008251	-0.157504	-0.733365	0.033243	-0.003361	0.009955
743	3.721017	0.005000	8.436600	-0.235440	-4.575196	-0.007909	-0.157163	-0.733110	0.039518	0.001316	-0.002749
744	3.726017	0.005000	8.475840	-0.139085	-4.551840	-0.007568	-0.156822	-0.732856	0.034913	-0.003424	-0.000453
745	3.731017	0.005000	8.469396	-0.130608	-4.617432	-0.007227	-0.156480	-0.732602	0.042102	-0.000799	-0.000539
746	3.736017	0.005000	8.440200	-0.082080	-4.665960	-0.006885	-0.156139	-0.732348	0.047382	-0.002503	-0.002321
747	3.741017	0.005000	8.396604	-0.154691	-4.511844	-0.006544	-0.155798	-0.732094	0.036647	0.010388	-0.001178
748	3.746017	0.005000	8.469577	-0.113545	-4.510512	-0.006202	-0.155456	-0.731840	0.033982	0.002921	0.002385
749	3.751017	0.005000	8.446463	-0.107857	-4.453846	-0.006043	-0.155406	-0.731748	0.032127	-0.002867	0.011177
750	3.756017	0.005000	8.515080	-0.181587	-4.529921	-0.006270	-0.155975	-0.732002	0.031739	0.008329	0.000022
751	3.761017	0.005000	8.368270	-0.206350	-4.522750	-0.006498	-0.156544	-0.732256	0.041972	-0.003440	0.006670
752	3.766017	0.005000	8.371114	-0.169954	-4.499606	-0.006725	-0.157113	-0.732510	0.040810	0.004608	0.004762
753	3.771017	0.005000	8.515080	-0.141122	-4.637884	-0.006953	-0.157682	-0.732765	0.045784	0.000779	0.011893
754	3.776017	0.005000	8.477716	-0.175642	-4.531282	-0.007181	-0.158251	-0.733019	0.033349	0.008146	0.010961
755	3.781017	0.005000	8.436600	-0.196200	-4.570008	-0.007408	-0.158820	-0.733273	0.039236	0.005228	0.004118
756	3.786017	0.005000	8.436600	-0.181330	-4.600580	-0.007636	-0.159389	-0.733527	0.041789	-0.004521	0.020022
757	3.791017	0.005000	8.424120	-0.222960	-4.551840	-0.007863	-0.159958	-0.733781	0.045184	0.000273	0.003978
758	3.796017	0.005000	8.299608	-0.167292	-4.620684	-0.008091	-0.160527	-0.734035	0.040513	0.001833	0.013012
759	3.801017	0.005000	8.325672	-0.092064	-4.558632	-0.008318	-0.161096	-0.734289	0.037770	-0.007412	0.024506
760	3.806017	0.005000	8.393412	-0.153012	-4.555788	-0.008546	-0.161665	-0.734543	0.036116	-0.000274	0.012186
761	3.811017	0.005000	8.397360	-0.156960	-4.592184	-0.008774	-0.162234	-0.734797	0.049915	0.006784	0.013408
762	3.816017	0.005000	8.322359	-0.156960	-4.667820	-0.009301	-0.162687	-0.734536	0.067014	0.004941	0.003971
763	3.821017	0.005000	8.367287	-0.191616	-4.600247	-0.011008	-0.162687	-0.732249	0.067139	0.002209	0.008945
764	3.826017	0.005000	8.365079	-0.196200	-4.630320	-0.012715	-0.162687	-0.729961	0.045105	0.003721	0.005926
765	3.831017	0.005000	8.387558	-0.166762	-4.483162	-0.014422	-0.162687	-0.727674	0.058717	0.005258	0.009902
766	3.836017	0.005000	8.437901	-0.130366	-4.486006	-0.016129	-0.162687	-0.725387	0.052092	0.007124	0.009760
767	3.841017	0.005000	8.397360	-0.110489	-4.480591	-0.017836	-0.162687	-0.723100	0.046048	0.007744	0.010951
768	3.846017	0.005000	8.434028	-0.177866	-4.491694	-0.019543	-0.162687	-0.720813	0.047284	0.001164	0.007803
769	3.851017	0.005000	8.418538	-0.217378	-4.494538	-0.021249	-0.162687	-0.718525	0.024324	0.009622	0.012826
770	3.856017	0.005000	8.334282	-0.235440	-4.591080	-0.022956	-0.162687	-0.716238	0.059738	0.001566	0.013142
771	3.861017	0.005000	8.384517	-0.235440	-4.616766	-0.024663	-0.162687	-0.713951	0.043937	0.004985	-0.002055
772	3.866017	0.005000	8.378118	-0.303921	-4.640319	-0.026370	-0.162687	-0.711664	0.056114	0.006447	-0.002162
773	3.871017	0.005000	8.383050	-0.189045	-4.644630	-0.028077	-0.162687	-0.709377	0.052349	0.005362	0.007394
774	3.876017	0.005000	8.249023	-0.109097	-4.735106	-0.029784	-0.162687	-0.707090	0.046829	0.007170	0.000893
775	3.881017	0.005000	8.320347	-0.154025	-4.591080	-0.031294	-0.162766	-0.705033	0.068323	0.012251	0.005260
776	3.886017	0.005000	8.319814	-0.116786	-4.629386	-0.030725	-0.163676	-0.705414	0.055119	0.004133	0.004760
777	3.891017	0.005000	8.358120	-0.196200	-4.587313	-0.030156	-0.164586	-0.705795	0.057734	0.007941	0.003869
778	3.896017	0.005000	8.318880	-0.196200	-4.558451	-0.029587	-0.165497	-0.706177	0.052516	0.008957	0.015960
779	3.901017	0.005000	8.289095	-0.186745	-4.620865	-0.029018	-0.166407	-0.706558	0.045051	0.013133	0.021075
780	3.906017	0.005000	8.385062	-0.171603	-4.603378	-0.028449	-0.167317	-0.706939	0.055094	0.004878	0.019647
781	3.911017	0.005000	8.397360	-0.178289	-4.615178	-0.027880	-0.168228	-0.707320	0.038351	0.016741	0.003905
782	3.916017	0.005000	8.375637	-0.117720	-4.591080	-0.027312	-0.169138	-0.707701	0.055893	0.005498	-0.000912
783	3.921017	0.005000	8.358120	-0.175839	-4.570719	-0.026743	-0.170048	-0.708083	0.037766	0.009810	0.016152
784	3.926017	0.005000	8.358120	-0.172995	-4.598250	-0.026174	-0.170958	-0.708464	0.055122	0.016479	0.016168
785	3.931017	0.005000	8.332071	-0.130911	-4.564698	-0.025605	-0.171869	-0.708845	0.046677	0.012589	0.016964
786	3.936017	0.005000	8.389161	-0.117720	-4.502253	-0.025036	-0.172779	-0.709226	0.045635	0.011219	0.012291
787	3.941017	0.005000	8.326383	-0.125223	-4.559343	-0.024467	-0.173689	-0.709607	0.048717	0.008766	0.016544
788	3.946017	0.005000	8.436600	-0.156960	-4.679786	-0.023898	-0.174600	-0.709989	0.051386	0.008687	0.011740
789	3.951017	0.005000	8.390553	-0.159229	-4.628051	-0.023550	-0.173964	-0.710986	0.054292	0.006709	0.006957
790	3.956017	0.005000	8.356970	-0.234865	-4.513750	-0.023208	-0.173281	-0.712003	0.039636	0.012292	0.020315
791	3.961017	0.005000	8.433181	-0.092155	-4.473360	-0.022867	-0.172598	-0.713020	0.043844	0.006109	0.008559
792	3.966017	0.005000	8.364383	-0.295132	-4.498411	-0.022525	-0.171915	-0.714037	0.045188	0.002469	0.016080
793	3.971017	0.005000	8.384346	-0.244182	-4.569324	-0.022183	-0.171232	-0.715054	0.051796	0.005694	0.015650
794	3.976017	0.005000	8.318880	-0.168442	-4.563322	-0.021842	-0.170549	-0.716071	0.048091	0.002263	0.010321
795	3.981017	0.005000	8.318880	-0.196200	-4.630320	-0.021500	-0.169866	-0.717088	0.040506	0.008985	0.015907
796	3.986017	0.005000	8.301711	-0.201101	-4.546939	-0.021159	-0.169183	-0.718105	0.038396	0.008730	0.007539
797	3.991017	0.005000	8.338107	-0.216213	-4.474147	-0.020817	-0.168500	-0.719122	0.052355	0.004017	0.015005
798	3.996017	0.005000	8.380977	-0.179817	-4.512600	-0.020476	-0.167817	-0.720139	0.066384	0.009107	0.006907
799	4.001017	0.005000	8.422607	-0.131713	-4.591080	-0.020134	-0.167134	-0.721156	0.052333	0.004856	0.011197
800	4.006017	0.005000	8.346971	-0.207349	-4.591080	-0.019793	-0.166451	-0.722173	0.062653	0.013244	0.012382
801	4.011017	0.005000	8.374730	-0.210525	-4.733715	-0.019451	-0.165768	-0.723190	0.054556	0.003371	0.011931
802	4.016017	0.005000	8.375516	-0.089402	-4.664099	-0.018816	-0.165183	-0.723879	0.030547	0.006844	0.016098
803	4.021017	0.005000	8.358120	-0.193583	-4.661709	-0.018133	-0.164614	-0.724515	0.050417	0.013254	0.016871
804	4.026017	0.005000	8.358120	-0.195988	-4.590868	-0.017451	-0.164045	-0.725150	0.048648	0.008186	0.010665
805	4.031017	0.005000	8.324084	-0.190996	-4.627718	-0.016768	-0.163476	-0.725785	0.060038	0.004764	0.011108
806	4.036017	0.005000	8.363566	-0.117720	-4.624874	-0.016085	-0.162907	-0.726421	0.054325	0.016608	0.008079
807	4.041017	0.005000	8.366410	-0.086770	-4.560130	-0.015402	-0.162338	-0.727056	0.055984	0.017320	0.016626
808	4.046017	0.005000	8.397360	-0.213173	-4.613347	-0.014720	-0.161769	-0.727692	0.060304	0.012083	0.012052
809	4.051017	0.005000	8.411032	-0.209872	-4.551840	-0.014037	-0.161200	-0.728327	0.057862	0.014127	0.009579
810	4.056017	0.005000	8.469305	-0.140607	-4.568193	-0.013354	-0.160631	-0.728962	0.053397	0.013501	0.010206
811	4.061017	0.005000	8.397360	-0.197047	-4.630320	-0.012672	-0.160062	-0.729598	0.049577	0.011712	0.009850
812	4.066017	0.005000	8.414560	-0.257480	-4.556681	-0.011989	-0.159493	-0.730233	0.047553	0.017193	0.002135
813	4.071017	0.005000	8.397360	-0.117720	-4.512600	-0.011306	-0.158924	-0.730868	0.060388	0.007226	-0.006710
814	4.076017	0.005000	8.370086	-0.180891	-4.567149	-0.010623	-0.158355	-0.731504	0.059058	0.013430	0.007364
815	4.081017	0.005000	8.358120	-0.175203	-4.521722	-0.010955	-0.158547	-0.731384	0.036796	0.021023	0.003169
816	4.086017	0.005000	8.325158	-0.189922	-4.578524	-0.011638	-0.159002	-0.731003	0.047127	0.016549	0.013093
817	4.091017	0.005000	8.397360	-0.232006	-4.512600	-0.012320	-0.159457	-0.730622	0.049741	0.025632	0.001300
818	4.096017	0.005000	8.394183	-0.197259	-4.590021	-0.013002	-0.159912	-0.730241	0.051732	0.021695	0.015065
819	4.101017	0.005000	8.392005	-0.235440	-4.514385	-0.013685	-0.160367	-0.729860	0.057750	0.014757	0.013690
820	4.106017	0.005000	8.436600	-0.191571	-4.556469	-0.014367	-0.160822	-0.729479	0.052670	0.010468	0.004507
821	4.111017	0.005000	8.453421	-0.188727	-4.544367	-0.015050	-0.161277	-0.729098	0.042657	0.016782	0.003861
822	4.116017	0.005000	8.475840	-0.196200	-4.551840	-0.015732	-0.161732	-0.728717	0.048570	0.016448	0.007025
823	4.121017	0.005000	8.410889	-0.222584	-4.551840	-0.016414	-0.162187	-0.728336	0.052042	0.017990	0.007972
824	4.126017	0.005000	8.483252	-0.274680	-4.543702	-0.017097	-0.162642	-0.727955	0.050025	0.013624	0.003909
825	4.131017	0.005000	8.413304	-0.212144	-4.512600	-0.017779	-0.163097	-0.727574	0.046776	0.010982	0.001762
826	4.136017	0.005000	8.336881	-0.217439	-4.527364	-0.018462	-0.163551	-0.727193	0.048564	0.011114	0.009727
827	4.141017	0.005000	8.382203	-0.259523	-4.560765	-0.019144	-0.164006	-0.726812	0.055371	0.016668	0.002487
828	4.146017	0.005000	8.397360	-0.247902	-4.551840	-0.018909	-0.163826	-0.726825	0.074582	0.011304	0.009550
829	4.151017	0.005000	8.348696	-0.215563	-4.571203	-0.018112	-0.163257	-0.727079	0.039246	0.023129	-0.004294
830	4.156017	0.005000	8.404455	-0.228345	-4.526789	-0.017316	-0.162688	-0.727333	0.058080	0.018517	-0.005721
831	4.161017	0.005000	8.380357	-0.200451	-4.621819	-0.016519	-0.162119	-0.727587	0.050637	0.015010	-0.000336
832	4.166017	0.005000	8.356713	-0.274680	-4.588266	-0.015722	-0.161550	-0.727841	0.042442	0.019235	0.003538
833	4.171017	0.005000	8.318880	-0.236877	-4.550403	-0.014926	-0.160981	-0.728095	0.044027	0.018378	0.003747
834	4.176017	0.005000	8.388798	-0.270399	-4.512600	-0.014129	-0.160412	-0.728349	0.037895	0.013447	-0.000305
835	4.181017	0.005000	8.383110	-0.178335	-4.537590	-0.013333	-0.159843	-0.728603	0.040013	0.011889	0.000261
836	4.186017	0.005000	8.465871	-0.146991	-4.610382	-0.012536	-0.159274	-0.728858	0.044172	0.018704	0.005330
837	4.191017	0.005000	8.529334	-0.144467	-4.603573	-0.011740	-0.158705	-0.729112	0.057740	0.024332	-0.001782
838	4.196017	0.005000	8.403683	-0.148095	-4.488548	-0.010943	-0.158136	-0.729366	0.066354	0.024628	0.006713
839	4.201017	0.005000	8.379328	-0.196200	-4.533808	-0.010146	-0.157567	-0.729620	0.039189	0.017765	0.000433
840	4.206017	0.005000	8.360631	-0.172813	-4.588569	-0.009350	-0.156998	-0.729874	0.040865	0.018075	0.017109
841	4.211017	0.005000	8.373641	-0.211721	-4.693279	-0.009184	-0.156601	-0.730192	0.054367	0.029124	0.003431
842	4.216017	0.005000	8.385300	-0.249030	-4.657500	-0.009639	-0.156374	-0.730573	0.057503	0.014579	0.011858
843	4.221017	0.005000	8.397360	-0.146673	-4.512600	-0.010094	-0.156146	-0.730954	0.048429	0.024029	0.017480
844	4.226017	0.005000	8.460955	-0.142075	-4.417208	-0.010549	-0.155919	-0.731335	0.043741	0.014738	0.010841
845	4.231017	0.005000	8.401959	-0.187003	-4.503403	-0.011004	-0.155691	-0.731716	0.049759	0.016019	0.017860
846	4.236017	0.005000	8.436600	-0.158715	-4.434120	-0.011459	-0.155464	-0.732097	0.036378	0.019213	0.012231
847	4.241017	0.005000	8.360298	-0.196200	-4.472271	-0.011914	-0.155236	-0.732478	0.044527	0.010146	0.010544
848	4.246017	0.005000	8.429672	-0.235440	-4.580688	-0.012369	-0.155009	-0.732859	0.048005	0.016727	0.004437
849	4.251017	0.005000	8.331496	-0.150652	-4.380872	-0.012824	-0.154782	-0.733240	0.053476	0.008115	0.011058
850	4.256017	0.005000	8.339816	-0.217136	-4.424968	-0.013279	-0.154554	-0.733621	0.050988	0.011819	0.011788
851	4.261017	0.005000	8.385364	-0.220192	-4.524596	-0.013734	-0.154327	-0.734002	0.057819	0.022329	0.012436
852	4.266017	0.005000	8.461454	-0.210586	-4.444588	-0.014189	-0.154099	-0.734383	0.046373	0.017414	0.014006
853	4.271017	0.005000	8.414590	-0.235440	-4.429340	-0.014644	-0.153872	-0.734764	0.030938	0.020902	0.011051
854	4.276017	0.005000	8.397360	-0.216274	-4.511692	-0.014795	-0.153774	-0.734806	0.018288	0.012096	0.012908
855	4.281017	0.005000	8.390765	-0.189605	-4.519195	-0.014453	-0.153888	-0.734298	0.035505	0.019686	0.010708
856	4.286017	0.005000	8.397360	-0.247723	-4.512600	-0.014112	-0.154002	-0.733789	0.036860	0.018013	0.004685
857	4.291017	0.005000	8.369223	-0.213233	-4.579977	-0.013771	-0.154116	-0.733281	0.050125	0.019448	0.013273
858	4.296017	0.005000	8.389101	-0.187941	-4.568359	-0.013429	-0.154230	-0.732773	0.043662	0.015705	0.016339
859	4.301017	0.005000	8.470424	-0.224609	-4.630320	-0.013088	-0.154344	-0.732265	0.049742	0.008075	0.012273
860	4.306017	0.005000	8.434028	-0.120292	-4.551840	-0.012747	-0.154457	-0.731756	0.038060	0.013014	0.016301
861	4.311017	0.005000	8.397360	-0.195928	-4.590808	-0.012405	-0.154571	-0.731248	0.046598	0.006268	0.024172
862	4.316017	0.005000	8.361236	-0.193084	-4.630320	-0.012064	-0.154685	-0.730740	0.037129	0.009677	0.021368
863	4.321017	0.005000	8.402866	-0.190694	-4.518106	-0.011723	-0.154799	-0.730231	0.040623	-0.000450	0.008621
864	4.326017	0.005000	8.444950	-0.179500	-4.481710	-0.011381	-0.154913	-0.729723	0.040465	0.004736	0.016482
865	4.331017	0.005000	8.475840	-0.106526	-4.607932	-0.011040	-0.155027	-0.729215	0.027612	0.016710	0.012861
866	4.336017	0.005000	8.489878	-0.156960	-4.579916	-0.010699	-0.155140	-0.728706	0.039383	0.010461	0.007368
867	4.341017	0.005000	8.453482	-0.083956	-4.540434	-0.010478	-0.155315	-0.728502	0.040050	0.004250	0.014151
868	4.346017	0.005000	8.534337	-0.196926	-4.630320	-0.010592	-0.155656	-0.729137	0.050693	0.003032	0.010607
869	4.351017	0.005000	8.492979	-0.252579	-4.529739	-0.010706	-0.155997	-0.729772	0.058473	0.003089	0.014118
870	4.356017	0.005000	8.554320	-0.196200	-4.523250	-0.010819	-0.156339	-0.730408	0.049719	0.005450	0.005679
871	4.361017	0.005000	8.503629	-0.184749	-4.461909	-0.010933	-0.156680	-0.731043	0.051205	0.004394	0.013055
872	4.366017	0.005000	8.484447	-0.174175	-4.473360	-0.011047	-0.157021	-0.731678	0.041137	0.008248	0.004886
873	4.371017	0.005000	8.436600	-0.285103	-4.490650	-0.011161	-0.157362	-0.732314	0.036393	0.002023	0.008211
874	4.376017	0.005000	8.443377	-0.196200	-4.512600	-0.011274	-0.157704	-0.732949	0.045618	0.004206	0.005533
875	4.381017	0.005000	8.475295	-0.117720	-4.591080	-0.011388	-0.158045	-0.733585	0.049089	0.002090	0.001049
876	4.386017	0.005000	8.436600	-0.080779	-4.554139	-0.011502	-0.158386	-0.734220	0.052803	0.004736	0.004242
877	4.391017	0.005000	8.407647	-0.235440	-4.533173	-0.011616	-0.158728	-0.734855	0.041048	0.012369	0.004202
878	4.396017	0.005000	8.366107	-0.156960	-4.434120	-0.011729	-0.159069	-0.735491	0.047963	0.008810	0.010581
879	4.401017	0.005000	8.405468	-0.167337	-4.481468	-0.011843	-0.159410	-0.736126	0.038387	0.002593	0.010515
880	4.406017	0.005000	8.489061	-0.248238	-4.512600	-0.011940	-0.159667	-0.736591	0.055258	0.004535	-0.002044
881	4.411017	0.005000	8.452665	-0.189090	-4.607145	-0.011940	-0.159440	-0.736083	0.047805	0.001618	0.000790
882	4.416017	0.005000	8.436600	-0.175869	-4.570749	-0.011940	-0.159212	-0.735575	0.056155	0.006860	0.002984
883	4.421017	0.005000	8.454299	-0.192357	-4.569539	-0.011940	-0.158984	-0.735067	0.061201	0.001627	0.006935
884	4.426017	0.005000	8.548224	-0.226424	-4.464344	-0.011940	-0.158757	-0.734558	0.053701	0.001527	0.003720
885	4.431017	0.005000	8.424332	-0.171664	-4.551840	-0.011940	-0.158529	-0.734050	0.060691	-0.004876	0.005633
886	4.436017	0.005000	8.436600	-0.087904	-4.542416	-0.011940	-0.158302	-0.733542	0.047816	0.002965	0.002518
887	4.441017	0.005000	8.462679	-0.189620	-4.486521	-0.011940	-0.158074	-0.733033	0.037071	0.011905	0.006503
888	4.446017	0.005000	8.322660	-0.164520	-4.630320	-0.011940	-0.157847	-0.732525	0.049726	-0.005112	0.003114
889	4.451017	0.005000	8.437946	-0.194854	-4.665521	-0.011940	-0.157619	-0.732017	0.051941	0.005106	0.001555
890	4.456017	0.005000	8.438098	-0.156960	-4.514098	-0.011940	-0.157391	-0.731508	0.054074	-0.006880	0.006121
891	4.461017	0.005000	8.449625	-0.204883	-4.538815	-0.011940	-0.157164	-0.731000	0.050787	-0.002856	0.005953
892	4.466017	0.005000	8.507895	-0.156960	-4.473360	-0.011940	-0.156936	-0.730492	0.053974	-0.006109	-0.005716
893	4.471017	0.005000	8.466280	-0.127280	-4.522160	-0.011947	-0.156723	-0.729984	0.061501	-0.000157	0.002114
894	4.476017	0.005000	8.422169	-0.092911	-4.514627	-0.012175	-0.156951	-0.729475	0.067904	0.001341	0.002666
895	4.481017	0.005000	8.397360	-0.141712	-4.639064	-0.012403	-0.157179	-0.728967	0.057011	-0.004583	0.002446
896	4.486017	0.005000	8.457748	-0.160016	-4.530692	-0.012630	-0.157406	-0.728458	0.044743	0.005287	-0.003120
897	4.491017	0.005000	8.397360	-0.136238	-4.572562	-0.012858	-0.157634	-0.727949	0.053741	0.000771	-0.002253
898	4.496017	0.005000	8.405861	-0.133634	-4.638821	-0.013086	-0.157862	-0.727441	0.047235	0.000250	0.002575
899	4.501017	0.005000	8.475840	-0.143860	-4.643390	-0.013313	-0.158089	-0.726932	0.047398	0.000893	-0.003621
900	4.506017	0.005000	8.368346	-0.167186	-4.589416	-0.013541	-0.158317	-0.726424	0.052566	-0.005070	0.013565
901	4.511017	0.005000	8.453426	-0.164431	-4.480831	-0.013769	-0.158545	-0.725915	0.046935	0.008043	-0.005741
902	4.516017	0.005000	8.402367	-0.161967	-4.581066	-0.013996	-0.158772	-0.725407	0.047087	-0.002413	0.011026
903	4.521017	0.005000	8.510754	-0.235440	-4.508274	-0.014224	-0.159000	-0.724898	0.051266	-0.005082	-0.000094
904	4.526017	0.005000	8.475159	-0.235440	-4.434120	-0.014452	-0.159228	-0.724390	0.073017	-0.000975	-0.006948
905	4.531017	0.005000	8.407934	-0.160485	-4.437645	-0.014680	-0.159456	-0.723881	0.062631	-0.000408	-0.003479
906	4.536017	0.005000	8.397360	-0.156960	-4.545471	-0.014907	-0.159683	-0.723373	0.048637	0.004509	-0.001182
907	4.541017	0.005000	8.427856	-0.196200	-4.530087	-0.015030	-0.161275	-0.723684	0.057561	-0.005199	0.005334
908	4.546017	0.005000	8.487427	-0.212265	-4.563427	-0.015144	-0.162982	-0.724066	0.052802	-0.003448	0.004603
909	4.551017	0.005000	8.426223	-0.156960	-4.609565	-0.015258	-0.164689	-0.724447	0.072666	-0.002732	-0.002910
910	4.556017	0.005000	8.340845	-0.156960	-4.551840	-0.015371	-0.166396	-0.724828	0.050960	0.003733	0.000083
911	4.561017	0.005000	8.397360	-0.176081	-4.610201	-0.015485	-0.168102	-0.725209	0.057138	-0.000380	0.004037
912	4.566017	0.005000	8.452877	-0.117720	-4.558526	-0.015599	-0.169809	-0.725590	0.054548	-0.001708	0.008331
913	4.571017	0.005000	8.422713	-0.168426	-4.498713	-0.015713	-0.171516	-0.725972	0.058361	-0.003178	0.006341
914	4.576017	0.005000	8.526123	-0.156960	-4.562883	-0.015827	-0.173223	-0.726353	0.055441	-0.005606	0.010119
915	4.581017	0.005000	8.537922	-0.125919	-4.496202	-0.015941	-0.174930	-0.726734	0.049813	0.000841	0.000115
916	4.586017	0.005000	8.368830	-0.185490	-4.512600	-0.016054	-0.176637	-0.727115	0.055699	-0.010003	0.004395
917	4.591017	0.005000	8.475840	-0.159471	-4.662027	-0.016168	-0.178344	-0.727496	0.054275	-0.012950	0.006200
918	4.596017	0.005000	8.357984	-0.157232	-4.591080	-0.016282	-0.180051	-0.727878	0.044273	-0.009373	-0.000015
919	4.601017	0.005000	8.355412	-0.162376	-4.664144	-0.016396	-0.181758	-0.728259	0.051157	-0.009435	0.009025
920	4.606017	0.005000	8.425497	-0.078480	-4.557392	-0.015960	-0.180624	-0.728947	0.036214	0.004905	0.000144
921	4.611017	0.005000	8.405756	-0.187804	-4.543444	-0.015391	-0.178803	-0.729709	0.071524	-0.007973	0.004181
922	4.616017	0.005000	8.397360	-0.235440	-4.535079	-0.014822	-0.176982	-0.730472	0.044215	-0.005274	0.004690
923	4.621017	0.005000	8.383730	-0.196200	-4.603061	-0.014253	-0.175162	-0.731234	0.052662	-0.002026	0.010826
924	4.626017	0.005000	8.403653	-0.196200	-4.545547	-0.013684	-0.173341	-0.731997	0.058838	-0.004060	0.007670
925	4.631017	0.005000	8.377437	-0.176277	-4.571763	-0.013115	-0.171520	-0.732759	0.041523	-0.003946	0.000425
926	4.636017	0.005000	8.453679	-0.156960	-4.534761	-0.012546	-0.169699	-0.733521	0.048374	-0.005513	0.004233
927	4.641017	0.005000	8.451007	-0.200181	-4.591080	-0.011977	-0.167879	-0.734284	0.054332	0.000753	0.010513
928	4.646017	0.005000	8.381839	-0.156960	-4.630320	-0.011408	-0.166058	-0.735046	0.060251	-0.000461	0.003871
929	4.651017	0.005000	8.457808	-0.165976	-4.473360	-0.010839	-0.164237	-0.735809	0.059712	-0.002742	0.009136
930	4.656017	0.005000	8.385016	-0.156960	-4.413396	-0.010270	-0.162417	-0.736571	0.053913	-0.002726	0.007502
931	4.661017	0.005000	8.325614	-0.232073	-4.587713	-0.009701	-0.160596	-0.737333	0.048810	-0.004759	0.008288
932	4.666017	0.005000	8.359058	-0.195262	-4.509786	-0.009132	-0.158775	-0.738096	0.055347	0.001176	-0.000506
933	4.671017	0.005000	8.360026	-0.194294	-4.506882	-0.008955	-0.158287	-0.738158	0.058725	-0.003082	0.001778
934	4.676017	0.005000	8.402110	-0.200950	-4.507850	-0.008955	-0.158401	-0.737904	0.048582	-0.003336	0.000315
935	4.681017	0.005000	8.397360	-0.164554	-4.615132	-0.008955	-0.158515	-0.737650	0.065052	-0.003180	0.000208
936	4.686017	0.005000	8.407798	-0.138596	-4.622393	-0.008955	-0.158628	-0.737396	0.056949	-0.001890	0.010629
937	4.691017	0.005000	8.265224	-0.039240	-4.578267	-0.008955	-0.158742	-0.737142	0.070429	-0.010879	-0.000861
938	4.696017	0.005000	8.287567	-0.164887	-4.622393	-0.008955	-0.158856	-0.736888	0.056478	-0.008133	0.007707
939	4.701017	0.005000	8.277401	-0.136221	-4.591080	-0.008955	-0.158970	-0.736634	0.053010	-0.006064	0.001873
940	4.706017	0.005000	8.336775	-0.174855	-4.587631	-0.008955	-0.159083	-0.736380	0.051618	-0.002295	-0.001371
941	4.711017	0.005000	8.358120	-0.220388	-4.606132	-0.008955	-0.159197	-0.736126	0.043074	0.003464	0.002403
942	4.716017	0.005000	8.331235	-0.181671	-4.657205	-0.008955	-0.159311	-0.735872	0.053248	0.007924	0.001997
943	4.721017	0.005000	8.309138	-0.156960	-4.620487	-0.008955	-0.159424	-0.735618	0.037734	-0.000986	0.011677
944	4.726017	0.005000	8.408645	-0.196200	-4.526578	-0.008955	-0.159538	-0.735364	0.040843	-0.000561	-0.003495
945	4.731017	0.005000	8.252835	-0.262245	-4.547695	-0.008955	-0.159652	-0.735110	0.047583	-0.000059	0.006258
946	4.736017	0.005000	8.320196	-0.194884	-4.631636	-0.009084	-0.159637	-0.734856	0.065931	-0.006067	0.005357
947	4.741017	0.005000	8.434422	-0.195111	-4.631409	-0.009311	-0.159523	-0.734602	0.055759	-0.002680	0.000881
948	4.746017	0.005000	8.405226	-0.200133	-4.708800	-0.009539	-0.159409	-0.734348	0.043107	0.003462	0.010756
949	4.751017	0.005000	8.404137	-0.189423	-4.669560	-0.009767	-0.159295	-0.734094	0.045913	0.003386	0.001488
950	4.756017	0.005000	8.397360	-0.255438	-4.699179	-0.009994	-0.159182	-0.733840	0.049964	0.003712	-0.005061
951	4.761017	0.005000	8.412318	-0.193383	-4.524741	-0.010222	-0.159068	-0.733586	0.058216	0.003086	0.005143
952	4.766017	0.005000	8.412200	-0.142120	-4.615480	-0.010449	-0.158954	-0.733331	0.073855	-0.005751	0.003047
953	4.771017	0.005000	8.336564	-0.213884	-4.626447	-0.010677	-0.158840	-0.733077	0.056667	0.000375	0.006033
954	4.776017	0.005000	8.317065	-0.117720	-4.572368	-0.010905	-0.158727	-0.732823	0.046773	-0.001599	0.004281
955	4.781017	0.005000	8.326383	-0.117720	-4.575212	-0.011132	-0.158613	-0.732569	0.044416	-0.000794	0.009894
956	4.786017	0.005000	8.397360	-0.052417	-4.538663	-0.011360	-0.158499	-0.732315	0.045739	-0.002252	0.001674
957	4.791017	0.005000	8.358120	-0.099749	-4.591080	-0.011587	-0.158385	-0.732061	0.061604	-0.003891	0.001231
958	4.796017	0.005000	8.350329	-0.125511	-4.661769	-0.011815	-0.158272	-0.731807	0.053390	0.004657	0.005987
959	4.801017	0.005000	8.358120	-0.161907	-4.615480	-0.011940	-0.158311	-0.731667	0.069453	-0.001520	0.007182
960	4.806017	0.005000	8.434497	-0.194097	-4.475463	-0.011940	-0.158539	-0.731667	0.057929	0.000543	0.013507
961	4.811017	0.005000	8.358861	-0.118461	-4.628096	-0.011940	-0.158767	-0.731667	0.035847	0.004226	0.011351
962	4.816017	0.005000	8.436600	-0.189892	-4.669560	-0.011940	-0.158994	-0.731667	0.053627	-0.004460	0.014342
963	4.821017	0.005000	8.397360	-0.123680	-4.642240	-0.011940	-0.159222	-0.731667	0.049248	0.003463	0.005339
964	4.826017	0.005000	8.388556	-0.165764	-4.621516	-0.011940	-0.159449	-0.731667	0.057523	-0.001874	0.014984
965	4.831017	0.005000	8.390008	-0.117720	-4.575136	-0.011940	-0.159677	-0.731667	0.043774	-0.006245	0.010481
966	4.836017	0.005000	8.411852	-0.167216	-4.630320	-0.011940	-0.159904	-0.731667	0.058164	-0.003238	0.016955
967	4.841017	0.005000	8.375456	-0.139624	-4.586512	-0.011940	-0.160132	-0.731667	0.048510	0.000744	0.020996
968	4.846017	0.005000	8.358120	-0.136780	-4.610140	-0.011940	-0.160360	-0.731667	0.052475	0.006422	0.013588
969	4.851017	0.005000	8.374336	-0.147551	-4.584273	-0.011940	-0.160587	-0.731667	0.062322	-0.002674	0.010952
970	4.856017	0.005000	8.371492	-0.026745	-4.565212	-0.011940	-0.160815	-0.731667	0.059796	0.006113	0.016943
971	4.861017	0.005000	8.300943	-0.196200	-4.662275	-0.011940	-0.161042	-0.731667	0.062085	-0.004226	0.007568
972	4.866017	0.005000	8.349982	-0.156960	-4.692523	-0.011940	-0.161042	-0.731625	0.062329	-0.001458	0.013066
973	4.871017	0.005000	8.392063	-0.156960	-4.664263	-0.011940	-0.160587	-0.731497	0.046125	0.011400	0.009885
974	4.876017	0.005000	8.434134	-0.156960	-4.635251	-0.011940	-0.160131	-0.731370	0.058815	0.005207	0.022062
975	4.881017	0.005000	8.358498	-0.156960	-4.631076	-0.011940	-0.159676	-0.731243	0.041767	0.005959	0.023788
976	4.886017	0.005000	8.397360	-0.120521	-4.563043	-0.011940	-0.159221	-0.731116	0.055637	-0.001316	0.011301
977	4.891017	0.005000	8.380523	-0.190588	-4.708800	-0.011940	-0.158765	-0.730989	0.056899	0.000394	0.009360
978	4.896017	0.005000	8.366576	-0.156960	-4.669560	-0.011940	-0.158310	-0.730862	0.053987	0.000746	0.009564
979	4.901017	0.005000	8.324220	-0.263380	-4.674900	-0.011940	-0.157855	-0.730735	0.059128	0.001204	0.014813
980	4.906017	0.005000	8.354928	-0.235440	-4.658608	-0.011940	-0.157399	-0.730607	0.037981	0.008466	0.002159
981	4.911017	0.005000	8.419612	-0.257692	-4.625056	-0.011940	-0.156944	-0.730480	0.068838	-0.008486	0.005588
982	4.916017	0.005000	8.456008	-0.195776	-4.532008	-0.011940	-0.156488	-0.730353	0.056031	0.005498	0.012690
983	4.921017	0.005000	8.442711	-0.202311	-4.613756	-0.011940	-0.156033	-0.730226	0.069438	0.002766	0.010262
984	4.926017	0.005000	8.368981	-0.235440	-4.626992	-0.011940	-0.155578	-0.730099	0.057681	0.011797	0.010805
985	4.931017	0.005000	8.346775	-0.156960	-4.597222	-0.011965	-0.155249	-0.729972	0.041546	-0.002209	0.013965
986	4.936017	0.005000	8.288141	-0.196200	-4.691797	-0.012079	-0.155363	-0.729845	0.046552	-0.006130	0.011037
987	4.941017	0.005000	8.296613	-0.156960	-4.574470	-0.012193	-0.155477	-0.729718	0.058434	-0.002628	0.000820
988	4.946017	0.005000	8.276826	-0.036426	-4.663933	-0.012307	-0.155590	-0.729591	0.060497	0.000260	-0.000494
989	4.951017	0.005000	8.280911	-0.078904	-4.629473	-0.012420	-0.155704	-0.729464	0.064421	-0.003007	0.006711
990	4.956017	0.005000	8.360540	-0.154540	-4.515020	-0.012534	-0.155818	-0.729336	0.069360	0.000281	0.003450
991	4.961017	0.005000	8.392096	-0.005264	-4.614527	-0.012648	-0.155932	-0.729209	0.069188	-0.000740	0.015850
992	4.966017	0.005000	8.389252	-0.086588	-4.582972	-0.012762	-0.156045	-0.729082	0.048354	0.006250	0.002298
993	4.971017	0.005000	8.436600	-0.163344	-4.715184	-0.012876	-0.156159	-0.728955	0.059269	0.003793	0.010041
994	4.976017	0.005000	8.413304	-0.182404	-4.708800	-0.012989	-0.156273	-0.728828	0.058708	0.005708	0.002895
995	4.981017	0.005000	8.358120	-0.196200	-4.676067	-0.013103	-0.156386	-0.728701	0.054998	0.002943	0.014032
996	4.986017	0.005000	8.339105	-0.158170	-4.650545	-0.013217	-0.156500	-0.728574	0.056494	0.007893	0.018076
997	4.991017	0.005000	8.419219	-0.174341	-4.630320	-0.013331	-0.156614	-0.728447	0.058612	0.006134	0.009593
998	4.996017	0.005000	8.411897	-0.122092	-4.644857	-0.013410	-0.156705	-0.728384	0.067200	0.002361	0.009583
999	5.001017	0.005000	8.307187	-0.223747	-4.724653	-0.013183	-0.156591	-0.728892	0.052400	0.011470	0.012896
1000	5.006017	0.005000	8.236558	-0.126569	-4.660711	-0.012955	-0.156477	-0.729401	0.055985	0.004099	0.018631
1001	5.011017	0.005000	8.424589	-0.229434	-4.591080	-0.012727	-0.156363	-0.729909	0.051842	-0.001316	0.014261
1002	5.016017	0.005000	8.400975	-0.199815	-4.633935	-0.012500	-0.156250	-0.730417	0.061394	0.005194	0.001469
1003	5.021017	0.005000	8.435829	-0.157731	-4.668017	-0.012272	-0.156136	-0.730926	0.056667	0.009677	0.014997
1004	5.026017	0.005000	8.397360	-0.233368	-4.591080	-0.012045	-0.156022	-0.731434	0.056878	0.004621	0.027460
1005	5.031017	0.005000	8.456175	-0.230524	-4.591080	-0.011817	-0.155908	-0.731942	0.059359	-0.003740	0.021054
1006	5.036017	0.005000	8.421079	-0.227680	-4.583320	-0.011589	-0.155795	-0.732450	0.047715	0.004209	0.022624
1007	5.041017	0.005000	8.436600	-0.285284	-4.669560	-0.011362	-0.155681	-0.732959	0.055968	0.006465	0.019283
1008	5.046017	0.005000	8.489288	-0.313920	-4.761488	-0.011134	-0.155567	-0.733467	0.043281	0.002938	0.027294
1009	5.051017	0.005000	8.420777	-0.298097	-4.646143	-0.010907	-0.155453	-0.733975	0.035623	0.005969	0.025931
1010	5.056017	0.005000	8.376787	-0.214867	-4.609747	-0.010679	-0.155340	-0.734484	0.046274	-0.006412	0.025039
1011	5.061017	0.005000	8.318880	-0.253169	-4.665778	-0.010452	-0.155226	-0.734992	0.052708	0.007354	0.015791
1012	5.066017	0.005000	8.255285	-0.289565	-4.630320	-0.010000	-0.155560	-0.735000	0.056356	0.005469	0.013747
1013	5.071017	0.005000	8.318880	-0.289837	-4.587964	-0.009545	-0.155901	-0.735000	0.044223	0.008543	0.016243
1014	5.076017	0.005000	8.358120	-0.256285	-4.630320	-0.009090	-0.156243	-0.735000	0.031768	0.010176	0.018672
1015	5.081017	0.005000	8.364942	-0.235440	-4.683205	-0.008635	-0.156584	-0.735000	0.031316	0.009822	0.019557
1016	5.086017	0.005000	8.310923	-0.235440	-4.748040	-0.008179	-0.156925	-0.735000	0.040056	0.015321	0.013122
1017	5.091017	0.005000	8.280775	-0.235440	-4.633724	-0.007724	-0.157267	-0.735000	0.043823	0.022515	0.003448
1018	5.096017	0.005000	8.243819	-0.272971	-4.710509	-0.007269	-0.157608	-0.735000	0.044359	0.024938	0.017920
1019	5.101017	0.005000	8.323433	-0.270127	-4.621213	-0.006814	-0.157949	-0.735000	0.029876	0.014416	0.009167
1020	5.106017	0.005000	8.382566	-0.179152	-4.669560	-0.006359	-0.158291	-0.735000	0.030703	0.012682	0.014966
1021	5.111017	0.005000	8.407601	-0.185959	-4.659319	-0.005904	-0.158632	-0.735000	0.039895	0.010701	0.016333
1022	5.116017	0.005000	8.384729	-0.183569	-4.525231	-0.005448	-0.158973	-0.735000	0.048332	0.007875	0.022301
1023	5.121017	0.005000	8.334355	-0.148670	-4.606555	-0.004993	-0.159315	-0.735000	0.018618	0.015764	0.029893
1024	5.126017	0.005000	8.460123	-0.159562	-4.533521	-0.004538	-0.159656	-0.735000	0.017475	0.002384	0.033068
1025	5.131017	0.005000	8.497003	-0.156960	-4.609157	-0.005070	-0.159405	-0.734779	0.022176	0.005276	0.032754
1026	5.136017	0.005000	8.397360	-0.117720	-4.630320	-0.005753	-0.159063	-0.734525	0.013011	0.007691	0.023276
1027	5.141017	0.005000	8.423742	-0.170484	-4.578222	-0.006436	-0.158722	-0.734271	0.034159	0.014403	0.031540
1028	5.146017	0.005000	8.466643	-0.088494	-4.561854	-0.007119	-0.158381	-0.734017	0.026699	0.021865	0.033966
1029	5.151017	0.005000	8.368679	-0.189030	-4.566181	-0.007801	-0.158040	-0.733763	0.030336	0.006713	0.036279
1030	5.156017	0.005000	8.318880	-0.200526	-4.630320	-0.008484	-0.157698	-0.733509	0.035356	0.017811	0.030576
1031	5.161017	0.005000	8.278158	-0.194718	-4.585150	-0.009167	-0.157357	-0.733255	0.043619	0.017448	0.032987
1032	5.166017	0.005000	8.316157	-0.194839	-4.509877	-0.009850	-0.157016	-0.733001	0.046348	0.017496	0.033405
1033	5.171017	0.005000	8.432395	-0.196200	-4.539224	-0.010532	-0.156674	-0.732747	0.036190	0.011826	0.027184
1034	5.176017	0.005000	8.501735	-0.117720	-4.571062	-0.011215	-0.156333	-0.732493	0.055145	0.009090	0.028376
1035	5.181017	0.005000	8.406799	-0.186761	-4.522039	-0.011898	-0.155992	-0.732238	0.043229	0.018434	0.030569
1036	5.186017	0.005000	8.318880	-0.130003	-4.603363	-0.012580	-0.155650	-0.731984	0.041069	0.008787	0.033560
1037	5.191017	0.005000	8.439444	-0.141833	-4.699814	-0.013263	-0.155309	-0.731730	0.035015	0.015553	0.035439
1038	5.196017	0.005000	8.436600	-0.135691	-4.651589	-0.014885	-0.156591	-0.730140	0.019809	0.012980	0.028385
1039	5.201017	0.005000	8.478230	-0.115330	-4.609505	-0.016819	-0.158411	-0.728108	0.044821	0.009848	0.033204
1040	5.206017	0.005000	8.436600	-0.173010	-4.717710	-0.018753	-0.160231	-0.726076	0.039453	0.007819	0.024212
1041	5.211017	0.005000	8.371326	-0.117720	-4.668804	-0.020686	-0.162050	-0.724044	0.057054	0.005173	0.030154
1042	5.216017	0.005000	8.386998	-0.165114	-4.582926	-0.022620	-0.163870	-0.722012	0.045181	0.010630	0.032235
1043	5.221017	0.005000	8.302195	-0.149442	-4.622802	-0.024553	-0.165690	-0.719980	0.035970	0.010261	0.038874
1044	5.226017	0.005000	8.323554	-0.156960	-4.655537	-0.026487	-0.167510	-0.717948	0.046972	0.004000	0.033483
1045	5.231017	0.005000	8.285131	-0.160621	-4.518091	-0.028420	-0.169329	-0.715915	0.046610	0.016008	0.031853
1046	5.236017	0.005000	8.397360	-0.235440	-4.707698	-0.030354	-0.171149	-0.713883	0.051729	0.006044	0.033013
1047	5.241017	0.005000	8.358120	-0.196200	-4.591080	-0.032287	-0.172969	-0.711851	0.044564	0.008639	0.024571
1048	5.246017	0.005000	8.331345	-0.163192	-4.558072	-0.034221	-0.174789	-0.709819	0.042990	0.004810	0.024283
1049	5.251017	0.005000	8.400295	-0.226364	-4.551840	-0.036154	-0.176608	-0.707787	0.032892	0.013703	0.023073
1050	5.256017	0.005000	8.370040	-0.192721	-4.473360	-0.038088	-0.178428	-0.705755	0.034726	0.009176	0.027502
1051	5.261017	0.005000	8.372884	-0.196200	-4.542128	-0.038591	-0.179032	-0.705160	0.047953	0.008247	0.022907
1052	5.266017	0.005000	8.375274	-0.174114	-4.600943	-0.038250	-0.178919	-0.705414	0.044727	0.017226	0.031058
1053	5.271017	0.005000	8.397360	-0.156960	-4.591836	-0.037908	-0.178805	-0.705668	0.045974	0.006308	0.028528
1054	5.276017	0.005000	8.335278	-0.150516	-4.551840	-0.037567	-0.178691	-0.705922	0.046215	0.009286	0.020769
1055	5.281017	0.005000	8.383806	-0.155538	-4.578948	-0.037225	-0.178577	-0.706177	0.050091	0.006238	0.029828
1056	5.286017	0.005000	8.458020	-0.178380	-4.551840	-0.036883	-0.178463	-0.706431	0.043129	0.001895	0.033072
1057	5.291017	0.005000	8.436600	-0.196200	-4.598946	-0.036542	-0.178350	-0.706685	0.047506	-0.003640	0.012514
1058	5.296017	0.005000	8.397360	-0.127764	-4.635342	-0.036200	-0.178236	-0.706939	0.058999	-0.006842	0.020408
1059	5.301017	0.005000	8.245695	-0.196200	-4.559782	-0.035859	-0.178122	-0.707194	0.060271	0.004051	0.018196
1060	5.306017	0.005000	8.279837	-0.196200	-4.630517	-0.035517	-0.178008	-0.707448	0.051791	0.007130	0.022739
1061	5.311017	0.005000	8.433559	-0.036199	-4.512600	-0.035176	-0.177894	-0.707702	0.043184	0.001258	0.024443
1062	5.316017	0.005000	8.542551	-0.139307	-4.545956	-0.034834	-0.177781	-0.707956	0.055759	-0.000659	0.006060
1063	5.321017	0.005000	8.266585	-0.178743	-4.582352	-0.034492	-0.177667	-0.708211	0.055960	-0.000768	0.012654
1064	5.326017	0.005000	8.295735	-0.207772	-4.591080	-0.033620	-0.177140	-0.709123	0.066331	-0.000960	0.001457
1065	5.331017	0.005000	8.368528	-0.156960	-4.615904	-0.032255	-0.176230	-0.710648	0.071784	0.003243	0.006170
1066	5.336017	0.005000	8.348681	-0.117720	-4.525140	-0.030889	-0.175320	-0.712173	0.044855	-0.001262	0.009510
1067	5.341017	0.005000	8.318880	-0.097616	-4.591080	-0.029524	-0.174409	-0.713698	0.066408	-0.004809	-0.000839
1068	5.346017	0.005000	8.302588	-0.156960	-4.607372	-0.028158	-0.173499	-0.715223	0.072563	0.003300	0.004242
1069	5.351017	0.005000	8.358120	-0.234336	-4.602320	-0.026793	-0.172589	-0.716747	0.057667	0.007109	0.003146
1070	5.356017	0.005000	8.340337	-0.206928	-4.555513	-0.025427	-0.171678	-0.718272	0.067117	-0.003224	0.007756
1071	5.361017	0.005000	8.366334	-0.187986	-4.599294	-0.024062	-0.170768	-0.719797	0.063780	0.005198	0.002923
1072	5.366017	0.005000	8.363490	-0.201570	-4.557210	-0.022697	-0.169858	-0.721322	0.066533	0.003170	0.006590
1073	5.371017	0.005000	8.323932	-0.269628	-4.596132	-0.021331	-0.168947	-0.722847	0.057617	0.006634	0.007427
1074	5.376017	0.005000	8.436282	-0.196200	-4.630638	-0.019966	-0.168037	-0.724371	0.070482	0.003210	0.007491
1075	5.381017	0.005000	8.436600	-0.154235	-4.672285	-0.018600	-0.167127	-0.725896	0.060525	-0.007440	0.007343
1076	5.386017	0.005000	8.447673	-0.196200	-4.664023	-0.017235	-0.166217	-0.727421	0.047392	-0.004014	-0.001287
1077	5.391017	0.005000	8.397360	-0.086860	-4.529361	-0.016555	-0.165443	-0.728282	0.080268	-0.014422	-0.002008
1078	5.396017	0.005000	8.408584	-0.145736	-4.635887	-0.016897	-0.164874	-0.728155	0.059406	-0.000018	0.006376
1079	5.401017	0.005000	8.293708	-0.171028	-4.652527	-0.017238	-0.164305	-0.728028	0.069192	-0.008060	0.002934
1080	5.406017	0.005000	8.335323	-0.124073	-4.686003	-0.017579	-0.163736	-0.727901	0.069918	-0.006720	0.001798
1081	5.411017	0.005000	8.299593	-0.255393	-4.630320	-0.017921	-0.163167	-0.727774	0.056036	-0.000561	-0.002342
1082	5.416017	0.005000	8.301771	-0.235440	-4.596102	-0.018262	-0.162598	-0.727647	0.072180	-0.004453	0.006641
1083	5.421017	0.005000	8.347410	-0.196200	-4.580370	-0.018604	-0.162029	-0.727520	0.066878	-0.001380	0.006433
1084	5.426017	0.005000	8.330301	-0.156960	-4.680981	-0.018945	-0.161461	-0.727393	0.071481	-0.002226	0.011857
1085	5.431017	0.005000	8.271063	-0.218286	-4.669560	-0.019286	-0.160892	-0.727266	0.059211	-0.000661	0.004621
