# FOX Logger (IMU file)
# (c) INRIA 2011-2014
# File created from file sensbiotk output
#
# File format:
# id	t	dt	ax	ay	az	mx	my	mz	gx	gy	gz
#
# Units:
#	Time: s
#	Acceleration: m.s^-2
#	Magneto: gauss
#	Gyrometer: rad/s
#
1	0.026062	0.026062	9.487775	1.530360	1.734865	0.489552	-0.185075	-0.313333	-0.030543	-0.092406	-0.016926
2	0.031062	0.005000	9.467535	1.469730	1.648080	0.489218	-0.185632	-0.313831	-0.048072	-0.081772	-0.021538
3	0.036062	0.005000	9.587344	1.491120	1.713332	0.488883	-0.186190	-0.314329	-0.042822	-0.084580	-0.016599
4	0.041062	0.005000	9.527362	1.577558	1.742201	0.488549	-0.186747	-0.314827	-0.046216	-0.084674	-0.015961
5	0.046062	0.005000	9.496080	1.615117	1.630029	0.488214	-0.187305	-0.315325	-0.037017	-0.071699	-0.016250
6	0.051062	0.005000	9.454722	1.610958	1.551039	0.487880	-0.187862	-0.315823	-0.035354	-0.068163	-0.011994
7	0.056062	0.005000	9.496080	1.514189	1.648080	0.487545	-0.188420	-0.316322	-0.046121	-0.063593	-0.018949
8	0.061062	0.005000	9.546968	1.530360	1.595044	0.487211	-0.188977	-0.316820	-0.045592	-0.066731	-0.022931
9	0.066062	0.005000	9.530298	1.479714	1.620246	0.486876	-0.189535	-0.317318	-0.044489	-0.059773	-0.023781
10	0.071062	0.005000	9.662071	1.512298	1.548422	0.486542	-0.190092	-0.317816	-0.047600	-0.056439	-0.012478
11	0.076062	0.005000	9.731520	1.542879	1.569600	0.486207	-0.190650	-0.318314	-0.052536	-0.057299	-0.011667
12	0.081062	0.005000	9.617643	1.491120	1.534203	0.485873	-0.191207	-0.318812	-0.066478	-0.050171	-0.013265
13	0.086062	0.005000	9.654479	1.568161	1.648080	0.485538	-0.191765	-0.319310	-0.066352	-0.047708	-0.000852
14	0.091062	0.005000	9.539132	1.492073	1.609793	0.485204	-0.192322	-0.319808	-0.062163	-0.056663	-0.014265
15	0.096062	0.005000	9.728177	1.605497	1.579629	0.485006	-0.192194	-0.319540	-0.066500	-0.045851	0.005742
16	0.101062	0.005000	9.692280	1.754364	1.558164	0.484895	-0.191636	-0.318793	-0.066595	-0.042759	0.006728
17	0.106062	0.005000	9.582763	1.774003	1.584231	0.484783	-0.191079	-0.318045	-0.070787	-0.046163	0.001220
18	0.111062	0.005000	9.603190	1.719150	1.619450	0.484672	-0.190521	-0.317298	-0.062526	-0.033860	0.020597
19	0.116062	0.005000	9.653040	1.818064	1.595816	0.484560	-0.189963	-0.316551	-0.058257	-0.030059	-0.002601
20	0.121062	0.005000	9.526945	1.820473	1.514927	0.484448	-0.189405	-0.315803	-0.054046	-0.031996	0.017475
21	0.126062	0.005000	9.463941	1.844280	1.587445	0.484337	-0.188848	-0.315056	-0.057365	-0.025230	0.015376
22	0.131062	0.005000	9.438082	1.765800	1.586633	0.484225	-0.188290	-0.314308	-0.031642	-0.020180	0.011733
23	0.136062	0.005000	9.456840	1.710177	1.742943	0.484114	-0.187732	-0.313561	-0.012431	-0.011912	0.017929
24	0.141062	0.005000	9.484825	1.684582	1.872265	0.484002	-0.187174	-0.312813	-0.003489	-0.009318	0.005411
25	0.146062	0.005000	9.484462	1.541978	1.922760	0.483890	-0.186617	-0.312066	0.006614	-0.010088	0.011467
26	0.151062	0.005000	9.496080	1.521484	1.962000	0.483779	-0.186059	-0.311318	0.022674	-0.000493	0.008270
27	0.156062	0.005000	9.476223	1.471737	1.955539	0.483667	-0.185501	-0.310571	0.047342	0.001386	0.014026
28	0.161062	0.005000	9.653040	1.487064	1.864558	0.483556	-0.185075	-0.310059	0.050030	-0.001246	0.015064
29	0.166062	0.005000	9.617076	1.530360	2.084635	0.483444	-0.185075	-0.310308	0.058891	0.006695	0.000379
30	0.171062	0.005000	9.653796	1.568844	2.158956	0.483333	-0.185075	-0.310557	0.084250	0.005842	0.018762
31	0.176062	0.005000	9.538503	1.412640	2.197440	0.483221	-0.185075	-0.310807	0.089469	0.000986	-0.000609
32	0.181062	0.005000	9.653040	1.350925	2.264744	0.483109	-0.185075	-0.311056	0.090373	-0.003403	0.009206
33	0.186062	0.005000	9.605808	1.255680	2.416896	0.482998	-0.185075	-0.311305	0.093134	0.001018	0.003405
34	0.191062	0.005000	9.642633	1.177200	2.383233	0.482886	-0.185075	-0.311554	0.097705	-0.012217	0.006346
35	0.196062	0.005000	9.573764	1.255680	2.498545	0.482775	-0.185075	-0.311803	0.087728	-0.025114	0.014984
36	0.201062	0.005000	9.622029	1.342389	2.543324	0.482663	-0.185075	-0.312053	0.079546	-0.030173	0.006302
37	0.206062	0.005000	9.631695	1.334160	2.454225	0.482552	-0.185075	-0.312302	0.097576	-0.030896	0.011114
38	0.211062	0.005000	9.615101	1.255680	2.451850	0.482440	-0.185075	-0.312551	0.091148	-0.026990	0.002673
39	0.216062	0.005000	9.564062	1.261761	2.438961	0.482328	-0.185075	-0.312800	0.088829	-0.045219	-0.003908
40	0.221062	0.005000	9.549524	1.348364	2.379436	0.482217	-0.185075	-0.313050	0.077924	-0.054323	0.001135
41	0.226062	0.005000	9.539117	1.349771	2.366214	0.482105	-0.185075	-0.313299	0.071589	-0.067053	-0.004915
42	0.231062	0.005000	9.514959	1.246241	2.374761	0.481994	-0.185268	-0.312258	0.060418	-0.070252	0.000873
43	0.236062	0.005000	9.481981	1.309019	2.432880	0.481882	-0.185491	-0.311013	0.039738	-0.075478	-0.012462
44	0.241062	0.005000	9.383034	1.329486	2.388966	0.481771	-0.185714	-0.309768	0.040376	-0.089080	-0.004787
45	0.246062	0.005000	9.382064	1.263087	2.313308	0.481659	-0.185937	-0.308523	0.018374	-0.101136	-0.001479
46	0.251062	0.005000	9.534201	1.335279	2.314600	0.481548	-0.186160	-0.307278	0.015037	-0.115521	-0.005870
47	0.256062	0.005000	9.493570	1.344200	2.202460	0.481436	-0.186383	-0.306033	0.006229	-0.111479	-0.010444
48	0.261062	0.005000	9.412275	1.401990	2.231355	0.481324	-0.186606	-0.304787	-0.010757	-0.126561	-0.015722
49	0.266062	0.005000	9.519920	1.420340	2.165900	0.481213	-0.186829	-0.303542	-0.015862	-0.143298	-0.005488
50	0.271062	0.005000	9.506170	1.431700	2.178380	0.481101	-0.187052	-0.302297	-0.020539	-0.136080	-0.018434
51	0.276062	0.005000	9.588870	1.478655	2.131425	0.480990	-0.187275	-0.301052	-0.022157	-0.156880	-0.010876
52	0.281062	0.005000	9.677440	1.500680	2.143360	0.480878	-0.187498	-0.299807	-0.013266	-0.152968	-0.011474
53	0.286062	0.005000	9.635810	1.469110	2.170650	0.480767	-0.187721	-0.298562	-0.011128	-0.154983	-0.019634
54	0.291062	0.005000	9.633435	1.471485	2.217105	0.480655	-0.187944	-0.297317	-0.011773	-0.170500	-0.010628
55	0.296062	0.005000	9.596555	1.547605	2.062475	0.480597	-0.187953	-0.296905	-0.019915	-0.178404	-0.021463
56	0.301062	0.005000	9.510950	1.505990	1.917390	0.480597	-0.187730	-0.297404	-0.028630	-0.172763	0.000164
57	0.306062	0.005000	9.587040	1.505400	1.937040	0.480597	-0.187507	-0.297902	-0.033718	-0.167254	-0.018041
58	0.311062	0.005000	9.653040	1.491120	1.922760	0.480597	-0.187284	-0.298400	-0.048715	-0.183800	-0.000213
59	0.316062	0.005000	9.763414	1.537706	1.939962	0.480597	-0.187061	-0.298898	-0.035984	-0.182365	-0.006897
60	0.321062	0.005000	9.697210	1.559740	1.805040	0.480597	-0.186838	-0.299397	-0.026747	-0.187025	-0.016661
61	0.326062	0.005000	9.653040	1.461981	1.878470	0.480597	-0.186615	-0.299895	-0.026670	-0.198276	-0.006821
62	0.331062	0.005000	9.574453	1.569493	1.805040	0.480597	-0.186392	-0.300393	-0.022760	-0.193485	-0.005864
63	0.336062	0.005000	9.535320	1.530360	1.731098	0.480597	-0.186168	-0.300891	-0.029412	-0.212645	-0.009641
64	0.341062	0.005000	9.466158	1.599522	1.574259	0.480597	-0.185945	-0.301390	-0.039674	-0.202574	-0.010060
65	0.346062	0.005000	9.424634	1.694354	1.523326	0.480597	-0.185722	-0.301888	-0.042076	-0.201999	-0.017785
66	0.351062	0.005000	9.348544	1.657504	1.599416	0.480597	-0.185499	-0.302386	-0.036386	-0.203844	-0.003770
67	0.356062	0.005000	9.339120	1.569600	1.515004	0.480597	-0.185276	-0.302884	-0.044675	-0.203920	-0.018683
68	0.361062	0.005000	9.378360	1.583955	1.451880	0.480530	-0.185119	-0.303296	-0.042650	-0.199226	-0.005723
69	0.366062	0.005000	9.333409	1.563889	1.502541	0.479861	-0.185566	-0.302922	-0.040228	-0.187626	-0.005115
70	0.371062	0.005000	9.398432	1.569600	1.509385	0.479192	-0.186012	-0.302548	-0.030315	-0.179234	-0.006857
71	0.376062	0.005000	9.435261	1.551939	1.455798	0.478522	-0.186458	-0.302175	-0.031474	-0.175029	-0.000323
72	0.381062	0.005000	9.480831	1.663329	1.334160	0.477853	-0.186904	-0.301801	-0.027176	-0.165935	-0.011194
73	0.386062	0.005000	9.548012	1.856972	1.321468	0.477184	-0.187350	-0.301427	-0.023003	-0.164862	-0.003764
74	0.391062	0.005000	9.477443	1.705957	1.449913	0.476514	-0.187797	-0.301054	-0.011768	-0.152726	0.001704
75	0.396062	0.005000	9.605873	1.742020	1.247753	0.475845	-0.188243	-0.300680	-0.006850	-0.155466	-0.000130
76	0.401062	0.005000	9.540857	1.586210	1.221977	0.475176	-0.188689	-0.300306	-0.010759	-0.152173	0.001872
77	0.406062	0.005000	9.616962	1.648080	1.243034	0.474506	-0.189135	-0.299932	-0.006170	-0.150365	0.003862
78	0.411062	0.005000	9.652269	1.685777	1.060251	0.473837	-0.189582	-0.299559	-0.000952	-0.147802	0.012446
79	0.416062	0.005000	9.651417	1.646457	1.098720	0.473168	-0.190028	-0.299185	0.011364	-0.133950	0.003981
80	0.421062	0.005000	9.762679	1.616921	1.129879	0.472498	-0.190474	-0.298811	0.014952	-0.124381	0.001264
81	0.426062	0.005000	9.764314	1.576046	1.177200	0.471829	-0.190920	-0.298437	0.017265	-0.115498	0.003137
82	0.431062	0.005000	9.735315	1.469602	1.186061	0.471642	-0.190563	-0.298602	0.028032	-0.110366	-0.003262
83	0.436062	0.005000	9.609368	1.396605	1.110323	0.471642	-0.189893	-0.298976	0.032469	-0.111913	0.014284
84	0.441062	0.005000	9.613800	1.451880	1.149245	0.471642	-0.189224	-0.299350	0.035435	-0.101514	0.009841
85	0.446062	0.005000	9.613800	1.458385	1.255680	0.471642	-0.188555	-0.299723	0.022908	-0.096581	0.005001
86	0.451062	0.005000	9.472073	1.371645	1.195943	0.471642	-0.187885	-0.300097	0.015139	-0.089208	-0.001609
87	0.456062	0.005000	9.357234	1.370389	1.252669	0.471642	-0.187216	-0.300471	0.006740	-0.096339	0.009295
88	0.461062	0.005000	9.488305	1.412640	1.318428	0.471642	-0.186547	-0.300845	0.002393	-0.085395	0.010437
89	0.466062	0.005000	9.521963	1.491120	1.254848	0.471642	-0.185877	-0.301218	-0.001990	-0.086369	0.003325
90	0.471062	0.005000	9.496080	1.508426	1.144298	0.471642	-0.185208	-0.301592	-0.014625	-0.088171	0.017650
91	0.476062	0.005000	9.504302	1.482898	1.051258	0.471642	-0.184539	-0.301966	-0.016662	-0.067180	0.011319
92	0.481062	0.005000	9.456840	1.451880	1.026056	0.471642	-0.183869	-0.302339	-0.021875	-0.071818	0.007323
93	0.486062	0.005000	9.453441	1.530360	1.102119	0.471642	-0.183200	-0.302713	-0.022886	-0.063203	0.007530
94	0.491062	0.005000	9.535320	1.567610	1.215445	0.471642	-0.182531	-0.303087	-0.026977	-0.059230	-0.005498
95	0.496062	0.005000	9.497487	1.453287	1.139367	0.471756	-0.182280	-0.303248	-0.010883	-0.060539	0.007102
96	0.501062	0.005000	9.535320	1.412640	1.094892	0.472091	-0.182838	-0.302999	-0.021503	-0.040500	0.005193
97	0.506062	0.005000	9.580804	1.307408	1.137960	0.472425	-0.183395	-0.302750	-0.016686	-0.045397	0.005468
98	0.511062	0.005000	9.426250	1.382050	1.137960	0.472760	-0.183953	-0.302501	-0.025329	-0.031140	0.000927
99	0.516062	0.005000	9.467905	1.384465	1.177200	0.473094	-0.184510	-0.302252	-0.025765	-0.030925	0.007022
100	0.521062	0.005000	9.339120	1.451880	1.293741	0.473429	-0.185068	-0.302003	-0.017280	-0.019868	0.009945
101	0.526062	0.005000	9.316036	1.498048	1.209512	0.473763	-0.185625	-0.301754	-0.010377	-0.011716	0.000242
102	0.531062	0.005000	9.339120	1.511814	1.255680	0.474098	-0.186183	-0.301505	-0.001723	-0.011808	0.012523
103	0.536062	0.005000	9.438521	1.491120	1.237361	0.474432	-0.186740	-0.301256	-0.005323	0.001448	-0.002565
104	0.541062	0.005000	9.472769	1.380782	1.193129	0.474767	-0.187298	-0.301007	-0.006221	-0.007198	-0.010268
105	0.546062	0.005000	9.404357	1.334160	1.242437	0.475101	-0.187855	-0.300758	0.000907	0.000956	0.006346
106	0.551062	0.005000	9.567839	1.373400	1.273241	0.475436	-0.188413	-0.300509	0.003880	0.008219	0.005407
107	0.556062	0.005000	9.549262	1.530360	1.334160	0.475770	-0.188970	-0.300260	0.011276	0.014997	-0.004825
108	0.561062	0.005000	9.619817	1.551549	1.406623	0.476104	-0.189528	-0.300011	0.013701	0.019085	-0.003172
109	0.566062	0.005000	9.578130	1.491120	1.380540	0.475266	-0.191152	-0.296903	0.017351	0.008452	0.004946
110	0.571062	0.005000	9.498440	1.451880	1.375760	0.474374	-0.192825	-0.293666	0.007940	0.030720	-0.004798
111	0.576062	0.005000	9.574560	1.413850	1.375819	0.473482	-0.194497	-0.290428	0.002668	0.015935	-0.007632
112	0.581062	0.005000	9.617427	1.409013	1.487493	0.472590	-0.196170	-0.287191	0.011301	0.018842	0.002956
113	0.586062	0.005000	9.480969	1.406608	1.457912	0.471697	-0.197843	-0.283953	0.010471	0.023421	-0.009494
114	0.591062	0.005000	9.496080	1.381848	1.412640	0.470805	-0.199515	-0.280716	0.011242	0.025417	0.000650
115	0.596062	0.005000	9.439988	1.435149	1.390252	0.469913	-0.201188	-0.277478	-0.008903	0.034181	-0.013187
116	0.601062	0.005000	9.416133	1.479018	1.465449	0.469021	-0.202860	-0.274241	-0.010401	0.029069	-0.004522
117	0.606062	0.005000	9.581882	1.523038	1.451880	0.468129	-0.204533	-0.271004	-0.013868	0.035646	0.008376
118	0.611062	0.005000	9.572432	1.493248	1.491120	0.467237	-0.206206	-0.267766	-0.011049	0.037089	-0.002981
119	0.616062	0.005000	9.692280	1.551327	1.566906	0.466345	-0.207878	-0.264529	0.007794	0.031748	0.009665
120	0.621062	0.005000	9.621317	1.546221	1.608840	0.465453	-0.209551	-0.261291	0.011892	0.039668	-0.021972
121	0.626062	0.005000	9.509532	1.492237	1.687320	0.464561	-0.211223	-0.258054	0.004861	0.031309	-0.010491
122	0.631062	0.005000	9.546359	1.429803	1.569600	0.464115	-0.211749	-0.258091	0.015136	0.034198	-0.005031
123	0.636062	0.005000	9.574560	1.482588	1.578132	0.464004	-0.211414	-0.260583	0.005061	0.028142	-0.011408
124	0.641062	0.005000	9.456840	1.406498	1.701993	0.463892	-0.211079	-0.263074	0.007909	0.031485	-0.006266
125	0.646062	0.005000	9.574560	1.334160	1.537893	0.463781	-0.210745	-0.265565	-0.002491	0.037108	-0.022750
126	0.651062	0.005000	9.574560	1.296312	1.531752	0.463669	-0.210410	-0.268057	0.002962	0.030895	-0.012916
127	0.656062	0.005000	9.574560	1.295930	1.722520	0.463558	-0.210076	-0.270548	0.006655	0.036832	-0.015417
128	0.661062	0.005000	9.688438	1.412640	1.655765	0.463446	-0.209741	-0.273040	0.011861	0.028797	-0.016482
129	0.666062	0.005000	9.586995	1.406423	1.740931	0.463335	-0.209406	-0.275531	0.014900	0.021380	-0.021011
130	0.671062	0.005000	9.653040	1.390816	1.726560	0.463223	-0.209072	-0.278023	0.003994	0.025351	-0.015039
131	0.676062	0.005000	9.596525	1.480138	1.822315	0.463112	-0.208737	-0.280514	0.008926	0.015946	-0.003207
132	0.681062	0.005000	9.613800	1.412640	1.779172	0.463000	-0.208402	-0.283006	0.007638	0.016185	-0.014047
133	0.686062	0.005000	9.606055	1.467627	1.703067	0.462889	-0.208068	-0.285497	0.017490	0.010521	0.001515
134	0.691062	0.005000	9.613800	1.451880	1.765800	0.462777	-0.207733	-0.287988	0.015538	0.013971	-0.007502
135	0.696062	0.005000	9.556081	1.488839	1.846561	0.462773	-0.207356	-0.289976	0.002865	-0.001079	-0.010399
136	0.701062	0.005000	9.583528	1.592771	1.765800	0.463219	-0.206798	-0.289851	-0.001304	-0.005443	-0.000222
137	0.706062	0.005000	9.613800	1.636153	1.764070	0.463665	-0.206240	-0.289727	0.005684	-0.001585	-0.013914
138	0.711062	0.005000	9.569066	1.620089	1.676071	0.464111	-0.205683	-0.289602	0.019974	-0.002742	-0.007794
139	0.716062	0.005000	9.574560	1.656808	1.656808	0.464557	-0.205125	-0.289478	0.015990	0.001734	-0.012588
140	0.721062	0.005000	9.489727	1.648080	1.615193	0.465003	-0.204568	-0.289353	0.005803	-0.018419	-0.011626
141	0.726062	0.005000	9.492117	1.569600	1.761837	0.465449	-0.204010	-0.289229	0.014434	-0.007085	-0.013689
142	0.731062	0.005000	9.420777	1.685732	1.723383	0.465895	-0.203453	-0.289104	0.013013	-0.010093	-0.011950
143	0.736062	0.005000	9.534509	1.571222	1.724938	0.466341	-0.202895	-0.288980	0.000750	-0.025871	-0.003363
144	0.741062	0.005000	9.538534	1.569600	1.801826	0.466787	-0.202338	-0.288855	-0.003236	-0.012852	-0.006966
145	0.746062	0.005000	9.468078	1.491120	1.726560	0.467233	-0.201780	-0.288731	-0.000612	-0.013742	0.002438
146	0.751062	0.005000	9.434391	1.521964	1.726560	0.467679	-0.201222	-0.288606	0.002138	-0.019958	-0.007809
147	0.756062	0.005000	9.502963	1.562717	1.698106	0.468125	-0.200665	-0.288482	0.007587	-0.020086	-0.001710
148	0.761062	0.005000	9.587721	1.634677	1.556923	0.468571	-0.200107	-0.288357	-0.003223	-0.022959	0.004744
149	0.766062	0.005000	9.582698	1.577738	1.482982	0.469287	-0.199370	-0.289238	-0.012593	-0.026738	-0.004957
150	0.771062	0.005000	9.571172	1.626766	1.512434	0.470068	-0.198589	-0.290359	-0.008888	-0.035047	0.016661
151	0.776062	0.005000	9.574560	1.588524	1.568208	0.470848	-0.197808	-0.291479	-0.013161	-0.028223	-0.000124
152	0.781062	0.005000	9.630349	1.602698	1.586149	0.471629	-0.197028	-0.292600	-0.016421	-0.039947	0.005470
153	0.786062	0.005000	9.560401	1.569600	1.552204	0.472409	-0.196247	-0.293721	-0.012120	-0.028831	0.017759
154	0.791062	0.005000	9.586344	1.608840	1.463664	0.473190	-0.195467	-0.294841	-0.013677	-0.031566	0.006175
155	0.796062	0.005000	9.583954	1.618234	1.519302	0.473970	-0.194686	-0.295962	-0.009095	-0.037606	0.021479
156	0.801062	0.005000	9.613800	1.573745	1.516322	0.474751	-0.193906	-0.297083	-0.007999	-0.036250	0.005476
157	0.806062	0.005000	9.609171	1.451880	1.495749	0.475531	-0.193125	-0.298203	-0.014795	-0.038772	0.009734
158	0.811062	0.005000	9.572753	1.455493	1.562374	0.476312	-0.192344	-0.299324	-0.002464	-0.034805	0.011589
159	0.816062	0.005000	9.496670	1.453060	1.412640	0.477092	-0.191564	-0.300445	-0.001100	-0.032218	0.008741
160	0.821062	0.005000	9.526380	1.454860	1.488140	0.477873	-0.190783	-0.301565	-0.004843	-0.023108	0.021883
161	0.826062	0.005000	9.613800	1.334160	1.457235	0.478653	-0.190003	-0.302686	0.005143	-0.019323	0.000241
162	0.831062	0.005000	9.598340	1.404910	1.310380	0.478915	-0.189552	-0.303175	0.002448	-0.014614	0.003937
163	0.836062	0.005000	9.691040	1.441760	1.421520	0.478469	-0.189552	-0.302801	-0.003371	-0.006042	-0.004125
164	0.841062	0.005000	9.613800	1.425135	1.437630	0.478023	-0.189552	-0.302428	0.007977	-0.016493	0.004885
165	0.846062	0.005000	9.613800	1.421761	1.379338	0.477577	-0.189552	-0.302054	-0.000503	-0.012415	0.017368
166	0.851062	0.005000	9.487476	1.465047	1.355931	0.477131	-0.189552	-0.301680	0.000029	-0.020045	0.016438
167	0.856062	0.005000	9.534800	1.412120	1.334160	0.476684	-0.189552	-0.301306	0.000567	-0.012827	0.015185
168	0.861062	0.005000	9.529977	1.395692	1.424245	0.476238	-0.189552	-0.300933	-0.011713	-0.008670	0.002549
169	0.866062	0.005000	9.613800	1.387939	1.373400	0.475792	-0.189552	-0.300559	-0.018547	-0.013229	0.004805
170	0.871062	0.005000	9.535320	1.397651	1.388389	0.475346	-0.189552	-0.300185	-0.031933	-0.011871	0.006757
171	0.876062	0.005000	9.584645	1.520642	1.412640	0.474899	-0.189552	-0.299812	-0.026169	0.001701	0.002408
172	0.881062	0.005000	9.567257	1.476514	1.373400	0.474453	-0.189552	-0.299438	-0.021153	0.001467	0.011941
173	0.886062	0.005000	9.491239	1.422321	1.373400	0.474007	-0.189552	-0.299064	-0.021075	0.002021	0.010298
174	0.891062	0.005000	9.461741	1.488669	1.336611	0.473561	-0.189552	-0.298690	-0.018186	-0.004965	0.013387
175	0.896062	0.005000	9.456764	1.451956	1.491196	0.473139	-0.189542	-0.298338	-0.018220	0.005175	0.010398
176	0.901062	0.005000	9.528295	1.454222	1.493462	0.473250	-0.189319	-0.298463	-0.004048	0.005959	0.004864
177	0.906062	0.005000	9.491334	1.486374	1.451880	0.473362	-0.189096	-0.298588	0.001051	0.012026	0.007626
178	0.911062	0.005000	9.582093	1.537893	1.601307	0.473473	-0.188873	-0.298712	-0.012908	0.017305	0.006615
179	0.916062	0.005000	9.564637	1.540283	1.530360	0.473585	-0.188650	-0.298837	-0.009202	0.011550	0.008854
180	0.921062	0.005000	9.444542	1.569600	1.476477	0.473697	-0.188427	-0.298961	-0.009710	0.013986	0.011098
181	0.926062	0.005000	9.623693	1.491120	1.451880	0.473808	-0.188204	-0.299086	-0.011240	0.017899	0.003421
182	0.931062	0.005000	9.608687	1.535473	1.474056	0.473920	-0.187981	-0.299210	-0.002033	0.025761	0.005192
183	0.936062	0.005000	9.593998	1.510558	1.510922	0.474031	-0.187758	-0.299335	0.007161	0.021685	-0.002528
184	0.941062	0.005000	9.574560	1.469036	1.581828	0.474143	-0.187535	-0.299459	0.006214	0.027300	0.003897
185	0.946062	0.005000	9.599056	1.476376	1.530360	0.474254	-0.187312	-0.299584	0.004689	0.026497	-0.001996
186	0.951062	0.005000	9.562225	1.400305	1.581935	0.474366	-0.187089	-0.299708	0.004403	0.015473	0.007467
187	0.956062	0.005000	9.486159	1.549758	1.589442	0.474477	-0.186866	-0.299833	0.004089	0.018937	0.009045
188	0.961062	0.005000	9.527806	1.545389	1.554571	0.474589	-0.186643	-0.299957	0.001831	0.011764	0.001282
189	0.966062	0.005000	9.598505	1.451880	1.501317	0.474700	-0.186494	-0.300164	0.021050	0.017005	0.004148
190	0.971062	0.005000	9.535320	1.449186	1.614227	0.474812	-0.186382	-0.300413	0.004092	0.025972	-0.006716
191	0.976062	0.005000	9.574832	1.569328	1.726560	0.474923	-0.186271	-0.300662	0.000680	0.017681	0.002693
192	0.981062	0.005000	9.688024	1.567472	1.652336	0.475035	-0.186159	-0.300911	0.001598	0.030010	0.003551
193	0.986062	0.005000	9.687735	1.451880	1.608840	0.475146	-0.186048	-0.301160	-0.000854	0.022630	0.006687
194	0.991062	0.005000	9.613800	1.433492	1.673418	0.475258	-0.185936	-0.301409	0.001414	0.011421	0.017721
195	0.996062	0.005000	9.653040	1.511628	1.627572	0.475369	-0.185825	-0.301658	-0.013768	0.013894	0.008659
196	1.001062	0.005000	9.625902	1.503222	1.648080	0.475481	-0.185713	-0.301907	-0.012965	0.011944	0.005935
197	1.006062	0.005000	9.721233	1.530360	1.736847	0.475592	-0.185602	-0.302156	-0.013516	0.019506	0.009465
198	1.011062	0.005000	9.574560	1.468747	1.709693	0.475704	-0.185490	-0.302405	-0.002284	0.009029	0.001124
199	1.016062	0.005000	9.554562	1.511875	1.687320	0.475815	-0.185379	-0.302654	-0.003319	0.010459	-0.003520
200	1.021062	0.005000	9.496080	1.520724	1.687320	0.475927	-0.185267	-0.302903	-0.005157	0.009932	-0.010943
201	1.026062	0.005000	9.550272	1.349112	1.735896	0.476038	-0.185156	-0.303152	-0.004191	0.008451	0.001674
202	1.031062	0.005000	9.574560	1.466042	1.621379	0.476088	-0.185075	-0.303367	0.004624	0.009992	-0.001875
203	1.036062	0.005000	9.594823	1.462011	1.775931	0.475977	-0.185075	-0.303492	0.010074	0.002443	-0.004118
204	1.041062	0.005000	9.645416	1.420264	1.741808	0.475865	-0.185075	-0.303616	0.008875	0.014522	-0.005413
205	1.046062	0.005000	9.579809	1.412640	1.765800	0.475754	-0.185075	-0.303741	0.008847	0.008268	-0.007934
206	1.051062	0.005000	9.653040	1.328442	1.799322	0.475642	-0.185075	-0.303865	0.007283	0.012393	-0.008327
207	1.056062	0.005000	9.690344	1.217892	1.648080	0.475531	-0.185075	-0.303990	0.005739	0.017159	-0.006523
208	1.061062	0.005000	9.535320	1.296848	1.722703	0.475419	-0.185075	-0.304115	0.014212	0.004599	-0.006491
209	1.066062	0.005000	9.417600	1.334160	1.717894	0.475308	-0.185075	-0.304239	0.007561	0.002094	-0.007096
210	1.071062	0.005000	9.449715	1.359150	1.687320	0.475196	-0.185075	-0.304364	0.014607	0.006622	-0.002166
211	1.076062	0.005000	9.496080	1.403125	1.736075	0.475085	-0.185075	-0.304488	0.015754	-0.002749	-0.006703
212	1.081062	0.005000	9.444950	1.436420	1.699210	0.474973	-0.185075	-0.304613	0.019432	0.001582	-0.014212
213	1.086062	0.005000	9.524640	1.501800	1.790760	0.474862	-0.185075	-0.304738	0.007708	0.001524	-0.011298
214	1.091062	0.005000	9.586420	1.491120	1.709905	0.474750	-0.185075	-0.304862	0.007537	0.002998	-0.009360
215	1.096062	0.005000	9.554365	1.432835	1.626735	0.474639	-0.185075	-0.304987	0.001991	-0.003068	-0.005192
216	1.101062	0.005000	9.517500	1.469700	1.587420	0.474827	-0.185075	-0.304889	-0.014602	-0.001251	-0.004963
217	1.106062	0.005000	9.629236	1.577969	1.624276	0.475050	-0.185075	-0.304764	0.001238	0.001439	-0.000567
218	1.111062	0.005000	9.626855	1.582655	1.530360	0.475273	-0.185075	-0.304639	0.000298	-0.008212	0.000874
219	1.116062	0.005000	9.632371	1.637746	1.598506	0.475496	-0.185075	-0.304515	-0.004900	-0.006183	-0.003603
220	1.121062	0.005000	9.574560	1.616768	1.624695	0.475719	-0.185075	-0.304390	0.003340	-0.008912	0.003679
221	1.126062	0.005000	9.580072	1.603328	1.569600	0.475942	-0.185075	-0.304266	-0.013186	-0.000862	-0.009467
222	1.131062	0.005000	9.508507	1.536574	1.644973	0.476165	-0.185075	-0.304141	-0.001259	-0.007357	0.001105
223	1.136062	0.005000	9.614489	1.646702	1.646013	0.476388	-0.185075	-0.304016	0.002138	-0.006983	0.008274
224	1.141062	0.005000	9.690586	1.607146	1.605452	0.476612	-0.185075	-0.303892	0.000392	-0.011215	0.003360
225	1.146062	0.005000	9.469093	1.522191	1.643996	0.476835	-0.185075	-0.303767	-0.004276	-0.012815	0.013426
226	1.151062	0.005000	9.489621	1.635161	1.543279	0.477058	-0.185075	-0.303643	-0.008556	-0.004048	-0.005131
227	1.156062	0.005000	9.526367	1.669414	1.569600	0.477281	-0.185075	-0.303518	-0.005087	-0.006545	0.004915
228	1.161062	0.005000	9.518800	1.642920	1.580960	0.477504	-0.185075	-0.303393	-0.007793	0.003774	0.007468
229	1.166062	0.005000	9.521546	1.687320	1.581292	0.477497	-0.185363	-0.303526	-0.005683	-0.001124	0.010572
230	1.171062	0.005000	9.512263	1.572034	1.537234	0.477274	-0.185920	-0.303899	0.005861	-0.003235	0.013927
231	1.176062	0.005000	9.576611	1.511765	1.532411	0.477051	-0.186478	-0.304273	0.000389	-0.005567	0.009606
232	1.181062	0.005000	9.674046	1.566829	1.627074	0.476828	-0.187036	-0.304647	0.005863	-0.004020	0.003433
233	1.186062	0.005000	9.653040	1.608840	1.624665	0.476604	-0.187594	-0.305021	0.016244	-0.003717	-0.007642
234	1.191062	0.005000	9.561148	1.568605	1.673908	0.476381	-0.188151	-0.305394	0.022960	-0.003858	0.014030
235	1.196062	0.005000	9.592047	1.587087	1.569600	0.476158	-0.188709	-0.305768	0.020469	-0.003047	0.008603
236	1.201062	0.005000	9.526819	1.521859	1.608840	0.475935	-0.189267	-0.306142	0.027623	-0.002209	0.005728
237	1.206062	0.005000	9.523097	1.491120	1.732671	0.475712	-0.189825	-0.306516	0.027619	0.000481	0.007721
238	1.211062	0.005000	9.488607	1.522887	1.605104	0.475489	-0.190382	-0.306889	0.024862	-0.001387	0.005174
239	1.216062	0.005000	9.424332	1.415333	1.569600	0.475266	-0.190940	-0.307263	0.027480	-0.002536	0.003413
240	1.221062	0.005000	9.576058	1.453378	1.607342	0.475043	-0.191498	-0.307637	0.020253	-0.005882	0.006625
241	1.226062	0.005000	9.649167	1.416513	1.636462	0.474820	-0.192056	-0.308010	0.035928	-0.012288	-0.000320
242	1.231062	0.005000	9.626325	1.478595	1.648080	0.474703	-0.192461	-0.308197	0.024327	-0.013535	0.011912
243	1.236062	0.005000	9.504718	1.491120	1.731249	0.475261	-0.191903	-0.307200	0.030254	-0.015102	0.003089
244	1.241062	0.005000	9.552505	1.423668	1.776828	0.475819	-0.191346	-0.306204	0.025051	-0.011228	0.006516
245	1.246062	0.005000	9.508515	1.504523	1.726560	0.476376	-0.190788	-0.305208	0.015402	-0.009844	0.008256
246	1.251062	0.005000	9.566422	1.428433	1.648080	0.476934	-0.190231	-0.304212	0.020462	-0.016727	0.002276
247	1.256062	0.005000	9.592728	1.430808	1.666248	0.477491	-0.189673	-0.303216	0.012512	-0.020036	0.015469
248	1.261062	0.005000	9.537196	1.431322	1.644328	0.478049	-0.189116	-0.302220	0.004552	-0.028106	0.004327
249	1.266062	0.005000	9.466521	1.474813	1.671013	0.478606	-0.188558	-0.301224	0.003005	-0.026536	0.008552
250	1.271062	0.005000	9.613800	1.454391	1.569600	0.479164	-0.188001	-0.300228	0.008082	-0.029345	0.010126
251	1.276062	0.005000	9.641833	1.507946	1.631254	0.479721	-0.187443	-0.299231	0.000680	-0.030220	0.005316
252	1.281062	0.005000	9.605000	1.578400	1.521560	0.480279	-0.186886	-0.298235	-0.005445	-0.024365	-0.000951
253	1.286062	0.005000	9.613800	1.556831	1.569600	0.480837	-0.186328	-0.297239	-0.004517	-0.031898	0.003011
254	1.291062	0.005000	9.684319	1.495101	1.557658	0.481394	-0.185771	-0.296243	0.008365	-0.029411	0.008806
255	1.296062	0.005000	9.613800	1.489562	1.415756	0.481952	-0.185213	-0.295247	0.009863	-0.027775	0.004641
256	1.301062	0.005000	9.575402	1.490278	1.529518	0.481838	-0.185159	-0.295562	0.013599	-0.027974	0.007301
257	1.306062	0.005000	9.607308	1.566354	1.559863	0.481504	-0.185270	-0.296310	0.009136	-0.021695	-0.002083
258	1.311062	0.005000	9.513068	1.401713	1.463205	0.481169	-0.185382	-0.297057	0.004298	-0.021701	0.013776
259	1.316062	0.005000	9.535320	1.474238	1.513478	0.480834	-0.185493	-0.297804	0.014792	-0.017888	0.010298
260	1.321062	0.005000	9.642224	1.480304	1.441064	0.480499	-0.185605	-0.298552	0.012471	-0.022887	0.011839
261	1.326062	0.005000	9.627006	1.596012	1.465086	0.480165	-0.185716	-0.299299	0.002783	-0.026561	0.011273
262	1.331062	0.005000	9.433181	1.562097	1.577678	0.479830	-0.185828	-0.300047	0.013635	-0.021747	-0.004408
263	1.336062	0.005000	9.496080	1.548331	1.463256	0.479495	-0.185939	-0.300794	0.012828	-0.033250	0.008394
264	1.341062	0.005000	9.593454	1.588494	1.412640	0.479161	-0.186051	-0.301542	0.010351	-0.018683	0.003798
265	1.346062	0.005000	9.574560	1.586104	1.484888	0.478826	-0.186163	-0.302289	0.019436	-0.029205	0.001197
266	1.351062	0.005000	9.588385	1.581190	1.581190	0.478491	-0.186274	-0.303036	0.019303	-0.024742	0.005313
267	1.356062	0.005000	9.563143	1.558183	1.576028	0.478157	-0.186386	-0.303784	0.017183	-0.013694	0.012538
268	1.361062	0.005000	9.553325	1.560598	1.639078	0.477822	-0.186497	-0.304531	0.015962	-0.014138	0.013063
269	1.366062	0.005000	9.463436	1.491120	1.602244	0.477570	-0.186650	-0.304954	0.013838	-0.015741	0.011459
270	1.371062	0.005000	9.465199	1.464419	1.530360	0.477459	-0.186873	-0.304829	0.020719	-0.017498	0.008399
271	1.376062	0.005000	9.456840	1.564274	1.492895	0.477347	-0.187096	-0.304704	0.008222	-0.013373	0.010663
272	1.381062	0.005000	9.418235	1.567694	1.530360	0.477236	-0.187320	-0.304580	0.005949	-0.010974	-0.004241
273	1.386062	0.005000	9.607707	1.464067	1.638940	0.477124	-0.187543	-0.304455	0.005114	-0.019233	0.011179
274	1.391062	0.005000	9.569110	1.530360	1.642630	0.477012	-0.187766	-0.304331	0.004169	-0.012176	-0.003543
275	1.396062	0.005000	9.676547	1.569600	1.593199	0.476901	-0.187989	-0.304206	0.019404	-0.014045	0.014712
276	1.401062	0.005000	9.622221	1.520087	1.561179	0.476789	-0.188212	-0.304081	0.002010	-0.007891	0.007690
277	1.406062	0.005000	9.599934	1.489942	1.477254	0.476678	-0.188435	-0.303957	0.008474	-0.015357	0.010775
278	1.411062	0.005000	9.583608	1.451880	1.617888	0.476566	-0.188658	-0.303832	0.000702	-0.014743	0.016332
279	1.416062	0.005000	9.557052	1.565376	1.504404	0.476454	-0.188881	-0.303708	0.005120	-0.003448	0.010132
280	1.421062	0.005000	9.555239	1.530360	1.490523	0.476343	-0.189104	-0.303583	0.005978	-0.018763	0.005908
281	1.426062	0.005000	9.524413	1.491120	1.507836	0.476231	-0.189328	-0.303458	0.005792	-0.011999	-0.006720
282	1.431062	0.005000	9.535320	1.544685	1.469942	0.476120	-0.189551	-0.303334	0.002178	-0.018868	0.005584
283	1.436062	0.005000	9.519981	1.518409	1.479169	0.475786	-0.189330	-0.302961	0.000929	-0.006781	-0.001026
284	1.441062	0.005000	9.516199	1.520800	1.569600	0.475452	-0.189107	-0.302588	0.009488	0.005794	0.013061
285	1.446062	0.005000	9.488895	1.530360	1.537545	0.475117	-0.188884	-0.302214	0.015294	0.000283	0.013744
286	1.451062	0.005000	9.544911	1.539951	1.560009	0.474782	-0.188661	-0.301840	0.012398	-0.005150	0.012579
287	1.456062	0.005000	9.613800	1.525519	1.608840	0.474448	-0.188438	-0.301467	0.026349	-0.004607	0.006548
288	1.461062	0.005000	9.652616	1.413064	1.647656	0.474113	-0.188215	-0.301093	0.013290	-0.002193	0.002318
289	1.466062	0.005000	9.538134	1.451880	1.569600	0.473779	-0.187992	-0.300719	0.014321	0.002305	0.013561
290	1.471062	0.005000	9.608611	1.428206	1.569600	0.473444	-0.187768	-0.300345	0.012026	-0.002347	0.014180
291	1.476062	0.005000	9.597260	1.522793	1.593707	0.473109	-0.187545	-0.299972	0.009671	0.003671	0.009359
292	1.481062	0.005000	9.535895	1.511027	1.657459	0.472775	-0.187322	-0.299598	0.019418	-0.001424	0.005038
293	1.486062	0.005000	9.574560	1.478791	1.660409	0.472440	-0.187099	-0.299224	0.014494	-0.001055	0.003964
294	1.491062	0.005000	9.677561	1.554881	1.594121	0.472105	-0.186876	-0.298851	0.015532	-0.003881	0.003185
295	1.496062	0.005000	9.653040	1.447241	1.486481	0.471771	-0.186653	-0.298477	0.013332	-0.008089	0.001232
296	1.501062	0.005000	9.613800	1.530360	1.491120	0.471916	-0.187116	-0.298027	0.010645	-0.002407	-0.001744
297	1.506062	0.005000	9.670157	1.569600	1.598827	0.472362	-0.188008	-0.297529	0.008798	-0.002079	0.013150
298	1.511062	0.005000	9.677573	1.505827	1.608840	0.472808	-0.188900	-0.297031	0.002059	-0.000853	0.007441
299	1.516062	0.005000	9.640746	1.515708	1.675026	0.473254	-0.189792	-0.296533	0.005740	-0.006330	0.007447
300	1.521062	0.005000	9.594256	1.589296	1.491120	0.473700	-0.190684	-0.296035	0.008736	0.000770	-0.003127
301	1.526062	0.005000	9.574560	1.466644	1.552506	0.474147	-0.191576	-0.295537	0.006494	-0.012252	0.006797
302	1.531062	0.005000	9.643026	1.486113	1.486113	0.474593	-0.192468	-0.295038	0.004508	-0.005512	0.005993
303	1.536062	0.005000	9.574560	1.493737	1.459731	0.475039	-0.193360	-0.294540	0.003192	-0.008792	0.000664
304	1.541062	0.005000	9.574076	1.530118	1.609082	0.475485	-0.194252	-0.294042	0.004091	-0.013541	0.000079
305	1.546062	0.005000	9.607280	1.528187	1.573946	0.475931	-0.195144	-0.293544	0.004568	0.002450	0.002104
306	1.551062	0.005000	9.609222	1.534938	1.565022	0.476377	-0.196036	-0.293046	0.013258	-0.010253	0.002296
307	1.556062	0.005000	9.710538	1.537354	1.648080	0.476823	-0.196928	-0.292548	0.006159	-0.011532	0.009875
308	1.561062	0.005000	9.594074	1.422397	1.618597	0.477269	-0.197820	-0.292050	0.006997	-0.015512	0.004896
309	1.566062	0.005000	9.547452	1.424772	1.545336	0.477432	-0.198507	-0.291409	0.007953	-0.015459	-0.000586
310	1.571062	0.005000	9.475628	1.501346	1.584107	0.476651	-0.198507	-0.290288	0.006704	-0.010507	-0.000410
311	1.576062	0.005000	9.456840	1.591943	1.614286	0.475870	-0.198507	-0.289167	0.009840	-0.014130	0.004083
312	1.581062	0.005000	9.555055	1.589335	1.589564	0.475089	-0.198507	-0.288045	0.006340	-0.011734	0.001612
313	1.586062	0.005000	9.552644	1.608840	1.608840	0.474308	-0.198507	-0.286924	0.004355	-0.006728	0.006657
314	1.591062	0.005000	9.658536	1.618256	1.506032	0.473528	-0.198507	-0.285803	0.005037	-0.007906	0.002136
315	1.596062	0.005000	9.613800	1.476887	1.557096	0.472747	-0.198507	-0.284682	-0.002082	-0.012276	-0.002138
316	1.601062	0.005000	9.554381	1.569600	1.441791	0.471966	-0.198507	-0.283561	0.007674	-0.010385	0.008444
317	1.606062	0.005000	9.535320	1.561917	1.412640	0.471185	-0.198507	-0.282439	0.009603	-0.004031	0.005877
318	1.611062	0.005000	9.556135	1.564396	1.540768	0.470404	-0.198507	-0.281318	0.014811	-0.012678	0.004995
319	1.616062	0.005000	9.655869	1.527531	1.485462	0.469623	-0.198507	-0.280197	0.004746	-0.007119	0.008999
320	1.621062	0.005000	9.651724	1.412640	1.570039	0.468842	-0.198507	-0.279076	0.007809	-0.005843	-0.000222
321	1.626062	0.005000	9.535320	1.449920	1.571560	0.468061	-0.198507	-0.277955	0.005076	-0.004055	0.018538
322	1.631062	0.005000	9.461217	1.591332	1.722183	0.467280	-0.198507	-0.276834	0.010908	0.002156	0.004674
323	1.636062	0.005000	9.600235	1.504685	1.615622	0.467449	-0.198032	-0.277728	0.015855	-0.009378	0.004993
324	1.641062	0.005000	9.643495	1.431731	1.599295	0.467784	-0.197474	-0.278973	0.008119	-0.004060	0.011980
325	1.646062	0.005000	9.559191	1.451880	1.608840	0.468118	-0.196917	-0.280219	0.008219	-0.012743	0.005071
326	1.651062	0.005000	9.599490	1.491120	1.608840	0.468453	-0.196359	-0.281465	0.010439	-0.017778	0.009766
327	1.656062	0.005000	9.591260	1.501981	1.586300	0.468788	-0.195801	-0.282710	0.010798	-0.012631	0.000892
328	1.661062	0.005000	9.555882	1.491120	1.569600	0.469122	-0.195243	-0.283956	0.003404	-0.013805	0.014515
329	1.666062	0.005000	9.539500	1.547890	1.491120	0.469457	-0.194686	-0.285202	-0.000140	-0.011386	-0.000258
330	1.671062	0.005000	9.432721	1.623961	1.451880	0.469792	-0.194128	-0.286447	0.010752	-0.001571	0.009679
331	1.676062	0.005000	9.522613	1.583425	1.621547	0.470127	-0.193570	-0.287693	0.006312	-0.003149	0.016224
332	1.681062	0.005000	9.407300	1.482779	1.598540	0.470461	-0.193012	-0.288939	0.001456	-0.007691	0.009984
333	1.686062	0.005000	9.488379	1.561715	1.546129	0.470796	-0.192455	-0.290184	-0.000858	-0.013985	0.010940
334	1.691062	0.005000	9.636793	1.535776	1.569600	0.471131	-0.191897	-0.291430	0.001540	-0.005755	0.001087
335	1.696062	0.005000	9.538345	1.497171	1.424742	0.471465	-0.191339	-0.292676	-0.001091	-0.018426	0.011086
336	1.701062	0.005000	9.611849	1.531010	1.531010	0.471695	-0.190992	-0.293274	-0.022827	-0.010720	0.017144
337	1.706062	0.005000	9.571040	1.457160	1.457160	0.471806	-0.190881	-0.293150	-0.004657	-0.006168	0.008012
338	1.711062	0.005000	9.544487	1.555849	1.521193	0.471918	-0.190769	-0.293025	-0.003036	-0.005252	0.019505
339	1.716062	0.005000	9.664446	1.380359	1.641121	0.472029	-0.190658	-0.292901	-0.006072	-0.000761	0.009695
340	1.721062	0.005000	9.602606	1.521011	1.549057	0.472141	-0.190546	-0.292776	0.001001	-0.006583	0.014608
341	1.726062	0.005000	9.519527	1.498774	1.585393	0.472252	-0.190435	-0.292652	0.004412	0.000507	0.018489
342	1.731062	0.005000	9.546333	1.544474	1.440867	0.472363	-0.190323	-0.292527	0.009163	-0.007015	0.012523
343	1.736062	0.005000	9.512569	1.553111	1.435391	0.472475	-0.190212	-0.292403	0.005744	-0.004204	0.008243
344	1.741062	0.005000	9.477201	1.531842	1.491120	0.472586	-0.190100	-0.292278	0.006920	-0.002426	0.008595
345	1.746062	0.005000	9.478094	1.466599	1.487853	0.472698	-0.189988	-0.292154	0.008847	0.001450	0.004792
346	1.751062	0.005000	9.487479	1.475800	1.499721	0.472809	-0.189877	-0.292030	0.003577	-0.001463	-0.000529
347	1.756062	0.005000	9.600894	1.438974	1.569600	0.472921	-0.189765	-0.291905	0.012409	-0.004143	0.006801
348	1.761062	0.005000	9.545823	1.402137	1.540863	0.473032	-0.189654	-0.291781	0.014589	0.002410	0.012341
349	1.766062	0.005000	9.566464	1.443784	1.561504	0.473105	-0.189533	-0.291689	-0.002353	-0.001463	0.003752
350	1.771062	0.005000	9.585920	1.412640	1.687320	0.472770	-0.189309	-0.291938	-0.000039	-0.002734	0.009123
351	1.776062	0.005000	9.679180	1.451880	1.644805	0.472435	-0.189086	-0.292187	-0.005192	0.002443	-0.000611
352	1.781062	0.005000	9.614647	1.567906	1.532901	0.472101	-0.188863	-0.292436	0.001132	-0.002851	0.014368
353	1.786062	0.005000	9.653040	1.566507	1.534999	0.471766	-0.188640	-0.292685	0.003165	0.002839	0.008382
354	1.791062	0.005000	9.613800	1.565636	1.644116	0.471432	-0.188417	-0.292934	0.004744	0.001298	0.003436
355	1.796062	0.005000	9.613800	1.484751	1.608840	0.471097	-0.188194	-0.293184	0.000634	0.006320	0.005192
356	1.801062	0.005000	9.613800	1.469449	1.569600	0.470762	-0.187971	-0.293433	0.005274	-0.007151	0.000845
357	1.806062	0.005000	9.563368	1.474263	1.541552	0.470428	-0.187748	-0.293682	0.008763	0.000191	0.012335
358	1.811062	0.005000	9.560955	1.528784	1.557571	0.470093	-0.187525	-0.293931	0.010724	0.004215	0.005846
359	1.816062	0.005000	9.548632	1.474828	1.562944	0.469758	-0.187301	-0.294180	0.005426	0.000896	-0.001935
360	1.821062	0.005000	9.611894	1.511693	1.629413	0.469424	-0.187078	-0.294429	-0.000393	0.000844	0.004997
361	1.826062	0.005000	9.595617	1.608840	1.627023	0.469089	-0.186855	-0.294678	0.004852	0.004923	-0.002812
362	1.831062	0.005000	9.574560	1.569600	1.553792	0.468755	-0.186632	-0.294927	0.006193	-0.000929	0.018995
363	1.836062	0.005000	9.679876	1.517956	1.687320	0.468973	-0.186567	-0.295176	0.000855	-0.004779	0.000711
364	1.841062	0.005000	9.653040	1.508274	1.676277	0.469419	-0.186567	-0.295426	0.001776	-0.007011	0.009198
365	1.846062	0.005000	9.605502	1.437534	1.569600	0.469866	-0.186567	-0.295675	0.004242	-0.004477	0.004611
366	1.851062	0.005000	9.442711	1.530360	1.681042	0.470312	-0.186567	-0.295924	-0.001321	-0.001222	0.001977
367	1.856062	0.005000	9.578035	1.566125	1.569600	0.470758	-0.186567	-0.296173	0.013166	-0.006514	0.004982
368	1.861062	0.005000	9.536391	1.528217	1.645937	0.471204	-0.186567	-0.296422	0.013757	0.003983	-0.004019
369	1.866062	0.005000	9.536651	1.565606	1.569600	0.471650	-0.186567	-0.296671	0.014087	-0.003509	0.001620
370	1.871062	0.005000	9.684868	1.423759	1.577012	0.472097	-0.186567	-0.296920	0.005632	-0.008793	0.003660
371	1.876062	0.005000	9.541416	1.439687	1.641984	0.472543	-0.186567	-0.297169	0.013464	-0.010243	0.001080
372	1.881062	0.005000	9.426071	1.412640	1.569600	0.472989	-0.186567	-0.297419	0.002854	0.000698	0.006162
373	1.886062	0.005000	9.463115	1.547623	1.552337	0.473435	-0.186567	-0.297668	0.008851	-0.002411	-0.002450
374	1.891062	0.005000	9.496080	1.556204	1.582047	0.473882	-0.186567	-0.297917	0.007136	-0.004099	0.011522
375	1.896062	0.005000	9.519511	1.467689	1.648080	0.474328	-0.186567	-0.298166	0.001401	-0.007420	0.010403
376	1.901062	0.005000	9.574560	1.509339	1.433661	0.474701	-0.186493	-0.298456	0.006923	-0.013323	0.016202
377	1.906062	0.005000	9.519376	1.567149	1.530360	0.474924	-0.186270	-0.298830	0.002752	-0.002440	0.000295
378	1.911062	0.005000	9.433605	1.584062	1.546365	0.475147	-0.186047	-0.299203	0.008395	-0.008101	0.006426
379	1.916062	0.005000	9.548950	1.491120	1.504750	0.475370	-0.185824	-0.299577	0.011905	-0.013108	0.018275
380	1.921062	0.005000	9.597039	1.491120	1.558360	0.475593	-0.185601	-0.299950	0.001844	-0.008852	0.003566
381	1.926062	0.005000	9.565695	1.521495	1.539225	0.475816	-0.185378	-0.300324	-0.000437	-0.011813	0.010042
382	1.931062	0.005000	9.556287	1.457971	1.575691	0.476039	-0.185155	-0.300697	-0.007503	-0.007964	0.009394
383	1.936062	0.005000	9.538994	1.487446	1.573274	0.476262	-0.184932	-0.301071	-0.003640	-0.011238	0.012703
384	1.941062	0.005000	9.458111	1.492391	1.686049	0.476485	-0.184709	-0.301445	-0.004757	-0.005964	0.012535
385	1.946062	0.005000	9.572321	1.606601	1.609959	0.476708	-0.184486	-0.301818	-0.001173	-0.010470	-0.006573
386	1.951062	0.005000	9.610290	1.533870	1.644570	0.476931	-0.184263	-0.302192	-0.000962	-0.022470	0.006065
387	1.956062	0.005000	9.602031	1.457764	1.614724	0.477154	-0.184040	-0.302565	0.004933	-0.011292	0.002314
388	1.961062	0.005000	9.653040	1.513811	1.662496	0.477377	-0.183817	-0.302939	0.008058	-0.010180	0.004004
389	1.966062	0.005000	9.546098	1.451880	1.562695	0.477600	-0.183594	-0.303312	0.003839	-0.010917	0.015114
390	1.971062	0.005000	9.587752	1.412640	1.582456	0.477717	-0.183898	-0.303451	0.012910	-0.009231	0.012787
391	1.976062	0.005000	9.558959	1.412640	1.608840	0.477829	-0.184233	-0.303575	0.019406	-0.006541	0.003837
392	1.981062	0.005000	9.492866	1.433867	1.548373	0.477940	-0.184568	-0.303700	0.010340	-0.008723	-0.005464
393	1.986062	0.005000	9.477264	1.489512	1.608840	0.478052	-0.184902	-0.303824	0.012097	-0.008135	0.009918
394	1.991062	0.005000	9.518914	1.491120	1.625246	0.478163	-0.185237	-0.303949	0.005816	-0.009675	0.007356
395	1.996062	0.005000	9.558495	1.479533	1.530360	0.478275	-0.185572	-0.304074	0.008146	-0.009009	0.010521
396	2.001062	0.005000	9.479743	1.502571	1.581051	0.478386	-0.185906	-0.304198	0.001205	-0.014762	0.021039
397	2.006062	0.005000	9.544381	1.617901	1.569600	0.478498	-0.186241	-0.304323	0.006227	-0.004955	0.000851
398	2.011062	0.005000	9.548692	1.549541	1.439385	0.478609	-0.186576	-0.304447	0.005622	-0.007941	0.008139
399	2.016062	0.005000	9.648744	1.464768	1.565304	0.478721	-0.186910	-0.304572	0.004425	-0.010989	0.005390
400	2.021062	0.005000	9.611879	1.493041	1.606919	0.478833	-0.187245	-0.304697	0.011056	-0.022354	0.011357
401	2.026062	0.005000	9.497926	1.530360	1.607917	0.478944	-0.187580	-0.304821	0.002868	-0.010311	0.005884
402	2.031062	0.005000	9.424226	1.566287	1.752549	0.479056	-0.187915	-0.304946	0.000329	-0.008259	0.010337
403	2.036062	0.005000	9.479016	1.614528	1.687320	0.479167	-0.188312	-0.304789	0.002578	-0.019666	0.008708
404	2.041062	0.005000	9.535320	1.569600	1.656143	0.479279	-0.188759	-0.304415	0.008420	-0.009534	0.007654
405	2.046062	0.005000	9.592894	1.519907	1.598387	0.479390	-0.189205	-0.304041	0.014559	-0.019039	0.003759
406	2.051062	0.005000	9.482806	1.530360	1.635097	0.479502	-0.189651	-0.303667	0.008709	-0.004328	0.001944
407	2.056062	0.005000	9.574560	1.498068	1.648080	0.479613	-0.190097	-0.303294	0.016694	-0.003697	0.011904
408	2.061062	0.005000	9.538949	1.530360	1.626646	0.479725	-0.190544	-0.302920	0.011427	-0.008055	0.013985
409	2.066062	0.005000	9.535320	1.512531	1.551771	0.479837	-0.190990	-0.302546	0.014667	-0.010693	0.005800
410	2.071062	0.005000	9.518907	1.530360	1.625253	0.479948	-0.191436	-0.302173	0.009422	-0.012063	0.013288
411	2.076062	0.005000	9.482042	1.555562	1.608840	0.480060	-0.191882	-0.301799	-0.000931	-0.011180	0.008169
412	2.081062	0.005000	9.586208	1.518712	1.698968	0.480171	-0.192328	-0.301425	0.000224	-0.020320	0.009839
413	2.086062	0.005000	9.604527	1.451880	1.608840	0.480283	-0.192775	-0.301051	-0.006374	-0.009481	0.009907
414	2.091062	0.005000	9.613800	1.556591	1.622063	0.480395	-0.193221	-0.300678	0.008591	-0.016217	-0.005227
415	2.096062	0.005000	9.613800	1.569600	1.573688	0.480506	-0.193667	-0.300304	0.000213	-0.017615	-0.000038
416	2.101062	0.005000	9.618850	1.489437	1.608840	0.480555	-0.193926	-0.300047	0.007443	-0.023379	0.010232
417	2.106062	0.005000	9.693006	1.451880	1.685868	0.480332	-0.193368	-0.300296	0.006218	-0.018253	0.018704
418	2.111062	0.005000	9.580762	1.521057	1.690421	0.480109	-0.192810	-0.300545	0.011853	-0.007379	0.005824
419	2.116062	0.005000	9.540875	1.524805	1.648080	0.479886	-0.192252	-0.300794	0.017214	-0.014233	0.002248
420	2.121062	0.005000	9.668396	1.412640	1.648080	0.479663	-0.191695	-0.301043	0.013397	-0.011244	0.013435
421	2.126062	0.005000	9.584936	1.412640	1.637704	0.479440	-0.191137	-0.301292	0.013047	-0.012911	0.001531
422	2.131062	0.005000	9.549002	1.386179	1.581476	0.479217	-0.190579	-0.301541	0.003305	-0.016603	0.013044
423	2.136062	0.005000	9.527030	1.428115	1.569600	0.478994	-0.190021	-0.301790	0.004240	-0.008301	0.011569
424	2.141062	0.005000	9.531780	1.491120	1.551750	0.478770	-0.189463	-0.302040	0.005898	-0.006597	0.004562
425	2.146062	0.005000	9.456840	1.491120	1.570840	0.478547	-0.188905	-0.302289	0.005964	-0.012798	0.012234
426	2.151062	0.005000	9.479729	1.419177	1.582675	0.478324	-0.188348	-0.302538	0.003070	-0.014947	0.007257
427	2.156062	0.005000	9.546676	1.463236	1.583542	0.478101	-0.187790	-0.302787	0.007920	-0.018220	0.016272
428	2.161062	0.005000	9.512263	1.412640	1.597311	0.477878	-0.187232	-0.303036	-0.000467	-0.011903	-0.005973
429	2.166062	0.005000	9.505201	1.382521	1.551357	0.477655	-0.186674	-0.303285	0.007479	-0.009617	0.010612
430	2.171062	0.005000	9.476717	1.419266	1.406014	0.477071	-0.187018	-0.302629	0.001137	-0.005578	0.010355
431	2.176062	0.005000	9.618051	1.526109	1.499621	0.476402	-0.187575	-0.301757	-0.000283	-0.002349	0.001314
432	2.181062	0.005000	9.615661	1.451880	1.685459	0.475733	-0.188133	-0.300885	0.001826	-0.009999	0.003260
433	2.186062	0.005000	9.536882	1.451880	1.570641	0.475063	-0.188691	-0.300013	0.005938	-0.011748	-0.003471
434	2.191062	0.005000	9.535320	1.497836	1.455238	0.474394	-0.189249	-0.299141	0.010530	-0.010068	0.006375
435	2.196062	0.005000	9.608052	1.429885	1.491120	0.473725	-0.189807	-0.298269	0.007982	-0.007198	0.004177
436	2.201062	0.005000	9.481210	1.334160	1.482997	0.473055	-0.190365	-0.297397	0.014295	-0.009469	0.004705
437	2.206062	0.005000	9.477867	1.441367	1.480607	0.472386	-0.190922	-0.296525	0.006666	-0.006892	0.002297
438	2.211062	0.005000	9.588023	1.543823	1.426103	0.471717	-0.191480	-0.295653	0.000619	-0.001147	0.007086
439	2.216062	0.005000	9.574560	1.499803	1.515082	0.471047	-0.192038	-0.294781	-0.006817	-0.009366	0.014105
440	2.221062	0.005000	9.556907	1.434227	1.630427	0.470378	-0.192596	-0.293909	-0.002283	-0.004248	-0.002298
441	2.226062	0.005000	9.575377	1.551205	1.629685	0.469709	-0.193154	-0.293037	-0.005170	-0.006992	0.002056
442	2.231062	0.005000	9.574560	1.468701	1.485523	0.469039	-0.193711	-0.292165	-0.005290	-0.001683	0.008026
443	2.236062	0.005000	9.642093	1.412640	1.530360	0.468944	-0.193934	-0.291881	-0.009339	-0.000305	-0.010952
444	2.241062	0.005000	9.641302	1.318397	1.557862	0.469613	-0.193711	-0.292379	0.004805	-0.001156	0.007396
445	2.246062	0.005000	9.565236	1.481796	1.470528	0.470282	-0.193488	-0.292877	0.009341	-0.004191	0.008197
446	2.251062	0.005000	9.482245	1.537278	1.465715	0.470951	-0.193265	-0.293375	0.008587	-0.011580	0.006720
447	2.256062	0.005000	9.461341	1.574101	1.613341	0.471620	-0.193042	-0.293873	0.009901	0.008701	0.002395
448	2.261062	0.005000	9.539465	1.650152	1.573745	0.472289	-0.192819	-0.294371	0.004459	-0.002680	0.005926
449	2.266062	0.005000	9.574881	1.570564	1.648080	0.472958	-0.192596	-0.294869	0.004832	0.002289	0.012396
450	2.271062	0.005000	9.650315	1.608840	1.645355	0.473627	-0.192373	-0.295367	0.013317	0.002155	0.011353
451	2.276062	0.005000	9.613800	1.428067	1.642938	0.474296	-0.192150	-0.295865	0.017180	-0.006109	0.006719
452	2.281062	0.005000	9.557964	1.593744	1.553004	0.474965	-0.191927	-0.296363	0.016340	0.002647	0.003767
453	2.286062	0.005000	9.564258	1.579902	1.579902	0.475634	-0.191704	-0.296861	0.010698	-0.011342	0.008618
454	2.291062	0.005000	9.588417	1.516503	1.622697	0.476303	-0.191481	-0.297359	0.004295	-0.004007	0.006181
455	2.296062	0.005000	9.496080	1.515293	1.642120	0.476972	-0.191258	-0.297857	0.011870	-0.002846	0.010690
456	2.301062	0.005000	9.517863	1.591383	1.626297	0.477622	-0.191035	-0.298289	0.005623	-0.000042	0.008724
457	2.306062	0.005000	9.633208	1.569176	1.647656	0.477845	-0.190812	-0.297293	0.001501	-0.001990	-0.003238
458	2.311062	0.005000	9.613800	1.530360	1.704078	0.478068	-0.190589	-0.296297	-0.003714	-0.004887	0.010598
459	2.316062	0.005000	9.688483	1.544706	1.619389	0.478291	-0.190366	-0.295301	0.002413	-0.003541	0.005803
460	2.321062	0.005000	9.625742	1.533774	1.554244	0.478514	-0.190143	-0.294305	0.008207	-0.007414	0.007126
461	2.326062	0.005000	9.585196	1.481585	1.629011	0.478737	-0.189920	-0.293309	0.003814	-0.011517	0.008730
462	2.331062	0.005000	9.556678	1.523241	1.530360	0.478960	-0.189697	-0.292312	0.004813	-0.004700	-0.000222
463	2.336062	0.005000	9.560419	1.486406	1.608840	0.479183	-0.189474	-0.291316	0.002721	0.002590	0.008935
464	2.341062	0.005000	9.542210	1.451880	1.645783	0.479406	-0.189251	-0.290320	-0.001376	0.002697	-0.001663
465	2.346062	0.005000	9.574772	1.334478	1.608840	0.479629	-0.189028	-0.289324	-0.007304	-0.014019	0.001707
466	2.351062	0.005000	9.613800	1.488595	1.608840	0.479852	-0.188805	-0.288328	-0.002089	-0.014768	0.008685
467	2.356062	0.005000	9.613800	1.530360	1.574530	0.480075	-0.188582	-0.287332	-0.006689	-0.005213	0.010114
468	2.361062	0.005000	9.599108	1.473918	1.530360	0.480298	-0.188359	-0.286336	-0.002516	-0.010839	0.007184
469	2.366062	0.005000	9.633305	1.402887	1.599087	0.480521	-0.188136	-0.285340	-0.005475	-0.000680	0.003076
470	2.371062	0.005000	9.572760	1.478640	1.621320	0.480523	-0.187986	-0.285985	0.006034	-0.005582	0.013048
471	2.376062	0.005000	9.638170	1.485750	1.657580	0.480412	-0.187875	-0.287480	0.000959	0.000664	0.008982
472	2.381062	0.005000	9.557315	1.508365	1.687320	0.480300	-0.187763	-0.288975	0.008926	-0.007343	-0.000935
473	2.386062	0.005000	9.554955	1.491150	1.589265	0.480189	-0.187652	-0.290470	0.002503	-0.007783	0.009458
474	2.391062	0.005000	9.569780	1.535140	1.513130	0.480077	-0.187540	-0.291965	0.010592	-0.007380	0.003922
475	2.396062	0.005000	9.525760	1.515520	1.520800	0.479965	-0.187428	-0.293460	0.013127	-0.006115	0.018170
476	2.401062	0.005000	9.456840	1.491120	1.674855	0.479854	-0.187317	-0.294954	0.014623	-0.002471	0.007423
477	2.406062	0.005000	9.554787	1.412640	1.648080	0.479742	-0.187205	-0.296449	0.014847	-0.012098	0.011474
478	2.411062	0.005000	9.613800	1.491120	1.537691	0.479631	-0.187094	-0.297944	0.007157	-0.004757	0.007898
479	2.416062	0.005000	9.599056	1.451880	1.613755	0.479519	-0.186982	-0.299439	0.008985	-0.006970	0.005634
480	2.421062	0.005000	9.537830	1.451880	1.687320	0.479408	-0.186871	-0.300934	0.010928	-0.006788	0.007589
481	2.426062	0.005000	9.535412	1.569692	1.609207	0.479296	-0.186759	-0.302429	0.005554	-0.001473	0.002582
482	2.431062	0.005000	9.574560	1.608840	1.617977	0.479184	-0.186647	-0.303924	0.027755	-0.012273	0.012463
483	2.436062	0.005000	9.574560	1.535089	1.692049	0.479104	-0.186536	-0.304826	0.014676	-0.004956	0.009931
484	2.441062	0.005000	9.560291	1.444745	1.726560	0.479104	-0.186424	-0.304203	0.015101	-0.013652	0.013574
485	2.446062	0.005000	9.535320	1.451880	1.687320	0.479104	-0.186313	-0.303581	0.011734	-0.004159	0.007150
486	2.451062	0.005000	9.617168	1.491120	1.593515	0.479104	-0.186201	-0.302958	0.005574	-0.004609	-0.006463
487	2.456062	0.005000	9.574560	1.416512	1.565728	0.479104	-0.186090	-0.302335	0.009296	-0.013645	0.004034
488	2.461062	0.005000	9.429505	1.457023	1.586648	0.479104	-0.185978	-0.301713	-0.002650	-0.008359	0.000293
489	2.466062	0.005000	9.476657	1.530360	1.569600	0.479104	-0.185867	-0.301090	-0.005957	-0.014596	0.010826
490	2.471062	0.005000	9.483040	1.569600	1.608840	0.479104	-0.185756	-0.300468	0.001538	-0.006753	0.017654
491	2.476062	0.005000	9.520268	1.476068	1.554548	0.479104	-0.185644	-0.299845	0.009147	-0.016269	0.010064
492	2.481062	0.005000	9.562210	1.424990	1.557250	0.479104	-0.185533	-0.299223	0.003924	-0.021045	0.022990
493	2.486062	0.005000	9.525384	1.520424	1.598904	0.479104	-0.185421	-0.298600	0.006434	-0.012952	0.005157
494	2.491062	0.005000	9.527790	1.513709	1.601310	0.479104	-0.185310	-0.297977	0.002443	-0.010579	0.014356
495	2.496062	0.005000	9.506307	1.535474	1.564486	0.479104	-0.185198	-0.297355	-0.002838	-0.008751	0.008174
496	2.501062	0.005000	9.569205	1.606162	1.541070	0.479104	-0.185087	-0.296732	0.002144	-0.023365	0.007714
497	2.506062	0.005000	9.535623	1.529452	1.608537	0.477706	-0.186972	-0.294214	0.008038	-0.012540	0.020159
498	2.511062	0.005000	9.611688	1.412640	1.643856	0.476144	-0.189092	-0.291473	-0.008230	-0.006695	0.008790
499	2.516062	0.005000	9.613800	1.495637	1.578633	0.474583	-0.191211	-0.288733	0.001869	-0.020528	0.008552
500	2.521062	0.005000	9.613800	1.484187	1.544226	0.473021	-0.193331	-0.285992	0.004716	-0.013078	0.011912
501	2.526062	0.005000	9.535320	1.530360	1.509798	0.471459	-0.195451	-0.283251	0.014916	-0.016779	0.010355
502	2.531062	0.005000	9.547392	1.581672	1.581672	0.469897	-0.197570	-0.280511	0.005755	-0.021181	0.013220
503	2.536062	0.005000	9.564243	1.441563	1.441563	0.468335	-0.199690	-0.277770	0.007098	-0.022894	0.010564
504	2.541062	0.005000	9.557723	1.530360	1.547197	0.466774	-0.201809	-0.275029	0.007276	-0.017578	0.007110
505	2.546062	0.005000	9.556120	1.491120	1.491120	0.465212	-0.203929	-0.272289	0.009770	-0.003641	0.006678
506	2.551062	0.005000	9.574560	1.373400	1.530360	0.463650	-0.206049	-0.269548	0.011419	-0.018742	0.010351
507	2.556062	0.005000	9.653040	1.506088	1.491120	0.462088	-0.208168	-0.266807	-0.001810	-0.011283	0.006630
508	2.561062	0.005000	9.613800	1.530360	1.503674	0.460526	-0.210288	-0.264067	0.000065	-0.012890	0.007320
509	2.566062	0.005000	9.555613	1.540507	1.559453	0.458965	-0.212408	-0.261326	0.001708	-0.013294	0.012348
510	2.571062	0.005000	9.574560	1.546405	1.475657	0.458439	-0.212857	-0.260643	-0.007447	-0.016382	0.006997
511	2.576062	0.005000	9.676487	1.519831	1.417904	0.458886	-0.211741	-0.261889	0.001115	-0.009916	0.006011
512	2.581062	0.005000	9.610926	1.454754	1.566726	0.459332	-0.210626	-0.263135	-0.000340	-0.003811	0.005188
513	2.586062	0.005000	9.574560	1.490621	1.492118	0.459778	-0.209510	-0.264380	0.019849	-0.012341	0.008418
514	2.591062	0.005000	9.574560	1.451880	1.569600	0.460224	-0.208395	-0.265626	0.015259	-0.017005	0.005131
515	2.596062	0.005000	9.657357	1.534677	1.491120	0.460670	-0.207279	-0.266872	0.014940	-0.007012	-0.004792
516	2.601062	0.005000	9.606690	1.587511	1.469791	0.461117	-0.206163	-0.268118	0.014415	-0.008164	0.008358
517	2.606062	0.005000	9.574560	1.461365	1.511390	0.461563	-0.205048	-0.269363	0.017142	-0.009867	-0.002805
518	2.611062	0.005000	9.574560	1.357910	1.530360	0.462009	-0.203932	-0.270609	0.016757	-0.009584	0.008784
519	2.616062	0.005000	9.471090	1.423380	1.608840	0.462455	-0.202816	-0.271855	0.007085	-0.002672	0.008886
520	2.621062	0.005000	9.597160	1.412640	1.524400	0.462902	-0.201701	-0.273101	0.017018	-0.012327	0.004525
521	2.626062	0.005000	9.613800	1.431655	1.508925	0.463348	-0.200585	-0.274346	0.001528	-0.009408	0.012401
522	2.631062	0.005000	9.582702	1.469465	1.547945	0.463794	-0.199470	-0.275592	0.007556	-0.003280	0.006523
523	2.636062	0.005000	9.487185	1.491120	1.584772	0.464271	-0.198461	-0.276787	0.006745	-0.011394	0.001421
524	2.641062	0.005000	9.417600	1.412640	1.608840	0.464940	-0.198127	-0.277658	0.012051	-0.007411	0.000357
525	2.646062	0.005000	9.496080	1.393852	1.579826	0.465609	-0.197792	-0.278530	0.011509	-0.007015	0.004286
526	2.651062	0.005000	9.543171	1.491120	1.522509	0.466278	-0.197458	-0.279401	0.009070	0.000456	0.013134
527	2.656062	0.005000	9.496080	1.524899	1.491120	0.466947	-0.197123	-0.280273	0.010633	-0.007292	0.006166
528	2.661062	0.005000	9.463012	1.569600	1.491120	0.467616	-0.196789	-0.281144	0.003211	-0.004928	0.003255
529	2.666062	0.005000	9.613104	1.452576	1.451880	0.468285	-0.196454	-0.282016	0.005350	-0.009626	-0.003467
530	2.671062	0.005000	9.612101	1.491120	1.564502	0.468954	-0.196120	-0.282888	0.000145	-0.007961	0.007941
531	2.676062	0.005000	9.644806	1.569600	1.679086	0.469623	-0.195785	-0.283759	0.012569	-0.009457	0.006018
532	2.681062	0.005000	9.671541	1.555774	1.661906	0.470292	-0.195451	-0.284631	0.009954	-0.003640	0.001196
533	2.686062	0.005000	9.613800	1.530360	1.440504	0.470961	-0.195116	-0.285502	0.004927	-0.012751	0.005269
534	2.691062	0.005000	9.657277	1.553695	1.507025	0.471630	-0.194782	-0.286374	0.010388	-0.007875	0.002074
535	2.696062	0.005000	9.549373	1.530360	1.580734	0.472299	-0.194447	-0.287245	0.002401	-0.016058	0.001614
536	2.701062	0.005000	9.473268	1.553172	1.602456	0.472968	-0.194113	-0.288117	0.003864	-0.005409	0.000137
537	2.706062	0.005000	9.536923	1.590022	1.469095	0.473469	-0.193778	-0.289270	0.005692	-0.018000	0.009540
538	2.711062	0.005000	9.535320	1.533506	1.491120	0.473916	-0.193444	-0.290515	0.007767	-0.007288	0.003788
539	2.716062	0.005000	9.496080	1.506501	1.506501	0.474362	-0.193109	-0.291760	0.009698	-0.011599	-0.002255
540	2.721062	0.005000	9.509048	1.530360	1.608840	0.474808	-0.192775	-0.293005	0.007941	-0.014755	-0.009467
541	2.726062	0.005000	9.535320	1.587720	1.648080	0.475254	-0.192440	-0.294250	0.005350	-0.007172	-0.005024
542	2.731062	0.005000	9.473130	1.514070	1.608840	0.475700	-0.192106	-0.295496	0.011779	-0.008429	0.005547
543	2.736062	0.005000	9.574560	1.424118	1.630863	0.476146	-0.191771	-0.296741	0.001663	-0.010265	0.005564
544	2.741062	0.005000	9.492797	1.533643	1.487837	0.476592	-0.191436	-0.297986	0.003920	-0.006436	-0.002612
545	2.746062	0.005000	9.416692	1.530360	1.570508	0.477038	-0.191102	-0.299231	0.010593	-0.006356	0.000954
546	2.751062	0.005000	9.529321	1.530360	1.646580	0.477484	-0.190767	-0.300476	0.005514	-0.006360	0.003669
547	2.756062	0.005000	9.574560	1.569600	1.687320	0.477930	-0.190433	-0.301722	0.014226	-0.008937	0.011606
548	2.761062	0.005000	9.567859	1.588736	1.583003	0.478376	-0.190098	-0.302967	0.010944	0.003220	0.010944
549	2.766062	0.005000	9.526229	1.530360	1.578691	0.478822	-0.189764	-0.304212	0.005907	-0.009790	0.011856
550	2.771062	0.005000	9.641574	1.541826	1.597374	0.479022	-0.189511	-0.304863	0.010728	-0.009125	0.020733
551	2.776062	0.005000	9.613800	1.530360	1.571930	0.478799	-0.189400	-0.304489	0.008517	-0.005463	0.008667
552	2.781062	0.005000	9.590792	1.608840	1.592608	0.478576	-0.189288	-0.304115	0.015809	-0.010385	0.013590
553	2.786062	0.005000	9.455263	1.627672	1.610417	0.478353	-0.189176	-0.303742	0.003751	-0.007463	0.000149
554	2.791062	0.005000	9.453596	1.530360	1.626838	0.478130	-0.189065	-0.303368	0.003846	-0.011243	0.002607
555	2.796062	0.005000	9.503597	1.562083	1.616908	0.477907	-0.188953	-0.302994	-0.001974	-0.008419	0.002567
556	2.801062	0.005000	9.600914	1.451880	1.556423	0.477683	-0.188842	-0.302620	-0.002617	-0.003612	-0.004076
557	2.806062	0.005000	9.603037	1.469594	1.605028	0.477460	-0.188730	-0.302247	-0.003032	-0.005796	0.010978
558	2.811062	0.005000	9.574560	1.429352	1.586312	0.477237	-0.188619	-0.301873	-0.005059	0.000591	0.003150
559	2.816062	0.005000	9.707759	1.479239	1.630259	0.477014	-0.188507	-0.301499	0.004920	-0.012012	0.002241
560	2.821062	0.005000	9.578095	1.458951	1.501726	0.476791	-0.188396	-0.301126	-0.000916	-0.007127	0.000475
561	2.826062	0.005000	9.653040	1.493355	1.645845	0.476568	-0.188284	-0.300752	0.010860	-0.015520	0.002454
562	2.831062	0.005000	9.653040	1.607569	1.531631	0.476345	-0.188173	-0.300378	0.001337	-0.008018	0.012828
563	2.836062	0.005000	9.496080	1.494781	1.608840	0.476122	-0.188061	-0.300004	0.010512	-0.008187	0.000929
564	2.841062	0.005000	9.462876	1.424712	1.575636	0.476119	-0.187840	-0.300246	0.008796	-0.015123	0.017763
565	2.846062	0.005000	9.448316	1.351209	1.569600	0.476119	-0.187616	-0.300495	0.004098	0.000860	-0.003283
566	2.851062	0.005000	9.574560	1.458326	1.626217	0.476119	-0.187393	-0.300744	-0.000606	0.000727	-0.000383
567	2.856062	0.005000	9.562011	1.569600	1.595495	0.476119	-0.187170	-0.300994	0.005410	-0.001345	0.005806
568	2.861062	0.005000	9.464863	1.546114	1.491120	0.476119	-0.186947	-0.301243	0.007194	0.001850	0.001485
569	2.866062	0.005000	9.498500	1.572020	1.491120	0.476119	-0.186724	-0.301492	0.011613	-0.013827	0.002985
570	2.871062	0.005000	9.537680	1.671240	1.488760	0.476119	-0.186501	-0.301741	0.004279	-0.006418	0.000917
571	2.876062	0.005000	9.528210	1.569600	1.569600	0.476119	-0.186278	-0.301990	0.013708	-0.004968	0.003435
572	2.881062	0.005000	9.613800	1.557740	1.514839	0.476119	-0.186055	-0.302239	0.011416	0.008201	0.003789
573	2.886062	0.005000	9.641740	1.552960	1.580900	0.476119	-0.185831	-0.302488	0.001202	-0.005810	0.009020
574	2.891062	0.005000	9.618806	1.538918	1.608840	0.476119	-0.185608	-0.302737	0.006062	0.000751	-0.002725
575	2.896062	0.005000	9.574560	1.563448	1.458032	0.476119	-0.185385	-0.302987	0.009096	-0.005008	-0.001382
576	2.901062	0.005000	9.673602	1.569600	1.526624	0.476119	-0.185162	-0.303236	0.012210	-0.015245	0.009325
577	2.906062	0.005000	9.575891	1.566937	1.451880	0.476187	-0.185075	-0.303333	0.008971	-0.001844	0.005189
578	2.911062	0.005000	9.651966	1.414788	1.451880	0.476299	-0.185075	-0.303333	0.015141	-0.010033	0.012279
579	2.916062	0.005000	9.581541	1.566109	1.644589	0.476410	-0.185075	-0.303333	0.011912	-0.008640	0.007702
580	2.921062	0.005000	9.601985	1.485213	1.608840	0.476522	-0.185075	-0.303333	0.012929	-0.009292	0.012585
581	2.926062	0.005000	9.613800	1.365087	1.631453	0.476633	-0.185075	-0.303333	0.007348	-0.004718	0.007891
582	2.931062	0.005000	9.596676	1.491120	1.619898	0.476745	-0.185075	-0.303333	0.005002	-0.002461	0.001856
583	2.936062	0.005000	9.535320	1.477672	1.543808	0.476857	-0.185075	-0.303333	0.004290	-0.010563	-0.003237
584	2.941062	0.005000	9.597977	1.475297	1.648080	0.476968	-0.185075	-0.303333	0.001274	0.003529	-0.001378
585	2.946062	0.005000	9.592773	1.449066	1.648080	0.477080	-0.185075	-0.303333	0.004567	-0.006323	0.000748
586	2.951062	0.005000	9.574560	1.453816	1.588252	0.477191	-0.185075	-0.303333	0.000739	-0.006655	0.007416
587	2.956062	0.005000	9.558298	1.539905	1.657625	0.477303	-0.185075	-0.303333	0.008624	-0.012824	0.003653
588	2.961062	0.005000	9.574560	1.528860	1.726560	0.477415	-0.185075	-0.303333	0.008336	-0.021020	0.008422
589	2.966062	0.005000	9.602628	1.530360	1.709664	0.477526	-0.185075	-0.303333	0.003728	-0.014870	0.007958
590	2.971062	0.005000	9.561592	1.521603	1.700288	0.477638	-0.185101	-0.303247	0.007917	-0.011536	0.015845
591	2.976062	0.005000	9.574560	1.497474	1.503827	0.477749	-0.185212	-0.302873	0.002066	-0.009440	0.008431
592	2.981062	0.005000	9.539268	1.487172	1.612788	0.477861	-0.185324	-0.302500	0.005407	-0.005942	0.002165
593	2.986062	0.005000	9.530782	1.569600	1.495658	0.477972	-0.185435	-0.302126	0.009133	-0.010432	0.008858
594	2.991062	0.005000	9.455967	1.454498	1.685575	0.478084	-0.185547	-0.301753	-0.001631	-0.008437	0.008995
595	2.996062	0.005000	9.492790	1.491120	1.458461	0.478195	-0.185658	-0.301379	0.001007	-0.008091	0.011508
596	3.001062	0.005000	9.496080	1.457575	1.406945	0.478306	-0.185769	-0.301006	0.000326	-0.011606	0.005678
597	3.006062	0.005000	9.496080	1.545266	1.514138	0.478418	-0.185881	-0.300632	0.005005	-0.013548	0.004323
598	3.011062	0.005000	9.585078	1.637562	1.598322	0.478529	-0.185992	-0.300259	0.006990	-0.005671	0.011655
599	3.016062	0.005000	9.534851	1.451880	1.608840	0.478641	-0.186104	-0.299885	-0.002170	-0.002805	-0.005965
600	3.021062	0.005000	9.582547	1.545986	1.648080	0.478752	-0.186215	-0.299511	0.001121	-0.010402	0.001516
601	3.026062	0.005000	9.571323	1.505884	1.569600	0.478864	-0.186327	-0.299138	0.001353	-0.005174	-0.004252
602	3.031062	0.005000	9.518014	1.491120	1.610383	0.478975	-0.186438	-0.298764	0.000305	-0.014050	0.006471
603	3.036062	0.005000	9.483494	1.524067	1.517774	0.479087	-0.186550	-0.298391	-0.002591	-0.010763	0.011301
604	3.041062	0.005000	9.627883	1.508214	1.648080	0.479198	-0.186756	-0.298649	0.002170	-0.008943	0.005072
605	3.046062	0.005000	9.625508	1.565485	1.612955	0.479310	-0.186979	-0.299022	0.007502	-0.011609	0.003187
606	3.051062	0.005000	9.565592	1.599872	1.599872	0.479421	-0.187202	-0.299396	0.009741	-0.004607	0.003880
607	3.056062	0.005000	9.613800	1.530360	1.621869	0.479533	-0.187425	-0.299769	0.007110	-0.012184	0.004048
608	3.061062	0.005000	9.609651	1.522062	1.416789	0.479644	-0.187648	-0.300143	0.006848	-0.008391	0.001044
609	3.066062	0.005000	9.613800	1.412640	1.414385	0.479756	-0.187871	-0.300517	0.009695	-0.004509	-0.003004
610	3.071062	0.005000	9.536651	1.451214	1.490454	0.479868	-0.188094	-0.300890	0.002418	0.002006	0.013967
611	3.076062	0.005000	9.532279	1.560478	1.494161	0.479979	-0.188317	-0.301264	0.003002	0.002387	0.001998
612	3.081062	0.005000	9.535320	1.530360	1.530360	0.480091	-0.188540	-0.301637	0.011913	-0.003038	0.009045
613	3.086062	0.005000	9.676480	1.514820	1.554060	0.480202	-0.188763	-0.302011	0.000612	-0.004876	0.012310
614	3.091062	0.005000	9.574560	1.520045	1.569600	0.480314	-0.188986	-0.302384	0.008297	-0.009241	0.007204
615	3.096062	0.005000	9.509874	1.622634	1.622634	0.480425	-0.189209	-0.302758	-0.000184	-0.001855	0.004327
616	3.101062	0.005000	9.583528	1.442912	1.545496	0.480537	-0.189432	-0.303131	0.001926	-0.004419	-0.005340
617	3.106062	0.005000	9.610169	1.409009	1.530360	0.480237	-0.189603	-0.303390	0.014704	-0.003381	-0.001712
618	3.111062	0.005000	9.592501	1.569600	1.570719	0.479457	-0.189715	-0.303515	0.014050	-0.005353	-0.001161
619	3.116062	0.005000	9.568660	1.552930	1.608840	0.478676	-0.189827	-0.303640	0.018635	-0.004278	0.008966
620	3.121062	0.005000	9.549615	1.501770	1.619490	0.477895	-0.189938	-0.303764	0.013049	-0.004873	0.014107
621	3.126062	0.005000	9.484495	1.486636	1.636495	0.477114	-0.190050	-0.303889	0.011581	-0.005254	0.000236
622	3.131062	0.005000	9.505251	1.512018	1.629738	0.476333	-0.190161	-0.304013	0.012431	-0.011257	-0.002217
623	3.136062	0.005000	9.496080	1.386929	1.549307	0.475552	-0.190273	-0.304138	0.016873	-0.007222	-0.002749
624	3.141062	0.005000	9.530972	1.569600	1.534708	0.474771	-0.190385	-0.304263	0.005284	-0.004149	-0.002921
625	3.146062	0.005000	9.580391	1.449936	1.571544	0.473990	-0.190496	-0.304387	0.002214	-0.002585	0.008612
626	3.151062	0.005000	9.653509	1.412640	1.608840	0.473209	-0.190608	-0.304512	0.005370	-0.007570	0.014877
627	3.156062	0.005000	9.686592	1.491120	1.684476	0.472428	-0.190719	-0.304636	-0.007460	-0.005105	0.012436
628	3.161062	0.005000	9.483250	1.519796	1.619404	0.471647	-0.190831	-0.304761	-0.004137	-0.005051	0.010088
629	3.166062	0.005000	9.583008	1.538058	1.648080	0.470866	-0.190943	-0.304886	-0.009980	-0.018555	0.005053
630	3.171062	0.005000	9.634009	1.520255	1.540465	0.470167	-0.191009	-0.304929	-0.008992	-0.009140	-0.002615
631	3.176062	0.005000	9.599598	1.569600	1.608840	0.470390	-0.190562	-0.304057	-0.007008	-0.009612	0.002314
632	3.181062	0.005000	9.583945	1.554673	1.599455	0.470613	-0.190116	-0.303185	-0.005018	-0.012180	0.005344
633	3.186062	0.005000	9.635447	1.616948	1.473527	0.470837	-0.189670	-0.302313	-0.002408	-0.010996	-0.006590
634	3.191062	0.005000	9.633057	1.589583	1.431897	0.471060	-0.189224	-0.301441	0.002856	-0.016610	0.017616
635	3.196062	0.005000	9.630682	1.591958	1.496596	0.471283	-0.188777	-0.300569	0.002609	0.000349	-0.002985
636	3.201062	0.005000	9.653040	1.569600	1.447644	0.471506	-0.188331	-0.299697	0.009549	-0.013068	0.008865
637	3.206062	0.005000	9.653040	1.542477	1.448991	0.471729	-0.187885	-0.298825	0.009037	-0.009461	0.000460
638	3.211062	0.005000	9.623527	1.520633	1.481393	0.471952	-0.187439	-0.297953	0.014431	-0.005547	0.001403
639	3.216062	0.005000	9.560628	1.562634	1.523394	0.472175	-0.186993	-0.297080	0.008442	-0.004255	0.006001
640	3.221062	0.005000	9.461401	1.574161	1.565039	0.472398	-0.186546	-0.296208	0.010465	-0.007499	0.010731
641	3.226062	0.005000	9.533177	1.488977	1.532503	0.472621	-0.186100	-0.295336	0.009660	-0.012722	0.013553
642	3.231062	0.005000	9.496080	1.451880	1.608583	0.472845	-0.185654	-0.294464	0.003059	-0.007995	0.002878
643	3.236062	0.005000	9.574560	1.415318	1.606162	0.473068	-0.185208	-0.293592	0.010237	-0.012514	0.012500
644	3.241062	0.005000	9.535320	1.520194	1.501286	0.473526	-0.185232	-0.293945	-0.005755	-0.006289	0.015523
645	3.246062	0.005000	9.535320	1.491120	1.554602	0.474083	-0.185455	-0.294817	-0.003100	-0.006462	0.006232
646	3.251062	0.005000	9.593989	1.451880	1.540266	0.474641	-0.185678	-0.295689	0.008700	-0.015713	0.019337
647	3.256062	0.005000	9.613800	1.532672	1.491120	0.475198	-0.185901	-0.296560	-0.002872	-0.006811	0.006077
648	3.261062	0.005000	9.677274	1.521132	1.554594	0.475756	-0.186124	-0.297432	0.000243	-0.016757	0.006161
649	3.266062	0.005000	9.657487	1.430036	1.491120	0.476314	-0.186347	-0.298304	0.005498	-0.000824	0.005496
650	3.271062	0.005000	9.535623	1.569297	1.588766	0.476871	-0.186570	-0.299175	0.000195	-0.015862	0.013626
651	3.276062	0.005000	9.451757	1.552521	1.660076	0.477429	-0.186793	-0.300047	-0.000178	-0.003182	0.010237
652	3.281062	0.005000	9.589264	1.594136	1.633376	0.477986	-0.187016	-0.300919	-0.004630	-0.005424	-0.000655
653	3.286062	0.005000	9.589173	1.518046	1.544973	0.478544	-0.187239	-0.301790	0.008290	-0.013396	0.011934
654	3.291062	0.005000	9.535320	1.451880	1.510997	0.479101	-0.187462	-0.302662	0.000369	-0.000980	0.006236
655	3.296062	0.005000	9.481725	1.544715	1.498298	0.479659	-0.187685	-0.303534	-0.000490	-0.013314	0.004577
656	3.301062	0.005000	9.422361	1.535121	1.599317	0.480217	-0.187908	-0.304405	-0.004887	-0.005666	0.015745
657	3.306062	0.005000	9.463911	1.537431	1.645723	0.480526	-0.188060	-0.304960	-0.014401	-0.004575	0.004350
658	3.311062	0.005000	9.574560	1.569721	1.569661	0.480303	-0.188060	-0.304836	-0.000358	-0.005645	0.002183
659	3.316062	0.005000	9.459275	1.645645	1.608840	0.480080	-0.188060	-0.304711	-0.008271	-0.005156	-0.000885
660	3.321062	0.005000	9.672978	1.525534	1.599189	0.479857	-0.188060	-0.304587	0.006919	-0.011545	0.001766
661	3.326062	0.005000	9.588961	1.427041	1.466281	0.479634	-0.188060	-0.304462	0.002966	-0.005949	0.003929
662	3.331062	0.005000	9.486489	1.451880	1.480652	0.479411	-0.188060	-0.304338	0.004493	-0.005713	0.004007
663	3.336062	0.005000	9.468806	1.479154	1.608840	0.479188	-0.188060	-0.304213	0.003814	-0.011235	0.008082
664	3.341062	0.005000	9.585108	1.451880	1.662426	0.478965	-0.188060	-0.304089	0.005698	-0.016401	0.002734
665	3.346062	0.005000	9.597069	1.468611	1.547091	0.478742	-0.188060	-0.303964	0.010841	-0.010980	0.006263
666	3.351062	0.005000	9.554426	1.491120	1.510226	0.478519	-0.188060	-0.303840	0.000775	-0.003209	0.005816
667	3.356062	0.005000	9.578312	1.551856	1.548104	0.478296	-0.188060	-0.303715	0.000907	-0.006339	0.005473
668	3.361062	0.005000	9.622301	1.554231	1.554231	0.478073	-0.188060	-0.303590	0.007789	-0.004598	0.009707
669	3.366062	0.005000	9.587842	1.543339	1.569600	0.477850	-0.188060	-0.303466	0.017619	-0.001222	0.007579
670	3.371062	0.005000	9.535320	1.509844	1.412640	0.477627	-0.188060	-0.303341	-0.003051	-0.010723	0.011172
671	3.376062	0.005000	9.574560	1.459731	1.349862	0.477092	-0.187748	-0.303333	0.008345	-0.007891	-0.003512
672	3.381062	0.005000	9.574560	1.384270	1.473620	0.476533	-0.187413	-0.303333	0.019432	-0.008514	0.013421
673	3.386062	0.005000	9.535320	1.451880	1.614900	0.475975	-0.187078	-0.303333	0.018027	-0.006158	0.011299
674	3.391062	0.005000	9.535320	1.529150	1.648080	0.475417	-0.186743	-0.303333	0.008162	-0.008124	-0.003583
675	3.396062	0.005000	9.572769	1.414431	1.648080	0.474859	-0.186408	-0.303333	0.003242	-0.004911	0.005051
676	3.401062	0.005000	9.531111	1.521943	1.565391	0.474301	-0.186073	-0.303333	0.006959	-0.009746	0.000669
677	3.406062	0.005000	9.554718	1.536974	1.491120	0.473743	-0.185739	-0.303333	0.007531	-0.012339	0.012436
678	3.411062	0.005000	9.565531	1.478968	1.482091	0.473185	-0.185404	-0.303333	0.000927	-0.003592	0.005281
679	3.416062	0.005000	9.456840	1.435513	1.597403	0.472627	-0.185069	-0.303333	0.008883	-0.009399	0.006391
680	3.421062	0.005000	9.574560	1.437736	1.558648	0.472069	-0.184734	-0.303333	0.001292	-0.005834	0.002222
681	3.426062	0.005000	9.558026	1.484948	1.631546	0.471511	-0.184399	-0.303333	0.006502	-0.009732	0.002661
682	3.431062	0.005000	9.574560	1.491120	1.528938	0.470953	-0.184064	-0.303333	0.006395	-0.013504	0.010542
683	3.436062	0.005000	9.592516	1.451880	1.494448	0.470395	-0.183729	-0.303333	0.003755	-0.007129	0.011007
684	3.441062	0.005000	9.590126	1.545926	1.506686	0.470524	-0.184019	-0.302984	0.008681	-0.012815	0.009061
685	3.446062	0.005000	9.522462	1.504311	1.556409	0.471193	-0.184800	-0.302362	-0.001186	-0.009305	0.007068
686	3.451062	0.005000	9.506881	1.541161	1.551962	0.471862	-0.185580	-0.301739	0.013732	-0.006141	0.001892
687	3.456062	0.005000	9.504506	1.583562	1.521934	0.472531	-0.186361	-0.301117	0.009903	-0.015514	0.017226
688	3.461062	0.005000	9.535320	1.569600	1.575636	0.473200	-0.187141	-0.300494	0.001015	-0.010174	0.008578
689	3.466062	0.005000	9.610570	1.569600	1.527130	0.473869	-0.187922	-0.299872	0.005678	-0.011985	0.008996
690	3.471062	0.005000	9.496080	1.453533	1.453533	0.474538	-0.188702	-0.299249	0.007749	-0.004845	0.002439
691	3.476062	0.005000	9.533747	1.568027	1.530360	0.475207	-0.189483	-0.298627	0.007941	-0.012701	0.000179
692	3.481062	0.005000	9.645144	1.538256	1.604892	0.475876	-0.190264	-0.298004	0.005561	-0.012376	0.016283
693	3.486062	0.005000	9.640363	1.629065	1.596163	0.476545	-0.191044	-0.297381	0.008866	-0.005305	0.014778
694	3.491062	0.005000	9.544033	1.569600	1.648080	0.477214	-0.191825	-0.296759	0.000107	-0.004176	0.010971
695	3.496062	0.005000	9.439807	1.451880	1.591807	0.477883	-0.192605	-0.296136	0.004186	-0.005568	0.005393
696	3.501062	0.005000	9.586843	1.503403	1.607645	0.478552	-0.193386	-0.295514	0.009996	-0.014528	0.013316
697	3.506062	0.005000	9.565638	1.562468	1.546414	0.478890	-0.194108	-0.294804	0.006594	-0.007208	0.013580
698	3.511062	0.005000	9.535320	1.528048	1.435728	0.477663	-0.194554	-0.293683	0.007353	-0.013013	0.004645
699	3.516062	0.005000	9.532810	1.527850	1.467735	0.476437	-0.195000	-0.292563	-0.000886	-0.016285	0.007570
700	3.521062	0.005000	9.597847	1.601506	1.569600	0.475210	-0.195446	-0.291442	0.000277	-0.001581	0.004273
701	3.526062	0.005000	9.613800	1.581741	1.518219	0.473984	-0.195892	-0.290321	0.006016	-0.002946	0.003054
702	3.531062	0.005000	9.636083	1.530360	1.563784	0.472757	-0.196338	-0.289201	0.002824	-0.016490	0.007787
703	3.536062	0.005000	9.574560	1.560977	1.639457	0.471530	-0.196784	-0.288080	0.002297	-0.009935	-0.000939
704	3.541062	0.005000	9.535320	1.412640	1.623090	0.470304	-0.197230	-0.286960	-0.007887	-0.008436	0.009351
705	3.546062	0.005000	9.621515	1.541932	1.471167	0.469077	-0.197676	-0.285839	0.003455	-0.005033	0.003054
706	3.551062	0.005000	9.613800	1.568118	1.646598	0.467851	-0.198122	-0.284718	0.000124	-0.010068	0.005978
707	3.556062	0.005000	9.613800	1.607003	1.647162	0.466624	-0.198568	-0.283598	-0.002026	-0.007106	0.008735
708	3.561062	0.005000	9.656362	1.608840	1.572922	0.465398	-0.199014	-0.282477	0.002130	-0.011329	0.018466
709	3.566062	0.005000	9.608061	1.569600	1.597362	0.464171	-0.199460	-0.281356	0.010855	-0.013043	0.008532
710	3.571062	0.005000	9.574560	1.574774	1.678803	0.462945	-0.199906	-0.280236	0.007532	-0.008224	0.010875
711	3.576062	0.005000	9.535320	1.597948	1.669863	0.463128	-0.199736	-0.280197	0.005782	-0.005963	0.016046
712	3.581062	0.005000	9.496685	1.634798	1.530360	0.463685	-0.199401	-0.280446	0.005581	-0.003772	0.004877
713	3.586062	0.005000	9.472497	1.656007	1.490923	0.464243	-0.199066	-0.280695	0.007832	-0.010714	0.013251
714	3.591062	0.005000	9.496080	1.524067	1.512313	0.464801	-0.198732	-0.280944	-0.004978	0.002048	0.008553
715	3.596062	0.005000	9.574560	1.508335	1.547575	0.465358	-0.198397	-0.281193	0.006797	-0.002138	0.006262
716	3.601062	0.005000	9.456840	1.569600	1.670892	0.465916	-0.198062	-0.281442	0.010658	-0.004797	0.014867
717	3.606062	0.005000	9.602666	1.479986	1.594787	0.466474	-0.197727	-0.281691	0.006932	-0.008852	0.014410
718	3.611062	0.005000	9.664703	1.601428	1.597177	0.467032	-0.197393	-0.281941	0.009478	-0.015309	0.010690
719	3.616062	0.005000	9.625176	1.461168	1.618128	0.467589	-0.197058	-0.282190	-0.002816	-0.004647	0.009586
720	3.621062	0.005000	9.535320	1.477294	1.673494	0.468147	-0.196723	-0.282439	0.002147	-0.007388	0.005791
721	3.626062	0.005000	9.465886	1.465449	1.590748	0.468705	-0.196389	-0.282688	0.000238	-0.009574	0.020015
722	3.631062	0.005000	9.572412	1.497564	1.532508	0.469263	-0.196054	-0.282937	0.007119	-0.005046	-0.002843
723	3.636062	0.005000	9.535320	1.647835	1.647590	0.469820	-0.195719	-0.283186	0.006920	-0.005229	0.009990
724	3.641062	0.005000	9.571474	1.608840	1.572686	0.470470	-0.195339	-0.283998	-0.009397	-0.014029	0.001938
725	3.646062	0.005000	9.512463	1.575061	1.603379	0.471251	-0.194892	-0.285618	0.003963	-0.008397	0.013343
726	3.651062	0.005000	9.543171	1.459731	1.624527	0.472032	-0.194446	-0.287237	-0.001353	-0.005315	0.015098
727	3.656062	0.005000	9.564334	1.530360	1.637854	0.472813	-0.194000	-0.288857	0.005805	-0.007277	0.008435
728	3.661062	0.005000	9.508696	1.568208	1.582216	0.473594	-0.193554	-0.290476	0.007724	-0.014917	0.002472
729	3.666062	0.005000	9.481089	1.491120	1.515369	0.474374	-0.193108	-0.292096	0.006714	-0.006622	-0.002749
730	3.671062	0.005000	9.535320	1.530360	1.543264	0.475155	-0.192661	-0.293715	0.006394	-0.007303	0.010901
731	3.676062	0.005000	9.633284	1.530088	1.550116	0.475936	-0.192215	-0.295335	-0.001075	-0.001164	0.005669
732	3.681062	0.005000	9.630894	1.586694	1.660121	0.476717	-0.191769	-0.296954	0.009811	-0.007816	0.002301
733	3.686062	0.005000	9.638321	1.633361	1.608840	0.477498	-0.191323	-0.298574	0.003977	-0.007445	0.007605
734	3.691062	0.005000	9.574560	1.569600	1.544943	0.478279	-0.190876	-0.300193	0.012640	-0.010866	0.009586
735	3.696062	0.005000	9.613800	1.618219	1.471787	0.479060	-0.190430	-0.301813	0.012515	-0.014429	0.018252
736	3.701062	0.005000	9.628927	1.530360	1.625389	0.479841	-0.189984	-0.303432	0.007272	-0.003922	0.004917
737	3.706062	0.005000	9.687091	1.457069	1.530360	0.480576	-0.189548	-0.305004	0.011944	-0.009000	0.008098
738	3.711062	0.005000	9.538134	1.530360	1.530360	0.479907	-0.189437	-0.305129	0.008894	-0.007767	0.006259
739	3.716062	0.005000	9.574560	1.529513	1.531631	0.479238	-0.189325	-0.305253	0.017785	-0.012653	0.009538
740	3.721062	0.005000	9.464101	1.488700	1.574441	0.478568	-0.189214	-0.305378	0.005257	-0.007147	0.008307
741	3.726062	0.005000	9.466431	1.456675	1.589659	0.477899	-0.189103	-0.305502	0.005972	-0.006642	0.005612
742	3.731062	0.005000	9.496080	1.515989	1.591156	0.477230	-0.188991	-0.305627	0.004784	-0.007851	0.005379
743	3.736062	0.005000	9.505640	1.500680	1.618400	0.476561	-0.188880	-0.305751	-0.005978	-0.006186	-0.002354
744	3.741062	0.005000	9.535320	1.412640	1.632741	0.475892	-0.188768	-0.305876	0.013768	-0.017762	-0.002049
745	3.746062	0.005000	9.692280	1.476795	1.534096	0.475223	-0.188657	-0.306000	0.002987	-0.015355	0.011634
746	3.751062	0.005000	9.663947	1.530360	1.558693	0.474554	-0.188545	-0.306125	0.007321	-0.011416	0.001928
747	3.756062	0.005000	9.573501	1.472029	1.648080	0.473885	-0.188434	-0.306249	-0.002031	-0.021343	0.007816
748	3.761062	0.005000	9.574560	1.451880	1.494841	0.473216	-0.188322	-0.306374	-0.009855	-0.007536	0.002170
749	3.766062	0.005000	9.465311	1.506504	1.482649	0.472547	-0.188211	-0.306498	-0.001611	-0.010455	0.005675
750	3.771062	0.005000	9.483086	1.556349	1.556606	0.471878	-0.188099	-0.306623	-0.001423	-0.001038	0.007488
751	3.776062	0.005000	9.496080	1.627534	1.598567	0.471931	-0.187843	-0.306022	0.006886	-0.010419	0.002795
752	3.781062	0.005000	9.558827	1.522494	1.444014	0.472377	-0.187509	-0.305026	0.002486	-0.006760	0.010389
753	3.786062	0.005000	9.506981	1.395202	1.423541	0.472823	-0.187174	-0.304029	0.001160	-0.003542	0.006721
754	3.791062	0.005000	9.538366	1.464062	1.421777	0.473269	-0.186839	-0.303032	0.005538	-0.004795	0.010296
755	3.796062	0.005000	9.497335	1.606957	1.607585	0.473716	-0.186505	-0.302036	0.004480	-0.012820	0.004668
756	3.801062	0.005000	9.574560	1.491120	1.492875	0.474162	-0.186170	-0.301039	0.006421	-0.018874	0.012856
757	3.806062	0.005000	9.570430	1.526230	1.643950	0.474608	-0.185835	-0.300042	0.016251	-0.011316	0.007259
758	3.811062	0.005000	9.502600	1.523840	1.680800	0.475054	-0.185501	-0.299046	0.016148	-0.002260	0.011691
759	3.816062	0.005000	9.635250	1.530360	1.587390	0.475500	-0.185166	-0.298049	0.006925	-0.009061	0.013030
760	3.821062	0.005000	9.574560	1.451880	1.541645	0.475947	-0.184831	-0.297052	0.007943	-0.002898	0.010000
761	3.826062	0.005000	9.560735	1.491120	1.606605	0.476393	-0.184496	-0.296056	0.008066	-0.004900	0.009333
762	3.831062	0.005000	9.535320	1.451880	1.608840	0.476839	-0.184162	-0.295059	0.012203	0.000776	0.009523
763	3.836062	0.005000	9.593208	1.416529	1.569600	0.477285	-0.183827	-0.294063	0.011830	-0.011598	0.004656
764	3.841062	0.005000	9.514261	1.509301	1.548541	0.477612	-0.183642	-0.293533	-0.000763	-0.010065	0.015998
765	3.846062	0.005000	9.629569	1.553831	1.593071	0.477612	-0.183865	-0.294280	0.004122	0.006348	0.000694
766	3.851062	0.005000	9.627161	1.570442	1.543721	0.477612	-0.184088	-0.295027	0.004888	-0.010883	0.015400
767	3.856062	0.005000	9.624616	1.530360	1.495144	0.477612	-0.184311	-0.295775	-0.000217	-0.011912	0.010556
768	3.861062	0.005000	9.526879	1.521919	1.670438	0.477612	-0.184534	-0.296522	0.004516	-0.011414	0.010306
769	3.866062	0.005000	9.541371	1.530360	1.569600	0.477612	-0.184757	-0.297269	0.001288	-0.004105	0.008212
770	3.871062	0.005000	9.581912	1.569600	1.498472	0.477612	-0.184980	-0.298016	-0.000006	0.001151	0.006849
771	3.876062	0.005000	9.496080	1.527788	1.497549	0.477612	-0.185203	-0.298763	-0.000529	-0.006575	0.009597
772	3.881062	0.005000	9.457942	1.528155	1.649182	0.477612	-0.185426	-0.299510	-0.002387	0.005041	0.008005
773	3.886062	0.005000	9.499600	1.533880	1.605320	0.477612	-0.185649	-0.300257	0.005563	-0.001764	0.009397
774	3.891062	0.005000	9.378360	1.530360	1.641772	0.477612	-0.185872	-0.301004	-0.002677	-0.009344	0.007014
775	3.896062	0.005000	9.487382	1.491120	1.469276	0.477612	-0.186095	-0.301751	-0.005634	-0.002164	-0.003533
776	3.901062	0.005000	9.535320	1.440807	1.462953	0.477612	-0.186318	-0.302498	0.005137	-0.001915	0.008568
777	3.906062	0.005000	9.575710	1.504583	1.505733	0.477612	-0.186541	-0.303246	-0.008520	-0.005442	0.003358
778	3.911062	0.005000	9.597962	1.537924	1.624678	0.477513	-0.186567	-0.303443	0.008236	-0.002808	0.010739
779	3.916062	0.005000	9.611017	1.593395	1.642513	0.477402	-0.186567	-0.303568	0.001053	0.001597	-0.001054
780	3.921062	0.005000	9.537287	1.629443	1.507790	0.477290	-0.186567	-0.303692	0.005333	-0.005588	0.006345
781	3.926062	0.005000	9.512327	1.569600	1.546607	0.477179	-0.186567	-0.303817	0.009576	-0.006099	0.011336
782	3.931062	0.005000	9.640930	1.530360	1.608840	0.477067	-0.186567	-0.303941	-0.000011	-0.009184	0.009634
783	3.936062	0.005000	9.619187	1.597683	1.603453	0.476955	-0.186567	-0.304066	0.002138	-0.003949	0.012110
784	3.941062	0.005000	9.574560	1.600098	1.617582	0.476844	-0.186567	-0.304191	-0.005854	-0.000122	0.005695
785	3.946062	0.005000	9.574560	1.510128	1.582272	0.476732	-0.186567	-0.304315	0.001019	-0.014181	0.007231
786	3.951062	0.005000	9.492161	1.675562	1.640241	0.476621	-0.186567	-0.304440	0.009144	-0.009129	0.010386
787	3.956062	0.005000	9.536835	1.533390	1.497180	0.476509	-0.186567	-0.304564	0.013340	-0.003173	0.002837
788	3.961062	0.005000	9.536213	1.532145	1.571385	0.476398	-0.186567	-0.304689	0.005587	-0.006604	0.007453
789	3.966062	0.005000	9.649773	1.533627	1.569600	0.476286	-0.186567	-0.304814	-0.002444	-0.010081	0.009162
790	3.971062	0.005000	9.574560	1.569600	1.597392	0.476174	-0.186567	-0.304938	0.008635	-0.015837	0.009685
791	3.976062	0.005000	9.512339	1.530360	1.664339	0.476175	-0.186679	-0.304937	-0.002299	-0.000747	0.007759
792	3.981062	0.005000	9.535320	1.530360	1.666253	0.476287	-0.186903	-0.304813	0.009591	-0.003634	0.018163
793	3.986062	0.005000	9.535320	1.517015	1.556255	0.476398	-0.187126	-0.304688	0.004842	-0.005167	0.013792
794	3.991062	0.005000	9.559204	1.538888	1.530360	0.476510	-0.187349	-0.304563	0.005241	-0.005386	0.001437
795	3.996062	0.005000	9.517552	1.530360	1.634015	0.476622	-0.187572	-0.304439	0.001566	-0.023036	0.009931
796	4.001062	0.005000	9.515141	1.451880	1.589779	0.476733	-0.187795	-0.304314	-0.005765	-0.012319	-0.001540
797	4.006062	0.005000	9.580498	1.451880	1.474469	0.476845	-0.188018	-0.304190	0.006062	-0.014192	0.011278
798	4.011062	0.005000	9.521252	1.558497	1.494085	0.476956	-0.188241	-0.304065	0.006622	-0.009825	0.013712
799	4.016062	0.005000	9.496080	1.597147	1.534520	0.477068	-0.188464	-0.303940	-0.002348	-0.014893	-0.001650
800	4.021062	0.005000	9.602470	1.548966	1.502450	0.477180	-0.188687	-0.303816	0.004538	-0.016921	0.019644
801	4.026062	0.005000	9.567632	1.491120	1.426497	0.477291	-0.188911	-0.303691	0.000403	-0.000667	0.009634
802	4.031062	0.005000	9.595647	1.569600	1.574138	0.477403	-0.189134	-0.303567	0.003054	-0.006142	0.010013
803	4.036062	0.005000	9.572397	1.565274	1.650243	0.477514	-0.189357	-0.303442	-0.003179	-0.007657	0.006503
804	4.041062	0.005000	9.574330	1.452110	1.570289	0.477528	-0.189580	-0.303333	0.008149	-0.006795	-0.001240
805	4.046062	0.005000	9.541462	1.530360	1.454951	0.476859	-0.189803	-0.303333	-0.005803	-0.005297	0.013157
806	4.051062	0.005000	9.428492	1.603394	1.524914	0.476190	-0.190026	-0.303333	0.002981	-0.003918	0.006317
807	4.056062	0.005000	9.527484	1.585272	1.577436	0.475521	-0.190249	-0.303333	0.012642	-0.006305	0.010538
808	4.061062	0.005000	9.545531	1.520149	1.598629	0.474852	-0.190472	-0.303333	0.009937	-0.005364	0.004021
809	4.066062	0.005000	9.547921	1.464481	1.674719	0.474183	-0.190695	-0.303333	0.007707	-0.006037	0.006551
810	4.071062	0.005000	9.535320	1.545336	1.599552	0.473514	-0.190918	-0.303333	0.007151	-0.007774	0.009013
811	4.076062	0.005000	9.557209	1.608840	1.552249	0.472845	-0.191141	-0.303333	0.008623	-0.003063	0.006582
812	4.081062	0.005000	9.515821	1.549859	1.530360	0.472176	-0.191364	-0.303333	0.012475	-0.005682	0.005710
813	4.086062	0.005000	9.569568	1.473996	1.625964	0.471507	-0.191587	-0.303333	0.003591	0.001254	0.002381
814	4.091062	0.005000	9.608838	1.584334	1.633346	0.470838	-0.191810	-0.303333	0.021215	-0.014386	0.006218
815	4.096062	0.005000	9.469199	1.544882	1.648080	0.470169	-0.192033	-0.303333	0.009502	-0.007609	0.008258
816	4.101062	0.005000	9.486111	1.569600	1.667382	0.469500	-0.192256	-0.303333	0.013956	-0.010449	-0.009138
817	4.106062	0.005000	9.574560	1.474662	1.562006	0.468831	-0.192479	-0.303333	0.009390	-0.010749	0.003931
818	4.111062	0.005000	9.618606	1.525554	1.613646	0.469152	-0.192289	-0.303149	0.014010	-0.013213	0.010521
819	4.116062	0.005000	9.538149	1.457538	1.536018	0.469821	-0.191955	-0.302900	-0.002434	-0.007116	0.003665
820	4.121062	0.005000	9.574560	1.453196	1.648519	0.470490	-0.191620	-0.302651	0.003854	-0.006154	0.005062
821	4.126062	0.005000	9.574560	1.532765	1.724155	0.471159	-0.191286	-0.302402	0.010199	-0.011090	0.003362
822	4.131062	0.005000	9.461620	1.530360	1.687320	0.471828	-0.190952	-0.302153	0.001010	-0.004290	0.011142
823	4.136062	0.005000	9.520979	1.569600	1.616010	0.472497	-0.190617	-0.301904	0.004471	-0.007154	0.007015
824	4.141062	0.005000	9.633949	1.520815	1.618385	0.473166	-0.190283	-0.301655	0.001742	-0.018971	0.008374
825	4.146062	0.005000	9.598431	1.542295	1.620775	0.473835	-0.189948	-0.301406	-0.008238	-0.012484	0.009034
826	4.151062	0.005000	9.610109	1.598221	1.491120	0.474504	-0.189614	-0.301157	0.008348	-0.015836	0.011642
827	4.156062	0.005000	9.669740	1.592140	1.631380	0.475174	-0.189279	-0.300908	-0.002636	-0.002508	0.015641
828	4.161062	0.005000	9.593866	1.529732	1.608840	0.475843	-0.188945	-0.300659	0.007974	-0.007428	0.006851
829	4.166062	0.005000	9.692280	1.530360	1.630550	0.476512	-0.188610	-0.300410	0.002928	-0.003929	0.013922
830	4.171062	0.005000	9.668161	1.530360	1.584721	0.477181	-0.188276	-0.300161	0.010606	-0.004192	0.001666
831	4.176062	0.005000	9.575678	1.530360	1.582307	0.477335	-0.188020	-0.300000	0.014521	-0.011352	0.001419
832	4.181062	0.005000	9.427900	1.491120	1.648080	0.476554	-0.187909	-0.300000	0.008400	-0.008375	0.008150
833	4.186062	0.005000	9.496080	1.491120	1.671551	0.475774	-0.187797	-0.300000	0.009903	-0.008782	0.005572
834	4.191062	0.005000	9.580039	1.530360	1.575079	0.474993	-0.187686	-0.300000	0.000599	-0.005258	0.016464
835	4.196062	0.005000	9.643964	1.491120	1.536411	0.474212	-0.187574	-0.300000	0.009382	-0.008072	0.008859
836	4.201062	0.005000	9.575861	1.493722	1.568950	0.473432	-0.187463	-0.300000	0.004300	-0.009681	0.008663
837	4.206062	0.005000	9.615560	1.573120	1.605320	0.472651	-0.187351	-0.300000	0.002744	-0.013873	0.004002
838	4.211062	0.005000	9.574560	1.499449	1.608840	0.471871	-0.187240	-0.300000	0.008310	-0.012222	0.002919
839	4.216062	0.005000	9.567979	1.569600	1.543522	0.471090	-0.187128	-0.300000	0.001067	-0.009307	0.007236
840	4.221062	0.005000	9.662027	1.560613	1.608840	0.470310	-0.187016	-0.300000	0.004213	-0.011034	0.006184
841	4.226062	0.005000	9.558123	1.530360	1.553163	0.469529	-0.186905	-0.300000	0.007040	-0.013820	0.013219
842	4.231062	0.005000	9.560750	1.465690	1.632081	0.468748	-0.186793	-0.300000	0.000137	-0.000219	0.001144
843	4.236062	0.005000	9.558338	1.474898	1.556010	0.467968	-0.186682	-0.300000	0.004474	-0.009371	0.017353
844	4.241062	0.005000	9.516688	1.449905	1.472488	0.467187	-0.186570	-0.300000	0.000426	-0.003953	-0.002788
845	4.246062	0.005000	9.553517	1.551403	1.530360	0.468030	-0.187108	-0.299154	0.003382	-0.009574	0.011708
846	4.251062	0.005000	9.590345	1.506905	1.608840	0.468922	-0.187666	-0.298282	0.001699	-0.008248	0.014187
847	4.256062	0.005000	9.613800	1.529936	1.569600	0.469815	-0.188224	-0.297410	-0.001396	-0.008869	-0.001991
848	4.261062	0.005000	9.613800	1.491120	1.491120	0.470707	-0.188782	-0.296538	0.001536	-0.014744	0.020167
849	4.266062	0.005000	9.605344	1.398768	1.508032	0.471600	-0.189339	-0.295666	-0.001607	-0.012630	0.009270
850	4.271062	0.005000	9.646959	1.524279	1.614921	0.472492	-0.189897	-0.294794	0.000836	-0.015302	0.006236
851	4.276062	0.005000	9.641967	1.494811	1.612531	0.473385	-0.190455	-0.293922	-0.002563	-0.013772	0.006466
852	4.281062	0.005000	9.574560	1.454512	1.572232	0.474277	-0.191013	-0.293050	0.001243	-0.006464	0.008454
853	4.286062	0.005000	9.536848	1.568072	1.610368	0.475170	-0.191571	-0.292178	-0.001258	-0.014876	0.016826
854	4.291062	0.005000	9.609882	1.569600	1.463634	0.476062	-0.192129	-0.291305	-0.003971	-0.011199	0.007011
855	4.296062	0.005000	9.646747	1.530360	1.497413	0.476954	-0.192686	-0.290433	-0.003085	-0.010830	0.012719
856	4.301062	0.005000	9.613800	1.521677	1.469246	0.477847	-0.193244	-0.289561	0.004096	-0.003422	0.002271
857	4.306062	0.005000	9.641982	1.502178	1.530360	0.478739	-0.193802	-0.288689	0.008509	-0.008034	0.001698
858	4.311062	0.005000	9.548768	1.516912	1.581944	0.479038	-0.193634	-0.289069	0.000198	-0.010815	0.015972
859	4.316062	0.005000	9.566331	1.475297	1.546183	0.478927	-0.192965	-0.290315	0.010078	-0.001865	0.002707
860	4.321062	0.005000	9.632226	1.449493	1.608840	0.478815	-0.192296	-0.291560	0.018046	-0.018243	0.010409
861	4.326062	0.005000	9.590529	1.410206	1.742529	0.478704	-0.191627	-0.292805	0.006269	-0.005149	0.008702
862	4.331062	0.005000	9.510588	1.475127	1.726560	0.478592	-0.190958	-0.294050	0.009163	-0.005359	0.006171
863	4.336062	0.005000	9.509660	1.583180	1.673740	0.478481	-0.190289	-0.295295	0.003129	-0.007710	0.000319
864	4.341062	0.005000	9.563388	1.519188	1.591944	0.478369	-0.189620	-0.296540	0.003492	-0.000556	0.000414
865	4.346062	0.005000	9.574560	1.451880	1.560843	0.478258	-0.188951	-0.297786	0.005994	-0.010277	0.006809
866	4.351062	0.005000	9.535320	1.556893	1.582307	0.478146	-0.188282	-0.299031	-0.005588	-0.005935	0.000055
867	4.356062	0.005000	9.621606	1.479412	1.538166	0.478035	-0.187613	-0.300276	0.003020	-0.013930	0.002511
868	4.361062	0.005000	9.692280	1.488095	1.645055	0.477923	-0.186944	-0.301521	0.003495	-0.017158	0.001675
869	4.366062	0.005000	9.730647	1.489375	1.607967	0.477812	-0.186275	-0.302766	0.000589	-0.013554	0.007372
870	4.371062	0.005000	9.662911	1.487830	1.530360	0.477700	-0.185606	-0.304012	-0.001116	-0.012895	0.007881
871	4.376062	0.005000	9.635954	1.496815	1.541751	0.477543	-0.185190	-0.304795	-0.005864	-0.006573	0.003544
872	4.381062	0.005000	9.527209	1.545266	1.616951	0.477208	-0.185747	-0.303798	0.008862	-0.008707	-0.007899
873	4.386062	0.005000	9.585078	1.509324	1.608840	0.476874	-0.186305	-0.302802	0.002038	-0.001527	0.009721
874	4.391062	0.005000	9.600868	1.491120	1.464812	0.476539	-0.186862	-0.301806	0.006221	-0.009526	0.012650
875	4.396062	0.005000	9.550661	1.491120	1.545701	0.476205	-0.187420	-0.300810	0.007536	-0.010557	0.005892
876	4.401062	0.005000	9.613800	1.551847	1.565866	0.475870	-0.187977	-0.299814	0.009500	-0.010036	-0.001206
877	4.406062	0.005000	9.516471	1.530360	1.549209	0.475536	-0.188535	-0.298818	0.008349	-0.014152	0.005854
878	4.411062	0.005000	9.551794	1.520179	1.641787	0.475201	-0.189092	-0.297822	-0.002099	-0.014378	-0.001974
879	4.416062	0.005000	9.549403	1.530360	1.619913	0.474867	-0.189650	-0.296826	0.008047	-0.011030	0.014004
880	4.421062	0.005000	9.558737	1.542068	1.518652	0.474532	-0.190207	-0.295830	0.003033	-0.009913	-0.001145
881	4.426062	0.005000	9.585845	1.481802	1.578918	0.474197	-0.190765	-0.294833	0.001527	-0.001655	-0.002840
882	4.431062	0.005000	9.496080	1.491120	1.594953	0.473863	-0.191322	-0.293837	0.000881	-0.006869	-0.001431
883	4.436062	0.005000	9.456840	1.530360	1.573749	0.473528	-0.191880	-0.292841	0.005896	-0.003665	0.005547
884	4.441062	0.005000	9.535320	1.491120	1.646335	0.473194	-0.192437	-0.291845	0.005298	-0.007866	0.012142
885	4.446062	0.005000	9.535320	1.375397	1.570266	0.471851	-0.193728	-0.289621	-0.000275	-0.003895	0.002550
886	4.451062	0.005000	9.499157	1.448803	1.638848	0.470290	-0.195178	-0.287129	0.004869	-0.009874	0.007811
887	4.456062	0.005000	9.569066	1.530360	1.457374	0.468728	-0.196629	-0.284638	0.005385	-0.001839	0.008015
888	4.461062	0.005000	9.574560	1.530360	1.624380	0.467166	-0.198079	-0.282146	0.000676	0.004485	0.004855
889	4.466062	0.005000	9.611780	1.511750	1.503455	0.465604	-0.199529	-0.279655	0.014819	-0.000190	0.005035
890	4.471062	0.005000	9.574560	1.478080	1.556560	0.464042	-0.200979	-0.277163	0.013108	-0.010114	0.010394
891	4.476062	0.005000	9.559145	1.554185	1.467295	0.462481	-0.202430	-0.274672	0.009145	-0.011467	0.006967
892	4.481062	0.005000	9.631605	1.591035	1.612471	0.460919	-0.203880	-0.272180	0.014351	-0.006109	0.010718
893	4.486062	0.005000	9.614919	1.530360	1.587541	0.459357	-0.205330	-0.269689	0.017534	-0.012745	0.008821
894	4.491062	0.005000	9.490180	1.519589	1.670650	0.457795	-0.206780	-0.267197	0.019106	-0.008883	0.017158
895	4.496062	0.005000	9.524067	1.491120	1.566859	0.456233	-0.208231	-0.264705	0.009399	0.000625	-0.002596
896	4.501062	0.005000	9.558491	1.534844	1.518775	0.454672	-0.209681	-0.262214	0.008674	-0.008986	-0.000450
897	4.506062	0.005000	9.604629	1.560429	1.548702	0.453110	-0.211131	-0.259722	0.005074	-0.014237	0.005678
898	4.511062	0.005000	9.496080	1.602154	1.687320	0.452831	-0.211397	-0.259600	0.012100	-0.018303	0.011678
899	4.516062	0.005000	9.539616	1.652376	1.526064	0.454169	-0.210171	-0.262464	-0.000633	-0.008236	0.009251
900	4.521062	0.005000	9.535320	1.571521	1.604998	0.455507	-0.208944	-0.265328	0.003772	-0.007240	0.006087
901	4.526062	0.005000	9.535320	1.570074	1.491594	0.456845	-0.207718	-0.268192	0.007586	-0.009322	0.017328
902	4.531062	0.005000	9.535320	1.527482	1.533238	0.458183	-0.206491	-0.271056	0.000986	-0.002535	0.006130
903	4.536062	0.005000	9.597954	1.501684	1.457162	0.459521	-0.205264	-0.273920	0.009012	-0.006204	0.019424
904	4.541062	0.005000	9.464538	1.616538	1.459578	0.460859	-0.204038	-0.276784	0.009184	-0.009468	0.014851
905	4.546062	0.005000	9.574560	1.590506	1.577481	0.462197	-0.202811	-0.279648	0.014086	-0.019239	0.008880
906	4.551062	0.005000	9.390432	1.451124	1.608840	0.463535	-0.201585	-0.282512	0.014374	-0.007342	0.014398
907	4.556062	0.005000	9.426404	1.436662	1.593622	0.464874	-0.200358	-0.285376	0.005136	-0.000341	0.002802
908	4.561062	0.005000	9.478487	1.516821	1.604786	0.466212	-0.199131	-0.288240	0.009869	-0.013844	0.005649
909	4.566062	0.005000	9.534594	1.549617	1.570326	0.467550	-0.197905	-0.291103	0.004390	-0.011091	0.005400
910	4.571062	0.005000	9.529844	1.597434	1.575076	0.468888	-0.196678	-0.293967	0.005320	-0.010529	0.007359
911	4.576062	0.005000	9.617167	1.541195	1.544562	0.470149	-0.195509	-0.296660	0.004225	-0.006607	0.012283
912	4.581062	0.005000	9.664829	1.557811	1.651953	0.470149	-0.195286	-0.296535	-0.002283	-0.009076	0.003272
913	4.586062	0.005000	9.524224	1.549123	1.511597	0.470149	-0.195063	-0.296411	0.004382	-0.012111	0.008238
914	4.591062	0.005000	9.606834	1.544292	1.608840	0.470149	-0.194840	-0.296286	0.006947	-0.007701	0.000703
915	4.596062	0.005000	9.570052	1.648080	1.495628	0.470149	-0.194617	-0.296161	0.006147	-0.015616	0.011773
916	4.601062	0.005000	9.456840	1.532478	1.571718	0.470149	-0.194394	-0.296037	0.003841	-0.009957	0.010694
917	4.606062	0.005000	9.495820	1.608580	1.608840	0.470149	-0.194171	-0.295912	0.006597	-0.019013	0.008354
918	4.611062	0.005000	9.501436	1.648080	1.530360	0.470149	-0.193947	-0.295788	0.010094	-0.011252	0.011956
919	4.616062	0.005000	9.535320	1.535851	1.614331	0.470149	-0.193724	-0.295663	0.007306	-0.006634	0.008854
920	4.621062	0.005000	9.582426	1.491120	1.561734	0.470149	-0.193501	-0.295538	0.013028	-0.010794	0.015428
921	4.626062	0.005000	9.555833	1.470607	1.617311	0.470149	-0.193278	-0.295414	0.010615	-0.003743	0.001451
922	4.631062	0.005000	9.613800	1.503751	1.582231	0.470149	-0.193055	-0.295289	0.009756	-0.005382	0.007464
923	4.636062	0.005000	9.638034	1.530360	1.618068	0.470149	-0.192832	-0.295165	-0.002328	-0.006173	0.008394
924	4.641062	0.005000	9.722001	1.530360	1.687320	0.470149	-0.192609	-0.295040	0.008448	-0.009364	-0.000157
925	4.646062	0.005000	9.593790	1.588049	1.746570	0.470754	-0.192840	-0.295084	0.015630	-0.011948	0.004338
926	4.651062	0.005000	9.653040	1.535961	1.563999	0.471646	-0.193286	-0.295209	0.004868	-0.012959	0.002559
927	4.656062	0.005000	9.638633	1.462306	1.530360	0.472538	-0.193732	-0.295334	0.009537	-0.015072	0.012605
928	4.661062	0.005000	9.601801	1.409396	1.530360	0.473431	-0.194178	-0.295458	0.000515	-0.002576	0.007434
929	4.666062	0.005000	9.563729	1.500590	1.676489	0.474323	-0.194624	-0.295583	0.000408	-0.007277	0.007184
930	4.671062	0.005000	9.581655	1.433924	1.687320	0.475215	-0.195070	-0.295707	0.001671	-0.016081	0.017607
931	4.676062	0.005000	9.599686	1.456585	1.604135	0.476107	-0.195516	-0.295832	0.005277	-0.003181	0.002579
932	4.681062	0.005000	9.537650	1.484131	1.569600	0.476999	-0.195962	-0.295956	0.007206	-0.014236	0.012740
933	4.686062	0.005000	9.574560	1.490936	1.530421	0.477891	-0.196408	-0.296081	0.000466	-0.005675	0.008827
934	4.691062	0.005000	9.608870	1.598980	1.608840	0.478783	-0.196854	-0.296205	0.003486	-0.016638	0.000098
935	4.696062	0.005000	9.579442	1.466526	1.657844	0.479675	-0.197300	-0.296330	0.002049	-0.007921	0.005384
936	4.701062	0.005000	9.581848	1.555025	1.576888	0.480568	-0.197746	-0.296454	0.005850	-0.009531	-0.000063
937	4.706062	0.005000	9.574560	1.588751	1.618884	0.481460	-0.198192	-0.296579	-0.002533	-0.010690	0.011558
938	4.711062	0.005000	9.562125	1.594469	1.542795	0.481959	-0.198245	-0.296740	-0.002075	-0.003476	-0.004974
939	4.716062	0.005000	9.510890	1.554790	1.594030	0.481513	-0.197353	-0.296989	-0.002416	-0.009237	0.001582
940	4.721062	0.005000	9.657911	1.525489	1.559858	0.481066	-0.196460	-0.297238	0.004742	0.001106	-0.002203
941	4.726062	0.005000	9.594225	1.510785	1.510876	0.480620	-0.195568	-0.297487	0.008846	-0.001173	-0.002798
942	4.731062	0.005000	9.591850	1.469170	1.530360	0.480174	-0.194675	-0.297737	0.009986	-0.007025	0.006683
943	4.736062	0.005000	9.657647	1.441871	1.559591	0.479728	-0.193783	-0.297986	0.005004	-0.003126	0.000914
944	4.741062	0.005000	9.626002	1.500689	1.557398	0.479281	-0.192890	-0.298235	0.015740	-0.013800	0.009651
945	4.746062	0.005000	9.554971	1.618696	1.569600	0.478835	-0.191998	-0.298484	0.011969	-0.005325	0.007976
946	4.751062	0.005000	9.606420	1.625941	1.554841	0.478389	-0.191105	-0.298733	0.006376	-0.010575	0.011969
947	4.756062	0.005000	9.540294	1.603866	1.510465	0.477942	-0.190213	-0.298982	0.010198	-0.007729	0.014727
948	4.761062	0.005000	9.618852	1.564548	1.449354	0.477496	-0.189321	-0.299231	0.004303	-0.015325	0.008991
949	4.766062	0.005000	9.613649	1.490817	1.530663	0.477050	-0.188428	-0.299480	0.008853	-0.009526	0.010089
950	4.771062	0.005000	9.611535	1.486590	1.608840	0.476603	-0.187536	-0.299730	-0.003947	-0.001209	-0.001962
951	4.776062	0.005000	9.682941	1.555591	1.643410	0.476157	-0.186643	-0.299979	-0.007965	-0.012171	0.005227
952	4.781062	0.005000	9.653040	1.530360	1.601754	0.476425	-0.186465	-0.300000	-0.005269	-0.011893	0.007082
953	4.786062	0.005000	9.563797	1.608840	1.599348	0.476760	-0.186354	-0.300000	0.000355	-0.003045	0.002626
954	4.791062	0.005000	9.640817	1.581823	1.635857	0.477094	-0.186242	-0.300000	0.014745	-0.010099	0.010876
955	4.796062	0.005000	9.638427	1.515747	1.633467	0.477429	-0.186131	-0.300000	0.004334	-0.003422	-0.002394
956	4.801062	0.005000	9.535320	1.525096	1.542084	0.477763	-0.186019	-0.300000	0.008380	-0.014542	0.006080
957	4.806062	0.005000	9.535320	1.530360	1.510982	0.478098	-0.185908	-0.300000	-0.002454	-0.011677	0.005851
958	4.811062	0.005000	9.491814	1.517139	1.573866	0.478432	-0.185796	-0.300000	0.005270	-0.015349	0.008896
959	4.816062	0.005000	9.535320	1.545180	1.466700	0.478767	-0.185685	-0.300000	0.006664	-0.009788	0.012773
960	4.821062	0.005000	9.547732	1.544777	1.400228	0.479101	-0.185573	-0.300000	0.000779	0.009995	0.000527
961	4.826062	0.005000	9.555315	1.471875	1.530360	0.479436	-0.185462	-0.300000	0.008279	-0.012168	0.008556
962	4.831062	0.005000	9.558093	1.624022	1.545542	0.479771	-0.185350	-0.300000	0.002026	-0.007891	0.005039
963	4.836062	0.005000	9.624150	1.559250	1.608840	0.480105	-0.185239	-0.300000	0.008512	-0.003802	0.011372
964	4.841062	0.005000	9.535320	1.575140	1.645310	0.480440	-0.185127	-0.300000	-0.000879	-0.008148	0.002340
965	4.846062	0.005000	9.495384	1.608840	1.648080	0.480597	-0.185075	-0.300132	-0.003165	-0.006417	-0.002932
966	4.851062	0.005000	9.491977	1.534463	1.610892	0.480597	-0.185075	-0.300381	0.005505	-0.015753	0.012695
967	4.856062	0.005000	9.456840	1.495589	1.500058	0.480597	-0.185075	-0.300630	0.014597	-0.011960	0.002427
968	4.861062	0.005000	9.398983	1.491120	1.595091	0.480597	-0.185075	-0.300879	0.010690	-0.008485	0.005161
969	4.866062	0.005000	9.525684	1.481484	1.677684	0.480597	-0.185075	-0.301128	0.009293	0.000161	0.007992
970	4.871062	0.005000	9.484054	1.636054	1.539225	0.480597	-0.185075	-0.301377	0.017516	-0.003588	0.004704
971	4.876062	0.005000	9.378360	1.466281	1.594439	0.480597	-0.185075	-0.301626	0.008102	-0.006152	0.015314
972	4.881062	0.005000	9.535320	1.536018	1.513569	0.480597	-0.185075	-0.301875	0.005097	-0.005885	0.004517
973	4.886062	0.005000	9.575468	1.510286	1.648080	0.480597	-0.185075	-0.302124	0.005935	-0.010829	0.006222
974	4.891062	0.005000	9.570687	1.451880	1.648080	0.480597	-0.185075	-0.302373	0.001908	-0.000570	0.012426
975	4.896062	0.005000	9.637731	1.451880	1.515051	0.480597	-0.185075	-0.302622	0.007828	-0.008418	0.007314
976	4.901062	0.005000	9.574560	1.555581	1.582211	0.480597	-0.185075	-0.302871	0.002429	-0.009512	0.002112
977	4.906062	0.005000	9.623997	1.501317	1.619037	0.480597	-0.185075	-0.303120	-0.010701	-0.008349	0.004798
978	4.911062	0.005000	9.676694	1.546221	1.616633	0.480565	-0.185075	-0.303351	-0.003155	-0.021484	0.008960
979	4.916062	0.005000	9.653040	1.485733	1.603453	0.480342	-0.185075	-0.303476	-0.006724	-0.016166	-0.000319
980	4.921062	0.005000	9.650070	1.524420	1.566630	0.480119	-0.185075	-0.303600	-0.001369	-0.012406	0.002876
981	4.926062	0.005000	9.650801	1.570160	1.530920	0.479895	-0.185075	-0.303725	-0.003752	-0.014351	0.003175
982	4.931062	0.005000	9.458692	1.646228	1.532212	0.479672	-0.185075	-0.303849	0.003617	-0.014377	0.012452
983	4.936062	0.005000	9.574560	1.639568	1.687320	0.479449	-0.185075	-0.303974	0.001256	-0.018024	0.013536
984	4.941062	0.005000	9.535320	1.615513	1.615513	0.479226	-0.185075	-0.304099	0.009898	-0.008283	0.001320
985	4.946062	0.005000	9.553478	1.617919	1.548518	0.479003	-0.185075	-0.304223	0.010801	-0.009995	0.009459
986	4.951062	0.005000	9.563067	1.597347	1.491120	0.478780	-0.185075	-0.304348	0.007433	-0.007861	0.011142
987	4.956062	0.005000	9.521418	1.622742	1.555698	0.478557	-0.185075	-0.304472	0.013234	-0.009820	0.019505
988	4.961062	0.005000	9.659121	1.540858	1.575681	0.478334	-0.185075	-0.304597	0.004072	-0.003157	0.013506
989	4.966062	0.005000	9.574560	1.372099	1.550630	0.478111	-0.185075	-0.304722	0.016611	-0.002237	0.005298
990	4.971062	0.005000	9.556665	1.430535	1.526911	0.477887	-0.185075	-0.304846	0.016386	-0.007089	0.011323
991	4.976062	0.005000	9.496080	1.569600	1.593335	0.477664	-0.185075	-0.304971	0.014366	-0.003469	0.005323
992	4.981062	0.005000	9.496080	1.556470	1.648080	0.477612	-0.185075	-0.304619	0.023546	-0.007986	0.009850
993	4.986062	0.005000	9.546060	1.508879	1.648080	0.477612	-0.185075	-0.304121	0.014120	-0.007004	0.011083
994	4.991062	0.005000	9.535320	1.451880	1.608840	0.477612	-0.185075	-0.303622	0.001634	-0.010530	0.009323
995	4.996062	0.005000	9.535320	1.608840	1.720972	0.477612	-0.185075	-0.303124	0.001283	-0.015597	0.009504
996	5.001062	0.005000	9.535320	1.533543	1.684137	0.477612	-0.185075	-0.302626	0.006436	-0.010318	0.000219
997	5.006062	0.005000	9.572263	1.492651	1.607309	0.477612	-0.185075	-0.302128	0.012577	-0.009693	0.011534
998	5.011062	0.005000	9.456840	1.494357	1.492739	0.477612	-0.185075	-0.301630	0.005501	-0.008450	0.000543
999	5.016062	0.005000	9.605783	1.495129	1.408631	0.477612	-0.185075	-0.301132	0.004424	-0.016704	-0.001228
1000	5.021062	0.005000	9.568099	1.451880	1.563139	0.477612	-0.185075	-0.300634	0.009170	-0.006820	0.005220
1001	5.026062	0.005000	9.453106	1.521484	1.578476	0.477612	-0.185075	-0.300136	0.007335	-0.010726	0.006167
1002	5.031062	0.005000	9.630473	1.507793	1.541644	0.477612	-0.185075	-0.299638	0.010975	-0.010814	0.014588
1003	5.036062	0.005000	9.615652	1.518515	1.514811	0.477612	-0.185075	-0.299140	-0.003481	-0.011472	0.009263
1004	5.041062	0.005000	9.472946	1.491120	1.624946	0.477612	-0.185075	-0.298642	-0.007434	-0.011723	0.005846
1005	5.046062	0.005000	9.477322	1.511602	1.586633	0.477654	-0.185117	-0.298286	0.006609	-0.013274	0.009544
1006	5.051062	0.005000	9.592652	1.611896	1.491120	0.477766	-0.185229	-0.298161	-0.002684	-0.014529	0.005469
1007	5.056062	0.005000	9.637323	1.538272	1.483314	0.477877	-0.185340	-0.298037	-0.003642	-0.012800	0.022383
1008	5.061062	0.005000	9.613800	1.543687	1.687320	0.477989	-0.185452	-0.297912	-0.000311	-0.008240	0.000932
1009	5.066062	0.005000	9.496080	1.447312	1.626176	0.478101	-0.185564	-0.297788	-0.006010	-0.016732	0.006239
1010	5.071062	0.005000	9.465402	1.399086	1.578162	0.478212	-0.185675	-0.297663	0.002178	-0.009959	0.002478
1011	5.076062	0.005000	9.574560	1.536547	1.503494	0.478324	-0.185787	-0.297538	0.002790	-0.017582	0.016769
1012	5.081062	0.005000	9.617182	1.494502	1.605458	0.478435	-0.185898	-0.297414	0.003596	-0.011591	0.011706
1013	5.086062	0.005000	9.574560	1.489191	1.568635	0.478547	-0.186010	-0.297289	0.002838	-0.007891	-0.000641
1014	5.091062	0.005000	9.612378	1.412640	1.568178	0.478658	-0.186121	-0.297165	0.006537	-0.016025	0.005644
1015	5.096062	0.005000	9.574560	1.530360	1.605043	0.478770	-0.186233	-0.297040	0.002723	-0.005846	0.009648
1016	5.101062	0.005000	9.535320	1.536547	1.648080	0.478881	-0.186344	-0.296916	0.014360	-0.003196	0.001177
1017	5.106062	0.005000	9.496080	1.451880	1.508244	0.478993	-0.186456	-0.296791	0.009307	-0.008274	0.000600
1018	5.111062	0.005000	9.557480	1.558520	1.480040	0.479104	-0.186566	-0.296668	0.009157	-0.008858	-0.000299
1019	5.116062	0.005000	9.586823	1.530360	1.504608	0.478992	-0.186120	-0.297166	0.015389	-0.006306	0.007278
1020	5.121062	0.005000	9.692280	1.585501	1.507021	0.478881	-0.185674	-0.297664	0.003237	0.002917	0.002392
1021	5.126062	0.005000	9.632111	1.608840	1.506813	0.478769	-0.185228	-0.298162	0.010333	-0.011888	0.007514
1022	5.131062	0.005000	9.692280	1.668802	1.470398	0.478658	-0.184782	-0.298660	0.003736	-0.008449	0.000151
1023	5.136062	0.005000	9.551234	1.537772	1.578101	0.478546	-0.184336	-0.299158	0.009930	-0.007955	0.003426
1024	5.141062	0.005000	9.535320	1.556061	1.568223	0.478435	-0.183890	-0.299656	0.003210	-0.015239	0.018631
1025	5.146062	0.005000	9.507229	1.423789	1.440731	0.478324	-0.183444	-0.300154	-0.004108	-0.013674	0.009647
1026	5.151062	0.005000	9.526546	1.460654	1.552052	0.478212	-0.182998	-0.300652	0.006402	-0.008744	0.012644
1027	5.156062	0.005000	9.574560	1.491120	1.548358	0.478101	-0.182552	-0.301150	-0.002353	-0.005377	0.003621
1028	5.161062	0.005000	9.535320	1.491120	1.498285	0.477989	-0.182106	-0.301648	0.000194	-0.011793	0.003924
1029	5.166062	0.005000	9.537677	1.451880	1.567243	0.477878	-0.181660	-0.302146	0.001340	-0.002175	0.006300
1030	5.171062	0.005000	9.689829	1.489895	1.491120	0.477766	-0.181214	-0.302644	-0.001045	0.000692	-0.004844
1031	5.176062	0.005000	9.685079	1.573200	1.455480	0.477655	-0.180768	-0.303142	0.003509	-0.003399	0.013153
1032	5.181062	0.005000	9.665161	1.464001	1.472939	0.477268	-0.180735	-0.303487	-0.007654	-0.011380	-0.003532
1033	5.186062	0.005000	9.653040	1.552667	1.508053	0.476710	-0.180958	-0.303736	-0.002011	-0.012543	0.010796
1034	5.191062	0.005000	9.653040	1.445251	1.462750	0.476152	-0.181181	-0.303985	-0.001136	0.001527	0.006443
1035	5.196062	0.005000	9.587232	1.477836	1.569600	0.475595	-0.181404	-0.304234	0.002775	-0.006301	-0.005920
1036	5.201062	0.005000	9.597826	1.451880	1.546334	0.475037	-0.181627	-0.304483	0.000196	-0.007039	0.003289
1037	5.206062	0.005000	9.553669	1.493661	1.486037	0.474479	-0.181850	-0.304733	-0.000618	-0.004981	0.005913
1038	5.211062	0.005000	9.613800	1.551099	1.548861	0.473921	-0.182073	-0.304982	0.003864	-0.008359	0.010883
1039	5.216062	0.005000	9.629926	1.578737	1.539497	0.473363	-0.182296	-0.305231	0.000688	-0.001980	0.010256
1040	5.221062	0.005000	9.561123	1.634643	1.556163	0.472805	-0.182519	-0.305480	0.009970	-0.010700	0.017419
1041	5.226062	0.005000	9.574560	1.626033	1.608840	0.472248	-0.182743	-0.305729	0.002113	-0.004399	0.012025
1042	5.231062	0.005000	9.622416	1.530360	1.600224	0.471690	-0.182966	-0.305979	0.000552	-0.000072	0.008767
1043	5.236062	0.005000	9.555958	1.569600	1.635679	0.471132	-0.183189	-0.306228	0.008594	-0.002566	0.011312
1044	5.241062	0.005000	9.610005	1.580986	1.569600	0.470574	-0.183412	-0.306477	0.001896	-0.001408	-0.003477
1045	5.246062	0.005000	9.535320	1.493876	1.607462	0.470282	-0.183662	-0.306519	-0.001406	-0.001493	0.008038
1046	5.251062	0.005000	9.497094	1.493147	1.569600	0.470839	-0.183996	-0.305896	0.001271	0.003584	0.010985
1047	5.256062	0.005000	9.528513	1.634466	1.533764	0.471397	-0.184331	-0.305274	0.004122	-0.007472	0.003157
1048	5.261062	0.005000	9.574560	1.536208	1.630535	0.471954	-0.184665	-0.304651	0.001777	0.003327	0.009685
1049	5.266062	0.005000	9.582824	1.437433	1.617104	0.472512	-0.185000	-0.304028	-0.005366	0.003753	0.000693
1050	5.271062	0.005000	9.624471	1.498346	1.601614	0.473069	-0.185334	-0.303406	0.012197	-0.006188	0.006829
1051	5.276062	0.005000	9.574560	1.556515	1.582685	0.473627	-0.185669	-0.302783	0.005274	-0.002269	0.007702
1052	5.281062	0.005000	9.581784	1.506608	1.593352	0.474185	-0.186003	-0.302160	0.007105	-0.003003	0.011507
1053	5.286062	0.005000	9.513978	1.555147	1.526915	0.474742	-0.186338	-0.301538	0.010123	-0.012497	0.014979
1054	5.291062	0.005000	9.494265	1.590128	1.472408	0.475300	-0.186673	-0.300915	0.007015	-0.014873	0.008894
1055	5.296062	0.005000	9.590882	1.484525	1.530360	0.475857	-0.187007	-0.300293	-0.004215	-0.008751	0.007437
1056	5.301062	0.005000	9.689678	1.465827	1.622787	0.476415	-0.187342	-0.299670	0.001306	-0.008752	-0.000421
1057	5.306062	0.005000	9.602243	1.514234	1.608840	0.476972	-0.187676	-0.299047	0.001243	-0.006377	0.006275
1058	5.311062	0.005000	9.583742	1.560418	1.668956	0.477530	-0.188011	-0.298425	0.002256	-0.003771	0.013381
1059	5.316062	0.005000	9.653040	1.583184	1.576392	0.477612	-0.187965	-0.298439	0.009252	-0.010334	0.012013
1060	5.321062	0.005000	9.565726	1.560766	1.613257	0.477612	-0.187853	-0.298564	0.001673	-0.013224	0.003380
1061	5.326062	0.005000	9.462921	1.573654	1.569600	0.477612	-0.187742	-0.298688	0.000356	-0.020224	0.002327
1062	5.331062	0.005000	9.457896	1.609192	1.608488	0.477612	-0.187630	-0.298813	-0.001898	-0.008011	0.011114
1063	5.336062	0.005000	9.423984	1.491120	1.566408	0.477612	-0.187518	-0.298938	0.004765	-0.002627	0.005742
1064	5.341062	0.005000	9.462422	1.586512	1.636916	0.477612	-0.187407	-0.299062	0.004095	-0.007476	0.015384
1065	5.346062	0.005000	9.550689	1.467794	1.648080	0.477612	-0.187295	-0.299187	-0.003668	-0.005892	0.017815
1066	5.351062	0.005000	9.545667	1.567452	1.598493	0.477612	-0.187184	-0.299311	0.004283	-0.001376	0.006567
1067	5.356062	0.005000	9.535320	1.556878	1.569600	0.477612	-0.187072	-0.299436	0.004356	-0.007230	0.010998
1068	5.361062	0.005000	9.496080	1.521344	1.500136	0.477612	-0.186960	-0.299561	0.012682	-0.002556	0.009259
1069	5.366062	0.005000	9.496080	1.512873	1.530360	0.477612	-0.186849	-0.299685	0.003573	0.000530	0.005694
1070	5.371062	0.005000	9.515458	1.549738	1.588494	0.477612	-0.186737	-0.299810	0.000393	-0.005716	0.001381
1071	5.376062	0.005000	9.490816	1.518636	1.625828	0.477612	-0.186626	-0.299934	0.006527	-0.001014	0.003118
1072	5.381062	0.005000	9.564546	1.427253	1.633467	0.477612	-0.186726	-0.299587	0.009792	-0.011793	0.014533
1073	5.386062	0.005000	9.535320	1.503343	1.623634	0.477612	-0.187060	-0.298715	0.009508	-0.007182	0.000054
1074	5.391062	0.005000	9.535320	1.491120	1.539852	0.477612	-0.187395	-0.297844	0.014930	-0.012382	0.005963
1075	5.396062	0.005000	9.496080	1.419726	1.608840	0.477612	-0.187729	-0.296972	0.018277	-0.008677	0.009392
1076	5.401062	0.005000	9.456840	1.491120	1.560261	0.477612	-0.188064	-0.296100	0.011487	-0.006890	0.007724
1077	5.406062	0.005000	9.535320	1.569600	1.497915	0.477612	-0.188398	-0.295229	0.001204	-0.006469	0.010604
1078	5.411062	0.005000	9.496231	1.569600	1.569751	0.477612	-0.188733	-0.294357	0.003151	-0.001617	0.009363
1079	5.416062	0.005000	9.569508	1.567074	1.603788	0.477612	-0.189067	-0.293485	0.004603	-0.005389	0.009003
1080	5.421062	0.005000	9.648124	1.491120	1.432305	0.477612	-0.189402	-0.292614	-0.003180	0.000883	0.000976
1081	5.426062	0.005000	9.621091	1.466463	1.444589	0.477612	-0.189736	-0.291742	-0.004247	-0.015618	0.000748
1082	5.431062	0.005000	9.515443	1.569600	1.569600	0.477612	-0.190071	-0.290871	-0.005797	-0.013976	0.014284
1083	5.436062	0.005000	9.417600	1.475993	1.463936	0.477612	-0.190406	-0.289999	-0.002825	-0.005346	0.006993
1084	5.441062	0.005000	9.481634	1.623286	1.383747	0.477612	-0.190740	-0.289127	0.000869	-0.013295	0.007554
1085	5.446062	0.005000	9.545700	1.631055	1.491120	0.477503	-0.191124	-0.288256	0.002948	-0.009529	-0.000477
1086	5.451062	0.005000	9.633236	1.510189	1.491120	0.476276	-0.192016	-0.287384	0.011419	-0.017410	0.016103
1087	5.456062	0.005000	9.557168	1.495575	1.525905	0.475050	-0.192908	-0.286512	-0.005526	-0.012699	0.005943
1088	5.461062	0.005000	9.550309	1.530360	1.554611	0.473823	-0.193800	-0.285641	-0.003782	-0.008287	0.010715
1089	5.466062	0.005000	9.562125	1.648080	1.567664	0.472597	-0.194692	-0.284769	0.000195	-0.012819	0.016720
1090	5.471062	0.005000	9.622907	1.588751	1.647142	0.471370	-0.195584	-0.283898	0.006469	-0.004163	0.017715
1091	5.476062	0.005000	9.535320	1.577269	1.498789	0.470143	-0.196476	-0.283026	0.008753	-0.010892	0.009737
1092	5.481062	0.005000	9.574560	1.559041	1.603561	0.468917	-0.197369	-0.282155	0.004065	-0.004597	0.005653
1093	5.486062	0.005000	9.538224	1.575409	1.687320	0.467690	-0.198261	-0.281283	0.005565	-0.015818	-0.001719
1094	5.491062	0.005000	9.611743	1.608326	1.686291	0.466464	-0.199153	-0.280411	0.005772	-0.006283	-0.001338
1095	5.496062	0.005000	9.531554	1.606957	1.608840	0.465237	-0.200045	-0.279540	0.004257	-0.010440	0.006889
1096	5.501062	0.005000	9.465441	1.530360	1.613140	0.464011	-0.200937	-0.278668	0.006769	-0.007893	0.004276
1097	5.506062	0.005000	9.567854	1.550478	1.641374	0.462784	-0.201829	-0.277797	-0.005689	-0.006378	-0.001584
1098	5.511062	0.005000	9.585391	1.569600	1.657550	0.461557	-0.202721	-0.276925	0.002704	-0.012476	0.024588
1099	5.516062	0.005000	9.625660	1.554079	1.518500	0.461743	-0.202436	-0.277456	-0.003586	-0.004584	0.009972
1100	5.521062	0.005000	9.563789	1.594605	1.544595	0.462524	-0.201655	-0.278576	0.004671	-0.020121	0.001903
1101	5.526062	0.005000	9.574560	1.546985	1.524370	0.463305	-0.200874	-0.279697	0.004605	-0.012440	0.017045
1102	5.531062	0.005000	9.554320	1.472120	1.550600	0.464085	-0.200094	-0.280818	0.000311	-0.010772	-0.006223
1103	5.536062	0.005000	9.553170	1.491120	1.512510	0.464866	-0.199313	-0.281938	0.004928	-0.005798	0.008176
1104	5.541062	0.005000	9.582850	1.569600	1.561310	0.465646	-0.198533	-0.283059	0.005898	0.001622	0.008675
1105	5.546062	0.005000	9.549002	1.582379	1.570503	0.466427	-0.197752	-0.284180	0.001966	-0.011859	0.011792
