# FOX Logger (IMU file)
# (c) INRIA 2011-2014
# File created from file sensbiotk output
#
# File format:
# id	t	dt	ax	ay	az	mx	my	mz	gx	gy	gz
#
# Units:
#	Time: s
#	Acceleration: m.s^-2
#	Magneto: gauss
#	Gyrometer: rad/s
#
1	0.020111	0.020111	9.120499	-0.975399	1.821859	-0.750746	-0.270149	-0.348333	0.000720	0.004449	0.019066
2	0.025111	0.005000	9.104461	-0.843270	1.746570	-0.752182	-0.271254	-0.345866	-0.001468	0.002984	0.019242
3	0.030111	0.005000	9.103680	-0.866820	1.772880	-0.753618	-0.272358	-0.343400	-0.011213	-0.001540	0.011282
4	0.035111	0.005000	9.088024	-0.855551	1.726560	-0.755054	-0.273463	-0.340933	-0.014885	-0.007345	0.019580
5	0.040111	0.005000	9.116923	-0.811287	1.713807	-0.756489	-0.274567	-0.338466	-0.005447	0.005035	0.007749
6	0.045111	0.005000	9.154084	-0.919432	1.709648	-0.757925	-0.275672	-0.336000	-0.002152	-0.011318	0.015880
7	0.050111	0.005000	9.191052	-0.832932	1.726560	-0.759361	-0.276776	-0.333533	-0.008604	-0.016358	0.008909
8	0.055111	0.005000	9.136444	-0.889568	1.667891	-0.760797	-0.277881	-0.331066	0.004815	-0.007675	0.001926
9	0.060111	0.005000	9.059947	-0.754546	1.652573	-0.762233	-0.278985	-0.328599	-0.009597	-0.005723	0.007082
10	0.065111	0.005000	9.103680	-0.824040	1.728688	-0.763669	-0.280090	-0.326133	-0.011425	0.001750	-0.002472
11	0.070111	0.005000	9.142648	-0.863008	1.765800	-0.765105	-0.281194	-0.323666	-0.015319	-0.004333	0.002039
12	0.075111	0.005000	9.105900	-0.861060	1.881300	-0.766540	-0.282299	-0.321199	-0.011336	-0.011641	0.006362
13	0.080111	0.005000	9.177523	-0.893246	1.869608	-0.767976	-0.283404	-0.318733	-0.011009	-0.016266	-0.002949
14	0.085111	0.005000	9.103680	-0.895561	1.805040	-0.769412	-0.284508	-0.316266	-0.014388	-0.012635	0.003810
15	0.090111	0.005000	9.164186	-0.802774	1.747826	-0.769397	-0.284591	-0.316320	-0.020608	-0.012271	-0.007420
16	0.095111	0.005000	9.198597	-0.851878	1.643045	-0.767851	-0.283598	-0.319033	-0.018711	-0.009805	-0.001284
17	0.100111	0.005000	9.156565	-0.861586	1.714609	-0.766305	-0.282604	-0.321745	-0.021298	-0.008164	-0.001546
18	0.105111	0.005000	9.103680	-0.824040	1.719390	-0.764760	-0.281610	-0.324457	-0.021863	-0.024480	-0.000133
19	0.110111	0.005000	9.085514	-0.829856	1.708394	-0.763214	-0.280617	-0.327169	-0.019837	-0.013489	-0.004787
20	0.115111	0.005000	9.202737	-0.881943	1.767714	-0.761669	-0.279623	-0.329881	-0.027886	-0.013165	-0.010901
21	0.120111	0.005000	9.120199	-0.908722	1.720358	-0.760123	-0.278630	-0.332594	-0.024950	-0.012943	-0.002443
22	0.125111	0.005000	9.192781	-0.888211	1.673011	-0.758578	-0.277636	-0.335306	-0.021023	-0.009312	-0.015632
23	0.130111	0.005000	9.115587	-0.824040	1.711133	-0.757032	-0.276642	-0.338018	-0.022066	-0.020654	-0.006074
24	0.135111	0.005000	9.201856	-0.843584	1.569600	-0.755486	-0.275649	-0.340730	-0.023299	-0.011415	-0.007439
25	0.140111	0.005000	9.135372	-0.784800	1.577148	-0.753941	-0.274655	-0.343442	-0.019569	-0.020615	-0.006643
26	0.145111	0.005000	9.231684	-0.795084	1.692462	-0.752395	-0.273661	-0.346155	-0.019931	-0.019826	0.000514
27	0.150111	0.005000	9.175837	-0.811394	1.648080	-0.750850	-0.272668	-0.348867	-0.022000	-0.007493	-0.016473
28	0.155111	0.005000	9.219838	-0.744779	1.611182	-0.749304	-0.271674	-0.351579	-0.021570	-0.009505	-0.007767
29	0.160111	0.005000	9.030010	-0.668683	1.726560	-0.749147	-0.271535	-0.351667	-0.015781	0.001578	-0.014854
30	0.165111	0.005000	8.993095	-0.774098	1.608840	-0.749037	-0.271425	-0.351667	-0.012184	-0.012438	-0.001648
31	0.170111	0.005000	9.103680	-0.757528	1.636112	-0.748926	-0.271314	-0.351667	-0.005935	-0.004616	-0.001429
32	0.175111	0.005000	9.134992	-0.667080	1.671465	-0.748816	-0.271204	-0.351667	-0.012844	-0.017313	-0.007707
33	0.180111	0.005000	9.114014	-0.695986	1.619174	-0.748705	-0.271093	-0.351667	-0.014429	-0.021183	0.010965
34	0.185111	0.005000	9.103680	-0.784800	1.793286	-0.748595	-0.270983	-0.351667	-0.016793	-0.005245	-0.006637
35	0.190111	0.005000	9.098844	-0.667080	1.765800	-0.748485	-0.270873	-0.351667	-0.020927	-0.019934	0.002494
36	0.195111	0.005000	9.120781	-0.662043	1.731597	-0.748374	-0.270762	-0.351667	-0.027170	-0.016806	0.001393
37	0.200111	0.005000	9.025200	-0.686360	1.726560	-0.748264	-0.270652	-0.351667	-0.015169	-0.026643	0.003070
38	0.205111	0.005000	9.125342	-0.662996	1.669742	-0.748153	-0.270541	-0.351667	-0.024089	-0.021471	0.019730
39	0.210111	0.005000	9.033679	-0.769419	1.578079	-0.748043	-0.270431	-0.351667	-0.029497	-0.012107	0.004737
40	0.215111	0.005000	9.090398	-0.615163	1.713883	-0.747932	-0.270320	-0.351667	-0.027667	-0.022102	0.013257
41	0.220111	0.005000	9.142920	-0.706320	1.844280	-0.747822	-0.270210	-0.351667	-0.021265	-0.014661	0.009457
42	0.225111	0.005000	9.003193	-0.579984	1.835664	-0.747761	-0.270248	-0.351501	-0.015645	-0.028274	0.015571
43	0.230111	0.005000	9.064440	-0.634435	1.726560	-0.747761	-0.270469	-0.351131	-0.034448	-0.022112	0.012417
44	0.235111	0.005000	9.099424	-0.662824	1.761544	-0.747761	-0.270690	-0.350761	-0.024116	-0.025356	0.002465
45	0.240111	0.005000	9.144772	-0.625988	1.575155	-0.747761	-0.270911	-0.350391	-0.019522	-0.019785	0.019997
46	0.245111	0.005000	9.143012	-0.627748	1.648172	-0.747761	-0.271132	-0.350021	-0.017410	-0.018227	0.009625
47	0.250111	0.005000	9.069460	-0.625330	1.721540	-0.747761	-0.271352	-0.349651	-0.016493	-0.029894	0.015038
48	0.255111	0.005000	9.172448	-0.662224	1.613696	-0.747761	-0.271573	-0.349281	-0.022208	-0.021547	0.021272
49	0.260111	0.005000	9.142920	-0.634699	1.680461	-0.747761	-0.271794	-0.348911	-0.019853	-0.039812	0.021654
50	0.265111	0.005000	9.209983	-0.715594	1.705869	-0.747761	-0.272015	-0.348541	-0.010862	-0.034628	0.027677
51	0.270111	0.005000	9.193702	-0.678622	1.765800	-0.747761	-0.272236	-0.348171	0.007757	-0.036127	0.028924
52	0.275111	0.005000	9.221400	-0.731638	1.650607	-0.747761	-0.272457	-0.347801	0.007974	-0.026554	0.031638
53	0.280111	0.005000	9.073289	-0.659900	1.592810	-0.747761	-0.272678	-0.347431	-0.000520	-0.032222	0.025538
54	0.285111	0.005000	9.103680	-0.727118	1.569600	-0.747761	-0.272899	-0.347061	0.010114	-0.036904	0.026496
55	0.290111	0.005000	9.105647	-0.805403	1.470517	-0.747761	-0.273120	-0.346691	-0.002080	-0.024616	0.035468
56	0.295111	0.005000	9.097326	-0.824040	1.615194	-0.747864	-0.272824	-0.346552	0.002382	-0.023618	0.033233
57	0.300111	0.005000	9.140058	-0.795972	1.530360	-0.747975	-0.272493	-0.346428	0.006314	-0.032434	0.034426
58	0.305111	0.005000	9.115631	-0.745560	1.557649	-0.748085	-0.272162	-0.346305	-0.003088	-0.022270	0.028008
59	0.310111	0.005000	9.045088	-0.784800	1.500796	-0.748196	-0.271830	-0.346182	0.000129	-0.028328	0.039904
60	0.315111	0.005000	9.078979	-0.745560	1.648080	-0.748306	-0.271499	-0.346058	-0.003167	-0.023795	0.028376
61	0.320111	0.005000	9.226664	-0.790064	1.546153	-0.748417	-0.271168	-0.345935	-0.005392	-0.021772	0.026048
62	0.325111	0.005000	9.218491	-0.857462	1.672775	-0.748527	-0.270836	-0.345811	-0.012926	-0.015270	0.035300
63	0.330111	0.005000	9.220895	-0.862270	1.491625	-0.748638	-0.270505	-0.345688	-0.012625	-0.007317	0.024094
64	0.335111	0.005000	9.106558	-0.784800	1.530360	-0.748748	-0.270174	-0.345565	0.003211	-0.015643	0.038134
65	0.340111	0.005000	9.182160	-0.851710	1.648080	-0.748859	-0.269842	-0.345441	-0.004781	0.000113	0.026153
66	0.345111	0.005000	9.188347	-0.790987	1.648080	-0.748969	-0.269511	-0.345318	-0.001479	-0.012530	0.025773
67	0.350111	0.005000	9.227828	-0.778372	1.577803	-0.749080	-0.269180	-0.345195	0.000850	-0.005112	0.037422
68	0.355111	0.005000	9.232010	-0.792210	1.616250	-0.749190	-0.268849	-0.345071	-0.007672	-0.014033	0.017145
69	0.360111	0.005000	9.273513	-0.876153	1.595967	-0.749254	-0.268797	-0.345000	0.008706	-0.011198	0.035577
70	0.365111	0.005000	9.182160	-0.848312	1.491120	-0.749254	-0.269128	-0.345000	-0.001870	0.005765	0.029894
71	0.370111	0.005000	9.265126	-0.941760	1.604354	-0.749254	-0.269459	-0.345000	0.010787	-0.012465	0.040530
72	0.375111	0.005000	9.260977	-0.961212	1.550148	-0.749254	-0.269791	-0.345000	0.006344	-0.000098	0.037975
73	0.380111	0.005000	9.221400	-0.915804	1.552092	-0.749254	-0.270122	-0.345000	0.004327	-0.009305	0.037369
74	0.385111	0.005000	9.167064	-0.902520	1.632984	-0.749254	-0.270453	-0.345000	0.003105	-0.003649	0.035685
75	0.390111	0.005000	9.155607	-0.824040	1.608840	-0.749254	-0.270785	-0.345000	-0.001144	0.006580	0.028504
76	0.395111	0.005000	9.103680	-0.873899	1.587601	-0.749254	-0.271116	-0.345000	-0.001884	0.001592	0.036841
77	0.400111	0.005000	9.050186	-0.801457	1.569600	-0.749254	-0.271447	-0.345000	-0.007574	0.010300	0.025726
78	0.405111	0.005000	9.176237	-0.902520	1.542205	-0.749254	-0.271778	-0.345000	-0.000376	0.010878	0.024763
79	0.410111	0.005000	9.064440	-0.899014	1.676802	-0.749254	-0.272110	-0.345000	-0.009658	0.020387	0.023459
80	0.415111	0.005000	9.142920	-0.943303	1.569600	-0.749254	-0.272441	-0.345000	-0.013546	0.022782	0.022377
81	0.420111	0.005000	9.142920	-0.904204	1.607998	-0.749254	-0.272772	-0.345000	-0.003382	0.015160	0.028285
82	0.425111	0.005000	9.103680	-0.902520	1.756179	-0.749254	-0.273104	-0.345000	-0.018290	0.016091	0.020986
83	0.430111	0.005000	9.064440	-0.946950	1.676940	-0.749354	-0.272833	-0.345224	-0.005578	0.010386	0.024356
84	0.435111	0.005000	9.237821	-1.005028	1.616446	-0.749465	-0.272502	-0.345471	-0.009638	0.022732	0.027685
85	0.440111	0.005000	9.201946	-0.971107	1.638187	-0.749575	-0.272170	-0.345717	-0.002528	0.017046	0.015332
86	0.445111	0.005000	9.224768	-0.996325	1.687320	-0.749686	-0.271839	-0.345964	-0.006425	0.026137	0.022427
87	0.450111	0.005000	9.246269	-0.956131	1.751429	-0.749796	-0.271508	-0.346211	-0.009456	0.024447	0.011931
88	0.455111	0.005000	9.210902	-0.885941	1.664659	-0.749906	-0.271176	-0.346457	-0.002330	0.010797	0.020118
89	0.460111	0.005000	9.260640	-0.882004	1.648080	-0.750017	-0.270845	-0.346704	-0.001340	0.015410	0.022831
90	0.465111	0.005000	9.142920	-0.821010	1.620884	-0.750127	-0.270514	-0.346951	-0.006784	0.009383	0.020815
91	0.470111	0.005000	9.221400	-0.956343	1.749826	-0.750238	-0.270183	-0.347197	-0.011214	0.007809	0.014429
92	0.475111	0.005000	9.144926	-0.877029	1.689326	-0.750348	-0.269851	-0.347444	-0.019594	0.022241	0.002569
93	0.480111	0.005000	9.170820	-0.807481	1.670761	-0.750458	-0.269520	-0.347691	-0.003887	0.017147	0.019096
94	0.485111	0.005000	9.202824	-0.824040	1.765800	-0.750569	-0.269189	-0.347937	-0.013123	0.023428	0.007545
95	0.490111	0.005000	9.175179	-0.877243	1.687320	-0.750679	-0.268857	-0.348184	-0.009129	0.014670	0.015994
96	0.495111	0.005000	9.216822	-0.946338	1.696475	-0.750790	-0.268744	-0.348479	-0.012600	0.013894	0.008427
97	0.500111	0.005000	9.179558	-0.936556	1.854688	-0.750900	-0.268965	-0.348850	-0.019585	0.018027	0.005864
98	0.505111	0.005000	9.221400	-0.863280	1.883061	-0.751011	-0.269186	-0.349220	-0.027741	0.015491	0.016467
99	0.510111	0.005000	9.221400	-0.900357	1.805040	-0.751121	-0.269407	-0.349590	-0.023231	0.019537	0.013317
100	0.515111	0.005000	9.142920	-0.824040	1.769932	-0.751232	-0.269628	-0.349960	-0.023089	0.005506	0.024913
101	0.520111	0.005000	9.149457	-0.791337	1.700395	-0.751342	-0.269849	-0.350330	-0.026847	0.010690	0.011700
102	0.525111	0.005000	9.142920	-0.784800	1.743524	-0.751453	-0.270070	-0.350700	-0.027331	0.001504	0.011833
103	0.530111	0.005000	9.125473	-0.745560	1.754903	-0.751563	-0.270291	-0.351071	-0.027084	0.006618	0.005801
104	0.535111	0.005000	9.038346	-0.889374	1.805040	-0.751674	-0.270512	-0.351441	-0.021151	-0.000077	0.011149
105	0.540111	0.005000	9.018693	-0.800049	1.750551	-0.751785	-0.270733	-0.351811	-0.013513	0.002180	0.028100
106	0.545111	0.005000	9.107598	-0.841701	1.787379	-0.751895	-0.270954	-0.352181	-0.013280	0.012376	0.014283
107	0.550111	0.005000	9.219593	-0.686248	1.785872	-0.752006	-0.271175	-0.352551	-0.002513	-0.007529	0.007970
108	0.555111	0.005000	9.159938	-0.740356	1.861298	-0.752116	-0.271396	-0.352922	-0.019362	0.004386	0.006742
109	0.560111	0.005000	9.191771	-0.760374	1.771003	-0.752227	-0.271617	-0.353292	-0.005459	0.001037	0.005386
110	0.565111	0.005000	9.168364	-0.810244	1.844280	-0.752926	-0.272525	-0.351143	0.000339	-0.010589	0.004751
111	0.570111	0.005000	9.171692	-0.863280	1.794572	-0.753698	-0.273518	-0.348677	-0.011973	-0.003451	0.010996
112	0.575111	0.005000	9.118761	-0.886414	1.679267	-0.754471	-0.274512	-0.346211	-0.005445	-0.013277	0.015252
113	0.580111	0.005000	9.098033	-0.818393	1.681673	-0.755244	-0.275506	-0.343746	-0.016188	-0.007475	0.001367
114	0.585111	0.005000	9.103680	-0.792207	1.577007	-0.756017	-0.276499	-0.341280	-0.003228	-0.011638	0.004620
115	0.590111	0.005000	9.104966	-0.868424	1.649366	-0.756790	-0.277493	-0.338815	-0.014434	-0.011735	0.008942
116	0.595111	0.005000	9.142920	-1.020240	1.725456	-0.757563	-0.278486	-0.336349	-0.019609	-0.018357	-0.006811
117	0.600111	0.005000	9.064440	-0.902520	1.723498	-0.758335	-0.279480	-0.333883	-0.007500	-0.023145	0.003087
118	0.605111	0.005000	9.148399	-0.868759	1.726560	-0.759108	-0.280474	-0.331418	-0.018747	-0.014594	-0.004727
119	0.610111	0.005000	9.103680	-0.941760	1.914969	-0.759881	-0.281467	-0.328952	-0.019472	-0.020580	0.003291
120	0.615111	0.005000	9.162502	-0.941760	1.824622	-0.760654	-0.282461	-0.326487	-0.027272	-0.011477	-0.003540
121	0.620111	0.005000	9.049687	-0.902520	1.802530	-0.761427	-0.283455	-0.324021	-0.031822	-0.014171	-0.013545
122	0.625111	0.005000	9.192447	-0.848803	1.844280	-0.762200	-0.284448	-0.321555	-0.030490	-0.029688	0.000222
123	0.630111	0.005000	9.176112	-0.879876	1.821636	-0.762646	-0.284790	-0.320546	-0.032072	-0.008933	-0.004577
124	0.635111	0.005000	9.240188	-0.902520	1.786252	-0.762536	-0.284016	-0.322026	-0.028303	-0.027590	-0.010485
125	0.640111	0.005000	9.239696	-0.865929	1.723911	-0.762425	-0.283243	-0.323506	-0.030699	-0.024715	-0.011259
126	0.645111	0.005000	9.127034	-0.847394	1.805040	-0.762315	-0.282470	-0.324987	-0.029206	-0.018001	-0.013888
127	0.650111	0.005000	9.154598	-0.904623	1.858061	-0.762204	-0.281697	-0.326467	-0.029016	-0.027539	-0.000232
128	0.655111	0.005000	9.115209	-0.842443	1.911231	-0.762094	-0.280924	-0.327947	-0.027685	-0.027672	-0.012322
129	0.660111	0.005000	9.094559	-0.914396	1.774921	-0.761983	-0.280151	-0.329427	-0.037182	-0.035073	-0.010299
130	0.665111	0.005000	9.078629	-0.784800	1.787084	-0.761873	-0.279377	-0.330907	-0.026425	-0.029308	-0.010888
131	0.670111	0.005000	9.098919	-0.809756	1.864474	-0.761762	-0.278604	-0.332387	-0.022163	-0.043400	-0.011712
132	0.675111	0.005000	9.140563	-0.860923	1.689677	-0.761652	-0.277831	-0.333867	-0.020746	-0.039355	-0.009228
133	0.680111	0.005000	9.220992	-0.862463	1.765392	-0.761541	-0.277058	-0.335347	-0.020283	-0.048903	-0.008361
134	0.685111	0.005000	9.144925	-0.747565	1.689325	-0.761431	-0.276285	-0.336827	-0.015229	-0.049455	0.007034
135	0.690111	0.005000	9.103680	-0.788748	1.687320	-0.761320	-0.275512	-0.338307	-0.012550	-0.040364	-0.006419
136	0.695111	0.005000	9.340238	-0.817686	1.641726	-0.761210	-0.274738	-0.339787	-0.000314	-0.048102	-0.000880
137	0.700111	0.005000	9.160459	-0.845741	1.687320	-0.760816	-0.274249	-0.340528	0.004254	-0.043895	-0.009385
138	0.705111	0.005000	9.125766	-0.773757	1.608840	-0.760374	-0.273807	-0.341145	0.008496	-0.050763	-0.010939
139	0.710111	0.005000	9.247519	-0.784800	1.582598	-0.759932	-0.273365	-0.341761	0.006053	-0.053657	-0.005858
140	0.715111	0.005000	9.221400	-0.784800	1.530360	-0.759490	-0.272923	-0.342378	0.006009	-0.045777	-0.009263
141	0.720111	0.005000	9.178378	-0.788582	1.669591	-0.759049	-0.272482	-0.342994	0.002160	-0.044745	0.010734
142	0.725111	0.005000	9.083800	-0.843920	1.570641	-0.758607	-0.272040	-0.343611	0.003598	-0.040777	-0.003450
143	0.730111	0.005000	9.098337	-0.684028	1.429588	-0.758165	-0.271598	-0.344228	0.013376	-0.043777	0.002527
144	0.735111	0.005000	9.118505	-0.809215	1.614074	-0.757723	-0.271156	-0.344844	-0.000796	-0.035817	-0.000291
145	0.740111	0.005000	9.144374	-0.825494	1.622889	-0.757282	-0.270715	-0.345461	0.008491	-0.036916	-0.007616
146	0.745111	0.005000	9.113861	-0.765923	1.540541	-0.756840	-0.270273	-0.346078	-0.001945	-0.034133	0.005809
147	0.750111	0.005000	9.103680	-0.824040	1.576286	-0.756398	-0.269831	-0.346694	0.001690	-0.029662	0.000978
148	0.755111	0.005000	9.148751	-0.757222	1.400978	-0.755956	-0.269389	-0.347311	0.012678	-0.036854	-0.002275
149	0.760111	0.005000	9.107094	-0.856452	1.337574	-0.755514	-0.268947	-0.347928	0.004393	-0.020605	0.000094
150	0.765111	0.005000	9.105132	-0.783348	1.373400	-0.755110	-0.268695	-0.348418	-0.005436	-0.021901	-0.001109
151	0.770111	0.005000	9.142920	-0.707254	1.373400	-0.754779	-0.268805	-0.348664	-0.009228	-0.018760	0.007435
152	0.775111	0.005000	9.103680	-0.971061	1.484494	-0.754448	-0.268916	-0.348911	-0.009366	-0.009517	0.003982
153	0.780111	0.005000	9.114271	-0.824040	1.501711	-0.754116	-0.269026	-0.349158	-0.010021	-0.009487	0.010151
154	0.785111	0.005000	9.182160	-0.816339	1.475718	-0.753785	-0.269136	-0.349404	-0.023014	-0.004467	0.002725
155	0.790111	0.005000	9.064440	-0.872922	1.491793	-0.753454	-0.269247	-0.349651	-0.018614	-0.008267	0.002467
156	0.795111	0.005000	9.194209	-0.875329	1.569600	-0.753122	-0.269357	-0.349898	-0.014982	0.003151	0.003000
157	0.800111	0.005000	9.182160	-0.863280	1.426935	-0.752791	-0.269468	-0.350145	-0.018822	0.006052	-0.003665
158	0.805111	0.005000	9.198566	-0.908948	1.468286	-0.752459	-0.269578	-0.350391	-0.014564	-0.003718	0.009971
159	0.810111	0.005000	9.161736	-0.900912	1.550784	-0.752128	-0.269689	-0.350638	-0.022369	0.015122	0.003091
160	0.815111	0.005000	9.142920	-0.848481	1.551587	-0.751797	-0.269799	-0.350885	-0.018318	0.010521	-0.003312
161	0.820111	0.005000	9.205516	-0.886636	1.569600	-0.751465	-0.269909	-0.351132	-0.021745	0.024060	0.010749
162	0.825111	0.005000	9.103680	-0.849623	1.571330	-0.751134	-0.270020	-0.351378	-0.023732	0.018540	0.013638
163	0.830111	0.005000	9.159663	-0.930511	1.541609	-0.750802	-0.270130	-0.351625	-0.008602	0.015336	0.011009
164	0.835111	0.005000	9.212203	-0.911717	1.587995	-0.750654	-0.270149	-0.351258	0.001527	0.016369	0.003417
165	0.840111	0.005000	9.182160	-0.941760	1.608840	-0.750544	-0.270149	-0.350765	-0.004757	0.012398	0.017817
166	0.845111	0.005000	9.133952	-0.867764	1.687320	-0.750434	-0.270149	-0.350272	-0.012168	0.026780	0.007921
167	0.850111	0.005000	9.178026	-0.826107	1.726560	-0.750323	-0.270149	-0.349778	-0.008193	0.005862	0.010247
168	0.855111	0.005000	9.103438	-0.863280	1.687199	-0.750213	-0.270149	-0.349285	-0.021818	0.013715	0.003964
169	0.860111	0.005000	9.025200	-0.900239	1.611121	-0.750103	-0.270149	-0.348792	-0.009472	0.015859	-0.000347
170	0.865111	0.005000	9.133662	-0.897891	1.608840	-0.749992	-0.270149	-0.348299	-0.023970	0.011333	0.010626
171	0.870111	0.005000	9.175531	-0.817411	1.719931	-0.749882	-0.270149	-0.347806	-0.021624	0.025042	0.001615
172	0.875111	0.005000	9.121770	-0.814995	1.795995	-0.749772	-0.270149	-0.347313	-0.007128	0.008134	0.006517
173	0.880111	0.005000	9.025200	-0.812725	1.737875	-0.749661	-0.270149	-0.346820	-0.025426	0.018135	0.002391
174	0.885111	0.005000	9.128574	-0.810644	1.779196	-0.749551	-0.270149	-0.346326	-0.016368	0.014430	-0.001245
175	0.890111	0.005000	9.142920	-0.816419	1.781609	-0.749440	-0.270149	-0.345833	-0.014774	0.011178	0.007697
176	0.895111	0.005000	9.061638	-0.845061	1.684518	-0.749330	-0.270149	-0.345340	-0.013802	0.015403	-0.003622
177	0.900111	0.005000	9.141377	-0.902520	1.765800	-0.749254	-0.270183	-0.344923	-0.021468	0.021628	-0.003710
178	0.905111	0.005000	9.148827	-0.981000	1.759893	-0.749254	-0.270294	-0.344677	-0.008695	0.014355	-0.002217
179	0.910111	0.005000	9.132188	-0.927506	1.776532	-0.749254	-0.270404	-0.344430	-0.003330	0.002120	-0.000473
180	0.915111	0.005000	9.130758	-0.902520	1.750885	-0.749254	-0.270515	-0.344184	-0.004818	0.006661	0.003088
181	0.920111	0.005000	9.104047	-0.863280	1.706756	-0.749254	-0.270625	-0.343937	-0.013687	0.004193	-0.002493
182	0.925111	0.005000	9.174294	-0.902520	1.703052	-0.749254	-0.270736	-0.343690	-0.011511	-0.008200	0.004725
183	0.930111	0.005000	9.148462	-0.824040	1.799498	-0.749254	-0.270846	-0.343444	-0.004282	0.001221	-0.003351
184	0.935111	0.005000	9.097403	-0.817763	1.726560	-0.749254	-0.270957	-0.343197	-0.009707	-0.006272	0.000313
185	0.940111	0.005000	9.060900	-0.860920	1.725380	-0.749254	-0.271067	-0.342950	0.005963	-0.017375	0.004867
186	0.945111	0.005000	9.098842	-0.822830	1.801411	-0.749254	-0.271178	-0.342704	0.012109	-0.010008	-0.011540
187	0.950111	0.005000	9.075195	-0.898935	1.808625	-0.749254	-0.271288	-0.342457	-0.004471	-0.012392	0.007913
188	0.955111	0.005000	9.182160	-0.902520	1.866808	-0.749254	-0.271399	-0.342210	-0.012158	-0.011967	-0.007891
189	0.960111	0.005000	9.150897	-0.800753	1.773777	-0.749254	-0.271509	-0.341964	-0.008438	-0.022166	-0.008858
190	0.965111	0.005000	9.103680	-0.824040	1.844280	-0.749254	-0.271620	-0.341717	-0.019230	-0.013843	-0.008274
191	0.970111	0.005000	9.089110	-0.797135	1.751230	-0.749342	-0.271642	-0.342060	-0.015975	-0.017133	-0.011606
192	0.975111	0.005000	9.054687	-0.770056	1.677567	-0.749452	-0.271642	-0.342554	-0.018366	-0.004910	-0.004662
193	0.980111	0.005000	9.064440	-0.840998	1.704278	-0.749563	-0.271642	-0.343047	-0.016963	-0.012611	-0.014567
194	0.985111	0.005000	9.084580	-0.843140	1.726560	-0.749673	-0.271642	-0.343540	-0.019528	-0.020845	-0.002687
195	0.990111	0.005000	9.103680	-0.841769	1.669591	-0.749784	-0.271642	-0.344033	-0.028907	-0.020916	-0.011694
196	0.995111	0.005000	9.080036	-0.918116	1.836232	-0.749894	-0.271642	-0.344527	-0.023990	-0.022907	-0.004250
197	1.000111	0.005000	9.117056	-0.967624	1.830904	-0.750004	-0.271642	-0.345020	-0.014123	-0.020845	-0.015167
198	1.005111	0.005000	9.103680	-0.863280	1.698282	-0.750115	-0.271642	-0.345513	-0.026094	-0.029312	-0.012431
199	1.010111	0.005000	9.082290	-0.863280	1.690860	-0.750225	-0.271642	-0.346007	-0.019881	-0.038926	-0.004525
200	1.015111	0.005000	9.116908	-0.869894	1.700548	-0.750336	-0.271642	-0.346500	-0.016293	-0.026755	-0.012045
201	1.020111	0.005000	9.147129	-0.859071	1.748965	-0.750446	-0.271642	-0.346993	-0.014177	-0.039323	-0.003259
202	1.025111	0.005000	9.105945	-0.745560	1.613370	-0.750557	-0.271642	-0.347487	-0.024940	-0.031409	-0.013758
203	1.030111	0.005000	9.221097	-0.901915	1.843675	-0.750667	-0.271642	-0.347980	-0.018230	-0.036905	-0.002815
204	1.035111	0.005000	9.070730	-0.861183	1.765800	-0.750715	-0.271673	-0.348333	-0.019946	-0.036294	-0.000894
205	1.040111	0.005000	9.177659	-0.828541	1.657082	-0.750604	-0.271784	-0.348333	-0.017614	-0.037923	-0.005179
206	1.045111	0.005000	9.182160	-0.856442	1.726560	-0.750494	-0.271894	-0.348333	-0.013535	-0.048296	0.000133
207	1.050111	0.005000	9.152132	-0.833252	1.638868	-0.750383	-0.272005	-0.348333	-0.018780	-0.039101	-0.016031
208	1.055111	0.005000	9.165457	-0.773532	1.586303	-0.750273	-0.272115	-0.348333	-0.018672	-0.046666	-0.002418
209	1.060111	0.005000	9.207718	-0.875156	1.712878	-0.750163	-0.272225	-0.348333	-0.016858	-0.043330	-0.009637
210	1.065111	0.005000	9.198059	-0.902520	1.624739	-0.750052	-0.272336	-0.348333	-0.016226	-0.041969	-0.011606
211	1.070111	0.005000	9.142920	-0.842075	1.566431	-0.749942	-0.272446	-0.348333	-0.006024	-0.041816	-0.012825
212	1.075111	0.005000	9.083234	-0.844486	1.630939	-0.749831	-0.272557	-0.348333	-0.015919	-0.036166	-0.020177
213	1.080111	0.005000	9.120537	-0.857753	1.631223	-0.749721	-0.272667	-0.348333	-0.010206	-0.045369	-0.011635
214	1.085111	0.005000	9.093334	-0.941760	1.598494	-0.749611	-0.272777	-0.348333	-0.016937	-0.034514	-0.018742
215	1.090111	0.005000	9.064440	-0.968641	1.476598	-0.749500	-0.272888	-0.348333	-0.011202	-0.041402	-0.010597
216	1.095111	0.005000	9.132951	-0.941760	1.481151	-0.749390	-0.272998	-0.348333	-0.012626	-0.036781	-0.009728
217	1.100111	0.005000	9.150603	-0.965635	1.483437	-0.749279	-0.273109	-0.348333	-0.018108	-0.040263	-0.019779
218	1.105111	0.005000	9.098413	-0.884347	1.451880	-0.749169	-0.272879	-0.348143	-0.005554	-0.035189	-0.012628
219	1.110111	0.005000	9.064440	-0.905842	1.497765	-0.749058	-0.272548	-0.347896	-0.017364	-0.024192	-0.008697
220	1.115111	0.005000	9.141083	-0.903438	1.492038	-0.748948	-0.272216	-0.347650	-0.006860	-0.038394	-0.011932
221	1.120111	0.005000	9.064440	-0.903546	1.530360	-0.748838	-0.271885	-0.347403	-0.012807	-0.027517	-0.017082
222	1.125111	0.005000	9.185603	-0.834370	1.458767	-0.748727	-0.271554	-0.347157	-0.005501	-0.030266	-0.015654
223	1.130111	0.005000	9.221400	-0.890963	1.669984	-0.748617	-0.271223	-0.346910	-0.014758	-0.026556	-0.017940
224	1.135111	0.005000	9.244779	-0.831833	1.538153	-0.748506	-0.270892	-0.346664	-0.018270	-0.026683	-0.018794
225	1.140111	0.005000	9.221400	-0.745560	1.540568	-0.748396	-0.270561	-0.346417	-0.017602	-0.026381	-0.007009
226	1.145111	0.005000	9.101834	-0.782954	1.608840	-0.748285	-0.270230	-0.346171	-0.025351	-0.014469	-0.010601
227	1.150111	0.005000	9.103680	-0.731000	1.687320	-0.748175	-0.269898	-0.345924	-0.015482	-0.025834	-0.014267
228	1.155111	0.005000	9.081404	-0.750873	1.642767	-0.748065	-0.269567	-0.345678	-0.012267	-0.017414	-0.011807
229	1.160111	0.005000	9.162071	-0.765649	1.510271	-0.747954	-0.269236	-0.345431	-0.012440	-0.010395	-0.015797
230	1.165111	0.005000	9.160841	-0.788198	1.469801	-0.747844	-0.268905	-0.345185	-0.014219	-0.020201	-0.001968
231	1.170111	0.005000	9.142920	-0.698098	1.569600	-0.747789	-0.268629	-0.345031	-0.019417	-0.005942	-0.004264
232	1.175111	0.005000	9.156323	-0.797235	1.543763	-0.747899	-0.268519	-0.345154	-0.010968	-0.023128	-0.007674
233	1.180111	0.005000	9.232557	-0.756717	1.552674	-0.748010	-0.268408	-0.345278	-0.008908	-0.006248	-0.016333
234	1.185111	0.005000	9.238884	-0.854538	1.491120	-0.748120	-0.268298	-0.345401	-0.008279	-0.012744	-0.011754
235	1.190111	0.005000	9.175444	-0.745560	1.569600	-0.748231	-0.268187	-0.345524	-0.006356	-0.005803	0.005472
236	1.195111	0.005000	9.103680	-0.815255	1.534752	-0.748341	-0.268077	-0.345648	-0.005019	-0.007732	-0.002718
237	1.200111	0.005000	9.178210	-0.743585	1.602915	-0.748452	-0.267966	-0.345771	-0.020300	-0.020208	0.005353
238	1.205111	0.005000	9.142829	-0.823979	1.491150	-0.748562	-0.267856	-0.345895	-0.014704	-0.004114	-0.001037
239	1.210111	0.005000	8.914599	-0.745560	1.493493	-0.748673	-0.267745	-0.346018	-0.008288	-0.007163	-0.008762
240	1.215111	0.005000	9.089476	-0.784800	1.608840	-0.748783	-0.267635	-0.346141	-0.012409	-0.000763	0.005977
241	1.220111	0.005000	9.052135	-0.706320	1.497854	-0.748894	-0.267524	-0.346265	-0.016140	0.004652	-0.003070
242	1.225111	0.005000	9.055300	-0.657940	1.659899	-0.749004	-0.267414	-0.346388	-0.007422	-0.005837	0.005504
243	1.230111	0.005000	9.025200	-0.717726	1.608840	-0.749115	-0.267303	-0.346511	-0.019337	-0.009671	-0.000537
244	1.235111	0.005000	9.155183	-0.798288	1.661568	-0.749225	-0.267193	-0.346635	-0.012704	-0.008999	0.008216
245	1.240111	0.005000	9.166259	-0.761461	1.663981	-0.749091	-0.267409	-0.346576	-0.014107	-0.004524	0.012103
246	1.245111	0.005000	9.182160	-0.763652	1.569600	-0.748870	-0.267740	-0.346453	-0.022536	-0.003703	-0.006395
247	1.250111	0.005000	9.121394	-0.843025	1.591126	-0.748649	-0.268071	-0.346329	-0.017213	-0.004977	0.009917
248	1.255111	0.005000	9.237974	-0.863280	1.614931	-0.748428	-0.268403	-0.346206	-0.010291	0.003936	0.000754
249	1.260111	0.005000	9.246178	-0.735243	1.648080	-0.748207	-0.268734	-0.346082	-0.009480	-0.002251	0.014326
250	1.265111	0.005000	9.155138	-0.784800	1.765800	-0.747986	-0.269066	-0.345959	-0.020012	0.006899	0.009896
251	1.270111	0.005000	9.172350	-0.745560	1.785420	-0.747766	-0.269397	-0.345836	-0.019904	-0.006522	0.012797
252	1.275111	0.005000	9.142920	-0.760350	1.726560	-0.747545	-0.269728	-0.345712	-0.012741	-0.001402	0.007582
253	1.280111	0.005000	9.182160	-0.818655	1.648080	-0.747324	-0.270060	-0.345589	-0.019279	0.007889	0.000490
254	1.285111	0.005000	9.106726	-0.863280	1.654171	-0.747103	-0.270391	-0.345466	-0.010786	-0.003425	0.007915
255	1.290111	0.005000	9.104308	-0.822785	1.648708	-0.746882	-0.270722	-0.345342	-0.024146	0.012128	0.000611
256	1.295111	0.005000	9.029148	-0.707636	1.611472	-0.746661	-0.271054	-0.345219	-0.008959	-0.010077	0.012452
257	1.300111	0.005000	9.100004	-0.749236	1.548740	-0.746440	-0.271385	-0.345096	-0.013605	-0.004923	0.007857
258	1.305111	0.005000	9.109731	-0.878316	1.485069	-0.746344	-0.271667	-0.344889	-0.024665	0.016313	0.002213
259	1.310111	0.005000	9.197195	-0.871348	1.577668	-0.746675	-0.271777	-0.344396	-0.011273	-0.007277	0.018060
260	1.315111	0.005000	9.114163	-0.834523	1.645386	-0.747006	-0.271888	-0.343903	-0.007354	0.001756	0.012056
261	1.320111	0.005000	9.155657	-0.824040	1.621577	-0.747337	-0.271998	-0.343410	-0.003025	-0.009277	0.008833
262	1.325111	0.005000	9.103680	-0.824040	1.648080	-0.747668	-0.272108	-0.342916	-0.000728	-0.013410	0.013577
263	1.330111	0.005000	9.208896	-0.794289	1.552352	-0.747999	-0.272219	-0.342423	0.001426	0.006708	-0.003974
264	1.335111	0.005000	9.221400	-0.902520	1.648080	-0.748330	-0.272329	-0.341930	0.002907	-0.004023	0.008653
265	1.340111	0.005000	9.168488	-0.841677	1.644115	-0.748662	-0.272439	-0.341437	0.000827	-0.005842	0.006391
266	1.345111	0.005000	9.103680	-0.839268	1.554372	-0.748993	-0.272550	-0.340944	-0.005330	-0.007636	0.011759
267	1.350111	0.005000	9.024588	-0.981000	1.464552	-0.749324	-0.272660	-0.340451	-0.014556	0.004556	0.004431
268	1.355111	0.005000	9.153790	-0.941760	1.512860	-0.749655	-0.272770	-0.339958	-0.007880	-0.014729	0.006445
269	1.360111	0.005000	9.234182	-1.011421	1.608840	-0.749986	-0.272881	-0.339464	-0.000913	-0.003683	0.007520
270	1.365111	0.005000	9.136400	-0.856760	1.530360	-0.750317	-0.272991	-0.338971	-0.003546	0.007976	-0.002266
271	1.370111	0.005000	9.142920	-0.819937	1.499326	-0.750649	-0.273102	-0.338478	-0.003896	-0.005761	0.012192
272	1.375111	0.005000	9.225696	-0.863280	1.604544	-0.751448	-0.273680	-0.336940	-0.014538	-0.002749	-0.001833
273	1.380111	0.005000	9.299880	-0.902275	1.647345	-0.752442	-0.274453	-0.334967	-0.009811	0.003140	0.009358
274	1.385111	0.005000	9.226634	-0.863280	1.650697	-0.753436	-0.275226	-0.332994	-0.013716	0.012316	0.011832
275	1.390111	0.005000	9.256047	-0.828633	1.756614	-0.754430	-0.275999	-0.331020	-0.015209	0.001107	0.000625
276	1.395111	0.005000	9.078459	-0.817031	1.669108	-0.755424	-0.276772	-0.329047	-0.017143	-0.004454	-0.000618
277	1.400111	0.005000	9.172857	-0.824040	1.657383	-0.756418	-0.277546	-0.327074	-0.024100	0.001170	-0.008754
278	1.405111	0.005000	9.193520	-0.773440	1.664600	-0.757412	-0.278319	-0.325100	-0.024408	-0.007582	0.001801
279	1.410111	0.005000	9.103680	-0.772789	1.622454	-0.758406	-0.279092	-0.323127	-0.022120	0.006384	0.000803
280	1.415111	0.005000	9.103680	-0.792061	1.664069	-0.759400	-0.279865	-0.321154	-0.019279	-0.005957	0.012930
281	1.420111	0.005000	9.103680	-0.824040	1.669193	-0.760394	-0.280638	-0.319180	-0.017182	-0.000385	0.006493
282	1.425111	0.005000	9.122619	-0.745560	1.589901	-0.761388	-0.281411	-0.317207	-0.020661	-0.004796	0.003162
283	1.430111	0.005000	9.109404	-0.824040	1.642356	-0.762382	-0.282185	-0.315234	-0.014688	-0.002297	0.011111
284	1.435111	0.005000	9.167517	-0.838683	1.658034	-0.763376	-0.282958	-0.313260	-0.013469	0.000636	0.001887
285	1.440111	0.005000	9.103680	-0.877718	1.621241	-0.764179	-0.283518	-0.311691	-0.001734	-0.005550	-0.002181
286	1.445111	0.005000	9.123675	-0.804795	1.658078	-0.764179	-0.283187	-0.311814	-0.012913	-0.007101	-0.000539
287	1.450111	0.005000	9.127006	-0.871237	1.608840	-0.764179	-0.282855	-0.311937	-0.014043	-0.008790	-0.012057
288	1.455111	0.005000	9.148567	-0.790447	1.541655	-0.764179	-0.282524	-0.312061	-0.014020	0.001106	0.006243
289	1.460111	0.005000	9.067670	-0.706320	1.566370	-0.764179	-0.282193	-0.312184	-0.010171	-0.001934	-0.000255
290	1.465111	0.005000	9.144191	-0.825311	1.569600	-0.764179	-0.281861	-0.312307	-0.009822	-0.017068	0.006366
291	1.470111	0.005000	9.182160	-0.901402	1.493355	-0.764179	-0.281530	-0.312430	-0.015158	0.002210	-0.000377
292	1.475111	0.005000	9.217906	-0.899026	1.498109	-0.764179	-0.281199	-0.312554	-0.014924	-0.010400	-0.001531
293	1.480111	0.005000	9.333641	-0.941760	1.721081	-0.764179	-0.280867	-0.312677	-0.010842	-0.013868	0.015851
294	1.485111	0.005000	9.237169	-0.949645	1.663849	-0.764179	-0.280536	-0.312800	-0.011353	-0.007146	-0.000132
295	1.490111	0.005000	9.124041	-0.863280	1.716379	-0.764179	-0.280204	-0.312924	-0.010861	-0.015604	-0.000995
296	1.495111	0.005000	9.101170	-0.794533	1.608840	-0.764179	-0.279873	-0.313047	-0.017131	-0.004618	0.003464
297	1.500111	0.005000	9.142920	-0.852993	1.687320	-0.764179	-0.279542	-0.313170	-0.006783	-0.021464	0.004358
298	1.505111	0.005000	9.120276	-0.762156	1.720512	-0.764179	-0.279210	-0.313293	-0.011792	-0.005216	-0.000635
299	1.510111	0.005000	9.164377	-0.824040	1.648080	-0.763504	-0.278729	-0.314925	-0.014147	-0.021097	-0.006101
300	1.515111	0.005000	9.160997	-0.881357	1.608840	-0.762510	-0.278177	-0.317269	-0.017247	-0.022281	0.003550
301	1.520111	0.005000	9.166274	-0.808154	1.687320	-0.761516	-0.277624	-0.319612	-0.021071	-0.005244	-0.010297
302	1.525111	0.005000	9.207927	-0.811746	1.621134	-0.760521	-0.277072	-0.321955	-0.012808	-0.013142	0.002487
303	1.530111	0.005000	9.103680	-0.807582	1.580991	-0.759527	-0.276520	-0.324299	-0.018287	-0.002482	-0.003282
304	1.535111	0.005000	9.133799	-0.941760	1.696441	-0.758533	-0.275968	-0.326642	-0.012524	-0.012036	-0.005198
305	1.540111	0.005000	9.163038	-0.902520	1.622252	-0.757539	-0.275416	-0.328986	-0.006704	-0.019609	0.003055
306	1.545111	0.005000	9.147625	-0.893111	1.668502	-0.756545	-0.274863	-0.331329	-0.010511	-0.011964	-0.004013
307	1.550111	0.005000	9.140563	-0.865637	1.500547	-0.755551	-0.274311	-0.333672	-0.005672	-0.024540	0.018364
308	1.555111	0.005000	9.103680	-0.902520	1.648080	-0.754557	-0.273759	-0.336016	-0.017597	-0.004887	-0.003301
309	1.560111	0.005000	9.254625	-0.865285	1.569600	-0.753563	-0.273207	-0.338359	-0.013654	-0.019539	-0.004743
310	1.565111	0.005000	9.221400	-0.832859	1.648080	-0.752569	-0.272655	-0.340703	-0.013993	-0.004359	-0.002538
311	1.570111	0.005000	9.149746	-0.830866	1.752149	-0.751575	-0.272102	-0.343046	-0.008065	-0.013482	-0.005738
312	1.575111	0.005000	9.112449	-0.767261	1.578369	-0.750746	-0.271624	-0.345041	-0.013959	-0.017123	0.002185
313	1.580111	0.005000	9.154096	-0.812864	1.580776	-0.750746	-0.271513	-0.345288	-0.018694	-0.011885	-0.011035
314	1.585111	0.005000	9.221400	-0.835355	1.569600	-0.750746	-0.271403	-0.345534	-0.007560	-0.023537	0.008269
315	1.590111	0.005000	9.150254	-0.909854	1.482929	-0.750746	-0.271292	-0.345781	-0.016933	-0.007135	0.002431
316	1.595111	0.005000	9.124983	-0.802737	1.569600	-0.750746	-0.271182	-0.346028	-0.004076	-0.011632	-0.002121
317	1.600111	0.005000	9.220880	-0.824040	1.628200	-0.750746	-0.271071	-0.346274	-0.010390	-0.007022	0.000428
318	1.605111	0.005000	9.204452	-0.897177	1.535703	-0.750746	-0.270961	-0.346521	-0.018113	-0.000249	0.001257
319	1.610111	0.005000	9.152511	-0.887695	1.491120	-0.750746	-0.270850	-0.346768	-0.018892	-0.008494	0.008385
320	1.615111	0.005000	9.142920	-0.811445	1.450426	-0.750746	-0.270740	-0.347014	-0.019951	-0.004276	-0.008320
321	1.620111	0.005000	9.113861	-0.873461	1.619021	-0.750746	-0.270629	-0.347261	-0.013216	-0.013354	-0.007163
322	1.625111	0.005000	9.174022	-0.799625	1.726560	-0.750746	-0.270519	-0.347507	-0.019558	-0.000021	-0.002710
323	1.630111	0.005000	9.182160	-0.857449	1.575431	-0.750746	-0.270408	-0.347754	-0.012891	0.000651	-0.007699
324	1.635111	0.005000	9.149748	-0.899106	1.615668	-0.750746	-0.270298	-0.348001	-0.016236	0.000275	-0.002395
325	1.640111	0.005000	9.256283	-0.938856	1.685868	-0.750746	-0.270187	-0.348247	-0.007991	0.010488	-0.004911
326	1.645111	0.005000	9.142920	-0.824974	1.571468	-0.750602	-0.270149	-0.348091	-0.001504	0.001338	-0.004864
327	1.650111	0.005000	9.142920	-0.863280	1.648080	-0.750381	-0.270149	-0.347721	-0.008508	0.014102	-0.002898
328	1.655111	0.005000	9.098385	-0.897225	1.603545	-0.750160	-0.270149	-0.347351	-0.012970	0.000013	-0.001431
329	1.660111	0.005000	9.127518	-0.894819	1.444179	-0.749939	-0.270149	-0.346981	-0.011133	-0.000601	0.002345
330	1.665111	0.005000	9.142920	-0.794442	1.608840	-0.749718	-0.270149	-0.346611	-0.015770	0.004659	-0.009164
331	1.670111	0.005000	9.118822	-0.760702	1.503169	-0.749497	-0.270149	-0.346241	-0.014810	-0.007650	-0.002325
332	1.675111	0.005000	9.103680	-0.784800	1.608840	-0.749276	-0.270149	-0.345871	-0.018283	-0.000462	-0.009335
333	1.680111	0.005000	9.126514	-0.778372	1.635224	-0.749055	-0.270149	-0.345501	-0.006806	-0.003507	-0.006877
334	1.685111	0.005000	9.083031	-0.708377	1.629489	-0.748835	-0.270149	-0.345131	-0.008967	0.001062	0.001949
335	1.690111	0.005000	9.140639	-0.803279	1.590361	-0.748614	-0.270149	-0.344761	-0.011661	-0.002644	-0.011375
336	1.695111	0.005000	9.182160	-0.863280	1.640979	-0.748393	-0.270149	-0.344391	-0.010509	-0.009366	0.012309
337	1.700111	0.005000	9.103680	-0.796115	1.698635	-0.748172	-0.270149	-0.344021	-0.009511	0.000445	-0.000275
338	1.705111	0.005000	9.131208	-0.796512	1.601231	-0.747951	-0.270149	-0.343651	0.005280	-0.010551	-0.002166
339	1.710111	0.005000	9.142920	-0.766190	1.530360	-0.747761	-0.270195	-0.343299	-0.001504	-0.003541	-0.000473
340	1.715111	0.005000	9.206848	-0.831316	1.569600	-0.747761	-0.270527	-0.343052	-0.006116	-0.004366	0.006914
341	1.720111	0.005000	9.187105	-0.824040	1.692265	-0.747761	-0.270858	-0.342805	-0.008839	-0.001851	0.003825
342	1.725111	0.005000	9.255559	-0.824040	1.577221	-0.747761	-0.271189	-0.342559	-0.012034	-0.005728	-0.001405
343	1.730111	0.005000	9.144690	-0.822270	1.646900	-0.747761	-0.271521	-0.342312	-0.008965	-0.012667	0.006222
344	1.735111	0.005000	9.223207	-0.781187	1.681900	-0.747761	-0.271852	-0.342065	-0.017456	0.000755	-0.006559
345	1.740111	0.005000	9.190510	-0.784800	1.757450	-0.747761	-0.272184	-0.341819	-0.015228	-0.010313	0.000641
346	1.745111	0.005000	9.025200	-0.691750	1.792705	-0.747761	-0.272515	-0.341572	-0.009999	-0.006959	-0.004470
347	1.750111	0.005000	9.125773	-0.824040	1.634561	-0.747761	-0.272846	-0.341325	-0.011994	-0.008534	-0.008005
348	1.755111	0.005000	9.249779	-0.784800	1.608840	-0.747761	-0.273178	-0.341079	-0.006904	-0.008706	0.001195
349	1.760111	0.005000	9.090304	-0.863280	1.687320	-0.747761	-0.273509	-0.340832	-0.015751	0.004856	-0.002483
350	1.765111	0.005000	9.158077	-0.830272	1.678395	-0.747761	-0.273841	-0.340585	-0.005970	-0.011885	-0.006289
351	1.770111	0.005000	9.177490	-0.806755	1.591555	-0.747761	-0.274172	-0.340339	-0.007099	0.007160	-0.002250
352	1.775111	0.005000	9.202010	-0.784953	1.608993	-0.747761	-0.274503	-0.340092	-0.005469	-0.009662	-0.006802
353	1.780111	0.005000	9.125524	-0.806644	1.552204	-0.747830	-0.274489	-0.340232	-0.006651	0.001255	0.002273
354	1.785111	0.005000	9.103680	-0.815175	1.584788	-0.747941	-0.274268	-0.340602	-0.012683	-0.006570	-0.003950
355	1.790111	0.005000	9.064425	-0.797885	1.634995	-0.748051	-0.274047	-0.340971	-0.011238	-0.008309	0.005370
356	1.795111	0.005000	9.086111	-0.723889	1.626409	-0.748162	-0.273826	-0.341341	-0.020030	-0.000976	-0.006350
357	1.800111	0.005000	9.081281	-0.692342	1.678899	-0.748272	-0.273605	-0.341711	-0.013890	-0.010858	0.004043
358	1.805111	0.005000	9.227801	-0.797603	1.563199	-0.748382	-0.273385	-0.342081	-0.011953	-0.006462	0.002368
359	1.810111	0.005000	9.221400	-0.788873	1.604767	-0.748493	-0.273164	-0.342451	-0.006279	0.002506	-0.007576
360	1.815111	0.005000	9.223068	-0.788136	1.607172	-0.748603	-0.272943	-0.342821	-0.006979	-0.001243	0.010603
361	1.820111	0.005000	9.143747	-0.785351	1.569600	-0.748714	-0.272722	-0.343190	-0.016336	-0.006025	-0.004467
362	1.825111	0.005000	9.142920	-0.824040	1.606146	-0.748824	-0.272501	-0.343560	-0.008433	-0.012493	0.001084
363	1.830111	0.005000	9.187197	-0.936723	1.682283	-0.748935	-0.272281	-0.343930	-0.007857	0.001664	0.003496
364	1.835111	0.005000	9.292837	-0.831083	1.615883	-0.749045	-0.272060	-0.344300	-0.012762	-0.017118	0.003902
365	1.840111	0.005000	9.230858	-0.872738	1.589924	-0.749155	-0.271839	-0.344670	-0.014764	-0.005606	0.005403
366	1.845111	0.005000	9.123058	-0.890796	1.632287	-0.749254	-0.271630	-0.345013	-0.009966	0.000786	-0.004332
367	1.850111	0.005000	9.168350	-0.784800	1.661890	-0.749254	-0.271520	-0.345137	-0.012217	-0.009972	0.002489
368	1.855111	0.005000	9.135750	-0.847245	1.724866	-0.749254	-0.271409	-0.345260	-0.011606	-0.001415	0.008568
369	1.860111	0.005000	9.121846	-0.863280	1.720744	-0.749254	-0.271299	-0.345383	-0.015360	-0.010835	0.008383
370	1.865111	0.005000	9.103680	-0.807291	1.513611	-0.749254	-0.271188	-0.345507	-0.021093	-0.001371	0.001324
371	1.870111	0.005000	9.103680	-0.896318	1.563398	-0.749254	-0.271078	-0.345630	-0.021883	0.005813	-0.002354
372	1.875111	0.005000	9.157229	-0.898832	1.658701	-0.749254	-0.270967	-0.345753	-0.026388	-0.001289	0.000253
373	1.880111	0.005000	9.146440	-0.899000	1.659987	-0.749254	-0.270857	-0.345877	-0.026248	-0.007725	-0.007272
374	1.885111	0.005000	9.083984	-0.804496	1.608689	-0.749254	-0.270746	-0.346000	-0.024081	-0.003810	0.005820
375	1.890111	0.005000	9.079536	-0.934212	1.530360	-0.749254	-0.270636	-0.346123	-0.017688	-0.005357	0.004636
376	1.895111	0.005000	9.171876	-0.897378	1.564458	-0.749254	-0.270525	-0.346247	-0.013485	-0.016938	0.001427
377	1.900111	0.005000	9.106842	-0.869603	1.608840	-0.749254	-0.270415	-0.346370	-0.006305	-0.017109	0.011013
378	1.905111	0.005000	9.104461	-0.784800	1.531922	-0.749254	-0.270304	-0.346494	-0.009688	0.002256	-0.003431
379	1.910111	0.005000	9.180557	-0.860073	1.571203	-0.749254	-0.270194	-0.346617	-0.003969	-0.011455	-0.000912
380	1.915111	0.005000	9.135785	-0.866847	1.619542	-0.749254	-0.270280	-0.346374	-0.009681	-0.006286	0.007905
381	1.920111	0.005000	9.215416	-0.824040	1.608840	-0.749254	-0.270501	-0.345881	-0.006643	-0.013096	0.012490
382	1.925111	0.005000	9.173870	-0.753850	1.586179	-0.749254	-0.270722	-0.345388	-0.010042	-0.011265	0.004003
383	1.930111	0.005000	9.085109	-0.842611	1.569600	-0.749254	-0.270943	-0.344895	-0.010186	-0.015411	0.000872
384	1.935111	0.005000	8.998708	-0.863280	1.555857	-0.749254	-0.271163	-0.344401	-0.013584	-0.020494	0.005079
385	1.940111	0.005000	9.000936	-0.863280	1.530360	-0.749254	-0.271384	-0.343908	-0.016748	-0.006109	-0.003943
386	1.945111	0.005000	9.064440	-0.841141	1.625941	-0.749254	-0.271605	-0.343415	-0.015085	-0.015051	0.004175
387	1.950111	0.005000	9.142690	-0.843775	1.510855	-0.749254	-0.271826	-0.342922	-0.012513	-0.004461	0.008733
388	1.955111	0.005000	9.125342	-0.880858	1.512782	-0.749254	-0.272047	-0.342429	-0.009221	-0.003567	0.001401
389	1.960111	0.005000	9.103680	-0.721701	1.498022	-0.749254	-0.272267	-0.341936	-0.006826	0.000098	0.015311
390	1.965111	0.005000	9.169192	-0.719288	1.608840	-0.749254	-0.272488	-0.341442	-0.013971	-0.000313	0.000607
391	1.970111	0.005000	9.092788	-0.745560	1.619732	-0.749254	-0.272709	-0.340949	-0.011959	-0.011499	0.017107
392	1.975111	0.005000	9.047407	-0.754077	1.625873	-0.749254	-0.272930	-0.340456	-0.018221	0.000745	0.004085
393	1.980111	0.005000	9.031401	-0.817839	1.641879	-0.749237	-0.273109	-0.340000	-0.022703	-0.013776	-0.000527
394	1.985111	0.005000	9.107475	-0.788595	1.573395	-0.749017	-0.272778	-0.340000	-0.016437	-0.014005	0.006459
395	1.990111	0.005000	9.182160	-0.747390	1.683659	-0.748796	-0.272447	-0.340000	-0.017278	-0.004582	-0.007671
396	1.995111	0.005000	9.182160	-0.746126	1.647514	-0.748575	-0.272115	-0.340000	-0.014165	-0.016305	0.000912
397	2.000111	0.005000	9.142920	-0.751429	1.687320	-0.748354	-0.271784	-0.340000	-0.012220	0.002320	0.010013
398	2.005111	0.005000	9.147835	-0.863280	1.613755	-0.748133	-0.271453	-0.340000	-0.012546	-0.006431	0.003143
399	2.010111	0.005000	9.253309	-0.767552	1.576931	-0.747912	-0.271121	-0.340000	-0.018045	-0.000354	0.009358
400	2.015111	0.005000	9.221400	-0.745560	1.559979	-0.747691	-0.270790	-0.340000	-0.007483	-0.004123	0.000357
401	2.020111	0.005000	9.221400	-0.745560	1.636398	-0.747470	-0.270459	-0.340000	-0.011792	-0.008323	0.008718
402	2.025111	0.005000	9.142920	-0.809955	1.673235	-0.747249	-0.270127	-0.340000	-0.021849	0.000374	0.001011
403	2.030111	0.005000	9.205093	-0.912201	1.608840	-0.747028	-0.269796	-0.340000	-0.007648	-0.007512	0.005558
404	2.035111	0.005000	9.205315	-0.902520	1.590398	-0.746808	-0.269465	-0.340000	-0.017341	-0.004428	0.003107
405	2.040111	0.005000	9.263105	-0.863280	1.608840	-0.746587	-0.269133	-0.340000	-0.007544	-0.011610	0.012979
406	2.045111	0.005000	9.247147	-0.941760	1.592593	-0.746366	-0.268802	-0.340000	-0.008963	-0.004200	0.005781
407	2.050111	0.005000	9.170988	-0.860418	1.516326	-0.746393	-0.268967	-0.340000	-0.014355	0.002168	-0.008656
408	2.055111	0.005000	9.119679	-0.874900	1.514361	-0.746614	-0.269519	-0.340000	-0.008801	-0.014891	0.010584
409	2.060111	0.005000	9.103680	-0.863280	1.636479	-0.746835	-0.270072	-0.340000	-0.018313	-0.003108	0.008791
410	2.065111	0.005000	9.167789	-0.934575	1.719375	-0.747056	-0.270624	-0.340000	-0.001475	-0.015895	0.009786
411	2.070111	0.005000	9.093973	-0.819187	1.608840	-0.747277	-0.271176	-0.340000	-0.004350	-0.004156	0.010968
412	2.075111	0.005000	9.066889	-0.787249	1.488671	-0.747498	-0.271728	-0.340000	-0.015600	-0.002817	-0.000991
413	2.080111	0.005000	9.064440	-0.902021	1.568102	-0.747718	-0.272280	-0.340000	-0.017703	-0.002399	0.006309
414	2.085111	0.005000	9.139094	-0.900607	1.489207	-0.747939	-0.272833	-0.340000	-0.015577	-0.000350	-0.012567
415	2.090111	0.005000	9.107946	-0.828306	1.596042	-0.748160	-0.273385	-0.340000	-0.011251	-0.004977	-0.001668
416	2.095111	0.005000	9.188422	-0.817778	1.641818	-0.748381	-0.273937	-0.340000	-0.018257	0.004110	0.000556
417	2.100111	0.005000	9.164829	-0.863280	1.656746	-0.748602	-0.274489	-0.340000	-0.006221	-0.001657	0.000385
418	2.105111	0.005000	9.182160	-0.846200	1.648080	-0.748823	-0.275041	-0.340000	-0.003957	-0.007859	0.006502
419	2.110111	0.005000	9.182160	-0.863280	1.622032	-0.749044	-0.275594	-0.340000	-0.012217	-0.002241	0.008352
420	2.115111	0.005000	9.135862	-0.909578	1.624273	-0.749259	-0.276108	-0.340030	-0.007946	-0.002744	0.019689
421	2.120111	0.005000	9.239038	-0.828003	1.608840	-0.749370	-0.275887	-0.340647	-0.022468	0.006882	0.002445
422	2.125111	0.005000	9.280428	-0.785137	1.608503	-0.749480	-0.275666	-0.341263	-0.011395	-0.011362	0.003877
423	2.130111	0.005000	9.209519	-0.723360	1.665120	-0.749591	-0.275446	-0.341880	-0.014314	0.000983	0.000663
424	2.135111	0.005000	9.157835	-0.848365	1.672405	-0.749701	-0.275225	-0.342497	-0.010793	-0.000290	-0.010767
425	2.140111	0.005000	9.103680	-0.719007	1.725382	-0.749811	-0.275004	-0.343113	-0.013134	-0.006648	0.010867
426	2.145111	0.005000	9.171887	-0.755833	1.668626	-0.749922	-0.274783	-0.343730	-0.006402	-0.002604	0.003289
427	2.150111	0.005000	9.174294	-0.863280	1.624573	-0.750032	-0.274562	-0.344347	-0.003815	-0.011320	0.002793
428	2.155111	0.005000	9.254786	-0.847457	1.642226	-0.750143	-0.274341	-0.344963	-0.015007	0.006797	0.001753
429	2.160111	0.005000	9.182160	-0.938254	1.648080	-0.750253	-0.274120	-0.345580	-0.008830	-0.004452	0.001893
430	2.165111	0.005000	9.104782	-0.825142	1.686218	-0.750363	-0.273899	-0.346197	-0.015980	-0.005157	0.008330
431	2.170111	0.005000	9.181318	-0.786484	1.571284	-0.750474	-0.273678	-0.346813	-0.011280	-0.006931	0.006792
432	2.175111	0.005000	9.110172	-0.706320	1.461617	-0.750584	-0.273458	-0.347430	-0.005035	-0.011042	0.005157
433	2.180111	0.005000	9.114060	-0.779610	1.559220	-0.750695	-0.273237	-0.348047	-0.007585	-0.004498	-0.004962
434	2.185111	0.005000	9.135314	-0.737954	1.483514	-0.750687	-0.273016	-0.348267	0.003790	-0.004636	0.007191
435	2.190111	0.005000	9.172147	-0.824040	1.501133	-0.750576	-0.272795	-0.348144	-0.003129	0.006477	0.011449
436	2.195111	0.005000	9.142920	-0.770127	1.608840	-0.750466	-0.272574	-0.348020	-0.001804	-0.000662	-0.006345
437	2.200111	0.005000	9.196531	-0.784800	1.544731	-0.750356	-0.272353	-0.347897	-0.009552	-0.005134	0.005444
438	2.205111	0.005000	9.198940	-0.885740	1.569600	-0.750245	-0.272132	-0.347774	-0.014929	-0.001173	0.001991
439	2.210111	0.005000	9.123950	-0.861979	1.726560	-0.750135	-0.271911	-0.347651	-0.008951	-0.007405	-0.000369
440	2.215111	0.005000	9.124815	-0.805935	1.629975	-0.750024	-0.271690	-0.347527	-0.021831	0.003499	-0.005756
441	2.220111	0.005000	9.111519	-0.824040	1.553907	-0.749914	-0.271469	-0.347404	-0.024040	-0.004952	-0.001794
442	2.225111	0.005000	9.078024	-0.824040	1.583184	-0.749804	-0.271249	-0.347281	-0.016345	0.001033	0.000875
443	2.230111	0.005000	9.193500	-0.824040	1.592281	-0.749693	-0.271028	-0.347157	-0.022162	0.003686	-0.005996
444	2.235111	0.005000	9.146457	-0.775874	1.608840	-0.749583	-0.270807	-0.347034	-0.020662	-0.008516	0.009199
445	2.240111	0.005000	9.142920	-0.731764	1.694218	-0.749472	-0.270586	-0.346911	-0.022517	-0.000099	-0.006641
446	2.245111	0.005000	9.108203	-0.828563	1.678274	-0.749362	-0.270365	-0.346788	-0.018520	-0.002578	0.000530
447	2.250111	0.005000	9.217054	-0.826213	1.726560	-0.749269	-0.270171	-0.346618	-0.020904	0.005384	-0.006026
448	2.255111	0.005000	9.260413	-0.941760	1.687547	-0.749931	-0.271165	-0.344398	-0.021362	-0.005060	0.002626
449	2.260111	0.005000	9.184349	-0.904709	1.763611	-0.750594	-0.272159	-0.342178	-0.012270	-0.000163	0.007800
450	2.265111	0.005000	9.173084	-0.867818	1.761262	-0.751257	-0.273153	-0.339958	-0.021258	0.011957	-0.012182
451	2.270111	0.005000	9.254103	-0.778263	1.674245	-0.751919	-0.274147	-0.337738	-0.005254	-0.004421	-0.007675
452	2.275111	0.005000	9.173207	-0.745560	1.708654	-0.752582	-0.275141	-0.335517	-0.015401	-0.005719	0.000944
453	2.280111	0.005000	9.210176	-0.723111	1.698544	-0.753245	-0.276135	-0.333297	-0.011202	-0.013509	-0.008985
454	2.285111	0.005000	9.195465	-0.797431	1.648754	-0.753908	-0.277130	-0.331077	-0.007713	-0.012552	-0.002363
455	2.290111	0.005000	9.080157	-0.698408	1.671603	-0.754570	-0.278124	-0.328857	-0.006245	-0.001737	-0.010840
456	2.295111	0.005000	9.100261	-0.784800	1.648080	-0.755233	-0.279118	-0.326637	-0.005731	-0.012904	-0.003584
457	2.300111	0.005000	9.142920	-0.863280	1.629141	-0.755896	-0.280112	-0.324417	-0.016306	-0.005520	-0.008993
458	2.305111	0.005000	9.103680	-0.790524	1.552842	-0.756558	-0.281106	-0.322197	-0.009108	-0.013483	-0.000501
459	2.310111	0.005000	9.182160	-0.774251	1.583946	-0.757221	-0.282100	-0.319977	-0.015723	-0.012831	0.006314
460	2.315111	0.005000	9.169907	-0.809306	1.518107	-0.757884	-0.283094	-0.317757	-0.011370	-0.006281	-0.009418
461	2.320111	0.005000	9.230647	-0.892522	1.550355	-0.758546	-0.283582	-0.316227	-0.012816	-0.020697	0.006074
462	2.325111	0.005000	9.127738	-0.848098	1.648080	-0.759209	-0.283582	-0.315364	-0.017352	-0.010139	-0.014659
463	2.330111	0.005000	9.131625	-0.779153	1.563953	-0.759872	-0.283582	-0.314500	-0.008765	-0.010042	-0.007150
464	2.335111	0.005000	9.146624	-0.792207	1.534064	-0.760535	-0.283582	-0.313636	-0.003247	-0.014167	-0.002185
465	2.340111	0.005000	9.222686	-0.864566	1.530360	-0.761198	-0.283582	-0.312772	-0.009355	-0.009329	0.001766
466	2.345111	0.005000	9.184369	-0.749977	1.530360	-0.761861	-0.283582	-0.311908	-0.010873	-0.011486	0.006110
467	2.350111	0.005000	9.073626	-0.817916	1.566538	-0.762524	-0.283582	-0.311045	-0.017232	-0.005950	-0.006414
468	2.355111	0.005000	9.176744	-0.750976	1.598009	-0.763187	-0.283582	-0.310181	-0.007602	-0.015104	0.005120
469	2.360111	0.005000	9.142920	-0.824040	1.522937	-0.763850	-0.283582	-0.309317	-0.004295	-0.001901	-0.000421
470	2.365111	0.005000	9.152749	-0.745560	1.608840	-0.764513	-0.283582	-0.308453	-0.001641	-0.015819	-0.000407
471	2.370111	0.005000	9.170058	-0.757662	1.660182	-0.765176	-0.283582	-0.307590	-0.011623	-0.009649	-0.001700
472	2.375111	0.005000	9.092814	-0.849093	1.516173	-0.765839	-0.283582	-0.306726	-0.016559	-0.008047	-0.010359
473	2.380111	0.005000	9.198756	-0.846684	1.546956	-0.766502	-0.283582	-0.305862	-0.019443	-0.005167	0.010619
474	2.385111	0.005000	9.182160	-0.955983	1.493279	-0.767161	-0.283581	-0.305006	-0.008292	-0.005516	-0.008508
475	2.390111	0.005000	9.103680	-0.863280	1.548656	-0.765725	-0.283250	-0.308090	-0.008996	-0.007536	-0.003012
476	2.395111	0.005000	9.166004	-0.824040	1.641152	-0.764289	-0.282919	-0.311173	-0.021860	-0.005815	0.007758
477	2.400111	0.005000	9.131564	-0.849338	1.684734	-0.762854	-0.282587	-0.314256	-0.008481	-0.018024	-0.000556
478	2.405111	0.005000	9.182160	-0.866941	1.608840	-0.761418	-0.282256	-0.317340	-0.009503	-0.008896	0.004764
479	2.410111	0.005000	9.202232	-0.755144	1.588768	-0.759982	-0.281924	-0.320423	-0.019011	0.001878	0.000195
480	2.415111	0.005000	9.096502	-0.738382	1.583955	-0.758546	-0.281593	-0.323507	-0.021846	-0.009771	0.011027
481	2.420111	0.005000	9.064440	-0.813693	1.551054	-0.757110	-0.281262	-0.326590	-0.014477	0.005537	0.018574
482	2.425111	0.005000	9.033651	-0.672714	1.684503	-0.755674	-0.280930	-0.329674	-0.009081	-0.007628	0.008015
483	2.430111	0.005000	9.103680	-0.785213	1.648493	-0.754238	-0.280599	-0.332757	-0.018442	0.007912	0.010012
484	2.435111	0.005000	9.103680	-0.861749	1.611902	-0.752803	-0.280268	-0.335840	-0.012299	0.001628	0.010554
485	2.440111	0.005000	9.217452	-0.749508	1.636235	-0.751367	-0.279936	-0.338924	-0.009118	-0.001164	0.019779
486	2.445111	0.005000	9.188514	-0.770975	1.596133	-0.749931	-0.279605	-0.342007	-0.008759	0.006426	0.005964
487	2.450111	0.005000	9.042536	-0.745560	1.556364	-0.748495	-0.279273	-0.345091	-0.010559	-0.005050	0.012784
488	2.455111	0.005000	8.996673	-0.809715	1.484019	-0.747815	-0.278672	-0.346426	-0.003757	-0.001153	-0.000374
489	2.460111	0.005000	9.142798	-0.784922	1.517239	-0.747925	-0.277789	-0.345932	-0.009314	-0.002006	-0.005304
490	2.465111	0.005000	9.151482	-0.847941	1.545699	-0.748036	-0.276905	-0.345439	-0.007559	-0.008260	0.013923
491	2.470111	0.005000	9.164691	-0.924291	1.456182	-0.748146	-0.276021	-0.344946	-0.010347	-0.002520	0.000613
492	2.475111	0.005000	9.202040	-0.805201	1.511521	-0.748257	-0.275138	-0.344452	-0.006403	-0.005644	0.009152
493	2.480111	0.005000	9.186970	-0.858470	1.486310	-0.748367	-0.274254	-0.343959	-0.007928	-0.002379	0.001364
494	2.485111	0.005000	9.167156	-0.809036	1.584604	-0.748478	-0.273371	-0.343466	-0.008977	-0.013975	0.008277
495	2.490111	0.005000	9.274689	-0.758155	1.557005	-0.748588	-0.272487	-0.342972	-0.014422	0.002666	0.019153
496	2.495111	0.005000	9.221400	-0.805857	1.648080	-0.748699	-0.271603	-0.342479	-0.009185	0.006062	0.002772
497	2.500111	0.005000	9.260640	-0.871517	1.608840	-0.748809	-0.270720	-0.341986	-0.009487	-0.005440	0.013954
498	2.505111	0.005000	9.254809	-0.784800	1.675658	-0.748920	-0.269836	-0.341492	-0.010406	0.006725	0.000819
499	2.510111	0.005000	9.150605	-0.824040	1.620367	-0.749030	-0.268953	-0.340999	-0.011311	-0.005487	0.010996
500	2.515111	0.005000	9.145860	-0.825510	1.688790	-0.749141	-0.268069	-0.340505	-0.013270	0.004690	0.001831
501	2.520111	0.005000	9.183083	-0.824963	1.688243	-0.749251	-0.267186	-0.340012	-0.010748	-0.000341	0.009411
502	2.525111	0.005000	9.067753	-0.824040	1.576226	-0.749254	-0.267918	-0.340842	-0.015978	-0.002559	0.014196
503	2.530111	0.005000	9.046381	-0.784800	1.603545	-0.749254	-0.268691	-0.341706	-0.009582	0.006275	-0.001649
504	2.535111	0.005000	9.166758	-0.816339	1.585002	-0.749254	-0.269465	-0.342569	-0.008912	-0.004449	0.008906
505	2.540111	0.005000	9.103680	-0.833682	1.628123	-0.749254	-0.270238	-0.343432	-0.015237	0.006676	0.012732
506	2.545111	0.005000	9.076489	-0.757609	1.566507	-0.749254	-0.271011	-0.344296	-0.011214	-0.007828	0.000320
507	2.550111	0.005000	9.117975	-0.848985	1.683674	-0.749254	-0.271784	-0.345159	-0.015233	-0.000985	0.004409
508	2.555111	0.005000	9.087274	-0.896092	1.658058	-0.749254	-0.272557	-0.346023	-0.029431	-0.000855	-0.003201
509	2.560111	0.005000	9.103680	-0.924551	1.629264	-0.749254	-0.273330	-0.346886	-0.014869	-0.005910	0.004024
510	2.565111	0.005000	9.119216	-0.860557	1.608840	-0.749254	-0.274104	-0.347749	-0.017606	0.005803	0.004923
511	2.570111	0.005000	9.142920	-0.807971	1.648080	-0.749254	-0.274877	-0.348613	-0.011731	0.004497	0.006900
512	2.575111	0.005000	9.103680	-0.838002	1.572247	-0.749254	-0.275650	-0.349476	-0.009263	-0.003502	0.007602
513	2.580111	0.005000	9.115392	-0.835752	1.675608	-0.749254	-0.276423	-0.350339	-0.010498	-0.003525	-0.007854
514	2.585111	0.005000	9.212095	-0.775495	1.590230	-0.749254	-0.277196	-0.351203	-0.007784	-0.007744	0.006962
515	2.590111	0.005000	9.086269	-0.731008	1.562324	-0.749254	-0.277306	-0.351496	-0.006060	-0.003121	-0.000102
516	2.595111	0.005000	9.177215	-0.681916	1.579490	-0.749254	-0.276643	-0.351126	-0.002885	-0.013637	-0.000620
517	2.600111	0.005000	9.140380	-0.894899	1.682239	-0.749254	-0.275980	-0.350756	-0.013177	-0.004800	-0.002575
518	2.605111	0.005000	9.141726	-0.784203	1.567809	-0.749254	-0.275318	-0.350386	-0.006486	-0.005461	-0.006493
519	2.610111	0.005000	9.214260	-0.708105	1.601700	-0.749254	-0.274655	-0.350016	-0.007687	-0.009673	0.003460
520	2.615111	0.005000	9.225151	-0.820289	1.573351	-0.749254	-0.273992	-0.349646	-0.003759	0.002145	-0.001117
521	2.620111	0.005000	9.182160	-0.784800	1.621175	-0.749254	-0.273329	-0.349276	-0.005348	-0.015164	0.004951
522	2.625111	0.005000	9.095209	-0.885578	1.538831	-0.749254	-0.272667	-0.348906	-0.014260	-0.003508	0.005952
523	2.630111	0.005000	9.142920	-0.845763	1.558739	-0.749254	-0.272004	-0.348536	-0.015068	-0.010909	0.012580
524	2.635111	0.005000	9.090748	-0.915896	1.517428	-0.749254	-0.271341	-0.348166	-0.010787	-0.000773	0.005977
525	2.640111	0.005000	9.112238	-0.957101	1.608840	-0.749254	-0.270679	-0.347796	-0.020843	-0.009587	0.000405
526	2.645111	0.005000	9.182160	-0.780130	1.582216	-0.749254	-0.270016	-0.347426	-0.010257	0.003578	0.010024
527	2.650111	0.005000	9.201857	-0.765103	1.608840	-0.749254	-0.269353	-0.347056	-0.016592	0.007805	0.002719
528	2.655111	0.005000	9.059464	-0.784800	1.630948	-0.749254	-0.268691	-0.346686	-0.012888	-0.008339	0.004611
529	2.660111	0.005000	9.202945	-0.878286	1.608840	-0.749149	-0.268762	-0.347018	-0.020720	0.004152	0.007207
530	2.665111	0.005000	9.156602	-0.810358	1.635301	-0.749039	-0.268872	-0.347388	-0.020076	0.000644	0.003713
531	2.670111	0.005000	9.142920	-0.805530	1.679175	-0.748928	-0.268983	-0.347758	-0.020330	-0.003335	0.007226
532	2.675111	0.005000	9.134600	-0.731280	1.639760	-0.748818	-0.269093	-0.348128	-0.019568	-0.007005	-0.000643
533	2.680111	0.005000	9.082491	-0.812006	1.720543	-0.748707	-0.269203	-0.348498	-0.012616	-0.015584	0.006491
534	2.685111	0.005000	9.096456	-0.863280	1.801428	-0.748597	-0.269314	-0.348868	-0.022469	0.001492	0.000443
535	2.690111	0.005000	9.064440	-0.866578	1.760853	-0.748486	-0.269424	-0.349238	-0.016895	-0.010633	0.005859
536	2.695111	0.005000	9.102930	-0.787800	1.609590	-0.748376	-0.269535	-0.349608	-0.020247	-0.008048	-0.003015
537	2.700111	0.005000	9.251291	-0.784800	1.687320	-0.748265	-0.269645	-0.349978	-0.012557	-0.018389	-0.008951
538	2.705111	0.005000	9.216302	-0.829138	1.608840	-0.748155	-0.269755	-0.350348	-0.009323	-0.012951	0.005616
539	2.710111	0.005000	9.221400	-0.919217	1.655594	-0.748044	-0.269866	-0.350718	-0.012219	-0.005892	-0.005120
540	2.715111	0.005000	9.221400	-0.765165	1.697153	-0.747934	-0.269976	-0.351088	-0.004580	-0.011606	0.001603
541	2.720111	0.005000	9.272505	-0.878789	1.581465	-0.747823	-0.270087	-0.351458	-0.007192	-0.009817	-0.003742
542	2.725111	0.005000	9.257044	-0.941760	1.594561	-0.747665	-0.269956	-0.351398	-0.007227	-0.006147	-0.002870
543	2.730111	0.005000	9.266903	-0.807551	1.553111	-0.747444	-0.269515	-0.350781	-0.013048	-0.001336	0.009888
544	2.735111	0.005000	9.198817	-0.822065	1.547017	-0.747223	-0.269073	-0.350165	-0.013744	-0.004230	0.001265
545	2.740111	0.005000	9.176467	-0.878630	1.587797	-0.747002	-0.268631	-0.349548	-0.007222	-0.013370	0.012147
546	2.745111	0.005000	9.150030	-0.831150	1.662300	-0.746781	-0.268189	-0.348931	-0.022917	-0.002462	0.006194
547	2.750111	0.005000	9.170601	-0.798640	1.595000	-0.746560	-0.267747	-0.348314	-0.004650	-0.010537	0.000331
548	2.755111	0.005000	9.221400	-0.812603	1.597403	-0.746339	-0.267306	-0.347698	-0.011807	-0.007136	0.003987
549	2.760111	0.005000	9.142920	-0.764318	1.638701	-0.746118	-0.266864	-0.347081	-0.008584	-0.006288	-0.003697
550	2.765111	0.005000	9.182160	-0.681252	1.615926	-0.745898	-0.266422	-0.346464	-0.010897	-0.010288	0.013819
551	2.770111	0.005000	9.138250	-0.754899	1.721890	-0.745677	-0.265980	-0.345848	-0.015942	-0.010478	0.009279
552	2.775111	0.005000	9.105945	-0.863280	1.759005	-0.745456	-0.265538	-0.345231	-0.023396	-0.012523	-0.000181
553	2.780111	0.005000	9.221082	-0.901885	1.647762	-0.745235	-0.265097	-0.344614	-0.013187	-0.004851	0.001784
554	2.785111	0.005000	9.182160	-0.786897	1.720270	-0.745014	-0.264655	-0.343997	-0.011521	-0.011918	-0.002516
555	2.790111	0.005000	9.177713	-0.719662	1.469670	-0.744793	-0.264213	-0.343381	-0.013867	-0.009305	0.006130
556	2.795111	0.005000	9.103680	-0.758451	1.569600	-0.745082	-0.264485	-0.343674	-0.017141	0.002848	-0.006627
557	2.800111	0.005000	8.977099	-0.793661	1.617701	-0.745413	-0.264816	-0.344044	-0.005367	-0.008858	0.001311
558	2.805111	0.005000	9.025200	-0.807067	1.608840	-0.745745	-0.265148	-0.344414	-0.006099	-0.002050	0.002128
559	2.810111	0.005000	9.103680	-0.811225	1.596025	-0.746076	-0.265479	-0.344784	-0.014988	-0.011710	0.000388
560	2.815111	0.005000	9.158546	-0.847654	1.624466	-0.746407	-0.265810	-0.345154	-0.023292	-0.001091	0.005687
561	2.820111	0.005000	9.185329	-0.784800	1.651249	-0.746739	-0.266142	-0.345524	-0.015327	-0.007628	-0.007068
562	2.825111	0.005000	9.280850	-0.805010	1.727740	-0.747070	-0.266473	-0.345894	-0.019548	-0.009204	0.009506
563	2.830111	0.005000	9.165303	-0.767943	1.732087	-0.747401	-0.266804	-0.346265	-0.022683	-0.007835	0.005033
564	2.835111	0.005000	9.153266	-0.774454	1.662527	-0.747733	-0.267136	-0.346635	-0.002627	-0.016170	0.003579
565	2.840111	0.005000	9.076799	-0.757919	1.662602	-0.748064	-0.267467	-0.347005	-0.011175	-0.008997	-0.001153
566	2.845111	0.005000	9.084378	-0.843342	1.687320	-0.748396	-0.267799	-0.347375	-0.021546	-0.010650	0.004081
567	2.850111	0.005000	9.135237	-0.863280	1.671955	-0.748727	-0.268130	-0.347745	-0.008650	-0.007541	0.005305
568	2.855111	0.005000	9.119480	-0.931227	1.580133	-0.749058	-0.268461	-0.348115	-0.014632	-0.006720	-0.007572
569	2.860111	0.005000	9.224683	-0.794648	1.494403	-0.749254	-0.268793	-0.348181	-0.004107	-0.010495	0.009391
570	2.865111	0.005000	9.143838	-0.940842	1.493875	-0.749254	-0.269124	-0.347811	0.001299	-0.004956	0.006101
571	2.870111	0.005000	9.219918	-0.864762	1.608840	-0.749254	-0.269456	-0.347441	0.000826	-0.017412	-0.001023
572	2.875111	0.005000	9.253753	-0.899077	1.644637	-0.749254	-0.269787	-0.347071	-0.007706	-0.009325	0.001453
573	2.880111	0.005000	9.227248	-0.874977	1.693168	-0.749254	-0.270119	-0.346701	-0.007248	-0.000048	-0.003895
574	2.885111	0.005000	9.167426	-0.801137	1.656249	-0.749254	-0.270450	-0.346330	-0.010874	0.002210	0.005120
575	2.890111	0.005000	9.124767	-0.845127	1.637536	-0.749254	-0.270782	-0.345960	-0.019742	-0.010012	0.001780
576	2.895111	0.005000	9.142920	-0.838049	1.542976	-0.749254	-0.271113	-0.345590	-0.009836	-0.011487	0.004952
577	2.900111	0.005000	9.079469	-0.829886	1.623869	-0.749254	-0.271444	-0.345220	-0.013508	-0.006086	-0.001497
578	2.905111	0.005000	9.108460	-0.902520	1.604060	-0.749254	-0.271776	-0.344850	-0.016022	-0.006880	-0.008143
579	2.910111	0.005000	9.162785	-0.843415	1.510985	-0.749254	-0.272107	-0.344480	-0.011828	-0.007611	0.008425
580	2.915111	0.005000	9.177827	-0.728106	1.613173	-0.749254	-0.272439	-0.344109	-0.011610	-0.002406	0.005943
581	2.920111	0.005000	9.324076	-0.721364	1.545404	-0.749254	-0.272770	-0.343739	-0.017419	-0.014836	0.002600
582	2.925111	0.005000	9.247691	-0.758509	1.595498	-0.749254	-0.273102	-0.343369	-0.018577	0.003357	0.001045
583	2.930111	0.005000	9.200282	-0.756119	1.637521	-0.749254	-0.272735	-0.343444	-0.014235	-0.012603	-0.005551
584	2.935111	0.005000	9.213120	-0.799201	1.592281	-0.749254	-0.272293	-0.343568	-0.011724	-0.001739	0.003500
585	2.940111	0.005000	9.148784	-0.824040	1.502848	-0.749254	-0.271852	-0.343691	-0.015233	0.002679	0.002875
586	2.945111	0.005000	9.142920	-0.867153	1.601095	-0.749254	-0.271410	-0.343814	-0.008802	-0.013711	0.005231
587	2.950111	0.005000	9.180645	-0.904035	1.533390	-0.749254	-0.270968	-0.343938	-0.019832	-0.008815	0.000505
588	2.955111	0.005000	9.104573	-0.865065	1.608840	-0.749254	-0.270526	-0.344061	-0.019139	-0.008206	0.007440
589	2.960111	0.005000	9.106947	-0.706320	1.612107	-0.749254	-0.270084	-0.344185	-0.009357	0.008894	0.001025
590	2.965111	0.005000	9.093177	-0.750811	1.653331	-0.749254	-0.269643	-0.344308	-0.012523	0.005550	-0.003535
591	2.970111	0.005000	9.167003	-0.784800	1.577179	-0.749254	-0.269201	-0.344431	-0.016404	0.003105	0.001613
592	2.975111	0.005000	9.094069	-0.775189	1.668098	-0.749254	-0.268759	-0.344555	-0.015101	0.010690	-0.004997
593	2.980111	0.005000	9.103680	-0.718338	1.672117	-0.749254	-0.268317	-0.344678	-0.007785	-0.002171	0.006101
594	2.985111	0.005000	9.064440	-0.756300	1.712310	-0.749254	-0.267876	-0.344801	-0.015238	0.007091	0.007828
595	2.990111	0.005000	9.159287	-0.768433	1.687320	-0.749254	-0.267434	-0.344925	-0.019673	0.005619	0.007564
596	2.995111	0.005000	9.142920	-0.883742	1.644713	-0.749297	-0.267250	-0.344856	-0.013666	0.010348	0.005511
597	3.000111	0.005000	9.142920	-0.844976	1.569600	-0.749407	-0.267471	-0.344486	-0.006172	0.000737	0.004443
598	3.005111	0.005000	9.221400	-0.863280	1.632166	-0.749518	-0.267692	-0.344116	-0.012973	-0.006142	0.013115
599	3.010111	0.005000	9.168463	-0.863280	1.583297	-0.749628	-0.267912	-0.343746	-0.015701	0.010173	0.003115
600	3.015111	0.005000	9.138533	-0.796418	1.722173	-0.749738	-0.268133	-0.343377	-0.007033	-0.006126	0.005506
601	3.020111	0.005000	9.221400	-0.824040	1.707882	-0.749849	-0.268354	-0.343007	-0.013879	0.000634	-0.001713
602	3.025111	0.005000	9.175227	-0.798666	1.608840	-0.749959	-0.268575	-0.342637	-0.009291	-0.003193	-0.004710
603	3.030111	0.005000	9.113543	-0.936829	1.613771	-0.750070	-0.268796	-0.342267	-0.004876	-0.006858	0.004942
604	3.035111	0.005000	9.064440	-0.782228	1.606268	-0.750180	-0.269016	-0.341897	-0.010870	-0.000242	-0.005024
605	3.040111	0.005000	9.182160	-0.745560	1.687320	-0.750290	-0.269237	-0.341527	-0.008242	-0.012931	0.004796
606	3.045111	0.005000	9.107232	-0.820488	1.687320	-0.750401	-0.269458	-0.341158	-0.008465	-0.004042	-0.000772
607	3.050111	0.005000	9.112067	-0.815653	1.718173	-0.750511	-0.269679	-0.340788	0.000887	-0.008796	-0.000734
608	3.055111	0.005000	9.214880	-0.935240	1.687320	-0.750621	-0.269900	-0.340418	-0.013212	0.002358	0.004182
609	3.060111	0.005000	9.120760	-0.810419	1.516739	-0.750732	-0.270120	-0.340048	-0.010115	-0.004738	-0.000669
610	3.065111	0.005000	9.114627	-0.863280	1.547706	-0.751515	-0.271206	-0.338283	-0.007171	-0.007669	0.005770
611	3.070111	0.005000	9.077646	-0.850452	1.530360	-0.752399	-0.272421	-0.336309	-0.010257	0.000916	-0.001796
612	3.075111	0.005000	9.055808	-0.769496	1.515056	-0.753282	-0.273636	-0.334336	-0.006060	0.002492	-0.002553
613	3.080111	0.005000	9.125206	-0.849378	1.608840	-0.754166	-0.274851	-0.332363	-0.014467	0.003176	0.005338
614	3.085111	0.005000	9.182160	-0.882628	1.549708	-0.755050	-0.276066	-0.330389	-0.012337	-0.006845	-0.002318
615	3.090111	0.005000	9.069337	-0.789697	1.569600	-0.755933	-0.277281	-0.328416	-0.010804	-0.009856	0.008613
616	3.095111	0.005000	9.064440	-0.711357	1.672561	-0.756817	-0.278496	-0.326442	-0.017370	-0.005671	-0.001142
617	3.100111	0.005000	9.142920	-0.954421	1.660741	-0.757701	-0.279711	-0.324469	-0.010985	-0.008982	0.003966
618	3.105111	0.005000	9.064440	-0.892233	1.677033	-0.758584	-0.280926	-0.322496	-0.012234	-0.010383	-0.000532
619	3.110111	0.005000	9.174168	-0.776808	1.600848	-0.759468	-0.282141	-0.320522	-0.005489	-0.012200	0.002708
620	3.115111	0.005000	9.182160	-0.812868	1.575186	-0.760352	-0.283356	-0.318549	-0.015199	-0.011128	0.011934
621	3.120111	0.005000	9.178560	-0.784800	1.680119	-0.761235	-0.284571	-0.316575	-0.011331	-0.003635	-0.002158
622	3.125111	0.005000	9.102455	-0.784800	1.570825	-0.762119	-0.285786	-0.314602	-0.004409	-0.014979	0.008459
623	3.130111	0.005000	9.178666	-0.822875	1.608840	-0.762372	-0.286212	-0.314082	-0.012616	-0.002699	0.002013
624	3.135111	0.005000	9.067562	-0.824040	1.644958	-0.761488	-0.285218	-0.316178	-0.000262	-0.013063	0.010184
625	3.140111	0.005000	9.204819	-0.818513	1.530360	-0.760604	-0.284224	-0.318275	-0.012999	-0.000468	0.010178
626	3.145111	0.005000	9.135449	-0.745560	1.522889	-0.759721	-0.283230	-0.320372	-0.005347	0.001396	-0.008320
627	3.150111	0.005000	9.231287	-0.774913	1.687014	-0.758837	-0.282236	-0.322469	-0.009690	-0.018116	0.004174
628	3.155111	0.005000	9.155214	-0.770148	1.672668	-0.757953	-0.281242	-0.324565	-0.005790	-0.004663	-0.005912
629	3.160111	0.005000	9.167922	-0.745560	1.648080	-0.757070	-0.280248	-0.326662	-0.007472	-0.019176	0.007494
630	3.165111	0.005000	9.136982	-0.745560	1.703971	-0.756186	-0.279254	-0.328759	-0.014120	-0.007890	-0.005919
631	3.170111	0.005000	9.182160	-0.824040	1.724987	-0.755302	-0.278260	-0.330856	-0.013239	-0.017987	-0.000730
632	3.175111	0.005000	9.140149	-0.845046	1.627074	-0.754419	-0.277266	-0.332952	-0.017636	-0.000311	0.005758
633	3.180111	0.005000	9.158745	-0.784800	1.694911	-0.753535	-0.276271	-0.335049	-0.017881	0.002990	-0.006229
634	3.185111	0.005000	9.103680	-0.745560	1.608840	-0.752651	-0.275277	-0.337146	-0.011967	-0.006164	0.009168
635	3.190111	0.005000	9.103680	-0.701071	1.631501	-0.751768	-0.274283	-0.339243	-0.015751	0.003746	0.004357
636	3.195111	0.005000	9.103680	-0.872340	1.599780	-0.750884	-0.273289	-0.341339	-0.007598	-0.008957	-0.004764
637	3.200111	0.005000	9.103680	-0.882586	1.608840	-0.750560	-0.273041	-0.342395	-0.009344	0.001449	0.007941
638	3.205111	0.005000	9.133602	-0.888542	1.560282	-0.750339	-0.272931	-0.343258	-0.014652	0.001828	0.005187
639	3.210111	0.005000	9.140623	-0.821743	1.565007	-0.750118	-0.272820	-0.344121	-0.004651	-0.009279	0.008333
640	3.215111	0.005000	9.181948	-0.784800	1.569388	-0.749897	-0.272710	-0.344984	-0.012197	-0.008611	0.009606
641	3.220111	0.005000	9.217297	-0.747612	1.536515	-0.749677	-0.272599	-0.345847	-0.009360	-0.012128	0.012022
642	3.225111	0.005000	9.186629	-0.819571	1.648080	-0.749456	-0.272489	-0.346710	-0.010834	-0.002341	0.008664
643	3.230111	0.005000	9.103680	-0.863280	1.661664	-0.749235	-0.272379	-0.347573	-0.010523	-0.000922	-0.006656
644	3.235111	0.005000	9.173341	-0.824040	1.687320	-0.749014	-0.272268	-0.348435	-0.011665	0.004693	0.006475
645	3.240111	0.005000	9.120453	-0.796033	1.687320	-0.748793	-0.272158	-0.349298	-0.013501	0.012513	-0.003628
646	3.245111	0.005000	9.182160	-0.824040	1.765800	-0.748573	-0.272048	-0.350161	-0.007198	-0.008054	-0.001507
647	3.250111	0.005000	9.150988	-0.824040	1.679252	-0.748352	-0.271937	-0.351024	-0.013168	-0.000426	-0.004161
648	3.255111	0.005000	9.125130	-0.802590	1.608840	-0.748131	-0.271827	-0.351887	-0.012700	-0.010480	0.000237
649	3.260111	0.005000	9.161995	-0.843115	1.688409	-0.747910	-0.271717	-0.352750	-0.015701	-0.003773	0.007439
650	3.265111	0.005000	9.187626	-0.902520	1.799574	-0.747761	-0.271642	-0.353133	-0.019311	-0.009211	-0.001827
651	3.270111	0.005000	9.153204	-0.795084	1.776084	-0.747761	-0.271642	-0.352516	-0.015640	-0.014622	0.007002
652	3.275111	0.005000	9.091291	-0.797189	1.648080	-0.747761	-0.271642	-0.351900	-0.020767	0.003968	0.003797
653	3.280111	0.005000	9.103680	-0.892506	1.677306	-0.747761	-0.271642	-0.351283	-0.009952	-0.009979	0.005873
654	3.285111	0.005000	9.182160	-0.800233	1.773516	-0.747761	-0.271642	-0.350666	-0.010411	-0.014773	0.001056
655	3.290111	0.005000	9.075061	-0.863280	1.682009	-0.747761	-0.271642	-0.350050	-0.015669	-0.011678	-0.006319
656	3.295111	0.005000	9.110336	-0.824040	1.612168	-0.747761	-0.271642	-0.349433	-0.011113	-0.016155	0.006251
657	3.300111	0.005000	9.183109	-0.822142	1.647131	-0.747761	-0.271642	-0.348816	-0.011456	-0.011490	-0.004586
658	3.305111	0.005000	9.259203	-0.783363	1.571037	-0.747761	-0.271642	-0.348200	-0.004079	-0.012405	0.000897
659	3.310111	0.005000	9.252986	-0.824040	1.534187	-0.747761	-0.271642	-0.347583	-0.007434	-0.003565	0.000506
660	3.315111	0.005000	9.154551	-0.896704	1.648080	-0.747761	-0.271642	-0.346966	-0.007230	-0.014956	-0.003256
661	3.320111	0.005000	9.126673	-0.871403	1.623710	-0.747761	-0.271642	-0.346350	-0.009042	-0.015336	0.008182
662	3.325111	0.005000	9.211234	-0.892354	1.560858	-0.747761	-0.271642	-0.345733	-0.010835	-0.005918	0.003570
663	3.330111	0.005000	9.182160	-0.850700	1.622920	-0.747761	-0.271642	-0.345116	-0.007851	-0.010847	0.013290
664	3.335111	0.005000	9.133299	-0.824040	1.594030	-0.748030	-0.271642	-0.345200	-0.010822	0.002981	-0.007159
665	3.340111	0.005000	9.165227	-0.801733	1.569600	-0.748361	-0.271642	-0.345447	-0.004735	-0.012603	-0.002434
666	3.345111	0.005000	9.162815	-0.706320	1.628735	-0.748693	-0.271642	-0.345693	-0.010958	-0.007161	0.001779
667	3.350111	0.005000	9.146672	-0.741808	1.662073	-0.749024	-0.271642	-0.345940	-0.016559	-0.014559	-0.009502
668	3.355111	0.005000	9.095538	-0.933618	1.694727	-0.749355	-0.271642	-0.346187	-0.008328	-0.015532	-0.002568
669	3.360111	0.005000	9.155888	-0.889384	1.634944	-0.749687	-0.271642	-0.346433	-0.021214	-0.003831	-0.004040
670	3.365111	0.005000	9.171102	-0.919644	1.541418	-0.750018	-0.271642	-0.346680	-0.015998	-0.013191	0.006527
671	3.370111	0.005000	9.151705	-0.815255	1.547929	-0.750349	-0.271642	-0.346927	-0.014080	-0.003912	0.000258
672	3.375111	0.005000	9.175791	-0.758298	1.602471	-0.750681	-0.271642	-0.347173	-0.006251	-0.003148	-0.001718
673	3.380111	0.005000	9.243153	-0.893776	1.652452	-0.751012	-0.271642	-0.347420	-0.018851	0.001699	0.013386
674	3.385111	0.005000	9.105700	-0.786820	1.563540	-0.751344	-0.271642	-0.347667	-0.013021	-0.002760	-0.008722
675	3.390111	0.005000	9.142920	-0.901733	1.568420	-0.751675	-0.271642	-0.347913	-0.023398	-0.015407	0.017449
676	3.395111	0.005000	9.258298	-0.865622	1.604157	-0.752006	-0.271642	-0.348160	-0.016788	-0.007945	0.010260
677	3.400111	0.005000	9.221400	-0.872772	1.613586	-0.752107	-0.271576	-0.348333	-0.011700	-0.009521	-0.000558
678	3.405111	0.005000	9.299880	-0.798959	1.615920	-0.751666	-0.271355	-0.348333	-0.013531	-0.006479	-0.003772
679	3.410111	0.005000	9.191266	-0.932654	1.638974	-0.751224	-0.271134	-0.348333	-0.014218	-0.013899	-0.004822
680	3.415111	0.005000	9.075953	-0.807827	1.675807	-0.750782	-0.270913	-0.348333	-0.012467	-0.010287	0.003081
681	3.420111	0.005000	9.129154	-0.759326	1.661846	-0.750340	-0.270693	-0.348333	-0.016016	-0.006109	0.003052
682	3.425111	0.005000	9.198301	-0.745560	1.615799	-0.749898	-0.270472	-0.348333	-0.010396	-0.009830	0.004819
683	3.430111	0.005000	9.163887	-0.787494	1.648080	-0.749457	-0.270251	-0.348333	-0.021763	-0.003741	-0.001527
684	3.435111	0.005000	9.198588	-0.902520	1.648080	-0.749015	-0.270030	-0.348333	-0.015297	-0.013998	-0.001247
685	3.440111	0.005000	9.204987	-0.912519	1.658079	-0.748573	-0.269809	-0.348333	-0.012006	-0.001684	-0.001888
686	3.445111	0.005000	9.167958	-0.859913	1.598005	-0.748131	-0.269588	-0.348333	-0.019913	-0.001551	-0.006531
687	3.450111	0.005000	9.193949	-0.808378	1.620629	-0.747689	-0.269367	-0.348333	-0.016219	-0.015344	0.002636
688	3.455111	0.005000	9.172433	-0.912247	1.648080	-0.747248	-0.269146	-0.348333	-0.018315	-0.009908	-0.001707
689	3.460111	0.005000	9.174722	-0.855842	1.616278	-0.746806	-0.268925	-0.348333	-0.008338	-0.016843	0.006301
690	3.465111	0.005000	9.108702	-0.863280	1.648080	-0.746364	-0.268705	-0.348333	-0.009913	-0.013105	-0.009502
691	3.470111	0.005000	9.145961	-0.790881	1.614921	-0.746442	-0.268830	-0.348333	-0.014978	-0.023474	0.004750
692	3.475111	0.005000	9.103680	-0.901173	1.725213	-0.746663	-0.269051	-0.348333	-0.011684	-0.012584	0.022053
693	3.480111	0.005000	9.066165	-0.861555	1.573049	-0.746884	-0.269272	-0.348333	-0.012195	-0.001112	0.001501
694	3.485111	0.005000	9.169862	-0.859181	1.600641	-0.747105	-0.269493	-0.348333	-0.007525	-0.011634	0.001423
695	3.490111	0.005000	9.182160	-0.836227	1.530360	-0.747325	-0.269713	-0.348333	-0.013719	-0.002404	-0.005990
696	3.495111	0.005000	9.072949	-0.815531	1.538869	-0.747546	-0.269934	-0.348333	-0.015330	-0.009727	-0.001417
697	3.500111	0.005000	9.064440	-0.824040	1.558814	-0.747767	-0.270155	-0.348333	-0.012726	0.004265	0.001427
698	3.505111	0.005000	9.182160	-0.771944	1.595984	-0.747988	-0.270376	-0.348333	-0.013896	-0.002288	0.004504
699	3.510111	0.005000	9.197424	-0.745560	1.624104	-0.748209	-0.270597	-0.348333	-0.004272	-0.009998	0.018578
700	3.515111	0.005000	9.203928	-0.789096	1.665552	-0.748429	-0.270817	-0.348333	-0.012281	0.007547	-0.000798
701	3.520111	0.005000	9.240793	-0.863280	1.588993	-0.748650	-0.271038	-0.348333	-0.007299	-0.016206	0.003767
702	3.525111	0.005000	9.186983	-0.885311	1.648080	-0.748871	-0.271259	-0.348333	-0.014430	-0.008608	0.003146
703	3.530111	0.005000	9.162877	-0.897362	1.496278	-0.749092	-0.271480	-0.348333	-0.021454	0.000941	-0.009497
704	3.535111	0.005000	9.260640	-0.824040	1.543067	-0.749283	-0.271583	-0.348235	-0.015913	-0.001492	0.008554
705	3.540111	0.005000	9.239757	-0.873722	1.551243	-0.749394	-0.271362	-0.347865	-0.023706	-0.000005	-0.002288
706	3.545111	0.005000	9.182160	-0.776765	1.546429	-0.749504	-0.271142	-0.347495	-0.009271	-0.002463	0.001860
707	3.550111	0.005000	9.176541	-0.784800	1.547217	-0.749615	-0.270921	-0.347125	-0.012036	-0.007598	-0.002707
708	3.555111	0.005000	9.217769	-0.820409	1.605209	-0.749725	-0.270700	-0.346755	-0.022811	-0.008379	0.000646
709	3.560111	0.005000	9.222670	-0.821500	1.531630	-0.749835	-0.270479	-0.346385	-0.011382	-0.005242	0.008618
710	3.565111	0.005000	9.146324	-0.745560	1.569600	-0.749946	-0.270258	-0.346015	-0.015917	-0.005467	-0.004216
711	3.570111	0.005000	9.182160	-0.931231	1.569600	-0.750056	-0.270037	-0.345645	-0.012457	-0.009913	0.003832
712	3.575111	0.005000	9.148414	-0.891532	1.665343	-0.750167	-0.269816	-0.345275	-0.011236	-0.000461	0.008474
713	3.580111	0.005000	9.174260	-0.824040	1.640180	-0.750277	-0.269595	-0.344905	-0.005248	-0.002004	0.002595
714	3.585111	0.005000	9.142920	-0.774604	1.687320	-0.750387	-0.269374	-0.344535	-0.014057	0.003086	0.001727
715	3.590111	0.005000	9.221400	-0.760283	1.675061	-0.750498	-0.269153	-0.344165	-0.013880	-0.004235	0.004231
716	3.595111	0.005000	9.206733	-0.809373	1.608840	-0.750608	-0.268933	-0.343795	-0.009573	-0.008607	0.016591
717	3.600111	0.005000	9.176684	-0.868756	1.692796	-0.750719	-0.268712	-0.343425	-0.015654	-0.006945	-0.004281
718	3.605111	0.005000	9.162903	-0.863280	1.628097	-0.750580	-0.268823	-0.343519	-0.004476	-0.016288	0.011295
719	3.610111	0.005000	9.178531	-0.763366	1.648080	-0.750359	-0.269044	-0.343765	-0.012188	-0.004296	0.006978
720	3.615111	0.005000	9.190608	-0.800196	1.632684	-0.750138	-0.269265	-0.344012	-0.013946	-0.008285	0.000921
721	3.620111	0.005000	9.168863	-0.837337	1.556954	-0.749917	-0.269486	-0.344259	-0.010082	-0.008366	0.004509
722	3.625111	0.005000	9.193067	-0.756467	1.558693	-0.749696	-0.269707	-0.344506	-0.008530	-0.003398	-0.002518
723	3.630111	0.005000	9.134288	-0.723583	1.604126	-0.749475	-0.269928	-0.344752	-0.005885	-0.014217	0.011330
724	3.635111	0.005000	9.031416	-0.718752	1.629432	-0.749254	-0.270149	-0.344999	-0.009650	-0.001523	0.000237
725	3.640111	0.005000	9.116341	-0.859060	1.639639	-0.749034	-0.270369	-0.345246	-0.000482	-0.011739	0.000161
726	3.645111	0.005000	9.141074	-0.752942	1.644389	-0.748813	-0.270590	-0.345492	-0.008918	-0.004391	0.002126
727	3.650111	0.005000	9.103680	-0.825112	1.569600	-0.748592	-0.270811	-0.345739	-0.005170	-0.009401	0.005825
728	3.655111	0.005000	9.137013	-0.866234	1.608840	-0.748371	-0.271032	-0.345986	-0.008060	-0.006577	0.011714
729	3.660111	0.005000	9.158804	-0.852691	1.658669	-0.748150	-0.271253	-0.346233	-0.010829	-0.002704	-0.003921
730	3.665111	0.005000	9.071743	-0.887914	1.697348	-0.747929	-0.271474	-0.346479	-0.027140	-0.011761	0.007006
731	3.670111	0.005000	9.182527	-0.951845	1.628276	-0.747814	-0.271642	-0.346696	-0.016450	-0.003774	0.005869
732	3.675111	0.005000	9.275918	-0.863280	1.636099	-0.748035	-0.271642	-0.346820	-0.010273	-0.007725	-0.002638
733	3.680111	0.005000	9.207330	-0.798870	1.659180	-0.748255	-0.271642	-0.346943	-0.013977	-0.006500	0.003674
734	3.685111	0.005000	9.113888	-0.863280	1.670837	-0.748476	-0.271642	-0.347066	-0.017685	0.006069	0.006736
735	3.690111	0.005000	9.085013	-0.801561	1.784467	-0.748697	-0.271642	-0.347189	-0.011648	-0.001786	0.010830
736	3.695111	0.005000	9.142920	-0.805637	1.689754	-0.748918	-0.271642	-0.347313	-0.015428	0.006959	0.001354
737	3.700111	0.005000	9.237393	-0.824040	1.569600	-0.749139	-0.271642	-0.347436	-0.016687	-0.008638	-0.003042
738	3.705111	0.005000	9.168273	-0.812574	1.594953	-0.749359	-0.271642	-0.347559	-0.018074	-0.009464	-0.007472
739	3.710111	0.005000	9.135617	-0.851644	1.687320	-0.749580	-0.271642	-0.347682	-0.012715	-0.009644	-0.005895
740	3.715111	0.005000	9.052885	-0.854052	1.668863	-0.749801	-0.271642	-0.347806	-0.011174	-0.012010	0.009783
741	3.720111	0.005000	9.110493	-0.713133	1.595214	-0.750022	-0.271642	-0.347929	-0.017528	-0.003340	0.000925
742	3.725111	0.005000	9.034851	-0.789626	1.623317	-0.750243	-0.271642	-0.348052	-0.012859	-0.006109	0.010264
743	3.730111	0.005000	9.142920	-0.934454	1.728995	-0.750463	-0.271642	-0.348175	-0.013134	-0.002115	0.012080
744	3.735111	0.005000	9.221461	-0.863219	1.609024	-0.750684	-0.271642	-0.348298	-0.007094	-0.001838	0.003504
745	3.740111	0.005000	9.186819	-0.787130	1.615829	-0.750667	-0.271483	-0.348067	-0.013470	0.002533	0.003354
746	3.745111	0.005000	9.255935	-0.824040	1.604135	-0.750556	-0.271262	-0.347697	-0.004314	-0.009851	0.000802
747	3.750111	0.005000	9.195572	-0.921642	1.752388	-0.750446	-0.271041	-0.347327	0.002382	-0.011947	0.010069
748	3.755111	0.005000	9.182160	-0.893399	1.687320	-0.750335	-0.270820	-0.346957	-0.002996	-0.006622	0.005608
749	3.760111	0.005000	9.170769	-0.796191	1.687320	-0.750225	-0.270599	-0.346587	-0.001024	-0.016234	0.003277
750	3.765111	0.005000	9.168379	-0.837821	1.712779	-0.750114	-0.270378	-0.346217	-0.008611	0.003000	0.000845
751	3.770111	0.005000	9.103680	-0.800686	1.726560	-0.750004	-0.270158	-0.345847	0.000315	-0.004471	0.000301
752	3.775111	0.005000	9.085384	-0.824040	1.548656	-0.749894	-0.269937	-0.345477	-0.016493	-0.011862	0.010826
753	3.780111	0.005000	9.125841	-0.824040	1.608840	-0.749783	-0.269716	-0.345107	-0.009960	-0.002630	0.006106
754	3.785111	0.005000	9.176100	-0.762150	1.703910	-0.749673	-0.269495	-0.344737	-0.011338	-0.008749	0.000274
755	3.790111	0.005000	9.167983	-0.824040	1.698206	-0.749562	-0.269274	-0.344367	-0.018511	-0.005127	0.003119
756	3.795111	0.005000	9.221400	-0.827973	1.624542	-0.749452	-0.269053	-0.343996	-0.019355	0.004090	-0.001447
757	3.800111	0.005000	9.221400	-0.872992	1.667897	-0.749342	-0.268832	-0.343626	-0.010012	-0.005666	0.006309
758	3.805111	0.005000	9.196833	-0.770127	1.679983	-0.749231	-0.268703	-0.343231	-0.015272	-0.004946	-0.001634
759	3.810111	0.005000	9.187166	-0.745560	1.658093	-0.749121	-0.268924	-0.342738	-0.012332	-0.015125	-0.001918
760	3.815111	0.005000	9.185185	-0.899495	1.729585	-0.749010	-0.269144	-0.342244	-0.012909	-0.001646	-0.008514
761	3.820111	0.005000	9.142920	-0.822724	1.648738	-0.748900	-0.269365	-0.341751	-0.013030	-0.005988	-0.004225
762	3.825111	0.005000	9.142920	-0.783060	1.724820	-0.748789	-0.269586	-0.341258	-0.008170	-0.006377	0.011206
763	3.830111	0.005000	9.171049	-0.824040	1.627358	-0.748679	-0.269807	-0.340765	-0.012759	-0.001630	0.004104
764	3.835111	0.005000	9.058331	-0.923434	1.596622	-0.748568	-0.270028	-0.340271	-0.014562	-0.009509	0.001800
765	3.840111	0.005000	9.173734	-0.950186	1.600414	-0.748458	-0.270249	-0.339778	-0.017177	0.007577	-0.013395
766	3.845111	0.005000	9.200464	-0.844976	1.637612	-0.748347	-0.270470	-0.339285	-0.007180	-0.012043	-0.001804
767	3.850111	0.005000	9.234276	-0.823428	1.648080	-0.748237	-0.270691	-0.338791	-0.016264	-0.000623	0.004774
768	3.855111	0.005000	9.293784	-0.824040	1.623952	-0.748126	-0.270912	-0.338298	-0.017034	-0.016391	-0.000517
769	3.860111	0.005000	9.216625	-0.850822	1.648080	-0.748016	-0.271133	-0.337805	-0.017845	-0.003326	0.013729
770	3.865111	0.005000	9.162563	-0.902520	1.550003	-0.747905	-0.271353	-0.337311	-0.022592	-0.002558	-0.004567
771	3.870111	0.005000	9.203958	-0.867637	1.460593	-0.747795	-0.271574	-0.336818	-0.029411	-0.005385	0.004624
772	3.875111	0.005000	9.149427	-0.830547	1.552116	-0.748527	-0.272867	-0.335128	-0.019844	-0.004887	0.004887
773	3.880111	0.005000	9.155760	-0.797640	1.582440	-0.749631	-0.274633	-0.332909	-0.011202	-0.014519	-0.001969
774	3.885111	0.005000	9.092909	-0.795571	1.569600	-0.750735	-0.276400	-0.330690	-0.014977	-0.005570	0.006308
775	3.890111	0.005000	9.103680	-0.824040	1.709596	-0.751839	-0.278166	-0.328471	-0.011214	-0.006196	-0.003310
776	3.895111	0.005000	9.130768	-0.718472	1.503272	-0.752943	-0.279933	-0.326252	-0.016728	-0.007237	0.005004
777	3.900111	0.005000	9.079077	-0.824040	1.576918	-0.754047	-0.281699	-0.324033	-0.028686	0.012502	-0.004895
778	3.905111	0.005000	9.218012	-0.825734	1.649774	-0.755151	-0.283465	-0.321814	-0.010835	-0.010996	-0.007453
779	3.910111	0.005000	9.142920	-0.863280	1.610218	-0.756255	-0.285232	-0.319595	-0.010191	-0.003677	0.004660
780	3.915111	0.005000	8.995172	-0.781729	1.566529	-0.757359	-0.286998	-0.317376	-0.013205	-0.011165	-0.000867
781	3.920111	0.005000	9.142920	-0.789850	1.467031	-0.758463	-0.288764	-0.315157	-0.007146	-0.012673	0.009392
782	3.925111	0.005000	9.128008	-0.824040	1.640624	-0.759567	-0.290531	-0.312938	-0.011422	-0.002062	0.002956
783	3.930111	0.005000	9.133163	-0.853523	1.579357	-0.760671	-0.292297	-0.310719	-0.000143	-0.009286	0.012258
784	3.935111	0.005000	9.131105	-0.851465	1.600821	-0.761775	-0.294063	-0.308499	-0.010606	-0.000570	0.002157
785	3.940111	0.005000	9.153714	-0.849057	1.608840	-0.762687	-0.295445	-0.306774	-0.016607	-0.005974	-0.002915
786	3.945111	0.005000	9.142920	-0.925317	1.546803	-0.762687	-0.295003	-0.307391	-0.018286	-0.005763	0.008304
787	3.950111	0.005000	9.221400	-0.861183	1.551029	-0.762687	-0.294561	-0.308008	-0.010712	-0.010133	-0.015104
788	3.955111	0.005000	9.124662	-0.826764	1.514826	-0.762687	-0.294120	-0.308624	-0.009204	-0.013997	0.005456
789	3.960111	0.005000	9.119806	-0.831029	1.523371	-0.762687	-0.293678	-0.309241	-0.013934	0.006908	-0.002721
790	3.965111	0.005000	9.182160	-0.745560	1.648080	-0.762687	-0.293236	-0.309858	-0.008411	-0.003264	0.005464
791	3.970111	0.005000	9.237653	-0.824040	1.564840	-0.762687	-0.292794	-0.310474	-0.020710	0.004993	0.006839
792	3.975111	0.005000	9.163281	-0.794239	1.657519	-0.762687	-0.292352	-0.311091	-0.017522	-0.006329	-0.001471
793	3.980111	0.005000	9.142920	-0.759829	1.680185	-0.762687	-0.291911	-0.311708	-0.012144	0.003091	0.000360
794	3.985111	0.005000	9.147649	-0.819311	1.682591	-0.762687	-0.291469	-0.312324	-0.011539	-0.000685	-0.008574
795	3.990111	0.005000	9.221400	-0.821287	1.684567	-0.762687	-0.291027	-0.312941	-0.016265	-0.008297	0.009774
796	3.995111	0.005000	9.221033	-0.823305	1.608105	-0.762687	-0.290585	-0.313558	-0.020026	-0.001672	0.005897
797	4.000111	0.005000	9.182160	-0.782788	1.642044	-0.762687	-0.290143	-0.314174	-0.013989	-0.009176	-0.001466
798	4.005111	0.005000	9.107661	-0.792761	1.600879	-0.762687	-0.289702	-0.314791	-0.014307	-0.005107	0.000012
799	4.010111	0.005000	9.130126	-0.824040	1.726560	-0.762030	-0.288822	-0.316468	-0.011453	0.008560	-0.000400
800	4.015111	0.005000	9.103680	-0.845884	1.669924	-0.761036	-0.287717	-0.318688	-0.004161	-0.002517	-0.000057
801	4.020111	0.005000	9.092932	-0.774052	1.687320	-0.760042	-0.286613	-0.320908	-0.003967	0.003023	-0.001469
802	4.025111	0.005000	9.260426	-0.889369	1.700471	-0.759048	-0.285508	-0.323128	-0.005167	-0.010565	0.003201
803	4.030111	0.005000	9.260640	-0.886956	1.726560	-0.758053	-0.284404	-0.325348	-0.012000	-0.003538	0.007559
804	4.035111	0.005000	9.199919	-0.841799	1.701358	-0.757059	-0.283299	-0.327568	-0.008226	-0.006983	-0.000591
805	4.040111	0.005000	9.162839	-0.804719	1.648080	-0.756065	-0.282195	-0.329788	-0.010252	-0.011489	0.008129
806	4.045111	0.005000	9.238311	-0.829458	1.731978	-0.755071	-0.281090	-0.332008	-0.013262	-0.002678	-0.004470
807	4.050111	0.005000	9.157714	-0.892869	1.628142	-0.754077	-0.279986	-0.334228	-0.008732	-0.006670	0.000467
808	4.055111	0.005000	9.222977	-0.863280	1.516229	-0.753083	-0.278881	-0.336448	-0.013075	0.006939	-0.005804
809	4.060111	0.005000	9.192307	-0.882227	1.550653	-0.752089	-0.277777	-0.338668	-0.014710	-0.001766	0.002233
810	4.065111	0.005000	9.064440	-0.792908	1.695428	-0.751095	-0.276672	-0.340888	-0.008620	-0.008307	0.006213
811	4.070111	0.005000	9.154494	-0.779013	1.675746	-0.750101	-0.275568	-0.343109	-0.016028	-0.007706	-0.003971
812	4.075111	0.005000	9.182160	-0.706320	1.690702	-0.749270	-0.274513	-0.344927	-0.019783	-0.010893	0.004334
813	4.080111	0.005000	9.103680	-0.710586	1.723716	-0.749381	-0.273739	-0.344434	-0.024756	0.003140	0.007614
814	4.085111	0.005000	9.141941	-0.862301	1.609819	-0.749491	-0.272966	-0.343940	-0.008742	-0.010641	-0.001668
815	4.090111	0.005000	9.103680	-0.820697	1.615526	-0.749602	-0.272193	-0.343447	-0.015254	0.000572	0.005197
816	4.095111	0.005000	9.064440	-0.931104	1.614168	-0.749712	-0.271420	-0.342954	-0.017817	-0.003233	0.000102
817	4.100111	0.005000	9.079903	-0.831772	1.679588	-0.749822	-0.270647	-0.342460	-0.011365	-0.012367	0.009389
818	4.105111	0.005000	9.064440	-0.843221	1.756648	-0.749933	-0.269874	-0.341967	-0.011189	0.000224	-0.005527
819	4.110111	0.005000	9.130830	-0.824040	1.617961	-0.750043	-0.269100	-0.341473	-0.001083	-0.017479	0.002277
820	4.115111	0.005000	9.153163	-0.824040	1.515861	-0.750154	-0.268327	-0.340980	-0.005798	0.000737	-0.003122
821	4.120111	0.005000	9.058631	-0.751369	1.513644	-0.750264	-0.267554	-0.340487	-0.002417	-0.008793	0.000281
822	4.125111	0.005000	9.047116	-0.824040	1.589985	-0.750374	-0.266781	-0.339993	-0.003095	-0.009872	0.006358
823	4.130111	0.005000	9.082414	-0.781508	1.569600	-0.750485	-0.266008	-0.339500	-0.005125	-0.005346	-0.009146
824	4.135111	0.005000	9.119518	-0.816476	1.585438	-0.750595	-0.265235	-0.339007	-0.008903	-0.011873	0.010549
825	4.140111	0.005000	9.090059	-0.888899	1.581599	-0.750706	-0.264461	-0.338513	-0.012098	-0.002744	-0.000101
826	4.145111	0.005000	9.075647	-0.840866	1.597633	-0.750676	-0.264880	-0.338646	-0.005694	-0.023380	0.002127
827	4.150111	0.005000	9.152072	-0.793952	1.548664	-0.750565	-0.265985	-0.339140	-0.017554	-0.006254	0.004484
828	4.155111	0.005000	9.200831	-0.817184	1.694176	-0.750455	-0.267090	-0.339634	-0.013765	0.001127	-0.001517
829	4.160111	0.005000	9.060000	-0.858840	1.691760	-0.750345	-0.268195	-0.340127	-0.013834	-0.011244	-0.002551
830	4.165111	0.005000	9.182160	-0.710391	1.689355	-0.750234	-0.269300	-0.340621	-0.014601	-0.011047	-0.001892
831	4.170111	0.005000	9.143104	-0.824132	1.530544	-0.750124	-0.270405	-0.341114	-0.012083	-0.007628	0.004112
832	4.175111	0.005000	9.184444	-0.826324	1.682752	-0.750013	-0.271510	-0.341608	-0.016184	-0.000526	-0.000761
833	4.180111	0.005000	9.133571	-0.784800	1.618189	-0.749903	-0.272615	-0.342101	-0.010121	-0.001793	-0.001220
834	4.185111	0.005000	9.168815	-0.810695	1.628858	-0.749792	-0.273720	-0.342595	-0.016964	-0.003513	0.011138
835	4.190111	0.005000	9.173081	-0.890517	1.639001	-0.749682	-0.274825	-0.343089	-0.016962	-0.005619	-0.003845
836	4.195111	0.005000	9.115041	-0.902520	1.664599	-0.749571	-0.275930	-0.343582	-0.014278	-0.011703	0.006408
837	4.200111	0.005000	9.193929	-0.861313	1.610807	-0.749461	-0.277035	-0.344076	-0.017405	-0.003621	-0.001340
838	4.205111	0.005000	9.221400	-0.839886	1.694868	-0.749350	-0.278140	-0.344569	-0.006323	-0.006901	0.005248
839	4.210111	0.005000	9.142920	-0.763607	1.626887	-0.749395	-0.279132	-0.344717	-0.020237	-0.011904	0.004409
840	4.215111	0.005000	9.142920	-0.802675	1.707522	-0.750499	-0.279353	-0.342498	-0.006525	-0.004461	-0.000005
841	4.220111	0.005000	9.142920	-0.885893	1.675347	-0.751603	-0.279574	-0.340279	-0.006340	-0.002518	0.019932
842	4.225111	0.005000	9.157138	-0.899107	1.765800	-0.752707	-0.279795	-0.338060	-0.018503	0.010096	0.000589
843	4.230111	0.005000	9.130788	-0.890388	1.672344	-0.753811	-0.280016	-0.335841	-0.011653	-0.012340	-0.004420
844	4.235111	0.005000	9.182160	-0.932018	1.648080	-0.754915	-0.280237	-0.333622	-0.017589	-0.008962	-0.007345
845	4.240111	0.005000	9.135467	-0.949213	1.655533	-0.756019	-0.280457	-0.331402	-0.009187	-0.018346	0.004570
846	4.245111	0.005000	9.098234	-0.795692	1.715668	-0.757123	-0.280678	-0.329183	-0.004171	-0.006720	0.006972
847	4.250111	0.005000	9.028307	-0.905627	1.605733	-0.758227	-0.280899	-0.326964	-0.013497	-0.009039	0.000549
848	4.255111	0.005000	9.104369	-0.784800	1.570289	-0.759331	-0.281120	-0.324745	-0.009559	-0.017347	0.001097
849	4.260111	0.005000	9.180905	-0.860770	1.608840	-0.760435	-0.281341	-0.322526	-0.019318	0.001413	0.005995
850	4.265111	0.005000	9.142920	-0.866939	1.690979	-0.761539	-0.281562	-0.320307	-0.010475	-0.001721	0.003064
851	4.270111	0.005000	9.254634	-0.818034	1.648080	-0.762643	-0.281783	-0.318088	-0.016122	0.004339	0.002211
852	4.275111	0.005000	9.111699	-0.840079	1.648080	-0.763747	-0.282004	-0.315869	-0.017613	-0.005521	0.004135
853	4.280111	0.005000	9.182160	-0.863280	1.648080	-0.763574	-0.281754	-0.315900	-0.015017	-0.016368	0.001460
854	4.285111	0.005000	9.209873	-0.902520	1.727725	-0.762580	-0.281202	-0.317380	-0.009822	-0.006262	-0.013643
855	4.290111	0.005000	9.142920	-0.926976	1.613952	-0.761586	-0.280649	-0.318861	0.001833	-0.018049	0.000508
856	4.295111	0.005000	9.120668	-0.858016	1.625828	-0.760592	-0.280097	-0.320341	-0.009351	0.000289	0.007389
857	4.300111	0.005000	9.183125	-0.843178	1.666253	-0.759598	-0.279545	-0.321821	-0.001215	-0.002953	0.002021
858	4.305111	0.005000	9.125228	-0.802492	1.604983	-0.758604	-0.278993	-0.323301	-0.004115	-0.000488	0.004099
859	4.310111	0.005000	9.142920	-0.761126	1.687320	-0.757610	-0.278440	-0.324781	-0.008938	-0.002166	0.004476
860	4.315111	0.005000	9.142920	-0.889185	1.687320	-0.756616	-0.277888	-0.326261	-0.009539	-0.009343	0.002858
861	4.320111	0.005000	9.210130	-0.812770	1.659350	-0.755622	-0.277336	-0.327741	-0.023297	-0.008663	-0.007056
862	4.325111	0.005000	9.091079	-0.806281	1.630321	-0.754628	-0.276784	-0.329221	-0.012519	-0.017843	0.001620
863	4.330111	0.005000	9.221400	-0.863280	1.582762	-0.753634	-0.276231	-0.330701	-0.013193	-0.018823	0.005751
864	4.335111	0.005000	9.225564	-0.863280	1.604676	-0.752639	-0.275679	-0.332181	-0.009192	-0.005647	-0.012992
865	4.340111	0.005000	9.140727	-0.941760	1.682933	-0.751645	-0.275127	-0.333661	-0.012728	-0.008129	-0.001280
866	4.345111	0.005000	9.103680	-0.863647	1.608840	-0.750735	-0.274595	-0.335117	-0.024721	-0.005354	0.003360
867	4.350111	0.005000	9.179588	-0.863280	1.606268	-0.750625	-0.274264	-0.336350	-0.013353	-0.005963	0.007549
868	4.355111	0.005000	9.191251	-0.789345	1.569600	-0.750515	-0.273933	-0.337583	-0.016868	-0.001971	0.000701
869	4.360111	0.005000	9.175209	-0.745560	1.634178	-0.750404	-0.273602	-0.338816	-0.015321	-0.010348	0.001197
870	4.365111	0.005000	9.221400	-0.844764	1.648080	-0.750294	-0.273271	-0.340049	-0.015704	-0.005042	0.012523
871	4.370111	0.005000	9.154230	-0.913830	1.636770	-0.750184	-0.272939	-0.341282	-0.019424	-0.005843	0.000001
872	4.375111	0.005000	9.142920	-0.759278	1.649994	-0.750073	-0.272608	-0.342514	-0.009853	-0.008483	0.008343
873	4.380111	0.005000	9.166216	-0.722264	1.640728	-0.749963	-0.272277	-0.343747	-0.014301	0.000863	-0.003970
874	4.385111	0.005000	9.145522	-0.787402	1.632363	-0.749853	-0.271946	-0.344980	-0.012895	-0.012664	-0.004150
875	4.390111	0.005000	9.163397	-0.805277	1.629317	-0.749742	-0.271614	-0.346213	-0.010915	-0.009710	0.011074
876	4.395111	0.005000	9.114314	-0.807415	1.602850	-0.749632	-0.271283	-0.347446	-0.016042	-0.002873	0.002393
877	4.400111	0.005000	9.157327	-0.888113	1.623247	-0.749522	-0.270952	-0.348679	-0.000777	-0.009607	-0.000250
878	4.405111	0.005000	9.130921	-0.878523	1.648080	-0.749411	-0.270621	-0.349911	-0.006755	-0.007987	0.000733
879	4.410111	0.005000	9.221400	-0.814101	1.530360	-0.749301	-0.270289	-0.351144	-0.010690	-0.006997	0.002805
880	4.415111	0.005000	9.198481	-0.816400	1.593560	-0.749318	-0.270213	-0.351383	-0.008121	-0.014011	0.009075
881	4.420111	0.005000	9.069674	-0.858046	1.501588	-0.749428	-0.270323	-0.350889	-0.017962	-0.016022	0.007698
882	4.425111	0.005000	9.146172	-0.912277	1.572852	-0.749538	-0.270434	-0.350396	-0.013679	-0.008989	0.008538
883	4.430111	0.005000	9.182160	-0.942622	1.530360	-0.749649	-0.270544	-0.349903	-0.016295	-0.006702	-0.007455
884	4.435111	0.005000	9.144451	-0.867873	1.568069	-0.749759	-0.270655	-0.349409	-0.010781	-0.010854	0.008105
885	4.440111	0.005000	9.111486	-0.906423	1.565697	-0.749870	-0.270765	-0.348916	-0.016308	-0.002912	-0.000284
886	4.445111	0.005000	9.119352	-0.863280	1.591164	-0.749980	-0.270876	-0.348423	-0.005552	-0.021979	0.005140
887	4.450111	0.005000	9.204804	-0.793098	1.670724	-0.750090	-0.270986	-0.347929	-0.006598	-0.012467	0.002175
888	4.455111	0.005000	9.210811	-0.805978	1.630018	-0.750201	-0.271097	-0.347436	-0.016512	-0.008439	0.003041
889	4.460111	0.005000	9.207473	-0.811383	1.701247	-0.750311	-0.271207	-0.346942	-0.011595	-0.012106	0.012174
890	4.465111	0.005000	9.167101	-0.808981	1.623899	-0.750422	-0.271317	-0.346449	-0.008471	0.002750	-0.011201
891	4.470111	0.005000	9.160180	-0.824040	1.608840	-0.750532	-0.271428	-0.345956	-0.004233	-0.007698	0.003129
892	4.475111	0.005000	9.241227	-0.804627	1.765800	-0.750643	-0.271538	-0.345462	-0.004564	0.000765	0.002397
893	4.480111	0.005000	9.108088	-0.802216	1.648080	-0.750725	-0.271711	-0.344969	-0.009189	0.000228	-0.010080
894	4.485111	0.005000	9.031841	-0.778159	1.624134	-0.750394	-0.272816	-0.344475	-0.013028	-0.008290	0.000366
895	4.490111	0.005000	9.208279	-0.745438	1.713500	-0.750062	-0.273921	-0.343982	-0.015490	-0.000711	-0.008880
896	4.495111	0.005000	9.153572	-0.824040	1.708623	-0.749731	-0.275026	-0.343488	-0.014984	-0.006714	0.011203
897	4.500111	0.005000	9.199375	-0.841255	1.670105	-0.749399	-0.276131	-0.342995	-0.015414	-0.006122	0.000060
898	4.505111	0.005000	9.142920	-0.811455	1.596255	-0.749068	-0.277236	-0.342501	-0.009707	-0.012292	-0.003639
899	4.510111	0.005000	9.178273	-0.710207	1.608840	-0.748736	-0.278341	-0.342007	-0.017010	-0.005551	0.011329
900	4.515111	0.005000	9.180690	-0.824040	1.608840	-0.748405	-0.279446	-0.341514	-0.021511	0.002372	0.000442
901	4.520111	0.005000	9.259217	-0.746509	1.647606	-0.748074	-0.280551	-0.341020	-0.013581	-0.009409	0.002984
902	4.525111	0.005000	9.142920	-0.745560	1.684442	-0.747742	-0.281656	-0.340527	-0.021972	-0.000802	-0.006899
903	4.530111	0.005000	9.103680	-0.756028	1.585302	-0.747411	-0.282761	-0.340033	-0.012422	-0.013692	0.014847
904	4.535111	0.005000	9.110906	-0.895294	1.505573	-0.747079	-0.283866	-0.339540	-0.011430	-0.003693	0.002940
905	4.540111	0.005000	9.113995	-0.902520	1.638438	-0.746748	-0.284971	-0.339046	-0.013103	0.004100	-0.007274
906	4.545111	0.005000	9.131015	-0.894140	1.663510	-0.746416	-0.286076	-0.338552	-0.000070	-0.011974	0.008973
907	4.550111	0.005000	9.221400	-0.981000	1.662074	-0.746576	-0.286076	-0.338607	-0.007671	-0.010279	-0.001335
908	4.555111	0.005000	9.165754	-0.811184	1.670914	-0.747128	-0.285193	-0.339100	-0.005498	-0.020811	0.010887
909	4.560111	0.005000	9.101623	-0.826097	1.633603	-0.747680	-0.284309	-0.339594	-0.014563	-0.000259	0.001379
910	4.565111	0.005000	9.161179	-0.805781	1.590581	-0.748232	-0.283425	-0.340087	-0.010129	0.000529	-0.000851
911	4.570111	0.005000	9.205331	-0.856179	1.546429	-0.748785	-0.282542	-0.340581	-0.006536	-0.001649	0.014905
912	4.575111	0.005000	9.141190	-0.810383	1.583257	-0.749337	-0.281658	-0.341074	-0.005112	-0.003420	0.005205
913	4.580111	0.005000	9.170588	-0.768705	1.680271	-0.749889	-0.280775	-0.341567	-0.009163	-0.006497	0.004766
914	4.585111	0.005000	9.240010	-0.814735	1.657385	-0.750441	-0.279891	-0.342061	-0.007636	0.002951	0.000196
915	4.590111	0.005000	9.253750	-0.777910	1.699002	-0.750993	-0.279007	-0.342554	-0.008914	-0.011431	0.007738
916	4.595111	0.005000	9.221400	-0.853390	1.653025	-0.751546	-0.278124	-0.343047	-0.003087	-0.001869	0.009172
917	4.600111	0.005000	9.179620	-0.865820	1.684780	-0.752098	-0.277240	-0.343541	-0.010679	-0.003632	0.003959
918	4.605111	0.005000	9.104860	-0.941760	1.570190	-0.752650	-0.276357	-0.344034	-0.011416	-0.016894	0.016799
919	4.610111	0.005000	9.182160	-0.866893	1.721140	-0.753202	-0.275473	-0.344528	-0.012453	0.002303	0.000737
920	4.615111	0.005000	9.177985	-0.784800	1.613015	-0.753726	-0.274608	-0.345010	-0.005358	-0.005613	-0.005339
921	4.620111	0.005000	9.254472	-0.830208	1.681152	-0.753616	-0.274166	-0.345257	-0.003090	0.002273	0.001035
922	4.625111	0.005000	9.142920	-0.832614	1.569600	-0.753505	-0.273725	-0.345504	-0.005719	-0.000752	-0.002439
923	4.630111	0.005000	9.164897	-0.767537	1.615115	-0.753395	-0.273283	-0.345750	-0.011374	-0.004885	0.002006
924	4.635111	0.005000	9.077676	-0.784800	1.596073	-0.753285	-0.272841	-0.345997	-0.011079	-0.008976	0.001984
925	4.640111	0.005000	9.119021	-0.752342	1.578158	-0.753174	-0.272399	-0.346244	-0.013162	-0.006281	0.000395
926	4.645111	0.005000	9.150388	-0.827774	1.612574	-0.753064	-0.271958	-0.346490	-0.008533	0.001419	-0.002985
927	4.650111	0.005000	9.220795	-0.843963	1.687320	-0.752953	-0.271516	-0.346737	-0.015842	-0.008647	0.000003
928	4.655111	0.005000	9.204473	-0.880207	1.687320	-0.752843	-0.271074	-0.346984	-0.020674	0.000637	0.008962
929	4.660111	0.005000	9.142920	-0.838763	1.648080	-0.752733	-0.270632	-0.347230	-0.013404	0.004441	0.002097
930	4.665111	0.005000	9.089702	-0.877258	1.674689	-0.752622	-0.270190	-0.347477	-0.015692	-0.006868	0.000945
931	4.670111	0.005000	9.161430	-0.735195	1.608840	-0.752512	-0.269749	-0.347724	-0.013031	-0.001653	-0.001966
932	4.675111	0.005000	9.229358	-0.776842	1.648080	-0.752401	-0.269307	-0.347970	-0.014833	-0.004732	-0.005261
933	4.680111	0.005000	9.164325	-0.678970	1.575545	-0.752291	-0.268865	-0.348217	-0.024073	-0.001937	-0.005003
934	4.685111	0.005000	9.114515	-0.820428	1.690932	-0.752181	-0.268832	-0.347941	-0.015830	-0.006435	0.001178
935	4.690111	0.005000	9.221400	-0.863280	1.724172	-0.752070	-0.269164	-0.347201	-0.014472	-0.004002	0.008401
936	4.695111	0.005000	9.259890	-0.863280	1.609590	-0.751960	-0.269495	-0.346461	-0.020524	-0.002278	-0.002963
937	4.700111	0.005000	9.152382	-0.935452	1.638618	-0.751849	-0.269826	-0.345721	-0.015221	-0.006769	0.012746
938	4.705111	0.005000	9.142920	-0.767585	1.603334	-0.751739	-0.270158	-0.344981	-0.015168	-0.000824	-0.007482
939	4.710111	0.005000	9.150434	-0.809011	1.577114	-0.751628	-0.270489	-0.344241	-0.009368	-0.015879	-0.005279
940	4.715111	0.005000	9.182160	-0.794721	1.598919	-0.751518	-0.270820	-0.343501	-0.006332	-0.013701	0.009544
941	4.720111	0.005000	9.194353	-0.784800	1.623695	-0.751407	-0.271151	-0.342761	-0.008784	-0.003814	-0.006618
942	4.725111	0.005000	9.103680	-0.784800	1.737242	-0.751297	-0.271483	-0.342021	0.001599	-0.011207	0.005763
943	4.730111	0.005000	9.064440	-0.869144	1.675592	-0.751186	-0.271814	-0.341281	-0.016056	-0.006680	-0.002337
944	4.735111	0.005000	9.122559	-0.921399	1.765800	-0.751076	-0.272145	-0.340541	-0.006670	-0.014998	-0.000143
945	4.740111	0.005000	9.067287	-0.923563	1.729407	-0.750965	-0.272477	-0.339801	-0.011305	0.007494	-0.009646
946	4.745111	0.005000	9.056770	-0.777130	1.585385	-0.750855	-0.272808	-0.339061	-0.005968	0.014371	-0.001601
947	4.750111	0.005000	9.117944	-0.758936	1.569600	-0.750753	-0.273146	-0.338301	-0.008450	-0.010146	0.002954
948	4.755111	0.005000	9.103680	-0.740220	1.631440	-0.751195	-0.273920	-0.336328	-0.018921	-0.008605	-0.008704
949	4.760111	0.005000	9.124861	-0.824040	1.735589	-0.751637	-0.274693	-0.334355	-0.007693	-0.014117	0.005432
950	4.765111	0.005000	9.175546	-0.869894	1.713332	-0.752078	-0.275466	-0.332381	-0.016930	-0.000515	0.001590
951	4.770111	0.005000	9.103680	-0.776383	1.652289	-0.752520	-0.276239	-0.330408	-0.012263	-0.015890	-0.004423
952	4.775111	0.005000	9.027439	-0.632318	1.728799	-0.752962	-0.277012	-0.328435	-0.020991	-0.002976	0.003138
953	4.780111	0.005000	9.142614	-0.784494	1.765800	-0.753404	-0.277785	-0.326461	-0.017104	-0.005131	0.009261
954	4.785111	0.005000	9.145446	-0.824040	1.653132	-0.753846	-0.278559	-0.324488	-0.001266	-0.009726	-0.001211
955	4.790111	0.005000	9.077944	-0.710821	1.648080	-0.754287	-0.279332	-0.322515	-0.024420	-0.005231	0.008952
956	4.795111	0.005000	9.110598	-0.706320	1.641162	-0.754729	-0.280105	-0.320541	-0.006111	-0.009325	0.002637
957	4.800111	0.005000	9.094468	-0.826430	1.648080	-0.755171	-0.280878	-0.318568	-0.015401	0.004423	0.004386
958	4.805111	0.005000	9.170892	-0.879983	1.636812	-0.755613	-0.281651	-0.316594	-0.006250	-0.008614	-0.004084
959	4.810111	0.005000	9.221400	-0.863280	1.558739	-0.756055	-0.282425	-0.314621	-0.003512	-0.003784	0.003615
960	4.815111	0.005000	9.237026	-0.886894	1.702946	-0.756496	-0.283198	-0.312648	-0.006720	-0.012598	-0.003054
961	4.820111	0.005000	9.121500	-0.824040	1.708740	-0.756494	-0.283249	-0.312784	-0.009456	-0.014688	0.002431
962	4.825111	0.005000	9.142920	-0.942480	1.686600	-0.756052	-0.282586	-0.315004	-0.018872	0.002027	-0.004854
963	4.830111	0.005000	9.148447	-0.745560	1.530360	-0.755610	-0.281923	-0.317224	-0.004562	-0.010474	0.001546
964	4.835111	0.005000	9.079352	-0.784800	1.545272	-0.755168	-0.281261	-0.319444	-0.006175	-0.004572	0.005125
965	4.840111	0.005000	9.155424	-0.824040	1.633847	-0.754727	-0.280598	-0.321664	-0.005073	-0.001785	-0.004117
966	4.845111	0.005000	9.142920	-0.784800	1.676882	-0.754285	-0.279935	-0.323884	-0.009044	-0.002545	-0.000695
967	4.850111	0.005000	9.103680	-0.855135	1.648080	-0.753843	-0.279273	-0.326104	-0.024590	-0.005794	-0.006325
968	4.855111	0.005000	9.097553	-0.863280	1.648080	-0.753401	-0.278610	-0.328324	-0.019887	-0.007458	0.004755
969	4.860111	0.005000	9.107475	-0.898725	1.605045	-0.752959	-0.277947	-0.330544	-0.010603	-0.005972	0.002978
970	4.865111	0.005000	9.141542	-0.821284	1.723804	-0.752518	-0.277285	-0.332764	-0.015888	-0.000356	-0.004070
971	4.870111	0.005000	9.065006	-0.745560	1.648080	-0.752076	-0.276622	-0.334984	-0.010865	-0.002760	-0.001298
972	4.875111	0.005000	9.094769	-0.745560	1.648080	-0.751634	-0.275959	-0.337204	-0.012953	0.011725	0.004819
973	4.880111	0.005000	9.132270	-0.857955	1.574925	-0.751192	-0.275296	-0.339424	-0.014662	-0.012674	0.005801
974	4.885111	0.005000	9.206739	-0.831371	1.505781	-0.750751	-0.274634	-0.341644	-0.014966	-0.004284	0.004185
975	4.890111	0.005000	9.231021	-0.715941	1.599219	-0.750527	-0.274299	-0.341667	-0.006439	-0.006103	0.000570
976	4.895111	0.005000	9.299880	-0.812358	1.585477	-0.750307	-0.273968	-0.341667	0.006148	-0.009047	0.008935
977	4.900111	0.005000	9.131851	-0.759645	1.544445	-0.750086	-0.273637	-0.341667	-0.003979	-0.010188	0.001933
978	4.905111	0.005000	9.103680	-0.863280	1.641454	-0.749865	-0.273305	-0.341667	-0.006896	-0.010401	0.011655
979	4.910111	0.005000	9.041285	-0.842482	1.611197	-0.749644	-0.272974	-0.341667	-0.020314	-0.001303	-0.002633
980	4.915111	0.005000	9.061975	-0.787265	1.548748	-0.749423	-0.272643	-0.341667	-0.009077	-0.004244	-0.001194
981	4.920111	0.005000	9.136173	-0.738813	1.579100	-0.749203	-0.272312	-0.341667	-0.009919	-0.001166	0.007447
982	4.925111	0.005000	9.128886	-0.798834	1.622874	-0.748982	-0.271981	-0.341667	-0.008750	-0.001204	-0.002605
983	4.930111	0.005000	9.036820	-0.851660	1.632081	-0.748761	-0.271649	-0.341667	-0.009075	0.002588	0.006896
984	4.935111	0.005000	9.172947	-0.872493	1.698921	-0.748540	-0.271318	-0.341667	-0.016185	-0.002561	-0.003696
985	4.940111	0.005000	9.071710	-0.895250	1.594301	-0.748320	-0.270987	-0.341667	-0.008964	0.000336	0.003039
986	4.945111	0.005000	9.069293	-0.907373	1.500827	-0.748099	-0.270656	-0.341667	-0.012180	0.005361	-0.001347
987	4.950111	0.005000	9.100806	-0.869028	1.502617	-0.747878	-0.270324	-0.341667	-0.004703	-0.004919	-0.002312
988	4.955111	0.005000	9.064945	-0.980495	1.606820	-0.747761	-0.269941	-0.341783	-0.013263	-0.005706	0.007233
989	4.960111	0.005000	9.103680	-0.903959	1.603083	-0.747761	-0.269499	-0.342030	-0.020136	-0.007658	-0.008198
990	4.965111	0.005000	9.103680	-0.863280	1.565743	-0.747761	-0.269058	-0.342276	-0.012691	-0.001864	0.009279
991	4.970111	0.005000	9.097493	-0.863280	1.536547	-0.747761	-0.268616	-0.342523	-0.012803	-0.002757	-0.002065
992	4.975111	0.005000	9.103680	-0.893958	1.648080	-0.747761	-0.268174	-0.342770	-0.007657	-0.014964	0.004037
993	4.980111	0.005000	9.103680	-0.816630	1.637470	-0.747761	-0.267732	-0.343016	-0.015407	-0.009850	0.008798
994	4.985111	0.005000	9.050947	-0.849787	1.622333	-0.747761	-0.267290	-0.343263	-0.014563	-0.004985	-0.000763
995	4.990111	0.005000	9.040168	-0.844670	1.584568	-0.747761	-0.266849	-0.343510	-0.018486	-0.010323	0.002882
996	4.995111	0.005000	9.064440	-0.824040	1.591463	-0.747761	-0.266407	-0.343756	-0.019200	-0.005499	-0.005692
997	5.000111	0.005000	9.162601	-0.882961	1.608719	-0.747761	-0.265965	-0.344003	-0.014722	-0.013865	0.007640
998	5.005111	0.005000	9.164652	-0.880788	1.587108	-0.747761	-0.265523	-0.344250	-0.007718	-0.002066	0.004893
999	5.010111	0.005000	9.103680	-0.848184	1.648080	-0.747761	-0.265081	-0.344496	-0.012165	-0.003576	-0.002034
1000	5.015111	0.005000	9.103423	-0.811046	1.661331	-0.747761	-0.264640	-0.344743	-0.013381	-0.004620	0.006476
1001	5.020111	0.005000	9.153664	-0.767047	1.726560	-0.747761	-0.264198	-0.344989	-0.013823	0.002294	0.000197
1002	5.025111	0.005000	9.190489	-0.801457	1.774129	-0.747655	-0.264919	-0.345236	0.000138	-0.001909	0.004700
1003	5.030111	0.005000	9.188468	-0.902520	1.681012	-0.747545	-0.265692	-0.345483	-0.010610	0.009507	-0.013208
1004	5.035111	0.005000	9.225379	-0.863280	1.495099	-0.747434	-0.266465	-0.345729	-0.006072	-0.005615	-0.002259
1005	5.040111	0.005000	9.219838	-0.863280	1.690443	-0.747324	-0.267239	-0.345976	-0.006423	-0.001454	0.002534
1006	5.045111	0.005000	9.182160	-0.902153	1.726927	-0.747214	-0.268012	-0.346223	-0.015435	-0.003135	0.004235
1007	5.050111	0.005000	9.142920	-0.866065	1.687320	-0.747103	-0.268785	-0.346469	-0.010558	-0.006735	0.013905
1008	5.055111	0.005000	9.142920	-0.853024	1.613968	-0.746993	-0.269558	-0.346716	-0.010978	0.000335	-0.004435
1009	5.060111	0.005000	9.117949	-0.863280	1.608840	-0.746882	-0.270331	-0.346963	-0.013106	-0.009694	0.005643
1010	5.065111	0.005000	9.094130	-0.833590	1.588700	-0.746772	-0.271104	-0.347209	-0.009301	-0.004774	-0.004373
1011	5.070111	0.005000	9.142920	-0.839651	1.726560	-0.746662	-0.271878	-0.347456	-0.009746	-0.010996	0.000979
1012	5.075111	0.005000	9.182160	-0.840407	1.648080	-0.746551	-0.272651	-0.347703	-0.012521	-0.002563	0.009998
1013	5.080111	0.005000	9.097069	-0.840354	1.703634	-0.746441	-0.273424	-0.347949	-0.003043	-0.007738	0.002142
1014	5.085111	0.005000	9.085179	-0.906998	1.592578	-0.746330	-0.274197	-0.348196	0.001382	-0.017488	0.019144
1015	5.090111	0.005000	9.180063	-0.962429	1.567503	-0.746318	-0.274382	-0.348497	-0.011992	-0.013799	-0.007685
1016	5.095111	0.005000	9.205239	-0.886359	1.648080	-0.746428	-0.273830	-0.348867	-0.002768	-0.013601	0.004992
1017	5.100111	0.005000	9.157138	-0.788213	1.673102	-0.746539	-0.273277	-0.349237	-0.013061	-0.006976	0.001111
1018	5.105111	0.005000	9.182160	-0.863280	1.687320	-0.746649	-0.272725	-0.349607	-0.019231	-0.005203	-0.011341
1019	5.110111	0.005000	9.182160	-0.863280	1.667836	-0.746760	-0.272173	-0.349977	-0.003007	-0.016880	-0.002286
1020	5.115111	0.005000	9.299880	-0.855827	1.655533	-0.746870	-0.271620	-0.350347	-0.010385	-0.007679	-0.001025
1021	5.120111	0.005000	9.288988	-0.857834	1.608840	-0.746980	-0.271068	-0.350717	-0.010959	-0.015367	0.003084
1022	5.125111	0.005000	9.182160	-0.824040	1.684213	-0.747091	-0.270516	-0.351087	-0.014814	-0.008093	-0.000573
1023	5.130111	0.005000	9.102991	-0.824729	1.686631	-0.747201	-0.269964	-0.351457	-0.002915	-0.011054	-0.000078
1024	5.135111	0.005000	9.026455	-0.939250	1.648080	-0.747312	-0.269411	-0.351827	-0.007680	-0.013788	0.008280
1025	5.140111	0.005000	9.139261	-0.938101	1.683661	-0.747422	-0.268859	-0.352197	-0.013647	-0.009170	-0.002726
1026	5.145111	0.005000	9.070446	-0.863280	1.626857	-0.747533	-0.268307	-0.352567	-0.011819	-0.013104	0.005026
1027	5.150111	0.005000	9.103680	-0.832059	1.702502	-0.747643	-0.267754	-0.352937	-0.007454	-0.012179	-0.006130
1028	5.155111	0.005000	9.200797	-0.766163	1.619142	-0.747753	-0.267202	-0.353307	-0.012198	-0.013478	-0.000028
1029	5.160111	0.005000	9.155291	-0.877779	1.606712	-0.747658	-0.267061	-0.352300	-0.007097	-0.007702	0.012565
1030	5.165111	0.005000	9.094008	-0.848496	1.594056	-0.747548	-0.266951	-0.351191	-0.009140	-0.005845	-0.008804
1031	5.170111	0.005000	9.125932	-0.863280	1.692584	-0.747438	-0.266841	-0.350081	-0.009137	-0.011603	0.007439
1032	5.175111	0.005000	9.241502	-0.825005	1.706458	-0.747327	-0.266730	-0.348972	-0.017096	0.000972	-0.006910
1033	5.180111	0.005000	9.164468	-0.845588	1.612697	-0.747217	-0.266620	-0.347862	-0.011914	-0.018146	-0.003106
1034	5.185111	0.005000	9.151028	-0.745560	1.530360	-0.747106	-0.266509	-0.346753	-0.013780	-0.007025	0.006308
1035	5.190111	0.005000	9.077010	-0.707086	1.556265	-0.746996	-0.266399	-0.345643	-0.010314	-0.016041	0.002931
1036	5.195111	0.005000	9.018754	-0.863280	1.619771	-0.746886	-0.266289	-0.344534	-0.003983	-0.020600	0.010593
1037	5.200111	0.005000	9.124946	-0.863280	1.657067	-0.746775	-0.266178	-0.343424	-0.010592	-0.003103	-0.009615
1038	5.205111	0.005000	9.169243	-0.922018	1.700482	-0.746665	-0.266068	-0.342314	-0.001256	-0.017680	0.002138
1039	5.210111	0.005000	9.212233	-0.710904	1.682736	-0.746555	-0.265958	-0.341205	-0.011085	-0.003688	-0.015949
1040	5.215111	0.005000	9.179940	-0.789240	1.571820	-0.746444	-0.265847	-0.340095	-0.009363	-0.024014	-0.001931
1041	5.220111	0.005000	9.181978	-0.902338	1.608840	-0.746334	-0.265737	-0.338986	-0.014232	-0.006007	0.005876
1042	5.225111	0.005000	9.147176	-0.867536	1.497504	-0.746314	-0.265763	-0.338536	-0.014006	-0.001750	-0.006458
1043	5.230111	0.005000	9.112771	-0.976455	1.608840	-0.746425	-0.265984	-0.339030	-0.009749	-0.013453	0.009992
1044	5.235111	0.005000	9.182160	-0.849544	1.569600	-0.746535	-0.266205	-0.339523	-0.010984	0.004018	-0.007319
1045	5.240111	0.005000	9.173265	-0.854385	1.639185	-0.746646	-0.266426	-0.340017	-0.006111	-0.013815	-0.000898
1046	5.245111	0.005000	9.075750	-0.913830	1.541670	-0.746756	-0.266647	-0.340511	-0.016882	-0.006835	0.007025
1047	5.250111	0.005000	9.050886	-0.798354	1.622394	-0.746867	-0.266868	-0.341004	-0.013594	-0.015147	0.002275
1048	5.255111	0.005000	9.072355	-0.753475	1.569600	-0.746977	-0.267089	-0.341498	-0.012533	-0.006854	0.004726
1049	5.260111	0.005000	9.103680	-0.881145	1.615859	-0.747088	-0.267310	-0.341991	-0.023506	0.005323	-0.003927
1050	5.265111	0.005000	9.202170	-0.883290	1.728122	-0.747198	-0.267531	-0.342485	-0.008933	-0.000387	-0.004239
1051	5.270111	0.005000	9.182160	-0.908121	1.614441	-0.747309	-0.267752	-0.342979	-0.013249	-0.000521	0.004589
1052	5.275111	0.005000	9.118384	-0.833873	1.559767	-0.747419	-0.267973	-0.343472	-0.012710	-0.017815	0.002365
1053	5.280111	0.005000	9.144773	-0.809725	1.635618	-0.747530	-0.268194	-0.343966	-0.018485	-0.004450	-0.002781
1054	5.285111	0.005000	9.103680	-0.813985	1.530360	-0.747640	-0.268415	-0.344459	-0.011511	-0.016221	-0.013076
1055	5.290111	0.005000	9.174990	-0.832057	1.616857	-0.747750	-0.268636	-0.344953	-0.014558	-0.008596	0.002995
1056	5.295111	0.005000	9.210009	-0.756951	1.709474	-0.747761	-0.269057	-0.345446	-0.018638	0.003128	-0.009797
1057	5.300111	0.005000	9.178870	-0.778219	1.690610	-0.747761	-0.269498	-0.345940	-0.012609	-0.011661	-0.006333
1058	5.305111	0.005000	9.102349	-0.746891	1.767131	-0.747761	-0.269940	-0.346433	-0.011019	0.003296	0.000387
1059	5.310111	0.005000	9.102609	-0.822969	1.766871	-0.747761	-0.270382	-0.346926	-0.014753	-0.010357	-0.002748
1060	5.315111	0.005000	9.214532	-0.784800	1.654948	-0.747761	-0.270824	-0.347420	-0.008218	-0.010573	0.004405
1061	5.320111	0.005000	9.221400	-0.897100	1.608840	-0.747761	-0.271266	-0.347913	-0.009334	-0.006196	0.000593
1062	5.325111	0.005000	9.299880	-0.863280	1.561764	-0.747761	-0.271707	-0.348407	-0.002125	-0.013897	0.014495
1063	5.330111	0.005000	9.192280	-0.834160	1.608840	-0.747761	-0.272149	-0.348900	-0.016360	-0.006423	0.003354
1064	5.335111	0.005000	9.115867	-0.821361	1.633214	-0.747761	-0.272591	-0.349393	-0.009446	-0.005203	-0.004384
1065	5.340111	0.005000	9.132861	-0.809449	1.658139	-0.747761	-0.273033	-0.349887	-0.003332	-0.008725	-0.001550
1066	5.345111	0.005000	9.086874	-0.807234	1.765800	-0.747761	-0.273475	-0.350380	-0.004336	-0.001659	-0.002100
1067	5.350111	0.005000	9.105027	-0.786147	1.627787	-0.747761	-0.273916	-0.350873	-0.006220	-0.016640	0.009903
1068	5.355111	0.005000	9.085798	-0.899045	1.587482	-0.747761	-0.274358	-0.351367	-0.011695	-0.003024	-0.011271
1069	5.360111	0.005000	9.174415	-0.988745	1.624587	-0.747847	-0.274497	-0.351522	-0.007803	-0.015409	0.000805
1070	5.365111	0.005000	9.182160	-0.928231	1.622369	-0.748068	-0.274166	-0.351152	-0.017285	-0.004059	-0.003055
1071	5.370111	0.005000	9.165150	-0.874395	1.659195	-0.748289	-0.273835	-0.350782	-0.013666	-0.005043	-0.004728
1072	5.375111	0.005000	9.203278	-0.793861	1.660136	-0.748510	-0.273503	-0.350412	-0.014785	-0.008005	0.009529
1073	5.380111	0.005000	9.149684	-0.733378	1.634551	-0.748731	-0.273172	-0.350042	-0.011681	-0.005544	-0.009276
1074	5.385111	0.005000	9.147268	-0.824040	1.604492	-0.748952	-0.272840	-0.349672	-0.005481	-0.020518	0.008975
1075	5.390111	0.005000	9.140545	-0.865655	1.500620	-0.749173	-0.272509	-0.349302	-0.013308	-0.005149	-0.005151
1076	5.395111	0.005000	9.103680	-0.784800	1.569600	-0.749394	-0.272178	-0.348932	-0.009484	-0.011886	0.000810
1077	5.400111	0.005000	9.255804	-0.787218	1.574436	-0.749615	-0.271846	-0.348562	-0.014029	0.004705	-0.003876
