# FOX Logger (IMU file)
# (c) INRIA 2011-2014
# File created from file sensbiotk output
#
# File format:
# id	t	dt	ax	ay	az	mx	my	mz	gx	gy	gz
#
# Units:
#	Time: s
#	Acceleration: m.s^-2
#	Magneto: gauss
#	Gyrometer: rad/s
#
1	0.002563	0.002563	2.831910	-9.011939	-2.184179	-0.529851	0.062687	-0.335000	0.023208	-0.012256	0.077250
2	0.007563	0.005000	2.825280	-9.001266	-1.945718	-0.531656	0.061107	-0.332354	0.019072	-0.004362	0.074915
3	0.012563	0.005000	2.794235	-8.994155	-1.962000	-0.533462	0.059527	-0.329708	0.018783	-0.002395	0.069518
4	0.017563	0.005000	2.569035	-9.025200	-2.010457	-0.535267	0.057947	-0.327061	0.012795	-0.015821	0.080234
5	0.022563	0.005000	2.678560	-8.996200	-2.030240	-0.537073	0.056368	-0.324415	0.016603	-0.001741	0.069962
6	0.027563	0.005000	2.725236	-9.064440	-1.983564	-0.538878	0.054788	-0.321769	0.022334	0.000321	0.067721
7	0.032563	0.005000	2.683951	-9.064440	-2.083546	-0.540684	0.053208	-0.319123	0.011595	-0.006022	0.077080
8	0.037563	0.005000	2.733973	-9.025200	-2.131787	-0.542489	0.051628	-0.316476	0.017628	0.007810	0.054759
9	0.042563	0.005000	2.590754	-9.051055	-2.144815	-0.544295	0.050048	-0.313830	0.024595	0.008549	0.066447
10	0.047563	0.005000	2.639537	-8.957177	-2.054872	-0.546100	0.048468	-0.311184	0.019602	0.012670	0.064856
11	0.052563	0.005000	2.683734	-9.040614	-2.142786	-0.547906	0.046888	-0.308538	0.015506	0.007858	0.064010
12	0.057563	0.005000	2.707560	-8.985960	-2.073353	-0.549711	0.045308	-0.305892	0.008566	0.009542	0.058000
13	0.062563	0.005000	2.702308	-9.002954	-2.028737	-0.551517	0.043729	-0.303245	0.010044	0.008084	0.062345
14	0.067563	0.005000	2.650303	-8.992373	-2.082927	-0.553322	0.042149	-0.300599	-0.000165	0.019087	0.058925
15	0.072563	0.005000	2.668320	-8.905156	-2.118960	-0.553382	0.042315	-0.299805	-0.009711	0.016591	0.040046
16	0.077563	0.005000	2.629003	-8.829000	-2.158123	-0.552930	0.042992	-0.299553	-0.000376	0.007490	0.055916
17	0.082563	0.005000	2.587873	-8.946720	-2.180771	-0.552478	0.043670	-0.299301	0.002972	0.017654	0.049421
18	0.087563	0.005000	2.689946	-8.999562	-2.062106	-0.552027	0.044347	-0.299049	-0.003608	0.009468	0.053641
19	0.092563	0.005000	2.668320	-9.120752	-2.062648	-0.551575	0.045025	-0.298797	0.000484	0.014741	0.051307
20	0.097563	0.005000	2.723609	-9.041249	-2.072578	-0.551124	0.045702	-0.298544	0.000847	0.022691	0.039179
21	0.102563	0.005000	2.683347	-9.103680	-2.064693	-0.550672	0.046379	-0.298292	-0.004623	0.015762	0.045146
22	0.107563	0.005000	2.722045	-9.054169	-2.133445	-0.550221	0.047057	-0.298040	-0.009067	0.028293	0.037757
23	0.112563	0.005000	2.734484	-9.011738	-2.133568	-0.549769	0.047734	-0.297788	-0.007790	0.015356	0.044660
24	0.117563	0.005000	2.732439	-9.074959	-2.197440	-0.549317	0.048411	-0.297536	-0.000364	0.023421	0.037495
25	0.122563	0.005000	2.695678	-9.028794	-2.158200	-0.548866	0.049089	-0.297284	-0.008549	0.026805	0.034441
26	0.127563	0.005000	2.668320	-8.968439	-2.129820	-0.548414	0.049766	-0.297032	0.001866	0.030875	0.044712
27	0.132563	0.005000	2.707560	-9.025030	-2.197440	-0.547963	0.050443	-0.296780	0.009765	0.033292	0.045117
28	0.137563	0.005000	2.668320	-8.937784	-2.140328	-0.547136	0.050933	-0.298272	0.017150	0.022009	0.052726
29	0.142563	0.005000	2.660048	-8.977688	-1.931032	-0.546007	0.051272	-0.301171	0.021435	0.031229	0.042455
30	0.147563	0.005000	2.636330	-8.907480	-1.983750	-0.544878	0.051611	-0.304071	0.020473	0.031068	0.038838
31	0.152563	0.005000	2.674548	-8.847683	-2.092175	-0.543749	0.051950	-0.306970	0.014836	0.029980	0.046313
32	0.157563	0.005000	2.678859	-8.946720	-2.129499	-0.542620	0.052288	-0.309870	0.015853	0.030976	0.041382
33	0.162563	0.005000	2.663657	-8.912143	-2.222691	-0.541491	0.052627	-0.312770	0.013147	0.032119	0.045934
34	0.167563	0.005000	2.718482	-8.954001	-2.079720	-0.540363	0.052966	-0.315669	0.009364	0.043392	0.039290
35	0.172563	0.005000	2.707560	-9.059139	-2.043131	-0.539234	0.053305	-0.318569	0.015330	0.029090	0.043994
36	0.177563	0.005000	2.705484	-8.907480	-2.191212	-0.538105	0.053643	-0.321468	0.011311	0.033841	0.054347
37	0.182563	0.005000	2.591947	-8.946720	-2.043640	-0.536976	0.053982	-0.324368	0.010550	0.033413	0.044541
38	0.187563	0.005000	2.707591	-8.985960	-2.040542	-0.535847	0.054321	-0.327267	0.001550	0.018914	0.055238
39	0.192563	0.005000	2.669355	-9.024682	-2.080238	-0.534718	0.054659	-0.330167	-0.013920	0.037044	0.039732
40	0.197563	0.005000	2.786040	-9.023666	-2.078186	-0.533589	0.054998	-0.333067	-0.014083	0.026160	0.053097
41	0.202563	0.005000	2.710116	-9.027756	-2.037924	-0.532761	0.055450	-0.335042	-0.020245	0.027153	0.047873
42	0.207563	0.005000	2.786040	-9.064440	-2.008397	-0.532535	0.056127	-0.335168	-0.023408	0.020774	0.039636
43	0.212563	0.005000	2.750986	-9.029386	-1.900263	-0.532309	0.056805	-0.335294	-0.025872	0.017350	0.049834
44	0.217563	0.005000	2.854203	-9.014883	-2.064244	-0.532083	0.057483	-0.335420	-0.037440	0.023232	0.034889
45	0.222563	0.005000	2.786040	-9.070606	-2.079720	-0.531857	0.058161	-0.335547	-0.047745	0.016882	0.032160
46	0.227563	0.005000	2.792844	-8.992764	-2.079720	-0.531631	0.058838	-0.335673	-0.049405	0.014045	0.025794
47	0.232563	0.005000	2.770548	-9.009708	-2.032734	-0.531405	0.059516	-0.335799	-0.048413	0.016346	0.027795
48	0.237563	0.005000	2.768504	-8.964256	-1.988305	-0.531179	0.060194	-0.335925	-0.047982	0.026915	0.030497
49	0.242563	0.005000	2.677746	-8.808612	-2.139348	-0.530954	0.060871	-0.336051	-0.037449	0.015243	0.025348
50	0.247563	0.005000	2.697227	-8.886814	-2.205681	-0.530728	0.061549	-0.336177	-0.033072	0.024927	0.015230
51	0.252563	0.005000	2.797395	-8.890951	-2.091075	-0.530502	0.062227	-0.336304	-0.026716	0.029670	0.023507
52	0.257563	0.005000	2.626973	-8.946720	-2.052858	-0.530276	0.062904	-0.336430	-0.022744	0.014525	0.031218
53	0.262563	0.005000	2.759880	-8.972880	-2.223600	-0.530050	0.063582	-0.336556	-0.021299	0.025530	0.028441
54	0.267563	0.005000	2.760742	-8.918835	-2.121547	-0.529851	0.064152	-0.336667	-0.024706	0.017152	0.026076
55	0.272563	0.005000	2.673974	-8.913134	-2.124614	-0.529851	0.063926	-0.336667	-0.027078	0.013629	0.024986
56	0.277563	0.005000	2.573853	-8.891493	-2.126226	-0.529851	0.063701	-0.336667	-0.032015	0.018201	0.016078
57	0.282563	0.005000	2.584068	-8.862468	-2.163972	-0.529851	0.063475	-0.336667	-0.026551	0.017575	0.025117
58	0.287563	0.005000	2.519632	-8.829000	-2.197440	-0.529851	0.063249	-0.336667	-0.027219	0.025333	0.024346
59	0.292563	0.005000	2.629080	-8.831091	-2.158200	-0.529851	0.063023	-0.336667	-0.014518	0.020553	0.026105
60	0.297563	0.005000	2.648959	-8.750003	-2.138839	-0.529851	0.062797	-0.336667	-0.002260	0.017460	0.032203
61	0.302563	0.005000	2.587702	-8.807777	-2.256834	-0.529851	0.062572	-0.336667	-0.001590	0.020829	0.026453
62	0.307563	0.005000	2.650241	-8.850161	-2.239763	-0.529851	0.062346	-0.336667	0.013278	0.025794	0.027296
63	0.312563	0.005000	2.668320	-8.851184	-2.214496	-0.529851	0.062120	-0.336667	0.013158	0.029039	0.028039
64	0.317563	0.005000	2.691062	-8.923978	-2.220182	-0.529851	0.061894	-0.336667	0.024948	0.028208	0.025554
65	0.322563	0.005000	2.786040	-9.016912	-2.236680	-0.529851	0.061668	-0.336667	0.012859	0.019993	0.015498
66	0.327563	0.005000	2.664199	-9.049986	-2.251134	-0.529851	0.061443	-0.336667	0.011927	0.013798	0.028408
67	0.332563	0.005000	2.681918	-9.050842	-2.223082	-0.529851	0.061217	-0.336667	-0.000970	0.020949	0.020812
68	0.337563	0.005000	2.655431	-9.051551	-2.209756	-0.530156	0.060889	-0.336894	0.020552	0.015051	0.022524
69	0.342563	0.005000	2.629080	-9.037066	-2.264054	-0.530494	0.060551	-0.337146	0.019772	0.015832	0.016199
70	0.347563	0.005000	2.629080	-9.014356	-2.286764	-0.530833	0.060212	-0.337398	0.029026	0.017252	0.007774
71	0.352563	0.005000	2.618778	-8.996262	-2.255316	-0.531172	0.059873	-0.337650	0.030353	0.012416	0.009572
72	0.357563	0.005000	2.601242	-9.094401	-2.079720	-0.531511	0.059534	-0.337903	0.023390	0.014900	0.004498
73	0.362563	0.005000	2.519617	-9.025200	-2.110703	-0.531850	0.059195	-0.338155	0.024454	0.000668	-0.001016
74	0.367563	0.005000	2.511360	-9.081976	-2.179904	-0.532188	0.058856	-0.338407	0.014892	-0.002982	0.020153
75	0.372563	0.005000	2.505071	-9.025200	-2.151911	-0.532527	0.058517	-0.338659	0.006114	-0.009231	0.013849
76	0.377563	0.005000	2.556270	-8.980290	-2.051820	-0.532866	0.058178	-0.338912	0.004786	-0.021047	0.017299
77	0.382563	0.005000	2.472120	-9.011258	-2.227385	-0.533205	0.057839	-0.339164	-0.000099	-0.007840	0.011122
78	0.387563	0.005000	2.468495	-8.911105	-2.079720	-0.533544	0.057501	-0.339416	0.011148	-0.004033	0.004882
79	0.392563	0.005000	2.472120	-8.873510	-2.121595	-0.533882	0.057162	-0.339668	0.026413	-0.020429	0.007048
80	0.397563	0.005000	2.391580	-8.942599	-2.162321	-0.534221	0.056823	-0.339920	0.029008	-0.006848	0.016061
81	0.402563	0.005000	2.354400	-8.908518	-2.196402	-0.533864	0.057335	-0.340086	0.057219	-0.002902	0.017308
82	0.407563	0.005000	2.393640	-9.025169	-2.197440	-0.533186	0.058238	-0.340213	0.072069	0.004301	0.006238
83	0.412563	0.005000	2.432331	-8.946720	-2.274823	-0.532509	0.059142	-0.340339	0.071149	0.009246	0.001810
84	0.417563	0.005000	2.431315	-8.871369	-2.120525	-0.531831	0.060046	-0.340465	0.076482	0.010613	0.009344
85	0.422563	0.005000	2.398785	-8.907480	-2.087438	-0.531153	0.060949	-0.340591	0.073073	0.007815	0.007680
86	0.427563	0.005000	2.472120	-8.946720	-2.001240	-0.530476	0.061853	-0.340717	0.068722	0.001527	0.008264
87	0.432563	0.005000	2.507208	-9.060288	-2.040480	-0.529798	0.062757	-0.340843	0.068474	-0.000990	0.006407
88	0.437563	0.005000	2.432880	-8.951894	-2.011588	-0.529120	0.063660	-0.340969	0.067449	-0.002630	0.012711
89	0.442563	0.005000	2.465923	-9.130527	-2.001240	-0.528442	0.064564	-0.341096	0.059072	-0.001086	0.008699
90	0.447563	0.005000	2.413856	-9.064440	-1.968739	-0.527765	0.065468	-0.341222	0.067413	-0.011677	0.013208
91	0.452563	0.005000	2.511360	-9.017439	-2.134916	-0.527087	0.066371	-0.341348	0.064857	-0.005788	0.002786
92	0.457563	0.005000	2.541816	-9.142920	-2.040480	-0.526409	0.067275	-0.341474	0.053769	-0.009216	-0.003838
93	0.462563	0.005000	2.550600	-9.201788	-2.128782	-0.525732	0.068179	-0.341600	0.046499	-0.007564	0.010566
94	0.467563	0.005000	2.511360	-9.270988	-1.993045	-0.525426	0.068551	-0.341548	0.044688	-0.002313	-0.012379
95	0.472563	0.005000	2.444251	-9.210029	-2.023982	-0.525539	0.068325	-0.341296	0.046832	-0.020431	0.000086
96	0.477563	0.005000	2.498967	-9.103680	-2.094174	-0.525652	0.068099	-0.341044	0.042485	-0.018185	-0.003874
97	0.482563	0.005000	2.629080	-9.077809	-2.079286	-0.525765	0.067873	-0.340791	0.026709	-0.019073	-0.008130
98	0.487563	0.005000	2.654362	-9.117638	-1.950676	-0.525878	0.067647	-0.340539	0.029769	-0.022930	0.005542
99	0.492563	0.005000	2.629080	-9.054579	-1.962000	-0.525991	0.067421	-0.340287	0.025646	-0.010342	0.001770
100	0.497563	0.005000	2.511360	-8.962258	-2.024942	-0.526104	0.067195	-0.340034	0.009571	-0.013949	-0.002555
101	0.502563	0.005000	2.455560	-8.862121	-2.001240	-0.526217	0.066969	-0.339782	0.018636	-0.006817	-0.006398
102	0.507563	0.005000	2.550600	-8.907480	-2.083794	-0.526330	0.066744	-0.339530	0.021145	-0.005890	-0.001018
103	0.512563	0.005000	2.629080	-8.850115	-2.037490	-0.526443	0.066518	-0.339278	0.036602	0.008146	0.002968
104	0.517563	0.005000	2.688412	-8.905590	-2.021332	-0.526556	0.066292	-0.339025	0.043284	0.013433	0.008160
105	0.522563	0.005000	2.571870	-8.808830	-2.099890	-0.526669	0.066066	-0.338773	0.049530	0.009353	0.017461
106	0.527563	0.005000	2.453849	-8.865542	-2.040480	-0.526782	0.065840	-0.338521	0.049048	0.022038	0.016842
107	0.532563	0.005000	2.485396	-8.885745	-2.040480	-0.526895	0.065672	-0.338301	0.050678	0.020979	0.013894
108	0.537563	0.005000	2.534117	-8.946720	-1.916486	-0.527008	0.065672	-0.338175	0.031612	0.026152	0.020363
109	0.542563	0.005000	2.511360	-9.009739	-1.962000	-0.527121	0.065672	-0.338049	0.027071	0.028623	0.015308
110	0.547563	0.005000	2.525798	-9.025200	-1.947562	-0.527234	0.065672	-0.337923	0.021319	0.015943	0.011790
111	0.552563	0.005000	2.564496	-9.145368	-1.894968	-0.527346	0.065672	-0.337797	0.006682	0.030871	0.013439
112	0.557563	0.005000	2.576967	-9.142920	-1.766420	-0.527459	0.065672	-0.337671	-0.000495	0.010664	0.014590
113	0.562563	0.005000	2.577989	-9.115531	-1.777651	-0.527572	0.065672	-0.337545	-0.013457	0.015257	0.012618
114	0.567563	0.005000	2.601149	-9.170851	-1.788418	-0.527685	0.065672	-0.337419	-0.018613	0.007441	0.006569
115	0.572563	0.005000	2.600126	-9.124253	-1.920855	-0.527798	0.065672	-0.337293	-0.026062	0.000158	0.016230
116	0.577563	0.005000	2.610552	-9.200688	-1.775064	-0.527911	0.065672	-0.337167	-0.033204	0.007920	0.011881
117	0.582563	0.005000	2.472120	-9.173454	-1.822452	-0.528024	0.065672	-0.337040	-0.034821	-0.002784	0.007880
118	0.587563	0.005000	2.448248	-9.103680	-1.836596	-0.528136	0.065672	-0.336914	-0.043453	-0.011267	-0.009057
119	0.592563	0.005000	2.472120	-9.077763	-1.876859	-0.528249	0.065672	-0.336788	-0.056149	-0.011253	-0.007326
120	0.597563	0.005000	2.444324	-9.176438	-1.832836	-0.528391	0.065643	-0.336676	-0.041309	-0.010910	-0.003347
121	0.602563	0.005000	2.516457	-9.108777	-1.893713	-0.529294	0.064853	-0.336928	-0.046088	-0.009256	-0.019063
122	0.607563	0.005000	2.558749	-9.115903	-1.899817	-0.530197	0.064063	-0.337180	-0.047464	-0.019059	-0.016921
123	0.612563	0.005000	2.505181	-9.142920	-2.073541	-0.531100	0.063272	-0.337432	-0.051553	-0.018308	-0.016736
124	0.617563	0.005000	2.543071	-9.140410	-2.035461	-0.532004	0.062482	-0.337685	-0.052162	-0.011641	-0.008690
125	0.622563	0.005000	2.473607	-9.025200	-2.036018	-0.532907	0.061692	-0.337937	-0.058355	0.000076	-0.011430
126	0.627563	0.005000	2.588446	-9.025200	-2.002169	-0.533810	0.060902	-0.338189	-0.046066	-0.010760	-0.007736
127	0.632563	0.005000	2.472120	-9.025200	-2.079720	-0.534713	0.060111	-0.338441	-0.057487	0.001633	0.004136
128	0.637563	0.005000	2.550600	-8.947820	-1.963100	-0.535617	0.059321	-0.338693	-0.040586	0.021938	-0.001220
129	0.642563	0.005000	2.507115	-9.025200	-2.036235	-0.536520	0.058531	-0.338945	-0.038755	0.018187	-0.002121
130	0.647563	0.005000	2.517650	-8.992250	-2.004385	-0.537423	0.057740	-0.339197	-0.042327	0.034240	0.005767
131	0.652563	0.005000	2.589840	-9.028902	-2.040480	-0.538326	0.056950	-0.339449	-0.029425	0.035143	0.008342
132	0.657563	0.005000	2.541181	-8.995379	-2.001240	-0.539230	0.056160	-0.339701	-0.032760	0.032068	0.003147
133	0.662563	0.005000	2.539136	-8.968764	-2.107496	-0.540133	0.055369	-0.339954	-0.041279	0.051601	-0.004316
134	0.667563	0.005000	2.583475	-8.920210	-1.994875	-0.539470	0.055408	-0.339486	-0.034884	0.045815	0.010901
135	0.672563	0.005000	2.589840	-8.939408	-2.025856	-0.538454	0.055634	-0.338855	-0.038192	0.052388	0.009204
136	0.677563	0.005000	2.488789	-9.039437	-1.962000	-0.537438	0.055860	-0.338225	-0.041533	0.048878	0.001971
137	0.682563	0.005000	2.630893	-9.025200	-1.982526	-0.536422	0.056086	-0.337595	-0.046563	0.046954	0.007981
138	0.687563	0.005000	2.589840	-8.995859	-1.971899	-0.535405	0.056311	-0.336964	-0.056922	0.050327	0.004714
139	0.692563	0.005000	2.550600	-8.918402	-2.029558	-0.534389	0.056537	-0.336334	-0.056097	0.047039	0.000630
140	0.697563	0.005000	2.535248	-8.974016	-2.146256	-0.533373	0.056763	-0.335704	-0.058919	0.049806	-0.002995
141	0.702563	0.005000	2.538114	-9.025200	-2.092206	-0.532357	0.056989	-0.335073	-0.056285	0.050038	0.003067
142	0.707563	0.005000	2.627794	-9.012977	-2.066211	-0.531341	0.057215	-0.334443	-0.052990	0.057687	-0.001723
143	0.712563	0.005000	2.579662	-9.060087	-2.104429	-0.530325	0.057440	-0.333813	-0.040350	0.047219	-0.003477
144	0.717563	0.005000	2.550600	-9.088420	-2.158200	-0.529309	0.057666	-0.333182	-0.043631	0.043906	-0.000599
145	0.722563	0.005000	2.580793	-9.025200	-2.142104	-0.528293	0.057892	-0.332552	-0.040796	0.052659	-0.016479
146	0.727563	0.005000	2.651202	-8.980956	-2.280924	-0.527277	0.058118	-0.331922	-0.029902	0.040023	0.001733
147	0.732563	0.005000	2.568488	-8.868240	-2.161665	-0.527068	0.058007	-0.331367	-0.032376	0.047480	-0.010935
148	0.737563	0.005000	2.589840	-8.808458	-2.199283	-0.527406	0.057668	-0.330862	-0.034912	0.036745	-0.010931
149	0.742563	0.005000	2.550770	-8.907480	-2.217145	-0.527745	0.057330	-0.330358	-0.022964	0.025158	-0.004985
150	0.747563	0.005000	2.414368	-8.886752	-2.158200	-0.528084	0.056991	-0.329854	-0.026760	0.039602	-0.021558
151	0.752563	0.005000	2.432880	-8.889780	-2.140500	-0.528422	0.056652	-0.329349	-0.017537	0.024242	-0.008089
152	0.757563	0.005000	2.472120	-8.929788	-2.074344	-0.528761	0.056314	-0.328845	-0.028951	0.030164	-0.015492
153	0.762563	0.005000	2.472120	-8.891570	-2.190020	-0.529100	0.055975	-0.328341	-0.019655	0.021384	-0.015037
154	0.767563	0.005000	2.604912	-9.001032	-2.158200	-0.529438	0.055636	-0.327836	-0.016439	0.024799	-0.014987
155	0.772563	0.005000	2.643425	-8.932375	-2.222335	-0.529777	0.055297	-0.327332	-0.024154	0.018392	-0.022849
156	0.777563	0.005000	2.589840	-8.972637	-2.184117	-0.530116	0.054959	-0.326828	-0.008144	0.012799	-0.014331
157	0.782563	0.005000	2.563053	-8.985960	-2.183105	-0.530454	0.054620	-0.326323	-0.015098	0.015013	-0.023246
158	0.787563	0.005000	2.633046	-8.891756	-2.154234	-0.530793	0.054281	-0.325819	-0.013142	0.006247	-0.007707
159	0.792563	0.005000	2.629080	-8.985960	-2.236680	-0.531132	0.053942	-0.325315	-0.006129	0.010021	-0.021077
160	0.797563	0.005000	2.511360	-8.976247	-2.187727	-0.531258	0.053943	-0.325379	-0.002741	0.012662	-0.021914
161	0.802563	0.005000	2.550600	-8.916651	-2.137302	-0.531032	0.054508	-0.326389	0.004702	0.008002	-0.021176
162	0.807563	0.005000	2.550600	-8.971166	-2.212234	-0.530806	0.055073	-0.327398	0.012027	-0.000483	-0.023928
163	0.812563	0.005000	2.440006	-9.050188	-2.118960	-0.530580	0.055638	-0.328408	0.005771	-0.000030	-0.018969
164	0.817563	0.005000	2.490650	-8.913657	-2.019770	-0.530354	0.056203	-0.329417	0.021416	0.011358	-0.030702
165	0.822563	0.005000	2.488758	-8.884878	-2.186348	-0.530128	0.056768	-0.330426	0.027987	-0.006272	-0.012311
166	0.827563	0.005000	2.485696	-8.981435	-2.158200	-0.529902	0.057333	-0.331436	0.027615	0.009850	-0.015309
167	0.832563	0.005000	2.656376	-9.060459	-2.083701	-0.529676	0.057898	-0.332445	0.030274	0.000054	-0.025531
168	0.837563	0.005000	2.547641	-8.983001	-2.194481	-0.529450	0.058464	-0.333455	0.029060	-0.004872	-0.011370
169	0.842563	0.005000	2.585967	-8.982087	-2.154327	-0.529224	0.059029	-0.334464	0.030821	-0.005860	-0.022740
170	0.847563	0.005000	2.548749	-8.946720	-2.001240	-0.528998	0.059594	-0.335474	0.035088	-0.010042	-0.013959
171	0.852563	0.005000	2.589468	-8.986704	-1.923132	-0.528772	0.060159	-0.336483	0.027942	-0.003434	-0.017871
172	0.857563	0.005000	2.396243	-9.064440	-1.923411	-0.528546	0.060724	-0.337493	0.015455	-0.008722	-0.015595
173	0.862563	0.005000	2.473328	-9.026408	-2.041688	-0.528396	0.061175	-0.338164	0.016823	-0.009795	-0.017121
174	0.867563	0.005000	2.587625	-9.020769	-1.966431	-0.528622	0.061062	-0.337155	0.018604	-0.005896	-0.026017
175	0.872563	0.005000	2.436118	-9.025200	-2.001240	-0.528847	0.060949	-0.336147	0.013744	-0.009250	-0.017933
176	0.877563	0.005000	2.405026	-9.025200	-1.930351	-0.529073	0.060836	-0.335138	0.015302	0.001873	-0.024493
177	0.882563	0.005000	2.432880	-9.059622	-1.966818	-0.529299	0.060723	-0.334130	0.016418	-0.005872	-0.011719
178	0.887563	0.005000	2.578190	-9.064440	-2.007065	-0.529525	0.060610	-0.333121	0.009382	0.007704	-0.023955
179	0.892563	0.005000	2.544141	-9.090762	-1.968459	-0.529751	0.060497	-0.332113	0.013450	0.010385	-0.028467
180	0.897563	0.005000	2.479525	-9.135515	-1.969405	-0.529976	0.060385	-0.331104	0.006286	0.004338	-0.017441
181	0.902563	0.005000	2.550600	-9.002815	-1.900375	-0.530202	0.060272	-0.330096	0.013490	0.016711	-0.030275
182	0.907563	0.005000	2.451780	-9.044100	-1.853730	-0.530428	0.060159	-0.329087	0.029409	0.005122	-0.018928
183	0.912563	0.005000	2.452864	-9.074432	-1.883520	-0.530654	0.060046	-0.328079	0.012700	0.013809	-0.023945
184	0.917563	0.005000	2.421866	-9.142920	-1.872506	-0.530880	0.059933	-0.327070	0.009079	0.005935	-0.026039
185	0.922563	0.005000	2.565766	-9.049274	-1.949963	-0.531105	0.059820	-0.326062	0.005032	0.007672	-0.017054
186	0.927563	0.005000	2.629080	-9.064440	-2.001240	-0.531331	0.059707	-0.325053	0.008259	0.013131	-0.027330
187	0.932563	0.005000	2.603442	-9.090078	-1.922760	-0.532627	0.058738	-0.324881	0.009935	0.006604	-0.020868
188	0.937563	0.005000	2.575216	-9.093688	-1.834288	-0.533981	0.057722	-0.324754	-0.004913	0.001044	-0.014408
189	0.942563	0.005000	2.424348	-8.985960	-1.828926	-0.535336	0.056706	-0.324628	-0.008766	0.008760	-0.021380
190	0.947563	0.005000	2.518223	-9.009011	-1.851143	-0.536691	0.055690	-0.324502	-0.014968	0.005270	-0.015820
191	0.952563	0.005000	2.506542	-9.020382	-1.917942	-0.538046	0.054674	-0.324376	-0.024233	0.013359	-0.025744
192	0.957563	0.005000	2.608074	-9.067213	-1.901754	-0.539401	0.053658	-0.324250	-0.023506	0.003175	-0.013832
193	0.962563	0.005000	2.530151	-9.081574	-1.903969	-0.540755	0.052642	-0.324124	-0.022038	0.010915	-0.019555
194	0.967563	0.005000	2.589453	-9.064440	-1.883520	-0.542110	0.051626	-0.323998	-0.027726	0.006671	-0.021439
195	0.972563	0.005000	2.474538	-9.103680	-1.941171	-0.543465	0.050610	-0.323872	-0.037197	0.010615	-0.029881
196	0.977563	0.005000	2.465087	-9.125058	-1.965517	-0.544820	0.049594	-0.323746	-0.034982	0.002435	-0.021187
197	0.982563	0.005000	2.595401	-9.053162	-1.799479	-0.546175	0.048578	-0.323620	-0.042030	0.006005	-0.019930
198	0.987563	0.005000	2.520158	-8.891467	-1.883520	-0.547530	0.047562	-0.323493	-0.054429	0.015251	-0.027272
199	0.992563	0.005000	2.550600	-9.031784	-1.962000	-0.548884	0.046546	-0.323367	-0.049042	0.002360	-0.021099
200	0.997563	0.005000	2.579104	-9.039452	-2.011976	-0.548350	0.046762	-0.323425	-0.063204	0.011770	-0.023722
201	1.002563	0.005000	2.538780	-9.023310	-1.962000	-0.547108	0.047439	-0.323551	-0.063083	0.007472	-0.028066
202	1.007563	0.005000	2.591017	-8.973272	-1.974688	-0.545866	0.048117	-0.323677	-0.064652	0.003833	-0.013221
203	1.012563	0.005000	2.487750	-9.037005	-1.973805	-0.544623	0.048795	-0.323803	-0.071138	0.017218	-0.030297
204	1.017563	0.005000	2.460284	-9.109598	-1.973107	-0.543381	0.049473	-0.323929	-0.067491	0.018602	-0.022666
205	1.022563	0.005000	2.658235	-9.113765	-2.011325	-0.542138	0.050150	-0.324055	-0.079933	0.022102	-0.018240
206	1.027563	0.005000	2.550600	-9.094505	-2.001240	-0.540896	0.050828	-0.324182	-0.086754	0.013118	-0.012825
207	1.032563	0.005000	2.502840	-9.025200	-1.992720	-0.539653	0.051506	-0.324308	-0.082814	0.015984	-0.018536
208	1.037563	0.005000	2.511360	-9.025200	-1.993742	-0.538411	0.052183	-0.324434	-0.077942	0.011862	-0.015066
209	1.042563	0.005000	2.642097	-9.012089	-2.047036	-0.537168	0.052861	-0.324560	-0.073352	0.022540	-0.023420
210	1.047563	0.005000	2.511360	-8.980027	-2.040480	-0.535926	0.053539	-0.324686	-0.078703	0.024282	-0.021848
211	1.052563	0.005000	2.550600	-8.985960	-2.118960	-0.534684	0.054216	-0.324812	-0.074425	0.016795	-0.014727
212	1.057563	0.005000	2.550600	-8.942783	-2.016986	-0.533441	0.054894	-0.324939	-0.066821	0.028204	-0.023372
213	1.062563	0.005000	2.543908	-8.950066	-2.079720	-0.532836	0.055282	-0.325453	-0.060547	0.017355	-0.015481
214	1.067563	0.005000	2.585193	-8.909804	-2.079720	-0.532836	0.055395	-0.326335	-0.063996	0.024918	-0.016350
215	1.072563	0.005000	2.509594	-8.987726	-2.042246	-0.532836	0.055508	-0.327218	-0.070315	0.031270	-0.019151
216	1.077563	0.005000	2.472120	-9.025944	-2.158944	-0.532836	0.055620	-0.328100	-0.061174	0.017204	-0.005982
217	1.082563	0.005000	2.433159	-9.025479	-2.197440	-0.532836	0.055733	-0.328983	-0.064607	0.027707	-0.021418
218	1.087563	0.005000	2.589019	-9.025200	-2.119781	-0.532836	0.055846	-0.329865	-0.076998	0.035927	-0.027751
219	1.092563	0.005000	2.548757	-8.985960	-2.234837	-0.532836	0.055959	-0.330748	-0.076758	0.026332	-0.025513
220	1.097563	0.005000	2.514226	-8.952452	-2.197440	-0.532836	0.056072	-0.331630	-0.067160	0.024048	-0.029160
221	1.102563	0.005000	2.550600	-8.946720	-2.125861	-0.532836	0.056185	-0.332513	-0.064657	0.024129	-0.014087
222	1.107563	0.005000	2.555031	-8.985960	-2.132252	-0.532836	0.056298	-0.333395	-0.061286	0.021008	-0.013758
223	1.112563	0.005000	2.483026	-8.884599	-2.202893	-0.532836	0.056410	-0.334278	-0.066027	0.013467	-0.015959
224	1.117563	0.005000	2.517429	-8.946720	-2.236680	-0.532836	0.056523	-0.335160	-0.053868	0.013247	-0.024725
225	1.122563	0.005000	2.432880	-8.946720	-2.190422	-0.532836	0.056636	-0.336043	-0.049783	0.008704	-0.009594
226	1.127563	0.005000	2.519400	-8.868240	-2.220600	-0.532737	0.056848	-0.336482	-0.062076	0.015194	-0.011774
227	1.132563	0.005000	2.589840	-8.846196	-2.258724	-0.532398	0.057300	-0.335852	-0.055380	0.014642	-0.018431
228	1.137563	0.005000	2.511360	-8.819380	-2.196681	-0.532059	0.057752	-0.335221	-0.048856	0.009947	-0.003280
229	1.142563	0.005000	2.511360	-8.925435	-2.158200	-0.531720	0.058204	-0.334590	-0.051028	0.019563	-0.016315
230	1.147563	0.005000	2.444199	-8.795796	-2.236680	-0.531381	0.058656	-0.333960	-0.044317	0.013789	-0.012581
231	1.152563	0.005000	2.553218	-8.841207	-2.315160	-0.531042	0.059108	-0.333329	-0.033910	0.021453	-0.021020
232	1.157563	0.005000	2.563830	-8.829449	-2.223450	-0.530703	0.059560	-0.332698	-0.044500	0.023051	-0.028586
233	1.162563	0.005000	2.629080	-8.958416	-2.301388	-0.530365	0.060011	-0.332067	-0.029234	0.011578	-0.010455
234	1.167563	0.005000	2.732006	-8.951863	-2.281063	-0.530026	0.060463	-0.331437	-0.025591	0.019994	-0.019454
235	1.172563	0.005000	2.700220	-8.829000	-2.150013	-0.529687	0.060915	-0.330806	-0.025876	0.019462	-0.011957
236	1.177563	0.005000	2.691201	-8.891121	-2.079720	-0.529348	0.061367	-0.330175	-0.010938	0.020964	-0.019133
237	1.182563	0.005000	2.567981	-8.981483	-2.219299	-0.529009	0.061819	-0.329545	-0.007087	0.017844	-0.014946
238	1.187563	0.005000	2.571901	-8.928781	-2.197440	-0.528670	0.062271	-0.328914	-0.002881	0.017813	-0.012583
239	1.192563	0.005000	2.727838	-8.907480	-2.316477	-0.528367	0.062625	-0.328353	-0.002895	0.022316	-0.012477
240	1.197563	0.005000	2.669048	-8.907480	-2.275920	-0.528480	0.061834	-0.328605	-0.000623	0.011424	-0.006720
241	1.202563	0.005000	2.653231	-8.885141	-2.163638	-0.528593	0.061044	-0.328857	0.004767	0.026903	-0.018025
242	1.207563	0.005000	2.603674	-8.968269	-2.154343	-0.528706	0.060254	-0.329109	0.011904	0.014058	-0.005090
243	1.212563	0.005000	2.645749	-8.963389	-2.220011	-0.528819	0.059464	-0.329362	0.008828	0.019130	-0.008440
244	1.217563	0.005000	2.534473	-8.884367	-2.229693	-0.528932	0.058673	-0.329614	0.007952	0.016793	-0.015569
245	1.222563	0.005000	2.526464	-8.819968	-2.212544	-0.529044	0.057883	-0.329866	0.022648	0.009912	0.001748
246	1.227563	0.005000	2.589840	-8.868240	-2.143944	-0.529157	0.057093	-0.330118	0.006551	0.012896	-0.018518
247	1.232563	0.005000	2.629080	-8.934559	-2.158200	-0.529270	0.056302	-0.330370	0.017035	0.005656	-0.014444
248	1.237563	0.005000	2.668320	-8.907480	-2.197440	-0.529383	0.055512	-0.330623	0.011439	0.013999	-0.004005
249	1.242563	0.005000	2.573865	-8.840632	-2.158200	-0.529496	0.054722	-0.330875	0.010029	0.008603	-0.007267
250	1.247563	0.005000	2.696623	-9.025200	-2.129897	-0.529609	0.053931	-0.331127	0.010618	0.015145	-0.004508
251	1.252563	0.005000	2.599755	-9.024782	-2.158200	-0.529722	0.053141	-0.331379	0.008444	0.009396	-0.009999
252	1.257563	0.005000	2.511360	-9.007195	-2.109958	-0.529835	0.052351	-0.331631	0.004613	0.009243	-0.005312
253	1.262563	0.005000	2.620730	-8.963420	-2.009590	-0.529657	0.052724	-0.332100	-0.003157	0.006199	-0.005873
254	1.267563	0.005000	2.589840	-8.961375	-2.047807	-0.529431	0.053289	-0.332605	0.007876	0.006680	-0.003120
255	1.272563	0.005000	2.557385	-9.025200	-2.093291	-0.529205	0.053853	-0.333109	-0.003387	0.021278	-0.008106
256	1.277563	0.005000	2.563055	-8.946720	-2.145745	-0.528979	0.054418	-0.333613	0.002279	0.015161	-0.013498
257	1.282563	0.005000	2.569019	-8.941515	-2.108550	-0.528753	0.054983	-0.334118	0.007147	0.013333	0.003530
258	1.287563	0.005000	2.472120	-8.877566	-2.019892	-0.528528	0.055547	-0.334622	0.007193	0.021041	-0.012210
259	1.292563	0.005000	2.443802	-8.978679	-2.118960	-0.528302	0.056112	-0.335127	0.009441	0.013005	-0.005548
260	1.297563	0.005000	2.704942	-8.980724	-2.079720	-0.528076	0.056677	-0.335631	0.013189	0.019713	-0.014299
261	1.302563	0.005000	2.511360	-8.874702	-2.040480	-0.527850	0.057241	-0.336136	0.008907	0.024230	-0.011989
262	1.307563	0.005000	2.512413	-9.025200	-2.042587	-0.527624	0.057806	-0.336640	0.018117	0.018951	-0.004593
263	1.312563	0.005000	2.511329	-9.025200	-2.197409	-0.527398	0.058371	-0.337145	0.006237	0.021208	-0.016967
264	1.317563	0.005000	2.510369	-9.063449	-2.158200	-0.527172	0.058935	-0.337649	0.012721	0.017852	-0.007591
265	1.322563	0.005000	2.660652	-9.025200	-2.117426	-0.526946	0.059500	-0.338154	0.012617	0.021021	-0.000495
266	1.327563	0.005000	2.511360	-9.025200	-2.155644	-0.527011	0.059628	-0.338414	0.010189	0.010899	-0.007632
267	1.332563	0.005000	2.582683	-9.018043	-2.161779	-0.527237	0.059515	-0.338540	0.010474	0.021794	-0.010343
268	1.337563	0.005000	2.554736	-9.099544	-2.040480	-0.527463	0.059403	-0.338666	0.016562	0.015176	-0.004235
269	1.342563	0.005000	2.477279	-9.059281	-2.113801	-0.527689	0.059290	-0.338793	0.009556	0.014348	-0.003025
270	1.347563	0.005000	2.577509	-9.025200	-2.152034	-0.527915	0.059177	-0.338919	-0.001635	0.018297	-0.014829
271	1.352563	0.005000	2.453292	-8.979156	-2.047284	-0.528140	0.059064	-0.339045	0.011925	0.015078	-0.000804
272	1.357563	0.005000	2.566603	-8.994217	-2.087466	-0.528366	0.058951	-0.339171	-0.001255	0.023244	-0.004595
273	1.362563	0.005000	2.598608	-9.099513	-1.962000	-0.528592	0.058838	-0.339297	0.008780	0.010545	-0.012461
274	1.367563	0.005000	2.560391	-9.005541	-2.011031	-0.528818	0.058725	-0.339423	0.013298	0.013092	-0.000182
275	1.372563	0.005000	2.550600	-8.985960	-2.069387	-0.529044	0.058613	-0.339549	0.005058	0.015948	-0.015918
276	1.377563	0.005000	2.656965	-8.958075	-2.079720	-0.529269	0.058500	-0.339675	0.003882	0.007056	-0.010825
277	1.382563	0.005000	2.589840	-8.959098	-2.104475	-0.529495	0.058387	-0.339801	-0.001206	0.016518	-0.015120
278	1.387563	0.005000	2.577400	-8.986440	-2.040480	-0.529721	0.058274	-0.339927	-0.000305	0.018256	-0.022994
279	1.392563	0.005000	2.643022	-8.974605	-2.063191	-0.529659	0.058401	-0.340053	0.008591	0.010865	-0.010365
280	1.397563	0.005000	2.559910	-9.010235	-2.079720	-0.529208	0.058852	-0.340180	0.001136	0.007405	-0.016542
281	1.402563	0.005000	2.503134	-9.048933	-2.064213	-0.528756	0.059304	-0.340306	0.002632	0.012406	-0.010611
282	1.407563	0.005000	2.511360	-8.985960	-1.995059	-0.528305	0.059755	-0.340432	0.010383	0.014660	-0.014966
283	1.412563	0.005000	2.528912	-9.007648	-2.058032	-0.527853	0.060207	-0.340558	-0.002602	0.009571	-0.009423
284	1.417563	0.005000	2.568710	-9.007090	-2.016329	-0.527402	0.060658	-0.340684	-0.003044	0.018832	-0.016335
285	1.422563	0.005000	2.609948	-8.926612	-2.001240	-0.526950	0.061110	-0.340810	0.008715	0.005174	-0.007209
286	1.427563	0.005000	2.609994	-8.946720	-2.000171	-0.526498	0.061562	-0.340936	-0.002369	0.012432	-0.005391
287	1.432563	0.005000	2.553249	-8.889185	-2.001240	-0.526047	0.062013	-0.341062	0.000741	0.014295	-0.013260
288	1.437563	0.005000	2.462682	-8.990679	-1.983979	-0.525595	0.062465	-0.341188	0.010249	0.015415	-0.006741
289	1.442563	0.005000	2.651822	-9.064440	-2.001240	-0.525144	0.062916	-0.341314	-0.006039	0.014739	-0.018841
290	1.447563	0.005000	2.542312	-8.970484	-2.071432	-0.524692	0.063368	-0.341441	-0.005701	0.003292	-0.014627
291	1.452563	0.005000	2.546789	-8.946720	-2.163761	-0.524240	0.063820	-0.341567	-0.001049	0.007069	-0.003787
292	1.457563	0.005000	2.536689	-8.921391	-2.169617	-0.523950	0.064110	-0.341590	-0.015272	0.020361	-0.007242
293	1.462563	0.005000	2.589840	-8.999422	-2.053942	-0.524289	0.063771	-0.341212	-0.010690	0.008538	0.004889
294	1.467563	0.005000	2.601706	-8.985960	-2.052346	-0.524627	0.063432	-0.340833	-0.018461	0.009409	-0.007051
295	1.472563	0.005000	2.696582	-9.003243	-1.983957	-0.524966	0.063094	-0.340455	-0.024241	0.007629	-0.003628
296	1.477563	0.005000	2.649684	-9.014898	-2.139564	-0.525305	0.062755	-0.340077	-0.020426	0.011263	-0.007775
297	1.482563	0.005000	2.610521	-8.995239	-2.070441	-0.525643	0.062416	-0.339699	-0.018951	0.016959	-0.017336
298	1.487563	0.005000	2.542241	-9.103680	-2.079720	-0.525982	0.062078	-0.339321	-0.022172	0.011029	-0.007387
299	1.492563	0.005000	2.440595	-9.111395	-2.135056	-0.526321	0.061739	-0.338942	-0.034106	0.019345	-0.015576
300	1.497563	0.005000	2.511360	-9.025200	-2.144815	-0.526659	0.061400	-0.338564	-0.026769	0.017498	-0.012611
301	1.502563	0.005000	2.489334	-8.985960	-2.029004	-0.526998	0.061061	-0.338186	-0.019734	0.020464	-0.014494
302	1.507563	0.005000	2.618856	-8.951832	-2.035368	-0.527337	0.060723	-0.337808	-0.026473	0.015230	-0.007610
303	1.512563	0.005000	2.554690	-8.981870	-2.036390	-0.527675	0.060384	-0.337430	-0.031390	0.019360	-0.014473
304	1.517563	0.005000	2.547531	-9.022131	-2.082789	-0.528014	0.060045	-0.337051	-0.026739	0.013412	-0.011022
305	1.522563	0.005000	2.513885	-8.983435	-2.189865	-0.528353	0.059706	-0.336673	-0.031209	0.010809	-0.013518
306	1.527563	0.005000	2.550600	-8.910485	-2.120463	-0.528469	0.059923	-0.336543	-0.034038	0.025042	-0.025349
307	1.532563	0.005000	2.627135	-9.025686	-2.079234	-0.528582	0.060149	-0.336417	-0.018459	0.020861	-0.008990
308	1.537563	0.005000	2.472120	-8.986084	-2.158014	-0.528695	0.060375	-0.336291	-0.021128	0.011875	-0.014364
309	1.542563	0.005000	2.589840	-8.947804	-2.158200	-0.528808	0.060601	-0.336165	-0.028550	0.018524	-0.020138
310	1.547563	0.005000	2.591487	-9.062793	-2.004534	-0.528921	0.060827	-0.336039	-0.030859	0.016428	-0.013173
311	1.552563	0.005000	2.589840	-9.019902	-2.192142	-0.529034	0.061053	-0.335912	-0.028523	0.025443	-0.017858
312	1.557563	0.005000	2.625409	-9.064440	-2.161871	-0.529147	0.061278	-0.335786	-0.021293	0.015774	-0.016363
313	1.562563	0.005000	2.602680	-9.068720	-2.079720	-0.529260	0.061504	-0.335660	-0.023121	0.015325	-0.014257
314	1.567563	0.005000	2.595092	-8.975457	-2.108457	-0.529373	0.061730	-0.335534	-0.016853	0.015933	-0.013615
315	1.572563	0.005000	2.556874	-8.952994	-2.079720	-0.529486	0.061956	-0.335408	-0.020750	0.016082	-0.009680
316	1.577563	0.005000	2.589840	-8.979144	-2.072904	-0.529598	0.062182	-0.335282	-0.009901	0.017794	-0.006373
317	1.582563	0.005000	2.511360	-8.828954	-2.158200	-0.529711	0.062408	-0.335156	-0.016118	0.016356	-0.009409
318	1.587563	0.005000	2.572118	-8.955581	-2.158200	-0.529824	0.062634	-0.335030	-0.017941	0.020584	-0.019070
319	1.592563	0.005000	2.570800	-8.907480	-2.178400	-0.529592	0.062687	-0.335193	-0.008647	0.016083	-0.007862
320	1.597563	0.005000	2.568988	-8.917906	-2.150237	-0.529253	0.062687	-0.335445	-0.021589	0.016819	-0.018542
321	1.602563	0.005000	2.511360	-8.946720	-2.045375	-0.528914	0.062687	-0.335697	-0.009755	0.008215	-0.012523
322	1.607563	0.005000	2.511360	-8.985960	-2.052951	-0.528576	0.062687	-0.335949	-0.007420	0.005905	-0.010610
323	1.612563	0.005000	2.550801	-9.025200	-2.092733	-0.528237	0.062687	-0.336202	-0.016731	0.019962	-0.022695
324	1.617563	0.005000	2.575805	-9.039235	-1.976035	-0.527898	0.062687	-0.336454	-0.010149	0.012875	-0.014119
325	1.622563	0.005000	2.526128	-8.961488	-2.055248	-0.527559	0.062687	-0.336706	-0.006836	0.018402	-0.017953
326	1.627563	0.005000	2.526975	-8.970345	-2.126969	-0.527220	0.062687	-0.336958	-0.006468	0.019070	-0.014235
327	1.632563	0.005000	2.466138	-8.884869	-2.124942	-0.526881	0.062687	-0.337210	-0.005163	0.010690	-0.007699
328	1.637563	0.005000	2.511360	-8.946720	-2.035600	-0.526542	0.062687	-0.337463	-0.001952	0.005075	-0.012576
329	1.642563	0.005000	2.550600	-8.949555	-2.079720	-0.526203	0.062687	-0.337715	-0.005317	0.003695	-0.013042
330	1.647563	0.005000	2.570615	-8.986750	-2.138975	-0.525865	0.062687	-0.337967	-0.001329	0.022289	-0.022940
331	1.652563	0.005000	2.550600	-8.946720	-2.099967	-0.525526	0.062687	-0.338219	-0.008294	0.006626	-0.018814
332	1.657563	0.005000	2.550600	-8.967510	-2.042819	-0.525373	0.062625	-0.338194	-0.000585	0.014336	-0.016240
333	1.662563	0.005000	2.611652	-8.951104	-2.001240	-0.525373	0.062512	-0.337942	0.002380	0.012408	-0.019555
334	1.667563	0.005000	2.511360	-8.930314	-2.073291	-0.525373	0.062399	-0.337690	0.006909	0.006017	-0.018703
335	1.672563	0.005000	2.597321	-8.931146	-2.118960	-0.525373	0.062286	-0.337438	-0.006895	0.010246	-0.025708
336	1.677563	0.005000	2.638638	-8.985960	-2.148642	-0.525373	0.062173	-0.337185	-0.000278	0.001291	-0.021273
337	1.682563	0.005000	2.654502	-8.972142	-2.052083	-0.525373	0.062060	-0.336933	-0.010474	0.020211	-0.023275
338	1.687563	0.005000	2.694611	-9.038149	-2.092669	-0.525373	0.061947	-0.336681	0.000133	0.004230	-0.026365
339	1.692563	0.005000	2.616826	-8.973706	-2.055212	-0.525373	0.061834	-0.336429	-0.003726	0.012962	-0.015576
340	1.697563	0.005000	2.657089	-8.969183	-2.012471	-0.525373	0.061721	-0.336177	-0.003322	0.011414	-0.021142
341	1.702563	0.005000	2.678651	-8.985960	-2.137537	-0.525373	0.061608	-0.335924	-0.000817	0.005755	-0.012975
342	1.707563	0.005000	2.707560	-8.956371	-2.040480	-0.525373	0.061495	-0.335672	-0.005803	0.016275	-0.016493
343	1.712563	0.005000	2.664416	-8.977331	-2.009869	-0.525373	0.061382	-0.335420	-0.005192	0.007876	-0.019113
344	1.717563	0.005000	2.511360	-8.930582	-2.095121	-0.525373	0.061269	-0.335168	-0.007368	0.009620	-0.014393
345	1.722563	0.005000	2.461137	-9.082488	-2.197440	-0.525411	0.061308	-0.335042	-0.012303	0.018490	-0.023424
346	1.727563	0.005000	2.568725	-8.907480	-2.125002	-0.525524	0.061647	-0.335168	-0.004276	0.006008	-0.017093
347	1.732563	0.005000	2.584759	-8.839163	-2.074639	-0.525637	0.061985	-0.335295	0.001738	0.014911	-0.010918
348	1.737563	0.005000	2.589840	-8.955674	-2.036003	-0.525750	0.062324	-0.335421	-0.005709	0.006933	-0.010423
349	1.742563	0.005000	2.528633	-9.014836	-2.047389	-0.525863	0.062663	-0.335547	0.000178	0.013755	-0.013878
350	1.747563	0.005000	2.633944	-8.944288	-2.116528	-0.525976	0.063002	-0.335673	-0.007213	0.016247	-0.015836
351	1.752563	0.005000	2.706133	-8.871094	-2.044762	-0.526089	0.063341	-0.335799	-0.009071	0.014845	-0.009685
352	1.757563	0.005000	2.629080	-8.949323	-2.082323	-0.526202	0.063680	-0.335925	-0.005649	0.011114	-0.013915
353	1.762563	0.005000	2.629080	-8.947185	-2.080185	-0.526315	0.064019	-0.336052	-0.005885	0.007361	-0.005386
354	1.767563	0.005000	2.629080	-9.025200	-2.040480	-0.526428	0.064358	-0.336178	-0.014952	0.016889	-0.014044
355	1.772563	0.005000	2.629080	-9.026935	-2.120695	-0.526541	0.064696	-0.336304	-0.011755	0.006122	-0.018392
356	1.777563	0.005000	2.441109	-9.064440	-2.194697	-0.526654	0.065035	-0.336430	-0.013705	0.015013	-0.019219
357	1.782563	0.005000	2.503831	-9.025200	-2.193676	-0.526767	0.065374	-0.336556	-0.014286	0.030749	-0.027489
358	1.787563	0.005000	2.541956	-8.942398	-2.123282	-0.526880	0.065672	-0.336713	0.002683	0.010632	-0.005258
359	1.792563	0.005000	2.555945	-8.985960	-2.051169	-0.526993	0.065672	-0.337091	0.002242	0.012687	-0.012947
360	1.797563	0.005000	2.484854	-8.907480	-1.968367	-0.527106	0.065672	-0.337470	-0.001913	0.012928	-0.019486
361	1.802563	0.005000	2.686576	-8.875235	-2.015230	-0.527218	0.065672	-0.337848	-0.000172	0.013421	-0.026894
362	1.807563	0.005000	2.589840	-8.907480	-2.040480	-0.527331	0.065672	-0.338226	-0.010151	0.014589	-0.023752
363	1.812563	0.005000	2.646988	-8.846908	-2.067342	-0.527444	0.065672	-0.338605	-0.008549	0.011013	-0.017883
364	1.817563	0.005000	2.638576	-8.799256	-2.030984	-0.527557	0.065672	-0.338983	-0.004517	0.010972	-0.018881
365	1.822563	0.005000	2.571637	-8.886443	-2.040480	-0.527670	0.065672	-0.339362	-0.004673	0.012252	-0.010472
366	1.827563	0.005000	2.629080	-8.985960	-2.158200	-0.527783	0.065672	-0.339740	-0.007264	0.017965	-0.015189
367	1.832563	0.005000	2.577741	-9.022257	-2.149045	-0.527896	0.065672	-0.340118	0.000652	0.008580	0.003163
368	1.837563	0.005000	2.576734	-8.881346	-2.145172	-0.528009	0.065672	-0.340497	-0.007175	0.020189	-0.006062
369	1.842563	0.005000	2.497232	-8.921608	-2.133088	-0.528122	0.065672	-0.340875	-0.008690	0.020091	-0.006739
370	1.847563	0.005000	2.486982	-8.946720	-2.064858	-0.528235	0.065672	-0.341253	-0.010503	0.015743	-0.006790
371	1.852563	0.005000	2.448588	-8.907480	-2.056188	-0.528348	0.065672	-0.341632	-0.018607	0.026259	-0.025611
372	1.857563	0.005000	2.618128	-8.946720	-2.073942	-0.528460	0.065365	-0.341553	-0.011858	0.014838	-0.014275
373	1.862563	0.005000	2.533113	-9.086193	-2.001240	-0.528573	0.065026	-0.341427	-0.011107	0.020914	-0.018065
374	1.867563	0.005000	2.469471	-9.043495	-2.064074	-0.528686	0.064687	-0.341300	-0.009043	0.014418	-0.018260
375	1.872563	0.005000	2.570522	-9.005278	-2.138278	-0.528799	0.064349	-0.341174	-0.006414	0.011773	-0.005539
376	1.877563	0.005000	2.550600	-9.044100	-2.040480	-0.528912	0.064010	-0.341048	-0.010392	0.021547	-0.021094
377	1.882563	0.005000	2.571741	-9.067483	-2.100861	-0.529025	0.063671	-0.340922	-0.014313	0.016282	-0.011811
378	1.887563	0.005000	2.602605	-8.951290	-2.192870	-0.529138	0.063332	-0.340796	-0.015972	0.017564	-0.015361
379	1.892563	0.005000	2.769727	-8.900865	-2.226982	-0.529251	0.062994	-0.340670	-0.014547	0.016859	-0.015894
380	1.897563	0.005000	2.637361	-8.970480	-2.149919	-0.529364	0.062655	-0.340544	-0.008847	0.018602	-0.009882
381	1.902563	0.005000	2.550600	-8.907480	-2.241684	-0.529477	0.062316	-0.340418	-0.015635	0.014180	-0.013342
382	1.907563	0.005000	2.564325	-8.856451	-2.144475	-0.529590	0.061977	-0.340292	-0.014864	0.008408	-0.018919
383	1.912563	0.005000	2.550600	-8.984829	-2.079720	-0.529703	0.061639	-0.340166	-0.024261	0.016960	-0.020641
384	1.917563	0.005000	2.562745	-8.958865	-2.113352	-0.529816	0.061300	-0.340039	-0.009972	0.016201	-0.009198
385	1.922563	0.005000	2.522498	-9.014062	-2.186302	-0.530471	0.060186	-0.338614	-0.007173	0.017242	0.002681
386	1.927563	0.005000	2.560837	-8.965486	-2.176966	-0.531375	0.058718	-0.336597	-0.011498	0.010023	-0.008191
387	1.932563	0.005000	2.560158	-8.946720	-2.098837	-0.532278	0.057250	-0.334580	-0.020393	0.017148	-0.013715
388	1.937563	0.005000	2.472120	-8.938184	-2.149664	-0.533181	0.055783	-0.332563	-0.018589	0.019734	-0.018088
389	1.942563	0.005000	2.518873	-8.922507	-2.158200	-0.534084	0.054315	-0.330546	-0.009850	0.004506	-0.010388
390	1.947563	0.005000	2.511360	-8.972978	-2.086211	-0.534987	0.052847	-0.328529	-0.022476	0.017374	-0.007894
391	1.952563	0.005000	2.499463	-8.880137	-2.073771	-0.535890	0.051380	-0.326511	-0.009656	0.008164	-0.010549
392	1.957563	0.005000	2.545674	-8.941794	-2.055259	-0.536794	0.049912	-0.324494	-0.009255	0.015310	-0.009473
393	1.962563	0.005000	2.472120	-8.911384	-2.044384	-0.537697	0.048444	-0.322477	-0.013497	0.013656	-0.014576
394	1.967563	0.005000	2.477954	-8.913314	-2.116043	-0.538600	0.046977	-0.320460	-0.010609	0.005515	-0.003601
395	1.972563	0.005000	2.700542	-8.981282	-2.153522	-0.539503	0.045509	-0.318443	-0.018753	0.017906	-0.008063
396	1.977563	0.005000	2.668320	-8.830317	-2.155566	-0.540406	0.044041	-0.316426	-0.017261	0.009215	-0.011554
397	1.982563	0.005000	2.628305	-8.946720	-2.041255	-0.541309	0.042574	-0.314409	-0.011898	0.000794	-0.007955
398	1.987563	0.005000	2.589840	-8.946720	-2.079720	-0.541264	0.042318	-0.313922	-0.024410	0.009115	-0.012634
399	1.992563	0.005000	2.588570	-8.869510	-2.041750	-0.540134	0.043448	-0.315184	-0.017201	0.004200	-0.008184
400	1.997563	0.005000	2.546900	-8.984110	-2.118960	-0.539004	0.044578	-0.316446	-0.008295	0.011678	-0.012006
401	2.002563	0.005000	2.550600	-9.016649	-2.155350	-0.537874	0.045708	-0.317708	-0.007722	0.012068	-0.007885
402	2.007563	0.005000	2.475979	-9.099821	-2.075861	-0.536744	0.046838	-0.318970	-0.003084	0.018595	-0.016602
403	2.012563	0.005000	2.540840	-8.995720	-2.114080	-0.535614	0.047968	-0.320231	-0.006414	0.013012	-0.012914
404	2.017563	0.005000	2.477558	-9.014325	-2.006678	-0.534484	0.049098	-0.321493	-0.008406	0.015742	-0.007736
405	2.022563	0.005000	2.589840	-8.992420	-2.118960	-0.533354	0.050228	-0.322755	-0.003365	0.017676	-0.016942
406	2.027563	0.005000	2.614902	-8.939631	-2.086809	-0.532224	0.051358	-0.324017	-0.002669	0.005187	-0.009695
407	2.032563	0.005000	2.511360	-8.915505	-2.071695	-0.531094	0.052488	-0.325279	-0.003920	0.022961	-0.019957
408	2.037563	0.005000	2.550600	-8.928626	-2.079720	-0.529964	0.053618	-0.326541	-0.008469	0.013907	-0.008214
409	2.042563	0.005000	2.580132	-8.877948	-2.138784	-0.528834	0.054748	-0.327803	-0.009377	0.010649	0.001598
410	2.047563	0.005000	2.571823	-8.896868	-2.061703	-0.527704	0.055878	-0.329064	-0.011924	0.021676	-0.015974
411	2.052563	0.005000	2.538966	-9.025200	-2.197440	-0.526837	0.056862	-0.330196	-0.000608	0.010732	-0.003965
412	2.057563	0.005000	2.563257	-8.972033	-2.092377	-0.526724	0.057426	-0.330952	-0.004370	0.013016	-0.010313
413	2.062563	0.005000	2.420069	-8.959531	-2.014454	-0.526611	0.057991	-0.331708	-0.013068	0.006866	-0.012390
414	2.067563	0.005000	2.407861	-9.025200	-2.015461	-0.526498	0.058556	-0.332465	-0.010366	0.015610	-0.010765
415	2.072563	0.005000	2.589840	-9.049196	-2.040480	-0.526385	0.059120	-0.333221	-0.013134	0.018972	-0.007317
416	2.077563	0.005000	2.511360	-8.994692	-2.134951	-0.526272	0.059685	-0.333978	-0.004198	0.015409	-0.012005
417	2.082563	0.005000	2.511360	-8.997191	-2.006832	-0.526159	0.060249	-0.334734	-0.009121	0.009047	-0.011870
418	2.087563	0.005000	2.454274	-9.021652	-2.036932	-0.526046	0.060814	-0.335491	-0.003390	0.009256	0.001862
419	2.092563	0.005000	2.549097	-9.004829	-2.038977	-0.525933	0.061378	-0.336247	-0.006236	0.013024	-0.002305
420	2.097563	0.005000	2.570196	-8.985960	-2.079767	-0.525820	0.061943	-0.337003	0.004768	0.006763	-0.011293
421	2.102563	0.005000	2.511360	-8.888673	-2.081347	-0.525707	0.062507	-0.337760	-0.012385	0.017104	-0.020900
422	2.107563	0.005000	2.572056	-8.985960	-2.022696	-0.525595	0.063072	-0.338516	-0.003616	0.015492	-0.014988
423	2.112563	0.005000	2.589840	-8.946720	-2.057242	-0.525482	0.063636	-0.339273	0.010595	0.008680	-0.011083
424	2.117563	0.005000	2.668320	-8.946720	-2.047281	-0.525382	0.064188	-0.339966	-0.000167	0.012172	-0.017468
425	2.122563	0.005000	2.574643	-8.946720	-1.977197	-0.525608	0.064414	-0.339083	-0.013842	0.005267	-0.006431
426	2.127563	0.005000	2.525535	-8.960895	-2.068829	-0.525833	0.064639	-0.338200	-0.018519	0.013322	-0.014146
427	2.132563	0.005000	2.485272	-8.946720	-2.132112	-0.526059	0.064865	-0.337317	-0.016231	0.010801	-0.006872
428	2.137563	0.005000	2.553000	-9.015319	-2.251360	-0.526285	0.065091	-0.336434	-0.011802	0.014011	0.002865
429	2.142563	0.005000	2.617492	-8.946720	-2.130548	-0.526511	0.065317	-0.335551	-0.009005	0.015156	-0.018158
430	2.147563	0.005000	2.540035	-8.946720	-2.158200	-0.526737	0.065543	-0.334669	-0.004549	0.000136	-0.017375
431	2.152563	0.005000	2.511360	-8.975348	-2.079720	-0.526963	0.065769	-0.333786	-0.010748	0.015143	-0.009794
432	2.157563	0.005000	2.568601	-9.003961	-2.149199	-0.527189	0.065995	-0.332903	-0.014570	0.011923	-0.021980
433	2.162563	0.005000	2.558578	-8.993938	-2.087698	-0.527415	0.066221	-0.332020	0.007566	0.013079	-0.009085
434	2.167563	0.005000	2.550600	-9.032239	-2.111921	-0.527641	0.066447	-0.331137	0.002189	0.010997	-0.013872
435	2.172563	0.005000	2.602636	-8.973164	-2.118960	-0.527867	0.066673	-0.330254	-0.004060	0.011497	-0.006750
436	2.177563	0.005000	2.707560	-8.952096	-2.040480	-0.528092	0.066898	-0.329371	0.003023	0.004851	-0.007460
437	2.182563	0.005000	2.559337	-8.990329	-2.009977	-0.528318	0.067124	-0.328488	0.005380	0.008589	-0.016563
438	2.187563	0.005000	2.621458	-8.946720	-2.122771	-0.528451	0.066885	-0.328749	0.006475	0.020810	-0.013500
439	2.192563	0.005000	2.511360	-9.019623	-2.118960	-0.528564	0.066546	-0.329253	0.010153	0.013315	-0.015217
440	2.197563	0.005000	2.511360	-9.023434	-2.233148	-0.528677	0.066208	-0.329757	-0.002515	0.011906	-0.013095
441	2.202563	0.005000	2.550600	-8.946720	-2.040480	-0.528790	0.065869	-0.330262	-0.002073	0.015399	-0.009938
442	2.207563	0.005000	2.628677	-9.064239	-2.118557	-0.528903	0.065530	-0.330766	-0.007812	0.016346	-0.009147
443	2.212563	0.005000	2.512181	-8.986781	-2.078899	-0.529016	0.065192	-0.331270	-0.009586	0.021686	-0.016113
444	2.217563	0.005000	2.549220	-9.063060	-2.158200	-0.529129	0.064853	-0.331775	-0.009540	0.003397	-0.008692
445	2.222563	0.005000	2.621923	-9.025200	-2.121346	-0.529242	0.064514	-0.332279	-0.004812	0.012412	-0.012440
446	2.227563	0.005000	2.629080	-9.103680	-2.122368	-0.529355	0.064176	-0.332783	-0.015934	0.019064	-0.022863
447	2.232563	0.005000	2.450602	-9.068871	-2.018962	-0.529468	0.063837	-0.333287	-0.015288	0.013444	-0.014151
448	2.237563	0.005000	2.653176	-9.025200	-2.124008	-0.529580	0.063498	-0.333792	-0.019814	0.015611	-0.020314
449	2.242563	0.005000	2.490106	-8.952715	-2.040480	-0.529693	0.063160	-0.334296	-0.010633	0.011623	-0.011025
450	2.247563	0.005000	2.529547	-9.011165	-2.040480	-0.529806	0.062821	-0.334800	-0.005925	0.012961	-0.011577
451	2.252563	0.005000	2.487271	-9.001111	-2.048055	-0.529715	0.062619	-0.335076	-0.008824	0.009974	-0.014650
452	2.257563	0.005000	2.480718	-8.963916	-2.062524	-0.529489	0.062506	-0.335202	-0.017035	0.011238	-0.022913
453	2.262563	0.005000	2.384020	-9.025200	-2.069341	-0.529263	0.062393	-0.335328	-0.011695	0.009508	-0.016278
454	2.267563	0.005000	2.383478	-8.996122	-2.079720	-0.529037	0.062280	-0.335454	-0.008092	0.008066	-0.009801
455	2.272563	0.005000	2.432880	-9.064440	-2.107775	-0.528811	0.062167	-0.335581	-0.017884	0.016511	-0.020313
456	2.277563	0.005000	2.445087	-9.091473	-2.197440	-0.528586	0.062054	-0.335707	-0.021398	0.009198	-0.009398
457	2.282563	0.005000	2.616010	-9.025200	-2.092790	-0.528360	0.061941	-0.335833	-0.024248	0.021382	-0.016589
458	2.287563	0.005000	2.587764	-9.027276	-2.015012	-0.528134	0.061828	-0.335959	-0.015619	0.014281	-0.015316
459	2.292563	0.005000	2.580189	-8.931926	-2.167851	-0.527908	0.061715	-0.336085	-0.010361	0.005022	0.001565
460	2.297563	0.005000	2.495833	-9.079967	-2.071533	-0.527682	0.061602	-0.336211	-0.023790	0.022527	-0.014695
461	2.302563	0.005000	2.521197	-8.963079	-2.135319	-0.527457	0.061489	-0.336337	-0.006612	0.011350	-0.008505
462	2.307563	0.005000	2.454739	-8.924861	-2.036003	-0.527231	0.061377	-0.336463	-0.005734	0.018260	-0.009435
463	2.312563	0.005000	2.432880	-8.925634	-2.061566	-0.527005	0.061264	-0.336589	-0.024509	0.014039	-0.018452
464	2.317563	0.005000	2.492398	-8.987277	-2.136605	-0.526823	0.061281	-0.336812	-0.011845	0.012759	-0.010806
465	2.322563	0.005000	2.511360	-9.025200	-1.943472	-0.526710	0.061507	-0.337191	-0.012835	0.020879	-0.017447
466	2.327563	0.005000	2.552905	-8.985960	-1.998935	-0.526597	0.061733	-0.337569	-0.012609	0.017395	-0.014821
467	2.332563	0.005000	2.603674	-8.868240	-2.075863	-0.526484	0.061958	-0.337947	-0.018948	0.017074	-0.021928
468	2.337563	0.005000	2.584976	-8.924149	-2.168967	-0.526371	0.062184	-0.338326	-0.023743	0.009935	-0.017008
469	2.342563	0.005000	2.448720	-8.962560	-2.001240	-0.526258	0.062410	-0.338704	-0.019084	0.012996	-0.014642
470	2.347563	0.005000	2.517433	-9.001064	-2.001240	-0.526145	0.062636	-0.339083	-0.014654	0.014577	-0.017590
471	2.352563	0.005000	2.443956	-9.011118	-2.079720	-0.526032	0.062862	-0.339461	-0.015351	0.012156	-0.011035
472	2.357563	0.005000	2.577042	-8.894682	-2.001240	-0.525919	0.063088	-0.339839	-0.020125	0.015883	-0.013778
473	2.362563	0.005000	2.629080	-8.946720	-2.065514	-0.525806	0.063314	-0.340218	-0.016822	0.004974	-0.006743
474	2.367563	0.005000	2.673076	-8.935225	-2.130455	-0.525693	0.063540	-0.340596	-0.019949	0.022730	-0.009243
475	2.372563	0.005000	2.490415	-8.925775	-2.090192	-0.525580	0.063766	-0.340974	-0.013174	0.012204	-0.016110
476	2.377563	0.005000	2.580344	-8.936805	-2.216851	-0.525467	0.063991	-0.341353	-0.012702	0.010784	-0.003171
477	2.382563	0.005000	2.641633	-8.916376	-2.097511	-0.525335	0.064179	-0.341496	-0.018747	0.007837	-0.024526
478	2.387563	0.005000	2.440765	-8.946720	-2.079720	-0.525109	0.064179	-0.340487	-0.012378	0.006541	-0.013409
479	2.392563	0.005000	2.582895	-8.900535	-2.132850	-0.524883	0.064179	-0.339477	-0.011454	0.017716	-0.011608
480	2.397563	0.005000	2.478425	-8.913785	-2.191135	-0.524657	0.064179	-0.338468	-0.007936	0.015781	-0.017359
481	2.402563	0.005000	2.521925	-9.019917	-2.124243	-0.524431	0.064179	-0.337459	-0.005125	0.009058	-0.008399
482	2.407563	0.005000	2.585100	-8.981220	-2.118960	-0.524205	0.064179	-0.336450	-0.007966	0.017242	-0.022159
483	2.412563	0.005000	2.500206	-8.954156	-2.154482	-0.523979	0.064179	-0.335441	-0.006050	0.007109	-0.010068
484	2.417563	0.005000	2.435609	-9.027929	-2.040480	-0.523753	0.064179	-0.334432	-0.005900	0.011301	-0.006376
485	2.422563	0.005000	2.548447	-8.983807	-2.081873	-0.523527	0.064179	-0.333423	-0.002997	0.014623	-0.015358
486	2.427563	0.005000	2.590971	-8.985960	-2.122353	-0.523302	0.064179	-0.332414	-0.006852	0.020743	-0.019574
487	2.432563	0.005000	2.589730	-9.025200	-2.118850	-0.523076	0.064179	-0.331405	-0.008214	0.010018	-0.016141
488	2.437563	0.005000	2.628181	-9.025200	-1.963348	-0.522850	0.064179	-0.330396	-0.006920	0.012948	-0.003332
489	2.442563	0.005000	2.475034	-8.949634	-2.040480	-0.522624	0.064179	-0.329387	-0.004410	0.010920	-0.015513
490	2.447563	0.005000	2.592319	-8.985960	-2.150764	-0.522398	0.064179	-0.328378	-0.008802	0.004526	0.001027
491	2.452563	0.005000	2.629080	-8.871276	-2.001240	-0.522820	0.064395	-0.329297	-0.009354	0.014185	-0.010349
492	2.457563	0.005000	2.597958	-8.915598	-2.114901	-0.523271	0.064621	-0.330306	-0.005949	0.014281	-0.016982
493	2.462563	0.005000	2.663239	-8.946720	-2.124041	-0.523723	0.064846	-0.331314	-0.006116	0.011474	-0.011173
494	2.467563	0.005000	2.673943	-9.002706	-2.158200	-0.524174	0.065072	-0.332323	-0.006456	0.014514	-0.019869
495	2.472563	0.005000	2.485412	-9.057794	-2.047126	-0.524626	0.065298	-0.333331	0.005319	0.003360	-0.009637
496	2.477563	0.005000	2.582172	-8.883577	-2.102725	-0.525078	0.065524	-0.334340	0.002495	0.010435	-0.017661
497	2.482563	0.005000	2.496752	-8.884661	-2.048691	-0.525529	0.065750	-0.335349	0.012746	0.008092	-0.013036
498	2.487563	0.005000	2.511360	-8.946720	-2.079720	-0.525981	0.065975	-0.336357	0.006442	0.011578	-0.010976
499	2.492563	0.005000	2.501105	-9.014945	-2.158200	-0.526432	0.066201	-0.337366	0.003177	0.004053	-0.016698
500	2.497563	0.005000	2.579038	-8.996762	-2.215076	-0.526884	0.066427	-0.338374	0.001739	0.009116	-0.004159
501	2.502563	0.005000	2.523180	-9.103680	-2.170020	-0.527335	0.066653	-0.339383	0.002307	0.014134	-0.014785
502	2.507563	0.005000	2.552262	-8.894954	-2.092246	-0.527787	0.066879	-0.340392	-0.003340	0.015237	-0.010845
503	2.512563	0.005000	2.603240	-8.946720	-2.066320	-0.528239	0.067104	-0.341400	-0.004653	0.017747	-0.014546
504	2.517563	0.005000	2.486543	-9.025200	-2.118960	-0.528358	0.067081	-0.341574	0.000756	0.010642	-0.016137
505	2.522563	0.005000	2.580900	-9.040350	-2.134110	-0.528358	0.066968	-0.341448	-0.000009	0.012793	-0.010690
506	2.527563	0.005000	2.550600	-9.041187	-2.118960	-0.528358	0.066855	-0.341322	-0.002830	0.006728	-0.017203
507	2.532563	0.005000	2.489130	-9.002970	-1.979010	-0.528358	0.066742	-0.341196	0.004663	0.006605	-0.004330
508	2.537563	0.005000	2.515061	-9.025200	-2.136729	-0.528358	0.066629	-0.341070	0.003195	0.011778	-0.015799
509	2.542563	0.005000	2.589840	-8.928146	-2.100386	-0.528358	0.066516	-0.340943	0.004582	0.011955	-0.012610
510	2.547563	0.005000	2.589794	-9.025200	-2.099363	-0.528358	0.066403	-0.340817	0.000158	0.020064	-0.008532
511	2.552563	0.005000	2.470568	-9.026752	-2.100116	-0.528358	0.066291	-0.340691	-0.001679	0.020074	-0.019189
512	2.557563	0.005000	2.544434	-8.946720	-2.055476	-0.528358	0.066178	-0.340565	0.004583	0.014828	-0.011993
513	2.562563	0.005000	2.533544	-8.946720	-2.175256	-0.528358	0.066065	-0.340439	0.007429	0.014301	-0.014710
514	2.567563	0.005000	2.527586	-8.946720	-2.070282	-0.528358	0.065952	-0.340313	-0.004269	0.005889	-0.011378
515	2.572563	0.005000	2.511360	-9.064440	-2.055956	-0.528358	0.065839	-0.340187	0.008638	0.014103	-0.007875
516	2.577563	0.005000	2.501027	-9.103680	-2.054934	-0.528358	0.065726	-0.340060	0.009449	0.008341	-0.004959
517	2.582563	0.005000	2.484498	-8.985960	-2.079720	-0.528299	0.065554	-0.340000	0.006934	0.014339	-0.008949
518	2.587563	0.005000	2.459231	-8.985960	-2.014129	-0.528186	0.065328	-0.340000	0.001820	0.008905	-0.012620
519	2.592563	0.005000	2.472120	-8.895614	-2.079720	-0.528073	0.065102	-0.340000	0.013116	0.011031	-0.016475
520	2.597563	0.005000	2.494077	-8.996938	-2.136243	-0.527960	0.064877	-0.340000	0.004823	0.015158	-0.025415
521	2.602563	0.005000	2.560902	-8.996262	-1.992906	-0.527847	0.064651	-0.340000	-0.001007	0.003344	-0.008990
522	2.607563	0.005000	2.492801	-8.995239	-2.118960	-0.527735	0.064425	-0.340000	-0.006875	0.007129	-0.008345
523	2.612563	0.005000	2.497198	-9.041919	-2.133122	-0.527622	0.064199	-0.340000	-0.008297	0.006742	-0.023578
524	2.617563	0.005000	2.582125	-9.032915	-2.072005	-0.527509	0.063973	-0.340000	-0.001503	0.009395	0.001994
525	2.622563	0.005000	2.570677	-9.018508	-2.112268	-0.527396	0.063747	-0.340000	-0.010844	0.027863	-0.018442
526	2.627563	0.005000	2.561940	-9.030870	-2.074050	-0.527283	0.063521	-0.340000	-0.008799	0.022203	-0.014062
527	2.632563	0.005000	2.516472	-9.014976	-2.001240	-0.527170	0.063295	-0.340000	-0.010047	0.016557	-0.004951
528	2.637563	0.005000	2.593930	-8.985960	-2.009420	-0.527057	0.063069	-0.340000	-0.015684	0.007467	-0.009102
529	2.642563	0.005000	2.635291	-8.916796	-2.112749	-0.526944	0.062843	-0.340000	-0.006191	0.009914	-0.017632
530	2.647563	0.005000	2.699985	-9.027725	-2.043005	-0.526901	0.062756	-0.340039	0.000481	0.014654	-0.021926
531	2.652563	0.005000	2.586835	-9.059932	-2.117457	-0.527014	0.062982	-0.340165	-0.004690	0.014355	-0.014876
532	2.657563	0.005000	2.510874	-8.984501	-2.001240	-0.527126	0.063208	-0.340291	-0.010588	0.010079	-0.013032
533	2.662563	0.005000	2.550476	-8.946596	-2.079596	-0.527239	0.063434	-0.340417	-0.009325	0.010396	-0.006743
534	2.667563	0.005000	2.665067	-8.988129	-2.079720	-0.527352	0.063660	-0.340543	-0.014355	0.013527	-0.019944
535	2.672563	0.005000	2.629080	-8.983853	-2.007561	-0.527465	0.063885	-0.340669	0.003802	0.009806	-0.016120
536	2.677563	0.005000	2.587158	-8.985960	-2.035116	-0.527578	0.064111	-0.340795	-0.004271	0.012834	-0.006932
537	2.682563	0.005000	2.546929	-8.943049	-2.087063	-0.527691	0.064337	-0.340921	-0.014834	0.026192	-0.026705
538	2.687563	0.005000	2.525442	-8.990654	-1.996546	-0.527804	0.064563	-0.341047	-0.008216	0.007984	-0.003548
539	2.692563	0.005000	2.495416	-9.093051	-2.006555	-0.527916	0.064788	-0.341174	-0.013285	0.008202	-0.003729
540	2.697563	0.005000	2.583566	-9.076988	-2.046754	-0.528029	0.065014	-0.341300	-0.012331	0.003665	-0.009133
541	2.702563	0.005000	2.511360	-8.946720	-2.118960	-0.528142	0.065240	-0.341426	0.000232	0.012748	-0.002676
542	2.707563	0.005000	2.440719	-8.946720	-2.118960	-0.528255	0.065466	-0.341552	-0.012049	0.021369	-0.012924
543	2.712563	0.005000	2.384779	-8.985960	-2.070859	-0.528338	0.065652	-0.341656	-0.015022	0.013999	-0.009239
544	2.717563	0.005000	2.462236	-8.966193	-2.207029	-0.528113	0.065427	-0.341530	-0.011223	0.015366	-0.012752
545	2.722563	0.005000	2.618654	-8.928332	-2.150237	-0.527887	0.065201	-0.341404	-0.014096	0.016142	-0.015785
546	2.727563	0.005000	2.606184	-8.969616	-2.102616	-0.527661	0.064975	-0.341278	-0.014779	0.027160	-0.019712
547	2.732563	0.005000	2.602311	-9.039499	-2.001240	-0.527435	0.064749	-0.341152	-0.012935	0.019732	-0.025177
548	2.737563	0.005000	2.524574	-8.998973	-1.975013	-0.527209	0.064523	-0.341026	-0.015578	0.019331	-0.002090
549	2.742563	0.005000	2.483289	-9.053271	-2.144165	-0.526984	0.064298	-0.340899	-0.006403	0.016799	-0.008250
550	2.747563	0.005000	2.550600	-9.000728	-2.070016	-0.526758	0.064072	-0.340773	-0.015183	0.007419	-0.011253
551	2.752563	0.005000	2.542994	-8.985960	-2.040480	-0.526532	0.063846	-0.340647	-0.022192	0.024084	0.001381
552	2.757563	0.005000	2.657673	-8.963349	-2.096349	-0.526306	0.063620	-0.340521	-0.016973	0.012304	-0.002967
553	2.762563	0.005000	2.589840	-8.929334	-2.118960	-0.526080	0.063394	-0.340395	-0.012204	0.009586	-0.007205
554	2.767563	0.005000	2.589840	-8.946720	-2.079720	-0.525855	0.063169	-0.340269	-0.014856	0.018032	-0.014357
555	2.772563	0.005000	2.532955	-8.985170	-2.099735	-0.525629	0.062943	-0.340143	-0.001454	0.009130	-0.005297
556	2.777563	0.005000	2.609852	-8.926708	-2.119744	-0.525403	0.062717	-0.340017	-0.006797	0.015194	-0.010204
557	2.782563	0.005000	2.649870	-8.983621	-2.118960	-0.525373	0.062883	-0.340000	-0.014528	0.007911	-0.016208
558	2.787563	0.005000	2.520128	-8.929292	-2.136388	-0.525373	0.063109	-0.340000	-0.014251	0.016618	-0.012745
559	2.792563	0.005000	2.511360	-8.901458	-2.135569	-0.525373	0.063335	-0.340000	-0.020366	0.017321	-0.027980
560	2.797563	0.005000	2.518873	-8.962583	-2.047993	-0.525373	0.063560	-0.340000	-0.017230	0.010897	-0.016888
561	2.802563	0.005000	2.496519	-9.025200	-2.070162	-0.525373	0.063786	-0.340000	-0.009860	0.015989	-0.014391
562	2.807563	0.005000	2.511360	-8.971677	-2.211723	-0.525373	0.064012	-0.340000	-0.014549	0.007683	-0.009065
563	2.812563	0.005000	2.564403	-8.907480	-2.144939	-0.525373	0.064238	-0.340000	-0.016456	0.017653	-0.018438
564	2.817563	0.005000	2.577586	-8.944241	-2.040480	-0.525373	0.064464	-0.340000	-0.015819	0.014655	-0.009324
565	2.822563	0.005000	2.629080	-9.080948	-2.112736	-0.525373	0.064690	-0.340000	-0.010992	0.011905	-0.011374
566	2.827563	0.005000	2.629080	-9.053766	-1.994021	-0.525373	0.064916	-0.340000	-0.020258	0.023799	-0.017904
567	2.832563	0.005000	2.629080	-9.094029	-1.991589	-0.525373	0.065142	-0.340000	-0.006603	0.014155	-0.004675
568	2.837563	0.005000	2.589840	-8.964191	-2.031744	-0.525373	0.065368	-0.340000	-0.008533	0.024419	-0.024563
569	2.842563	0.005000	2.612907	-9.118660	-2.087807	-0.525373	0.065594	-0.340000	0.001489	0.012007	-0.009750
570	2.847563	0.005000	2.568648	-9.018136	-2.140152	-0.525520	0.065377	-0.339835	-0.002916	0.007011	-0.016216
571	2.852563	0.005000	2.445924	-8.985960	-2.203962	-0.525746	0.064926	-0.339583	-0.012189	0.017902	-0.019228
572	2.857563	0.005000	2.472120	-8.957719	-2.231181	-0.525972	0.064474	-0.339331	-0.005136	0.009252	-0.008006
573	2.862563	0.005000	2.580779	-8.951251	-2.149139	-0.526198	0.064022	-0.339079	-0.012744	0.018344	-0.013753
574	2.867563	0.005000	2.405398	-9.025200	-2.079720	-0.526424	0.063571	-0.338827	-0.008733	0.013449	-0.007160
575	2.872563	0.005000	2.511360	-8.949632	-2.121872	-0.526649	0.063119	-0.338575	-0.007893	0.020066	-0.010786
576	2.877563	0.005000	2.436660	-8.980290	-2.040480	-0.526875	0.062667	-0.338323	-0.014955	0.006232	-0.012253
577	2.882563	0.005000	2.551478	-8.907480	-2.158200	-0.527101	0.062216	-0.338071	-0.007817	0.020827	-0.003116
578	2.887563	0.005000	2.472120	-8.946410	-2.196820	-0.527327	0.061764	-0.337819	-0.010962	0.011468	-0.011697
579	2.892563	0.005000	2.549175	-8.946007	-2.080433	-0.527553	0.061312	-0.337566	-0.015052	0.010215	-0.011625
580	2.897563	0.005000	2.625610	-9.025200	-2.117225	-0.527778	0.060861	-0.337314	-0.016122	0.018462	-0.021406
581	2.902563	0.005000	2.513637	-8.951275	-2.121237	-0.528004	0.060409	-0.337062	-0.005127	0.009589	-0.018248
582	2.907563	0.005000	2.511360	-9.031799	-1.971899	-0.528230	0.059957	-0.336810	-0.011279	0.016500	-0.014173
583	2.912563	0.005000	2.546278	-9.060118	-1.979289	-0.528846	0.059261	-0.335794	-0.001166	0.010370	-0.020839
584	2.917563	0.005000	2.560329	-9.015471	-2.109231	-0.529975	0.058245	-0.333777	-0.001928	0.009023	-0.001038
585	2.922563	0.005000	2.483894	-9.025200	-2.058140	-0.531104	0.057229	-0.331760	-0.016412	0.023690	-0.016288
586	2.927563	0.005000	2.446698	-9.032109	-2.033571	-0.532234	0.056213	-0.329743	-0.005272	0.018733	-0.011149
587	2.932563	0.005000	2.511360	-8.993504	-2.174809	-0.533363	0.055197	-0.327726	-0.004560	0.024392	-0.009438
588	2.937563	0.005000	2.542126	-8.924428	-2.065902	-0.534492	0.054181	-0.325709	-0.014474	0.013630	-0.023896
589	2.942563	0.005000	2.580344	-8.946720	-2.129711	-0.535621	0.053165	-0.323692	0.005389	0.005928	-0.003875
590	2.947563	0.005000	2.560774	-8.956894	-2.118960	-0.536750	0.052149	-0.321674	-0.002860	0.008942	-0.015760
591	2.952563	0.005000	2.589840	-8.896404	-2.124026	-0.537879	0.051133	-0.319657	-0.002593	0.009829	-0.012469
592	2.957563	0.005000	2.511360	-8.895381	-2.131059	-0.539008	0.050117	-0.317640	-0.005217	0.007030	-0.018517
593	2.962563	0.005000	2.550600	-8.893522	-2.132918	-0.540137	0.049101	-0.315623	-0.005433	0.009533	-0.014342
594	2.967563	0.005000	2.576176	-8.881904	-2.107047	-0.541266	0.048085	-0.313606	-0.013078	0.017077	-0.010831
595	2.972563	0.005000	2.535914	-8.995828	-2.168068	-0.542395	0.047069	-0.311589	0.003407	0.007357	-0.018056
596	2.977563	0.005000	2.581434	-9.001377	-2.189034	-0.543260	0.046461	-0.310295	0.003458	0.005556	-0.008593
597	2.982563	0.005000	2.564078	-8.916992	-2.132438	-0.543147	0.047364	-0.311681	-0.001711	0.013751	-0.025371
598	2.987563	0.005000	2.646353	-8.990654	-2.175473	-0.543034	0.048267	-0.313068	-0.003868	0.015042	-0.003324
599	2.992563	0.005000	2.568895	-8.985960	-2.098015	-0.542921	0.049170	-0.314455	-0.015826	0.016348	-0.012230
600	2.997563	0.005000	2.588275	-9.004798	-2.096993	-0.542808	0.050073	-0.315841	-0.005688	0.008574	-0.018751
601	3.002563	0.005000	2.550600	-9.064440	-2.177580	-0.542695	0.050977	-0.317228	-0.002074	0.009377	-0.003837
602	3.007563	0.005000	2.511360	-9.006843	-2.139843	-0.542582	0.051880	-0.318615	-0.016516	0.019883	-0.021136
603	3.012563	0.005000	2.546446	-8.999348	-2.118960	-0.542469	0.052783	-0.320002	-0.001982	0.005716	-0.008251
604	3.017563	0.005000	2.573047	-9.047647	-2.118960	-0.542357	0.053686	-0.321388	-0.005833	0.020252	-0.011060
605	3.022563	0.005000	2.534830	-8.993659	-2.024710	-0.542244	0.054589	-0.322775	-0.011067	0.015382	-0.023018
606	3.027563	0.005000	2.511360	-8.971212	-2.020992	-0.542131	0.055492	-0.324162	-0.009255	0.013837	-0.010807
607	3.032563	0.005000	2.500500	-8.971770	-2.133150	-0.542018	0.056395	-0.325548	-0.010079	0.016089	-0.024523
608	3.037563	0.005000	2.576672	-8.985960	-2.119223	-0.541905	0.057299	-0.326935	-0.005406	0.011711	-0.013344
609	3.042563	0.005000	2.577695	-8.829000	-2.004044	-0.541792	0.058202	-0.328322	-0.008189	0.014078	-0.011133
610	3.047563	0.005000	2.601112	-8.879512	-2.001240	-0.540895	0.058545	-0.329334	-0.004058	0.010139	-0.015252
611	3.052563	0.005000	2.540019	-8.985960	-2.047978	-0.539992	0.058884	-0.330342	-0.000223	0.010513	-0.014327
612	3.057563	0.005000	2.481678	-9.015642	-2.118960	-0.539089	0.059222	-0.331351	-0.003775	0.013287	-0.016384
613	3.062563	0.005000	2.541958	-8.946720	-2.118960	-0.538186	0.059561	-0.332359	-0.011265	0.011539	-0.008274
614	3.067563	0.005000	2.519354	-9.009213	-2.063733	-0.537282	0.059900	-0.333368	-0.014295	0.017881	-0.027167
615	3.072563	0.005000	2.472120	-8.985960	-1.982914	-0.536379	0.060239	-0.334377	-0.004333	0.013005	-0.007452
616	3.077563	0.005000	2.489966	-9.025200	-2.040480	-0.535476	0.060577	-0.335385	-0.015658	0.019908	-0.013724
617	3.082563	0.005000	2.511360	-9.059033	-2.118960	-0.534573	0.060916	-0.336394	-0.001776	0.011133	-0.008736
618	3.087563	0.005000	2.446032	-9.016432	-2.110192	-0.533670	0.061255	-0.337402	-0.004714	0.012170	-0.004068
619	3.092563	0.005000	2.475482	-8.975875	-2.033757	-0.532767	0.061594	-0.338411	-0.009581	0.012922	-0.020483
620	3.097563	0.005000	2.518462	-8.944353	-2.121327	-0.531863	0.061932	-0.339420	-0.006109	0.009296	0.001104
621	3.102563	0.005000	2.550600	-8.950284	-2.045827	-0.530960	0.062271	-0.340428	-0.014977	0.023835	-0.016613
622	3.107563	0.005000	2.706785	-9.024425	-2.156651	-0.530057	0.062610	-0.341437	-0.012581	0.013576	-0.019025
623	3.112563	0.005000	2.551344	-8.868984	-2.157704	-0.529764	0.062687	-0.341472	-0.000585	0.015761	-0.013091
624	3.117563	0.005000	2.512990	-8.945090	-2.080535	-0.529651	0.062687	-0.341220	-0.008508	0.023034	-0.018235
625	3.122563	0.005000	2.588012	-9.019716	-2.077892	-0.529538	0.062687	-0.340968	-0.001577	0.015637	-0.006444
626	3.127563	0.005000	2.629080	-8.913181	-2.001240	-0.529425	0.062687	-0.340715	-0.008560	0.018573	-0.022085
627	3.132563	0.005000	2.593699	-8.950579	-2.005099	-0.529312	0.062687	-0.340463	-0.019126	0.009523	-0.013393
628	3.137563	0.005000	2.654916	-8.877176	-2.044948	-0.529199	0.062687	-0.340211	-0.010593	0.014665	-0.010219
629	3.142563	0.005000	2.477558	-9.059002	-2.158200	-0.529086	0.062687	-0.339958	-0.018161	0.017352	-0.012217
630	3.147563	0.005000	2.570460	-9.057980	-2.275920	-0.528973	0.062687	-0.339706	-0.009382	0.016528	-0.014390
631	3.152563	0.005000	2.532627	-9.039378	-2.172378	-0.528860	0.062687	-0.339454	-0.003323	0.009063	-0.012968
632	3.157563	0.005000	2.511360	-8.938695	-2.048505	-0.528747	0.062687	-0.339201	-0.010483	0.011971	-0.004120
633	3.162563	0.005000	2.562699	-8.955767	-2.079720	-0.528634	0.062687	-0.338949	-0.010642	0.026843	-0.016638
634	3.167563	0.005000	2.472120	-8.897364	-2.020656	-0.528521	0.062687	-0.338697	-0.003476	0.009162	-0.015342
635	3.172563	0.005000	2.714965	-8.985960	-2.097737	-0.528408	0.062687	-0.338445	-0.010709	0.019232	-0.012208
636	3.177563	0.005000	2.601474	-8.935086	-2.102988	-0.528358	0.062687	-0.338403	-0.019033	0.010721	-0.013530
637	3.182563	0.005000	2.629080	-8.985960	-2.054407	-0.528358	0.062687	-0.338529	-0.004909	0.009917	0.002981
638	3.187563	0.005000	2.681534	-8.907480	-2.092531	-0.528358	0.062687	-0.338656	-0.014960	0.023207	-0.019544
639	3.192563	0.005000	2.604061	-8.975162	-2.143979	-0.528358	0.062687	-0.338782	-0.003718	0.003948	-0.008350
640	3.197563	0.005000	2.589840	-8.961964	-2.079720	-0.528358	0.062687	-0.338908	-0.007558	0.014760	-0.016553
641	3.202563	0.005000	2.550600	-8.884041	-2.032843	-0.528358	0.062687	-0.339034	-0.011926	0.018921	-0.019867
642	3.207563	0.005000	2.472120	-8.907480	-2.079720	-0.528358	0.062687	-0.339160	-0.007393	0.008152	-0.007481
643	3.212563	0.005000	2.572259	-8.911558	-2.140619	-0.528358	0.062687	-0.339286	-0.010881	0.014369	-0.012439
644	3.217563	0.005000	2.548137	-8.965108	-2.061332	-0.528358	0.062687	-0.339412	-0.014510	0.012828	-0.011258
645	3.222563	0.005000	2.550182	-9.025618	-2.040480	-0.528358	0.062687	-0.339538	-0.014557	0.011810	-0.013170
646	3.227563	0.005000	2.434507	-9.064440	-2.079720	-0.528358	0.062687	-0.339664	-0.018824	0.009389	-0.008084
647	3.232563	0.005000	2.508129	-8.985960	-2.022475	-0.528358	0.062687	-0.339790	-0.016788	0.010731	-0.012279
648	3.237563	0.005000	2.550600	-8.973474	-2.148688	-0.528358	0.062687	-0.339916	-0.014128	0.005675	-0.012723
649	3.242563	0.005000	2.566820	-9.002180	-2.158200	-0.528472	0.062535	-0.340000	-0.004009	0.012029	-0.014624
650	3.247563	0.005000	2.472120	-9.010003	-2.079720	-0.528811	0.062083	-0.340000	-0.010139	0.016358	-0.022662
651	3.252563	0.005000	2.422950	-8.985960	-2.104305	-0.529150	0.061631	-0.340000	-0.005525	0.001369	-0.013354
652	3.257563	0.005000	2.615447	-8.960353	-2.144567	-0.529489	0.061180	-0.340000	-0.010589	0.018191	-0.013444
653	3.262563	0.005000	2.523970	-8.946720	-2.054500	-0.529827	0.060728	-0.340000	-0.008730	0.016296	-0.018491
654	3.267563	0.005000	2.511360	-8.958447	-1.973727	-0.530166	0.060276	-0.340000	-0.004133	0.014450	-0.009233
655	3.272563	0.005000	2.539570	-8.996990	-2.118960	-0.530505	0.059825	-0.340000	-0.005569	0.020981	-0.014638
656	3.277563	0.005000	2.432880	-9.113691	-2.030469	-0.530843	0.059373	-0.340000	-0.000092	0.010256	-0.008467
657	3.282563	0.005000	2.432880	-9.025200	-2.031479	-0.531182	0.058921	-0.340000	-0.006415	0.019091	-0.012827
658	3.287563	0.005000	2.425935	-8.977886	-2.009314	-0.531521	0.058470	-0.340000	0.000019	0.005242	-0.011449
659	3.292563	0.005000	2.440300	-8.978540	-2.126380	-0.531860	0.058018	-0.340000	-0.008014	0.015621	-0.007880
660	3.297563	0.005000	2.472120	-9.031598	-2.118960	-0.532198	0.057566	-0.340000	-0.016461	0.019792	-0.021175
661	3.302563	0.005000	2.427504	-8.896729	-2.085096	-0.532537	0.057115	-0.340000	-0.008088	0.012048	-0.000540
662	3.307563	0.005000	2.550600	-8.951089	-2.044849	-0.532770	0.056623	-0.339926	-0.009502	0.018597	-0.006448
663	3.312563	0.005000	2.522793	-8.915102	-2.162011	-0.532205	0.055833	-0.339296	-0.006802	0.010690	-0.007249
664	3.317563	0.005000	2.556177	-9.064440	-2.270343	-0.531641	0.055043	-0.338665	-0.008522	0.009513	-0.006708
665	3.322563	0.005000	2.588074	-8.907480	-2.152902	-0.531076	0.054253	-0.338035	-0.014164	0.015845	-0.000762
666	3.327563	0.005000	2.552831	-8.907480	-2.081951	-0.530512	0.053462	-0.337405	-0.010852	0.008099	0.002191
667	3.332563	0.005000	2.667716	-8.946921	-2.079720	-0.529947	0.052672	-0.336774	-0.005740	0.021553	-0.021012
668	3.337563	0.005000	2.550600	-8.985960	-2.118139	-0.529383	0.051882	-0.336144	-0.014175	0.020464	-0.011368
669	3.342563	0.005000	2.515047	-9.025200	-2.120803	-0.528818	0.051092	-0.335514	-0.020533	0.022704	-0.018835
670	3.347563	0.005000	2.547734	-8.952452	-2.191708	-0.528254	0.050301	-0.334883	-0.018462	0.009706	-0.010487
671	3.352563	0.005000	2.511360	-9.060990	-2.161650	-0.527689	0.049511	-0.334253	-0.021259	0.014611	-0.013532
672	3.357563	0.005000	2.506929	-8.920772	-2.118960	-0.527125	0.048721	-0.333623	-0.007874	0.012968	-0.021126
673	3.362563	0.005000	2.472120	-9.014294	-2.085173	-0.526560	0.047931	-0.332992	-0.009000	0.015522	-0.006935
674	3.367563	0.005000	2.504885	-9.057965	-2.040480	-0.525996	0.047140	-0.332362	-0.019166	0.017093	-0.011700
675	3.372563	0.005000	2.496364	-9.056942	-2.062974	-0.525431	0.046350	-0.331732	-0.014620	0.015284	-0.007594
676	3.377563	0.005000	2.596920	-9.048360	-2.181360	-0.525576	0.047384	-0.332120	-0.035125	0.014355	-0.010996
677	3.382563	0.005000	2.659257	-9.043325	-2.070657	-0.525802	0.048626	-0.332624	-0.012365	0.003134	-0.019890
678	3.387563	0.005000	2.610010	-8.917565	-2.059550	-0.526027	0.049869	-0.333129	-0.002489	0.009951	-0.004045
679	3.392563	0.005000	2.582911	-8.946720	-2.040480	-0.526253	0.051111	-0.333633	-0.012885	0.023094	-0.020206
680	3.397563	0.005000	2.562250	-9.080381	-2.079720	-0.526479	0.052354	-0.334137	-0.001808	0.013860	-0.010500
681	3.402563	0.005000	2.577168	-8.998632	-2.001240	-0.526705	0.053596	-0.334642	-0.009940	0.020473	-0.012592
682	3.407563	0.005000	2.497972	-8.985960	-2.014628	-0.526931	0.054838	-0.335146	-0.016074	0.012800	-0.008992
683	3.412563	0.005000	2.447132	-8.957456	-2.001240	-0.527157	0.056081	-0.335651	-0.012146	0.017679	0.000647
684	3.417563	0.005000	2.520051	-8.931445	-2.049171	-0.527383	0.057323	-0.336155	-0.010340	0.019794	-0.006445
685	3.422563	0.005000	2.480918	-8.953934	-2.033266	-0.527609	0.058566	-0.336660	-0.003145	0.012843	-0.001294
686	3.427563	0.005000	2.528199	-8.952281	-2.096559	-0.527835	0.059808	-0.337164	-0.005771	0.017102	-0.009499
687	3.432563	0.005000	2.532738	-9.003822	-2.101098	-0.528060	0.061051	-0.337669	-0.011675	0.017729	-0.011496
688	3.437563	0.005000	2.571208	-8.928088	-2.116984	-0.528286	0.062293	-0.338173	-0.018498	0.019949	-0.023231
689	3.442563	0.005000	2.570026	-9.005386	-1.981426	-0.528358	0.062841	-0.338419	-0.016390	0.017605	-0.007198
690	3.447563	0.005000	2.552258	-9.004751	-2.098511	-0.528358	0.063067	-0.338545	-0.013336	0.019740	-0.001286
691	3.452563	0.005000	2.529129	-9.064440	-2.158200	-0.528358	0.063293	-0.338671	-0.012650	0.018065	-0.018444
692	3.457563	0.005000	2.511360	-8.941933	-2.057707	-0.528358	0.063519	-0.338798	-0.010491	0.005814	-0.004050
693	3.462563	0.005000	2.589840	-9.025200	-2.151368	-0.528358	0.063745	-0.338924	-0.008244	0.013436	-0.010079
694	3.467563	0.005000	2.496178	-9.040382	-2.118960	-0.528358	0.063971	-0.339050	-0.001574	0.012883	-0.005545
695	3.472563	0.005000	2.497201	-9.050281	-2.118960	-0.528358	0.064197	-0.339176	-0.010651	0.010922	-0.001618
696	3.477563	0.005000	2.576546	-9.011906	-2.105023	-0.528358	0.064423	-0.339302	-0.010079	0.016418	-0.019019
697	3.482563	0.005000	2.603891	-8.921531	-2.079720	-0.528358	0.064648	-0.339428	-0.006794	0.014297	-0.005545
698	3.487563	0.005000	2.589840	-8.919052	-2.040480	-0.528358	0.064874	-0.339555	-0.013912	0.019408	-0.013912
699	3.492563	0.005000	2.482670	-8.936170	-2.100819	-0.528358	0.065100	-0.339681	-0.006894	0.010860	-0.002494
700	3.497563	0.005000	2.491403	-8.985960	-2.069404	-0.528358	0.065326	-0.339807	-0.005844	0.018952	-0.008492
701	3.502563	0.005000	2.511360	-8.955690	-2.167170	-0.528358	0.065552	-0.339933	-0.011278	0.021473	-0.025822
702	3.507563	0.005000	2.503413	-8.985960	-2.228733	-0.528358	0.065407	-0.339823	0.008847	0.008850	-0.005487
703	3.512563	0.005000	2.550600	-9.025200	-2.104913	-0.528358	0.064842	-0.339444	0.002170	0.020433	-0.005366
704	3.517563	0.005000	2.556983	-9.097297	-2.079720	-0.528358	0.064278	-0.339066	-0.008427	0.019188	-0.019440
705	3.522563	0.005000	2.516720	-9.064440	-2.090440	-0.528358	0.063713	-0.338687	-0.010774	0.021855	-0.014358
706	3.527563	0.005000	2.598623	-8.985960	-2.153809	-0.528358	0.063148	-0.338309	-0.008200	0.021209	-0.012196
707	3.532563	0.005000	2.629080	-9.025200	-2.087311	-0.528358	0.062583	-0.337931	-0.017983	0.014924	-0.008858
708	3.537563	0.005000	2.592613	-8.943947	-2.076947	-0.528358	0.062019	-0.337552	-0.003844	0.011564	-0.013292
709	3.542563	0.005000	2.589840	-8.871741	-2.079720	-0.528358	0.061454	-0.337174	-0.002875	0.007899	-0.015466
710	3.547563	0.005000	2.550600	-8.870657	-2.041688	-0.528358	0.060889	-0.336796	-0.002854	0.022395	-0.018633
711	3.552563	0.005000	2.589840	-8.946906	-2.001426	-0.528358	0.060324	-0.336417	-0.004348	0.015421	-0.011831
712	3.557563	0.005000	2.551437	-9.024363	-1.963673	-0.528358	0.059759	-0.336039	-0.011284	0.018365	-0.026131
713	3.562563	0.005000	2.511360	-8.987371	-2.075487	-0.528358	0.059195	-0.335660	-0.004040	0.015789	-0.016523
714	3.567563	0.005000	2.474537	-9.025200	-2.042897	-0.528358	0.058630	-0.335282	0.000034	0.013630	-0.012807
715	3.572563	0.005000	2.550600	-8.914327	-2.083144	-0.528329	0.058295	-0.335064	-0.011605	0.021605	-0.026536
716	3.577563	0.005000	2.515806	-9.011862	-2.005686	-0.528216	0.058634	-0.335316	0.001258	0.008230	-0.009785
717	3.582563	0.005000	2.511360	-9.025200	-2.006244	-0.528104	0.058973	-0.335568	-0.008782	0.023465	-0.008805
718	3.587563	0.005000	2.472120	-9.031226	-2.112934	-0.527991	0.059311	-0.335821	-0.006419	0.019418	-0.015061
719	3.592563	0.005000	2.543551	-9.014155	-2.086769	-0.527878	0.059650	-0.336073	-0.003839	0.013063	-0.000048
720	3.597563	0.005000	2.550600	-9.009830	-2.031980	-0.527765	0.059989	-0.336325	-0.007529	0.017686	-0.023712
721	3.602563	0.005000	2.659707	-8.994573	-2.118960	-0.527652	0.060328	-0.336577	-0.008367	0.010396	-0.007112
722	3.607563	0.005000	2.638716	-9.054804	-2.118960	-0.527539	0.060666	-0.336829	-0.004182	0.018632	-0.018092
723	3.612563	0.005000	2.589840	-8.956898	-2.001240	-0.527426	0.061005	-0.337081	-0.014868	0.018821	-0.025025
724	3.617563	0.005000	2.539400	-8.879440	-1.945161	-0.527314	0.061344	-0.337333	-0.010421	0.021175	-0.022570
725	3.622563	0.005000	2.553172	-8.907480	-2.079720	-0.527201	0.061683	-0.337585	-0.014630	0.015104	-0.015272
726	3.627563	0.005000	2.550600	-8.894235	-2.039984	-0.527088	0.062021	-0.337837	-0.001758	0.012168	-0.007213
727	3.632563	0.005000	2.564387	-8.866118	-2.015027	-0.526975	0.062360	-0.338090	-0.004546	0.021670	-0.024982
728	3.637563	0.005000	2.580220	-8.946720	-1.937570	-0.526878	0.062687	-0.338346	0.002411	0.013057	-0.008954
729	3.642563	0.005000	2.613248	-9.001792	-2.032905	-0.527216	0.062687	-0.338724	-0.012350	0.017692	-0.017044
730	3.647563	0.005000	2.589840	-8.985960	-2.086180	-0.527555	0.062687	-0.339103	-0.003373	0.017530	-0.010579
731	3.652563	0.005000	2.506945	-8.968548	-2.114545	-0.527894	0.062687	-0.339481	-0.002962	0.013205	-0.003191
732	3.657563	0.005000	2.629080	-8.965139	-2.137379	-0.528232	0.062687	-0.339859	-0.007381	0.016939	-0.021454
733	3.662563	0.005000	2.549314	-8.926457	-2.118960	-0.528571	0.062687	-0.340237	0.003088	0.009522	-0.011155
734	3.667563	0.005000	2.512119	-8.985960	-2.138960	-0.528910	0.062687	-0.340615	-0.004270	0.017326	-0.017534
735	3.672563	0.005000	2.650102	-9.061636	-2.158200	-0.529248	0.062687	-0.340994	-0.001724	0.015260	-0.013576
736	3.677563	0.005000	2.672743	-8.998946	-2.118960	-0.529587	0.062687	-0.341372	0.004974	0.013787	-0.010076
737	3.682563	0.005000	2.573187	-8.985960	-2.168920	-0.529926	0.062687	-0.341750	-0.004679	0.019425	-0.011548
738	3.687563	0.005000	2.589840	-9.025200	-2.166178	-0.530264	0.062687	-0.342128	0.005376	0.008324	-0.008864
739	3.692563	0.005000	2.462459	-9.020072	-2.118960	-0.530603	0.062687	-0.342506	0.001907	0.016315	-0.013686
740	3.697563	0.005000	2.449905	-8.960786	-2.194481	-0.530941	0.062687	-0.342885	-0.011145	0.016071	-0.010079
741	3.702563	0.005000	2.576796	-8.894436	-2.223745	-0.531280	0.062687	-0.343263	-0.014017	0.014355	-0.015245
742	3.707563	0.005000	2.536332	-8.998446	-2.104692	-0.531343	0.062319	-0.342512	-0.005996	0.007241	-0.009638
743	3.712563	0.005000	2.550600	-9.013732	-1.922760	-0.531343	0.061868	-0.341503	-0.009645	0.020006	-0.013216
744	3.717563	0.005000	2.511360	-8.946720	-2.003827	-0.531343	0.061416	-0.340495	-0.009756	0.020165	-0.015280
745	3.722563	0.005000	2.481667	-8.975362	-2.089267	-0.531343	0.060964	-0.339486	-0.009984	0.004779	-0.010290
746	3.727563	0.005000	2.568353	-8.994837	-2.070843	-0.531343	0.060513	-0.338478	-0.019441	0.016487	-0.018804
747	3.732563	0.005000	2.581986	-9.025200	-2.048334	-0.531343	0.060061	-0.337469	-0.011225	0.009395	-0.013108
748	3.737563	0.005000	2.550600	-9.025200	-2.183607	-0.531343	0.059609	-0.336460	-0.006517	0.011475	-0.009459
749	3.742563	0.005000	2.550600	-9.012621	-2.191150	-0.531343	0.059158	-0.335452	-0.005889	0.019062	-0.023729
750	3.747563	0.005000	2.550600	-8.980628	-2.113628	-0.531343	0.058706	-0.334443	-0.009717	0.007693	-0.011932
751	3.752563	0.005000	2.516085	-8.951445	-2.074995	-0.531343	0.058254	-0.333435	-0.008065	0.020004	-0.007755
752	3.757563	0.005000	2.483227	-8.954125	-2.072315	-0.531343	0.057803	-0.332426	-0.003092	0.003288	-0.009799
753	3.762563	0.005000	2.553745	-8.989105	-2.046770	-0.531343	0.057351	-0.331418	-0.004186	0.009936	-0.008013
754	3.767563	0.005000	2.624834	-9.023077	-2.077597	-0.531343	0.056899	-0.330409	-0.003622	0.008695	-0.012362
755	3.772563	0.005000	2.587609	-9.027431	-1.924991	-0.531008	0.057119	-0.330075	-0.011722	0.015715	-0.005857
756	3.777563	0.005000	2.472120	-8.984845	-2.002913	-0.530443	0.057796	-0.330201	-0.012344	0.019588	-0.014716
757	3.782563	0.005000	2.433345	-8.868705	-2.041409	-0.529879	0.058473	-0.330327	-0.007618	0.007811	-0.012249
758	3.787563	0.005000	2.508386	-8.984473	-2.041967	-0.529314	0.059151	-0.330453	-0.016260	0.015728	-0.024061
759	3.792563	0.005000	2.620962	-8.983931	-2.118960	-0.528750	0.059828	-0.330579	-0.013305	0.010866	-0.013173
760	3.797563	0.005000	2.595944	-8.946720	-2.197440	-0.528185	0.060506	-0.330705	-0.004141	0.016083	-0.015348
761	3.802563	0.005000	2.480269	-8.942646	-2.083794	-0.527621	0.061183	-0.330831	-0.006945	0.019531	-0.018052
762	3.807563	0.005000	2.506744	-8.951336	-2.148967	-0.527057	0.061861	-0.330958	-0.014884	0.010004	-0.010191
763	3.812563	0.005000	2.516999	-8.946720	-2.079720	-0.526492	0.062538	-0.331084	-0.014179	0.022839	-0.017741
764	3.817563	0.005000	2.576517	-8.914141	-2.040480	-0.525928	0.063216	-0.331210	-0.003617	0.021996	-0.006706
765	3.822563	0.005000	2.525971	-8.939414	-2.087026	-0.525363	0.063893	-0.331336	-0.008542	0.019842	-0.019797
766	3.827563	0.005000	2.480349	-8.954949	-2.087949	-0.524799	0.064570	-0.331462	-0.012326	0.018675	-0.025853
767	3.832563	0.005000	2.472120	-8.946720	-2.098217	-0.524234	0.065248	-0.331588	-0.004403	0.008408	-0.008146
768	3.837563	0.005000	2.501891	-8.946720	-2.128429	-0.523881	0.065630	-0.331761	-0.010663	0.016776	-0.013816
769	3.842563	0.005000	2.454537	-9.025200	-2.022897	-0.523881	0.065517	-0.332013	-0.006375	0.016227	-0.013500
770	3.847563	0.005000	2.574302	-9.009662	-2.001240	-0.523881	0.065404	-0.332266	-0.015511	0.016587	-0.012379
771	3.852563	0.005000	2.446373	-9.065060	-2.040480	-0.523881	0.065291	-0.332518	-0.015895	0.014665	-0.014397
772	3.857563	0.005000	2.484529	-9.038616	-2.079720	-0.523881	0.065178	-0.332770	-0.019061	0.016474	-0.013544
773	3.862563	0.005000	2.629080	-8.971522	-2.065282	-0.523881	0.065065	-0.333022	-0.008364	0.014957	-0.022790
774	3.867563	0.005000	2.598159	-9.009739	-2.079720	-0.523881	0.064952	-0.333274	-0.011240	0.009285	-0.004276
775	3.872563	0.005000	2.504522	-9.002161	-2.010603	-0.523881	0.064839	-0.333526	-0.011146	0.011867	-0.016824
776	3.877563	0.005000	2.533575	-8.924505	-1.989404	-0.523881	0.064726	-0.333778	-0.001655	0.006094	-0.013076
777	3.882563	0.005000	2.589840	-8.910625	-2.001240	-0.523881	0.064613	-0.334030	-0.006349	0.028283	-0.007892
778	3.887563	0.005000	2.528580	-9.006380	-2.060900	-0.523881	0.064500	-0.334282	-0.019901	0.013738	-0.020717
779	3.892563	0.005000	2.432865	-8.907480	-2.138603	-0.523881	0.064387	-0.334535	-0.012070	0.010994	-0.012055
780	3.897563	0.005000	2.511360	-8.928115	-2.218075	-0.523881	0.064275	-0.334787	-0.009246	0.023964	-0.023075
781	3.902563	0.005000	2.568394	-8.968166	-2.240333	-0.524280	0.063953	-0.334573	-0.007687	0.002698	-0.005620
782	3.907563	0.005000	2.511360	-9.030390	-2.124150	-0.526877	0.062486	-0.331800	-0.007618	0.019224	-0.010535
783	3.912563	0.005000	2.464898	-9.017978	-2.056489	-0.529474	0.061018	-0.329026	-0.011856	0.025686	-0.023452
784	3.917563	0.005000	2.574664	-9.151809	-2.040480	-0.532070	0.059550	-0.326253	-0.018519	0.015733	-0.012211
785	3.922563	0.005000	2.486558	-9.089242	-2.143762	-0.534667	0.058083	-0.323479	-0.018282	0.016057	-0.018415
786	3.927563	0.005000	2.524776	-9.012791	-2.117953	-0.537263	0.056615	-0.320706	-0.015652	0.011639	-0.005342
787	3.932563	0.005000	2.641627	-9.078586	-2.054626	-0.539860	0.055147	-0.317932	-0.009373	0.015387	-0.011154
788	3.937563	0.005000	2.589840	-8.934869	-2.040480	-0.542457	0.053680	-0.315159	-0.000800	0.010756	-0.007982
789	3.942563	0.005000	2.511360	-8.946720	-2.090549	-0.545053	0.052212	-0.312385	-0.011019	0.019196	-0.017139
790	3.947563	0.005000	2.560528	-8.976032	-2.187512	-0.547650	0.050744	-0.309612	-0.008820	0.000869	-0.017091
791	3.952563	0.005000	2.580576	-8.965248	-2.098248	-0.550246	0.049277	-0.306838	-0.007439	0.013173	0.000963
792	3.957563	0.005000	2.558841	-8.882756	-2.017723	-0.552843	0.047809	-0.304065	-0.017437	0.023828	-0.030975
793	3.962563	0.005000	2.560618	-8.829000	-2.133571	-0.555439	0.046341	-0.301291	-0.006899	0.005883	-0.007283
794	3.967563	0.005000	2.478781	-8.803083	-2.138944	-0.558036	0.044874	-0.298518	-0.012413	0.012119	-0.011582
795	3.972563	0.005000	2.472120	-8.918789	-2.113306	-0.556417	0.045830	-0.300099	-0.010004	0.004540	-0.015807
796	3.977563	0.005000	2.495280	-8.902848	-2.128224	-0.554497	0.046960	-0.301991	-0.007858	0.009985	-0.009563
797	3.982563	0.005000	2.542451	-8.868240	-2.150051	-0.552576	0.048089	-0.303883	-0.015673	0.015219	-0.022026
798	3.987563	0.005000	2.393640	-8.916635	-2.079720	-0.550656	0.049219	-0.305775	-0.009809	0.004869	-0.013817
799	3.992563	0.005000	2.438968	-9.027229	-2.042509	-0.548736	0.050348	-0.307667	-0.003742	0.017974	-0.014360
800	3.997563	0.005000	2.552087	-8.948207	-2.153738	-0.546816	0.051478	-0.309559	-0.009549	0.009328	-0.012149
801	4.002563	0.005000	2.511360	-8.907480	-2.119425	-0.544896	0.052607	-0.311451	-0.007890	0.004531	-0.003767
802	4.007563	0.005000	2.588725	-8.907480	-2.196882	-0.542976	0.053737	-0.313342	-0.008302	0.015411	-0.013967
803	4.012563	0.005000	2.473234	-8.985960	-2.121187	-0.541055	0.054866	-0.315234	-0.009168	0.018290	-0.023135
804	4.017563	0.005000	2.591962	-8.990205	-2.116838	-0.539135	0.055996	-0.317126	-0.016103	0.021310	-0.027191
805	4.022563	0.005000	2.701270	-8.949865	-2.043625	-0.537215	0.057125	-0.319018	-0.014965	0.010427	-0.012343
806	4.027563	0.005000	2.633247	-8.903313	-2.075553	-0.535295	0.058255	-0.320910	-0.007672	0.018833	-0.014038
807	4.032563	0.005000	2.442416	-9.015664	-2.006008	-0.533375	0.059384	-0.322802	-0.008804	0.007397	-0.014649
808	4.037563	0.005000	2.455807	-8.963916	-2.006972	-0.532755	0.059863	-0.324240	-0.010325	0.011811	-0.009639
809	4.042563	0.005000	2.446389	-8.985960	-2.007994	-0.532642	0.060089	-0.325501	-0.005185	0.012895	-0.016343
810	4.047563	0.005000	2.504048	-9.057128	-2.087032	-0.532529	0.060315	-0.326761	-0.003195	0.002961	-0.018208
811	4.052563	0.005000	2.589840	-9.033534	-2.009574	-0.532416	0.060541	-0.328022	-0.021614	0.013901	-0.019526
812	4.057563	0.005000	2.531886	-9.025200	-2.061006	-0.532303	0.060767	-0.329283	-0.012191	0.004742	-0.014733
813	4.062563	0.005000	2.423337	-9.054541	-1.942558	-0.532190	0.060993	-0.330544	-0.005734	0.008180	-0.012302
814	4.067563	0.005000	2.500438	-8.985960	-2.086195	-0.532077	0.061219	-0.331804	-0.011254	0.007984	-0.024531
815	4.072563	0.005000	2.472120	-9.052496	-2.173552	-0.531964	0.061445	-0.333065	0.007944	0.002158	-0.009159
816	4.077563	0.005000	2.589840	-9.051474	-2.249646	-0.531851	0.061670	-0.334326	-0.002211	0.017134	-0.016452
817	4.082563	0.005000	2.589840	-9.050931	-2.197440	-0.531738	0.061896	-0.335586	-0.005821	0.010471	-0.006726
818	4.087563	0.005000	2.608724	-9.035378	-2.055011	-0.531625	0.062122	-0.336847	-0.010133	0.018839	-0.005507
819	4.092563	0.005000	2.543180	-9.040753	-2.001240	-0.531512	0.062348	-0.338108	-0.010754	0.015080	-0.013529
820	4.097563	0.005000	2.620033	-8.995007	-2.142104	-0.531400	0.062574	-0.339369	-0.001937	0.016239	-0.000615
821	4.102563	0.005000	2.641194	-9.047322	-2.163204	-0.531230	0.062743	-0.339937	-0.000713	0.019898	-0.019159
822	4.107563	0.005000	2.574658	-8.983001	-2.194481	-0.531004	0.062856	-0.339811	-0.006831	0.018621	-0.021696
823	4.112563	0.005000	2.628166	-8.926643	-2.060557	-0.530778	0.062969	-0.339685	-0.011665	0.018842	-0.016398
824	4.117563	0.005000	2.550430	-8.966425	-2.099255	-0.530553	0.063082	-0.339559	-0.016495	0.010911	-0.010023
825	4.122563	0.005000	2.629080	-8.981529	-2.040480	-0.530327	0.063195	-0.339432	-0.017691	0.020510	-0.014807
826	4.127563	0.005000	2.607330	-9.060180	-1.979490	-0.530101	0.063308	-0.339306	-0.013514	0.018534	-0.012792
827	4.132563	0.005000	2.539043	-9.047508	-2.141268	-0.529875	0.063421	-0.339180	-0.007439	0.019952	-0.006799
828	4.137563	0.005000	2.527270	-9.103680	-2.063810	-0.529649	0.063534	-0.339054	-0.011118	0.025325	-0.024347
829	4.142563	0.005000	2.535713	-9.019778	-2.001240	-0.529423	0.063647	-0.338928	-0.011054	0.005288	-0.013047
830	4.147563	0.005000	2.589840	-8.971615	-2.058621	-0.529197	0.063760	-0.338802	-0.013625	0.019722	-0.012152
831	4.152563	0.005000	2.576517	-8.946720	-2.196712	-0.528971	0.063872	-0.338676	-0.010880	0.014650	-0.018044
832	4.157563	0.005000	2.523660	-9.025200	-2.067420	-0.528745	0.063985	-0.338549	-0.005173	0.012626	-0.005559
833	4.162563	0.005000	2.472120	-8.997718	-2.056204	-0.528520	0.064098	-0.338423	-0.013805	0.006510	-0.008922
834	4.167563	0.005000	2.500624	-8.975224	-2.040480	-0.528326	0.064211	-0.338333	-0.010206	0.005844	-0.011353
835	4.172563	0.005000	2.501647	-8.956433	-2.148487	-0.528213	0.064324	-0.338333	-0.012218	0.019247	-0.011300
836	4.177563	0.005000	2.428403	-9.016509	-2.127651	-0.528100	0.064437	-0.338333	-0.015039	0.016324	-0.013444
837	4.182563	0.005000	2.589840	-8.954869	-2.094514	-0.527987	0.064550	-0.338333	-0.009090	0.012270	-0.002655
838	4.187563	0.005000	2.497108	-8.985960	-2.040480	-0.527874	0.064663	-0.338333	-0.009377	0.019861	-0.017274
839	4.192563	0.005000	2.438984	-8.973753	-2.091927	-0.527762	0.064776	-0.338333	-0.014268	0.016811	-0.005453
840	4.197563	0.005000	2.492688	-8.957004	-2.163342	-0.527649	0.064889	-0.338333	-0.010594	0.010394	-0.014114
841	4.202563	0.005000	2.603416	-8.946720	-2.223104	-0.527536	0.065002	-0.338333	-0.006986	0.011246	-0.002570
842	4.207563	0.005000	2.622047	-8.982443	-2.079720	-0.527423	0.065115	-0.338333	-0.005649	0.011304	-0.003819
843	4.212563	0.005000	2.658343	-8.949214	-2.113972	-0.527310	0.065228	-0.338333	-0.007330	0.012285	-0.011142
844	4.217563	0.005000	2.587904	-8.946720	-2.075847	-0.527197	0.065341	-0.338333	-0.010722	0.017734	-0.008836
845	4.222563	0.005000	2.589840	-8.908394	-2.118960	-0.527084	0.065453	-0.338333	-0.002049	0.014424	-0.016099
846	4.227563	0.005000	2.550708	-8.907588	-2.079828	-0.526972	0.065566	-0.338333	0.000661	0.006402	-0.012526
847	4.232563	0.005000	2.512019	-8.946061	-2.158200	-0.526866	0.065665	-0.338349	-0.010042	0.021230	-0.021080
848	4.237563	0.005000	2.550600	-8.987633	-2.078047	-0.526866	0.065552	-0.338602	-0.010767	0.013883	-0.009218
849	4.242563	0.005000	2.514056	-8.985960	-2.110873	-0.526866	0.065439	-0.338854	-0.007876	0.016137	-0.004926
850	4.247563	0.005000	2.481833	-8.913955	-2.076482	-0.526866	0.065326	-0.339106	-0.007574	0.018999	-0.015945
851	4.252563	0.005000	2.402160	-9.016680	-2.001240	-0.526866	0.065213	-0.339358	-0.005939	0.016861	-0.013450
852	4.257563	0.005000	2.619329	-9.015449	-2.074844	-0.526866	0.065100	-0.339610	-0.012429	0.008742	-0.014355
853	4.262563	0.005000	2.645021	-8.964194	-2.046305	-0.526866	0.064987	-0.339862	-0.001869	0.014490	-0.009200
854	4.267563	0.005000	2.564294	-8.907480	-2.072873	-0.526866	0.064874	-0.340115	-0.005192	0.019510	0.000309
855	4.272563	0.005000	2.566231	-8.962351	-2.048350	-0.526866	0.064761	-0.340367	-0.005020	0.010557	-0.012179
856	4.277563	0.005000	2.598368	-8.977432	-2.180383	-0.526866	0.064648	-0.340619	-0.012099	0.011653	-0.003103
857	4.282563	0.005000	2.599290	-8.976510	-2.137860	-0.526866	0.064535	-0.340871	-0.003430	0.011418	-0.010216
858	4.287563	0.005000	2.542777	-8.957192	-2.118960	-0.526866	0.064422	-0.341123	-0.000124	0.009802	-0.011584
859	4.292563	0.005000	2.511360	-8.985960	-2.073523	-0.526866	0.064309	-0.341376	-0.002646	0.020804	-0.018375
860	4.297563	0.005000	2.460083	-8.907480	-2.130997	-0.526866	0.064197	-0.341628	-0.009880	0.010355	-0.015669
861	4.302563	0.005000	2.616021	-9.038259	-2.171259	-0.526771	0.064179	-0.341347	0.000401	0.005703	-0.003835
862	4.307563	0.005000	2.653154	-9.103680	-2.081285	-0.526658	0.064179	-0.340969	-0.010425	0.024474	-0.021261
863	4.312563	0.005000	2.579848	-8.995952	-2.104336	-0.526545	0.064179	-0.340591	0.002375	0.015016	-0.004582
864	4.317563	0.005000	2.550600	-9.033732	-2.134314	-0.526432	0.064179	-0.340212	-0.013313	0.021783	-0.013583
865	4.322563	0.005000	2.589840	-9.002149	-2.056669	-0.526319	0.064179	-0.339834	-0.008744	0.010489	-0.011590
866	4.327563	0.005000	2.690349	-8.985960	-1.979211	-0.526206	0.064179	-0.339455	-0.002920	0.007142	-0.011230
867	4.332563	0.005000	2.671093	-9.004194	-2.004013	-0.526093	0.064179	-0.339077	-0.013870	0.017011	-0.020655
868	4.337563	0.005000	2.746800	-8.945062	-2.002898	-0.525980	0.064179	-0.338699	-0.004395	0.013275	-0.008338
869	4.342563	0.005000	2.707947	-8.946720	-2.079333	-0.525867	0.064179	-0.338320	-0.011357	0.013888	-0.012566
870	4.347563	0.005000	2.629080	-8.965352	-2.174856	-0.525754	0.064179	-0.337942	-0.008708	0.003090	-0.008595
871	4.352563	0.005000	2.554117	-8.964582	-2.101098	-0.525641	0.064179	-0.337564	-0.006383	0.014852	-0.020790
872	4.357563	0.005000	2.550600	-9.025200	-1.995679	-0.525528	0.064179	-0.337185	-0.021048	0.019681	-0.008094
873	4.362563	0.005000	2.495543	-9.064440	-2.102539	-0.525415	0.064179	-0.336807	-0.013418	0.021230	-0.008656
874	4.367563	0.005000	2.511360	-9.001235	-2.094995	-0.525587	0.064108	-0.336985	-0.016614	0.017476	-0.018933
875	4.372563	0.005000	2.564852	-9.014464	-2.093972	-0.525925	0.063995	-0.337489	-0.012236	0.009398	-0.014318
876	4.377563	0.005000	2.681100	-9.037980	-2.144970	-0.526264	0.063882	-0.337993	-0.023054	0.020464	-0.025154
877	4.382563	0.005000	2.682185	-8.920168	-2.120137	-0.526603	0.063769	-0.338498	-0.010934	0.007670	-0.001005
878	4.387563	0.005000	2.578175	-8.907480	-2.091385	-0.526941	0.063656	-0.339002	-0.016471	0.011873	-0.009140
879	4.392563	0.005000	2.529060	-8.975190	-2.068950	-0.527280	0.063544	-0.339506	-0.012095	0.019358	-0.020692
880	4.397563	0.005000	2.560685	-8.936635	-1.982170	-0.527619	0.063431	-0.340010	-0.007653	0.015160	-0.007278
881	4.402563	0.005000	2.571708	-9.004092	-2.019372	-0.527958	0.063318	-0.340515	-0.020356	0.024398	-0.014733
882	4.407563	0.005000	2.472120	-8.946720	-2.040480	-0.528296	0.063205	-0.341019	-0.010195	0.010203	-0.015130
883	4.412563	0.005000	2.479618	-9.000956	-2.040480	-0.528635	0.063092	-0.341523	-0.007870	0.021452	-0.015792
884	4.417563	0.005000	2.485071	-8.985960	-2.007715	-0.528974	0.062979	-0.342027	-0.010939	0.018633	-0.018438
885	4.422563	0.005000	2.690998	-8.980439	-2.147159	-0.529313	0.062866	-0.342531	-0.018079	0.014372	-0.005977
886	4.427563	0.005000	2.511360	-8.907480	-2.055212	-0.529651	0.062754	-0.343036	-0.015843	0.023989	-0.003687
887	4.432563	0.005000	2.519137	-8.978183	-2.075832	-0.529805	0.062687	-0.342919	-0.008819	0.019281	-0.011901
888	4.437563	0.005000	2.514706	-8.917518	-2.073028	-0.529692	0.062687	-0.341910	-0.007951	0.019100	-0.016713
889	4.442563	0.005000	2.587516	-9.101356	-2.040480	-0.529579	0.062687	-0.340901	-0.002294	0.007343	-0.009269
890	4.447563	0.005000	2.588539	-9.026501	-2.040480	-0.529466	0.062687	-0.339892	-0.006358	0.024064	-0.021825
891	4.452563	0.005000	2.590584	-8.948207	-2.080464	-0.529353	0.062687	-0.338883	-0.007769	0.011300	-0.020063
892	4.457563	0.005000	2.590119	-9.025200	-2.157921	-0.529240	0.062687	-0.337874	0.001803	0.003078	-0.001977
893	4.462563	0.005000	2.510074	-8.948006	-1.965859	-0.529127	0.062687	-0.336865	-0.007067	0.019955	-0.021277
894	4.467563	0.005000	2.472120	-9.017738	-2.152603	-0.529014	0.062687	-0.335856	-0.007810	0.013790	-0.000132
895	4.472563	0.005000	2.430014	-8.949586	-2.079720	-0.528901	0.062687	-0.334847	-0.006359	0.021047	-0.008038
896	4.477563	0.005000	2.503583	-9.060552	-2.040480	-0.528788	0.062687	-0.333838	-0.015048	0.014076	-0.015409
897	4.482563	0.005000	2.541629	-9.038656	-2.118960	-0.528675	0.062687	-0.332829	-0.005912	0.010238	-0.006101
898	4.487563	0.005000	2.500454	-9.030653	-2.270467	-0.528562	0.062687	-0.331820	-0.012265	0.017856	-0.018044
899	4.492563	0.005000	2.557075	-8.959671	-2.171151	-0.528449	0.062687	-0.330811	-0.004358	0.018314	-0.011453
900	4.497563	0.005000	2.479138	-8.843035	-2.072702	-0.528314	0.062643	-0.330148	-0.010071	0.025134	-0.009428
901	4.502563	0.005000	2.401680	-8.969880	-2.079720	-0.528088	0.062417	-0.330905	-0.009413	0.016811	-0.009361
902	4.507563	0.005000	2.532475	-9.016137	-2.058605	-0.527862	0.062191	-0.331661	-0.013821	0.017858	-0.025217
903	4.512563	0.005000	2.619344	-8.946720	-2.079720	-0.527636	0.061965	-0.332418	-0.021642	0.011741	-0.023919
904	4.517563	0.005000	2.532645	-9.053797	-2.176155	-0.527411	0.061739	-0.333174	-0.010847	0.009582	-0.009830
905	4.522563	0.005000	2.504002	-8.970019	-2.107310	-0.527185	0.061513	-0.333931	-0.013910	0.020055	-0.019190
906	4.527563	0.005000	2.602194	-9.025200	-2.025947	-0.526959	0.061287	-0.334687	-0.000693	0.000166	-0.004608
907	4.532563	0.005000	2.602620	-9.104129	-2.027250	-0.526733	0.061062	-0.335443	-0.010172	0.021535	-0.024535
908	4.537563	0.005000	2.589840	-9.000212	-2.011976	-0.526507	0.060836	-0.336200	-0.013049	0.016410	-0.018616
909	4.542563	0.005000	2.565394	-8.907480	-2.070069	-0.526282	0.060610	-0.336956	-0.003621	0.001255	-0.004508
910	4.547563	0.005000	2.534783	-8.970143	-2.118960	-0.526056	0.060384	-0.337713	-0.011788	0.017801	-0.020073
911	4.552563	0.005000	2.534038	-8.985960	-2.180878	-0.525830	0.060158	-0.338469	-0.004764	0.019896	-0.016564
912	4.557563	0.005000	2.589840	-9.003341	-2.175581	-0.525604	0.059932	-0.339225	0.008442	0.004106	-0.016507
913	4.562563	0.005000	2.513792	-9.046036	-2.079720	-0.525378	0.059706	-0.339982	-0.003788	0.012294	-0.012796
914	4.567563	0.005000	2.412829	-9.044389	-2.079720	-0.525593	0.059811	-0.340123	-0.004325	0.017449	-0.016264
915	4.572563	0.005000	2.549144	-9.064440	-2.039752	-0.525819	0.059924	-0.340249	0.000333	0.014050	-0.024227
916	4.577563	0.005000	2.537835	-8.985960	-1.998498	-0.526045	0.060037	-0.340375	-0.009942	0.013134	-0.009083
917	4.582563	0.005000	2.493669	-8.925171	-2.040480	-0.526271	0.060150	-0.340502	0.001348	0.020297	-0.014231
918	4.587563	0.005000	2.567269	-9.047771	-1.995338	-0.526497	0.060263	-0.340628	-0.008566	0.012470	-0.009694
919	4.592563	0.005000	2.550600	-9.071999	-2.017080	-0.526723	0.060376	-0.340754	-0.002772	0.018102	-0.013180
920	4.597563	0.005000	2.520392	-9.019127	-2.236680	-0.526949	0.060489	-0.340880	-0.001296	0.011475	-0.023791
921	4.602563	0.005000	2.539524	-9.025200	-2.118960	-0.527175	0.060602	-0.341006	-0.001875	0.006972	-0.009858
922	4.607563	0.005000	2.458999	-9.012079	-2.092841	-0.527401	0.060715	-0.341132	-0.013424	0.014907	-0.012600
923	4.612563	0.005000	2.511360	-8.971754	-2.106443	-0.527627	0.060828	-0.341258	-0.009903	0.007647	-0.007151
924	4.617563	0.005000	2.460625	-8.985960	-2.045236	-0.527852	0.060941	-0.341385	-0.013277	0.021006	-0.011693
925	4.622563	0.005000	2.456474	-9.046145	-2.090192	-0.528078	0.061054	-0.341511	-0.005496	0.009869	-0.021661
926	4.627563	0.005000	2.599755	-9.034696	-2.148285	-0.528304	0.061167	-0.341637	-0.006294	0.006688	-0.014966
927	4.632563	0.005000	2.541704	-9.034096	-2.088616	-0.528616	0.061280	-0.341571	-0.009221	0.009553	-0.027533
928	4.637563	0.005000	2.566370	-9.048670	-2.064136	-0.528954	0.061393	-0.341445	-0.005026	0.013275	-0.016324
929	4.642563	0.005000	2.528618	-9.025200	-2.126287	-0.529293	0.061506	-0.341319	-0.009750	0.014296	-0.010925
930	4.647563	0.005000	2.478425	-9.097375	-2.118960	-0.529632	0.061619	-0.341193	-0.007967	0.008363	-0.022336
931	4.652563	0.005000	2.545317	-8.996525	-2.103112	-0.529970	0.061732	-0.341067	-0.014191	0.019291	-0.011142
932	4.657563	0.005000	2.486341	-9.020460	-2.118960	-0.530309	0.061844	-0.340941	-0.007608	0.012410	-0.009440
933	4.662563	0.005000	2.589840	-8.907480	-2.051634	-0.530647	0.061957	-0.340815	-0.003138	0.013679	-0.004792
934	4.667563	0.005000	2.505969	-8.899393	-2.043176	-0.530986	0.062070	-0.340689	-0.008552	0.013926	-0.021546
935	4.672563	0.005000	2.473814	-8.825612	-2.117266	-0.531324	0.062183	-0.340563	-0.012487	0.008471	-0.010198
936	4.677563	0.005000	2.469858	-8.870502	-2.079720	-0.531663	0.062296	-0.340437	-0.012898	0.022990	-0.022841
937	4.682563	0.005000	2.511035	-8.907805	-2.001348	-0.532002	0.062409	-0.340311	-0.007911	0.015743	-0.010595
938	4.687563	0.005000	2.354855	-9.102771	-2.040480	-0.532340	0.062522	-0.340185	-0.006359	0.018668	-0.013662
939	4.692563	0.005000	2.395097	-8.988874	-2.082634	-0.532679	0.062635	-0.340059	-0.011941	0.029555	-0.017920
940	4.697563	0.005000	2.626601	-9.027679	-1.998761	-0.532473	0.062143	-0.339865	-0.006697	0.011843	-0.005615
941	4.702563	0.005000	2.592913	-9.025200	-2.040480	-0.531795	0.061126	-0.339613	-0.004743	0.020582	-0.010568
942	4.707563	0.005000	2.507301	-9.021141	-2.110842	-0.531118	0.060109	-0.339360	-0.019293	0.022450	-0.017613
943	4.712563	0.005000	2.472120	-9.059359	-2.129122	-0.530440	0.059093	-0.339108	-0.015862	0.015879	-0.010380
944	4.717563	0.005000	2.489199	-8.840386	-1.973386	-0.529762	0.058076	-0.338856	-0.009422	0.011936	-0.013368
945	4.722563	0.005000	2.557246	-9.044502	-2.020542	-0.529085	0.057060	-0.338604	-0.008007	0.015688	-0.008442
946	4.727563	0.005000	2.566835	-9.001297	-1.946663	-0.528407	0.056043	-0.338352	-0.005392	0.019941	-0.016916
947	4.732563	0.005000	2.541909	-9.055749	-2.171368	-0.527729	0.055027	-0.338099	-0.012554	0.014284	-0.004676
948	4.737563	0.005000	2.499819	-8.955953	-2.167433	-0.527052	0.054010	-0.337847	-0.010769	0.017283	-0.013739
949	4.742563	0.005000	2.666538	-8.907480	-1.990985	-0.526374	0.052994	-0.337595	-0.002639	0.012141	-0.009681
950	4.747563	0.005000	2.679251	-8.946720	-2.046926	-0.525696	0.051977	-0.337343	-0.020639	0.020295	-0.011163
951	4.752563	0.005000	2.578020	-9.013380	-2.067900	-0.525019	0.050960	-0.337090	-0.014403	0.019660	-0.013668
952	4.757563	0.005000	2.512073	-9.077995	-2.079720	-0.524341	0.049944	-0.336838	-0.005745	0.009280	-0.008789
953	4.762563	0.005000	2.601958	-9.065882	-2.028362	-0.523917	0.049472	-0.336748	-0.011676	0.022180	-0.021002
954	4.767563	0.005000	2.643503	-9.000383	-2.011635	-0.524030	0.050149	-0.337000	-0.013277	0.015388	-0.010723
955	4.772563	0.005000	2.541660	-8.946720	-2.097599	-0.524143	0.050826	-0.337252	-0.009558	0.017193	-0.007869
956	4.777563	0.005000	2.534613	-8.946720	-2.174187	-0.524256	0.051504	-0.337504	-0.021881	0.018207	-0.022610
957	4.782563	0.005000	2.629080	-8.985960	-2.096730	-0.524369	0.052181	-0.337756	-0.019331	0.010509	-0.005735
958	4.787563	0.005000	2.564016	-8.907480	-2.075584	-0.524482	0.052859	-0.338009	-0.011817	0.019079	-0.022724
959	4.792563	0.005000	2.529934	-8.888906	-2.079720	-0.524594	0.053536	-0.338261	-0.009380	0.012146	-0.014771
960	4.797563	0.005000	2.589840	-8.947237	-2.100116	-0.524707	0.054213	-0.338513	-0.006825	0.022492	-0.021173
961	4.802563	0.005000	2.529377	-8.946720	-2.138046	-0.524820	0.054891	-0.338765	-0.006339	0.007642	-0.021472
962	4.807563	0.005000	2.607919	-8.985960	-2.100881	-0.524933	0.055568	-0.339017	-0.011139	0.011890	-0.014609
963	4.812563	0.005000	2.567656	-8.963776	-2.062664	-0.525046	0.056245	-0.339269	-0.015100	0.014279	-0.027628
964	4.817563	0.005000	2.612582	-8.952963	-2.151957	-0.525159	0.056923	-0.339521	-0.006640	0.012173	-0.007551
965	4.822563	0.005000	2.558888	-8.915768	-2.151012	-0.525272	0.057600	-0.339773	-0.011935	0.022026	-0.012477
966	4.827563	0.005000	2.354400	-8.956695	-2.040480	-0.525396	0.058220	-0.339911	-0.005996	0.009066	-0.014504
967	4.832563	0.005000	2.562017	-8.960631	-2.001240	-0.525622	0.058333	-0.339028	-0.022655	0.014714	-0.010491
968	4.837563	0.005000	2.615937	-8.972817	-2.040480	-0.525848	0.058446	-0.338145	-0.021433	0.018179	-0.013744
969	4.842563	0.005000	2.589840	-9.037547	-2.040480	-0.526074	0.058559	-0.337262	-0.011928	0.011107	-0.010785
970	4.847563	0.005000	2.617756	-9.087089	-2.051804	-0.526299	0.058672	-0.336379	-0.007599	0.017142	-0.020731
971	4.852563	0.005000	2.597804	-9.061979	-2.069295	-0.526525	0.058785	-0.335496	-0.012278	0.016982	-0.019304
972	4.857563	0.005000	2.521104	-8.985960	-1.971744	-0.526751	0.058898	-0.334613	-0.007546	0.015318	-0.020510
973	4.862563	0.005000	2.581115	-8.985960	-2.031755	-0.526977	0.059011	-0.333730	-0.010765	0.018560	-0.017335
974	4.867563	0.005000	2.589840	-8.915287	-1.938374	-0.527203	0.059124	-0.332847	-0.012462	0.024459	-0.010971
975	4.872563	0.005000	2.489889	-8.985960	-2.126117	-0.527429	0.059237	-0.331964	-0.008953	0.010976	-0.014897
976	4.877563	0.005000	2.544465	-8.985960	-2.046615	-0.527655	0.059350	-0.331081	-0.008702	0.007372	-0.012465
977	4.882563	0.005000	2.539415	-8.901888	-2.074128	-0.527881	0.059462	-0.330198	-0.013251	0.020159	-0.015283
978	4.887563	0.005000	2.437450	-8.942150	-2.045050	-0.528107	0.059575	-0.329316	-0.013706	0.004312	-0.008091
979	4.892563	0.005000	2.518455	-8.982412	-2.008335	-0.528333	0.059688	-0.328433	-0.023472	0.014577	-0.005020
980	4.897563	0.005000	2.508355	-8.988965	-2.118960	-0.529661	0.058899	-0.327214	-0.005433	0.012860	-0.018609
981	4.902563	0.005000	2.513343	-9.025200	-2.075754	-0.531129	0.057996	-0.325953	-0.010369	-0.000356	-0.008234
982	4.907563	0.005000	2.514241	-8.990762	-2.079720	-0.532597	0.057092	-0.324692	-0.018849	0.010010	-0.019556
983	4.912563	0.005000	2.707436	-9.103804	-2.040542	-0.534066	0.056189	-0.323430	-0.004077	0.013943	-0.016218
984	4.917563	0.005000	2.513219	-8.985960	-2.079100	-0.535534	0.055285	-0.322169	-0.007946	0.020652	-0.014692
985	4.922563	0.005000	2.627453	-8.982707	-2.081347	-0.537002	0.054381	-0.320908	-0.008532	0.019598	-0.011352
986	4.927563	0.005000	2.521956	-9.019902	-2.040480	-0.538471	0.053478	-0.319647	-0.006038	0.016047	-0.011794
987	4.932563	0.005000	2.514567	-8.989167	-2.073307	-0.539939	0.052574	-0.318386	0.000510	0.020769	-0.017867
988	4.937563	0.005000	2.467891	-8.915938	-2.044709	-0.541407	0.051671	-0.317124	-0.007274	0.008775	-0.008218
989	4.942563	0.005000	2.511360	-8.878743	-2.108457	-0.542876	0.050767	-0.315863	-0.008625	0.012188	-0.015359
990	4.947563	0.005000	2.393640	-8.907480	-2.034686	-0.544344	0.049864	-0.314602	-0.000820	0.011215	-0.004683
991	4.952563	0.005000	2.536967	-8.979144	-2.047296	-0.545813	0.048960	-0.313341	-0.011923	0.020071	-0.013367
992	4.957563	0.005000	2.629080	-8.985960	-2.111121	-0.547281	0.048056	-0.312079	-0.003375	0.009022	-0.013447
993	4.962563	0.005000	2.494391	-8.977475	-2.035179	-0.546849	0.048369	-0.312515	-0.015000	0.015354	-0.006581
994	4.967563	0.005000	2.560003	-9.094277	-1.990210	-0.545495	0.049272	-0.313776	0.001755	0.024598	-0.022241
995	4.972563	0.005000	2.503397	-9.046052	-2.040480	-0.544140	0.050175	-0.315037	-0.015956	0.009351	-0.005626
996	4.977563	0.005000	2.511360	-9.086648	-2.001240	-0.542785	0.051078	-0.316297	-0.005198	0.013768	-0.009725
997	4.982563	0.005000	2.484110	-9.052450	-2.028490	-0.541430	0.051981	-0.317558	-0.008017	0.011762	-0.014902
998	4.987563	0.005000	2.576827	-9.025200	-2.027266	-0.540076	0.052885	-0.318819	-0.010385	0.011039	-0.006332
999	4.992563	0.005000	2.589840	-9.011467	-2.038520	-0.538721	0.053788	-0.320079	-0.015743	0.013787	-0.023296
1000	4.997563	0.005000	2.511360	-9.039793	-2.040480	-0.537366	0.054691	-0.321340	-0.004076	0.004961	-0.004939
1001	5.002563	0.005000	2.574225	-9.056431	-2.142585	-0.536011	0.055594	-0.322601	-0.006921	0.012922	-0.001644
1002	5.007563	0.005000	2.432880	-8.963078	-2.069886	-0.534657	0.056497	-0.323861	-0.014161	0.015904	-0.005017
1003	5.012563	0.005000	2.494180	-8.963900	-2.018420	-0.533302	0.057400	-0.325122	-0.010759	0.011088	-0.005948
1004	5.017563	0.005000	2.451083	-9.085477	-2.001240	-0.531947	0.058304	-0.326383	-0.010696	0.011666	-0.010738
1005	5.022563	0.005000	2.492135	-8.965945	-1.982015	-0.530592	0.059207	-0.327643	-0.016550	0.007019	0.000892
1006	5.027563	0.005000	2.530833	-8.888007	-2.020713	-0.529647	0.059803	-0.328733	-0.011841	0.017524	-0.014193
1007	5.032563	0.005000	2.513699	-9.064440	-2.158200	-0.529195	0.060029	-0.329615	-0.005635	0.012781	-0.019669
1008	5.037563	0.005000	2.524404	-8.955488	-2.180012	-0.528743	0.060255	-0.330498	-0.024630	0.008549	-0.018505
1009	5.042563	0.005000	2.550600	-8.969351	-2.135569	-0.528292	0.060481	-0.331380	-0.018260	0.005924	-0.011792
1010	5.047563	0.005000	2.573977	-9.087817	-2.095583	-0.527840	0.060707	-0.332263	-0.019131	0.015882	-0.008884
1011	5.052563	0.005000	2.683161	-8.971119	-2.094561	-0.527389	0.060933	-0.333145	-0.014893	0.013993	-0.016856
1012	5.057563	0.005000	2.589840	-9.078258	-2.144382	-0.526937	0.061158	-0.334028	-0.003187	0.006251	-0.013989
1013	5.062563	0.005000	2.550600	-9.038461	-2.118418	-0.526485	0.061384	-0.334910	-0.005082	0.019127	-0.015249
1014	5.067563	0.005000	2.548121	-8.973706	-2.091974	-0.526034	0.061610	-0.335793	-0.007133	0.012481	-0.005045
1015	5.072563	0.005000	2.511360	-8.896249	-2.062943	-0.525582	0.061836	-0.336675	-0.008239	0.013753	-0.006735
1016	5.077563	0.005000	2.501029	-8.967383	-2.197440	-0.525131	0.062062	-0.337558	-0.020334	0.015275	-0.011527
1017	5.082563	0.005000	2.530662	-8.995611	-2.168486	-0.524679	0.062288	-0.338440	-0.002298	0.009946	-0.002058
1018	5.087563	0.005000	2.502731	-9.103680	-1.979258	-0.524228	0.062514	-0.339323	-0.009481	0.023927	-0.015387
1019	5.092563	0.005000	2.542899	-9.025200	-2.158200	-0.523907	0.062687	-0.340000	-0.011650	0.010366	-0.007761
1020	5.097563	0.005000	2.439944	-9.046392	-2.033416	-0.524020	0.062687	-0.340000	-0.011607	0.015005	-0.010041
1021	5.102563	0.005000	2.432880	-9.052357	-2.007282	-0.524133	0.062687	-0.340000	-0.006539	0.014730	-0.002250
1022	5.107563	0.005000	2.496302	-8.980941	-2.148162	-0.524246	0.062687	-0.340000	-0.012939	0.019997	-0.006995
1023	5.112563	0.005000	2.423926	-8.960151	-2.149246	-0.524359	0.062687	-0.340000	-0.008891	0.023198	-0.016436
1024	5.117563	0.005000	2.400549	-9.054076	-2.054298	-0.524472	0.062687	-0.340000	-0.015536	0.014571	-0.003446
1025	5.122563	0.005000	2.516224	-8.907480	-2.148471	-0.524585	0.062687	-0.340000	-0.013878	0.014919	-0.005566
1026	5.127563	0.005000	2.552490	-8.909370	-2.040480	-0.524698	0.062687	-0.340000	-0.013277	0.005421	-0.003035
1027	5.132563	0.005000	2.551468	-8.948455	-2.042215	-0.524811	0.062687	-0.340000	-0.011269	0.012130	-0.005475
1028	5.137563	0.005000	2.511670	-8.986115	-2.079875	-0.524923	0.062687	-0.340000	-0.012759	0.022084	-0.016753
1029	5.142563	0.005000	2.704675	-8.908922	-2.156037	-0.525036	0.062687	-0.340000	-0.011463	0.011698	-0.008896
1030	5.147563	0.005000	2.629080	-8.791495	-2.192235	-0.525149	0.062687	-0.340000	-0.023859	0.020293	-0.021344
1031	5.152563	0.005000	2.634566	-8.985960	-2.160943	-0.525262	0.062687	-0.340000	-0.016295	0.017976	-0.017948
1032	5.157563	0.005000	2.636609	-8.954249	-1.969529	-0.525371	0.062691	-0.339968	-0.012524	0.012521	-0.014356
1033	5.162563	0.005000	2.563722	-9.051318	-2.031732	-0.525258	0.062917	-0.338203	-0.014620	-0.000479	-0.021077
1034	5.167563	0.005000	2.589840	-9.025200	-2.001240	-0.525145	0.063143	-0.336438	-0.010325	0.005880	-0.008921
1035	5.172563	0.005000	2.524094	-9.031567	-1.968367	-0.525032	0.063369	-0.334673	-0.019866	0.014430	-0.023920
1036	5.177563	0.005000	2.543605	-8.992955	-2.137216	-0.524919	0.063594	-0.332908	-0.018032	0.005116	-0.008214
1037	5.182563	0.005000	2.573977	-9.056508	-2.079720	-0.524807	0.063820	-0.331143	-0.023760	0.017652	-0.006746
1038	5.187563	0.005000	2.589840	-9.103680	-2.031526	-0.524694	0.064046	-0.329378	-0.026228	0.012438	-0.012904
1039	5.192563	0.005000	2.511360	-9.025200	-2.000456	-0.524581	0.064272	-0.327613	-0.018459	0.017174	-0.007026
1040	5.197563	0.005000	2.568803	-8.907480	-2.087404	-0.524468	0.064497	-0.325848	-0.018304	0.012907	-0.011346
1041	5.202563	0.005000	2.495202	-9.069056	-2.091261	-0.524355	0.064723	-0.324083	-0.023592	0.019839	-0.022167
1042	5.207563	0.005000	2.472120	-9.115924	-2.121468	-0.524242	0.064949	-0.322318	-0.010569	0.021056	-0.028247
1043	5.212563	0.005000	2.511360	-9.077546	-2.092826	-0.524129	0.065175	-0.320553	-0.009969	0.009120	-0.000303
1044	5.217563	0.005000	2.511360	-9.047167	-2.169183	-0.524017	0.065401	-0.318788	-0.014069	0.019597	-0.006199
1045	5.222563	0.005000	2.560468	-9.015332	-2.163018	-0.523904	0.065626	-0.317023	-0.006176	0.009789	-0.011606
1046	5.227563	0.005000	2.534892	-9.025200	-2.071897	-0.524151	0.065672	-0.317875	-0.013409	0.007544	0.002261
1047	5.232563	0.005000	2.528091	-8.940942	-2.141469	-0.524490	0.065672	-0.319387	-0.017773	0.024989	-0.020600
1048	5.237563	0.005000	2.629080	-9.007713	-2.197440	-0.524829	0.065672	-0.320900	0.002341	0.016267	-0.011041
1049	5.242563	0.005000	2.605486	-8.983311	-2.173846	-0.525167	0.065672	-0.322413	-0.007358	0.018726	-0.010929
1050	5.247563	0.005000	2.549996	-9.024596	-2.059798	-0.525506	0.065672	-0.323926	-0.012199	0.015439	-0.010747
1051	5.252563	0.005000	2.491254	-8.947692	-2.196468	-0.525845	0.065672	-0.325439	-0.016969	0.011054	-0.005752
1052	5.257563	0.005000	2.469595	-8.826475	-2.118960	-0.526183	0.065672	-0.326952	-0.019065	0.012963	-0.021191
1053	5.262563	0.005000	2.577075	-8.920245	-2.097055	-0.526522	0.065672	-0.328464	-0.007094	0.004463	-0.010151
1054	5.267563	0.005000	2.488433	-8.907480	-2.079720	-0.526860	0.065672	-0.329977	-0.014893	0.012186	-0.017187
1055	5.272563	0.005000	2.480401	-8.907480	-2.088001	-0.527199	0.065672	-0.331490	-0.007287	0.015407	-0.016901
1056	5.277563	0.005000	2.511360	-9.025200	-2.133708	-0.527538	0.065672	-0.333003	-0.003905	0.016594	-0.010383
1057	5.282563	0.005000	2.564325	-8.997749	-2.014965	-0.527876	0.065672	-0.334516	-0.005788	0.020236	-0.014753
1058	5.287563	0.005000	2.589840	-8.959575	-2.171055	-0.528215	0.065672	-0.336029	-0.009184	0.021664	-0.006840
1059	5.292563	0.005000	2.550600	-9.013055	-2.133909	-0.528227	0.065607	-0.336886	-0.003933	0.014790	-0.008799
1060	5.297563	0.005000	2.640218	-8.991785	-2.001240	-0.528002	0.065494	-0.337264	-0.011217	0.010719	0.000076
1061	5.302563	0.005000	2.540363	-8.956957	-2.079720	-0.527776	0.065381	-0.337642	-0.018494	0.021508	-0.012604
1062	5.307563	0.005000	2.550600	-9.045323	-2.178323	-0.527550	0.065268	-0.338020	-0.019196	0.014225	-0.012873
1063	5.312563	0.005000	2.511360	-9.064440	-2.040480	-0.527324	0.065155	-0.338398	-0.016255	0.014077	-0.011600
1064	5.317563	0.005000	2.432880	-8.978447	-2.158200	-0.527099	0.065042	-0.338777	-0.013353	0.013888	-0.021380
1065	5.322563	0.005000	2.531074	-8.953291	-2.053623	-0.526873	0.064929	-0.339155	-0.001586	0.004150	-0.003786
1066	5.327563	0.005000	2.635029	-8.991909	-2.134405	-0.526647	0.064816	-0.339533	-0.008899	0.019994	-0.025224
1067	5.332563	0.005000	2.707560	-8.985960	-1.942465	-0.526421	0.064703	-0.339911	-0.011371	0.006481	-0.024794
1068	5.337563	0.005000	2.582032	-8.950624	-2.079720	-0.526195	0.064590	-0.340289	-0.010030	0.013606	-0.009389
1069	5.342563	0.005000	2.593202	-9.061078	-2.004602	-0.525970	0.064477	-0.340668	-0.017596	0.016466	-0.017410
1070	5.347563	0.005000	2.702882	-9.022861	-2.077381	-0.525744	0.064364	-0.341046	-0.008597	0.006989	-0.008927
1071	5.352563	0.005000	2.703610	-8.946720	-2.077086	-0.525518	0.064252	-0.341424	-0.002407	0.006490	-0.006103
1072	5.357563	0.005000	2.469796	-8.985185	-2.158200	-0.525454	0.064098	-0.341396	-0.011078	0.010510	-0.014822
1073	5.362563	0.005000	2.432384	-8.946720	-2.080216	-0.525680	0.063872	-0.340639	-0.017256	0.017238	-0.011729
1074	5.367563	0.005000	2.470850	-8.988501	-2.232869	-0.525906	0.063646	-0.339883	-0.004370	0.012757	-0.005262
1075	5.372563	0.005000	2.476705	-8.949013	-2.155907	-0.526132	0.063420	-0.339126	-0.007270	0.013977	-0.008938
1076	5.377563	0.005000	2.511360	-8.985960	-2.113259	-0.526357	0.063195	-0.338369	-0.003529	0.014232	-0.021613
1077	5.382563	0.005000	2.582122	-8.982101	-2.083579	-0.526583	0.062969	-0.337612	-0.007293	0.013884	-0.009874
1078	5.387563	0.005000	2.555480	-8.951600	-2.114080	-0.526809	0.062743	-0.336856	-0.012051	0.015365	-0.016429
1079	5.392563	0.005000	2.517262	-9.058538	-2.124862	-0.527035	0.062517	-0.336099	-0.003483	0.007166	-0.018467
1080	5.397563	0.005000	2.524280	-9.077360	-2.184520	-0.527261	0.062291	-0.335342	-0.012882	0.020076	-0.017140
1081	5.402563	0.005000	2.479602	-8.875722	-2.126442	-0.527487	0.062065	-0.334585	-0.007560	0.012063	-0.019100
