# FOX Logger (IMU file)
# (c) INRIA 2011-2014
# File created from file sensbiotk output
#
# File format:
# id	t	dt	ax	ay	az	mx	my	mz	gx	gy	gz
#
# Units:
#	Time: s
#	Acceleration: m.s^-2
#	Magneto: gauss
#	Gyrometer: rad/s
#
1	0.060303	0.060303	1.507931	9.832429	-1.098720	-0.779104	-0.667164	0.858333	-0.006860	-0.065433	0.047694
2	0.065303	0.005000	1.433125	9.810000	-1.076505	-0.780968	-0.668041	0.860170	-0.008412	-0.069406	0.053509
3	0.070303	0.005000	1.448789	9.770760	-0.999074	-0.782833	-0.668918	0.862007	-0.035142	-0.065822	0.041432
4	0.075303	0.005000	1.451880	9.763781	-0.957891	-0.784697	-0.669796	0.863843	-0.044684	-0.079191	0.043157
5	0.080303	0.005000	1.516642	9.874762	-1.124242	-0.786561	-0.670673	0.865680	-0.060554	-0.081201	0.041731
6	0.085303	0.005000	1.463513	9.821633	-1.043506	-0.788425	-0.671550	0.867517	-0.067631	-0.096307	0.041236
7	0.090303	0.005000	1.539726	9.800634	-1.167834	-0.790290	-0.672427	0.869354	-0.076325	-0.101964	0.041278
8	0.095303	0.005000	1.569600	9.770760	-1.041092	-0.792154	-0.673305	0.871190	-0.083128	-0.106586	0.035913
9	0.100303	0.005000	1.451880	9.702173	-1.177200	-0.794018	-0.674182	0.873027	-0.075467	-0.120867	0.042679
10	0.105303	0.005000	1.417843	9.770760	-1.140562	-0.795882	-0.675059	0.874864	-0.072647	-0.132000	0.036731
11	0.110303	0.005000	1.490753	9.770760	-1.059664	-0.797747	-0.675936	0.876701	-0.053904	-0.135594	0.039026
12	0.115303	0.005000	1.412640	9.770760	-1.173709	-0.799611	-0.676814	0.878538	-0.052291	-0.136937	0.031703
13	0.120303	0.005000	1.513902	9.770760	-1.063595	-0.801475	-0.677691	0.880374	-0.046478	-0.140169	0.031949
14	0.125303	0.005000	1.451880	9.855346	-1.131854	-0.803339	-0.678568	0.882211	-0.047598	-0.153229	0.036909
15	0.130303	0.005000	1.446690	9.818512	-1.028752	-0.804009	-0.678677	0.882809	-0.038007	-0.149109	0.041959
16	0.135303	0.005000	1.530360	9.799543	-0.941760	-0.802802	-0.677581	0.881462	-0.030989	-0.151189	0.035249
17	0.140303	0.005000	1.516862	9.835742	-0.954631	-0.801596	-0.676484	0.880115	-0.037791	-0.146509	0.032549
18	0.145303	0.005000	1.530360	9.761714	-0.965903	-0.800390	-0.675388	0.878768	-0.032059	-0.145308	0.022215
19	0.150303	0.005000	1.596408	9.653040	-0.902520	-0.799184	-0.674291	0.877421	-0.036591	-0.147775	0.020926
20	0.155303	0.005000	1.589205	9.751125	-0.922125	-0.797977	-0.673194	0.876074	-0.034165	-0.134920	0.024026
21	0.160303	0.005000	1.612758	9.792339	-0.820122	-0.796771	-0.672098	0.874727	-0.037122	-0.131462	0.023542
22	0.165303	0.005000	1.545609	9.786009	-0.887271	-0.795565	-0.671001	0.873380	-0.034392	-0.120951	0.023432
23	0.170303	0.005000	1.621986	9.823146	-0.797749	-0.794359	-0.669905	0.872033	-0.036570	-0.123112	0.017727
24	0.175303	0.005000	1.648080	9.866687	-0.756457	-0.793152	-0.668808	0.870686	-0.042731	-0.106136	0.004878
25	0.180303	0.005000	1.648080	9.849240	-0.697838	-0.791946	-0.667712	0.869339	-0.034185	-0.093157	0.010479
26	0.185303	0.005000	1.634738	9.875531	-0.575651	-0.790740	-0.666615	0.867992	-0.023495	-0.101082	0.009287
27	0.190303	0.005000	1.765800	9.814134	-0.518387	-0.789534	-0.665519	0.866645	-0.021826	-0.087033	0.007607
28	0.195303	0.005000	1.840821	10.004471	-0.590329	-0.788327	-0.664422	0.865298	-0.028405	-0.079288	0.006241
29	0.200303	0.005000	1.843851	9.888909	-0.744917	-0.787889	-0.664008	0.864332	-0.025939	-0.065639	0.000276
30	0.205303	0.005000	1.805040	9.885848	-0.664448	-0.787670	-0.663789	0.863475	-0.021938	-0.058138	-0.003687
31	0.210303	0.005000	1.726560	9.923144	-0.445368	-0.787450	-0.663569	0.862617	-0.015044	-0.052686	-0.000392
32	0.215303	0.005000	1.726560	9.895461	-0.639154	-0.787231	-0.663350	0.861760	-0.007724	-0.037803	-0.004268
33	0.220303	0.005000	1.735848	9.937008	-0.597888	-0.787012	-0.663131	0.860902	-0.003296	-0.018126	-0.001053
34	0.225303	0.005000	1.698660	9.944279	-0.722879	-0.786792	-0.662911	0.860045	0.007062	-0.015919	0.007062
35	0.230303	0.005000	1.687320	9.902229	-0.720069	-0.786573	-0.662692	0.859187	0.017637	-0.002577	-0.005953
36	0.235303	0.005000	1.663773	9.896334	-0.627840	-0.786353	-0.662472	0.858330	0.022151	0.016137	-0.000481
37	0.240303	0.005000	1.551495	9.988095	-0.688215	-0.786134	-0.662253	0.857472	0.024892	0.034582	-0.005850
38	0.245303	0.005000	1.472150	9.968261	-0.803770	-0.785915	-0.662034	0.856614	0.037135	0.038303	-0.000801
39	0.250303	0.005000	1.552820	9.944500	-0.706320	-0.785695	-0.661814	0.855757	0.049545	0.055460	-0.010289
40	0.255303	0.005000	1.573489	9.938207	-0.720696	-0.785476	-0.661595	0.854899	0.045025	0.066405	0.008861
41	0.260303	0.005000	1.591776	9.966960	-0.667080	-0.785256	-0.661375	0.854042	0.046304	0.069669	0.003773
42	0.265303	0.005000	1.638056	9.898504	-0.706320	-0.785056	-0.661156	0.853461	0.046039	0.081142	0.009326
43	0.270303	0.005000	1.561991	9.888480	-0.713929	-0.784946	-0.660936	0.854196	0.039508	0.092760	0.014313
44	0.275303	0.005000	1.535957	9.916526	-0.599794	-0.784836	-0.660717	0.854931	0.033977	0.102418	0.013168
45	0.280303	0.005000	1.602320	10.009460	-0.670340	-0.784727	-0.660498	0.855666	0.049432	0.117533	0.007787
46	0.285303	0.005000	1.528676	10.046282	-0.707162	-0.784617	-0.660278	0.856401	0.049787	0.129818	0.002907
47	0.290303	0.005000	1.451880	10.122818	-0.745560	-0.784507	-0.660059	0.857136	0.066646	0.139898	0.020494
48	0.295303	0.005000	1.487614	9.938238	-0.817028	-0.784397	-0.659839	0.857871	0.078915	0.128559	0.015478
49	0.300303	0.005000	1.563677	9.961037	-0.796645	-0.784288	-0.659620	0.858606	0.087452	0.135382	0.008006
50	0.305303	0.005000	1.530360	9.888480	-0.753789	-0.784178	-0.659401	0.859341	0.067719	0.141352	0.014490
51	0.310303	0.005000	1.598567	9.907174	-0.766106	-0.784068	-0.659181	0.860076	0.054606	0.152740	0.017828
52	0.315303	0.005000	1.660620	9.941879	-0.743941	-0.783959	-0.658962	0.860811	0.056294	0.154435	0.016380
53	0.320303	0.005000	1.544991	9.888480	-0.799431	-0.783849	-0.658742	0.861546	0.045194	0.156138	0.014005
54	0.325303	0.005000	1.675439	9.893640	-0.868440	-0.783739	-0.658523	0.862281	0.044538	0.154904	0.006653
55	0.330303	0.005000	1.569248	9.888832	-0.862928	-0.783629	-0.658304	0.863016	0.042132	0.166679	0.017226
56	0.335303	0.005000	1.590988	9.870628	-1.038092	-0.783520	-0.658459	0.862915	0.033557	0.162185	0.008756
57	0.340303	0.005000	1.585042	9.810000	-0.902520	-0.783410	-0.658897	0.862180	0.050870	0.162947	0.011616
58	0.345303	0.005000	1.569600	9.797444	-0.954316	-0.783300	-0.659336	0.861446	0.078367	0.183656	0.009446
59	0.350303	0.005000	1.625911	9.787831	-0.824040	-0.783191	-0.659774	0.860711	0.122945	0.180674	0.015768
60	0.355303	0.005000	1.513005	9.653040	-0.824040	-0.783081	-0.660213	0.859976	0.145090	0.181341	0.010590
61	0.360303	0.005000	1.543672	9.705592	-0.856624	-0.782972	-0.660652	0.859241	0.164851	0.181048	0.003852
62	0.365303	0.005000	1.565283	9.801365	-0.946077	-0.782862	-0.661090	0.858507	0.179902	0.169539	0.002561
63	0.370303	0.005000	1.451880	9.727694	-0.904433	-0.782752	-0.661529	0.857772	0.187273	0.165174	0.002789
64	0.375303	0.005000	1.412671	9.653040	-0.980969	-0.782643	-0.661967	0.857037	0.170232	0.160795	0.010237
65	0.380303	0.005000	1.527940	9.731520	-1.096300	-0.782533	-0.662406	0.856303	0.143354	0.152674	0.014757
66	0.385303	0.005000	1.534752	9.810000	-1.168415	-0.782423	-0.662845	0.855568	0.144702	0.141735	0.015350
67	0.390303	0.005000	1.484322	9.777558	-1.137960	-0.782314	-0.663283	0.854833	0.127536	0.132700	0.024576
68	0.395303	0.005000	1.560493	9.840133	-1.276707	-0.782204	-0.663722	0.854099	0.130301	0.126849	0.008614
69	0.400303	0.005000	1.541506	9.877334	-1.362254	-0.782095	-0.664161	0.853364	0.131677	0.121053	0.004431
70	0.405303	0.005000	1.634520	9.784320	-1.296359	-0.782195	-0.664284	0.853920	0.135115	0.113953	-0.000083
71	0.410303	0.005000	1.663858	9.833462	-1.169515	-0.782305	-0.664394	0.854532	0.166883	0.106054	-0.002425
72	0.415303	0.005000	1.683906	9.888480	-1.134546	-0.782414	-0.664504	0.855145	0.176509	0.107280	0.003242
73	0.420303	0.005000	1.588751	9.966022	-1.176262	-0.782524	-0.664613	0.855758	0.164442	0.100278	-0.008327
74	0.425303	0.005000	1.659757	9.972255	-1.267357	-0.782634	-0.664723	0.856370	0.170192	0.089204	-0.002851
75	0.430303	0.005000	1.701880	9.898600	-1.344280	-0.782743	-0.664833	0.856983	0.154814	0.080078	-0.010144
76	0.435303	0.005000	1.571446	9.888480	-1.400175	-0.782853	-0.664943	0.857595	0.151201	0.074294	-0.001809
77	0.440303	0.005000	1.619048	9.859448	-1.412640	-0.782963	-0.665052	0.858208	0.149051	0.073291	-0.005377
78	0.445303	0.005000	1.648080	9.739689	-1.451880	-0.783072	-0.665162	0.858821	0.152105	0.063977	-0.012961
79	0.450303	0.005000	1.648080	9.798303	-1.345857	-0.783182	-0.665272	0.859433	0.128170	0.053829	-0.010126
80	0.455303	0.005000	1.612697	9.723805	-1.565743	-0.783292	-0.665382	0.860046	0.123340	0.051843	-0.011130
81	0.460303	0.005000	1.645080	9.693780	-1.530360	-0.783401	-0.665491	0.860658	0.123298	0.038999	-0.012274
82	0.465303	0.005000	1.569600	9.692724	-1.491564	-0.783511	-0.665601	0.861271	0.117566	0.048320	-0.015451
83	0.470303	0.005000	1.533222	9.840654	-1.379124	-0.783582	-0.665711	0.861580	0.121157	0.043340	-0.005772
84	0.475303	0.005000	1.559192	9.810000	-1.496324	-0.783582	-0.665820	0.861335	0.125978	0.028914	0.002777
85	0.480303	0.005000	1.569600	9.745937	-1.498328	-0.783582	-0.665930	0.861091	0.132820	0.027161	-0.008447
86	0.485303	0.005000	1.599340	9.741020	-1.489880	-0.783582	-0.666040	0.860846	0.139819	0.014062	-0.004664
87	0.490303	0.005000	1.636521	9.696842	-1.491120	-0.783582	-0.666149	0.860601	0.125947	0.013888	-0.000536
88	0.495303	0.005000	1.636462	9.745331	-1.440262	-0.783582	-0.666259	0.860356	0.129581	-0.002509	-0.005602
89	0.500303	0.005000	1.687320	9.692280	-1.491120	-0.783582	-0.666368	0.860111	0.119339	0.007135	-0.002944
90	0.505303	0.005000	1.729585	9.613800	-1.569600	-0.783582	-0.666478	0.859866	0.106150	0.004532	-0.001955
91	0.510303	0.005000	1.746831	9.613800	-1.454483	-0.783582	-0.666588	0.859621	0.092893	-0.001643	0.001429
92	0.515303	0.005000	1.771922	9.692280	-1.328038	-0.783582	-0.666697	0.859376	0.088578	-0.012578	-0.001555
93	0.520303	0.005000	1.648080	9.731520	-1.388016	-0.783582	-0.666807	0.859131	0.070309	-0.019362	0.001811
94	0.525303	0.005000	1.672484	9.707116	-1.466716	-0.783582	-0.666917	0.858886	0.039781	-0.010941	-0.007205
95	0.530303	0.005000	1.697455	9.683446	-1.451880	-0.783582	-0.667026	0.858641	0.031554	-0.019422	0.010016
96	0.535303	0.005000	1.640244	9.700131	-1.389102	-0.783582	-0.667136	0.858396	0.003170	-0.022565	0.013216
97	0.540303	0.005000	1.726560	9.782438	-1.451880	-0.783745	-0.667408	0.858606	-0.006883	-0.022730	0.019216
98	0.545303	0.005000	1.690825	9.728015	-1.444871	-0.783964	-0.667738	0.858973	-0.013452	-0.032408	0.021718
99	0.550303	0.005000	1.610383	9.733063	-1.408011	-0.784184	-0.668067	0.859341	-0.018405	-0.031725	0.020218
100	0.555303	0.005000	1.686463	9.809143	-1.218154	-0.784403	-0.668396	0.859708	-0.025059	-0.034828	0.023187
101	0.560303	0.005000	1.723338	9.770760	-1.209996	-0.784623	-0.668725	0.860076	-0.023089	-0.035082	0.028543
102	0.565303	0.005000	1.736971	9.883275	-1.137960	-0.784842	-0.669054	0.860443	-0.016285	-0.034800	0.020786
103	0.570303	0.005000	1.741627	9.810000	-1.145493	-0.785061	-0.669383	0.860811	-0.011018	-0.036721	0.023477
104	0.575303	0.005000	1.687320	9.780325	-1.206875	-0.785281	-0.669712	0.861179	-0.014551	-0.040773	0.030686
105	0.580303	0.005000	1.738389	9.743349	-1.255680	-0.785500	-0.670042	0.861546	-0.011263	-0.041826	0.022889
106	0.585303	0.005000	1.634163	9.708708	-1.191117	-0.785720	-0.670371	0.861914	-0.016341	-0.038454	0.022480
107	0.590303	0.005000	1.677571	9.698861	-1.209859	-0.785939	-0.670700	0.862281	-0.009635	-0.049229	0.028627
108	0.595303	0.005000	1.569600	9.770760	-1.177200	-0.786158	-0.671029	0.862649	-0.023005	-0.048756	0.024762
109	0.600303	0.005000	1.627396	9.772888	-1.274236	-0.786378	-0.671358	0.863016	-0.021293	-0.046214	0.020645
110	0.605303	0.005000	1.625253	9.731520	-1.301334	-0.786567	-0.671642	0.863265	-0.025288	-0.058024	0.027690
111	0.610303	0.005000	1.608840	9.759936	-1.280712	-0.786567	-0.671642	0.862776	-0.024145	-0.048524	0.028005
112	0.615303	0.005000	1.687320	9.704397	-1.267797	-0.786567	-0.671642	0.862286	-0.025173	-0.055747	0.029748
113	0.620303	0.005000	1.687320	9.721664	-1.177200	-0.786567	-0.671642	0.861796	-0.022417	-0.051728	0.018972
114	0.625303	0.005000	1.648080	9.785641	-1.194118	-0.786567	-0.671642	0.861306	-0.031045	-0.048820	0.015658
115	0.630303	0.005000	1.721129	9.815431	-1.121668	-0.786567	-0.671642	0.860816	-0.027622	-0.044182	0.017517
116	0.635303	0.005000	1.681137	9.810000	-0.974817	-0.786567	-0.671642	0.860326	-0.026496	-0.039292	0.008845
117	0.640303	0.005000	1.689589	9.774164	-0.946298	-0.786567	-0.671642	0.859836	-0.032551	-0.051117	0.019662
118	0.645303	0.005000	1.689860	9.888480	-1.098720	-0.786567	-0.671642	0.859346	-0.038825	-0.031485	0.007322
119	0.650303	0.005000	1.690994	9.770760	-0.981000	-0.786567	-0.671642	0.858856	-0.042783	-0.043212	0.018414
120	0.655303	0.005000	1.625697	9.798762	-1.025859	-0.786567	-0.671642	0.858366	-0.035265	-0.040735	0.011700
121	0.660303	0.005000	1.600805	9.778795	-1.020240	-0.786567	-0.671642	0.857876	-0.046834	-0.040383	0.008604
122	0.665303	0.005000	1.569600	9.858545	-0.962390	-0.786567	-0.671642	0.857386	-0.045769	-0.041257	0.009342
123	0.670303	0.005000	1.596454	9.783146	-0.850894	-0.786567	-0.671642	0.856896	-0.038773	-0.023583	0.001148
124	0.675303	0.005000	1.662410	9.756430	-0.824040	-0.786625	-0.671525	0.856602	-0.025272	-0.026467	0.007504
125	0.680303	0.005000	1.603068	9.849240	-0.863280	-0.786735	-0.671306	0.856479	-0.030017	-0.025496	0.005758
126	0.685303	0.005000	1.489679	9.830340	-0.899639	-0.786845	-0.671086	0.856357	-0.017240	-0.029226	-0.001326
127	0.690303	0.005000	1.527422	9.909569	-0.784800	-0.786955	-0.670867	0.856234	-0.005410	-0.022444	0.005761
128	0.695303	0.005000	1.664100	9.793980	-0.761580	-0.787064	-0.670647	0.856112	-0.019326	-0.016772	0.001030
129	0.700303	0.005000	1.542011	9.796206	-0.812389	-0.787174	-0.670428	0.855989	-0.012357	-0.016500	0.005033
130	0.705303	0.005000	1.542068	9.810000	-0.941760	-0.787284	-0.670209	0.855867	-0.002400	-0.008703	-0.001671
131	0.710303	0.005000	1.539803	9.819443	-0.981000	-0.787394	-0.669989	0.855744	-0.001541	-0.007940	0.003109
132	0.715303	0.005000	1.618431	9.888480	-0.880283	-0.787503	-0.669770	0.855621	0.000461	-0.006752	0.007564
133	0.720303	0.005000	1.451880	9.844157	-0.907603	-0.787613	-0.669550	0.855499	0.002066	-0.005369	0.003899
134	0.725303	0.005000	1.527259	9.816202	-1.056379	-0.787723	-0.669331	0.855376	0.013258	-0.007686	-0.003448
135	0.730303	0.005000	1.569600	9.849240	-1.058745	-0.787833	-0.669112	0.855254	-0.003726	0.009936	0.007935
136	0.735303	0.005000	1.569600	9.849240	-0.982664	-0.787942	-0.668892	0.855131	0.013869	0.005083	0.003204
137	0.740303	0.005000	1.384281	9.956079	-0.906147	-0.788052	-0.668673	0.855009	0.016360	0.002034	-0.000646
138	0.745303	0.005000	1.524400	9.855200	-1.041600	-0.787449	-0.668351	0.855000	0.019626	0.009028	-0.000305
139	0.750303	0.005000	1.577573	9.841267	-1.004293	-0.786791	-0.668022	0.855000	0.032302	0.010988	0.000360
140	0.755303	0.005000	1.616939	9.828479	-0.952140	-0.786132	-0.667693	0.855000	0.026538	0.013858	-0.002333
141	0.760303	0.005000	1.568299	9.822646	-0.993646	-0.785474	-0.667364	0.855000	0.037019	0.018893	0.004150
142	0.765303	0.005000	1.623578	9.780524	-0.990764	-0.784816	-0.667035	0.855000	0.026516	0.018095	-0.007081
143	0.770303	0.005000	1.469027	9.888480	-1.042333	-0.784157	-0.666706	0.855000	0.025869	0.020226	-0.006634
144	0.775303	0.005000	1.470972	9.810000	-1.059480	-0.783499	-0.666377	0.855000	0.036407	0.016511	-0.000018
145	0.780303	0.005000	1.569600	9.788498	-1.080982	-0.782841	-0.666047	0.855000	0.024002	0.029219	-0.002435
146	0.785303	0.005000	1.608840	9.825611	-1.059480	-0.782183	-0.665718	0.855000	0.040425	0.016067	-0.000421
147	0.790303	0.005000	1.622221	9.823381	-1.099623	-0.781524	-0.665389	0.855000	0.035016	0.023174	-0.013055
148	0.795303	0.005000	1.659380	9.888480	-1.036880	-0.780866	-0.665060	0.855000	0.031561	0.021489	-0.003206
149	0.800303	0.005000	1.726560	9.867299	-1.029269	-0.780208	-0.664731	0.855000	0.030813	0.015960	-0.001231
150	0.805303	0.005000	1.661308	9.842626	-1.033468	-0.779549	-0.664402	0.855000	0.032871	0.016655	-0.009981
151	0.810303	0.005000	1.634071	9.731520	-1.133290	-0.779637	-0.664428	0.855793	0.029611	0.009431	-0.009007
152	0.815303	0.005000	1.611105	9.731520	-1.137960	-0.781282	-0.665195	0.858243	0.023533	0.013587	-0.003468
153	0.820303	0.005000	1.687963	9.731198	-1.177522	-0.782928	-0.665963	0.860693	0.027399	0.003665	0.001014
154	0.825303	0.005000	1.691435	9.692280	-1.142075	-0.784574	-0.666731	0.863143	0.019329	0.011168	-0.008837
155	0.830303	0.005000	1.648080	9.727493	-1.181227	-0.786219	-0.667499	0.865593	0.026425	-0.002958	0.000113
156	0.835303	0.005000	1.713674	9.790671	-1.236351	-0.787865	-0.668267	0.868043	0.025499	-0.002361	0.012585
157	0.840303	0.005000	1.656467	9.801613	-1.264067	-0.789511	-0.669035	0.870493	0.033158	-0.005186	-0.007287
158	0.845303	0.005000	1.726560	9.788413	-1.187994	-0.791156	-0.669803	0.872943	0.039072	-0.003239	0.001631
159	0.850303	0.005000	1.674265	9.757705	-1.059480	-0.792802	-0.670571	0.875394	0.025710	-0.007012	-0.004089
160	0.855303	0.005000	1.593689	9.849240	-1.107658	-0.794448	-0.671339	0.877844	0.030572	-0.011823	-0.000346
161	0.860303	0.005000	1.726560	9.810000	-1.181318	-0.796093	-0.672107	0.880294	0.020641	-0.003777	-0.007716
162	0.865303	0.005000	1.785535	9.770760	-1.157465	-0.797739	-0.672875	0.882744	0.014461	-0.011776	-0.001225
163	0.870303	0.005000	1.709236	9.810000	-1.155284	-0.799385	-0.673643	0.885194	0.009388	-0.011388	0.003211
164	0.875303	0.005000	1.702701	9.849240	-1.264159	-0.801030	-0.674411	0.887644	-0.004519	-0.017571	-0.010936
165	0.880303	0.005000	1.648080	9.836272	-1.216103	-0.802282	-0.675021	0.888421	-0.003595	-0.029814	-0.009624
166	0.885303	0.005000	1.665537	9.781652	-1.308050	-0.803379	-0.675570	0.888544	-0.001179	-0.028372	-0.010296
167	0.890303	0.005000	1.687320	9.762140	-1.342780	-0.804476	-0.676118	0.888666	0.003754	-0.031312	-0.013902
168	0.895303	0.005000	1.641485	9.764165	-1.294920	-0.805573	-0.676667	0.888789	-0.003762	-0.025995	0.002078
169	0.900303	0.005000	1.578140	9.775030	-1.286380	-0.806670	-0.677216	0.888911	0.002862	-0.030888	-0.012887
170	0.905303	0.005000	1.571453	9.733373	-1.210882	-0.807767	-0.677764	0.889034	0.011938	-0.036785	0.002151
171	0.910303	0.005000	1.569692	9.849056	-1.098720	-0.808864	-0.678313	0.889156	0.000466	-0.036601	-0.014304
172	0.915303	0.005000	1.569600	9.851706	-1.098720	-0.809961	-0.678861	0.889279	-0.002325	-0.039226	-0.000704
173	0.920303	0.005000	1.613280	9.784080	-1.207560	-0.811058	-0.679410	0.889401	-0.003344	-0.039251	-0.005828
174	0.925303	0.005000	1.608840	9.881624	-1.177200	-0.812155	-0.679958	0.889524	-0.005667	-0.039706	-0.002851
175	0.930303	0.005000	1.687320	9.910120	-1.186000	-0.813252	-0.680507	0.889646	-0.016975	-0.041165	0.003665
176	0.935303	0.005000	1.726560	9.860447	-1.070687	-0.814349	-0.681055	0.889769	-0.020499	-0.037789	-0.005240
177	0.940303	0.005000	1.675006	9.888480	-1.189514	-0.815446	-0.681604	0.889891	-0.026650	-0.038238	0.007758
178	0.945303	0.005000	1.734671	9.825564	-1.122396	-0.816156	-0.681990	0.889777	-0.028999	-0.033599	-0.010330
179	0.950303	0.005000	1.648080	9.810000	-1.120201	-0.813854	-0.681113	0.887818	-0.013315	-0.034428	0.002414
180	0.955303	0.005000	1.589519	9.828724	-1.098720	-0.811552	-0.680236	0.885860	-0.022550	-0.030476	-0.001868
181	0.960303	0.005000	1.626025	9.849240	-1.088978	-0.809250	-0.679359	0.883902	-0.020231	-0.035082	-0.001218
182	0.965303	0.005000	1.593867	9.770760	-1.171520	-0.806948	-0.678482	0.881943	-0.027109	-0.036503	0.000678
183	0.970303	0.005000	1.582165	9.795890	-1.137960	-0.804647	-0.677605	0.879985	-0.029478	-0.025749	-0.010619
184	0.975303	0.005000	1.627083	9.927720	-1.059480	-0.802345	-0.676728	0.878026	-0.018801	-0.029271	-0.006074
185	0.980303	0.005000	1.577806	9.810000	-1.059480	-0.800043	-0.675852	0.876068	-0.025543	-0.022286	-0.011160
186	0.985303	0.005000	1.641893	9.737707	-0.966508	-0.797741	-0.674975	0.874110	-0.038761	-0.021997	-0.010313
187	0.990303	0.005000	1.640367	9.849240	-0.914090	-0.795439	-0.674098	0.872151	-0.031961	-0.019466	-0.010244
188	0.995303	0.005000	1.537924	9.808109	-1.022131	-0.793138	-0.673221	0.870193	-0.034261	-0.013424	-0.011366
189	1.000303	0.005000	1.532380	9.809495	-1.059480	-0.790836	-0.672344	0.868234	-0.034868	-0.027589	-0.004343
190	1.005303	0.005000	1.723686	9.807126	-1.092972	-0.788534	-0.671467	0.866276	-0.036766	-0.012337	-0.011058
191	1.010303	0.005000	1.697027	9.814853	-1.197027	-0.786232	-0.670590	0.864318	-0.041280	-0.027055	-0.002609
192	1.015303	0.005000	1.705004	9.802815	-1.091535	-0.784857	-0.669985	0.863028	-0.035719	-0.016235	-0.013749
193	1.020303	0.005000	1.717347	9.791574	-1.011027	-0.784418	-0.669656	0.862416	-0.037494	-0.013594	-0.017433
194	1.025303	0.005000	1.726560	9.810000	-1.047860	-0.783979	-0.669327	0.861803	-0.033399	-0.021395	-0.014808
195	1.030303	0.005000	1.661937	9.759233	-1.045623	-0.783540	-0.668998	0.861191	-0.041439	-0.011969	-0.018957
196	1.035303	0.005000	1.664049	9.794031	-1.012937	-0.783101	-0.668669	0.860578	-0.049728	-0.019921	-0.023249
197	1.040303	0.005000	1.648080	9.710448	-1.004977	-0.782662	-0.668340	0.859966	-0.048059	-0.010018	-0.018941
198	1.045303	0.005000	1.608840	9.810000	-0.941760	-0.782223	-0.668011	0.859353	-0.042943	-0.012082	-0.025124
199	1.050303	0.005000	1.631304	9.810000	-0.958536	-0.781785	-0.667682	0.858741	-0.040482	-0.014326	-0.017654
200	1.055303	0.005000	1.682880	9.903040	-0.921520	-0.781346	-0.667353	0.858128	-0.034282	-0.002027	-0.024887
201	1.060303	0.005000	1.557448	9.994048	-1.035177	-0.780907	-0.667024	0.857516	-0.037794	0.000785	-0.003512
202	1.065303	0.005000	1.569600	9.917512	-0.805216	-0.780468	-0.666695	0.856903	-0.036462	0.007151	-0.015690
203	1.070303	0.005000	1.616633	9.927720	-0.824040	-0.780029	-0.666366	0.856291	-0.033679	-0.001563	-0.011858
204	1.075303	0.005000	1.636383	9.955263	-0.829888	-0.779590	-0.666036	0.855678	-0.035972	0.000291	-0.008219
205	1.080303	0.005000	1.683877	9.920833	-0.863280	-0.779151	-0.665707	0.855066	-0.030887	0.001509	-0.010507
206	1.085303	0.005000	1.608840	9.889980	-0.861780	-0.779300	-0.665672	0.855000	-0.037982	0.001808	-0.009917
207	1.090303	0.005000	1.685505	9.966052	-0.862372	-0.779519	-0.665672	0.855000	-0.039798	0.009788	-0.006747
208	1.095303	0.005000	1.648080	9.854964	-0.824040	-0.779739	-0.665672	0.855000	-0.035268	0.006348	-0.001975
209	1.100303	0.005000	1.540768	9.917312	-0.946964	-0.779958	-0.665672	0.855000	-0.030357	0.006178	0.000000
210	1.105303	0.005000	1.473505	9.895688	-1.045063	-0.780177	-0.665672	0.855000	-0.025024	0.002749	0.000664
211	1.110303	0.005000	1.500620	9.878980	-0.921520	-0.780397	-0.665672	0.855000	-0.026083	-0.004392	0.005661
212	1.115303	0.005000	1.569600	9.932282	-0.992559	-0.780616	-0.665672	0.855000	-0.027572	0.001307	0.000590
213	1.120303	0.005000	1.558305	9.994905	-0.930465	-0.780835	-0.665672	0.855000	-0.021569	-0.002934	0.011715
214	1.125303	0.005000	1.546546	9.950774	-0.997186	-0.781055	-0.665672	0.855000	-0.018337	0.002223	-0.006893
215	1.130303	0.005000	1.569600	9.885893	-0.884194	-0.781274	-0.665672	0.855000	-0.015838	-0.003779	-0.003482
216	1.135303	0.005000	1.508108	9.927720	-0.783045	-0.781494	-0.665672	0.855000	-0.009619	-0.010032	0.006864
217	1.140303	0.005000	1.546919	9.855362	-0.974878	-0.781713	-0.665672	0.855000	-0.012730	-0.004913	-0.002583
218	1.145303	0.005000	1.497368	9.795554	-1.030587	-0.781932	-0.665672	0.855000	-0.005134	-0.017037	0.001652
219	1.150303	0.005000	1.464082	9.885847	-0.995836	-0.782183	-0.665641	0.855035	-0.010310	-0.014195	0.002450
220	1.155303	0.005000	1.569600	9.810000	-1.039891	-0.782512	-0.665531	0.855157	0.003972	-0.019736	0.015813
221	1.160303	0.005000	1.553898	9.810000	-0.941760	-0.782841	-0.665422	0.855280	-0.000854	-0.017635	0.003426
222	1.165303	0.005000	1.541230	9.849240	-0.952630	-0.783170	-0.665312	0.855402	0.010447	-0.019290	-0.001207
223	1.170303	0.005000	1.526896	9.852704	-1.020240	-0.783499	-0.665202	0.855525	0.007918	-0.019419	0.005415
224	1.175303	0.005000	1.492207	9.849240	-0.942847	-0.783828	-0.665092	0.855647	0.009073	-0.017404	-0.004327
225	1.180303	0.005000	1.568743	9.849240	-1.019383	-0.784157	-0.664983	0.855770	0.000735	-0.025655	0.001346
226	1.185303	0.005000	1.641558	9.885219	-0.981000	-0.784486	-0.664873	0.855892	0.015355	-0.017067	0.004252
227	1.190303	0.005000	1.485508	9.849240	-0.947372	-0.784815	-0.664763	0.856015	0.024655	-0.024952	-0.002070
228	1.195303	0.005000	1.554357	9.778381	-1.067101	-0.785144	-0.664653	0.856137	0.014995	-0.018443	-0.000028
229	1.200303	0.005000	1.540268	9.907903	-1.020240	-0.785473	-0.664544	0.856260	0.013602	-0.010425	-0.008677
230	1.205303	0.005000	1.530360	9.966960	-0.847985	-0.785802	-0.664434	0.856382	0.016071	-0.014661	0.005448
231	1.210303	0.005000	1.658548	9.902866	-0.863280	-0.786132	-0.664324	0.856505	0.015618	-0.009971	0.004374
232	1.215303	0.005000	1.631750	9.872150	-0.918850	-0.786461	-0.664214	0.856627	0.021573	-0.013439	0.005252
233	1.220303	0.005000	1.627580	9.849240	-0.883780	-0.786122	-0.664253	0.856584	0.018793	-0.010178	-0.003198
234	1.225303	0.005000	1.648080	9.870146	-0.899948	-0.785463	-0.664363	0.856462	0.026518	-0.007565	-0.002260
235	1.230303	0.005000	1.569600	9.826146	-0.932562	-0.784805	-0.664473	0.856339	0.026213	-0.013350	0.001504
236	1.235303	0.005000	1.583638	9.899644	-0.955798	-0.784147	-0.664582	0.856216	0.027750	-0.008161	-0.003098
237	1.240303	0.005000	1.675520	9.876680	-0.953560	-0.783489	-0.664692	0.856094	0.032066	-0.012584	-0.003545
238	1.245303	0.005000	1.666850	9.888480	-0.941760	-0.782830	-0.664802	0.855971	0.018614	0.009198	-0.003674
239	1.250303	0.005000	1.616281	9.920279	-0.973559	-0.782172	-0.664912	0.855849	0.020135	-0.000829	0.007893
240	1.255303	0.005000	1.638010	9.854275	-0.970930	-0.781514	-0.665021	0.855726	0.023751	0.002632	-0.002545
241	1.260303	0.005000	1.608840	9.852296	-0.827096	-0.780856	-0.665131	0.855604	0.027895	-0.003100	0.001933
242	1.265303	0.005000	1.570274	9.808653	-0.941760	-0.780198	-0.665241	0.855481	0.030832	-0.005641	0.001722
243	1.270303	0.005000	1.608840	9.769490	-0.941760	-0.779539	-0.665351	0.855359	0.029140	0.002895	0.007863
244	1.275303	0.005000	1.648080	9.849240	-1.048457	-0.778881	-0.665460	0.855236	0.031053	0.003316	-0.000044
245	1.280303	0.005000	1.530360	9.888480	-0.947781	-0.778223	-0.665570	0.855114	0.028523	0.006734	0.001858
246	1.285303	0.005000	1.656115	9.950891	-1.051445	-0.777683	-0.665648	0.855018	0.043650	0.001319	-0.002935
247	1.290303	0.005000	1.619282	9.927720	-1.020240	-0.778670	-0.665319	0.855263	0.039322	-0.000427	0.006082
248	1.295303	0.005000	1.621226	9.861626	-1.032626	-0.779658	-0.664990	0.855508	0.042368	0.010215	0.007849
249	1.300303	0.005000	1.613998	9.898122	-1.074279	-0.780645	-0.664661	0.855753	0.049843	0.000861	-0.001224
250	1.305303	0.005000	1.513357	9.810000	-1.020240	-0.781633	-0.664332	0.855998	0.040351	0.010502	0.002215
251	1.310303	0.005000	1.569600	9.789906	-0.960906	-0.782620	-0.664003	0.856243	0.033552	-0.001890	0.002588
252	1.315303	0.005000	1.587541	9.792059	-1.034823	-0.783607	-0.663673	0.856488	0.035489	0.009296	0.006705
253	1.320303	0.005000	1.608840	9.864979	-0.988977	-0.784595	-0.663344	0.856733	0.041012	0.009897	-0.002228
254	1.325303	0.005000	1.673990	9.875150	-1.137960	-0.785582	-0.663015	0.856978	0.045973	-0.004204	0.003083
255	1.330303	0.005000	1.631349	9.798745	-1.137960	-0.786570	-0.662686	0.857223	0.042537	0.001277	0.004112
256	1.335303	0.005000	1.690673	9.906424	-1.089748	-0.787557	-0.662357	0.857468	0.038575	0.001554	0.007753
257	1.340303	0.005000	1.562657	9.895423	-1.059480	-0.788544	-0.662028	0.857713	0.042035	0.008907	0.003921
258	1.345303	0.005000	1.613462	9.883858	-1.094098	-0.789532	-0.661698	0.857958	0.046862	0.003516	0.005603
259	1.350303	0.005000	1.606635	9.764146	-1.063889	-0.790519	-0.661369	0.858203	0.036471	-0.001301	0.008167
260	1.355303	0.005000	1.609097	9.809743	-1.059480	-0.790635	-0.661297	0.858276	0.030626	0.007726	0.007275
261	1.360303	0.005000	1.648080	9.770760	-1.096577	-0.789757	-0.661516	0.858153	0.043128	-0.002872	0.008125
262	1.365303	0.005000	1.643992	9.778936	-1.094632	-0.788879	-0.661735	0.858031	0.028824	-0.003367	-0.002254
263	1.370303	0.005000	1.621849	9.738024	-1.013736	-0.788002	-0.661955	0.857908	0.012748	-0.005034	0.001595
264	1.375303	0.005000	1.587208	9.731520	-1.077088	-0.787124	-0.662174	0.857786	0.029961	-0.006872	0.004352
265	1.380303	0.005000	1.637229	9.749059	-1.077019	-0.786246	-0.662394	0.857663	0.034132	-0.005841	0.010767
266	1.385303	0.005000	1.596117	9.784019	-1.033499	-0.785369	-0.662613	0.857541	0.030496	-0.010240	0.016287
267	1.390303	0.005000	1.578434	9.858074	-1.098720	-0.784491	-0.662832	0.857419	0.028750	-0.003408	0.001551
268	1.395303	0.005000	1.569600	9.753145	-1.106739	-0.783613	-0.663052	0.857296	0.037492	-0.008164	0.002643
269	1.400303	0.005000	1.589054	9.810000	-1.118174	-0.782735	-0.663271	0.857174	0.028971	-0.007494	-0.000382
270	1.405303	0.005000	1.608840	9.792730	-1.155230	-0.781858	-0.663491	0.857051	0.026937	-0.009934	0.006215
271	1.410303	0.005000	1.623700	9.839721	-1.093379	-0.780980	-0.663710	0.856929	0.021161	-0.007609	0.007138
272	1.415303	0.005000	1.596073	9.862007	-1.098720	-0.780102	-0.663929	0.856806	0.017321	-0.005801	0.001002
273	1.420303	0.005000	1.551366	9.859743	-1.098720	-0.779225	-0.664149	0.856684	0.017204	-0.015280	0.010224
274	1.425303	0.005000	1.608840	9.801904	-1.098720	-0.779199	-0.664179	0.856773	0.000991	-0.007847	0.000198
275	1.430303	0.005000	1.687320	9.737672	-1.092568	-0.779308	-0.664179	0.856895	0.008331	-0.013406	0.007654
276	1.435303	0.005000	1.687320	9.810000	-1.059480	-0.779418	-0.664179	0.857018	0.017621	-0.006355	-0.002103
277	1.440303	0.005000	1.648080	9.847470	-1.063020	-0.779528	-0.664179	0.857140	0.016911	-0.003939	0.002875
278	1.445303	0.005000	1.686708	9.810000	-1.099332	-0.779638	-0.664179	0.857263	0.007198	-0.009499	0.012278
279	1.450303	0.005000	1.651060	9.810000	-1.023220	-0.779748	-0.664179	0.857385	0.002677	-0.006023	-0.004295
280	1.455303	0.005000	1.643120	9.814960	-1.083839	-0.779857	-0.664179	0.857508	0.003281	-0.017794	-0.002971
281	1.460303	0.005000	1.665190	9.770760	-1.012863	-0.779967	-0.664179	0.857630	0.007445	-0.009138	0.006045
282	1.465303	0.005000	1.539680	9.780080	-1.038881	-0.780077	-0.664179	0.857753	0.008610	-0.010992	0.002746
283	1.470303	0.005000	1.614288	9.720256	-1.031504	-0.780187	-0.664179	0.857875	0.005753	-0.011937	0.010875
284	1.475303	0.005000	1.608840	9.808714	-1.098720	-0.780297	-0.664179	0.857998	0.001666	-0.006858	0.002416
285	1.480303	0.005000	1.608840	9.810000	-1.043864	-0.780406	-0.664179	0.858120	0.014250	-0.011494	0.009065
286	1.485303	0.005000	1.648080	9.849240	-1.017057	-0.780516	-0.664179	0.858243	0.003181	-0.006029	-0.001779
287	1.490303	0.005000	1.627885	9.927720	-0.883475	-0.780655	-0.664208	0.858301	0.014946	-0.010942	0.004431
288	1.495303	0.005000	1.597510	9.854767	-1.031570	-0.780874	-0.664318	0.858178	-0.000370	-0.015032	0.013939
289	1.500303	0.005000	1.598494	9.785207	-1.113167	-0.781094	-0.664427	0.858056	0.006156	-0.007693	-0.001461
290	1.505303	0.005000	1.633847	9.770760	-1.086216	-0.781313	-0.664537	0.857933	0.003132	-0.013394	0.010124
291	1.510303	0.005000	1.648080	9.810000	-1.000061	-0.781532	-0.664647	0.857811	0.001876	-0.004689	0.004956
292	1.515303	0.005000	1.585695	9.770760	-1.051432	-0.781751	-0.664756	0.857689	0.007985	-0.021820	0.004389
293	1.520303	0.005000	1.614581	9.849240	-0.941760	-0.781971	-0.664866	0.857566	-0.004379	-0.011939	0.007807
294	1.525303	0.005000	1.608840	9.852576	-1.095384	-0.782190	-0.664976	0.857444	-0.002283	-0.012288	0.000744
295	1.530303	0.005000	1.608840	9.812785	-1.016062	-0.782409	-0.665085	0.857321	-0.001661	-0.009086	-0.001714
296	1.535303	0.005000	1.608840	9.888480	-0.940746	-0.782629	-0.665195	0.857199	-0.000669	-0.003895	0.002866
297	1.540303	0.005000	1.611809	9.885511	-0.978031	-0.782848	-0.665305	0.857077	0.006040	-0.013931	0.010521
298	1.545303	0.005000	1.580348	9.849240	-1.020240	-0.783067	-0.665415	0.856954	-0.000588	-0.006914	0.002938
299	1.550303	0.005000	1.640762	9.863877	-1.179849	-0.783287	-0.665524	0.856832	0.009757	-0.013790	0.002401
300	1.555303	0.005000	1.706787	9.898520	-1.079253	-0.783506	-0.665634	0.856709	0.005791	-0.005058	0.003327
301	1.560303	0.005000	1.539104	9.915724	-1.192448	-0.783510	-0.665815	0.856587	0.008239	-0.000318	0.006897
302	1.565303	0.005000	1.516275	9.852256	-1.034325	-0.783401	-0.666035	0.856464	0.014178	-0.005063	0.003105
303	1.570303	0.005000	1.514053	9.862491	-1.043173	-0.783291	-0.666254	0.856342	0.009728	-0.008842	0.001531
304	1.575303	0.005000	1.627282	9.867682	-0.941760	-0.783181	-0.666474	0.856219	0.011309	-0.005677	0.007184
305	1.580303	0.005000	1.668932	9.770760	-0.981000	-0.783072	-0.666693	0.856097	0.009872	-0.007714	0.009902
306	1.585303	0.005000	1.625283	9.754317	-0.997443	-0.782962	-0.666912	0.855974	0.003657	-0.014012	0.004248
307	1.590303	0.005000	1.527482	9.824039	-1.020240	-0.782852	-0.667132	0.855852	0.017104	-0.005875	0.000947
308	1.595303	0.005000	1.538922	9.821951	-0.953711	-0.782743	-0.667351	0.855729	0.013671	-0.003800	-0.007037
309	1.600303	0.005000	1.618528	9.810000	-0.951448	-0.782633	-0.667571	0.855607	0.025718	-0.007646	0.001715
310	1.605303	0.005000	1.655734	9.770760	-0.996309	-0.782523	-0.667790	0.855484	0.012844	-0.001147	0.006787
311	1.610303	0.005000	1.592856	9.815328	-0.947088	-0.782414	-0.668009	0.855362	0.022847	-0.003921	0.002699
312	1.615303	0.005000	1.484434	9.810000	-0.981000	-0.782304	-0.668229	0.855239	0.024228	-0.004755	-0.006605
313	1.620303	0.005000	1.493079	9.771739	-1.022199	-0.782194	-0.668448	0.855117	0.021258	-0.004528	-0.000596
314	1.625303	0.005000	1.531782	9.810000	-1.023084	-0.782148	-0.668668	0.855107	0.018232	-0.004622	0.013641
315	1.630303	0.005000	1.562836	9.845858	-0.912667	-0.783355	-0.668887	0.857312	0.019121	-0.002994	-0.001649
316	1.635303	0.005000	1.569600	9.782196	-0.941760	-0.784562	-0.669106	0.859517	0.033334	-0.009785	-0.001409
317	1.640303	0.005000	1.616572	9.943765	-0.997045	-0.785769	-0.669326	0.861722	0.016251	-0.004002	-0.006077
318	1.645303	0.005000	1.569600	9.898509	-1.010211	-0.786975	-0.669545	0.863927	0.019308	0.003228	0.005357
319	1.650303	0.005000	1.581690	9.782850	-0.978031	-0.788182	-0.669765	0.866132	0.019971	-0.004282	0.006226
320	1.655303	0.005000	1.569600	9.849240	-1.020240	-0.789389	-0.669984	0.868337	0.028050	-0.007090	-0.002353
321	1.660303	0.005000	1.670883	9.842873	-1.088650	-0.790595	-0.670203	0.870542	0.026125	-0.007247	0.006469
322	1.665303	0.005000	1.607294	9.849240	-1.039087	-0.791802	-0.670423	0.872748	0.019045	0.004023	0.004010
323	1.670303	0.005000	1.509569	9.791551	-0.983342	-0.793009	-0.670642	0.874953	0.017715	-0.005647	0.001566
324	1.675303	0.005000	1.569600	9.770760	-1.052318	-0.794215	-0.670862	0.877158	0.019431	-0.001133	-0.001783
325	1.680303	0.005000	1.611886	9.731520	-1.137960	-0.795422	-0.671081	0.879363	0.015796	-0.001780	-0.003017
326	1.685303	0.005000	1.691515	9.810000	-1.110402	-0.796629	-0.671301	0.881568	0.024623	-0.011891	0.000050
327	1.690303	0.005000	1.618461	9.741141	-1.069857	-0.797836	-0.671520	0.883773	0.028906	-0.007786	-0.005798
328	1.695303	0.005000	1.626088	9.856571	-1.059480	-0.797874	-0.671447	0.884130	0.021449	-0.002308	-0.000560
329	1.700303	0.005000	1.574925	9.804675	-1.064805	-0.796448	-0.671009	0.882170	0.009430	-0.005153	-0.006140
330	1.705303	0.005000	1.608840	9.810000	-1.177200	-0.795022	-0.670570	0.880210	0.020034	-0.008091	0.000413
331	1.710303	0.005000	1.649213	9.849240	-1.136827	-0.793596	-0.670131	0.878250	0.012704	-0.006506	0.002332
332	1.715303	0.005000	1.688698	9.811378	-1.021618	-0.792169	-0.669692	0.876290	0.011387	-0.008712	-0.003807
333	1.720303	0.005000	1.655583	9.852992	-1.063232	-0.790743	-0.669253	0.874330	0.023194	-0.014293	0.011002
334	1.725303	0.005000	1.726560	9.882754	-1.092994	-0.789317	-0.668814	0.872370	0.004758	-0.009740	0.005658
335	1.730303	0.005000	1.726560	9.826284	-1.028382	-0.787891	-0.668376	0.870409	0.013491	-0.014745	0.000583
336	1.735303	0.005000	1.705715	9.781183	-1.001845	-0.786465	-0.667937	0.868449	0.009026	-0.004481	0.003203
337	1.740303	0.005000	1.699813	9.824254	-0.981000	-0.785038	-0.667498	0.866489	0.004654	-0.018052	-0.005257
338	1.745303	0.005000	1.672586	9.780532	-1.015278	-0.783612	-0.667059	0.864529	0.008023	-0.010630	0.002399
339	1.750303	0.005000	1.676010	9.770760	-1.081870	-0.782186	-0.666620	0.862569	0.006840	-0.008143	-0.007330
340	1.755303	0.005000	1.688040	9.752219	-1.000260	-0.780760	-0.666181	0.860609	0.017734	-0.018543	-0.001149
341	1.760303	0.005000	1.626875	9.788795	-1.080685	-0.779334	-0.665743	0.858649	0.010210	-0.013526	-0.007125
342	1.765303	0.005000	1.569600	9.817637	-0.965374	-0.779196	-0.665672	0.858641	0.002138	-0.015501	0.008307
343	1.770303	0.005000	1.583124	9.888480	-0.967476	-0.779306	-0.665672	0.859009	0.001941	-0.012856	0.003051
344	1.775303	0.005000	1.620108	9.854675	-0.992268	-0.779416	-0.665672	0.859376	0.004152	-0.013108	-0.000294
345	1.780303	0.005000	1.638868	9.858452	-1.061870	-0.779525	-0.665672	0.859744	0.013975	-0.015652	0.004825
346	1.785303	0.005000	1.576518	9.941555	-0.930190	-0.779635	-0.665672	0.860111	0.009426	-0.009618	0.002543
347	1.790303	0.005000	1.682404	9.917887	-1.030073	-0.779745	-0.665672	0.860479	0.010708	-0.009839	-0.006970
348	1.795303	0.005000	1.648080	9.851811	-1.137960	-0.779855	-0.665672	0.860846	0.008627	-0.015143	0.003068
349	1.800303	0.005000	1.687320	9.888786	-1.137960	-0.779964	-0.665672	0.861214	0.006333	-0.018659	0.003099
350	1.805303	0.005000	1.724769	9.892061	-1.100511	-0.780074	-0.665672	0.861581	0.006734	-0.013691	0.004528
351	1.810303	0.005000	1.608840	9.888480	-1.028530	-0.780184	-0.665672	0.861949	-0.010494	-0.011658	0.005911
352	1.815303	0.005000	1.687320	9.882341	-1.014101	-0.780293	-0.665672	0.862317	0.003932	-0.015121	0.007810
353	1.820303	0.005000	1.625752	9.818456	-1.073352	-0.780403	-0.665672	0.862684	-0.004918	-0.012325	0.010034
354	1.825303	0.005000	1.658579	9.849240	-0.991499	-0.780513	-0.665672	0.863052	0.004500	-0.013669	-0.001215
355	1.830303	0.005000	1.700747	9.862146	-0.902520	-0.780623	-0.665646	0.863304	0.012113	-0.025220	0.009152
356	1.835303	0.005000	1.672178	9.903622	-1.059480	-0.780732	-0.665537	0.863182	0.011584	-0.021815	-0.002648
357	1.840303	0.005000	1.626103	9.871217	-0.971573	-0.780842	-0.665427	0.863060	0.010798	-0.020661	-0.000493
358	1.845303	0.005000	1.589402	9.908282	-0.902520	-0.780952	-0.665317	0.862937	0.014461	-0.008328	-0.005016
359	1.850303	0.005000	1.551978	9.849240	-0.902520	-0.781061	-0.665208	0.862815	0.006122	-0.015568	-0.003962
360	1.855303	0.005000	1.575997	9.849240	-0.869677	-0.781171	-0.665098	0.862692	0.018617	-0.010466	0.001138
361	1.860303	0.005000	1.608840	9.849240	-0.981000	-0.781281	-0.664988	0.862570	0.021226	-0.010338	0.007296
362	1.865303	0.005000	1.626370	9.888480	-1.048625	-0.781391	-0.664878	0.862448	0.014422	-0.018204	0.001361
363	1.870303	0.005000	1.530360	9.810000	-0.998845	-0.781500	-0.664769	0.862325	0.009571	-0.013813	-0.003542
364	1.875303	0.005000	1.569600	9.770760	-1.092213	-0.781610	-0.664659	0.862203	0.008404	-0.015067	0.003096
365	1.880303	0.005000	1.565038	9.858365	-1.029365	-0.781720	-0.664549	0.862080	0.004745	-0.010276	0.013560
366	1.885303	0.005000	1.610998	9.849240	-1.022398	-0.781829	-0.664440	0.861958	0.014902	-0.002074	0.004926
367	1.890303	0.005000	1.569814	9.849454	-0.981429	-0.781939	-0.664330	0.861835	0.021201	-0.011986	0.005929
368	1.895303	0.005000	1.720025	9.814357	-1.096542	-0.782049	-0.664220	0.861713	0.020590	-0.006456	-0.000905
369	1.900303	0.005000	1.639785	9.845093	-1.102867	-0.781953	-0.664384	0.861743	0.024259	-0.015326	0.007754
370	1.905303	0.005000	1.615314	9.836291	-1.197017	-0.781734	-0.664713	0.861866	0.017680	-0.005794	0.009455
371	1.910303	0.005000	1.639583	9.857737	-1.124211	-0.781514	-0.665042	0.861988	0.012803	-0.010018	0.002577
372	1.915303	0.005000	1.587269	9.827669	-0.884851	-0.781295	-0.665372	0.862111	0.017466	-0.002401	0.011156
373	1.920303	0.005000	1.621696	9.849240	-0.954616	-0.781075	-0.665701	0.862233	0.019042	-0.008649	-0.001181
374	1.925303	0.005000	1.663344	9.794736	-0.957024	-0.780856	-0.666030	0.862356	0.010950	-0.012255	0.012672
375	1.930303	0.005000	1.626049	9.849240	-1.007854	-0.780636	-0.666359	0.862478	0.020488	-0.008304	-0.000741
376	1.935303	0.005000	1.687335	9.888480	-0.961372	-0.780417	-0.666688	0.862601	0.017739	-0.016396	0.002864
377	1.940303	0.005000	1.634904	9.796824	-1.002768	-0.780197	-0.667017	0.862723	0.020708	-0.008023	0.001161
378	1.945303	0.005000	1.584874	9.840547	-1.098720	-0.779978	-0.667347	0.862845	0.016672	-0.007077	-0.000017
379	1.950303	0.005000	1.608840	9.901999	-1.086518	-0.779758	-0.667676	0.862968	0.011434	-0.004800	0.006445
380	1.955303	0.005000	1.637164	9.820916	-1.031156	-0.779539	-0.668005	0.863090	0.022861	-0.000084	0.001393
381	1.960303	0.005000	1.709542	9.832222	-0.902520	-0.779319	-0.668334	0.863213	0.020410	-0.007995	-0.004090
382	1.965303	0.005000	1.654570	9.783739	-1.039709	-0.779100	-0.668651	0.863326	0.021835	-0.008823	-0.005233
383	1.970303	0.005000	1.648080	9.766611	-1.094571	-0.778881	-0.668322	0.862959	0.027650	-0.007744	0.010659
384	1.975303	0.005000	1.643723	9.772938	-1.094363	-0.778661	-0.667993	0.862591	0.014127	-0.015553	0.007667
385	1.980303	0.005000	1.491518	9.810000	-1.176404	-0.778442	-0.667663	0.862224	0.000831	0.002034	-0.006373
386	1.985303	0.005000	1.645493	9.849240	-0.983587	-0.778222	-0.667334	0.861856	-0.000418	-0.007266	0.008600
387	1.990303	0.005000	1.643519	9.775321	-1.094159	-0.778003	-0.667005	0.861489	-0.007439	-0.009487	0.010959
388	1.995303	0.005000	1.615806	9.849240	-1.170234	-0.777783	-0.666676	0.861121	-0.006734	-0.019707	0.011011
389	2.000303	0.005000	1.618113	9.849240	-1.018092	-0.777564	-0.666347	0.860754	0.010079	-0.011441	0.004943
390	2.005303	0.005000	1.620154	9.821314	-1.031554	-0.777345	-0.666018	0.860386	0.020010	-0.015222	0.005586
391	2.010303	0.005000	1.608840	9.835671	-1.177200	-0.777125	-0.665689	0.860019	0.031069	-0.014704	0.009099
392	2.015303	0.005000	1.632408	9.888480	-0.941638	-0.776906	-0.665359	0.859651	0.030845	-0.016321	-0.004149
393	2.020303	0.005000	1.509201	9.810000	-0.981000	-0.776686	-0.665030	0.859283	0.040004	-0.018877	-0.003058
394	2.025303	0.005000	1.549345	9.868225	-0.922775	-0.776467	-0.664701	0.858916	0.041998	-0.013019	0.002634
395	2.030303	0.005000	1.552796	9.961328	-0.902520	-0.776248	-0.664372	0.858548	0.026879	-0.022954	0.009266
396	2.035303	0.005000	1.594151	9.883654	-1.049617	-0.776210	-0.664315	0.858586	0.013874	-0.013046	0.009630
397	2.040303	0.005000	1.544706	9.797553	-1.018342	-0.776429	-0.664644	0.859199	0.018247	-0.011678	0.001293
398	2.045303	0.005000	1.501160	9.799960	-1.158039	-0.776648	-0.664973	0.859811	0.010772	-0.009069	0.008453
399	2.050303	0.005000	1.577602	9.770760	-1.059480	-0.776868	-0.665302	0.860423	0.006227	-0.008322	0.001882
400	2.055303	0.005000	1.636720	9.731520	-0.981000	-0.777087	-0.665631	0.861036	0.008442	-0.015354	0.005100
401	2.060303	0.005000	1.500945	9.806725	-1.020240	-0.777306	-0.665960	0.861648	0.013394	-0.003663	0.009893
402	2.065303	0.005000	1.530360	9.846577	-1.060811	-0.777526	-0.666289	0.862260	0.024405	-0.006001	0.007916
403	2.070303	0.005000	1.530360	9.808926	-1.060554	-0.777745	-0.666618	0.862873	0.022216	-0.007810	0.003123
404	2.075303	0.005000	1.639032	9.770760	-0.987032	-0.777964	-0.666947	0.863485	0.024745	-0.003479	-0.001507
405	2.080303	0.005000	1.580466	9.820866	-1.054047	-0.778184	-0.667276	0.864097	0.025302	-0.009710	-0.003424
406	2.085303	0.005000	1.601095	9.731520	-0.949505	-0.778403	-0.667605	0.864709	0.017483	-0.001484	0.004207
407	2.090303	0.005000	1.589166	9.839457	-1.059587	-0.778622	-0.667934	0.865322	0.021843	-0.007499	0.008901
408	2.095303	0.005000	1.596784	9.822056	-1.113847	-0.778841	-0.668263	0.865934	0.020825	-0.001652	0.006064
409	2.100303	0.005000	1.676362	9.795859	-0.970042	-0.779061	-0.668592	0.866546	0.014239	0.011343	-0.002519
410	2.105303	0.005000	1.592487	9.770760	-1.010422	-0.779192	-0.668481	0.865683	0.018360	-0.001373	0.001769
411	2.110303	0.005000	1.710316	9.810000	-1.080225	-0.779302	-0.668261	0.864458	0.010692	0.001877	-0.005225
412	2.115303	0.005000	1.689408	9.849240	-0.999576	-0.779412	-0.668042	0.863233	0.015348	-0.003436	0.010041
413	2.120303	0.005000	1.625231	9.894938	-0.964609	-0.779521	-0.667823	0.862008	0.014189	0.000984	0.010092
414	2.125303	0.005000	1.569600	9.874502	-1.034218	-0.779631	-0.667603	0.860783	0.019706	-0.003512	-0.003261
415	2.130303	0.005000	1.620874	9.903652	-1.005068	-0.779741	-0.667384	0.859558	0.017235	-0.004590	-0.002703
416	2.135303	0.005000	1.687320	9.829987	-0.951386	-0.779851	-0.667164	0.858333	0.011909	-0.002096	-0.000390
417	2.140303	0.005000	1.679637	9.778443	-1.051797	-0.779960	-0.666945	0.857108	0.016834	-0.008715	0.001655
418	2.145303	0.005000	1.569600	9.770760	-1.064760	-0.780070	-0.666726	0.855883	0.015491	-0.005911	-0.007250
419	2.150303	0.005000	1.690618	9.774058	-1.131365	-0.780180	-0.666506	0.854658	0.020238	-0.013565	0.006020
420	2.155303	0.005000	1.686401	9.771679	-1.020240	-0.780290	-0.666287	0.853432	0.017162	-0.011256	0.000445
421	2.160303	0.005000	1.648080	9.734455	-1.058013	-0.780399	-0.666067	0.852207	0.018016	-0.002396	-0.002292
422	2.165303	0.005000	1.569600	9.731520	-1.056051	-0.780509	-0.665848	0.850982	0.017168	-0.017714	0.000369
423	2.170303	0.005000	1.648080	9.831904	-1.092941	-0.780597	-0.665759	0.850097	0.029471	-0.006546	-0.000933
424	2.175303	0.005000	1.710980	9.810000	-1.035820	-0.780597	-0.666198	0.850587	0.034049	-0.014400	0.002791
425	2.180303	0.005000	1.687320	9.888480	-1.001149	-0.780597	-0.666636	0.851077	0.018889	-0.011695	-0.006782
426	2.185303	0.005000	1.753659	9.927720	-1.101537	-0.780597	-0.667075	0.851567	0.013010	-0.010802	-0.010811
427	2.190303	0.005000	1.623394	9.878349	-1.177200	-0.780597	-0.667513	0.852056	0.024006	-0.009623	0.001684
428	2.195303	0.005000	1.670559	9.810000	-1.098720	-0.780597	-0.667952	0.852546	-0.003165	-0.011807	-0.004722
429	2.200303	0.005000	1.608840	9.750428	-1.100144	-0.780597	-0.668391	0.853036	-0.000587	-0.016162	0.009811
430	2.205303	0.005000	1.590672	9.728616	-1.159032	-0.780597	-0.668829	0.853526	-0.002368	-0.015038	0.002550
431	2.210303	0.005000	1.569600	9.738805	-1.231010	-0.780597	-0.669268	0.854016	-0.005257	-0.016079	0.008301
432	2.215303	0.005000	1.569600	9.782870	-1.189310	-0.780597	-0.669707	0.854506	-0.002419	-0.007869	0.012074
433	2.220303	0.005000	1.597209	9.759129	-1.137960	-0.780597	-0.670145	0.854995	-0.002864	-0.010463	0.003628
434	2.225303	0.005000	1.599623	9.810000	-1.198007	-0.780597	-0.670584	0.855485	0.000740	-0.022592	0.002953
435	2.230303	0.005000	1.498305	9.802815	-1.098720	-0.780597	-0.671022	0.855975	0.003302	-0.019548	-0.005239
436	2.235303	0.005000	1.535227	9.834640	-1.172333	-0.780597	-0.671461	0.856465	0.012530	-0.020065	-0.000034
437	2.240303	0.005000	1.566711	9.849240	-1.020240	-0.780597	-0.671384	0.856595	-0.005358	-0.018049	-0.003334
438	2.245303	0.005000	1.530865	9.810000	-1.099225	-0.780597	-0.670945	0.856472	0.006350	-0.020673	0.005008
439	2.250303	0.005000	1.644328	9.810000	-1.137960	-0.780597	-0.670507	0.856350	0.007236	-0.018159	0.008266
440	2.255303	0.005000	1.612683	9.774603	-1.134117	-0.780597	-0.670068	0.856227	0.005138	-0.020950	0.003845
441	2.260303	0.005000	1.641893	9.849240	-1.098720	-0.780597	-0.669629	0.856105	0.013111	-0.027720	0.001590
442	2.265303	0.005000	1.687320	9.880277	-1.043074	-0.780597	-0.669190	0.855982	-0.000862	-0.013270	0.003299
443	2.270303	0.005000	1.601430	9.820610	-1.009630	-0.780597	-0.668751	0.855860	0.002348	-0.017267	0.002849
444	2.275303	0.005000	1.569600	9.810000	-1.112851	-0.780597	-0.668312	0.855737	0.006551	-0.007278	0.006696
445	2.280303	0.005000	1.554632	9.716552	-1.201472	-0.780597	-0.667874	0.855615	0.006720	-0.016188	0.006299
446	2.285303	0.005000	1.586502	9.770760	-1.042578	-0.780597	-0.667435	0.855492	0.011081	-0.015701	0.004388
447	2.290303	0.005000	1.667394	9.790074	-1.138572	-0.780597	-0.666996	0.855370	-0.004118	-0.018287	0.005971
448	2.295303	0.005000	1.516277	9.867014	-1.180891	-0.780597	-0.666557	0.855247	0.007244	-0.017328	-0.001413
449	2.300303	0.005000	1.632510	9.833670	-1.043910	-0.780597	-0.666118	0.855125	-0.005320	-0.014924	-0.006604
450	2.305303	0.005000	1.673857	9.810000	-1.033703	-0.780597	-0.665680	0.855002	0.001272	-0.013744	-0.008468
451	2.310303	0.005000	1.597622	9.860458	-0.952978	-0.780489	-0.665888	0.855000	0.007308	-0.013787	0.003654
452	2.315303	0.005000	1.608840	9.800833	-0.971833	-0.780379	-0.666107	0.855000	0.005571	-0.011411	0.008536
453	2.320303	0.005000	1.680461	9.770760	-1.059480	-0.780270	-0.666326	0.855000	0.012766	-0.012231	0.006586
454	2.325303	0.005000	1.564744	9.805144	-1.098720	-0.780160	-0.666546	0.855000	-0.002692	-0.014807	-0.000976
455	2.330303	0.005000	1.567090	9.731520	-1.051950	-0.780050	-0.666765	0.855000	0.006650	-0.015868	0.006414
456	2.335303	0.005000	1.570160	9.770760	-1.058361	-0.779940	-0.666985	0.855000	0.000817	-0.010112	0.000025
457	2.340303	0.005000	1.608840	9.845536	-0.943612	-0.779831	-0.667204	0.855000	0.001416	-0.008675	-0.001216
458	2.345303	0.005000	1.608840	9.884275	-1.094515	-0.779721	-0.667423	0.855000	0.005724	-0.010418	0.000243
459	2.350303	0.005000	1.615041	9.743921	-1.104921	-0.779611	-0.667643	0.855000	0.003193	-0.002758	0.001647
460	2.355303	0.005000	1.670317	9.779261	-1.098720	-0.779501	-0.667862	0.855000	0.000802	-0.011987	0.001252
461	2.360303	0.005000	1.590697	9.810000	-1.070029	-0.779392	-0.668082	0.855000	-0.002833	-0.011661	0.006467
462	2.365303	0.005000	1.543173	9.862854	-0.981000	-0.779282	-0.668301	0.855000	0.006030	-0.017678	0.000874
463	2.370303	0.005000	1.554694	9.903386	-0.995906	-0.779172	-0.668521	0.855000	0.014933	-0.013836	0.003600
464	2.375303	0.005000	1.552284	9.883872	-0.946368	-0.779601	-0.668864	0.855741	0.015753	-0.015537	0.003498
465	2.380303	0.005000	1.569600	9.829260	-1.000980	-0.780917	-0.669412	0.857700	0.016760	-0.020655	0.004200
466	2.385303	0.005000	1.748231	9.792431	-1.016138	-0.782233	-0.669961	0.859659	0.007242	-0.014346	-0.002782
467	2.390303	0.005000	1.711115	9.880130	-0.950110	-0.783549	-0.670509	0.861618	0.011606	-0.009495	-0.003387
468	2.395303	0.005000	1.621655	9.875267	-0.942158	-0.784865	-0.671057	0.863578	0.004974	-0.009607	0.008057
469	2.400303	0.005000	1.625543	9.849240	-0.953028	-0.786181	-0.671605	0.865537	0.004476	-0.013186	0.003806
470	2.405303	0.005000	1.617701	9.888480	-1.080998	-0.787497	-0.672154	0.867496	0.007877	-0.013066	0.008837
471	2.410303	0.005000	1.648080	9.842402	-0.960487	-0.788813	-0.672702	0.869455	0.008156	-0.010961	-0.003741
472	2.415303	0.005000	1.639078	9.800998	-0.907021	-0.790129	-0.673250	0.871415	0.016568	-0.015844	0.003284
473	2.420303	0.005000	1.608840	9.778384	-1.064563	-0.791445	-0.673798	0.873374	0.005276	-0.010718	0.002555
474	2.425303	0.005000	1.530360	9.888480	-1.020393	-0.792761	-0.674347	0.875333	0.011835	-0.010299	0.002475
475	2.430303	0.005000	1.605259	9.925929	-1.134379	-0.794077	-0.674895	0.877292	0.012258	-0.008074	0.006392
476	2.435303	0.005000	1.648080	9.927720	-0.950150	-0.795393	-0.675443	0.879252	0.012018	-0.005369	0.007777
477	2.440303	0.005000	1.602701	9.960821	-0.993279	-0.796709	-0.675991	0.881211	0.022366	-0.006786	0.006186
478	2.445303	0.005000	1.625950	9.810000	-0.871835	-0.796173	-0.675446	0.880633	0.012418	-0.009548	0.002044
479	2.450303	0.005000	1.619339	9.820499	-1.027984	-0.795076	-0.674568	0.879285	0.021542	-0.014986	-0.003224
480	2.455303	0.005000	1.635174	9.889001	-1.072386	-0.793979	-0.673690	0.877938	0.010664	-0.005796	0.000715
481	2.460303	0.005000	1.593698	9.942862	-1.044338	-0.792882	-0.672813	0.876590	0.022081	-0.004995	0.004509
482	2.465303	0.005000	1.574314	9.901029	-1.098720	-0.791785	-0.671935	0.875243	0.025031	-0.008237	0.007310
483	2.470303	0.005000	1.549798	9.869042	-1.099446	-0.790688	-0.671058	0.873895	0.022886	-0.005950	-0.001063
484	2.475303	0.005000	1.608840	9.853236	-1.281294	-0.789591	-0.670180	0.872547	0.026942	-0.017105	0.000803
485	2.480303	0.005000	1.624052	9.810000	-1.044268	-0.788494	-0.669302	0.871200	0.032588	0.001786	-0.006874
486	2.485303	0.005000	1.621955	9.862355	-1.151075	-0.787397	-0.668425	0.869852	0.021798	-0.007613	-0.004283
487	2.490303	0.005000	1.580455	9.820855	-1.127105	-0.786300	-0.667547	0.868505	0.020817	-0.001969	0.008074
488	2.495303	0.005000	1.639261	9.849240	-1.111502	-0.785203	-0.666669	0.867157	0.019516	-0.008018	0.003415
489	2.500303	0.005000	1.569600	9.855747	-1.020240	-0.784106	-0.665792	0.865809	0.035513	-0.009914	0.004433
490	2.505303	0.005000	1.522157	9.841037	-1.098720	-0.783009	-0.664914	0.864462	0.023206	-0.003960	-0.002008
491	2.510303	0.005000	1.534676	9.805684	-1.063796	-0.782090	-0.664268	0.863253	0.026692	-0.005245	-0.000172
492	2.515303	0.005000	1.569857	9.809486	-1.098977	-0.782090	-0.664817	0.862763	0.024596	-0.013144	-0.001910
493	2.520303	0.005000	1.682912	9.886276	-1.022444	-0.782090	-0.665365	0.862273	0.025064	-0.015434	-0.001170
494	2.525303	0.005000	1.578707	9.805447	-1.020240	-0.782090	-0.665914	0.861784	0.020339	-0.009120	0.000187
495	2.530303	0.005000	1.648080	9.888480	-1.059480	-0.782090	-0.666462	0.861294	0.018394	0.002794	-0.000860
496	2.535303	0.005000	1.617808	9.879512	-1.032575	-0.782090	-0.667011	0.860804	0.027725	-0.009548	0.003398
497	2.540303	0.005000	1.614361	9.838000	-1.020240	-0.782090	-0.667559	0.860314	0.028424	-0.008355	0.003420
498	2.545303	0.005000	1.660680	9.849240	-1.007640	-0.782090	-0.668108	0.859824	0.028927	-0.011511	-0.000234
499	2.550303	0.005000	1.655492	9.825551	-1.138686	-0.782090	-0.668657	0.859334	0.023983	-0.007107	0.004375
500	2.555303	0.005000	1.608840	9.849240	-1.177200	-0.782090	-0.669205	0.858844	0.021647	-0.008174	-0.000460
501	2.560303	0.005000	1.608840	9.849240	-1.040327	-0.782090	-0.669754	0.858354	0.024725	-0.013848	0.000638
502	2.565303	0.005000	1.670103	9.866457	-1.007828	-0.782090	-0.670302	0.857864	0.019867	-0.000941	-0.001568
503	2.570303	0.005000	1.623645	9.878850	-1.113525	-0.782090	-0.670851	0.857374	0.031914	-0.013478	-0.007064
504	2.575303	0.005000	1.646961	9.915013	-1.111427	-0.782090	-0.671399	0.856884	0.022159	-0.015242	0.001695
505	2.580303	0.005000	1.695202	9.820453	-1.051598	-0.782090	-0.671275	0.856667	0.021297	-0.018715	0.007579
506	2.585303	0.005000	1.569600	9.849240	-1.113846	-0.782090	-0.670617	0.856667	0.028176	-0.010079	-0.000423
507	2.590303	0.005000	1.641987	9.876293	-1.026333	-0.782090	-0.669959	0.856667	0.013566	-0.010446	-0.004569
508	2.595303	0.005000	1.619905	9.774448	-1.023928	-0.782090	-0.669301	0.856667	0.022215	-0.016121	-0.002682
509	2.600303	0.005000	1.646355	9.810000	-1.175475	-0.782090	-0.668643	0.856667	0.019070	-0.006008	0.002096
510	2.605303	0.005000	1.608840	9.848567	-0.945127	-0.782090	-0.667985	0.856667	0.008941	-0.008225	-0.002830
511	2.610303	0.005000	1.539482	9.846199	-0.899479	-0.782090	-0.667328	0.856667	0.006540	-0.013839	0.003338
512	2.615303	0.005000	1.530360	9.810000	-1.039393	-0.782090	-0.666670	0.856667	0.014415	-0.012858	-0.004030
513	2.620303	0.005000	1.584476	9.810000	-1.091282	-0.782090	-0.666012	0.856667	0.010909	-0.008529	0.005500
514	2.625303	0.005000	1.559873	9.800273	-1.049420	-0.782090	-0.665354	0.856667	0.011242	-0.015144	-0.002976
515	2.630303	0.005000	1.557811	9.782549	-1.153622	-0.782090	-0.664696	0.856667	0.013592	-0.019832	0.007980
516	2.635303	0.005000	1.569600	9.810000	-1.163177	-0.782090	-0.664038	0.856667	-0.000530	-0.012199	-0.006690
517	2.640303	0.005000	1.615806	9.826137	-0.974034	-0.782090	-0.663380	0.856667	0.000474	-0.004528	-0.002279
518	2.645303	0.005000	1.648080	9.810000	-0.983143	-0.782090	-0.662722	0.856667	0.004750	-0.014349	0.007899
519	2.650303	0.005000	1.646335	9.811745	-1.095231	-0.781674	-0.663310	0.856783	0.008147	-0.012094	0.004358
520	2.655303	0.005000	1.710224	9.770760	-1.092152	-0.781236	-0.663968	0.856905	0.012970	-0.007839	0.007656
521	2.660303	0.005000	1.748162	9.784980	-0.995220	-0.780797	-0.664627	0.857028	0.016103	-0.013182	0.001588
522	2.665303	0.005000	1.620823	9.888480	-1.044206	-0.780358	-0.665285	0.857150	0.010871	-0.017104	-0.004679
523	2.670303	0.005000	1.716991	9.849240	-1.079582	-0.779919	-0.665943	0.857273	0.010454	-0.010397	0.000971
524	2.675303	0.005000	1.687320	9.810000	-0.965751	-0.779480	-0.666601	0.857395	0.008917	-0.010448	-0.007758
525	2.680303	0.005000	1.614059	9.775979	-0.839696	-0.779041	-0.667260	0.857518	0.006966	-0.020225	0.012252
526	2.685303	0.005000	1.648080	9.806763	-1.062717	-0.778602	-0.667918	0.857640	0.002910	-0.008137	-0.002308
527	2.690303	0.005000	1.607983	9.810857	-1.138817	-0.778163	-0.668576	0.857763	0.005417	-0.023132	-0.004003
528	2.695303	0.005000	1.607312	9.811528	-1.177200	-0.777724	-0.669234	0.857885	0.004758	-0.011523	0.005290
529	2.700303	0.005000	1.758819	9.810000	-1.023731	-0.777286	-0.669892	0.858008	0.005114	-0.006003	-0.004445
530	2.705303	0.005000	1.744243	9.810000	-0.914309	-0.776847	-0.670551	0.858130	-0.006853	-0.015336	0.007460
531	2.710303	0.005000	1.726560	9.888480	-0.972786	-0.776408	-0.671209	0.858252	-0.002901	-0.017143	-0.000687
532	2.715303	0.005000	1.569600	9.762281	-1.011761	-0.776232	-0.671417	0.858501	0.003705	-0.017454	0.004995
533	2.720303	0.005000	1.544580	9.797490	-1.006020	-0.776561	-0.670759	0.858991	0.004267	-0.012732	0.002074
534	2.725303	0.005000	1.544966	9.863846	-1.020240	-0.776890	-0.670100	0.859481	0.013693	-0.003302	0.004466
535	2.730303	0.005000	1.535563	9.905498	-1.109127	-0.777219	-0.669442	0.859971	0.021663	-0.006201	0.004492
536	2.735303	0.005000	1.530360	9.848393	-1.137960	-0.777548	-0.668784	0.860461	0.010170	-0.007490	0.000433
537	2.740303	0.005000	1.551733	9.963454	-1.023746	-0.777877	-0.668126	0.860951	0.020134	-0.019982	0.004778
538	2.745303	0.005000	1.663537	9.896805	-1.074937	-0.778206	-0.667467	0.861441	0.011596	-0.011259	-0.000683
539	2.750303	0.005000	1.635867	9.861453	-1.100021	-0.778536	-0.666809	0.861931	0.005365	-0.008640	-0.004557
540	2.755303	0.005000	1.693260	9.860340	-1.059480	-0.778865	-0.666151	0.862421	-0.000316	-0.004077	0.003314
541	2.760303	0.005000	1.620614	9.879325	-0.971845	-0.779194	-0.665493	0.862911	-0.001726	-0.008784	-0.008185
542	2.765303	0.005000	1.569600	9.881731	-1.033738	-0.779523	-0.664835	0.863401	-0.008541	-0.013474	0.007710
543	2.770303	0.005000	1.574350	9.814750	-1.221190	-0.779852	-0.664176	0.863891	-0.003931	-0.004660	-0.001206
544	2.775303	0.005000	1.608840	9.810000	-1.182006	-0.780181	-0.663518	0.864381	0.001917	-0.017410	-0.002360
545	2.780303	0.005000	1.608386	9.810454	-1.215986	-0.780511	-0.662860	0.864871	0.008613	-0.008092	0.006119
546	2.785303	0.005000	1.532319	9.811959	-1.028076	-0.780840	-0.662849	0.864549	0.001185	-0.006899	-0.000251
547	2.790303	0.005000	1.643769	9.919097	-1.024551	-0.781169	-0.663068	0.863936	0.005728	-0.012169	0.000653
548	2.795303	0.005000	1.596224	9.810000	-1.026548	-0.781498	-0.663287	0.863324	0.003205	-0.009590	0.000364
549	2.800303	0.005000	1.639457	9.888480	-0.950383	-0.781827	-0.663507	0.862712	0.006652	-0.017916	-0.000105
550	2.805303	0.005000	1.658747	9.849240	-1.059480	-0.782156	-0.663726	0.862100	0.009942	-0.004348	-0.010720
551	2.810303	0.005000	1.621915	9.862315	-1.072570	-0.782485	-0.663945	0.861487	0.008764	-0.008239	-0.005952
552	2.815303	0.005000	1.648080	9.834221	-1.162181	-0.782814	-0.664165	0.860875	0.000696	-0.007264	0.001439
553	2.820303	0.005000	1.552370	9.849240	-1.111170	-0.783143	-0.664384	0.860263	0.003836	-0.007874	-0.008721
554	2.825303	0.005000	1.628705	9.888480	-0.981000	-0.783472	-0.664603	0.859651	0.017822	-0.016203	0.005955
555	2.830303	0.005000	1.604507	9.849240	-1.020240	-0.783801	-0.664823	0.859038	0.003390	-0.014070	-0.003736
556	2.835303	0.005000	1.632756	9.810000	-1.144692	-0.784130	-0.665042	0.858426	-0.000859	-0.017508	-0.001684
557	2.840303	0.005000	1.674214	9.810000	-1.177123	-0.784459	-0.665261	0.857814	0.004245	-0.001118	0.004245
558	2.845303	0.005000	1.640933	9.810000	-1.041635	-0.784788	-0.665480	0.857202	0.007367	-0.015617	-0.001381
559	2.850303	0.005000	1.700602	9.801347	-1.137960	-0.784950	-0.665672	0.856714	0.003214	-0.020213	0.007754
560	2.855303	0.005000	1.569600	9.770760	-1.189877	-0.783963	-0.665672	0.857081	0.005279	-0.024128	-0.005341
561	2.860303	0.005000	1.613182	9.779443	-1.168517	-0.782975	-0.665672	0.857449	0.004207	-0.017342	0.005458
562	2.865303	0.005000	1.602871	9.808010	-1.057490	-0.781988	-0.665672	0.857816	0.001417	-0.014201	0.003064
563	2.870303	0.005000	1.491211	9.849240	-1.020331	-0.781001	-0.665672	0.858184	0.003604	-0.024404	0.010736
564	2.875303	0.005000	1.495864	9.849240	-1.172456	-0.780013	-0.665672	0.858551	0.010913	-0.024450	0.005958
565	2.880303	0.005000	1.500559	9.927720	-1.133240	-0.779026	-0.665672	0.858919	0.009028	-0.024265	0.003869
566	2.885303	0.005000	1.621195	9.927720	-0.896886	-0.778038	-0.665672	0.859286	0.011003	-0.018266	0.006961
567	2.890303	0.005000	1.578631	9.819031	-0.932729	-0.777051	-0.665672	0.859654	0.010180	-0.004146	0.008797
568	2.895303	0.005000	1.671159	9.781840	-1.065479	-0.776064	-0.665672	0.860021	0.013060	-0.014688	0.008132
569	2.900303	0.005000	1.700344	9.810000	-1.072504	-0.775076	-0.665672	0.860389	0.007363	-0.016221	0.005598
570	2.905303	0.005000	1.687320	9.912287	-0.988058	-0.774089	-0.665672	0.860756	0.009851	-0.007416	0.003131
571	2.910303	0.005000	1.700995	9.845277	-1.006565	-0.773102	-0.665672	0.861124	0.016877	-0.018002	0.008690
572	2.915303	0.005000	1.647758	9.849240	-1.118179	-0.772114	-0.665672	0.861491	0.009186	-0.012641	-0.000657
573	2.920303	0.005000	1.630774	9.766131	-1.037546	-0.771985	-0.665558	0.861987	0.014116	-0.012724	-0.000878
574	2.925303	0.005000	1.608840	9.779789	-1.168171	-0.772644	-0.665338	0.862599	0.010385	-0.009259	-0.003440
575	2.930303	0.005000	1.661301	9.810000	-1.138172	-0.773302	-0.665119	0.863212	0.015677	-0.014847	0.005792
576	2.935303	0.005000	1.708815	9.770760	-1.087972	-0.773960	-0.664899	0.863824	0.013862	-0.011614	0.000109
577	2.940303	0.005000	1.726560	9.770760	-1.098720	-0.774618	-0.664680	0.864437	0.015181	-0.014084	-0.007912
578	2.945303	0.005000	1.569600	9.842843	-1.164406	-0.775277	-0.664460	0.865049	0.035009	-0.015207	-0.000136
579	2.950303	0.005000	1.573581	9.845259	-1.051519	-0.775935	-0.664241	0.865662	0.019211	-0.013059	0.003686
580	2.955303	0.005000	1.683296	9.847228	-0.985024	-0.776593	-0.664022	0.866274	0.022273	-0.010800	0.006524
581	2.960303	0.005000	1.647713	9.654510	-1.059480	-0.777251	-0.663802	0.866887	0.014963	-0.006232	0.002799
582	2.965303	0.005000	1.687320	9.763824	-1.022552	-0.777909	-0.663583	0.867499	0.023036	-0.007828	0.002025
583	2.970303	0.005000	1.623027	9.810000	-1.020240	-0.778568	-0.663363	0.868112	0.011532	-0.007071	-0.000751
584	2.975303	0.005000	1.583699	9.842191	-1.059480	-0.779226	-0.663144	0.868724	0.016520	-0.004158	-0.000634
585	2.980303	0.005000	1.560521	9.918641	-1.128881	-0.779884	-0.662925	0.869337	0.014625	-0.010183	0.001289
586	2.985303	0.005000	1.541843	9.860723	-1.087237	-0.780542	-0.662705	0.869949	0.015550	-0.000798	-0.000083
587	2.990303	0.005000	1.569600	9.758374	-1.150346	-0.780396	-0.662888	0.869214	0.009066	-0.005186	-0.006341
588	2.995303	0.005000	1.632240	9.731520	-1.177200	-0.780176	-0.663108	0.868356	0.011760	-0.005787	0.015118
589	3.000303	0.005000	1.687320	9.774433	-1.194983	-0.779957	-0.663327	0.867498	0.022085	-0.009937	-0.001163
590	3.005303	0.005000	1.669422	9.790954	-1.137960	-0.779738	-0.663546	0.866641	0.014985	-0.008016	-0.001978
591	3.010303	0.005000	1.625737	9.826897	-1.042583	-0.779518	-0.663766	0.865783	0.014546	-0.003532	-0.001305
592	3.015303	0.005000	1.648080	9.863932	-1.059480	-0.779299	-0.663985	0.864926	0.019841	-0.014917	0.002590
593	3.020303	0.005000	1.660359	9.861519	-1.020240	-0.779079	-0.664205	0.864068	0.018586	-0.004335	0.003089
594	3.025303	0.005000	1.637746	9.849240	-1.117291	-0.778860	-0.664424	0.863211	0.018059	-0.008830	-0.007525
595	3.030303	0.005000	1.639790	9.857530	-1.003661	-0.778641	-0.664643	0.862353	0.017508	-0.007789	0.000852
596	3.035303	0.005000	1.648080	9.921736	-1.059480	-0.778421	-0.664863	0.861495	0.014585	-0.001340	-0.003391
597	3.040303	0.005000	1.604846	9.845246	-1.133966	-0.778202	-0.665082	0.860638	0.019277	-0.011741	0.000781
598	3.045303	0.005000	1.762554	9.810000	-1.286806	-0.777982	-0.665302	0.859780	0.012584	-0.000445	-0.006047
599	3.050303	0.005000	1.687320	9.771066	-1.137654	-0.777763	-0.665521	0.858923	0.013812	-0.016007	-0.000502
600	3.055303	0.005000	1.763076	9.812724	-1.093272	-0.777715	-0.665672	0.858410	0.019209	-0.007544	0.006925
601	3.060303	0.005000	1.648080	9.878345	-0.975932	-0.778044	-0.665672	0.858654	0.017401	-0.009171	0.000399
602	3.065303	0.005000	1.637133	9.849240	-1.020240	-0.778373	-0.665672	0.858899	0.008493	-0.005032	0.006007
603	3.070303	0.005000	1.687320	9.828977	-0.962023	-0.778702	-0.665672	0.859144	0.013787	-0.004144	0.005689
604	3.075303	0.005000	1.648080	9.754384	-0.969568	-0.779031	-0.665672	0.859389	0.023398	-0.014889	0.004166
605	3.080303	0.005000	1.726560	9.678440	-1.149519	-0.779360	-0.665672	0.859634	0.017141	-0.012787	-0.003815
606	3.085303	0.005000	1.663865	9.810000	-1.082935	-0.779689	-0.665672	0.859879	0.015683	-0.014262	-0.000611
607	3.090303	0.005000	1.648080	9.831043	-1.020240	-0.780018	-0.665672	0.860124	0.014871	-0.015684	-0.004144
608	3.095303	0.005000	1.629201	9.908841	-1.119081	-0.780347	-0.665672	0.860369	0.016910	-0.015360	0.000311
609	3.100303	0.005000	1.552912	9.832552	-1.222304	-0.780676	-0.665672	0.860614	0.017617	-0.016797	0.008349
610	3.105303	0.005000	1.618945	9.834672	-1.098720	-0.781005	-0.665672	0.860859	0.009782	-0.014396	0.004991
611	3.110303	0.005000	1.542695	9.861575	-1.125625	-0.781334	-0.665672	0.861104	0.019481	-0.016515	0.000451
612	3.115303	0.005000	1.638159	9.859161	-1.177200	-0.781663	-0.665672	0.861349	0.015001	-0.012304	0.001170
613	3.120303	0.005000	1.569600	9.888480	-1.043502	-0.781992	-0.665672	0.861594	0.009975	-0.011986	-0.009941
614	3.125303	0.005000	1.575173	9.815573	-1.076199	-0.783244	-0.666518	0.862698	0.009567	-0.011623	0.000182
615	3.130303	0.005000	1.712219	9.802830	-1.109475	-0.784890	-0.667725	0.864168	0.009509	-0.007879	0.001248
616	3.135303	0.005000	1.531584	9.848016	-1.098720	-0.786535	-0.668932	0.865638	0.016818	-0.010233	-0.003067
617	3.140303	0.005000	1.607660	9.771940	-1.098720	-0.788181	-0.670139	0.867108	0.005740	-0.004403	0.002340
618	3.145303	0.005000	1.611977	9.924583	-1.026515	-0.789827	-0.671346	0.868578	0.014263	-0.008940	0.003927
619	3.150303	0.005000	1.575076	9.792664	-1.098720	-0.791472	-0.672552	0.870049	0.011273	-0.007488	0.003307
620	3.155303	0.005000	1.648080	9.834267	-1.098720	-0.793118	-0.673759	0.871519	0.008339	-0.001950	-0.001125
621	3.160303	0.005000	1.569600	9.849240	-1.098720	-0.794764	-0.674966	0.872989	0.011226	-0.012197	0.001990
622	3.165303	0.005000	1.514811	9.861085	-1.228285	-0.796409	-0.676173	0.874459	0.003753	-0.008160	-0.005764
623	3.170303	0.005000	1.580332	9.810000	-1.127228	-0.798055	-0.677380	0.875929	0.016321	-0.012616	0.003258
624	3.175303	0.005000	1.687320	9.747718	-1.091876	-0.799700	-0.678586	0.877399	0.005645	-0.013071	0.003971
625	3.180303	0.005000	1.668710	9.830630	-1.061500	-0.801346	-0.679793	0.878869	0.016284	-0.008999	-0.006049
626	3.185303	0.005000	1.592669	9.849240	-1.179499	-0.802992	-0.681000	0.880339	0.002126	-0.007272	0.006512
627	3.190303	0.005000	1.595459	9.770760	-1.114995	-0.804361	-0.681994	0.881537	-0.003334	-0.008064	0.007648
628	3.195303	0.005000	1.634209	9.810000	-1.057107	-0.803154	-0.681007	0.880189	0.001461	-0.013813	0.001487
629	3.200303	0.005000	1.581384	9.786432	-1.043808	-0.801948	-0.680020	0.878841	0.014928	-0.005748	-0.004143
630	3.205303	0.005000	1.668282	9.712482	-1.128441	-0.800741	-0.679032	0.877494	0.015577	-0.005817	0.000551
631	3.210303	0.005000	1.687320	9.668016	-1.020240	-0.799534	-0.678045	0.876146	0.013729	-0.006784	0.008456
632	3.215303	0.005000	1.711081	9.707759	-1.064640	-0.798327	-0.677058	0.874798	0.012041	-0.008456	0.005080
633	3.220303	0.005000	1.681810	9.849240	-1.059480	-0.797121	-0.676070	0.873451	0.017084	-0.010093	0.004780
634	3.225303	0.005000	1.570411	9.850862	-1.021051	-0.795914	-0.675083	0.872103	0.015315	-0.010474	0.000961
635	3.230303	0.005000	1.608840	9.852417	-1.059480	-0.794707	-0.674095	0.870756	0.022405	-0.008559	0.005463
636	3.235303	0.005000	1.573151	9.810000	-0.952412	-0.793500	-0.673108	0.869408	0.005537	-0.007036	0.004970
637	3.240303	0.005000	1.530360	9.843284	-0.953671	-0.792293	-0.672121	0.868060	0.009514	-0.013467	0.000369
638	3.245303	0.005000	1.608840	9.849240	-1.051580	-0.791087	-0.671133	0.866713	0.018962	-0.016521	0.004376
639	3.250303	0.005000	1.627450	9.810000	-1.009925	-0.789880	-0.670146	0.865365	0.001878	-0.005490	0.000447
640	3.255303	0.005000	1.596581	9.795277	-1.032499	-0.788673	-0.669159	0.864018	0.006390	-0.016469	-0.002253
641	3.260303	0.005000	1.598934	9.810000	-1.074147	-0.787736	-0.668387	0.863333	0.008971	-0.016435	0.003097
642	3.265303	0.005000	1.608840	9.832373	-1.059480	-0.787078	-0.667839	0.863333	0.017065	-0.013529	-0.002969
643	3.270303	0.005000	1.629065	9.908705	-1.002434	-0.786420	-0.667290	0.863333	0.014846	-0.014050	-0.003728
644	3.275303	0.005000	1.666142	9.870418	-0.920582	-0.785761	-0.666741	0.863333	0.012324	-0.012427	-0.008422
645	3.280303	0.005000	1.607968	9.786630	-1.060352	-0.785103	-0.666193	0.863333	0.008831	-0.015105	0.001746
646	3.285303	0.005000	1.583058	9.796542	-1.074071	-0.784445	-0.665644	0.863333	0.011122	-0.008986	0.005933
647	3.290303	0.005000	1.620353	9.754547	-1.177200	-0.783786	-0.665096	0.863333	0.019097	-0.010991	0.005006
648	3.295303	0.005000	1.548572	9.791788	-1.168094	-0.783128	-0.664547	0.863333	0.010855	-0.006391	0.002127
649	3.300303	0.005000	1.562438	9.856402	-1.187791	-0.782470	-0.663999	0.863333	0.015722	-0.004052	-0.001463
650	3.305303	0.005000	1.569600	9.814746	-1.202202	-0.781811	-0.663450	0.863333	0.011407	-0.018174	-0.005099
651	3.310303	0.005000	1.533162	9.773562	-1.126753	-0.781153	-0.662902	0.863333	0.017245	-0.011089	-0.007601
652	3.315303	0.005000	1.647682	9.771158	-0.942556	-0.780495	-0.662353	0.863333	0.012131	-0.011086	0.001987
653	3.320303	0.005000	1.646534	9.772306	-1.095627	-0.779837	-0.661804	0.863333	0.006414	-0.005581	0.000349
654	3.325303	0.005000	1.534278	9.810000	-1.102638	-0.779178	-0.661256	0.863333	0.005812	-0.014391	-0.002249
655	3.330303	0.005000	1.557811	9.855134	-1.059480	-0.779201	-0.661097	0.863224	0.006050	-0.000794	0.002445
656	3.335303	0.005000	1.639866	9.919506	-1.043052	-0.779311	-0.660987	0.863102	0.012341	-0.006841	-0.001442
657	3.340303	0.005000	1.658334	9.849240	-1.059480	-0.779421	-0.660877	0.862979	0.011723	-0.011982	0.009495
658	3.345303	0.005000	1.661997	9.888480	-1.084803	-0.779531	-0.660767	0.862857	0.004319	-0.010909	0.007982
659	3.350303	0.005000	1.672714	9.834634	-1.069508	-0.779640	-0.660658	0.862735	0.006251	-0.010242	0.009549
660	3.355303	0.005000	1.675505	9.787778	-1.059480	-0.779750	-0.660548	0.862612	0.010409	-0.011045	0.011058
661	3.360303	0.005000	1.589878	9.711242	-0.941760	-0.779860	-0.660438	0.862490	0.018586	-0.011118	-0.008687
662	3.365303	0.005000	1.630213	9.788627	-1.098720	-0.779970	-0.660328	0.862367	0.020652	-0.009827	-0.001222
663	3.370303	0.005000	1.601445	9.770760	-1.098720	-0.780079	-0.660219	0.862245	0.020587	-0.005234	-0.000835
664	3.375303	0.005000	1.595326	9.770760	-0.993213	-0.780189	-0.660109	0.862122	0.012270	-0.007707	0.002478
665	3.380303	0.005000	1.643149	9.849240	-1.031676	-0.780299	-0.659999	0.862000	0.016575	-0.009754	-0.002084
666	3.385303	0.005000	1.636306	9.830929	-1.089565	-0.780409	-0.659889	0.861877	0.010125	-0.002678	-0.006217
667	3.390303	0.005000	1.680195	9.749385	-0.973875	-0.780518	-0.659780	0.861755	0.003786	-0.005923	0.005805
668	3.395303	0.005000	1.613647	9.736327	-0.907327	-0.780628	-0.659825	0.862048	0.008150	-0.008648	0.004429
669	3.400303	0.005000	1.601632	9.856448	-1.020240	-0.780738	-0.660264	0.863395	0.004931	-0.013089	0.012232
670	3.405303	0.005000	1.570059	9.927720	-1.098261	-0.780847	-0.660703	0.864743	0.004508	-0.011122	0.006693
671	3.410303	0.005000	1.683447	10.002327	-0.910265	-0.780957	-0.661142	0.866090	0.006354	-0.006940	0.003665
672	3.415303	0.005000	1.640275	9.888480	-0.945663	-0.781067	-0.661581	0.867438	0.012885	-0.008279	0.001552
673	3.420303	0.005000	1.608840	9.783225	-1.164735	-0.781177	-0.662019	0.868786	0.015941	-0.007665	-0.005704
674	3.425303	0.005000	1.608840	9.840988	-1.044997	-0.781286	-0.662458	0.870133	0.009375	-0.014150	0.001908
675	3.430303	0.005000	1.687320	9.820667	-1.038146	-0.781396	-0.662897	0.871481	0.013886	-0.005438	-0.002378
676	3.435303	0.005000	1.634061	9.901091	-0.993611	-0.781506	-0.663336	0.872828	0.013173	-0.013192	0.002277
677	3.440303	0.005000	1.569600	9.864259	-1.035259	-0.781616	-0.663775	0.874176	0.006414	-0.003078	0.000570
678	3.445303	0.005000	1.508084	9.883167	-1.076444	-0.781725	-0.664214	0.875523	0.014476	-0.007442	-0.007802
679	3.450303	0.005000	1.550225	9.828885	-1.058990	-0.781835	-0.664653	0.876871	0.006533	-0.012399	-0.003161
680	3.455303	0.005000	1.573412	9.788474	-0.977188	-0.781945	-0.665092	0.878218	0.008938	-0.006189	-0.000868
681	3.460303	0.005000	1.530360	9.770760	-0.988288	-0.782055	-0.665531	0.879566	0.011273	-0.010107	0.006066
682	3.465303	0.005000	1.622248	9.849240	-1.047056	-0.782090	-0.665821	0.879087	0.004988	-0.004442	0.008913
683	3.470303	0.005000	1.648080	9.849240	-1.109881	-0.782090	-0.666040	0.877739	0.018335	-0.006473	0.005340
684	3.475303	0.005000	1.552092	9.870972	-0.941760	-0.782090	-0.666260	0.876392	0.011476	-0.014580	0.000034
685	3.480303	0.005000	1.497930	9.803190	-0.948570	-0.782090	-0.666479	0.875044	0.017547	-0.008917	-0.005302
686	3.485303	0.005000	1.613234	9.844846	-1.029028	-0.782090	-0.666698	0.873696	0.016828	-0.006858	-0.001855
687	3.490303	0.005000	1.648080	9.773210	-1.096270	-0.782090	-0.666918	0.872349	0.015942	-0.004109	-0.001879
688	3.495303	0.005000	1.530314	9.849332	-1.059480	-0.782090	-0.667137	0.871001	0.022470	-0.013973	0.002775
689	3.500303	0.005000	1.491120	9.890378	-1.022138	-0.782090	-0.667357	0.869654	0.015540	-0.011078	-0.003007
690	3.505303	0.005000	1.561068	9.844974	-1.142226	-0.782090	-0.667576	0.868306	0.022209	-0.006807	0.005496
691	3.510303	0.005000	1.596321	9.842981	-1.039018	-0.782090	-0.667795	0.866959	0.013164	-0.012163	0.006695
692	3.515303	0.005000	1.595597	9.857906	-0.998331	-0.782090	-0.668015	0.865611	0.009825	-0.015436	-0.004921
693	3.520303	0.005000	1.637470	9.888480	-1.038260	-0.782090	-0.668234	0.864264	0.010924	-0.010200	-0.001013
694	3.525303	0.005000	1.622032	9.823024	-1.085696	-0.782090	-0.668454	0.862916	0.007544	-0.007926	-0.007024
695	3.530303	0.005000	1.569600	9.785728	-1.098720	-0.782074	-0.668689	0.861685	-0.004472	-0.006493	0.000402
696	3.535303	0.005000	1.517469	9.770760	-1.098720	-0.781855	-0.669128	0.861930	0.005591	-0.017660	0.005192
697	3.540303	0.005000	1.628536	9.751064	-1.098871	-0.781635	-0.669566	0.862175	0.017893	-0.020877	0.000709
698	3.545303	0.005000	1.643870	9.805790	-0.998515	-0.781416	-0.670005	0.862420	0.008934	-0.021665	0.003981
699	3.550303	0.005000	1.672215	9.864345	-1.020240	-0.781196	-0.670444	0.862664	0.011432	-0.005696	-0.009914
700	3.555303	0.005000	1.608595	10.005955	-0.981000	-0.780977	-0.670882	0.862909	0.012736	-0.007426	-0.003452
701	3.560303	0.005000	1.580348	9.849240	-0.970252	-0.780758	-0.671321	0.863154	0.014877	-0.009426	0.001060
702	3.565303	0.005000	1.608840	9.910324	-1.085574	-0.780538	-0.671759	0.863399	0.007867	-0.011248	0.000485
703	3.570303	0.005000	1.569600	9.770760	-1.131563	-0.780319	-0.672198	0.863644	0.006722	-0.008254	0.002622
704	3.575303	0.005000	1.608840	9.888480	-1.090759	-0.780100	-0.672637	0.863889	0.010527	-0.007893	0.000631
705	3.580303	0.005000	1.608840	9.849240	-1.100756	-0.779880	-0.673075	0.864134	0.009617	-0.009104	0.007632
706	3.585303	0.005000	1.686594	9.888117	-1.176837	-0.779661	-0.673514	0.864379	0.001573	-0.012114	-0.007259
707	3.590303	0.005000	1.578847	9.849240	-1.098720	-0.779441	-0.673952	0.864623	0.010558	-0.004213	0.000876
708	3.595303	0.005000	1.613569	9.780218	-1.202253	-0.779222	-0.674391	0.864868	0.018288	-0.010409	-0.000298
709	3.600303	0.005000	1.687320	9.777433	-1.137960	-0.779003	-0.674272	0.864773	0.022446	-0.016278	0.001358
710	3.605303	0.005000	1.687320	9.810000	-1.080562	-0.778783	-0.673504	0.864283	0.020018	-0.017382	0.005456
711	3.610303	0.005000	1.670771	9.849240	-1.076029	-0.778564	-0.672736	0.863793	-0.000708	-0.004262	-0.004939
712	3.615303	0.005000	1.648080	9.915334	-1.216440	-0.778344	-0.671968	0.863303	0.007784	-0.009122	-0.000316
713	3.620303	0.005000	1.648080	9.919990	-1.027970	-0.778125	-0.671200	0.862813	0.009822	-0.009804	0.001036
714	3.625303	0.005000	1.551568	9.927720	-1.105073	-0.777906	-0.670432	0.862323	0.017576	-0.006175	-0.005400
715	3.630303	0.005000	1.686172	9.869434	-1.003491	-0.777686	-0.669664	0.861833	0.018200	-0.019486	-0.006660
716	3.635303	0.005000	1.787939	9.866341	-0.970926	-0.777467	-0.668896	0.861343	0.014344	-0.010079	0.001833
717	3.640303	0.005000	1.604004	9.873788	-0.902520	-0.777247	-0.668128	0.860853	0.010759	-0.011659	0.008770
718	3.645303	0.005000	1.582348	9.861988	-0.981000	-0.777028	-0.667360	0.860363	0.011973	-0.008751	-0.001023
719	3.650303	0.005000	1.629509	9.760426	-1.040909	-0.776809	-0.666592	0.859873	0.018279	-0.014956	-0.002297
720	3.655303	0.005000	1.623211	9.779050	-1.045109	-0.776589	-0.665824	0.859383	0.012379	-0.010947	0.008023
721	3.660303	0.005000	1.648080	9.843256	-1.137960	-0.776370	-0.665056	0.858893	0.002775	-0.011038	-0.000241
722	3.665303	0.005000	1.695307	9.817987	-1.133966	-0.776150	-0.664289	0.858403	0.012387	-0.007460	-0.006260
723	3.670303	0.005000	1.648080	9.849240	-1.059480	-0.776307	-0.664367	0.858333	0.016370	0.008574	-0.006136
724	3.675303	0.005000	1.648080	9.888174	-1.020546	-0.776527	-0.664587	0.858333	0.017410	-0.011053	-0.005523
725	3.680303	0.005000	1.695492	9.849240	-0.986448	-0.776746	-0.664806	0.858333	0.018376	-0.015246	0.000964
726	3.685303	0.005000	1.648080	9.820135	-1.054412	-0.776965	-0.665025	0.858333	0.029040	-0.014411	-0.002794
727	3.690303	0.005000	1.608840	9.810000	-1.091647	-0.777185	-0.665245	0.858333	0.024839	-0.008651	0.004975
728	3.695303	0.005000	1.648080	9.839861	-1.087617	-0.777404	-0.665464	0.858333	0.008993	-0.006094	-0.002126
729	3.700303	0.005000	1.541792	9.826376	-1.092231	-0.777624	-0.665684	0.858333	0.018784	-0.015408	0.004164
730	3.705303	0.005000	1.712720	9.874640	-1.098720	-0.777843	-0.665903	0.858333	0.009674	-0.004323	-0.006219
731	3.710303	0.005000	1.663865	9.810000	-0.981000	-0.778062	-0.666122	0.858333	0.002704	-0.013817	0.002196
732	3.715303	0.005000	1.669123	9.810000	-1.041283	-0.778282	-0.666342	0.858333	0.000912	-0.012140	-0.002199
733	3.720303	0.005000	1.686279	9.790900	-1.117820	-0.778501	-0.666561	0.858333	-0.002077	-0.008827	-0.011546
734	3.725303	0.005000	1.704008	9.804136	-1.036928	-0.778721	-0.666781	0.858333	0.007494	-0.007511	0.007944
735	3.730303	0.005000	1.554856	9.844249	-1.128207	-0.778940	-0.667000	0.858333	0.013878	-0.003064	-0.003971
736	3.735303	0.005000	1.557265	9.849240	-1.125625	-0.779076	-0.667109	0.858302	0.019260	-0.001614	-0.004793
737	3.740303	0.005000	1.598569	9.810000	-1.208014	-0.778967	-0.666889	0.858180	0.018035	-0.007084	-0.001122
738	3.745303	0.005000	1.538349	9.770760	-1.074754	-0.778857	-0.666670	0.858057	0.015905	-0.015946	-0.007326
739	3.750303	0.005000	1.642507	9.843667	-0.992146	-0.778747	-0.666450	0.857935	0.022498	-0.006727	0.000163
740	3.755303	0.005000	1.616097	9.845611	-1.052223	-0.778638	-0.666231	0.857812	0.007788	-0.004930	-0.005459
741	3.760303	0.005000	1.684871	9.808776	-1.058256	-0.778528	-0.666011	0.857690	0.008967	-0.017427	0.005781
742	3.765303	0.005000	1.647360	9.847801	-1.097281	-0.778418	-0.665792	0.857567	0.014341	-0.009211	-0.003842
743	3.770303	0.005000	1.615115	9.852377	-1.056343	-0.778309	-0.665573	0.857445	0.010888	-0.008750	-0.007440
744	3.775303	0.005000	1.603364	9.956008	-0.991952	-0.778199	-0.665353	0.857322	0.016872	-0.009167	-0.004061
745	3.780303	0.005000	1.640593	9.864213	-1.012753	-0.778089	-0.665134	0.857200	0.025400	-0.007849	-0.007154
746	3.785303	0.005000	1.687320	9.849240	-1.157396	-0.777980	-0.664914	0.857077	0.018204	-0.011796	0.008013
747	3.790303	0.005000	1.608840	9.904029	-1.043931	-0.777870	-0.664695	0.856955	0.022335	-0.017167	-0.003707
748	3.795303	0.005000	1.658812	9.927720	-0.927506	-0.777760	-0.664476	0.856833	0.016799	-0.012362	0.001183
749	3.800303	0.005000	1.811333	9.872006	-0.997474	-0.777651	-0.664256	0.856710	0.009474	-0.004535	0.001358
750	3.805303	0.005000	1.604800	9.810000	-1.040870	-0.777825	-0.664250	0.856984	-0.000709	-0.003821	0.003525
751	3.810303	0.005000	1.627310	9.810000	-0.999470	-0.778154	-0.664360	0.857474	0.005185	-0.011752	0.003993
752	3.815303	0.005000	1.625115	9.826275	-1.036515	-0.778483	-0.664469	0.857964	0.010040	-0.008720	-0.004798
753	3.820303	0.005000	1.477249	9.835369	-1.045609	-0.778812	-0.664579	0.858454	0.008449	-0.016955	0.005398
754	3.825303	0.005000	1.636153	9.810000	-1.032167	-0.779141	-0.664689	0.858943	0.009356	-0.010835	0.005064
755	3.830303	0.005000	1.579119	9.799318	-1.158162	-0.779470	-0.664799	0.859433	0.013240	-0.016203	0.004666
756	3.835303	0.005000	1.663231	9.856816	-1.154473	-0.779799	-0.664908	0.859923	0.003017	-0.015206	0.000921
757	3.840303	0.005000	1.648080	9.854400	-1.025400	-0.780128	-0.665018	0.860413	0.004410	-0.009522	-0.000918
758	3.845303	0.005000	1.644903	9.806823	-0.902520	-0.780457	-0.665128	0.860902	0.013060	-0.015755	0.007347
759	3.850303	0.005000	1.608029	9.810000	-0.902520	-0.780786	-0.665237	0.861392	0.012412	-0.012844	-0.003742
760	3.855303	0.005000	1.607252	9.734697	-0.864868	-0.781115	-0.665347	0.861882	0.012704	-0.021965	-0.001105
761	3.860303	0.005000	1.605289	9.731520	-1.041727	-0.781444	-0.665457	0.862372	0.014931	-0.010984	0.002197
762	3.865303	0.005000	1.575484	9.776644	-1.026124	-0.781773	-0.665566	0.862861	0.014822	-0.016389	0.002627
763	3.870303	0.005000	1.600940	9.810000	-0.996800	-0.782147	-0.665721	0.863415	0.013717	-0.013300	0.003318
764	3.875303	0.005000	1.648080	9.828849	-0.999849	-0.783683	-0.667037	0.865620	0.008836	-0.010984	0.000131
765	3.880303	0.005000	1.675061	9.863963	-0.941760	-0.785219	-0.668354	0.867825	0.020132	-0.015559	0.013107
766	3.885303	0.005000	1.623507	9.795333	-0.941760	-0.786755	-0.669670	0.870030	0.010216	-0.009348	0.001352
767	3.890303	0.005000	1.687320	9.832635	-0.997605	-0.788291	-0.670987	0.872235	0.011126	-0.023282	-0.000633
768	3.895303	0.005000	1.685656	9.869692	-1.020240	-0.789826	-0.672303	0.874441	0.012826	-0.009162	-0.002420
769	3.900303	0.005000	1.627120	9.828280	-1.114321	-0.791362	-0.673620	0.876646	-0.000143	-0.013494	0.002580
770	3.905303	0.005000	1.624981	9.856199	-1.114861	-0.792898	-0.674936	0.878851	0.001455	-0.017877	0.009614
771	3.910303	0.005000	1.569600	9.863167	-1.045553	-0.794434	-0.676253	0.881056	0.006279	-0.013957	0.003936
772	3.915303	0.005000	1.569600	9.837257	-0.992983	-0.795970	-0.677569	0.883261	0.018125	-0.018624	0.003367
773	3.920303	0.005000	1.549498	9.750658	-0.981000	-0.797506	-0.678885	0.885466	0.013004	-0.014665	0.005534
774	3.925303	0.005000	1.640547	9.841707	-1.035307	-0.799042	-0.680202	0.887671	0.022218	-0.004991	0.003990
775	3.930303	0.005000	1.619277	9.849240	-1.098720	-0.800577	-0.681518	0.889876	0.016618	-0.014793	0.002668
776	3.935303	0.005000	1.716848	9.803526	-1.134723	-0.802113	-0.682835	0.892081	0.010710	-0.005164	0.002817
777	3.940303	0.005000	1.686463	9.732377	-0.944332	-0.802843	-0.683345	0.892591	0.012688	-0.013522	-0.000759
778	3.945303	0.005000	1.571773	9.808913	-1.021327	-0.802514	-0.682796	0.890876	0.002380	-0.010883	-0.002491
779	3.950303	0.005000	1.566109	9.816981	-1.173709	-0.802184	-0.682248	0.889161	0.008527	-0.004356	0.005173
780	3.955303	0.005000	1.496553	9.815433	-1.036539	-0.801855	-0.681699	0.887446	0.012849	-0.008209	-0.003027
781	3.960303	0.005000	1.632402	9.841401	-1.216486	-0.801526	-0.681151	0.885731	0.016052	0.000718	-0.000776
782	3.965303	0.005000	1.677185	9.810000	-1.089886	-0.801197	-0.680602	0.884016	0.024502	-0.013690	-0.001059
783	3.970303	0.005000	1.726560	9.810000	-1.032437	-0.800868	-0.680053	0.882301	0.018217	-0.011485	0.002839
784	3.975303	0.005000	1.676943	9.820377	-1.098720	-0.800539	-0.679505	0.880586	0.022809	-0.013561	0.005794
785	3.980303	0.005000	1.608840	9.787310	-1.127549	-0.800209	-0.678956	0.878871	0.010774	-0.007316	-0.005588
786	3.985303	0.005000	1.649835	9.826988	-1.096965	-0.799880	-0.678408	0.877156	0.018368	-0.008121	-0.007768
787	3.990303	0.005000	1.666414	9.909386	-1.114483	-0.799551	-0.677859	0.875441	0.020657	-0.010847	-0.002004
788	3.995303	0.005000	1.648080	9.888480	-1.137960	-0.799222	-0.677311	0.873726	0.007993	-0.007311	0.002382
789	4.000303	0.005000	1.606145	9.874502	-1.087436	-0.798893	-0.676762	0.872011	0.010500	-0.012133	0.007551
790	4.005303	0.005000	1.624940	9.916150	-1.087150	-0.798564	-0.676214	0.870296	0.002359	-0.012456	-0.003432
791	4.010303	0.005000	1.559974	9.859601	-1.029866	-0.796964	-0.675302	0.869797	0.012615	-0.011905	-0.004342
792	4.015303	0.005000	1.544782	9.802789	-1.009844	-0.795100	-0.674315	0.869552	0.003651	-0.008267	0.003031
793	4.020303	0.005000	1.687320	9.810000	-1.211160	-0.793236	-0.673329	0.869308	0.009393	-0.008910	0.007029
794	4.025303	0.005000	1.687320	9.770760	-1.023103	-0.791372	-0.672342	0.869063	0.011445	-0.013034	0.005401
795	4.030303	0.005000	1.647172	9.772575	-1.059480	-0.789507	-0.671355	0.868818	0.011690	-0.009871	0.002357
796	4.035303	0.005000	1.646595	9.811485	-1.134990	-0.787643	-0.670368	0.868573	0.013259	-0.025024	0.000911
797	4.040303	0.005000	1.608840	9.774189	-1.069768	-0.785779	-0.669381	0.868328	0.011012	-0.010939	-0.002817
798	4.045303	0.005000	1.569600	9.804154	-0.914212	-0.783915	-0.668394	0.868083	0.015190	-0.014684	-0.006217
799	4.050303	0.005000	1.569600	9.833660	-1.043900	-0.782051	-0.667407	0.867838	0.016470	-0.015398	0.003013
800	4.055303	0.005000	1.569600	9.849240	-1.040633	-0.780187	-0.666421	0.867593	0.014802	-0.008522	0.000623
801	4.060303	0.005000	1.608840	9.888480	-1.005930	-0.778322	-0.665434	0.867349	0.014900	-0.008999	-0.010945
802	4.065303	0.005000	1.623394	9.770760	-1.034794	-0.776458	-0.664447	0.867104	0.019346	-0.004579	-0.000919
803	4.070303	0.005000	1.704081	9.826761	-1.087677	-0.774594	-0.663460	0.866859	0.014905	-0.018228	0.011301
804	4.075303	0.005000	1.685896	9.791092	-1.040572	-0.773205	-0.662663	0.866534	0.008261	-0.010073	-0.002429
805	4.080303	0.005000	1.669399	9.785284	-1.080799	-0.773535	-0.662553	0.865922	0.002908	-0.008789	0.002700
806	4.085303	0.005000	1.624818	9.872502	-1.130675	-0.773864	-0.662444	0.865309	0.011700	-0.013434	0.000822
807	4.090303	0.005000	1.595275	9.797890	-1.162181	-0.774193	-0.662334	0.864696	0.006377	-0.008174	0.008083
808	4.095303	0.005000	1.564850	9.888480	-0.930263	-0.774522	-0.662224	0.864084	0.009950	-0.008526	0.007330
809	4.100303	0.005000	1.608840	9.810000	-1.029457	-0.774851	-0.662114	0.863471	0.008372	-0.006720	0.004481
810	4.105303	0.005000	1.687320	9.874109	-0.963316	-0.775180	-0.662005	0.862859	0.011617	-0.011921	0.001232
811	4.110303	0.005000	1.692187	9.883613	-1.054613	-0.775509	-0.661895	0.862246	0.012052	-0.010443	0.004465
812	4.115303	0.005000	1.642301	9.882701	-1.065259	-0.775839	-0.661785	0.861633	0.011828	-0.009048	-0.001444
813	4.120303	0.005000	1.530865	9.849745	-1.098720	-0.776168	-0.661676	0.861021	0.007886	-0.010413	0.002388
814	4.125303	0.005000	1.569600	9.888480	-1.023117	-0.776497	-0.661566	0.860408	0.006576	-0.003812	-0.003766
815	4.130303	0.005000	1.601154	9.696123	-0.945603	-0.776826	-0.661456	0.859796	-0.001359	-0.009831	0.003312
816	4.135303	0.005000	1.575787	9.816187	-1.014053	-0.777155	-0.661346	0.859183	0.006414	-0.005777	0.006665
817	4.140303	0.005000	1.491120	9.832834	-1.113351	-0.777484	-0.661237	0.858571	0.013462	-0.006766	0.001068
818	4.145303	0.005000	1.559117	9.909446	-1.088237	-0.777881	-0.661530	0.858183	0.017789	-0.014455	0.008504
819	4.150303	0.005000	1.714006	9.822554	-1.032794	-0.778319	-0.662078	0.857938	0.001962	-0.011312	0.002576
820	4.155303	0.005000	1.706622	9.785554	-1.035034	-0.778758	-0.662626	0.857693	0.006110	-0.018587	0.004827
821	4.160303	0.005000	1.726560	9.866142	-1.042578	-0.779196	-0.663175	0.857448	0.001234	-0.008087	0.001453
822	4.165303	0.005000	1.628154	9.770148	-0.981000	-0.779635	-0.663723	0.857204	0.005188	-0.009643	0.001841
823	4.170303	0.005000	1.644805	9.788742	-0.977725	-0.780074	-0.664271	0.856959	0.012236	-0.014100	0.004130
824	4.175303	0.005000	1.554030	9.778859	-1.043910	-0.780512	-0.664820	0.856714	0.014665	-0.011457	-0.003039
825	4.180303	0.005000	1.608840	9.758772	-1.045854	-0.780951	-0.665368	0.856469	0.003054	-0.014891	0.000228
826	4.185303	0.005000	1.642494	9.798782	-1.098720	-0.781389	-0.665916	0.856224	0.009791	-0.009414	-0.007179
827	4.190303	0.005000	1.657354	9.830691	-0.971726	-0.781828	-0.666464	0.855979	0.017747	-0.014058	0.001487
828	4.195303	0.005000	1.694179	9.796282	-1.033958	-0.782267	-0.667013	0.855734	0.009739	-0.016159	0.008501
829	4.200303	0.005000	1.652995	9.702109	-1.069309	-0.782705	-0.667561	0.855489	0.011327	-0.010130	0.002522
830	4.205303	0.005000	1.645570	9.888480	-1.056970	-0.783144	-0.668109	0.855245	0.020145	-0.009722	0.006781
831	4.210303	0.005000	1.647514	9.849240	-0.943459	-0.783582	-0.668656	0.855000	0.016097	-0.005832	0.010405
832	4.215303	0.005000	1.608840	9.849240	-1.059480	-0.783362	-0.668218	0.855000	0.023919	-0.013235	0.001523
833	4.220303	0.005000	1.675934	9.813795	-0.981000	-0.783143	-0.667779	0.855000	0.011098	-0.011862	0.000201
834	4.225303	0.005000	1.687320	9.849240	-0.999380	-0.782924	-0.667340	0.855000	0.018174	-0.009647	0.001252
835	4.230303	0.005000	1.608840	9.826284	-1.012098	-0.782704	-0.666901	0.855000	0.011661	-0.008882	0.007022
836	4.235303	0.005000	1.697743	9.760337	-1.067452	-0.782485	-0.666462	0.855000	0.014618	-0.008648	0.001937
837	4.240303	0.005000	1.633826	9.770760	-1.032733	-0.782265	-0.666024	0.855000	0.017715	-0.009926	0.007636
838	4.245303	0.005000	1.648080	9.795094	-1.005334	-0.782046	-0.665585	0.855000	0.007101	-0.000637	-0.003894
839	4.250303	0.005000	1.603300	9.776300	-1.037090	-0.781826	-0.665146	0.855000	0.015310	-0.008756	-0.001038
840	4.255303	0.005000	1.511100	9.790020	-1.059480	-0.781607	-0.664707	0.855000	0.003086	-0.003989	-0.002746
841	4.260303	0.005000	1.587420	9.827820	-0.981000	-0.781388	-0.664268	0.855000	0.014940	-0.008375	-0.000379
842	4.265303	0.005000	1.718571	9.825626	-1.027877	-0.781168	-0.663829	0.855000	0.003125	-0.007987	0.004068
843	4.270303	0.005000	1.687320	9.810000	-1.100051	-0.780949	-0.663391	0.855000	0.007186	-0.000538	-0.000375
844	4.275303	0.005000	1.687320	9.860508	-1.121257	-0.780729	-0.662952	0.855000	0.010800	-0.005601	0.002449
845	4.280303	0.005000	1.668895	9.810000	-1.128748	-0.780553	-0.662774	0.855292	0.018326	-0.008856	0.006030
846	4.285303	0.005000	1.576518	9.784595	-1.149530	-0.780444	-0.662994	0.856027	0.016638	-0.011486	0.009814
847	4.290303	0.005000	1.691821	9.810000	-1.050478	-0.780334	-0.663213	0.856762	0.011629	-0.011920	0.005349
848	4.295303	0.005000	1.611411	9.807429	-1.020240	-0.780224	-0.663433	0.857498	0.010591	-0.002759	0.001116
849	4.300303	0.005000	1.569600	9.809847	-1.137807	-0.780114	-0.663652	0.858233	0.014588	-0.010081	0.005113
850	4.305303	0.005000	1.607049	9.770760	-1.098720	-0.780005	-0.663872	0.858968	0.008290	-0.005695	0.007697
851	4.310303	0.005000	1.722365	9.814195	-0.945955	-0.779895	-0.664091	0.859704	0.010636	-0.013115	0.001232
852	4.315303	0.005000	1.588018	9.803861	-1.086441	-0.779785	-0.664311	0.860439	0.017101	-0.013445	0.009753
853	4.320303	0.005000	1.543935	9.849240	-0.998110	-0.779675	-0.664530	0.861175	0.008480	-0.009516	-0.004529
854	4.325303	0.005000	1.569600	9.781591	-1.009409	-0.779565	-0.664750	0.861910	0.017978	-0.010795	0.006693
855	4.330303	0.005000	1.635174	9.796573	-1.099241	-0.779456	-0.664969	0.862645	0.012531	-0.007476	0.010176
856	4.335303	0.005000	1.623982	9.834098	-1.044338	-0.779346	-0.665189	0.863381	0.006817	-0.008451	0.004580
857	4.340303	0.005000	1.608840	9.893194	-1.076743	-0.779236	-0.665408	0.864116	0.002145	-0.006072	-0.002877
858	4.345303	0.005000	1.608947	9.868914	-1.059480	-0.779126	-0.665628	0.864851	0.009011	-0.008399	-0.003373
859	4.350303	0.005000	1.508531	9.866651	-1.020240	-0.778929	-0.665759	0.864609	0.003150	-0.007475	0.004453
860	4.355303	0.005000	1.491120	9.794788	-0.987397	-0.778710	-0.665869	0.864119	0.015868	-0.005794	-0.006921
861	4.360303	0.005000	1.556591	9.862249	-1.072595	-0.778490	-0.665979	0.863629	0.013671	-0.015646	0.007966
862	4.365303	0.005000	1.698175	9.849240	-1.105395	-0.778271	-0.666088	0.863140	0.011057	-0.006775	0.005598
863	4.370303	0.005000	1.560781	9.879661	-1.037878	-0.778052	-0.666198	0.862650	0.020529	-0.009984	-0.004684
864	4.375303	0.005000	1.602333	9.810000	-1.026747	-0.777832	-0.666308	0.862160	0.010390	-0.004892	0.008546
865	4.380303	0.005000	1.583124	9.844732	-1.029256	-0.777613	-0.666417	0.861670	0.008056	-0.007218	-0.003752
866	4.385303	0.005000	1.613156	9.849240	-1.020240	-0.777394	-0.666527	0.861180	0.014334	-0.010766	0.008552
867	4.390303	0.005000	1.648080	9.849664	-1.020664	-0.777175	-0.666636	0.860691	0.004077	-0.008038	-0.000071
868	4.395303	0.005000	1.611044	9.890684	-1.061684	-0.776955	-0.666746	0.860201	0.009767	-0.007126	0.002746
869	4.400303	0.005000	1.687320	9.814147	-0.871575	-0.776736	-0.666856	0.859711	0.011478	-0.005715	0.003084
870	4.405303	0.005000	1.654633	9.764207	-1.046374	-0.776517	-0.666965	0.859221	0.011149	-0.008545	-0.000612
871	4.410303	0.005000	1.608840	9.779625	-0.950625	-0.776297	-0.667075	0.858731	0.012053	-0.013459	0.004361
872	4.415303	0.005000	1.591424	9.820912	-1.009328	-0.776119	-0.667185	0.858310	0.008756	-0.003462	0.000408
873	4.420303	0.005000	1.687320	9.836079	-1.111639	-0.776119	-0.667294	0.858188	0.010766	-0.012523	0.005345
874	4.425303	0.005000	1.624104	9.825264	-1.074744	-0.776119	-0.667404	0.858065	0.007248	-0.008975	0.006972
875	4.430303	0.005000	1.652376	9.792528	-1.037712	-0.776119	-0.667514	0.857943	0.015167	-0.011716	0.001611
876	4.435303	0.005000	1.608840	9.849240	-1.020240	-0.776119	-0.667623	0.857820	0.018937	-0.000916	-0.003360
877	4.440303	0.005000	1.643274	9.832023	-1.037457	-0.776119	-0.667733	0.857698	0.006520	-0.002310	-0.002405
878	4.445303	0.005000	1.656773	9.833966	-1.074754	-0.776119	-0.667843	0.857575	0.020509	-0.003524	0.008155
879	4.450303	0.005000	1.595979	9.783621	-1.085859	-0.776119	-0.667953	0.857453	0.011215	-0.003820	0.008411
880	4.455303	0.005000	1.597924	9.849240	-1.048564	-0.776119	-0.668062	0.857330	0.007944	-0.007842	0.007735
881	4.460303	0.005000	1.555887	9.810000	-1.028749	-0.776119	-0.668172	0.857208	0.008439	-0.006082	0.003545
882	4.465303	0.005000	1.621971	9.888480	-0.941760	-0.776119	-0.668282	0.857086	0.007173	-0.009139	0.001325
883	4.470303	0.005000	1.612989	9.884331	-0.989298	-0.776119	-0.668392	0.856963	0.007802	-0.014158	0.011220
884	4.475303	0.005000	1.606662	9.847062	-1.061658	-0.776119	-0.668501	0.856841	0.014458	-0.015484	-0.003568
885	4.480303	0.005000	1.608641	9.731918	-1.098720	-0.776119	-0.668611	0.856718	0.016801	-0.012447	-0.001369
886	4.485303	0.005000	1.687320	9.773347	-0.983587	-0.776311	-0.668465	0.856738	0.006372	-0.014063	-0.003267
887	4.490303	0.005000	1.648080	9.874798	-0.946321	-0.776640	-0.668136	0.856861	0.012069	-0.011580	0.001057
888	4.495303	0.005000	1.537326	9.777726	-0.967068	-0.776969	-0.667807	0.856983	0.010081	-0.007023	0.012211
889	4.500303	0.005000	1.591019	9.888480	-0.950671	-0.777298	-0.667478	0.857106	0.018445	-0.007188	-0.008506
890	4.505303	0.005000	1.592228	9.888480	-1.098720	-0.777627	-0.667149	0.857228	0.017890	-0.013834	0.007412
891	4.510303	0.005000	1.634821	9.823259	-0.981000	-0.777956	-0.666820	0.857351	0.016647	-0.008102	-0.000832
892	4.515303	0.005000	1.655977	9.786432	-1.028137	-0.778286	-0.666490	0.857473	0.014449	-0.004318	0.005771
893	4.520303	0.005000	1.648080	9.806490	-1.045124	-0.778615	-0.666161	0.857596	0.000607	-0.011666	-0.000542
894	4.525303	0.005000	1.569600	9.830026	-1.157986	-0.778944	-0.665832	0.857718	0.012982	-0.008416	0.003985
895	4.530303	0.005000	1.524728	9.810000	-1.093088	-0.779273	-0.665503	0.857840	0.009241	-0.009491	0.004860
896	4.535303	0.005000	1.623700	9.795140	-1.098720	-0.779602	-0.665174	0.857963	0.004263	-0.007935	0.005085
897	4.540303	0.005000	1.555254	9.783207	-1.034586	-0.779931	-0.664845	0.858085	0.015961	-0.011037	0.006553
898	4.545303	0.005000	1.676943	9.830755	-0.902520	-0.780260	-0.664516	0.858208	0.007487	-0.003524	0.009544
899	4.550303	0.005000	1.718464	9.841144	-1.020240	-0.780590	-0.664186	0.858330	0.025753	-0.008561	0.001265
900	4.555303	0.005000	1.660242	9.849240	-0.974919	-0.781026	-0.664393	0.858213	0.015077	-0.000133	0.001251
901	4.560303	0.005000	1.655551	9.923984	-0.981000	-0.781465	-0.664613	0.858091	0.008105	-0.010643	0.000893
902	4.565303	0.005000	1.726560	9.811331	-1.018909	-0.781904	-0.664832	0.857968	0.015471	-0.007716	-0.003196
903	4.570303	0.005000	1.572050	9.849240	-0.981000	-0.782342	-0.665052	0.857846	0.006866	0.005043	-0.002825
904	4.575303	0.005000	1.569600	9.852256	-1.020240	-0.782781	-0.665271	0.857723	0.017831	-0.015772	0.001000
905	4.580303	0.005000	1.564640	9.814960	-1.025200	-0.783220	-0.665491	0.857601	0.014351	-0.004948	0.001076
906	4.585303	0.005000	1.625950	9.827110	-1.074233	-0.783659	-0.665710	0.857479	0.013149	-0.007896	-0.000188
907	4.590303	0.005000	1.608840	9.908387	-1.059480	-0.784098	-0.665929	0.857356	0.017474	-0.008668	0.007610
908	4.595303	0.005000	1.636352	9.927720	-1.004455	-0.784537	-0.666149	0.857234	0.014268	-0.006615	0.003674
909	4.600303	0.005000	1.662058	9.902458	-1.034218	-0.784975	-0.666368	0.857111	0.014339	-0.006311	0.006877
910	4.605303	0.005000	1.655151	9.802929	-0.981000	-0.785414	-0.666588	0.856989	0.016103	-0.003632	0.005620
911	4.610303	0.005000	1.705815	9.770760	-1.001745	-0.785853	-0.666807	0.856866	0.032695	-0.008655	0.001888
912	4.615303	0.005000	1.668744	9.791424	-1.020240	-0.786292	-0.667026	0.856744	0.027817	0.000576	0.003031
913	4.620303	0.005000	1.602382	9.770760	-1.013782	-0.787098	-0.667736	0.857580	0.015272	-0.009727	-0.000352
914	4.625303	0.005000	1.569600	9.799320	-1.113000	-0.788524	-0.669272	0.860029	0.004516	-0.017776	0.006770
915	4.630303	0.005000	1.620874	9.810000	-1.125926	-0.789950	-0.670807	0.862478	0.013920	0.001109	-0.003920
916	4.635303	0.005000	1.579226	9.770760	-1.029866	-0.791375	-0.672342	0.864927	0.013175	-0.005275	0.002848
917	4.640303	0.005000	1.632892	9.746708	-1.020240	-0.792801	-0.673877	0.867376	0.016995	-0.012474	0.000655
918	4.645303	0.005000	1.574880	9.872640	-0.968160	-0.794226	-0.675413	0.869825	0.013602	-0.012509	0.000147
919	4.650303	0.005000	1.572463	9.812863	-1.020240	-0.795652	-0.676948	0.872274	0.007941	-0.007219	0.011298
920	4.655303	0.005000	1.608840	9.849240	-0.981000	-0.797077	-0.678483	0.874723	0.009549	-0.003368	-0.000699
921	4.660303	0.005000	1.646595	9.886995	-0.943245	-0.798503	-0.680018	0.877172	0.012719	-0.010443	0.004296
922	4.665303	0.005000	1.576459	9.777619	-0.912808	-0.799928	-0.681554	0.879621	0.015758	-0.005088	-0.004654
923	4.670303	0.005000	1.530360	9.743212	-1.047788	-0.801354	-0.683089	0.882070	0.011330	-0.017541	0.007143
924	4.675303	0.005000	1.577390	9.802210	-0.988790	-0.802780	-0.684624	0.884519	0.022531	-0.015297	0.004299
925	4.680303	0.005000	1.569600	9.849240	-0.951957	-0.804205	-0.686159	0.886968	0.017219	-0.010365	0.001492
926	4.685303	0.005000	1.582065	9.810000	-1.047015	-0.805631	-0.687695	0.889417	0.013713	-0.015124	0.002911
927	4.690303	0.005000	1.633526	9.810000	-1.137960	-0.804800	-0.686722	0.888413	0.007456	-0.007424	0.003591
928	4.695303	0.005000	1.625804	9.866204	-1.120996	-0.803264	-0.684967	0.886331	0.009622	-0.016563	0.010790
929	4.700303	0.005000	1.687320	9.868148	-1.078388	-0.801728	-0.683212	0.884248	0.015972	-0.020230	0.006090
930	4.705303	0.005000	1.630159	9.867161	-1.095322	-0.800192	-0.681456	0.882165	0.015373	-0.016920	0.006690
931	4.710303	0.005000	1.710767	9.841102	-1.122651	-0.798656	-0.679701	0.880083	0.016009	-0.017623	0.007160
932	4.715303	0.005000	1.608840	9.849240	-1.060934	-0.797120	-0.677946	0.878000	0.021859	-0.008851	0.005019
933	4.720303	0.005000	1.648080	9.860401	-1.020240	-0.795585	-0.676190	0.875918	0.017054	-0.012926	-0.001527
934	4.725303	0.005000	1.521143	9.800783	-1.041047	-0.794049	-0.674435	0.873835	0.020204	-0.009754	-0.004068
935	4.730303	0.005000	1.622461	9.810000	-0.999809	-0.792513	-0.672680	0.871752	0.013231	-0.011520	0.006860
936	4.735303	0.005000	1.687320	9.844430	-0.985810	-0.790977	-0.670924	0.869670	0.008575	-0.003095	0.012823
937	4.740303	0.005000	1.721661	9.770760	-1.101170	-0.789441	-0.669169	0.867587	0.005458	-0.006335	-0.000998
938	4.745303	0.005000	1.687320	9.888480	-1.098812	-0.787905	-0.667414	0.865505	0.022382	-0.014509	-0.001502
939	4.750303	0.005000	1.612637	9.888480	-1.177200	-0.786369	-0.665658	0.863422	0.012464	-0.005693	-0.006134
940	4.755303	0.005000	1.608840	9.888480	-1.142276	-0.785023	-0.664179	0.861744	0.007805	-0.016741	0.003062
941	4.760303	0.005000	1.615099	9.789538	-1.026499	-0.784694	-0.664179	0.862234	0.004102	-0.008668	0.003104
942	4.765303	0.005000	1.678654	9.831909	-1.076811	-0.784365	-0.664179	0.862724	0.009270	-0.013188	0.001213
943	4.770303	0.005000	1.619792	9.888480	-1.042144	-0.784036	-0.664179	0.863213	0.005315	-0.003773	0.004936
944	4.775303	0.005000	1.622032	9.888480	-1.085696	-0.783707	-0.664179	0.863703	0.008754	-0.016633	0.000258
945	4.780303	0.005000	1.678945	9.912287	-1.129585	-0.783378	-0.664179	0.864193	0.010071	-0.020010	0.007062
946	4.785303	0.005000	1.665718	9.888480	-1.120322	-0.783049	-0.664179	0.864683	0.012421	-0.007065	0.002405
947	4.790303	0.005000	1.667861	9.829459	-1.039699	-0.782720	-0.664179	0.865172	0.019107	-0.014377	-0.004681
948	4.795303	0.005000	1.626146	9.866546	-1.024869	-0.782391	-0.664179	0.865662	0.009175	-0.010395	0.005196
949	4.800303	0.005000	1.569600	9.903585	-0.981000	-0.782062	-0.664179	0.866152	0.011167	-0.007318	-0.011736
950	4.805303	0.005000	1.581129	9.927720	-0.954452	-0.781733	-0.664179	0.866642	0.018869	-0.011788	0.011971
951	4.810303	0.005000	1.698068	9.906225	-1.020240	-0.781404	-0.664179	0.867131	0.013767	-0.013632	-0.006047
952	4.815303	0.005000	1.639739	9.840899	-1.076162	-0.781075	-0.664179	0.867621	0.017076	-0.012989	0.005775
953	4.820303	0.005000	1.569600	9.882157	-1.053157	-0.780746	-0.664179	0.868111	0.020664	-0.016389	-0.004992
954	4.825303	0.005000	1.499081	9.849240	-1.059480	-0.780357	-0.664239	0.868199	0.013358	-0.018058	-0.003621
955	4.830303	0.005000	1.569600	9.886904	-1.061056	-0.779918	-0.664349	0.867954	0.010976	-0.011977	0.001729
956	4.835303	0.005000	1.647345	9.849240	-1.137593	-0.779480	-0.664458	0.867709	0.015320	-0.011989	-0.000849
957	4.840303	0.005000	1.533113	9.849240	-1.062233	-0.779041	-0.664568	0.867464	0.010992	-0.011327	-0.000872
958	4.845303	0.005000	1.569600	9.814729	-0.981000	-0.778602	-0.664678	0.867219	0.009296	-0.009066	0.001657
959	4.850303	0.005000	1.523225	9.913451	-0.981000	-0.778163	-0.664788	0.866974	0.021726	-0.013013	-0.007274
960	4.855303	0.005000	1.599401	9.897919	-1.039119	-0.777724	-0.664897	0.866729	0.021713	-0.012561	0.004558
961	4.860303	0.005000	1.675837	9.782243	-1.052789	-0.777285	-0.665007	0.866484	0.008519	-0.011761	-0.000402
962	4.865303	0.005000	1.673424	9.756864	-1.101169	-0.776847	-0.665117	0.866239	0.012496	-0.014345	0.006209
963	4.870303	0.005000	1.687320	9.817560	-0.996840	-0.776408	-0.665227	0.865994	0.009394	-0.004340	-0.006109
964	4.875303	0.005000	1.587850	9.807259	-1.001990	-0.775969	-0.665336	0.865749	0.003722	-0.009651	-0.000652
965	4.880303	0.005000	1.627658	9.810000	-1.059480	-0.775530	-0.665446	0.865504	0.013221	-0.005922	0.000214
966	4.885303	0.005000	1.586236	9.832604	-1.059480	-0.775091	-0.665556	0.865259	0.009548	-0.016274	0.000520
967	4.890303	0.005000	1.544882	9.849240	-1.063806	-0.774653	-0.665666	0.865014	0.016034	-0.011665	-0.000263
968	4.895303	0.005000	1.608840	9.810000	-1.123278	-0.774730	-0.665569	0.865346	0.011854	-0.004058	0.001678
969	4.900303	0.005000	1.571203	9.780971	-1.127749	-0.774840	-0.665459	0.865714	0.021472	-0.011727	-0.001107
970	4.905303	0.005000	1.703175	9.810000	-1.067408	-0.774950	-0.665349	0.866081	0.017898	-0.009922	-0.000837
971	4.910303	0.005000	1.710025	9.793465	-1.059480	-0.775059	-0.665239	0.866449	0.015195	-0.015050	-0.005944
972	4.915303	0.005000	1.615975	9.806433	-1.123691	-0.775169	-0.665130	0.866816	0.025573	-0.013165	-0.003355
973	4.920303	0.005000	1.689646	9.808837	-1.099883	-0.775279	-0.665020	0.867184	0.027553	-0.018645	0.004425
974	4.925303	0.005000	1.650422	9.770760	-1.099501	-0.775388	-0.664910	0.867551	0.020610	-0.021954	0.001863
975	4.930303	0.005000	1.602471	9.770760	-1.137960	-0.775498	-0.664800	0.867919	0.015829	-0.005887	-0.005691
976	4.935303	0.005000	1.648080	9.843703	-1.154570	-0.775608	-0.664691	0.868286	0.024700	-0.016361	0.001672
977	4.940303	0.005000	1.608840	9.825090	-1.042875	-0.775717	-0.664581	0.868654	0.019839	-0.016879	0.006040
978	4.945303	0.005000	1.638247	9.770760	-1.196775	-0.775827	-0.664471	0.869021	0.016787	-0.015229	0.006477
979	4.950303	0.005000	1.636184	9.782656	-1.126064	-0.775937	-0.664361	0.869389	0.022860	-0.013617	0.000043
980	4.955303	0.005000	1.558979	9.824309	-1.084411	-0.776046	-0.664252	0.869756	0.016600	-0.014834	-0.009104
981	4.960303	0.005000	1.615042	9.787279	-1.082201	-0.776119	-0.664179	0.869670	0.014790	-0.018375	0.001269
982	4.965303	0.005000	1.627503	9.830577	-1.098720	-0.776119	-0.664179	0.868690	0.023856	-0.011783	-0.002199
983	4.970303	0.005000	1.608840	9.830830	-1.119550	-0.776119	-0.664179	0.867710	0.032570	-0.020073	0.001081
984	4.975303	0.005000	1.585822	9.810000	-1.059480	-0.776119	-0.664179	0.866730	0.023257	-0.021986	-0.000832
985	4.980303	0.005000	1.633966	9.781773	-0.927646	-0.776119	-0.664179	0.865750	0.017018	-0.011147	0.001433
986	4.985303	0.005000	1.636215	9.798135	-0.992865	-0.776119	-0.664179	0.864770	0.020111	-0.008600	-0.001030
987	4.990303	0.005000	1.637214	9.800542	-0.981000	-0.776119	-0.664179	0.863790	0.016974	-0.003639	0.001131
988	4.995303	0.005000	1.648080	9.739037	-1.059480	-0.776119	-0.664179	0.862810	0.021089	-0.014884	-0.002135
989	5.000303	0.005000	1.642968	9.741743	-1.054368	-0.776119	-0.664179	0.861830	0.017210	-0.010120	-0.006414
990	5.005303	0.005000	1.608840	9.806869	-1.059480	-0.776119	-0.664179	0.860850	0.012085	-0.010092	0.003559
991	5.010303	0.005000	1.570350	9.772260	-1.097970	-0.776119	-0.664179	0.859870	0.007419	-0.012520	0.005017
992	5.015303	0.005000	1.571234	9.849240	-1.097086	-0.776119	-0.664179	0.858889	0.006094	-0.001676	0.000703
993	5.020303	0.005000	1.573198	9.817196	-1.102318	-0.776119	-0.664179	0.857909	0.011135	-0.013104	0.004315
994	5.025303	0.005000	1.608840	9.770760	-1.210495	-0.776119	-0.664179	0.856929	0.007676	-0.005090	-0.005634
995	5.030303	0.005000	1.656038	9.810000	-1.114636	-0.776520	-0.664420	0.856936	0.013331	-0.008511	0.001579
996	5.035303	0.005000	1.579841	9.799759	-1.040722	-0.777069	-0.664749	0.857303	0.020938	-0.008625	0.008474
997	5.040303	0.005000	1.594219	9.783069	-1.135648	-0.777617	-0.665078	0.857671	0.014596	-0.008705	-0.002466
998	5.045303	0.005000	1.633357	9.810000	-1.186995	-0.778165	-0.665407	0.858038	0.014375	-0.010751	-0.004662
999	5.050303	0.005000	1.648080	9.832313	-1.177200	-0.778714	-0.665736	0.858405	0.025950	0.002122	-0.009610
1000	5.055303	0.005000	1.706396	9.869404	-1.099807	-0.779262	-0.666065	0.858773	0.008385	-0.003733	-0.002498
1001	5.060303	0.005000	1.648080	9.791999	-1.077481	-0.779810	-0.666394	0.859140	0.011525	0.002064	-0.000809
1002	5.065303	0.005000	1.608840	9.794185	-1.208234	-0.780359	-0.666723	0.859507	0.007335	-0.008112	0.004483
1003	5.070303	0.005000	1.557173	9.888480	-1.033646	-0.780907	-0.667052	0.859875	0.003409	-0.009054	-0.003761
1004	5.075303	0.005000	1.569600	9.877017	-1.204977	-0.781455	-0.667381	0.860242	0.003905	-0.006414	0.001635
1005	5.080303	0.005000	1.491120	9.918672	-1.207392	-0.782004	-0.667710	0.860610	0.016385	-0.009064	0.007240
1006	5.085303	0.005000	1.687320	9.874272	-1.098720	-0.782552	-0.668039	0.860977	0.011764	-0.010769	-0.004142
1007	5.090303	0.005000	1.622935	9.883782	-1.034335	-0.783100	-0.668368	0.861344	0.020526	-0.014866	-0.003973
1008	5.095303	0.005000	1.723837	9.849240	-1.095997	-0.783529	-0.668604	0.861682	0.017432	-0.008303	0.004611
1009	5.100303	0.005000	1.648417	9.771097	-1.019903	-0.783090	-0.668165	0.861804	0.017993	-0.010929	0.002921
1010	5.105303	0.005000	1.687320	9.772367	-1.018633	-0.782651	-0.667726	0.861927	0.003551	-0.016165	0.001278
1011	5.110303	0.005000	1.660114	9.818023	-0.989023	-0.782212	-0.667287	0.862049	0.003339	-0.013164	0.001444
1012	5.115303	0.005000	1.563247	9.836533	-1.106193	-0.781773	-0.666848	0.862172	0.012498	-0.017532	0.006964
1013	5.120303	0.005000	1.586343	9.765006	-1.011869	-0.781334	-0.666409	0.862294	0.007580	-0.007151	0.000190
1014	5.125303	0.005000	1.619618	9.742298	-1.077163	-0.780895	-0.665970	0.862417	0.001784	-0.014075	-0.000097
1015	5.130303	0.005000	1.582640	9.836200	-1.046319	-0.780456	-0.665531	0.862539	0.011862	-0.014764	0.005447
1016	5.135303	0.005000	1.711424	9.873344	-1.098720	-0.780017	-0.665092	0.862662	0.011855	-0.009367	0.007616
1017	5.140303	0.005000	1.753033	9.871144	-1.081384	-0.779578	-0.664653	0.862784	0.006156	-0.013132	0.002282
1018	5.145303	0.005000	1.706527	9.849240	-1.138235	-0.779139	-0.664214	0.862907	0.007118	-0.006621	-0.003749
1019	5.150303	0.005000	1.552254	9.866586	-1.189999	-0.778700	-0.663775	0.863030	0.009011	-0.019857	-0.003084
1020	5.155303	0.005000	1.593438	9.833838	-1.192602	-0.778261	-0.663336	0.863152	0.006792	-0.015356	0.001519
1021	5.160303	0.005000	1.582593	9.771020	-1.072733	-0.777821	-0.662896	0.863275	0.004434	-0.015957	-0.004913
1022	5.165303	0.005000	1.626236	9.849240	-1.048558	-0.777612	-0.662802	0.863077	-0.002903	-0.022914	0.005254
1023	5.170303	0.005000	1.617475	9.879845	-1.107355	-0.777612	-0.663021	0.862587	-0.001976	-0.013478	0.001547
1024	5.175303	0.005000	1.660538	9.849240	-1.092491	-0.777612	-0.663240	0.862097	-0.001154	-0.021921	0.003324
1025	5.180303	0.005000	1.678750	9.801430	-0.989570	-0.777612	-0.663460	0.861608	-0.002868	-0.012710	-0.001282
1026	5.185303	0.005000	1.565864	9.772628	-1.022108	-0.777612	-0.663679	0.861118	-0.007106	-0.011514	-0.002559
1027	5.190303	0.005000	1.491120	9.810000	-1.098643	-0.777612	-0.663898	0.860628	0.000404	-0.014982	0.001162
1028	5.195303	0.005000	1.567120	9.810000	-1.172240	-0.777612	-0.664118	0.860138	-0.000672	-0.014019	-0.003604
1029	5.200303	0.005000	1.604415	9.962535	-1.024665	-0.777612	-0.664337	0.859649	0.005803	-0.012161	-0.003273
1030	5.205303	0.005000	1.654921	9.849240	-1.052639	-0.777612	-0.664556	0.859159	0.002974	-0.009581	0.003380
1031	5.210303	0.005000	1.599703	9.879343	-1.189029	-0.777612	-0.664775	0.858669	0.010721	-0.007697	0.003818
1032	5.215303	0.005000	1.681642	9.821187	-1.137960	-0.777612	-0.664995	0.858179	0.009621	-0.004693	0.003420
1033	5.220303	0.005000	1.596791	9.900529	-1.112315	-0.777612	-0.665214	0.857690	0.008094	-0.011282	-0.001852
1034	5.225303	0.005000	1.585140	9.849240	-1.020240	-0.777612	-0.665433	0.857200	0.009671	-0.017646	0.005090
1035	5.230303	0.005000	1.612592	9.866984	-1.037984	-0.777612	-0.665653	0.856710	0.000540	-0.009396	-0.005228
1036	5.235303	0.005000	1.648080	9.829895	-1.117514	-0.777912	-0.665572	0.856555	-0.006504	-0.021458	0.001835
1037	5.240303	0.005000	1.614214	9.748453	-1.053295	-0.778241	-0.665462	0.856433	0.009811	-0.008247	-0.005676
1038	5.245303	0.005000	1.554790	9.912910	-1.025429	-0.778570	-0.665353	0.856310	0.008225	-0.008574	-0.003923
1039	5.250303	0.005000	1.503700	9.810000	-1.098720	-0.778899	-0.665243	0.856188	0.005344	-0.011986	0.003107
1040	5.255303	0.005000	1.521618	9.810000	-1.049314	-0.779228	-0.665133	0.856065	0.006627	-0.007641	-0.000402
1041	5.260303	0.005000	1.617062	9.841018	-1.044905	-0.779557	-0.665024	0.855943	0.006529	-0.013465	0.011314
1042	5.265303	0.005000	1.748353	9.815816	-1.042033	-0.779886	-0.664914	0.855820	0.006141	-0.007676	-0.002686
1043	5.270303	0.005000	1.691192	9.845368	-0.988744	-0.780215	-0.664804	0.855698	0.011912	-0.011060	-0.004728
1044	5.275303	0.005000	1.648080	9.811454	-0.983909	-0.780544	-0.664694	0.855576	0.004428	-0.010508	0.003971
1045	5.280303	0.005000	1.531784	9.810475	-1.020715	-0.780873	-0.664585	0.855453	0.006893	-0.014985	0.004430
1046	5.285303	0.005000	1.648080	9.773652	-1.207763	-0.781202	-0.664475	0.855331	0.012277	-0.012345	0.007946
1047	5.290303	0.005000	1.619308	9.770760	-1.182434	-0.781531	-0.664365	0.855208	0.007757	0.001556	-0.009313
1048	5.295303	0.005000	1.655322	9.763518	-1.130718	-0.781860	-0.664256	0.855086	-0.001621	-0.009319	0.002294
1049	5.300303	0.005000	1.628989	9.839695	-1.079629	-0.782090	-0.664146	0.855037	0.009263	-0.012586	-0.000142
1050	5.305303	0.005000	1.597239	9.837639	-1.098720	-0.782090	-0.664036	0.855159	0.001716	-0.016535	-0.002886
1051	5.310303	0.005000	1.701329	9.835231	-1.059480	-0.782090	-0.663927	0.855282	0.001080	-0.011583	0.002286
1052	5.315303	0.005000	1.671088	9.849240	-1.036472	-0.782090	-0.663817	0.855404	-0.011870	-0.009950	-0.013113
1053	5.320303	0.005000	1.608840	9.851750	-0.999365	-0.782090	-0.663708	0.855527	0.001840	-0.016188	0.006785
1054	5.325303	0.005000	1.550888	9.828712	-0.923048	-0.782090	-0.663598	0.855649	0.014953	-0.004257	0.004018
1055	5.330303	0.005000	1.608840	9.816201	-1.003720	-0.782090	-0.663488	0.855772	0.008814	-0.009068	-0.001689
1056	5.335303	0.005000	1.637642	9.834839	-1.005839	-0.782090	-0.663379	0.855894	0.008184	-0.004644	0.004379
1057	5.340303	0.005000	1.741466	9.822167	-0.968833	-0.782090	-0.663269	0.856017	0.020724	-0.013095	-0.006725
1058	5.345303	0.005000	1.687320	9.819753	-0.990753	-0.782090	-0.663159	0.856139	0.009728	-0.012033	0.006184
1059	5.350303	0.005000	1.718740	9.825779	-1.012420	-0.782090	-0.663050	0.856262	0.012315	-0.010537	0.000555
1060	5.355303	0.005000	1.631867	9.810000	-0.913329	-0.782090	-0.662940	0.856384	0.011368	-0.014361	-0.002532
1061	5.360303	0.005000	1.612259	9.806581	-0.948598	-0.782090	-0.662831	0.856507	0.014605	-0.009173	0.002582
1062	5.365303	0.005000	1.647024	9.734688	-1.097664	-0.782090	-0.662721	0.856629	0.013808	-0.013517	0.000757
1063	5.370303	0.005000	1.608840	9.773453	-1.135267	-0.782771	-0.663368	0.858612	0.020486	-0.007110	0.005072
1064	5.375303	0.005000	1.723254	9.842629	-1.092109	-0.783759	-0.664356	0.861429	0.012299	-0.011233	-0.004357
1065	5.380303	0.005000	1.614482	9.894122	-1.132318	-0.784746	-0.665343	0.864247	0.007545	-0.013744	0.007521
1066	5.385303	0.005000	1.608840	9.856895	-1.059480	-0.785733	-0.666330	0.867065	0.009468	-0.005098	0.009036
1067	5.390303	0.005000	1.579670	9.820070	-0.932731	-0.786721	-0.667318	0.869882	0.009262	-0.012579	0.005993
1068	5.395303	0.005000	1.569600	9.770760	-0.917732	-0.787708	-0.668305	0.872700	-0.001422	-0.006546	0.000743
1069	5.400303	0.005000	1.708111	9.745942	-0.956182	-0.788695	-0.669292	0.875518	-0.016999	-0.005098	-0.002152
1070	5.405303	0.005000	1.642120	9.754120	-0.935800	-0.789683	-0.670280	0.878335	-0.002114	-0.016837	0.002663
1071	5.410303	0.005000	1.629302	9.828778	-1.040702	-0.790670	-0.671267	0.881153	0.000663	-0.010406	0.003420
1072	5.415303	0.005000	1.587651	9.795088	-0.999051	-0.791657	-0.672254	0.883971	0.000207	-0.010651	0.010542
1073	5.420303	0.005000	1.671391	9.810000	-1.036169	-0.792645	-0.673242	0.886788	0.007450	-0.019005	0.001213
1074	5.425303	0.005000	1.648080	9.810000	-0.943628	-0.793632	-0.674229	0.889606	0.012418	-0.009124	0.004409
1075	5.430303	0.005000	1.670669	9.742815	-1.020240	-0.794619	-0.675216	0.892424	0.011003	-0.004050	0.003367
1076	5.435303	0.005000	1.735911	9.810000	-1.068831	-0.795569	-0.676119	0.894864	0.009437	-0.004091	-0.013146
1077	5.440303	0.005000	1.791169	9.874609	-1.105656	-0.796118	-0.676119	0.893271	0.013196	-0.017187	0.001758
1078	5.445303	0.005000	1.687320	9.775751	-1.093729	-0.796666	-0.676119	0.891678	0.009793	-0.013922	-0.005093
1079	5.450303	0.005000	1.611426	9.807414	-0.973241	-0.797215	-0.676119	0.890086	0.016481	-0.012207	-0.000603
1080	5.455303	0.005000	1.685414	9.810000	-0.982906	-0.797763	-0.676119	0.888493	0.017779	-0.002144	0.011822
1081	5.460303	0.005000	1.607065	9.847465	-1.061255	-0.798312	-0.676119	0.886901	0.020320	-0.010996	-0.000594
1082	5.465303	0.005000	1.691450	9.845110	-1.063610	-0.798860	-0.676119	0.885308	0.023575	-0.010520	0.004278
1083	5.470303	0.005000	1.587972	9.882356	-1.014116	-0.799409	-0.676119	0.883715	0.012021	-0.010592	0.001573
1084	5.475303	0.005000	1.578140	9.888480	-1.137960	-0.799957	-0.676119	0.882123	0.014701	-0.015312	0.004091
1085	5.480303	0.005000	1.540843	9.849240	-1.166717	-0.800506	-0.676119	0.880530	0.004977	-0.014937	0.000689
1086	5.485303	0.005000	1.582491	9.810000	-1.163742	-0.801055	-0.676119	0.878938	-0.006044	-0.010674	0.002765
1087	5.490303	0.005000	1.530360	9.810000	-1.186216	-0.801603	-0.676119	0.877345	-0.002150	-0.006244	0.005364
1088	5.495303	0.005000	1.591338	9.835973	-1.055244	-0.802152	-0.676119	0.875752	0.010768	-0.014877	0.006479
1089	5.500303	0.005000	1.648019	9.790349	-1.098781	-0.802700	-0.676119	0.874160	0.018334	-0.015437	-0.002931
1090	5.505303	0.005000	1.687320	9.805643	-1.059480	-0.802141	-0.675855	0.872921	0.020449	-0.004136	-0.005380
1091	5.510303	0.005000	1.608840	9.825234	-0.956994	-0.800386	-0.675307	0.872063	0.024792	-0.010672	-0.005590
1092	5.515303	0.005000	1.582425	9.862830	-1.033065	-0.798630	-0.674758	0.871206	0.013081	-0.004152	0.010839
1093	5.520303	0.005000	1.598085	9.870751	-1.027214	-0.796875	-0.674210	0.870348	0.020004	-0.007025	0.003646
1094	5.525303	0.005000	1.608840	9.927720	-0.933293	-0.795120	-0.673661	0.869491	0.023534	-0.011959	0.010612
