# FOX Logger (IMU file)
# (c) INRIA 2011-2014
# File created from file sensbiotk output
#
# File format:
# id	t	dt	ax	ay	az	mx	my	mz	gx	gy	gz
#
# Units:
#	Time: s
#\Acceleration: m.s^-2
#\Magneto: gauss
#\Gyrometer: rad/s
#
1	0.041168	0.041168	-0.661997	-0.034157	-9.596721	0.134328	-0.017910	0.400000	-0.018268	-0.016772	-0.000070
2	0.046168	0.005000	-0.670040	-0.117720	-9.599733	0.134771	-0.016913	0.399010	-0.017122	-0.014181	0.000625
3	0.051168	0.005000	-0.678002	-0.067558	-9.557164	0.135215	-0.015916	0.398020	-0.023617	-0.010190	0.002618
4	0.056168	0.005000	-0.730277	0.007986	-9.629083	0.135658	-0.014919	0.397031	-0.021413	-0.017686	0.005568
5	0.061168	0.005000	-0.868060	-0.004780	-9.505640	0.136101	-0.013921	0.396041	-0.020679	-0.021361	-0.000071
6	0.066168	0.005000	-0.822127	-0.115807	-9.574560	0.136544	-0.012924	0.395051	-0.018730	-0.021554	-0.010159
7	0.071168	0.005000	-0.746937	-0.078480	-9.612423	0.136988	-0.011927	0.394061	-0.012800	-0.020834	0.000016
8	0.076168	0.005000	-0.697879	-0.082700	-9.566119	0.137431	-0.010930	0.393072	-0.006097	-0.024379	-0.001436
9	0.081168	0.005000	-0.760596	-0.078480	-9.574560	0.137874	-0.009933	0.392082	-0.018073	-0.012066	-0.007253
10	0.086168	0.005000	-0.806206	-0.039240	-9.563857	0.138317	-0.008936	0.391092	-0.010900	-0.016331	0.010100
11	0.091168	0.005000	-0.718210	-0.027350	-9.535320	0.138761	-0.007939	0.390102	-0.018525	-0.015109	-0.013040
12	0.096168	0.005000	-0.723099	-0.056019	-9.535320	0.139204	-0.006942	0.389112	-0.008714	-0.018262	0.000642
13	0.101168	0.005000	-0.745560	-0.097903	-9.574953	0.139647	-0.005944	0.388123	-0.013058	-0.016047	0.006834
14	0.106168	0.005000	-0.706320	-0.134104	-9.489607	0.140090	-0.004947	0.387133	-0.009428	-0.021739	0.000498
15	0.111168	0.005000	-0.758827	-0.130427	-9.509347	0.140006	-0.004126	0.386601	-0.019158	-0.021841	0.002164
16	0.116168	0.005000	-0.755529	-0.107751	-9.574560	0.139452	-0.003461	0.386478	-0.014810	-0.016443	-0.000389
17	0.121168	0.005000	-0.816999	-0.085521	-9.574560	0.138898	-0.002796	0.386354	-0.012379	-0.010510	0.001168
18	0.126168	0.005000	-0.820228	-0.153148	-9.570748	0.138344	-0.002131	0.386230	-0.010048	-0.009880	0.000600
19	0.131168	0.005000	-0.825008	-0.115784	-9.497048	0.137790	-0.001467	0.386106	-0.012032	-0.016413	-0.003492
20	0.136168	0.005000	-0.900217	-0.039240	-9.572257	0.137236	-0.000802	0.385983	-0.007939	-0.020770	0.000608
21	0.141168	0.005000	-0.897346	0.000000	-9.462014	0.136682	-0.000137	0.385859	-0.017311	-0.007636	-0.003233
22	0.146168	0.005000	-0.924787	-0.030754	-9.518347	0.136127	0.000528	0.385735	-0.006918	-0.014893	0.001274
23	0.151168	0.005000	-0.846701	-0.050570	-9.496080	0.135573	0.001193	0.385611	-0.011339	-0.001759	-0.008459
24	0.156168	0.005000	-0.848652	-0.014628	-9.520692	0.135019	0.001858	0.385488	-0.000490	-0.006309	0.002623
25	0.161168	0.005000	-0.906302	-0.099991	-9.517591	0.134465	0.002523	0.385364	-0.009243	0.004134	0.000203
26	0.166168	0.005000	-0.824040	-0.156960	-9.498410	0.133911	0.003187	0.385240	-0.009673	0.003747	-0.002239
27	0.171168	0.005000	-0.832965	-0.181043	-9.463072	0.133357	0.003852	0.385116	-0.009542	-0.003881	0.001708
28	0.176168	0.005000	-0.657066	-0.183886	-9.601486	0.132875	0.004439	0.385022	-0.013107	-0.004898	-0.003828
29	0.181168	0.005000	-0.685081	-0.147959	-9.583561	0.133540	0.003774	0.385393	-0.006000	-0.002217	0.005094
30	0.186168	0.005000	-0.685377	-0.163059	-9.580659	0.134205	0.003109	0.385764	-0.006177	0.001682	-0.002525
31	0.191168	0.005000	-0.776223	-0.190482	-9.580278	0.134870	0.002444	0.386135	-0.013517	0.005056	0.001707
32	0.196168	0.005000	-0.667080	-0.117720	-9.536665	0.135534	0.001779	0.386507	-0.019422	0.003448	0.007151
33	0.201168	0.005000	-0.627840	-0.039240	-9.571276	0.136199	0.001114	0.386878	-0.009865	0.009931	-0.003087
34	0.206168	0.005000	-0.706320	-0.032722	-9.574560	0.136864	0.000450	0.387249	-0.010818	-0.003880	0.011265
35	0.211168	0.005000	-0.814601	-0.108281	-9.535320	0.137529	-0.000215	0.387620	-0.012645	0.005945	0.004967
36	0.216168	0.005000	-0.772209	-0.117720	-9.638983	0.138194	-0.000880	0.387991	-0.009755	-0.002041	0.003100
37	0.221168	0.005000	-0.847699	-0.117720	-9.598219	0.138858	-0.001545	0.388363	-0.015444	0.014613	0.001784
38	0.226168	0.005000	-0.766129	-0.097151	-9.593231	0.139523	-0.002210	0.388734	-0.005743	0.016142	0.004262
39	0.231168	0.005000	-0.780564	-0.060978	-9.496080	0.140188	-0.002875	0.389105	-0.010688	0.009160	0.004140
40	0.236168	0.005000	-0.913351	-0.053444	-9.456840	0.140853	-0.003540	0.389476	-0.007306	0.008416	-0.004900
41	0.241168	0.005000	-0.835401	-0.106359	-9.563199	0.141518	-0.004204	0.389847	-0.005248	0.006249	0.000055
42	0.246168	0.005000	-0.847185	-0.070432	-9.527272	0.141400	-0.004413	0.389927	-0.007319	0.008558	-0.003249
43	0.251168	0.005000	-0.750764	-0.078480	-9.535320	0.140734	-0.004302	0.389803	-0.013023	0.013149	-0.016363
44	0.256168	0.005000	-0.788612	-0.043052	-9.535320	0.140069	-0.004191	0.389680	-0.010992	0.012451	0.003281
45	0.261168	0.005000	-0.710072	-0.117720	-9.535320	0.139404	-0.004080	0.389556	-0.011616	0.020063	-0.005680
46	0.266168	0.005000	-0.780549	-0.113469	-9.566059	0.138739	-0.003969	0.389432	-0.004239	0.023138	0.018540
47	0.271168	0.005000	-0.824040	-0.156960	-9.582022	0.138074	-0.003858	0.389308	-0.006515	0.033038	0.006229
48	0.276168	0.005000	-0.784800	-0.070417	-9.613800	0.137409	-0.003747	0.389184	0.001502	0.021662	0.005423
49	0.281168	0.005000	-0.694491	-0.011829	-9.521615	0.136744	-0.003637	0.389060	-0.009440	0.019992	0.006157
50	0.286168	0.005000	-0.757843	-0.111578	-9.479531	0.136079	-0.003526	0.388937	-0.005645	0.025847	0.003939
51	0.291168	0.005000	-0.784800	-0.039240	-9.515700	0.135414	-0.003415	0.388813	-0.012913	0.020479	0.009589
52	0.296168	0.005000	-0.729011	-0.134269	-9.574560	0.134749	-0.003304	0.388689	-0.013974	0.021737	0.008195
53	0.301168	0.005000	-0.693084	-0.209436	-9.613800	0.134084	-0.003193	0.388565	-0.011307	0.027366	0.021666
54	0.306168	0.005000	-0.706320	-0.214893	-9.545594	0.133418	-0.003082	0.388441	-0.016532	0.040566	0.010991
55	0.311168	0.005000	-0.627840	-0.149865	-9.613800	0.132877	-0.003040	0.388318	-0.015088	0.037324	0.003787
56	0.316168	0.005000	-0.658679	-0.117720	-9.653040	0.133210	-0.003483	0.388194	-0.021907	0.036231	0.011111
57	0.321168	0.005000	-0.589538	-0.155084	-9.652102	0.133542	-0.003926	0.388070	-0.015706	0.033733	0.003131
58	0.326168	0.005000	-0.664747	-0.115387	-9.503079	0.133874	-0.004370	0.387947	-0.019916	0.031914	0.011818
59	0.331168	0.005000	-0.655869	-0.039240	-9.490474	0.134207	-0.004813	0.387823	-0.023830	0.027694	0.008668
60	0.336168	0.005000	-0.619323	0.069963	-9.566043	0.134539	-0.005256	0.387699	-0.019325	0.029597	0.004264
61	0.341168	0.005000	-0.600279	-0.027561	-9.602121	0.134871	-0.005699	0.387576	-0.022878	0.031212	0.006240
62	0.346168	0.005000	-0.603258	0.039240	-9.677622	0.135204	-0.006142	0.387452	-0.015632	0.024795	0.002620
63	0.351168	0.005000	-0.588600	0.078480	-9.553291	0.135536	-0.006586	0.387328	0.001703	0.020351	0.006942
64	0.356168	0.005000	-0.588600	-0.018425	-9.493690	0.135869	-0.007029	0.387205	-0.006753	0.024163	-0.007464
65	0.361168	0.005000	-0.588600	-0.054367	-9.511207	0.136201	-0.007472	0.387081	0.006711	0.019679	-0.005133
66	0.366168	0.005000	-0.534396	-0.051378	-9.613800	0.136533	-0.007915	0.386957	-0.004715	0.017033	-0.006604
67	0.371168	0.005000	-0.667080	0.008970	-9.487110	0.136866	-0.008358	0.386833	0.013163	0.011379	-0.009759
68	0.376168	0.005000	-0.667080	-0.006056	-9.502136	0.137198	-0.008802	0.386710	0.006494	0.007700	-0.006061
69	0.381168	0.005000	-0.552189	-0.084138	-9.608142	0.137241	-0.009462	0.386343	0.004685	0.011421	-0.000299
70	0.386168	0.005000	-0.549375	-0.156960	-9.496095	0.137130	-0.010238	0.385848	0.005731	-0.008127	-0.008570
71	0.391168	0.005000	-0.657096	-0.156960	-9.574560	0.137019	-0.011013	0.385354	-0.004714	-0.000875	-0.010031
72	0.396168	0.005000	-0.594772	-0.156960	-9.529148	0.136908	-0.011789	0.384859	-0.003846	-0.002562	-0.011141
73	0.401168	0.005000	-0.627840	-0.205670	-9.505550	0.136798	-0.012565	0.384364	-0.006120	-0.007045	-0.002790
74	0.406168	0.005000	-0.667080	-0.116375	-9.653040	0.136687	-0.013340	0.383869	-0.016078	-0.012486	-0.012339
75	0.411168	0.005000	-0.627840	-0.078480	-9.605813	0.136576	-0.014116	0.383374	-0.010836	-0.017323	0.002856
76	0.416168	0.005000	-0.667080	-0.139428	-9.634116	0.136465	-0.014891	0.382879	-0.008344	-0.014045	-0.009863
77	0.421168	0.005000	-0.706320	-0.191904	-9.592032	0.136354	-0.015667	0.382384	-0.000489	-0.022148	-0.006413
78	0.426168	0.005000	-0.688924	-0.182041	-9.524398	0.136244	-0.016443	0.381889	-0.013346	-0.017395	-0.004836
79	0.431168	0.005000	-0.633343	-0.162643	-9.608117	0.136133	-0.017218	0.381394	-0.011811	-0.022113	0.002422
80	0.436168	0.005000	-0.714337	-0.094515	-9.621817	0.136022	-0.017994	0.380899	-0.008163	-0.027966	0.004032
81	0.441168	0.005000	-0.715729	-0.078480	-9.579265	0.135911	-0.018770	0.380404	-0.022390	-0.016416	-0.013952
82	0.446168	0.005000	-0.824040	-0.113999	-9.576421	0.135882	-0.019159	0.380114	-0.004254	-0.014709	0.005550
83	0.451168	0.005000	-0.861859	-0.114879	-9.613800	0.136215	-0.017829	0.380732	-0.017446	-0.017295	-0.002373
84	0.456168	0.005000	-0.754122	-0.117720	-9.609519	0.136547	-0.016499	0.381351	-0.006958	-0.031005	-0.001629
85	0.461168	0.005000	-0.816536	-0.078480	-9.557833	0.136880	-0.015169	0.381970	-0.011918	-0.021936	-0.006787
86	0.466168	0.005000	-0.813602	-0.078480	-9.535320	0.137212	-0.013838	0.382589	-0.004933	-0.015904	-0.019196
87	0.471168	0.005000	-0.771064	-0.066711	-9.456840	0.137545	-0.012508	0.383208	-0.012669	-0.022135	0.002077
88	0.476168	0.005000	-0.751641	-0.123801	-9.541401	0.137877	-0.011178	0.383827	-0.007351	-0.012583	-0.007099
89	0.481168	0.005000	-0.745560	-0.156960	-9.554668	0.138210	-0.009848	0.384446	-0.010186	-0.012081	0.001328
90	0.486168	0.005000	-0.801304	-0.156960	-9.558056	0.138543	-0.008518	0.385065	-0.017901	-0.014475	-0.008503
91	0.491168	0.005000	-0.863280	-0.156960	-9.443634	0.138875	-0.007187	0.385684	-0.017642	-0.016604	-0.011418
92	0.496168	0.005000	-0.853387	-0.147067	-9.486187	0.139208	-0.005857	0.386302	-0.015220	-0.017409	-0.000685
93	0.501168	0.005000	-0.849181	-0.046289	-9.485037	0.139540	-0.004527	0.386921	-0.024456	-0.006580	-0.009884
94	0.506168	0.005000	-0.792303	-0.106465	-9.606297	0.139873	-0.003197	0.387540	-0.020399	-0.018074	-0.002936
95	0.511168	0.005000	-0.747375	0.075757	-9.576375	0.140206	-0.001867	0.388159	-0.014212	-0.014842	-0.015705
96	0.516168	0.005000	-0.897766	-0.076103	-9.616177	0.139980	-0.001334	0.388066	-0.010957	-0.008130	-0.015009
97	0.521168	0.005000	-0.818791	0.000000	-9.501329	0.139537	-0.001112	0.387695	-0.005925	-0.006388	-0.011738
98	0.526168	0.005000	-0.762654	-0.030693	-9.535320	0.139094	-0.000890	0.387324	-0.015765	-0.016609	-0.020534
99	0.531168	0.005000	-0.796191	-0.101262	-9.523929	0.138651	-0.000669	0.386953	-0.006296	-0.012307	-0.018481
100	0.536168	0.005000	-0.638020	-0.171490	-9.574560	0.138207	-0.000447	0.386581	-0.009275	-0.011413	-0.027778
101	0.541168	0.005000	-0.749705	-0.135268	-9.574560	0.137764	-0.000225	0.386210	0.003701	-0.003989	-0.024617
102	0.546168	0.005000	-0.687925	-0.096875	-9.535320	0.137321	-0.000004	0.385839	-0.002810	-0.000790	-0.019735
103	0.551168	0.005000	-0.721687	-0.172327	-9.472207	0.136877	0.000218	0.385468	-0.006977	-0.000574	-0.033060
104	0.556168	0.005000	-0.775088	-0.181436	-9.456840	0.136434	0.000440	0.385097	-0.006701	-0.004216	-0.013064
105	0.561168	0.005000	-0.654661	-0.196200	-9.487140	0.135991	0.000661	0.384726	0.001486	0.000877	-0.027528
106	0.566168	0.005000	-0.790896	-0.171815	-9.469033	0.135548	0.000883	0.384354	0.002583	-0.004265	-0.028373
107	0.571168	0.005000	-0.854930	-0.117720	-9.423167	0.135104	0.001105	0.383983	-0.010156	0.003582	-0.031299
108	0.576168	0.005000	-0.784739	-0.117720	-9.574439	0.134661	0.001326	0.383612	0.003190	-0.001413	-0.029966
109	0.581168	0.005000	-0.859922	-0.114362	-9.574560	0.134438	0.001438	0.383394	-0.006600	0.001854	-0.020629
110	0.586168	0.005000	-0.751762	-0.039240	-9.601396	0.134881	0.001216	0.383642	-0.012376	0.008416	-0.025894
111	0.591168	0.005000	-0.745560	0.029837	-9.574560	0.135325	0.000995	0.383889	-0.000771	0.006064	-0.018548
112	0.596168	0.005000	-0.718679	-0.026881	-9.601441	0.135768	0.000773	0.384137	-0.007888	0.004262	-0.023358
113	0.601168	0.005000	-0.745560	-0.125647	-9.566633	0.136211	0.000551	0.384385	0.002110	0.004708	-0.020273
114	0.606168	0.005000	-0.747799	-0.117720	-9.456840	0.136654	0.000330	0.384632	0.002276	0.003399	-0.017818
115	0.611168	0.005000	-0.671467	-0.061053	-9.478653	0.137098	0.000108	0.384880	0.002578	0.014856	-0.023734
116	0.616168	0.005000	-0.627840	0.000000	-9.481664	0.137541	-0.000114	0.385127	0.006295	-0.001142	-0.008548
117	0.621168	0.005000	-0.745560	-0.078480	-9.507365	0.137984	-0.000335	0.385375	-0.002049	0.003877	-0.027239
118	0.626168	0.005000	-0.706320	-0.117720	-9.535320	0.138428	-0.000557	0.385622	0.012893	-0.003424	-0.015577
119	0.631168	0.005000	-0.711448	-0.141576	-9.540448	0.138871	-0.000779	0.385870	-0.000445	0.003976	-0.019059
120	0.636168	0.005000	-0.702659	-0.078480	-9.613800	0.139314	-0.001000	0.386117	0.008442	-0.000864	-0.022376
121	0.641168	0.005000	-0.589614	-0.078480	-9.613800	0.139757	-0.001222	0.386365	0.009992	0.005193	-0.010210
122	0.646168	0.005000	-0.632115	-0.191925	-9.578835	0.140201	-0.001444	0.386612	0.015389	0.011485	-0.010079
123	0.651168	0.005000	-0.691979	-0.085650	-9.574560	0.140213	-0.001320	0.386474	0.011292	0.004062	-0.015258
124	0.656168	0.005000	-0.735212	-0.156960	-9.584908	0.140102	-0.001099	0.386227	0.006768	-0.005659	-0.010990
125	0.661168	0.005000	-0.889208	-0.156264	-9.600488	0.139991	-0.000877	0.385979	0.016093	-0.008680	-0.010459
126	0.666168	0.005000	-0.772819	-0.072490	-9.490090	0.139880	-0.000655	0.385732	-0.002161	-0.008796	-0.002923
127	0.671168	0.005000	-0.667080	-0.137265	-9.496080	0.139769	-0.000433	0.385484	-0.003572	-0.008588	-0.005046
128	0.676168	0.005000	-0.762034	-0.140486	-9.558086	0.139658	-0.000212	0.385236	0.001904	-0.003741	0.011301
129	0.681168	0.005000	-0.706320	-0.117720	-9.574560	0.139547	0.000010	0.384989	-0.005498	0.001324	0.001010
130	0.686168	0.005000	-0.716637	-0.177594	-9.622090	0.139437	0.000232	0.384741	0.000196	-0.012764	0.004578
131	0.691168	0.005000	-0.720358	-0.228421	-9.581579	0.139326	0.000454	0.384493	0.008371	-0.004604	0.005158
132	0.696168	0.005000	-0.776450	-0.148610	-9.605450	0.139215	0.000675	0.384246	0.009638	-0.007772	-0.001776
133	0.701168	0.005000	-0.783485	-0.119035	-9.456840	0.139104	0.000897	0.383998	-0.002951	-0.014254	0.007161
134	0.706168	0.005000	-0.820077	-0.194218	-9.531357	0.138993	0.001119	0.383751	-0.007094	-0.006040	0.004781
135	0.711168	0.005000	-0.784800	-0.235440	-9.648214	0.138882	0.001341	0.383503	-0.002586	-0.005488	0.005401
136	0.716168	0.005000	-0.784800	-0.266557	-9.535320	0.138875	0.001528	0.383488	-0.015675	-0.012960	0.012351
137	0.721168	0.005000	-0.639141	-0.168261	-9.613800	0.139097	0.001638	0.383983	0.002093	-0.012048	0.009007
138	0.726168	0.005000	-0.667080	-0.206880	-9.549600	0.139319	0.001749	0.384478	-0.002731	-0.008609	0.012159
139	0.731168	0.005000	-0.688742	-0.174538	-9.561067	0.139540	0.001860	0.384973	0.001648	-0.004624	0.002117
140	0.736168	0.005000	-0.703113	-0.174175	-9.593378	0.139762	0.001971	0.385468	0.002682	-0.012095	0.005751
141	0.741168	0.005000	-0.784800	-0.204429	-9.581836	0.139983	0.002082	0.385963	-0.009474	-0.014953	-0.006520
142	0.746168	0.005000	-0.836701	-0.130381	-9.613800	0.140205	0.002192	0.386458	-0.002473	-0.016442	0.002332
143	0.751168	0.005000	-0.892815	-0.156960	-9.545025	0.140427	0.002303	0.386953	-0.004885	-0.014896	0.003431
144	0.756168	0.005000	-0.896000	-0.156960	-9.640000	0.140648	0.002414	0.387448	-0.011434	-0.012305	-0.005262
145	0.761168	0.005000	-0.794421	-0.192993	-9.610593	0.140870	0.002525	0.387943	-0.007055	-0.018522	0.001390
146	0.766168	0.005000	-0.902520	-0.118083	-9.612711	0.141091	0.002635	0.388438	-0.008438	-0.010537	-0.007687
147	0.771168	0.005000	-0.792243	-0.193719	-9.569598	0.141313	0.002746	0.388933	-0.008647	-0.017245	-0.005168
148	0.776168	0.005000	-0.700541	-0.196200	-9.546877	0.141535	0.002857	0.389427	-0.013436	-0.010921	-0.007215
149	0.781168	0.005000	-0.736937	-0.126343	-9.583183	0.141756	0.002968	0.389922	-0.012740	-0.013833	-0.009169
150	0.786168	0.005000	-0.730191	-0.129655	-9.571126	0.141698	0.002892	0.389583	-0.014810	-0.017829	-0.002635
151	0.791168	0.005000	-0.721099	-0.014779	-9.456840	0.141587	0.002781	0.389088	-0.010853	-0.017329	-0.017560
152	0.796168	0.005000	-0.706320	-0.039240	-9.456840	0.141476	0.002670	0.388593	-0.002764	-0.027790	-0.005835
153	0.801168	0.005000	-0.708922	-0.117720	-9.517001	0.141365	0.002559	0.388098	-0.004038	-0.017082	-0.025483
154	0.806168	0.005000	-0.745560	-0.141668	-9.574560	0.141255	0.002449	0.387603	-0.000107	-0.024541	-0.022546
155	0.811168	0.005000	-0.730645	-0.142045	-9.550235	0.141144	0.002338	0.387108	-0.002017	-0.019242	-0.030288
156	0.816168	0.005000	-0.784800	-0.078480	-9.496080	0.141033	0.002227	0.386613	0.001527	-0.031729	-0.022139
157	0.821168	0.005000	-0.824040	-0.162910	-9.595951	0.140922	0.002116	0.386118	-0.010092	-0.027745	-0.021469
158	0.826168	0.005000	-0.714443	-0.227317	-9.498788	0.140812	0.002006	0.385623	-0.009993	-0.023921	-0.026019
159	0.831168	0.005000	-0.785383	-0.117720	-9.573977	0.140701	0.001895	0.385128	0.002918	-0.029883	-0.027379
160	0.836168	0.005000	-0.859846	-0.189332	-9.567692	0.140590	0.001784	0.384633	-0.001329	-0.028402	-0.030563
161	0.841168	0.005000	-0.882280	-0.202947	-9.542067	0.140479	0.001673	0.384138	0.006943	-0.038906	-0.032002
162	0.846168	0.005000	-0.824040	-0.147030	-9.554701	0.140368	0.001562	0.383643	0.012370	-0.039401	-0.023442
163	0.851168	0.005000	-0.850392	-0.117145	-9.456265	0.140299	0.001369	0.383425	0.008570	-0.031746	-0.033706
164	0.856168	0.005000	-0.832830	-0.180190	-9.449620	0.140299	0.001036	0.383673	-0.002453	-0.042315	-0.021254
165	0.861168	0.005000	-0.822890	-0.216395	-9.496080	0.140299	0.000704	0.383921	-0.003735	-0.040466	-0.030857
166	0.866168	0.005000	-0.824040	-0.257783	-9.608354	0.140299	0.000371	0.384168	-0.009906	-0.033771	-0.025806
167	0.871168	0.005000	-0.851814	-0.154538	-9.546786	0.140299	0.000039	0.384416	-0.005680	-0.044290	-0.018666
168	0.876168	0.005000	-0.891780	-0.178441	-9.439081	0.140299	-0.000294	0.384663	-0.011119	-0.028786	-0.028207
169	0.881168	0.005000	-0.895077	-0.181315	-9.439928	0.140299	-0.000626	0.384911	-0.002737	-0.043970	-0.021271
170	0.886168	0.005000	-0.867824	-0.196200	-9.431233	0.140299	-0.000959	0.385159	-0.012687	-0.033123	-0.020017
171	0.891168	0.005000	-0.903806	-0.119006	-9.494794	0.140299	-0.001292	0.385406	0.003402	-0.042618	-0.022174
172	0.896168	0.005000	-0.979011	-0.156960	-9.456840	0.140299	-0.001624	0.385654	-0.010285	-0.034564	-0.019929
173	0.901168	0.005000	-1.025096	-0.191344	-9.422456	0.140299	-0.001957	0.385901	-0.005751	-0.037909	-0.027956
174	0.906168	0.005000	-1.059480	-0.258343	-9.496080	0.140299	-0.002289	0.386149	-0.005453	-0.029767	-0.013356
175	0.911168	0.005000	-0.897286	-0.196200	-9.669609	0.140299	-0.002622	0.386397	-0.009468	-0.034040	-0.018424
176	0.916168	0.005000	-0.927450	-0.196200	-9.603181	0.140299	-0.002955	0.386644	-0.008946	-0.020295	-0.009059
177	0.921168	0.005000	-0.919935	-0.156960	-9.491670	0.140400	-0.002683	0.386555	-0.015577	-0.015329	-0.017063
178	0.926168	0.005000	-0.921293	-0.138187	-9.514853	0.140510	-0.002351	0.386431	-0.002814	-0.014445	-0.024005
179	0.931168	0.005000	-0.996475	-0.148670	-9.559085	0.140621	-0.002019	0.386307	-0.010086	-0.016303	-0.021217
180	0.936168	0.005000	-1.020240	-0.169442	-9.588836	0.140732	-0.001686	0.386184	-0.016638	-0.007567	-0.028458
181	0.941168	0.005000	-1.080083	-0.078480	-9.496080	0.140842	-0.001354	0.386060	-0.013802	-0.016270	-0.017034
182	0.946168	0.005000	-1.041418	-0.096542	-9.526183	0.140953	-0.001022	0.385936	-0.013783	-0.009125	-0.025698
183	0.951168	0.005000	-0.974647	-0.117720	-9.653040	0.141064	-0.000689	0.385812	-0.009340	0.004319	-0.019913
184	0.956168	0.005000	-0.980731	-0.156825	-9.574829	0.141175	-0.000357	0.385689	-0.010954	0.012007	-0.018465
185	0.961168	0.005000	-0.981000	-0.090400	-9.577540	0.141285	-0.000025	0.385565	-0.016344	0.011203	-0.025423
186	0.966168	0.005000	-0.869486	-0.105308	-9.601388	0.141396	0.000307	0.385441	-0.013544	0.004129	-0.017300
187	0.971168	0.005000	-0.962757	-0.057483	-9.674037	0.141507	0.000640	0.385318	-0.014529	0.010855	-0.031740
188	0.976168	0.005000	-0.914808	-0.117720	-9.599135	0.141617	0.000972	0.385194	-0.003769	0.011792	-0.024332
189	0.981168	0.005000	-0.989683	-0.109037	-9.583243	0.141728	0.001304	0.385070	-0.005339	0.011125	-0.039871
190	0.986168	0.005000	-1.020240	-0.159472	-9.613800	0.141647	0.001302	0.385000	-0.011408	0.015723	-0.032174
191	0.991168	0.005000	-0.923940	-0.078480	-9.617400	0.141315	0.000858	0.385000	-0.005193	0.007449	-0.030628
192	0.996168	0.005000	-0.926961	-0.127362	-9.550119	0.140983	0.000415	0.385000	0.000516	0.014266	-0.041822
193	1.001168	0.005000	-0.914183	-0.212114	-9.496080	0.140650	-0.000028	0.385000	-0.002547	0.011525	-0.031104
194	1.006168	0.005000	-0.981000	-0.117720	-9.496080	0.140318	-0.000471	0.385000	0.000239	0.018435	-0.032279
195	1.011168	0.005000	-1.003676	-0.112199	-9.496080	0.139985	-0.000915	0.385000	-0.004205	0.017776	-0.030734
196	1.016168	0.005000	-0.900311	-0.082897	-9.533111	0.139653	-0.001358	0.385000	-0.002151	0.021941	-0.029882
197	1.021168	0.005000	-0.863280	-0.195565	-9.534685	0.139320	-0.001801	0.385000	0.001162	0.027669	-0.029991
198	1.026168	0.005000	-0.933984	-0.090144	-9.496080	0.138988	-0.002245	0.385000	-0.000926	0.021541	-0.018206
199	1.031168	0.005000	-0.948537	-0.150183	-9.502857	0.138656	-0.002688	0.385000	-0.009292	0.026060	-0.031144
200	1.036168	0.005000	-0.931670	-0.196200	-9.574560	0.138323	-0.003131	0.385000	0.000582	0.017777	-0.025719
201	1.041168	0.005000	-0.993771	-0.143725	-9.613800	0.137991	-0.003574	0.385000	-0.002648	0.027848	-0.037402
202	1.046168	0.005000	-1.004008	-0.150183	-9.590792	0.137658	-0.004018	0.385000	-0.000664	0.030078	-0.025298
203	1.051168	0.005000	-0.941760	-0.078480	-9.476384	0.137326	-0.004461	0.385000	-0.008416	0.030236	-0.022600
204	1.056168	0.005000	-0.924908	-0.117720	-9.479228	0.137313	-0.004158	0.385238	0.002810	0.033628	-0.017464
205	1.061168	0.005000	-0.824040	-0.117720	-9.470394	0.137313	-0.003826	0.385486	-0.009795	0.029954	-0.018011
206	1.066168	0.005000	-0.774216	-0.110231	-9.553393	0.137313	-0.003493	0.385733	-0.015685	0.033568	-0.022404
207	1.071168	0.005000	-0.870677	-0.117720	-9.542717	0.137313	-0.003161	0.385981	-0.005139	0.031516	-0.028419
208	1.076168	0.005000	-0.933561	-0.152861	-9.613800	0.137313	-0.002828	0.386228	-0.007841	0.029897	-0.021148
209	1.081168	0.005000	-0.900009	-0.077224	-9.691024	0.137313	-0.002495	0.386476	-0.005613	0.031629	-0.025427
210	1.086168	0.005000	-0.749626	-0.113654	-9.653040	0.137313	-0.002163	0.386723	-0.006817	0.028116	-0.013292
211	1.091168	0.005000	-0.711221	-0.127522	-9.584362	0.137313	-0.001830	0.386971	-0.008929	0.032238	-0.030277
212	1.096168	0.005000	-0.830859	-0.148855	-9.543425	0.137313	-0.001498	0.387218	-0.008068	0.024819	-0.016944
213	1.101168	0.005000	-0.880434	-0.134874	-9.524277	0.137313	-0.001165	0.387466	-0.013930	0.026771	-0.023730
214	1.106168	0.005000	-0.848924	-0.171316	-9.649213	0.137313	-0.000832	0.387713	-0.000771	0.020386	-0.025373
215	1.111168	0.005000	-0.880480	-0.252640	-9.635840	0.137313	-0.000500	0.387961	-0.010079	0.019101	-0.019291
216	1.116168	0.005000	-0.726817	-0.156960	-9.555817	0.137313	-0.000167	0.388208	-0.012614	0.031560	-0.023130
217	1.121168	0.005000	-0.738117	-0.196200	-9.590459	0.137478	-0.000275	0.388210	-0.013975	0.018579	-0.012241
218	1.126168	0.005000	-0.809972	-0.156960	-9.640454	0.137810	-0.000829	0.387963	-0.015308	0.023124	-0.025906
219	1.131168	0.005000	-0.881856	-0.177624	-9.574560	0.138143	-0.001383	0.387715	-0.010453	0.034010	-0.026442
220	1.136168	0.005000	-0.824040	-0.104832	-9.574560	0.138475	-0.001937	0.387468	-0.010218	0.034476	-0.012298
221	1.141168	0.005000	-0.791063	-0.003131	-9.574560	0.138807	-0.002490	0.387221	-0.009928	0.025618	-0.017616
222	1.146168	0.005000	-0.863564	0.000000	-9.574276	0.139140	-0.003044	0.386973	-0.006971	0.025251	-0.017435
223	1.151168	0.005000	-0.866290	-0.036230	-9.462861	0.139472	-0.003598	0.386726	-0.005871	0.035740	-0.026614
224	1.156168	0.005000	-0.930052	-0.151106	-9.423454	0.139804	-0.004152	0.386479	-0.002188	0.027874	-0.004930
225	1.161168	0.005000	-0.920854	-0.096814	-9.466007	0.140136	-0.004705	0.386232	-0.005078	0.034234	-0.015839
226	1.166168	0.005000	-0.902520	-0.156960	-9.402382	0.140469	-0.005259	0.385984	-0.011417	0.032442	-0.022097
227	1.171168	0.005000	-0.800109	-0.093789	-9.472149	0.140801	-0.005813	0.385737	-0.015678	0.041746	-0.020565
228	1.176168	0.005000	-0.805638	-0.117720	-9.514482	0.141133	-0.006367	0.385490	-0.022079	0.042193	-0.019392
229	1.181168	0.005000	-0.859589	-0.096254	-9.596026	0.141465	-0.006921	0.385242	-0.015220	0.036712	-0.018080
230	1.186168	0.005000	-0.799560	-0.166680	-9.618840	0.141782	-0.007456	0.385005	-0.021547	0.048072	-0.019489
231	1.191168	0.005000	-0.717953	-0.094454	-9.657382	0.141339	-0.007124	0.385253	-0.008282	0.048230	-0.018812
232	1.196168	0.005000	-0.811167	-0.087269	-9.583349	0.140895	-0.006791	0.385500	-0.017503	0.047058	-0.014274
233	1.201168	0.005000	-0.756512	-0.106768	-9.619276	0.140452	-0.006458	0.385748	-0.019050	0.057422	-0.025695
234	1.206168	0.005000	-0.753366	-0.073276	-9.496080	0.140008	-0.006126	0.385995	-0.013493	0.049842	-0.014604
235	1.211168	0.005000	-0.708982	0.000000	-9.457506	0.139565	-0.005793	0.386243	-0.006154	0.049478	-0.014444
236	1.216168	0.005000	-0.706320	-0.078480	-9.528301	0.139122	-0.005461	0.386490	0.002954	0.042054	-0.012480
237	1.221168	0.005000	-0.713062	-0.052724	-9.581302	0.138678	-0.005128	0.386738	-0.000642	0.048636	-0.006261
238	1.226168	0.005000	-0.627840	-0.068814	-9.505746	0.138235	-0.004796	0.386985	0.013240	0.036948	-0.007897
239	1.231168	0.005000	-0.614528	-0.065516	-9.548632	0.137791	-0.004463	0.387233	0.018219	0.037106	-0.004916
240	1.236168	0.005000	-0.595671	-0.164031	-9.611857	0.137348	-0.004130	0.387481	0.014547	0.036674	-0.011879
241	1.241168	0.005000	-0.626842	-0.137839	-9.673159	0.136905	-0.003798	0.387728	0.009475	0.023734	-0.007598
242	1.246168	0.005000	-0.633437	-0.218619	-9.596979	0.136461	-0.003465	0.387976	0.008425	0.029214	0.000183
243	1.251168	0.005000	-0.551557	-0.249252	-9.546935	0.136018	-0.003133	0.388223	0.012658	0.019642	-0.000645
244	1.256168	0.005000	-0.684991	-0.196200	-9.513991	0.136068	-0.002738	0.388333	0.000678	0.025966	-0.006158
245	1.261168	0.005000	-0.604063	-0.188469	-9.464571	0.136511	-0.002295	0.388333	-0.003520	0.011210	-0.015463
246	1.266168	0.005000	-0.627840	-0.166006	-9.530797	0.136954	-0.001852	0.388333	-0.009774	0.012829	-0.005463
247	1.271168	0.005000	-0.665870	-0.273470	-9.496080	0.137398	-0.001408	0.388333	-0.018530	0.017602	-0.003632
248	1.276168	0.005000	-0.665446	-0.160227	-9.496080	0.137841	-0.000965	0.388333	-0.017120	0.010262	-0.005437
249	1.281168	0.005000	-0.740685	-0.127470	-9.530445	0.138285	-0.000521	0.388333	-0.024916	0.003158	0.002362
250	1.286168	0.005000	-0.635615	-0.078480	-9.472391	0.138728	-0.000078	0.388333	-0.019978	0.013850	-0.002888
251	1.291168	0.005000	-0.751535	-0.089568	-9.563472	0.139171	0.000365	0.388333	-0.011665	0.003518	0.005569
252	1.296168	0.005000	-0.667080	-0.207576	-9.588492	0.139615	0.000809	0.388333	-0.013298	0.003171	-0.006761
253	1.301168	0.005000	-0.566393	-0.151786	-9.540494	0.140058	0.001252	0.388333	-0.006939	0.001463	0.008765
254	1.306168	0.005000	-0.686246	-0.156052	-9.516154	0.140502	0.001696	0.388333	-0.011519	0.005330	-0.003325
255	1.311168	0.005000	-0.769733	-0.141107	-9.456840	0.140945	0.002139	0.388333	-0.006175	0.004651	-0.009284
256	1.316168	0.005000	-0.889511	-0.117720	-9.509301	0.141388	0.002582	0.388333	-0.011354	-0.003204	-0.006078
257	1.321168	0.005000	-0.765377	-0.108008	-9.505792	0.141760	0.002832	0.388265	-0.010767	0.008155	-0.013897
258	1.326168	0.005000	-0.627840	-0.006868	-9.535320	0.141428	0.001170	0.387522	-0.006547	0.004152	0.001696
259	1.331168	0.005000	-0.709875	-0.049905	-9.531765	0.141096	-0.000492	0.386780	-0.000492	0.010460	-0.007620
260	1.336168	0.005000	-0.664269	-0.039943	-9.575263	0.140763	-0.002154	0.386038	-0.003221	0.002095	-0.016262
261	1.341168	0.005000	-0.546773	-0.078480	-9.540494	0.140431	-0.003816	0.385295	-0.004898	0.007164	-0.000187
262	1.346168	0.005000	-0.667080	-0.190370	-9.529490	0.140098	-0.005478	0.384553	-0.007735	0.003756	-0.019350
263	1.351168	0.005000	-0.697576	-0.108976	-9.557073	0.139766	-0.007140	0.383811	-0.000812	0.001773	-0.011101
264	1.356168	0.005000	-0.678667	-0.133785	-9.574560	0.139433	-0.008801	0.383068	-0.001257	0.012156	-0.026536
265	1.361168	0.005000	-0.667080	-0.117720	-9.510965	0.139101	-0.010463	0.382326	0.002184	-0.003387	-0.019089
266	1.366168	0.005000	-0.824040	-0.142251	-9.456840	0.138769	-0.012125	0.381584	0.005491	0.004745	-0.022885
267	1.371168	0.005000	-0.802998	-0.138762	-9.475038	0.138436	-0.013787	0.380841	0.004346	0.002770	-0.024028
268	1.376168	0.005000	-0.769900	-0.078480	-9.565121	0.138104	-0.015449	0.380099	-0.001247	0.005155	-0.012765
269	1.381168	0.005000	-0.769673	-0.090536	-9.598673	0.137771	-0.017111	0.379357	-0.000341	0.006209	-0.017260
270	1.386168	0.005000	-0.814936	-0.235440	-9.583664	0.137439	-0.018773	0.378614	-0.000028	0.009506	-0.016493
271	1.391168	0.005000	-0.790700	-0.184401	-9.613800	0.137313	-0.018439	0.378794	0.002767	0.000651	-0.027776
272	1.396168	0.005000	-0.790004	-0.078480	-9.571958	0.137313	-0.016888	0.379537	-0.000026	0.003943	-0.025678
273	1.401168	0.005000	-0.824282	-0.078480	-9.574318	0.137313	-0.015337	0.380279	-0.001013	-0.003022	-0.018215
274	1.406168	0.005000	-0.739388	-0.120806	-9.613800	0.137313	-0.013786	0.381021	0.003745	-0.002726	-0.024683
275	1.411168	0.005000	-0.706320	-0.156960	-9.502479	0.137313	-0.012234	0.381764	0.013363	-0.003002	-0.003436
276	1.416168	0.005000	-0.736317	-0.166203	-9.535320	0.137313	-0.010683	0.382506	0.003336	0.002239	-0.010992
277	1.421168	0.005000	-0.758100	-0.274680	-9.508620	0.137313	-0.009132	0.383248	0.015496	-0.009207	-0.007617
278	1.426168	0.005000	-0.760944	-0.313920	-9.519936	0.137313	-0.007581	0.383991	0.002150	-0.001338	-0.016127
279	1.431168	0.005000	-0.844583	-0.255983	-9.593257	0.137313	-0.006029	0.384733	0.008348	-0.005123	-0.004806
280	1.436168	0.005000	-0.806544	-0.344158	-9.500327	0.137313	-0.004478	0.385475	-0.005517	0.006453	-0.003497
281	1.441168	0.005000	-0.799201	-0.245878	-9.481679	0.137313	-0.002927	0.386218	0.001833	0.015708	-0.003054
282	1.446168	0.005000	-0.745560	-0.184779	-9.512479	0.137313	-0.001376	0.386960	-0.009523	0.013749	-0.004322
283	1.451168	0.005000	-0.683569	-0.101231	-9.448596	0.137313	0.000176	0.387703	-0.010690	0.009822	0.004156
284	1.456168	0.005000	-0.750507	-0.112773	-9.427493	0.137330	0.001493	0.388314	-0.022270	0.016174	-0.000947
285	1.461168	0.005000	-0.859075	0.035035	-9.500285	0.137441	0.001493	0.388191	0.000992	0.018578	0.019698
286	1.466168	0.005000	-0.822844	-0.001196	-9.612604	0.137551	0.001493	0.388067	-0.014834	0.021506	0.012649
287	1.471168	0.005000	-0.792908	-0.113666	-9.535320	0.137662	0.001493	0.387943	-0.008180	0.023801	0.017865
288	1.476168	0.005000	-0.713672	-0.188848	-9.503432	0.137773	0.001493	0.387820	-0.005966	0.034895	-0.000932
289	1.481168	0.005000	-0.735364	-0.117720	-9.477231	0.137884	0.001493	0.387696	0.005520	0.021649	0.010280
290	1.486168	0.005000	-0.679622	-0.208742	-9.547862	0.137995	0.001493	0.387572	-0.010291	0.021933	0.008283
291	1.491168	0.005000	-0.676898	-0.291033	-9.653040	0.138106	0.001493	0.387449	-0.001125	0.023695	0.005948
292	1.496168	0.005000	-0.726523	-0.156960	-9.554357	0.138216	0.001493	0.387325	-0.005013	0.034087	0.007272
293	1.501168	0.005000	-0.627840	-0.190452	-9.557814	0.138327	0.001493	0.387201	-0.011202	0.027134	0.002592
294	1.506168	0.005000	-0.784800	-0.156960	-9.456840	0.138438	0.001493	0.387078	-0.014343	0.021459	0.007318
295	1.511168	0.005000	-0.763864	-0.128188	-9.446372	0.138549	0.001493	0.386954	-0.019724	0.032239	0.004045
296	1.516168	0.005000	-0.627840	-0.149669	-9.456840	0.138660	0.001493	0.386830	-0.009166	0.036441	-0.001746
297	1.521168	0.005000	-0.632287	-0.069585	-9.509422	0.138771	0.001493	0.386707	-0.010337	0.030179	0.007014
298	1.526168	0.005000	-0.627840	-0.041509	-9.496080	0.138580	0.001644	0.386583	-0.013970	0.035982	-0.007462
299	1.531168	0.005000	-0.627840	-0.117720	-9.496080	0.138247	0.001865	0.386459	-0.022230	0.022482	0.006680
300	1.536168	0.005000	-0.603621	-0.078480	-9.417600	0.137915	0.002087	0.386335	-0.014543	0.030064	-0.003679
301	1.541168	0.005000	-0.565803	-0.055683	-9.558117	0.137583	0.002309	0.386212	-0.012863	0.021173	0.005233
302	1.546168	0.005000	-0.560524	-0.050404	-9.574560	0.137250	0.002530	0.386088	-0.012991	0.021307	-0.001774
303	1.551168	0.005000	-0.588600	-0.103258	-9.471302	0.136918	0.002752	0.385964	-0.005318	0.017343	-0.013219
304	1.556168	0.005000	-0.566666	-0.122349	-9.456840	0.136585	0.002973	0.385840	-0.009225	0.021465	-0.007667
305	1.561168	0.005000	-0.571245	-0.158470	-9.533810	0.136253	0.003195	0.385717	-0.014661	0.020577	-0.004502
306	1.566168	0.005000	-0.494342	-0.070795	-9.613800	0.135920	0.003417	0.385593	-0.010183	0.013951	-0.000006
307	1.571168	0.005000	-0.587748	-0.196200	-9.561764	0.135588	0.003638	0.385469	-0.010379	0.016904	-0.010571
308	1.576168	0.005000	-0.529392	-0.166596	-9.456840	0.135255	0.003860	0.385345	0.000058	0.017351	-0.018104
309	1.581168	0.005000	-0.529090	-0.078480	-9.463163	0.134923	0.004081	0.385222	-0.004942	0.019980	-0.008425
310	1.586168	0.005000	-0.670519	-0.163839	-9.571121	0.134591	0.004303	0.385098	-0.008658	0.011076	-0.015776
311	1.591168	0.005000	-0.706865	-0.196200	-9.574560	0.134305	0.004222	0.385052	0.000347	0.018192	-0.015140
312	1.596168	0.005000	-0.787894	-0.232346	-9.538414	0.134194	0.003003	0.385299	-0.003938	0.026898	-0.012753
313	1.601168	0.005000	-0.718245	-0.168885	-9.641115	0.134083	0.001784	0.385547	-0.000597	0.015897	-0.019908
314	1.606168	0.005000	-0.697157	-0.126883	-9.571974	0.133972	0.000566	0.385794	-0.002182	0.020257	-0.005632
315	1.611168	0.005000	-0.694203	-0.144843	-9.508197	0.133862	-0.000653	0.386042	-0.002537	0.027972	-0.009327
316	1.616168	0.005000	-0.743318	-0.156960	-9.541823	0.133751	-0.001872	0.386289	-0.001896	0.018724	0.001513
317	1.621168	0.005000	-0.648821	-0.096739	-9.574560	0.133640	-0.003091	0.386537	-0.002352	0.023981	-0.006224
318	1.626168	0.005000	-0.627840	-0.092246	-9.592229	0.133529	-0.004310	0.386784	0.003538	0.019581	0.011700
319	1.631168	0.005000	-0.637431	-0.117720	-9.574560	0.133419	-0.005528	0.387031	0.003557	0.026051	0.003899
320	1.636168	0.005000	-0.556228	-0.168487	-9.512266	0.133308	-0.006747	0.387279	0.007160	0.022765	0.005505
321	1.641168	0.005000	-0.689159	-0.196200	-9.456840	0.133197	-0.007966	0.387526	-0.004260	0.021937	0.007816
322	1.646168	0.005000	-0.622470	-0.185460	-9.535320	0.133086	-0.009185	0.387774	0.006254	0.017159	0.006494
323	1.651168	0.005000	-0.586103	-0.125212	-9.532823	0.132976	-0.010404	0.388021	0.003535	0.014330	0.010472
324	1.656168	0.005000	-0.587829	-0.235440	-9.534549	0.132865	-0.011622	0.388269	-0.001232	0.014350	0.008252
325	1.661168	0.005000	-0.627840	-0.271065	-9.567329	0.132836	-0.011285	0.388516	-0.005909	0.011470	0.018188
326	1.666168	0.005000	-0.620912	-0.170817	-9.606872	0.132836	-0.010398	0.388764	0.002479	0.010782	0.018389
327	1.671168	0.005000	-0.716243	-0.127492	-9.505852	0.132836	-0.009512	0.389011	-0.000530	0.009538	0.005507
328	1.676168	0.005000	-0.653980	-0.104650	-9.548420	0.132836	-0.008625	0.389259	0.005544	0.009338	0.023726
329	1.681168	0.005000	-0.519448	-0.094669	-9.528459	0.132836	-0.007739	0.389506	-0.008928	0.019435	0.013192
330	1.686168	0.005000	-0.530133	-0.136947	-9.496080	0.132836	-0.006853	0.389754	-0.001449	-0.002060	0.023535
331	1.691168	0.005000	-0.600218	-0.134436	-9.557844	0.132836	-0.005966	0.390001	-0.002598	0.004854	0.016574
332	1.696168	0.005000	-0.574892	-0.143252	-9.562736	0.132836	-0.005080	0.390249	0.007290	0.002087	0.007056
333	1.701168	0.005000	-0.567482	-0.096602	-9.514202	0.132836	-0.004194	0.390496	0.000083	-0.007830	0.008255
334	1.706168	0.005000	-0.595861	-0.149699	-9.542581	0.132836	-0.003307	0.390744	0.009018	-0.009228	0.001423
335	1.711168	0.005000	-0.671445	-0.231075	-9.605070	0.132836	-0.002421	0.390991	0.003204	-0.004296	0.019632
336	1.716168	0.005000	-0.704111	-0.235440	-9.494976	0.132836	-0.001534	0.391239	-0.003096	0.001245	0.015315
337	1.721168	0.005000	-0.701983	-0.124225	-9.456840	0.132836	-0.000648	0.391486	0.001522	-0.003684	0.008251
338	1.726168	0.005000	-0.632877	-0.088555	-9.525245	0.132925	-0.000149	0.391667	-0.006651	-0.010592	0.012424
339	1.731168	0.005000	-0.706320	-0.134223	-9.566308	0.133258	-0.000703	0.391667	0.001265	-0.009195	0.006576
340	1.736168	0.005000	-0.717514	-0.185006	-9.546514	0.133590	-0.001258	0.391667	0.005633	-0.006720	0.005591
341	1.741168	0.005000	-0.667080	-0.171452	-9.506336	0.133923	-0.001812	0.391667	-0.004351	-0.003094	-0.004687
342	1.746168	0.005000	-0.728224	-0.156960	-9.613800	0.134255	-0.002366	0.391667	-0.000280	-0.007283	0.010062
343	1.751168	0.005000	-0.729026	-0.177609	-9.456840	0.134588	-0.002920	0.391667	-0.008107	-0.002793	0.002113
344	1.756168	0.005000	-0.721887	-0.251007	-9.535320	0.134920	-0.003475	0.391667	-0.006354	-0.007062	-0.002809
345	1.761168	0.005000	-0.720661	-0.169410	-9.547770	0.135253	-0.004029	0.391667	-0.003125	-0.008883	0.005237
346	1.766168	0.005000	-0.696714	-0.088086	-9.584166	0.135585	-0.004583	0.391667	-0.007779	-0.003059	0.002483
347	1.771168	0.005000	-0.706320	-0.078480	-9.529027	0.135918	-0.005138	0.391667	-0.006164	-0.006783	-0.001435
348	1.776168	0.005000	-0.745560	-0.117720	-9.528501	0.136251	-0.005692	0.391667	-0.014371	0.001192	-0.012259
349	1.781168	0.005000	-0.706320	-0.156809	-9.496080	0.136583	-0.006246	0.391667	0.002890	-0.006917	-0.016183
350	1.786168	0.005000	-0.742436	-0.153836	-9.568311	0.136916	-0.006800	0.391667	-0.017603	-0.010723	-0.013406
351	1.791168	0.005000	-0.739554	-0.150954	-9.568554	0.137248	-0.007355	0.391667	-0.014295	-0.010462	-0.010996
352	1.796168	0.005000	-0.754757	-0.187003	-9.475234	0.137135	-0.007017	0.391269	-0.014094	-0.008631	-0.003590
353	1.801168	0.005000	-0.664281	-0.196200	-9.523173	0.136913	-0.006463	0.390774	-0.017787	-0.001632	-0.017047
354	1.806168	0.005000	-0.643300	-0.235440	-9.519860	0.136692	-0.005909	0.390279	-0.020198	-0.002450	-0.012478
355	1.811168	0.005000	-0.627840	-0.194047	-9.630190	0.136470	-0.005355	0.389784	-0.015263	0.003700	-0.014793
356	1.816168	0.005000	-0.610202	-0.139322	-9.552958	0.136248	-0.004801	0.389289	-0.018562	-0.000136	-0.011120
357	1.821168	0.005000	-0.657079	-0.142340	-9.589180	0.136027	-0.004247	0.388794	-0.017468	-0.002131	-0.003184
358	1.826168	0.005000	-0.671875	-0.196200	-9.535320	0.135805	-0.003693	0.388299	-0.020464	0.000833	-0.019212
359	1.831168	0.005000	-0.644918	-0.174038	-9.526781	0.135584	-0.003139	0.387804	-0.011845	0.002328	-0.007916
360	1.836168	0.005000	-0.750900	-0.235440	-9.608460	0.135362	-0.002585	0.387309	-0.013669	0.007716	-0.008257
361	1.841168	0.005000	-0.740627	-0.115253	-9.569627	0.135140	-0.002031	0.386814	-0.004256	-0.004532	-0.015136
362	1.846168	0.005000	-0.782349	-0.040057	-9.534503	0.134919	-0.001477	0.386319	-0.006630	0.003581	-0.011311
363	1.851168	0.005000	-0.788461	-0.074819	-9.538981	0.134697	-0.000923	0.385824	-0.009879	0.012426	-0.008963
364	1.856168	0.005000	-0.699441	-0.052998	-9.496080	0.134476	-0.000369	0.385330	-0.006037	0.001433	-0.000241
365	1.861168	0.005000	-0.696518	-0.117720	-9.574560	0.134402	0.000000	0.385124	-0.007275	0.009355	-0.012097
366	1.866168	0.005000	-0.784800	-0.144000	-9.548280	0.134624	0.000000	0.385495	-0.004054	0.013601	-0.015083
367	1.871168	0.005000	-0.768841	-0.156960	-9.581882	0.134845	0.000000	0.385866	-0.009972	0.022737	-0.012603
368	1.876168	0.005000	-0.784074	-0.215457	-9.633057	0.135067	0.000000	0.386237	-0.012924	0.019175	-0.012738
369	1.881168	0.005000	-0.667080	-0.174099	-9.496080	0.135288	0.000000	0.386608	0.001659	0.015980	-0.004817
370	1.886168	0.005000	-0.602426	-0.210026	-9.509906	0.135509	0.000000	0.386979	-0.006726	0.017417	-0.019091
371	1.891168	0.005000	-0.706320	-0.257405	-9.511752	0.135731	0.000000	0.387350	-0.013585	0.018290	-0.006795
372	1.896168	0.005000	-0.667080	-0.227755	-9.606115	0.135952	0.000000	0.387721	-0.016200	0.016106	-0.009926
373	1.901168	0.005000	-0.711161	-0.152119	-9.574560	0.136174	0.000000	0.388092	-0.007593	0.017093	-0.014800
374	1.906168	0.005000	-0.668608	-0.116192	-9.574560	0.136395	0.000000	0.388463	-0.018045	0.022161	-0.005476
375	1.911168	0.005000	-0.630472	-0.078480	-9.460788	0.136617	0.000000	0.388834	-0.009679	0.022636	-0.016379
376	1.916168	0.005000	-0.597828	-0.117720	-9.486852	0.136838	0.000000	0.389205	-0.012334	0.011381	-0.010746
377	1.921168	0.005000	-0.580767	-0.164793	-9.566727	0.137060	0.000000	0.389576	-0.014519	0.017082	-0.007712
378	1.926168	0.005000	-0.584758	-0.150032	-9.603029	0.137281	0.000000	0.389947	-0.010804	0.011408	-0.013755
379	1.931168	0.005000	-0.669562	-0.117720	-9.625225	0.137313	0.000380	0.390000	0.001777	0.007829	-0.006576
380	1.936168	0.005000	-0.745560	-0.106223	-9.518408	0.137313	0.000823	0.390000	-0.003674	0.000859	-0.005546
381	1.941168	0.005000	-0.588600	-0.136974	-9.535320	0.137313	0.001266	0.390000	-0.009689	0.003259	0.001146
382	1.946168	0.005000	-0.644011	-0.147687	-9.496080	0.137313	0.001710	0.390000	-0.014678	0.012713	0.003220
383	1.951168	0.005000	-0.601775	-0.104545	-9.509255	0.137313	0.002153	0.390000	-0.000621	-0.000106	0.004045
384	1.956168	0.005000	-0.637869	-0.137779	-9.584589	0.137313	0.002596	0.390000	-0.012339	0.009924	-0.009112
385	1.961168	0.005000	-0.656242	-0.196200	-9.613800	0.137313	0.003039	0.390000	-0.011423	0.001637	-0.009017
386	1.966168	0.005000	-0.588600	-0.184582	-9.531447	0.137313	0.003482	0.390000	-0.011824	0.001264	-0.003577
387	1.971168	0.005000	-0.548331	-0.156960	-9.574560	0.137313	0.003926	0.390000	-0.007632	0.009777	-0.011301
388	1.976168	0.005000	-0.547545	-0.119535	-9.499711	0.137313	0.004369	0.390000	-0.004813	-0.007252	0.003350
389	1.981168	0.005000	-0.667080	-0.117720	-9.569447	0.137313	0.004812	0.390000	0.000127	-0.001685	0.000828
390	1.986168	0.005000	-0.596926	-0.117720	-9.456840	0.137313	0.005255	0.390000	-0.005364	-0.002913	-0.003537
391	1.991168	0.005000	-0.644540	-0.156960	-9.552020	0.137313	0.005698	0.390000	-0.001228	0.001092	-0.000670
392	1.996168	0.005000	-0.681194	-0.196200	-9.521206	0.137270	0.006013	0.390000	0.012920	-0.002377	-0.005965
393	2.001168	0.005000	-0.606011	-0.174371	-9.535320	0.137159	0.006124	0.390000	-0.002242	-0.007054	-0.002228
394	2.006168	0.005000	-0.626569	-0.078480	-9.573289	0.137049	0.006235	0.390000	-0.000422	-0.004370	0.001929
395	2.011168	0.005000	-0.596496	-0.172632	-9.574560	0.136938	0.006345	0.390000	0.006244	-0.003802	0.000968
396	2.016168	0.005000	-0.693639	-0.169641	-9.574560	0.136827	0.006456	0.390000	-0.010398	-0.008047	-0.006374
397	2.021168	0.005000	-0.627840	-0.117720	-9.535320	0.136716	0.006567	0.390000	-0.003513	-0.011260	-0.012933
398	2.026168	0.005000	-0.667080	-0.084697	-9.502297	0.136606	0.006678	0.390000	0.002252	-0.006636	-0.001943
399	2.031168	0.005000	-0.663707	-0.232067	-9.535320	0.136495	0.006789	0.390000	0.000673	-0.007239	-0.006507
400	2.036168	0.005000	-0.784649	-0.117720	-9.456840	0.136384	0.006900	0.390000	-0.002462	-0.005142	-0.000719
401	2.041168	0.005000	-0.742792	-0.117720	-9.420368	0.136273	0.007010	0.390000	0.000846	0.002864	-0.004867
402	2.046168	0.005000	-0.673089	-0.295892	-9.456840	0.136162	0.007121	0.390000	-0.008167	-0.008418	0.003285
403	2.051168	0.005000	-0.618568	-0.214743	-9.565288	0.136052	0.007232	0.390000	-0.002408	0.000924	-0.002525
404	2.056168	0.005000	-0.691526	-0.183977	-9.535320	0.135941	0.007343	0.390000	0.006644	0.005019	-0.018046
405	2.061168	0.005000	-0.636947	-0.151000	-9.520253	0.135830	0.007454	0.390000	0.010833	0.001536	-0.007999
406	2.066168	0.005000	-0.604499	-0.138580	-9.574560	0.135618	0.007158	0.390000	0.005803	-0.004368	-0.021455
407	2.071168	0.005000	-0.706320	-0.156960	-9.574560	0.135396	0.006826	0.390000	0.020969	-0.007198	-0.010545
408	2.076168	0.005000	-0.730841	-0.117720	-9.589279	0.135175	0.006493	0.390000	0.026106	-0.002453	-0.008513
409	2.081168	0.005000	-0.678815	-0.196200	-9.590331	0.134953	0.006161	0.390000	0.022813	-0.005029	-0.004908
410	2.086168	0.005000	-0.706320	-0.305358	-9.535320	0.134731	0.005829	0.390000	0.021189	-0.009070	-0.006745
411	2.091168	0.005000	-0.667080	-0.230176	-9.608536	0.134510	0.005496	0.390000	0.017707	-0.006769	-0.011361
412	2.096168	0.005000	-0.664660	-0.240281	-9.576980	0.134288	0.005164	0.390000	0.008617	-0.008068	-0.000707
413	2.101168	0.005000	-0.704556	-0.352278	-9.498726	0.134067	0.004831	0.390000	0.001564	-0.009554	-0.012600
414	2.106168	0.005000	-0.667080	-0.274680	-9.421336	0.133845	0.004499	0.390000	-0.004074	-0.016656	-0.012778
415	2.111168	0.005000	-0.627840	-0.235440	-9.514218	0.133623	0.004166	0.390000	-0.000456	-0.021549	-0.005924
416	2.116168	0.005000	-0.735682	-0.304042	-9.545198	0.133402	0.003834	0.390000	-0.004598	-0.010717	-0.019222
417	2.121168	0.005000	-0.562551	-0.235773	-9.535320	0.133180	0.003502	0.390000	-0.008942	-0.021897	-0.004055
418	2.126168	0.005000	-0.667080	-0.235440	-9.558525	0.132959	0.003169	0.390000	-0.016932	-0.013090	-0.009730
419	2.131168	0.005000	-0.706320	-0.137053	-9.574560	0.132935	0.002738	0.390000	-0.008917	-0.014910	-0.001134
420	2.136168	0.005000	-0.750673	-0.139896	-9.513144	0.133156	0.002184	0.390000	-0.025369	-0.023655	-0.011615
421	2.141168	0.005000	-0.771049	-0.184461	-9.602061	0.133378	0.001630	0.390000	-0.011197	-0.013271	-0.002345
422	2.146168	0.005000	-0.677987	-0.224533	-9.620320	0.133599	0.001077	0.390000	-0.022177	-0.009181	-0.000521
423	2.151168	0.005000	-0.784800	-0.227831	-9.550538	0.133821	0.000523	0.390000	-0.014920	-0.013722	-0.006934
424	2.156168	0.005000	-0.745560	-0.196200	-9.604270	0.134042	-0.000031	0.390000	-0.006354	-0.016626	-0.003061
425	2.161168	0.005000	-0.822588	-0.119172	-9.497532	0.134264	-0.000585	0.390000	-0.004476	-0.006947	-0.006603
426	2.166168	0.005000	-0.860497	-0.194808	-9.497472	0.134485	-0.001139	0.390000	-0.007326	-0.005782	-0.013818
427	2.171168	0.005000	-0.794072	-0.230804	-9.530684	0.134707	-0.001692	0.390000	-0.011218	-0.010535	-0.006469
428	2.176168	0.005000	-0.863280	-0.164493	-9.496080	0.134928	-0.002246	0.390000	-0.021732	0.004743	-0.020270
429	2.181168	0.005000	-0.777714	-0.196200	-9.556756	0.135150	-0.002800	0.390000	-0.022320	-0.008398	-0.011301
430	2.186168	0.005000	-0.784800	-0.131410	-9.535320	0.135371	-0.003354	0.390000	-0.032517	0.005060	-0.010874
431	2.191168	0.005000	-0.716682	-0.202372	-9.541492	0.135593	-0.003907	0.390000	-0.008581	-0.008828	-0.014276
432	2.196168	0.005000	-0.726182	-0.216062	-9.594422	0.135814	-0.004461	0.390000	-0.028521	-0.006786	-0.024311
433	2.201168	0.005000	-0.722884	-0.156960	-9.591124	0.135821	-0.004371	0.389640	-0.022157	-0.001818	-0.022602
434	2.206168	0.005000	-0.773001	-0.131440	-9.523521	0.135821	-0.004260	0.389269	-0.032809	-0.009078	-0.020919
435	2.211168	0.005000	-0.774392	-0.088888	-9.506488	0.135821	-0.004149	0.388898	-0.025223	-0.007448	-0.023003
436	2.216168	0.005000	-0.721447	-0.110156	-9.535320	0.135821	-0.004038	0.388527	-0.023504	-0.004679	-0.020339
437	2.221168	0.005000	-0.863280	-0.078480	-9.578826	0.135821	-0.003927	0.388155	-0.025865	-0.006124	-0.025469
438	2.226168	0.005000	-0.704915	-0.155555	-9.653040	0.135821	-0.003816	0.387784	-0.013682	-0.006858	-0.025435
439	2.231168	0.005000	-0.741778	-0.117720	-9.615691	0.135821	-0.003706	0.387413	-0.013722	0.000322	-0.015900
440	2.236168	0.005000	-0.780065	-0.112985	-9.565090	0.135821	-0.003595	0.387042	-0.011728	0.009266	-0.018481
441	2.241168	0.005000	-0.706320	-0.140895	-9.520178	0.135821	-0.003484	0.386671	-0.003287	-0.003149	-0.017249
442	2.246168	0.005000	-0.773455	-0.117720	-9.518771	0.135821	-0.003373	0.386299	-0.017230	-0.001492	-0.028451
443	2.251168	0.005000	-0.667080	-0.156960	-9.546181	0.135821	-0.003262	0.385928	-0.007266	0.001578	-0.027834
444	2.256168	0.005000	-0.688833	-0.100233	-9.531054	0.135821	-0.003151	0.385557	-0.012676	0.007694	-0.021875
445	2.261168	0.005000	-0.744138	-0.098811	-9.496080	0.135821	-0.003041	0.385186	-0.004771	0.005985	-0.012481
446	2.266168	0.005000	-0.737512	-0.102124	-9.558964	0.135876	-0.003096	0.384938	0.003200	0.001833	-0.009596
447	2.271168	0.005000	-0.875886	-0.144354	-9.547926	0.135987	-0.003317	0.384814	-0.003076	0.005338	-0.009479
448	2.276168	0.005000	-0.913396	-0.136629	-9.565105	0.136098	-0.003539	0.384691	-0.005301	0.012706	-0.007710
449	2.281168	0.005000	-0.824040	-0.163571	-9.528709	0.136209	-0.003761	0.384567	-0.006100	0.021372	-0.020436
450	2.286168	0.005000	-0.791395	-0.192902	-9.496080	0.136320	-0.003982	0.384443	-0.007374	0.014093	-0.017583
451	2.291168	0.005000	-0.939945	-0.195746	-9.535320	0.136430	-0.004204	0.384319	-0.003489	0.010553	-0.001408
452	2.296168	0.005000	-0.748371	-0.156960	-9.535320	0.136541	-0.004426	0.384195	-0.010545	0.020501	-0.003840
453	2.301168	0.005000	-0.717696	-0.162648	-9.568872	0.136652	-0.004648	0.384072	-0.008638	0.005983	-0.008682
454	2.306168	0.005000	-0.615283	-0.156960	-9.504974	0.136763	-0.004869	0.383948	-0.018083	0.008453	-0.018613
455	2.311168	0.005000	-0.733715	-0.117720	-9.511631	0.136874	-0.005091	0.383824	-0.005965	0.016278	-0.010080
456	2.316168	0.005000	-0.642809	-0.181231	-9.574560	0.136984	-0.005313	0.383700	-0.000068	0.010427	-0.009400
457	2.321168	0.005000	-0.649094	-0.156960	-9.592546	0.137095	-0.005534	0.383576	0.001563	0.019216	-0.007144
458	2.326168	0.005000	-0.706320	-0.160318	-9.574560	0.137206	-0.005756	0.383452	0.010760	0.021348	-0.000665
459	2.331168	0.005000	-0.736514	-0.132817	-9.520223	0.137317	-0.005974	0.383346	0.005578	0.015809	-0.004504
460	2.336168	0.005000	-0.784800	-0.144847	-9.523207	0.137428	-0.006085	0.383717	0.009298	0.006827	-0.001222
461	2.341168	0.005000	-0.784800	-0.135631	-9.574560	0.137538	-0.006195	0.384088	0.012773	0.011360	0.003744
462	2.346168	0.005000	-0.818001	-0.190161	-9.619839	0.137649	-0.006306	0.384459	0.016118	0.011768	-0.004937
463	2.351168	0.005000	-0.739963	-0.198999	-9.613800	0.137760	-0.006417	0.384830	0.009761	0.017493	0.005167
464	2.356168	0.005000	-0.667080	-0.196693	-9.652547	0.137871	-0.006528	0.385201	0.002412	0.013680	0.006318
465	2.361168	0.005000	-0.745560	-0.192857	-9.613800	0.137982	-0.006639	0.385572	0.011050	0.010654	0.004904
466	2.366168	0.005000	-0.686812	-0.124297	-9.607223	0.138092	-0.006749	0.385943	-0.000223	0.023809	0.000544
467	2.371168	0.005000	-0.706320	-0.186700	-9.535320	0.138203	-0.006860	0.386314	-0.005230	0.012651	0.004827
468	2.376168	0.005000	-0.640491	-0.183549	-9.561909	0.138314	-0.006971	0.386685	-0.001438	0.009708	0.000399
469	2.381168	0.005000	-0.651438	-0.211842	-9.637398	0.138425	-0.007082	0.387056	-0.001227	0.013740	-0.008852
470	2.386168	0.005000	-0.668859	-0.175691	-9.613800	0.138536	-0.007193	0.387427	-0.006307	0.003990	0.003645
471	2.391168	0.005000	-0.610398	-0.235440	-9.574560	0.138646	-0.007303	0.387798	-0.007883	0.004375	0.001207
472	2.396168	0.005000	-0.578222	-0.196200	-9.539373	0.138757	-0.007414	0.388169	-0.003785	0.006266	0.005807
473	2.401168	0.005000	-0.695020	-0.263380	-9.524020	0.138620	-0.007154	0.388471	-0.004969	0.002663	0.003640
474	2.406168	0.005000	-0.651802	-0.266693	-9.535320	0.138288	-0.006600	0.388719	-0.006180	0.002987	-0.006940
475	2.411168	0.005000	-0.730130	-0.254107	-9.530177	0.137956	-0.006046	0.388966	0.001108	0.000237	0.007791
476	2.416168	0.005000	-0.633377	-0.196200	-9.684898	0.137623	-0.005492	0.389214	-0.002710	0.005799	-0.005386
477	2.421168	0.005000	-0.745560	-0.234442	-9.535320	0.137291	-0.004938	0.389461	-0.003470	-0.007718	0.003586
478	2.426168	0.005000	-0.741300	-0.200460	-9.456840	0.136958	-0.004384	0.389709	-0.009468	-0.000775	-0.003404
479	2.431168	0.005000	-0.724094	-0.242595	-9.481770	0.136626	-0.003830	0.389956	0.001131	0.001722	0.001079
480	2.436168	0.005000	-0.735227	-0.282920	-9.603467	0.136293	-0.003275	0.390204	-0.013658	0.008870	0.004678
481	2.441168	0.005000	-0.732263	-0.248737	-9.678983	0.135961	-0.002721	0.390451	-0.012006	0.005535	-0.000125
482	2.446168	0.005000	-0.633861	-0.252050	-9.591170	0.135629	-0.002167	0.390699	-0.017666	-0.001192	-0.001860
483	2.451168	0.005000	-0.706320	-0.215654	-9.554774	0.135296	-0.001613	0.390946	-0.025599	0.007044	0.002137
484	2.456168	0.005000	-0.745560	-0.173449	-9.541583	0.134964	-0.001059	0.391194	-0.017545	0.009672	0.001233
485	2.461168	0.005000	-0.667080	-0.182555	-9.523369	0.134631	-0.000505	0.391441	-0.025656	0.007128	-0.002683
486	2.466168	0.005000	-0.687744	-0.185868	-9.593136	0.134338	0.000039	0.391645	-0.018315	-0.001685	-0.009525
487	2.471168	0.005000	-0.620438	-0.164362	-9.527918	0.134449	0.000482	0.391398	-0.014749	-0.000694	-0.014004
488	2.476168	0.005000	-0.632030	-0.113530	-9.566180	0.134559	0.000925	0.391150	-0.021519	0.003025	-0.012082
489	2.481168	0.005000	-0.704974	-0.116374	-9.533974	0.134670	0.001368	0.390903	-0.013189	0.001752	-0.002083
490	2.486168	0.005000	-0.667080	-0.115777	-9.607970	0.134781	0.001812	0.390655	-0.014486	0.008770	-0.001739
491	2.491168	0.005000	-0.657459	-0.108099	-9.608990	0.134892	0.002255	0.390408	-0.012195	-0.000949	-0.013231
492	2.496168	0.005000	-0.604816	-0.109612	-9.636824	0.135003	0.002698	0.390160	-0.015958	-0.001833	-0.010085
493	2.501168	0.005000	-0.588600	-0.156960	-9.557892	0.135114	0.003141	0.389913	-0.021872	-0.006388	-0.017171
494	2.506168	0.005000	-0.652815	-0.221175	-9.485370	0.135224	0.003584	0.389665	-0.022022	-0.006170	-0.006597
495	2.511168	0.005000	-0.623324	-0.235440	-9.496080	0.135335	0.004028	0.389418	-0.017206	-0.000008	-0.019187
496	2.516168	0.005000	-0.643527	-0.197773	-9.535320	0.135446	0.004471	0.389170	-0.019983	0.001002	-0.024284
497	2.521168	0.005000	-0.745560	-0.196200	-9.597999	0.135557	0.004914	0.388923	-0.019737	-0.002738	-0.026981
498	2.526168	0.005000	-0.759447	-0.222763	-9.574560	0.135668	0.005357	0.388675	-0.013030	-0.003844	-0.029190
499	2.531168	0.005000	-0.657360	-0.176401	-9.525600	0.135779	0.005800	0.388428	-0.009781	-0.004581	-0.019149
500	2.536168	0.005000	-0.667080	-0.170030	-9.489545	0.136026	0.005696	0.388257	-0.014443	-0.001109	-0.019744
501	2.541168	0.005000	-0.667080	-0.202644	-9.574560	0.136359	0.005253	0.388133	-0.008775	-0.012871	-0.012920
502	2.546168	0.005000	-0.706698	-0.235062	-9.612665	0.136691	0.004809	0.388009	-0.020172	-0.006063	-0.011720
503	2.551168	0.005000	-0.672852	-0.232554	-9.459726	0.137024	0.004366	0.387885	-0.017123	-0.008147	-0.015548
504	2.556168	0.005000	-0.745560	-0.168487	-9.478790	0.137357	0.003923	0.387762	-0.019917	-0.004512	-0.016793
505	2.561168	0.005000	-0.667080	-0.208533	-9.604831	0.137689	0.003479	0.387638	-0.017503	-0.011738	-0.013029
506	2.566168	0.005000	-0.639760	-0.274680	-9.508000	0.138022	0.003036	0.387514	-0.015233	-0.007368	-0.021113
507	2.571168	0.005000	-0.691276	-0.156960	-9.505232	0.138354	0.002593	0.387390	-0.017618	-0.004887	-0.012162
508	2.576168	0.005000	-0.667080	-0.181254	-9.478018	0.138687	0.002149	0.387267	-0.018679	-0.011084	-0.008668
509	2.581168	0.005000	-0.667080	-0.196200	-9.535320	0.139020	0.001706	0.387143	-0.008214	-0.003423	-0.005308
510	2.586168	0.005000	-0.706320	-0.211050	-9.613800	0.139352	0.001262	0.387019	-0.030212	-0.014091	-0.020520
511	2.591168	0.005000	-0.706320	-0.290473	-9.496080	0.139685	0.000819	0.386896	-0.023607	-0.018605	-0.003609
512	2.596168	0.005000	-0.784800	-0.156960	-9.474390	0.140017	0.000376	0.386772	-0.029804	-0.013193	-0.008083
513	2.601168	0.005000	-0.784800	-0.190633	-9.585694	0.140248	0.000017	0.386724	-0.015254	-0.011762	-0.002254
514	2.606168	0.005000	-0.824040	-0.159652	-9.611108	0.139916	0.000128	0.387095	-0.019929	-0.009977	-0.008678
515	2.611168	0.005000	-0.669379	-0.234865	-9.690555	0.139583	0.000239	0.387466	-0.022458	-0.011652	-0.010707
516	2.616168	0.005000	-0.812515	-0.235440	-9.543004	0.139251	0.000349	0.387837	-0.025243	-0.005276	-0.004872
517	2.621168	0.005000	-0.713052	-0.202932	-9.456840	0.138918	0.000460	0.388209	-0.023291	-0.005855	-0.010742
518	2.626168	0.005000	-0.735645	-0.176789	-9.515491	0.138586	0.000571	0.388580	-0.025185	-0.006198	-0.004907
519	2.631168	0.005000	-0.745560	-0.209693	-9.483207	0.138254	0.000682	0.388951	-0.024304	0.002570	-0.003296
520	2.636168	0.005000	-0.745560	-0.251626	-9.512266	0.137921	0.000793	0.389322	-0.027606	0.000888	-0.004470
521	2.641168	0.005000	-0.587420	-0.293710	-9.494900	0.137589	0.000904	0.389693	-0.016788	0.010155	-0.006798
522	2.646168	0.005000	-0.723232	-0.235440	-9.512992	0.137256	0.001014	0.390064	-0.028584	0.008617	-0.007617
523	2.651168	0.005000	-0.734457	-0.207303	-9.585663	0.136924	0.001125	0.390436	-0.016084	0.000512	0.001296
524	2.656168	0.005000	-0.734805	-0.106965	-9.535320	0.136591	0.001236	0.390807	-0.026010	0.001877	-0.012282
525	2.661168	0.005000	-0.721962	-0.156960	-9.543141	0.136259	0.001347	0.391178	-0.020199	-0.005252	-0.003263
526	2.666168	0.005000	-0.784800	-0.108492	-9.422214	0.135927	0.001458	0.391549	-0.018687	0.006511	-0.010638
527	2.671168	0.005000	-0.781302	-0.081978	-9.496080	0.135972	0.001342	0.391583	-0.019343	0.003884	-0.018139
528	2.676168	0.005000	-0.706320	-0.232354	-9.609171	0.136194	0.001120	0.391459	-0.017494	-0.010516	-0.009704
529	2.681168	0.005000	-0.657509	-0.127291	-9.648255	0.136415	0.000899	0.391335	-0.013788	-0.008601	-0.012554
530	2.686168	0.005000	-0.698635	-0.117720	-9.645355	0.136637	0.000677	0.391211	-0.014623	-0.005386	-0.000040
531	2.691168	0.005000	-0.756557	-0.156960	-9.529072	0.136858	0.000455	0.391088	-0.017904	-0.003146	-0.010623
532	2.696168	0.005000	-0.669364	-0.145403	-9.535320	0.137080	0.000234	0.390964	-0.008074	-0.002364	-0.009296
533	2.701168	0.005000	-0.745560	-0.051417	-9.535320	0.137301	0.000012	0.390840	-0.014230	0.000184	-0.010529
534	2.706168	0.005000	-0.746286	-0.039240	-9.554577	0.137523	-0.000209	0.390717	-0.018917	0.010201	-0.023232
535	2.711168	0.005000	-0.738208	-0.094424	-9.487488	0.137744	-0.000431	0.390593	-0.011942	-0.005809	-0.014652
536	2.716168	0.005000	-0.784800	-0.130760	-9.483040	0.137966	-0.000652	0.390469	-0.017311	0.009229	-0.028778
537	2.721168	0.005000	-0.745560	-0.098758	-9.545459	0.138187	-0.000874	0.390346	-0.004959	0.003989	-0.012661
538	2.726168	0.005000	-0.798717	-0.235440	-9.574560	0.138409	-0.001096	0.390222	-0.010841	0.009244	-0.018617
539	2.731168	0.005000	-0.717257	-0.203491	-9.542611	0.138630	-0.001317	0.390098	-0.014681	0.003297	-0.017945
540	2.736168	0.005000	-0.743956	-0.197804	-9.535320	0.138806	-0.001470	0.389949	-0.021403	0.004125	-0.006854
541	2.741168	0.005000	-0.629867	-0.237467	-9.498107	0.138806	-0.001359	0.389702	-0.020115	0.003189	-0.019025
542	2.746168	0.005000	-0.695766	-0.269403	-9.535320	0.138806	-0.001248	0.389454	-0.019559	-0.001019	-0.018987
543	2.751168	0.005000	-0.745560	-0.266496	-9.496080	0.138806	-0.001138	0.389207	-0.020006	0.003104	-0.015779
544	2.756168	0.005000	-0.706320	-0.212739	-9.551859	0.138806	-0.001027	0.388959	-0.022279	0.013151	-0.016940
545	2.761168	0.005000	-0.745560	-0.210525	-9.563971	0.138806	-0.000916	0.388712	-0.022120	0.002822	-0.007422
546	2.766168	0.005000	-0.659153	-0.156960	-9.539283	0.138806	-0.000805	0.388464	-0.019228	0.008648	-0.015680
547	2.771168	0.005000	-0.646383	-0.138417	-9.537473	0.138806	-0.000694	0.388217	-0.018445	-0.003065	-0.013464
548	2.776168	0.005000	-0.564820	-0.124860	-9.550780	0.138806	-0.000583	0.387970	-0.022584	0.010359	-0.014011
549	2.781168	0.005000	-0.585801	-0.105573	-9.625947	0.138806	-0.000473	0.387722	-0.013462	-0.002954	-0.015002
550	2.786168	0.005000	-0.579297	-0.127023	-9.604497	0.138806	-0.000362	0.387475	-0.022551	0.004445	-0.007370
551	2.791168	0.005000	-0.673465	-0.130491	-9.653040	0.138806	-0.000251	0.387227	-0.009468	0.002571	-0.011255
552	2.796168	0.005000	-0.667080	-0.163283	-9.538482	0.138806	-0.000140	0.386980	-0.012869	0.004501	-0.003618
553	2.801168	0.005000	-0.589228	-0.235126	-9.418856	0.138806	-0.000029	0.386732	-0.011068	0.001374	-0.016231
554	2.806168	0.005000	-0.630835	-0.159955	-9.538315	0.138725	-0.000326	0.386576	-0.010217	-0.000715	-0.018234
555	2.811168	0.005000	-0.622001	-0.129398	-9.541159	0.138614	-0.000769	0.386452	-0.018894	-0.003188	-0.015852
556	2.816168	0.005000	-0.706320	-0.087512	-9.456840	0.138503	-0.001212	0.386329	-0.027667	-0.005112	-0.012988
557	2.821168	0.005000	-0.718301	-0.144979	-9.601819	0.138392	-0.001655	0.386205	-0.026974	-0.010782	-0.005248
558	2.826168	0.005000	-0.769506	-0.228799	-9.541961	0.138281	-0.002098	0.386081	-0.031598	0.002743	-0.005642
559	2.831168	0.005000	-0.743503	-0.173494	-9.576617	0.138171	-0.002541	0.385958	-0.026488	-0.002498	-0.001579
560	2.836168	0.005000	-0.688515	-0.153329	-9.653040	0.138060	-0.002984	0.385834	-0.021736	0.011747	-0.007442
561	2.841168	0.005000	-0.681572	-0.167216	-9.599308	0.137949	-0.003427	0.385710	-0.026304	-0.000537	-0.012254
562	2.846168	0.005000	-0.733912	-0.062536	-9.558616	0.137838	-0.003870	0.385586	-0.038076	0.004537	-0.016804
563	2.851168	0.005000	-0.627840	-0.078480	-9.526970	0.137727	-0.004313	0.385463	-0.025896	0.005414	-0.014577
564	2.856168	0.005000	-0.622399	-0.106837	-9.496080	0.137617	-0.004756	0.385339	-0.032800	0.004273	-0.009294
565	2.861168	0.005000	-0.547167	-0.119913	-9.493887	0.137506	-0.005199	0.385215	-0.024058	0.010964	-0.018096
566	2.866168	0.005000	-0.510120	-0.195550	-9.456840	0.137395	-0.005642	0.385092	-0.016595	0.007360	-0.009594
567	2.871168	0.005000	-0.510120	-0.113772	-9.488184	0.137313	-0.005712	0.385032	-0.022954	0.013212	-0.006476
568	2.876168	0.005000	-0.510120	-0.156960	-9.542112	0.137313	-0.004714	0.385156	-0.011421	0.019542	-0.002779
569	2.881168	0.005000	-0.402505	-0.117720	-9.496080	0.137313	-0.003717	0.385280	-0.017180	0.015755	0.004046
570	2.886168	0.005000	-0.366918	-0.156960	-9.417600	0.137313	-0.002720	0.385403	-0.020736	0.017916	-0.007097
571	2.891168	0.005000	-0.205700	-0.117720	-9.479833	0.137313	-0.001723	0.385527	-0.019101	0.014035	0.003791
572	2.896168	0.005000	-0.255589	-0.118779	-9.496080	0.137313	-0.000726	0.385651	-0.026310	0.018003	-0.001467
573	2.901168	0.005000	-0.235440	-0.173797	-9.669877	0.137313	0.000272	0.385775	-0.015724	0.015556	0.000968
574	2.906168	0.005000	-0.114982	-0.207455	-9.599807	0.137313	0.001269	0.385898	-0.019997	0.017233	0.001134
575	2.911168	0.005000	-0.067459	-0.257483	-9.507101	0.137313	0.002266	0.386022	-0.027220	0.020185	-0.011584
576	2.916168	0.005000	0.000000	-0.243291	-9.527484	0.137313	0.003263	0.386146	-0.032029	0.001014	0.002402
577	2.921168	0.005000	0.000000	-0.209814	-9.535320	0.137313	0.004261	0.386270	-0.033257	-0.004488	0.001659
578	2.926168	0.005000	0.119414	-0.237134	-9.494386	0.137313	0.005258	0.386393	-0.042901	-0.011766	-0.002278
579	2.931168	0.005000	0.156960	-0.198499	-9.456840	0.137313	0.006255	0.386517	-0.033093	-0.012746	-0.001246
580	2.936168	0.005000	0.222250	-0.279077	-9.530923	0.137313	0.007252	0.386641	-0.036294	-0.022506	-0.009654
581	2.941168	0.005000	0.338577	-0.210783	-9.496080	0.137488	0.007201	0.386569	-0.031034	-0.039853	-0.002547
582	2.946168	0.005000	0.255710	-0.175930	-9.477110	0.137709	0.006868	0.386446	-0.032014	-0.041355	-0.007810
583	2.951168	0.005000	0.300472	-0.300472	-9.521872	0.137931	0.006536	0.386322	-0.023228	-0.057054	0.006176
584	2.956168	0.005000	0.285103	-0.274680	-9.479526	0.138153	0.006204	0.386198	-0.021083	-0.063013	0.004887
585	2.961168	0.005000	0.255151	-0.294330	-9.496080	0.138374	0.005871	0.386074	-0.022335	-0.074921	0.019231
586	2.966168	0.005000	0.313920	-0.291486	-9.535320	0.138596	0.005539	0.385951	-0.029581	-0.080839	0.027712
587	2.971168	0.005000	0.274680	-0.313920	-9.431093	0.138818	0.005206	0.385827	-0.024423	-0.080329	0.030525
588	2.976168	0.005000	0.395758	-0.321211	-9.435541	0.139039	0.004874	0.385703	-0.022393	-0.081333	0.045204
589	2.981168	0.005000	0.494029	-0.290113	-9.386076	0.139261	0.004541	0.385579	-0.024373	-0.085490	0.047434
590	2.986168	0.005000	0.584092	-0.274680	-9.431124	0.139483	0.004209	0.385456	-0.021354	-0.105693	0.056470
591	2.991168	0.005000	0.472524	-0.274680	-9.532031	0.139704	0.003877	0.385332	-0.028796	-0.110108	0.072168
592	2.996168	0.005000	0.472529	-0.274680	-9.419249	0.139926	0.003544	0.385208	-0.022648	-0.120730	0.071486
593	3.001168	0.005000	0.549360	-0.313920	-9.556589	0.140148	0.003212	0.385084	-0.030009	-0.144278	0.094335
594	3.006168	0.005000	0.620049	-0.211781	-9.503871	0.140546	0.002950	0.384882	-0.033383	-0.151973	0.080765
595	3.011168	0.005000	0.627840	-0.099749	-9.496080	0.141322	0.002839	0.384511	-0.014081	-0.181775	0.088304
596	3.016168	0.005000	0.715064	-0.092427	-9.521373	0.142098	0.002728	0.384139	-0.001740	-0.203079	0.094179
597	3.021168	0.005000	0.728512	-0.100672	-9.552368	0.142873	0.002617	0.383768	0.006720	-0.236303	0.095704
598	3.026168	0.005000	0.784800	-0.116782	-9.594649	0.143649	0.002507	0.383396	0.006176	-0.265660	0.093088
599	3.031168	0.005000	0.895509	-0.180085	-9.590675	0.144425	0.002396	0.383025	0.015068	-0.292052	0.089367
600	3.036168	0.005000	0.837034	-0.248434	-9.548571	0.145201	0.002285	0.382654	0.017963	-0.332847	0.088281
601	3.041168	0.005000	0.951794	-0.264646	-9.486046	0.145977	0.002174	0.382282	0.009468	-0.362243	0.085216
602	3.046168	0.005000	1.027093	-0.307067	-9.443135	0.146753	0.002063	0.381911	0.013905	-0.403271	0.080449
603	3.051168	0.005000	1.086836	-0.239401	-9.421561	0.147529	0.001952	0.381540	0.011851	-0.449288	0.071630
604	3.056168	0.005000	1.058792	-0.276056	-9.456840	0.148305	0.001842	0.381168	0.012503	-0.493373	0.072011
605	3.061168	0.005000	0.873688	-0.389798	-9.493478	0.149081	0.001731	0.380797	0.000157	-0.543445	0.068248
606	3.066168	0.005000	1.003903	-0.353160	-9.535320	0.149857	0.001620	0.380426	-0.008964	-0.583874	0.050945
607	3.071168	0.005000	0.963690	-0.392400	-9.426255	0.150633	0.001509	0.380054	-0.015556	-0.645060	0.047187
608	3.076168	0.005000	0.953363	-0.420037	-9.523717	0.152354	0.001588	0.378732	-0.031498	-0.686199	0.042604
609	3.081168	0.005000	0.873060	-0.392400	-9.422550	0.154238	0.001698	0.377248	-0.034825	-0.735203	0.038739
610	3.086168	0.005000	0.884776	-0.431640	-9.499832	0.156121	0.001809	0.375763	-0.027874	-0.776586	0.042194
611	3.091168	0.005000	0.846564	-0.373748	-9.514732	0.158005	0.001920	0.374278	-0.041610	-0.830390	0.025101
612	3.096168	0.005000	0.745560	-0.400962	-9.456840	0.159889	0.002031	0.372793	-0.059910	-0.893180	0.029461
613	3.101168	0.005000	0.720856	-0.365512	-9.429952	0.161772	0.002141	0.371309	-0.067077	-0.930152	0.013050
614	3.106168	0.005000	0.657883	-0.332315	-9.408403	0.163656	0.002252	0.369824	-0.070542	-0.972757	0.017397
615	3.111168	0.005000	0.706320	-0.340603	-9.345398	0.165539	0.002363	0.368339	-0.078615	-1.024358	0.006080
616	3.116168	0.005000	0.630881	-0.280761	-9.372279	0.167423	0.002474	0.366855	-0.083349	-1.067124	0.003430
617	3.121168	0.005000	0.588211	-0.274874	-9.259862	0.169306	0.002584	0.365370	-0.074566	-1.112491	0.015388
618	3.126168	0.005000	0.473981	-0.241642	-9.139819	0.171190	0.002695	0.363885	-0.066727	-1.152696	-0.001203
619	3.131168	0.005000	0.470880	-0.235440	-9.176215	0.173074	0.002806	0.362400	-0.063675	-1.209337	0.012041
620	3.136168	0.005000	0.491604	-0.293196	-9.212142	0.174957	0.002917	0.360916	-0.069539	-1.242909	0.008182
621	3.141168	0.005000	0.456464	-0.301508	-9.155332	0.177138	0.002815	0.358910	-0.051500	-1.283946	0.001763
622	3.146168	0.005000	0.368560	-0.361601	-9.040600	0.179796	0.002372	0.356066	-0.058772	-1.325098	0.008615
623	3.151168	0.005000	0.431640	-0.475394	-9.066697	0.182454	0.001929	0.353221	-0.059136	-1.359856	0.009191
624	3.156168	0.005000	0.410084	-0.570916	-9.029073	0.185112	0.001486	0.350377	-0.059493	-1.400879	0.019326
625	3.161168	0.005000	0.485266	-0.599068	-8.907480	0.187770	0.001043	0.347532	-0.064838	-1.434906	0.017785
626	3.166168	0.005000	0.577058	-0.706320	-8.817458	0.190428	0.000600	0.344688	-0.078299	-1.491572	0.018737
627	3.171168	0.005000	0.645031	-0.667080	-8.724734	0.193086	0.000157	0.341844	-0.084918	-1.546372	0.011535
628	3.176168	0.005000	0.790185	-0.560131	-8.627415	0.195744	-0.000286	0.338999	-0.099215	-1.602042	0.016492
629	3.181168	0.005000	0.826552	-0.593625	-8.669528	0.198402	-0.000729	0.336155	-0.113214	-1.670201	0.027368
630	3.186168	0.005000	0.901764	-0.628596	-8.555833	0.201060	-0.001172	0.333310	-0.105680	-1.740084	0.026035
631	3.191168	0.005000	0.867301	-0.671101	-8.397360	0.203718	-0.001615	0.330466	-0.115909	-1.808941	0.039262
632	3.196168	0.005000	0.902520	-0.595513	-8.371946	0.206376	-0.002058	0.327621	-0.126805	-1.874034	0.048661
633	3.201168	0.005000	0.902520	-0.510120	-8.426389	0.209034	-0.002501	0.324777	-0.124219	-1.947493	0.047736
634	3.206168	0.005000	0.889390	-0.431564	-8.227345	0.211692	-0.002944	0.321933	-0.118656	-2.022961	0.057898
635	3.211168	0.005000	0.794663	-0.448008	-8.116175	0.215958	-0.005798	0.316619	-0.122360	-2.093832	0.057917
636	3.216168	0.005000	0.863280	-0.392491	-7.926571	0.220390	-0.008900	0.311052	-0.127128	-2.167213	0.070639
637	3.221168	0.005000	0.863280	-0.437419	-7.842826	0.224822	-0.012003	0.305484	-0.126481	-2.237880	0.076309
638	3.226168	0.005000	0.849862	-0.575182	-7.574334	0.229254	-0.015105	0.299916	-0.130643	-2.320728	0.072627
639	3.231168	0.005000	0.805948	-0.617266	-7.591412	0.233686	-0.018207	0.294348	-0.139387	-2.403820	0.090823
640	3.236168	0.005000	0.856004	-0.470880	-7.441048	0.238119	-0.021310	0.288780	-0.152010	-2.475884	0.085689
641	3.241168	0.005000	0.824040	-0.396780	-7.324740	0.242551	-0.024412	0.283213	-0.158720	-2.556095	0.098845
642	3.246168	0.005000	0.743321	-0.546002	-7.256042	0.246983	-0.027515	0.277645	-0.161386	-2.637310	0.103995
643	3.251168	0.005000	0.667080	-0.431640	-7.067507	0.251415	-0.030617	0.272077	-0.157267	-2.728024	0.101864
644	3.256168	0.005000	0.672102	-0.353160	-6.837804	0.255847	-0.033720	0.266509	-0.186197	-2.811324	0.104268
645	3.261168	0.005000	0.565833	-0.392400	-6.796757	0.260279	-0.036822	0.260942	-0.185957	-2.912019	0.099674
646	3.266168	0.005000	0.358636	-0.353160	-6.721219	0.264711	-0.039924	0.255374	-0.193594	-2.995738	0.112762
647	3.271168	0.005000	0.289157	-0.338683	-6.528317	0.269143	-0.043027	0.249806	-0.202760	-3.080817	0.099747
648	3.276168	0.005000	0.147763	-0.357759	-6.325763	0.273237	-0.043906	0.243267	-0.206053	-3.187131	0.101270
649	3.281168	0.005000	-0.055819	-0.411006	-6.024354	0.276893	-0.041912	0.235472	-0.217275	-3.274206	0.097152
650	3.286168	0.005000	-0.219289	-0.298338	-5.705951	0.280550	-0.039917	0.227677	-0.219626	-3.368224	0.102041
651	3.291168	0.005000	-0.572444	-0.249750	-5.497291	0.284206	-0.037923	0.219882	-0.218330	-3.444891	0.104404
652	3.296168	0.005000	-1.087586	-0.166581	-5.249295	0.287863	-0.035928	0.212087	-0.217787	-3.516302	0.099048
653	3.301168	0.005000	-1.547892	-0.235440	-4.879768	0.291519	-0.033934	0.204293	-0.222221	-3.586789	0.113847
654	3.306168	0.005000	-2.156630	-0.235440	-4.594505	0.295176	-0.031939	0.196498	-0.223824	-3.640412	0.097936
655	3.311168	0.005000	-2.866850	-0.195867	-4.669227	0.298832	-0.029945	0.188703	-0.212042	-3.703121	0.114302
656	3.316168	0.005000	-3.702926	-0.117720	-4.554949	0.302489	-0.027950	0.180908	-0.206026	-3.718040	0.115430
657	3.321168	0.005000	-4.630925	-0.117720	-4.826520	0.306145	-0.025956	0.173113	-0.204382	-3.717331	0.114322
658	3.326168	0.005000	-5.302425	-0.057604	-4.856578	0.309802	-0.023962	0.165318	-0.200849	-3.680129	0.124200
659	3.331168	0.005000	-6.002964	0.012132	-4.850784	0.313458	-0.021967	0.157523	-0.194126	-3.629287	0.124859
660	3.336168	0.005000	-6.627180	0.054502	-4.826520	0.317114	-0.019973	0.149728	-0.194941	-3.562684	0.130915
661	3.341168	0.005000	-7.089476	0.136009	-4.850134	0.320771	-0.017978	0.141934	-0.202399	-3.489719	0.123125
662	3.346168	0.005000	-7.252521	0.253340	-4.783841	0.322929	-0.018659	0.134497	-0.202870	-3.420388	0.122018
663	3.351168	0.005000	-7.608128	0.328730	-4.890190	0.325034	-0.019435	0.127074	-0.198669	-3.367796	0.128346
664	3.356168	0.005000	-7.973777	0.404224	-5.030777	0.327140	-0.020210	0.119650	-0.193041	-3.321513	0.117814
665	3.361168	0.005000	-8.340209	0.627840	-5.118506	0.329245	-0.020986	0.112226	-0.175625	-3.293737	0.124227
666	3.366168	0.005000	-8.863455	0.751302	-5.213178	0.331350	-0.021762	0.104802	-0.174076	-3.269082	0.115880
667	3.371168	0.005000	-9.440200	0.743049	-5.022720	0.333455	-0.022537	0.097379	-0.149314	-3.235267	0.130139
668	3.376168	0.005000	-10.043110	0.784134	-4.944906	0.335560	-0.023313	0.089955	-0.143841	-3.177448	0.136307
669	3.381168	0.005000	-10.715303	1.009303	-5.058314	0.337666	-0.024088	0.082531	-0.121612	-3.113287	0.127222
670	3.386168	0.005000	-11.334173	0.941760	-4.905000	0.339771	-0.024864	0.075108	-0.115102	-3.024049	0.145970
671	3.391168	0.005000	-11.938929	0.941760	-4.934453	0.341876	-0.025640	0.067684	-0.115020	-2.894882	0.147776
672	3.396168	0.005000	-12.468381	1.073458	-4.970849	0.343981	-0.026415	0.060260	-0.109189	-2.751177	0.165314
673	3.401168	0.005000	-12.799592	1.145312	-4.990832	0.346087	-0.027191	0.052837	-0.108405	-2.600400	0.175906
674	3.406168	0.005000	-13.010556	1.356276	-5.005596	0.348192	-0.027967	0.045413	-0.100172	-2.437809	0.178568
675	3.411168	0.005000	-13.059629	1.469034	-5.135509	0.349474	-0.028523	0.039705	-0.084166	-2.266225	0.199283
676	3.416168	0.005000	-12.984749	1.544670	-5.154750	0.349917	-0.028855	0.035744	-0.083692	-2.090127	0.207099
677	3.421168	0.005000	-12.720008	1.484872	-5.168683	0.350360	-0.029188	0.031782	-0.064554	-1.949859	0.230683
678	3.426168	0.005000	-12.422773	1.608840	-5.148594	0.350804	-0.029521	0.027821	-0.057699	-1.825247	0.227690
679	3.431168	0.005000	-12.237631	1.603591	-5.135191	0.351247	-0.029853	0.023860	-0.030580	-1.722532	0.241280
680	3.436168	0.005000	-12.036620	1.530360	-5.059948	0.351691	-0.030186	0.019899	-0.027214	-1.624669	0.240103
681	3.441168	0.005000	-11.888888	1.491952	-4.984312	0.352134	-0.030518	0.015938	-0.006785	-1.551738	0.249043
682	3.446168	0.005000	-11.850480	1.491120	-4.760475	0.352577	-0.030851	0.011977	0.003054	-1.468658	0.264314
683	3.451168	0.005000	-11.668995	1.554885	-4.645035	0.353021	-0.031183	0.008016	0.011084	-1.396787	0.271918
684	3.456168	0.005000	-11.683233	1.501407	-4.464980	0.353464	-0.031516	0.004055	0.017321	-1.321744	0.277670
685	3.461168	0.005000	-11.616116	1.465319	-4.355640	0.353908	-0.031849	0.000094	0.021501	-1.231961	0.293973
686	3.466168	0.005000	-11.615040	1.402550	-4.270807	0.354351	-0.032181	-0.003868	0.021539	-1.144900	0.296407
687	3.471168	0.005000	-11.418421	1.510635	-4.237711	0.354794	-0.032514	-0.007829	0.029760	-1.072930	0.298156
688	3.476168	0.005000	-11.172675	1.513705	-4.003615	0.355224	-0.032867	-0.011705	0.035283	-0.978783	0.291876
689	3.481168	0.005000	-10.946387	1.439324	-3.871418	0.355224	-0.033864	-0.012943	0.049255	-0.904445	0.311870
690	3.486168	0.005000	-10.749007	1.540858	-3.685807	0.355224	-0.034861	-0.014180	0.034545	-0.817029	0.298227
691	3.491168	0.005000	-10.605238	1.555199	-3.570840	0.355224	-0.035859	-0.015417	0.055418	-0.765022	0.317512
692	3.496168	0.005000	-10.381173	1.534717	-3.527243	0.355224	-0.036856	-0.016654	0.050605	-0.704418	0.312913
693	3.501168	0.005000	-10.200312	1.490076	-3.452076	0.355224	-0.037853	-0.017892	0.066118	-0.659493	0.315710
694	3.506168	0.005000	-10.086480	1.489320	-3.413880	0.355224	-0.038850	-0.019129	0.062484	-0.610628	0.310723
695	3.511168	0.005000	-10.011298	1.491120	-3.463316	0.355224	-0.039847	-0.020366	0.057463	-0.586379	0.303798
696	3.516168	0.005000	-9.825884	1.365458	-3.547015	0.355224	-0.040845	-0.021603	0.067989	-0.571831	0.302317
697	3.521168	0.005000	-9.770760	1.479998	-3.688560	0.355224	-0.041842	-0.022840	0.053923	-0.560767	0.306564
698	3.526168	0.005000	-9.667139	1.351314	-3.767040	0.355224	-0.042839	-0.024078	0.052009	-0.549388	0.306743
699	3.531168	0.005000	-9.653040	1.290473	-3.754091	0.355224	-0.043836	-0.025315	0.037769	-0.549822	0.307518
700	3.536168	0.005000	-9.711280	1.313920	-3.865760	0.355224	-0.044834	-0.026552	0.027435	-0.539961	0.306654
701	3.541168	0.005000	-9.755073	1.412640	-3.845520	0.355224	-0.045831	-0.027789	0.016574	-0.540561	0.307625
702	3.546168	0.005000	-9.796446	1.465434	-3.924000	0.355100	-0.046766	-0.029166	0.003818	-0.526413	0.294810
703	3.551168	0.005000	-9.839695	1.372341	-3.983389	0.354878	-0.047653	-0.030651	0.003293	-0.537754	0.287131
704	3.556168	0.005000	-9.855941	1.491120	-3.937403	0.354656	-0.048540	-0.032137	-0.009198	-0.526423	0.280298
705	3.561168	0.005000	-9.973737	1.543914	-3.999092	0.354435	-0.049426	-0.033622	-0.014966	-0.519406	0.283407
706	3.566168	0.005000	-10.085225	1.843191	-4.039542	0.354213	-0.050313	-0.035107	-0.021709	-0.512309	0.292910
707	3.571168	0.005000	-10.196957	1.765800	-3.994315	0.353991	-0.051200	-0.036593	-0.025597	-0.490712	0.289444
708	3.576168	0.005000	-10.129517	1.883520	-3.991286	0.353770	-0.052087	-0.038078	-0.022071	-0.468568	0.282779
709	3.581168	0.005000	-10.172070	1.940580	-3.963240	0.353548	-0.052974	-0.039564	-0.029044	-0.463170	0.292497
710	3.586168	0.005000	-10.284858	2.028726	-4.053474	0.353326	-0.053860	-0.041049	-0.015987	-0.450409	0.286050
711	3.591168	0.005000	-10.359360	2.088857	-4.177714	0.353104	-0.054747	-0.042534	-0.021984	-0.445009	0.276826
712	3.596168	0.005000	-10.380452	2.137108	-4.232030	0.352883	-0.055634	-0.044020	-0.018805	-0.426067	0.267722
713	3.601168	0.005000	-10.377392	2.191087	-4.195503	0.352661	-0.056521	-0.045505	-0.010240	-0.421595	0.267099
714	3.606168	0.005000	-10.418296	2.344628	-4.237920	0.352439	-0.057408	-0.046990	-0.002892	-0.420569	0.256869
715	3.611168	0.005000	-10.685030	2.417139	-4.131950	0.352228	-0.058220	-0.048357	0.010556	-0.405922	0.256434
716	3.616168	0.005000	-10.603377	2.502783	-4.220766	0.352118	-0.058330	-0.048604	0.018512	-0.392823	0.254499
717	3.621168	0.005000	-10.610638	2.461561	-4.125479	0.352007	-0.058441	-0.048851	0.020419	-0.372043	0.248641
718	3.626168	0.005000	-10.754195	2.437751	-4.152134	0.351896	-0.058552	-0.049099	0.048471	-0.374984	0.251702
719	3.631168	0.005000	-10.829373	2.511360	-4.118466	0.351785	-0.058662	-0.049346	0.042211	-0.343611	0.237764
720	3.636168	0.005000	-10.858316	2.432880	-4.120200	0.351675	-0.058773	-0.049593	0.073205	-0.321592	0.243667
721	3.641168	0.005000	-10.908720	2.425861	-4.066922	0.351564	-0.058884	-0.049840	0.069579	-0.289415	0.240832
722	3.646168	0.005000	-10.859829	2.413366	-4.130063	0.351453	-0.058994	-0.050088	0.079918	-0.264767	0.242987
723	3.651168	0.005000	-10.895544	2.367576	-3.989304	0.351342	-0.059105	-0.050335	0.084113	-0.246015	0.230544
724	3.656168	0.005000	-10.862279	2.370420	-4.096980	0.351232	-0.059216	-0.050582	0.095381	-0.207665	0.223218
725	3.661168	0.005000	-10.888192	2.354400	-4.001875	0.351121	-0.059326	-0.050830	0.094934	-0.176264	0.216173
726	3.666168	0.005000	-10.796486	2.292797	-4.053111	0.351010	-0.059437	-0.051077	0.104658	-0.135591	0.207985
727	3.671168	0.005000	-10.673280	2.289686	-4.069252	0.350900	-0.059548	-0.051324	0.105033	-0.109513	0.191708
728	3.676168	0.005000	-10.694216	2.304692	-4.120200	0.350789	-0.059658	-0.051571	0.109405	-0.088240	0.191592
729	3.681168	0.005000	-10.676744	2.268765	-4.095270	0.350746	-0.059769	-0.051363	0.106159	-0.066478	0.161881
730	3.686168	0.005000	-10.542626	2.201751	-4.237920	0.350746	-0.059880	-0.050868	0.120923	-0.052646	0.167237
731	3.691168	0.005000	-10.557587	2.275920	-4.200707	0.350746	-0.059991	-0.050373	0.112171	-0.026427	0.140195
732	3.696168	0.005000	-10.634040	2.275920	-4.239750	0.350746	-0.060102	-0.049878	0.148468	-0.017404	0.128345
733	3.701168	0.005000	-10.775570	2.354400	-4.248207	0.350746	-0.060213	-0.049383	0.133772	0.013678	0.118429
734	3.706168	0.005000	-10.892031	2.315160	-4.308056	0.350746	-0.060323	-0.048887	0.148485	0.056386	0.101286
735	3.711168	0.005000	-11.043110	2.236680	-4.288445	0.350746	-0.060434	-0.048392	0.150213	0.099405	0.102595
736	3.716168	0.005000	-11.001625	2.183015	-4.248309	0.350746	-0.060545	-0.047897	0.145465	0.145963	0.086616
737	3.721168	0.005000	-11.004642	2.140758	-4.255362	0.350746	-0.060656	-0.047402	0.158051	0.187261	0.080825
738	3.726168	0.005000	-11.005938	2.158200	-4.295898	0.350746	-0.060767	-0.046907	0.144194	0.227993	0.071924
739	3.731168	0.005000	-10.947960	2.119157	-4.269430	0.350746	-0.060878	-0.046412	0.158992	0.263700	0.053784
740	3.736168	0.005000	-11.131816	1.910416	-4.157231	0.350746	-0.060989	-0.045916	0.162759	0.301873	0.045473
741	3.741168	0.005000	-11.232140	1.825280	-4.315160	0.350746	-0.061100	-0.045421	0.152601	0.349361	0.020372
742	3.746168	0.005000	-11.144160	1.654282	-4.322602	0.350729	-0.061211	-0.044778	0.141231	0.395407	0.020220
743	3.751168	0.005000	-11.098204	1.648080	-4.241278	0.350619	-0.061321	-0.043294	0.130228	0.441926	-0.001285
744	3.756168	0.005000	-10.869525	1.647944	-4.316309	0.350508	-0.061432	-0.041809	0.125519	0.480642	-0.005996
745	3.761168	0.005000	-10.835837	1.493919	-4.383686	0.350397	-0.061543	-0.040324	0.118251	0.512633	-0.012038
746	3.766168	0.005000	-10.579945	1.346353	-4.283256	0.350286	-0.061654	-0.038840	0.093904	0.537754	-0.034378
747	3.771168	0.005000	-10.395121	1.273560	-4.416240	0.350176	-0.061765	-0.037355	0.071210	0.553355	-0.032048
748	3.776168	0.005000	-10.332373	1.346413	-4.461107	0.350065	-0.061876	-0.035870	0.046627	0.581623	-0.044317
749	3.781168	0.005000	-10.232594	1.379451	-4.545789	0.349954	-0.061986	-0.034385	0.028764	0.582253	-0.062328
750	3.786168	0.005000	-10.103075	1.318216	-4.528544	0.349843	-0.062097	-0.032901	0.001768	0.598871	-0.073800
751	3.791168	0.005000	-10.063441	1.373400	-4.473360	0.349733	-0.062208	-0.031416	-0.005834	0.599409	-0.095268
752	3.796168	0.005000	-9.962134	1.451880	-4.566529	0.349622	-0.062319	-0.029931	-0.026980	0.594668	-0.107798
753	3.801168	0.005000	-9.825551	1.530360	-4.602925	0.349511	-0.062430	-0.028447	-0.044327	0.606297	-0.122252
754	3.806168	0.005000	-9.675186	1.530360	-4.608174	0.349400	-0.062541	-0.026962	-0.054745	0.599186	-0.134322
755	3.811168	0.005000	-9.635931	1.491120	-4.496172	0.349290	-0.062651	-0.025477	-0.069801	0.604033	-0.143937
756	3.816168	0.005000	-9.456840	1.493510	-4.635100	0.349254	-0.062010	-0.024160	-0.079945	0.598734	-0.146615
757	3.821168	0.005000	-9.262909	1.491574	-4.747586	0.349254	-0.061013	-0.022923	-0.084278	0.592683	-0.154672
758	3.826168	0.005000	-9.221400	1.602272	-4.630320	0.349254	-0.060016	-0.021686	-0.097159	0.584014	-0.165795
759	3.831168	0.005000	-9.005746	1.622031	-4.702205	0.349254	-0.059019	-0.020448	-0.092268	0.571633	-0.160936
760	3.836168	0.005000	-8.907480	1.657871	-4.728457	0.349254	-0.058021	-0.019211	-0.098224	0.576574	-0.182468
761	3.841168	0.005000	-8.749506	1.635338	-4.892258	0.349254	-0.057024	-0.017974	-0.100102	0.562293	-0.184788
762	3.846168	0.005000	-8.750520	1.608840	-4.889419	0.349254	-0.056027	-0.016737	-0.097141	0.553435	-0.184703
763	3.851168	0.005000	-8.572991	1.707889	-5.041391	0.349254	-0.055030	-0.015499	-0.092375	0.549975	-0.195408
764	3.856168	0.005000	-8.497578	1.687320	-5.061960	0.349254	-0.054032	-0.014262	-0.092259	0.539570	-0.189354
765	3.861168	0.005000	-8.475840	1.712069	-5.096968	0.349254	-0.053035	-0.013025	-0.092505	0.536645	-0.201573
766	3.866168	0.005000	-8.453119	1.765800	-5.191041	0.349254	-0.052038	-0.011787	-0.080023	0.522891	-0.206003
767	3.871168	0.005000	-8.302785	1.734608	-5.243063	0.349254	-0.051041	-0.010550	-0.093305	0.520199	-0.210586
768	3.876168	0.005000	-8.185727	1.692464	-5.336640	0.349254	-0.050044	-0.009313	-0.076151	0.512948	-0.216688
769	3.881168	0.005000	-8.120774	1.726560	-5.489788	0.349277	-0.049231	-0.008178	-0.054858	0.509374	-0.212409
770	3.886168	0.005000	-8.045138	1.726560	-5.376818	0.349388	-0.049120	-0.007436	-0.056722	0.508036	-0.212625
771	3.891168	0.005000	-8.009211	1.648080	-5.454360	0.349499	-0.049009	-0.006694	-0.047938	0.495554	-0.225237
772	3.896168	0.005000	-8.122680	1.569600	-5.478676	0.349609	-0.048898	-0.005951	-0.042565	0.495210	-0.238269
773	3.901168	0.005000	-8.180375	1.540752	-5.561688	0.349720	-0.048788	-0.005209	-0.021791	0.482277	-0.230087
774	3.906168	0.005000	-8.149767	1.491120	-5.481447	0.349831	-0.048677	-0.004467	-0.020032	0.502886	-0.225087
775	3.911168	0.005000	-8.021509	1.311469	-5.555531	0.349942	-0.048566	-0.003724	-0.016799	0.514097	-0.235840
776	3.916168	0.005000	-8.043746	1.275981	-5.650560	0.350052	-0.048455	-0.002982	-0.005289	0.520307	-0.226356
777	3.921168	0.005000	-8.027651	1.154509	-5.745589	0.350163	-0.048344	-0.002239	-0.011105	0.532894	-0.231991
778	3.926168	0.005000	-7.965720	1.124724	-5.663327	0.350274	-0.048233	-0.001497	-0.014661	0.547735	-0.242463
779	3.931168	0.005000	-7.916206	0.960453	-5.553387	0.350385	-0.048123	-0.000755	-0.013252	0.560948	-0.228410
780	3.936168	0.005000	-7.741141	0.895425	-5.678939	0.350495	-0.048012	-0.000012	-0.017987	0.568431	-0.236978
781	3.941168	0.005000	-7.612560	0.820258	-5.796175	0.350606	-0.047901	0.000730	-0.016998	0.576882	-0.227436
782	3.946168	0.005000	-7.493913	0.703539	-5.729967	0.350717	-0.047790	0.001472	-0.023468	0.597070	-0.232808
783	3.951168	0.005000	-7.344960	0.588600	-5.731400	0.350664	-0.047516	0.002945	-0.022041	0.593817	-0.225210
784	3.956168	0.005000	-7.196531	0.408011	-5.789095	0.350554	-0.047183	0.004677	-0.047703	0.601210	-0.234719
785	3.961168	0.005000	-7.018786	0.204717	-5.790487	0.350443	-0.046851	0.006409	-0.065878	0.585459	-0.235596
786	3.966168	0.005000	-6.984720	0.168321	-5.818881	0.350332	-0.046519	0.008141	-0.100171	0.572735	-0.223708
787	3.971168	0.005000	-6.920898	0.093138	-5.807520	0.350221	-0.046186	0.009874	-0.109101	0.570212	-0.240518
788	3.976168	0.005000	-6.788520	0.060721	-5.846760	0.350110	-0.045854	0.011606	-0.136987	0.567481	-0.233987
789	3.981168	0.005000	-6.806945	0.039240	-5.828335	0.350000	-0.045522	0.013338	-0.155013	0.563664	-0.240306
790	3.986168	0.005000	-6.945480	0.063077	-5.752877	0.349889	-0.045189	0.015070	-0.173518	0.546805	-0.229792
791	3.991168	0.005000	-7.021570	0.066197	-5.832087	0.349778	-0.044857	0.016802	-0.187717	0.537255	-0.227668
792	3.996168	0.005000	-7.178992	0.136376	-5.934568	0.349667	-0.044525	0.018534	-0.199351	0.553139	-0.219639
793	4.001168	0.005000	-7.271653	0.156960	-5.898253	0.349557	-0.044192	0.020266	-0.202661	0.568493	-0.193477
794	4.006168	0.005000	-7.403380	0.235440	-6.042960	0.349446	-0.043860	0.021999	-0.211738	0.597410	-0.204129
795	4.011168	0.005000	-7.220175	0.235440	-6.003735	0.349335	-0.043528	0.023731	-0.198253	0.614892	-0.173554
796	4.016168	0.005000	-7.144539	0.238299	-6.079341	0.349165	-0.043166	0.025496	-0.185245	0.638218	-0.165626
797	4.021168	0.005000	-7.036304	0.130064	-6.121440	0.348833	-0.042722	0.027353	-0.171737	0.657706	-0.148056
798	4.026168	0.005000	-6.945480	0.156960	-6.180981	0.348500	-0.042279	0.029210	-0.165887	0.676276	-0.129010
799	4.031168	0.005000	-6.787175	0.064503	-6.055592	0.348167	-0.041835	0.031066	-0.161230	0.682320	-0.131333
800	4.036168	0.005000	-6.607946	0.000000	-6.011359	0.347835	-0.041392	0.032923	-0.152692	0.690877	-0.121487
801	4.041168	0.005000	-6.530723	-0.119544	-5.979539	0.347502	-0.040948	0.034780	-0.146616	0.706995	-0.119176
802	4.046168	0.005000	-6.339408	-0.213672	-5.811816	0.347170	-0.040505	0.036637	-0.153691	0.713653	-0.121529
803	4.051168	0.005000	-6.195794	-0.357286	-5.675345	0.346837	-0.040061	0.038494	-0.142828	0.728016	-0.113467
804	4.056168	0.005000	-6.048255	-0.470880	-5.600005	0.346504	-0.039618	0.040350	-0.151528	0.744421	-0.128696
805	4.061168	0.005000	-5.987685	-0.423623	-5.415120	0.346172	-0.039174	0.042207	-0.152881	0.765068	-0.126590
806	4.066168	0.005000	-5.836413	-0.324267	-5.409946	0.345839	-0.038731	0.044064	-0.171737	0.793095	-0.144030
807	4.071168	0.005000	-5.530538	-0.431640	-5.179680	0.345507	-0.038287	0.045921	-0.171187	0.796312	-0.161024
808	4.076168	0.005000	-5.417087	-0.469897	-5.103167	0.345174	-0.037844	0.047777	-0.177498	0.823128	-0.175375
809	4.081168	0.005000	-5.043880	-0.427408	-4.952704	0.344842	-0.037400	0.049634	-0.181308	0.830421	-0.189555
810	4.086168	0.005000	-4.926375	-0.335295	-4.833645	0.344420	-0.036334	0.051391	-0.181283	0.827208	-0.196363
811	4.091168	0.005000	-4.739744	-0.295309	-4.690189	0.343977	-0.035116	0.053123	-0.186897	0.815664	-0.210392
812	4.096168	0.005000	-4.696123	-0.248722	-4.734758	0.343534	-0.033897	0.054855	-0.171740	0.810921	-0.212323
813	4.101168	0.005000	-4.578918	-0.297341	-4.849181	0.343091	-0.032678	0.056587	-0.172314	0.799980	-0.226312
814	4.106168	0.005000	-4.650137	-0.196200	-4.807097	0.342647	-0.031459	0.058319	-0.160023	0.771889	-0.248652
815	4.111168	0.005000	-4.830559	-0.101216	-5.082503	0.342204	-0.030241	0.060052	-0.144063	0.739268	-0.249379
816	4.116168	0.005000	-5.128520	-0.092140	-5.497079	0.341761	-0.029022	0.061784	-0.121487	0.729975	-0.259844
817	4.121168	0.005000	-5.328486	-0.088842	-5.867484	0.341318	-0.027803	0.063516	-0.097304	0.719473	-0.253617
818	4.126168	0.005000	-5.562558	-0.110291	-5.971909	0.340875	-0.026585	0.065248	-0.068073	0.732952	-0.257234
819	4.131168	0.005000	-5.528635	-0.278885	-6.121440	0.340431	-0.025366	0.066980	-0.041786	0.734746	-0.241957
820	4.136168	0.005000	-5.531494	-0.470880	-6.117402	0.339988	-0.024147	0.068712	-0.018279	0.730803	-0.250172
821	4.141168	0.005000	-5.493600	-0.508184	-5.817201	0.339545	-0.022928	0.070444	-0.000399	0.700727	-0.242600
822	4.146168	0.005000	-5.641000	-0.701540	-5.674461	0.339102	-0.021710	0.072177	0.001921	0.678159	-0.252998
823	4.151168	0.005000	-5.752094	-1.004054	-5.596359	0.338843	-0.021706	0.073580	-0.003317	0.639992	-0.251894
824	4.156168	0.005000	-5.846760	-1.105149	-5.397754	0.338954	-0.024144	0.074322	-0.017022	0.626137	-0.259566
825	4.161168	0.005000	-6.014491	-1.291456	-5.375880	0.339065	-0.026581	0.075065	-0.033463	0.623097	-0.267538
826	4.166168	0.005000	-6.221820	-1.294920	-5.402339	0.339175	-0.029019	0.075807	-0.043391	0.614697	-0.282362
827	4.171168	0.005000	-6.218769	-1.315311	-5.589386	0.339286	-0.031457	0.076549	-0.071581	0.612278	-0.293017
828	4.176168	0.005000	-6.325052	-1.255680	-5.791243	0.339397	-0.033894	0.077292	-0.092772	0.609349	-0.317289
829	4.181168	0.005000	-6.356880	-1.231386	-6.016427	0.339508	-0.036332	0.078034	-0.105165	0.605926	-0.314269
830	4.186168	0.005000	-6.229766	-1.070538	-6.170074	0.339619	-0.038769	0.078776	-0.120683	0.618869	-0.337610
831	4.191168	0.005000	-6.232610	-0.935210	-6.343840	0.339730	-0.041207	0.079519	-0.118372	0.598462	-0.338739
832	4.196168	0.005000	-6.239160	-0.781136	-6.481928	0.339840	-0.043644	0.080261	-0.117161	0.590409	-0.347239
833	4.201168	0.005000	-6.278808	-0.665038	-6.553897	0.339951	-0.046082	0.081003	-0.098191	0.563148	-0.352193
834	4.206168	0.005000	-6.354445	-0.544489	-6.741974	0.340062	-0.048519	0.081746	-0.080918	0.548201	-0.348232
835	4.211168	0.005000	-6.503281	-0.481439	-6.788520	0.340173	-0.050957	0.082488	-0.053626	0.537309	-0.348860
836	4.216168	0.005000	-6.321361	-0.566545	-6.718632	0.340284	-0.053395	0.083231	-0.025862	0.525027	-0.340912
837	4.221168	0.005000	-6.345444	-0.549360	-6.721476	0.340012	-0.051056	0.084827	0.004648	0.517098	-0.345988
838	4.226168	0.005000	-6.185186	-0.676852	-6.695306	0.339680	-0.047952	0.086560	0.029187	0.492864	-0.345964
839	4.231168	0.005000	-6.268991	-0.806462	-6.570658	0.339347	-0.044848	0.088293	0.047545	0.465062	-0.328351
840	4.236168	0.005000	-6.335989	-0.879088	-6.594861	0.339015	-0.041744	0.090026	0.071196	0.451604	-0.321796
841	4.241168	0.005000	-6.568585	-1.012964	-6.537575	0.338682	-0.038640	0.091759	0.075607	0.431384	-0.304531
842	4.246168	0.005000	-6.673417	-1.081278	-6.634177	0.338349	-0.035536	0.093492	0.065237	0.432593	-0.294498
843	4.251168	0.005000	-6.710040	-1.197713	-6.278400	0.338017	-0.032433	0.095225	0.076991	0.417787	-0.271603
844	4.256168	0.005000	-6.670800	-1.307022	-6.323691	0.337684	-0.029329	0.096958	0.069520	0.401841	-0.272229
845	4.261168	0.005000	-6.677141	-1.415810	-6.468259	0.337352	-0.026225	0.098691	0.066463	0.387447	-0.257266
846	4.266168	0.005000	-6.631832	-1.451880	-6.356971	0.337019	-0.023121	0.100424	0.049723	0.389486	-0.250140
847	4.271168	0.005000	-6.631560	-1.382204	-6.628625	0.336687	-0.020017	0.102157	0.038061	0.365410	-0.244512
848	4.276168	0.005000	-6.677048	-1.505370	-6.571823	0.336354	-0.016914	0.103890	0.020411	0.351029	-0.235567
849	4.281168	0.005000	-6.730408	-1.520924	-6.571952	0.336021	-0.013810	0.105623	0.009553	0.332783	-0.234206
850	4.286168	0.005000	-6.906240	-1.385789	-6.369269	0.335601	-0.011940	0.106913	-0.001713	0.313999	-0.239224
851	4.291168	0.005000	-7.063200	-1.287084	-6.451062	0.335047	-0.011940	0.107532	-0.008607	0.303739	-0.221581
852	4.296168	0.005000	-7.143828	-1.251384	-6.456054	0.334493	-0.011940	0.108150	-0.017658	0.300034	-0.228130
853	4.301168	0.005000	-7.372673	-1.164251	-6.430913	0.333939	-0.011940	0.108769	0.000296	0.286587	-0.212472
854	4.306168	0.005000	-7.430912	-1.181617	-6.542945	0.333385	-0.011940	0.109387	-0.009633	0.310731	-0.213288
855	4.311168	0.005000	-7.461121	-1.233201	-6.564320	0.332831	-0.011940	0.110006	0.003659	0.328107	-0.200896
856	4.316168	0.005000	-7.377120	-1.208498	-6.662858	0.332277	-0.011940	0.110625	0.002359	0.361421	-0.184447
857	4.321168	0.005000	-7.293542	-1.206244	-6.563276	0.331723	-0.011940	0.111243	0.000808	0.383866	-0.172792
858	4.326168	0.005000	-7.057845	-1.139745	-6.633345	0.331168	-0.011940	0.111862	-0.009627	0.385234	-0.151227
859	4.331168	0.005000	-6.983661	-1.177200	-6.747162	0.330614	-0.011940	0.112481	-0.011710	0.383558	-0.152645
860	4.336168	0.005000	-6.832067	-1.133653	-6.797134	0.330060	-0.011940	0.113099	-0.008490	0.357646	-0.139401
861	4.341168	0.005000	-6.867000	-1.123559	-6.955918	0.329506	-0.011940	0.113718	-0.016315	0.345592	-0.136461
862	4.346168	0.005000	-7.042173	-1.205927	-7.070900	0.328952	-0.011940	0.114336	-0.014386	0.322849	-0.125021
863	4.351168	0.005000	-7.114965	-1.177200	-7.206803	0.328398	-0.011940	0.114955	-0.019006	0.294945	-0.116030
864	4.356168	0.005000	-7.180920	-0.991725	-7.287915	0.328666	-0.011735	0.115459	-0.011041	0.279052	-0.119611
865	4.361168	0.005000	-7.279132	-0.902520	-7.396404	0.328999	-0.011513	0.115954	0.000855	0.263617	-0.111095
866	4.366168	0.005000	-7.292256	-0.778416	-7.422744	0.329331	-0.011291	0.116449	0.001578	0.273082	-0.110770
867	4.371168	0.005000	-7.403381	-0.784800	-7.494840	0.329664	-0.011070	0.116944	0.023161	0.253888	-0.097183
868	4.376168	0.005000	-7.475930	-0.696155	-7.515170	0.329996	-0.010848	0.117439	0.038583	0.230013	-0.086817
869	4.381168	0.005000	-7.494840	-0.588600	-7.684066	0.330328	-0.010627	0.117934	0.057136	0.218320	-0.076573
870	4.386168	0.005000	-7.494840	-0.675245	-7.816925	0.330661	-0.010405	0.118429	0.089679	0.197858	-0.062076
871	4.391168	0.005000	-7.612560	-0.864944	-7.928144	0.330993	-0.010183	0.118923	0.110168	0.194341	-0.051489
872	4.396168	0.005000	-7.798700	-1.016216	-8.079416	0.331326	-0.009962	0.119418	0.138748	0.185257	-0.040022
873	4.401168	0.005000	-7.876590	-0.957734	-8.106706	0.331658	-0.009740	0.119913	0.142776	0.176242	-0.037201
874	4.406168	0.005000	-7.910143	-1.012071	-8.044200	0.331991	-0.009519	0.120408	0.171254	0.162679	-0.022180
875	4.411168	0.005000	-8.104588	-1.170574	-8.171601	0.332323	-0.009297	0.120903	0.181321	0.162347	-0.011592
876	4.416168	0.005000	-8.201160	-1.201835	-8.186555	0.332655	-0.009075	0.121398	0.187288	0.151998	-0.005142
877	4.421168	0.005000	-8.366107	-1.216440	-8.258023	0.332684	-0.008904	0.121949	0.198448	0.141831	-0.006304
878	4.426168	0.005000	-8.436600	-1.214746	-8.279640	0.332352	-0.008794	0.122568	0.226535	0.156340	0.014601
879	4.431168	0.005000	-8.499605	-1.200965	-8.303405	0.332020	-0.008683	0.123186	0.245411	0.141672	0.021870
880	4.436168	0.005000	-8.541689	-1.139306	-8.317534	0.331687	-0.008572	0.123804	0.252513	0.143382	0.037700
881	4.441168	0.005000	-8.505762	-1.186518	-8.554320	0.331355	-0.008462	0.124423	0.286609	0.142036	0.054651
882	4.446168	0.005000	-8.403760	-1.307721	-8.606361	0.331023	-0.008351	0.125041	0.308843	0.135319	0.078114
883	4.451168	0.005000	-8.436600	-1.412640	-8.753697	0.330691	-0.008240	0.125659	0.318361	0.145503	0.090338
884	4.456168	0.005000	-8.396702	-1.530031	-8.867582	0.330358	-0.008129	0.126278	0.342287	0.119998	0.108796
885	4.461168	0.005000	-8.318880	-1.563640	-8.826020	0.330026	-0.008019	0.126896	0.350587	0.110861	0.131234
886	4.466168	0.005000	-8.167744	-1.642256	-8.829000	0.329694	-0.007908	0.127514	0.377390	0.092244	0.154548
887	4.471168	0.005000	-8.222157	-1.765800	-8.847243	0.329361	-0.007797	0.128133	0.384931	0.065009	0.161720
888	4.476168	0.005000	-7.963784	-1.831845	-8.791696	0.329029	-0.007687	0.128751	0.389865	0.029890	0.176458
889	4.481168	0.005000	-7.902518	-1.916165	-8.711280	0.328697	-0.007576	0.129369	0.390374	-0.000625	0.200192
890	4.486168	0.005000	-7.924392	-1.943424	-8.591472	0.328365	-0.007465	0.129988	0.376371	-0.032047	0.200460
891	4.491168	0.005000	-7.922459	-2.022871	-8.397360	0.328575	-0.007898	0.129515	0.377404	-0.074008	0.215117
892	4.496168	0.005000	-7.975946	-2.040480	-8.318880	0.328797	-0.008341	0.129019	0.361747	-0.093941	0.228957
893	4.501168	0.005000	-8.016623	-1.996989	-8.240400	0.329019	-0.008784	0.128524	0.353651	-0.115860	0.239550
894	4.506168	0.005000	-8.083440	-1.984509	-8.209525	0.329240	-0.009228	0.128029	0.343238	-0.150279	0.258315
895	4.511168	0.005000	-8.190248	-1.821409	-8.161920	0.329462	-0.009671	0.127534	0.325591	-0.154448	0.266829
896	4.516168	0.005000	-8.046409	-1.913926	-8.116054	0.329684	-0.010115	0.127039	0.324517	-0.162728	0.273937
897	4.521168	0.005000	-8.122045	-1.804405	-8.004960	0.329905	-0.010558	0.126544	0.308524	-0.160658	0.282078
898	4.526168	0.005000	-8.161920	-1.848213	-7.812693	0.330127	-0.011001	0.126049	0.290315	-0.171041	0.297488
899	4.531168	0.005000	-8.175474	-1.707651	-7.723503	0.330349	-0.011445	0.125553	0.264634	-0.169799	0.305043
900	4.536168	0.005000	-8.220220	-1.579690	-7.680950	0.330571	-0.011888	0.125058	0.235000	-0.163365	0.303070
901	4.541168	0.005000	-8.109445	-1.413104	-7.691040	0.330792	-0.012332	0.124563	0.213668	-0.163484	0.311951
902	4.546168	0.005000	-7.958943	-1.225895	-7.504295	0.331014	-0.012775	0.124068	0.187768	-0.158893	0.309203
903	4.551168	0.005000	-7.848000	-1.019937	-7.416209	0.331236	-0.013218	0.123573	0.165750	-0.167552	0.318580
904	4.556168	0.005000	-7.752668	-0.795873	-7.264937	0.331343	-0.013433	0.123269	0.135804	-0.176563	0.315713
905	4.561168	0.005000	-7.663932	-0.507276	-7.101018	0.331343	-0.013433	0.123146	0.140425	-0.179529	0.317649
906	4.566168	0.005000	-7.580430	-0.085590	-6.913350	0.331343	-0.013433	0.123022	0.133189	-0.187755	0.332444
907	4.571168	0.005000	-7.354928	0.125117	-6.852206	0.331343	-0.013433	0.122898	0.126929	-0.180264	0.319786
908	4.576168	0.005000	-7.206500	0.239993	-6.631560	0.331343	-0.013433	0.122774	0.144412	-0.169566	0.335871
909	4.581168	0.005000	-6.982209	0.393656	-6.629049	0.331343	-0.013433	0.122651	0.158696	-0.140727	0.315568
910	4.586168	0.005000	-6.868588	0.506943	-6.553080	0.331343	-0.013433	0.122527	0.203443	-0.131893	0.310949
911	4.591168	0.005000	-6.510058	0.479745	-6.365745	0.331343	-0.013433	0.122403	0.225583	-0.114054	0.315826
912	4.596168	0.005000	-6.152421	0.510120	-6.254650	0.331343	-0.013433	0.122280	0.253776	-0.097299	0.298750
913	4.601168	0.005000	-5.860465	0.588600	-6.061022	0.331343	-0.013433	0.122156	0.269857	-0.079741	0.285118
914	4.606168	0.005000	-5.627627	0.484767	-5.953014	0.331343	-0.013433	0.122032	0.288463	-0.065799	0.272610
915	4.611168	0.005000	-5.392611	0.347381	-5.768280	0.331343	-0.013433	0.121909	0.287215	-0.049263	0.242810
916	4.616168	0.005000	-5.103741	0.275527	-5.650560	0.331343	-0.013433	0.121785	0.272594	-0.020293	0.240305
917	4.621168	0.005000	-4.643390	0.206018	-5.696335	0.331338	-0.013493	0.121667	0.268487	0.010990	0.213074
918	4.626168	0.005000	-4.381901	0.222310	-5.545970	0.331227	-0.014823	0.121667	0.267076	0.026825	0.204452
919	4.631168	0.005000	-3.982058	0.245651	-5.473178	0.331116	-0.016153	0.121667	0.235907	0.065475	0.176704
920	4.636168	0.005000	-3.654070	0.274680	-5.426768	0.331006	-0.017482	0.121667	0.239205	0.078839	0.176970
921	4.641168	0.005000	-3.377393	0.278734	-5.175626	0.330895	-0.018812	0.121667	0.215631	0.100873	0.160808
922	4.646168	0.005000	-2.939975	0.390887	-5.181193	0.330784	-0.020141	0.121667	0.196286	0.103542	0.162895
923	4.651168	0.005000	-2.563125	0.388225	-5.109550	0.330673	-0.021471	0.121667	0.173938	0.112692	0.161644
924	4.656168	0.005000	-2.300577	0.495326	-4.993343	0.330563	-0.022800	0.121667	0.156076	0.117846	0.163977
925	4.661168	0.005000	-2.025973	0.563867	-4.890493	0.330452	-0.024130	0.121667	0.151602	0.096424	0.169079
926	4.666168	0.005000	-1.866456	0.729359	-4.730976	0.330341	-0.025460	0.121667	0.137550	0.068116	0.181823
927	4.671168	0.005000	-1.751414	0.859362	-4.748040	0.330230	-0.026789	0.121667	0.134012	0.035901	0.190135
928	4.676168	0.005000	-1.887780	1.020240	-4.652070	0.330120	-0.028119	0.121667	0.132073	-0.013002	0.212567
929	4.681168	0.005000	-2.055486	1.001543	-4.748040	0.330009	-0.029448	0.121667	0.133362	-0.044890	0.234982
930	4.686168	0.005000	-2.352918	0.996400	-4.763440	0.329898	-0.030778	0.121667	0.137380	-0.079544	0.256236
931	4.691168	0.005000	-2.406196	1.006111	-4.903427	0.329660	-0.031088	0.121809	0.128610	-0.078872	0.259605
932	4.696168	0.005000	-2.618631	0.981000	-5.081154	0.329327	-0.030645	0.122057	0.130075	-0.119615	0.266687
933	4.701168	0.005000	-2.759598	1.020240	-5.068359	0.328995	-0.030202	0.122304	0.119271	-0.104425	0.268435
934	4.706168	0.005000	-2.867621	0.984101	-5.146642	0.328663	-0.029759	0.122552	0.121281	-0.114183	0.274222
935	4.711168	0.005000	-2.904014	1.020494	-5.218920	0.328330	-0.029315	0.122799	0.105087	-0.113844	0.268579
936	4.716168	0.005000	-3.123922	1.131849	-5.037998	0.327998	-0.028872	0.123046	0.093322	-0.118533	0.261989
937	4.721168	0.005000	-3.251020	1.071279	-4.995279	0.327665	-0.028429	0.123294	0.094225	-0.134163	0.250429
938	4.726168	0.005000	-3.395485	1.158805	-4.775632	0.327333	-0.027986	0.123541	0.093817	-0.137976	0.242588
939	4.731168	0.005000	-3.692865	1.152475	-4.760402	0.327000	-0.027543	0.123789	0.101963	-0.130975	0.222790
940	4.736168	0.005000	-3.964949	1.137960	-4.558662	0.326668	-0.027099	0.124036	0.102176	-0.110801	0.218546
941	4.741168	0.005000	-4.203406	1.198001	-4.431757	0.326336	-0.026656	0.124284	0.107370	-0.063769	0.217877
942	4.746168	0.005000	-4.483601	1.430384	-4.355640	0.326003	-0.026213	0.124531	0.128217	-0.024764	0.221898
943	4.751168	0.005000	-4.776903	1.412640	-4.237920	0.325671	-0.025770	0.124778	0.119891	0.032469	0.216890
944	4.756168	0.005000	-4.911580	1.294920	-4.175770	0.325385	-0.025466	0.125078	0.140736	0.092859	0.226738
945	4.761168	0.005000	-5.140440	1.255680	-3.985901	0.325495	-0.026352	0.125820	0.133913	0.169768	0.224150
946	4.766168	0.005000	-5.106581	1.200296	-3.950907	0.325606	-0.027238	0.126562	0.149857	0.230300	0.242667
947	4.771168	0.005000	-5.020587	1.059480	-4.128732	0.325717	-0.028125	0.127305	0.153961	0.291580	0.263177
948	4.776168	0.005000	-4.983480	1.020951	-4.469805	0.325828	-0.029011	0.128047	0.134342	0.337103	0.264525
949	4.781168	0.005000	-4.685412	0.879132	-4.963666	0.325939	-0.029897	0.128789	0.126338	0.362861	0.282872
950	4.786168	0.005000	-4.669560	0.791653	-5.327912	0.326050	-0.030784	0.129532	0.103367	0.365294	0.303771
951	4.791168	0.005000	-4.620155	0.813875	-5.580824	0.326160	-0.031670	0.130274	0.079542	0.330060	0.311648
952	4.796168	0.005000	-4.761261	0.967991	-5.846972	0.326271	-0.032557	0.131016	0.059365	0.265734	0.321440
953	4.801168	0.005000	-4.958237	1.066479	-6.197796	0.326382	-0.033443	0.131759	0.035937	0.186613	0.321621
954	4.806168	0.005000	-5.438960	1.257556	-6.358756	0.326493	-0.034329	0.132501	0.013362	0.091090	0.350333
955	4.811168	0.005000	-5.885713	1.535760	-6.553080	0.326604	-0.035216	0.133244	-0.012804	0.021122	0.350364
956	4.816168	0.005000	-6.440473	1.715184	-6.701221	0.326715	-0.036102	0.133986	-0.009774	-0.038519	0.366384
957	4.821168	0.005000	-7.001950	1.836943	-6.738646	0.326825	-0.036989	0.134728	-0.029712	-0.064890	0.377530
958	4.826168	0.005000	-7.533793	2.071642	-6.615979	0.326585	-0.037664	0.134686	-0.037792	-0.077984	0.365805
959	4.831168	0.005000	-7.997064	2.215351	-6.230205	0.326141	-0.038219	0.134191	-0.054447	-0.088378	0.375490
960	4.836168	0.005000	-8.482300	2.519435	-6.129515	0.325698	-0.038773	0.133696	-0.052409	-0.103811	0.374993
961	4.841168	0.005000	-8.820680	2.820288	-6.467944	0.325255	-0.039327	0.133201	-0.046594	-0.129971	0.389635
962	4.846168	0.005000	-9.378255	2.928246	-6.925808	0.324811	-0.039882	0.132705	-0.040749	-0.132165	0.398303
963	4.851168	0.005000	-9.810136	3.162798	-7.267357	0.324368	-0.040436	0.132210	-0.022626	-0.145757	0.391960
964	4.856168	0.005000	-10.119194	3.420146	-7.793043	0.323925	-0.040990	0.131715	0.003773	-0.169119	0.398590
965	4.861168	0.005000	-10.679301	3.464435	-8.249068	0.323481	-0.041544	0.131220	0.034337	-0.203773	0.379990
966	4.866168	0.005000	-11.292465	3.575937	-8.950039	0.323038	-0.042099	0.130725	0.085641	-0.248280	0.381872
967	4.871168	0.005000	-12.061807	3.590959	-9.512206	0.322594	-0.042653	0.130230	0.134469	-0.271944	0.369271
968	4.876168	0.005000	-12.780097	3.522568	-10.236556	0.322151	-0.043207	0.129734	0.186032	-0.295112	0.370052
969	4.881168	0.005000	-13.458412	3.348682	-10.568237	0.321708	-0.043761	0.129239	0.215704	-0.283353	0.361894
970	4.886168	0.005000	-14.078789	3.119169	-10.841078	0.321264	-0.044316	0.128744	0.233737	-0.253605	0.342356
971	4.891168	0.005000	-14.375485	2.910582	-11.000845	0.320896	-0.044983	0.128333	0.243516	-0.218343	0.346573
972	4.896168	0.005000	-14.561973	2.652588	-11.053881	0.320896	-0.046201	0.128333	0.252071	-0.174662	0.329606
973	4.901168	0.005000	-14.559401	2.355081	-11.064319	0.320896	-0.047419	0.128333	0.246703	-0.149056	0.328737
974	4.906168	0.005000	-14.673159	2.393640	-11.170395	0.320896	-0.048637	0.128333	0.212721	-0.104658	0.334126
975	4.911168	0.005000	-14.518800	2.427404	-11.110396	0.320896	-0.049856	0.128333	0.190838	-0.059386	0.325343
976	4.916168	0.005000	-14.357294	2.655519	-11.026440	0.320896	-0.051074	0.128333	0.170625	-0.020523	0.335373
977	4.921168	0.005000	-14.149635	2.975009	-10.904333	0.320896	-0.052292	0.128333	0.147819	0.000849	0.346469
978	4.926168	0.005000	-14.023142	3.380812	-10.844702	0.320896	-0.053510	0.128333	0.155706	0.008911	0.364276
979	4.931168	0.005000	-13.944283	3.595997	-10.748069	0.320896	-0.054729	0.128333	0.178394	0.021742	0.370856
980	4.936168	0.005000	-13.911791	3.764617	-10.945537	0.320896	-0.055947	0.128333	0.206459	0.025390	0.381305
981	4.941168	0.005000	-14.093892	3.657912	-11.393063	0.320896	-0.057165	0.128333	0.222790	0.050228	0.380114
982	4.946168	0.005000	-14.140975	3.533842	-11.767515	0.320896	-0.058383	0.128333	0.239864	0.074173	0.373693
983	4.951168	0.005000	-14.068826	3.395546	-11.995701	0.320896	-0.059602	0.128333	0.260890	0.103373	0.362209
984	4.956168	0.005000	-14.081291	3.323661	-12.203640	0.320896	-0.060820	0.128333	0.254372	0.116475	0.347559
985	4.961168	0.005000	-14.038951	3.214690	-12.251849	0.320512	-0.061501	0.128847	0.249362	0.134317	0.329766
986	4.966168	0.005000	-13.969153	3.139487	-12.360600	0.319958	-0.061944	0.129590	0.224079	0.134712	0.316873
987	4.971168	0.005000	-14.008680	3.024611	-12.396709	0.319404	-0.062388	0.130332	0.212618	0.131721	0.310112
988	4.976168	0.005000	-14.185593	3.021480	-12.262167	0.318850	-0.062831	0.131075	0.172267	0.119395	0.315638
989	4.981168	0.005000	-14.372199	3.178440	-12.203640	0.318296	-0.063274	0.131817	0.126876	0.133575	0.322290
990	4.986168	0.005000	-14.465492	3.442017	-12.087402	0.317742	-0.063717	0.132559	0.104983	0.167232	0.336353
991	4.991168	0.005000	-14.416964	3.907179	-12.093393	0.317188	-0.064160	0.133302	0.077854	0.226484	0.366028
992	4.996168	0.005000	-14.180797	4.101473	-12.104647	0.316634	-0.064603	0.134044	0.061847	0.288583	0.400780
993	5.001168	0.005000	-13.743681	4.424439	-12.137519	0.316080	-0.065047	0.134786	0.067439	0.348885	0.438506
994	5.006168	0.005000	-13.110347	4.630320	-12.292977	0.315526	-0.065490	0.135529	0.066797	0.406201	0.471207
995	5.011168	0.005000	-12.446220	4.591080	-12.142284	0.314972	-0.065933	0.136271	0.111041	0.445837	0.523142
996	5.016168	0.005000	-11.548758	4.638437	-12.148166	0.314418	-0.066376	0.137014	0.130752	0.478378	0.553480
997	5.021168	0.005000	-10.614465	4.497896	-11.801438	0.313864	-0.066819	0.137756	0.174782	0.472192	0.593860
998	5.026168	0.005000	-9.947718	4.231506	-11.607023	0.313310	-0.067312	0.138361	0.198563	0.463124	0.613510
999	5.031168	0.005000	-9.002086	4.080960	-11.380840	0.312755	-0.067977	0.138484	0.227505	0.436041	0.630276
1000	5.036168	0.005000	-8.290486	3.736907	-11.266433	0.312201	-0.068642	0.138608	0.237672	0.382907	0.643728
1001	5.041168	0.005000	-7.706108	3.500118	-10.939753	0.311647	-0.069307	0.138732	0.250253	0.312162	0.655895
1002	5.046168	0.005000	-7.031040	3.435270	-10.666125	0.311093	-0.069972	0.138856	0.260489	0.254865	0.664011
1003	5.051168	0.005000	-6.494175	3.388648	-10.429399	0.310538	-0.070637	0.138980	0.257608	0.183538	0.669586
1004	5.056168	0.005000	-5.988646	3.269003	-10.303012	0.309984	-0.071303	0.139103	0.281161	0.112313	0.657527
1005	5.061168	0.005000	-5.671768	3.277069	-10.279821	0.309430	-0.071968	0.139227	0.286509	0.040144	0.669427
1006	5.066168	0.005000	-5.273529	3.272698	-10.312435	0.308875	-0.072633	0.139351	0.302687	-0.016869	0.649467
1007	5.071168	0.005000	-4.880260	3.231328	-10.320972	0.308321	-0.073298	0.139475	0.337671	-0.086762	0.648446
1008	5.076168	0.005000	-4.503660	3.179136	-10.114980	0.307767	-0.073963	0.139599	0.359498	-0.144328	0.625978
1009	5.081168	0.005000	-4.141771	2.916406	-9.778384	0.307213	-0.074628	0.139722	0.403485	-0.211429	0.607027
1010	5.086168	0.005000	-3.710603	2.808083	-9.354284	0.306658	-0.075293	0.139846	0.435774	-0.286634	0.592619
1011	5.091168	0.005000	-3.413517	2.432335	-8.867514	0.306104	-0.075958	0.139970	0.472644	-0.379759	0.562925
1012	5.096168	0.005000	-3.299254	2.206723	-8.530552	0.306390	-0.077882	0.138781	0.516137	-0.460659	0.527497
1013	5.101168	0.005000	-3.413880	1.729057	-8.213085	0.306944	-0.080208	0.137173	0.528148	-0.523822	0.482941
1014	5.106168	0.005000	-3.552294	1.449732	-7.954299	0.307497	-0.082534	0.135566	0.554693	-0.567942	0.446758
1015	5.111168	0.005000	-3.783334	0.950340	-7.728352	0.308051	-0.084860	0.133958	0.556054	-0.593706	0.395809
1016	5.116168	0.005000	-3.830090	0.508789	-7.541129	0.308605	-0.087186	0.132350	0.567356	-0.598279	0.360426
1017	5.121168	0.005000	-3.824539	0.209013	-7.253954	0.309159	-0.089511	0.130742	0.555529	-0.595784	0.325553
1018	5.126168	0.005000	-3.841617	-0.070674	-6.988623	0.309713	-0.091837	0.129135	0.527186	-0.589186	0.285790
1019	5.131168	0.005000	-3.678630	-0.328575	-6.773865	0.310266	-0.094163	0.127527	0.515013	-0.574577	0.259861
1020	5.136168	0.005000	-3.649320	-0.595468	-6.652405	0.310820	-0.096489	0.125919	0.488593	-0.547629	0.230052
1021	5.141168	0.005000	-3.546198	-0.832254	-6.402504	0.311374	-0.098815	0.124311	0.447172	-0.523102	0.213497
1022	5.146168	0.005000	-3.280050	-0.936390	-6.183810	0.311928	-0.101141	0.122704	0.421115	-0.504451	0.200607
1023	5.151168	0.005000	-3.091670	-0.983072	-5.921095	0.312481	-0.103466	0.121096	0.385242	-0.491263	0.186232
1024	5.156168	0.005000	-2.827594	-1.097177	-5.731354	0.313035	-0.105792	0.119488	0.356119	-0.479434	0.181427
1025	5.161168	0.005000	-2.719813	-1.063564	-5.697969	0.313402	-0.107026	0.118298	0.318562	-0.468206	0.173948
1026	5.166168	0.005000	-2.572493	-0.853231	-5.743635	0.313291	-0.105475	0.118174	0.304563	-0.468890	0.194154
1027	5.171168	0.005000	-2.356064	-0.805252	-5.700026	0.313180	-0.103924	0.118051	0.285716	-0.469555	0.198689
1028	5.176168	0.005000	-2.173115	-0.654918	-5.325854	0.313069	-0.102372	0.117927	0.288864	-0.488487	0.211995
1029	5.181168	0.005000	-2.194006	-0.588600	-5.173206	0.312958	-0.100821	0.117803	0.293974	-0.525642	0.225945
1030	5.186168	0.005000	-2.432759	-0.569041	-5.120881	0.312848	-0.099270	0.117680	0.311272	-0.578973	0.223927
1031	5.191168	0.005000	-2.703566	-0.621093	-5.228420	0.312737	-0.097719	0.117556	0.325493	-0.631582	0.237990
1032	5.196168	0.005000	-3.141136	-0.825008	-5.390251	0.312626	-0.096167	0.117432	0.328958	-0.651616	0.237037
1033	5.201168	0.005000	-3.570840	-1.108825	-5.483495	0.312515	-0.094616	0.117309	0.322455	-0.644368	0.245827
1034	5.206168	0.005000	-3.724865	-1.174265	-5.346836	0.312404	-0.093065	0.117185	0.304429	-0.631980	0.239825
1035	5.211168	0.005000	-3.924000	-1.463725	-5.148336	0.312293	-0.091514	0.117061	0.271753	-0.603969	0.229986
1036	5.216168	0.005000	-3.843311	-1.725456	-5.060856	0.312183	-0.089962	0.116938	0.222234	-0.590166	0.233198
1037	5.221168	0.005000	-3.655825	-1.613177	-5.059792	0.312072	-0.088411	0.116814	0.166173	-0.564824	0.208732
1038	5.226168	0.005000	-3.512509	-1.682283	-5.037832	0.311961	-0.086860	0.116690	0.113594	-0.566324	0.194284
1039	5.231168	0.005000	-3.382892	-1.639828	-4.968995	0.313019	-0.086118	0.114559	0.065056	-0.593202	0.166091
1040	5.236168	0.005000	-3.066257	-1.687320	-5.078812	0.314348	-0.085564	0.111961	-0.000921	-0.630612	0.132542
1041	5.241168	0.005000	-2.829516	-1.569600	-5.253924	0.315678	-0.085010	0.109363	-0.043389	-0.656378	0.106931
1042	5.246168	0.005000	-2.519559	-1.364263	-5.275496	0.317008	-0.084455	0.106764	-0.111186	-0.682143	0.065156
1043	5.251168	0.005000	-2.162315	-1.451880	-5.276751	0.318337	-0.083901	0.104166	-0.154842	-0.742633	0.031329
1044	5.256168	0.005000	-1.829356	-1.397073	-5.141083	0.319667	-0.083347	0.101568	-0.200088	-0.816715	-0.019902
1045	5.261168	0.005000	-1.649971	-1.205881	-5.012161	0.320997	-0.082793	0.098970	-0.221880	-0.916870	-0.064787
1046	5.266168	0.005000	-1.530360	-1.109483	-4.826520	0.322326	-0.082239	0.096371	-0.261699	-1.022132	-0.108964
1047	5.271168	0.005000	-1.601065	-0.968414	-4.950533	0.323656	-0.081685	0.093773	-0.304418	-1.164729	-0.159685
1048	5.276168	0.005000	-1.890339	-0.892291	-5.068779	0.324986	-0.081131	0.091175	-0.344409	-1.287347	-0.193442
1049	5.281168	0.005000	-2.119414	-0.744955	-5.218769	0.326315	-0.080577	0.088576	-0.379446	-1.396832	-0.234363
1050	5.286168	0.005000	-2.308911	-0.516369	-5.107449	0.327645	-0.080023	0.085978	-0.404287	-1.482748	-0.263881
1051	5.291168	0.005000	-2.493343	-0.286691	-4.627113	0.328974	-0.079469	0.083380	-0.431920	-1.586012	-0.273199
1052	5.296168	0.005000	-2.818536	-0.057634	-4.196228	0.330078	-0.078877	0.079938	-0.450628	-1.699788	-0.301928
1053	5.301168	0.005000	-3.500756	0.105573	-3.894109	0.330742	-0.078213	0.074865	-0.456627	-1.835058	-0.299534
1054	5.306168	0.005000	-4.226828	0.228848	-3.688560	0.331407	-0.077548	0.069792	-0.458853	-1.916633	-0.323247
1055	5.311168	0.005000	-5.014945	0.292984	-3.586512	0.332072	-0.076883	0.064719	-0.459725	-1.963841	-0.323807
1056	5.316168	0.005000	-5.791667	0.335522	-3.496323	0.332737	-0.076218	0.059647	-0.464708	-1.962690	-0.337970
1057	5.321168	0.005000	-6.504824	0.205851	-3.359846	0.333402	-0.075553	0.054574	-0.467145	-1.948827	-0.351744
1058	5.326168	0.005000	-7.240219	0.168442	-3.296160	0.334066	-0.074889	0.049501	-0.476792	-1.949462	-0.352983
1059	5.331168	0.005000	-8.163744	0.218362	-3.313238	0.334731	-0.074224	0.044428	-0.486840	-1.922179	-0.374080
1060	5.336168	0.005000	-9.128519	0.206880	-3.631440	0.335396	-0.073559	0.039355	-0.508431	-1.857846	-0.369570
1061	5.341168	0.005000	-9.871538	0.353160	-3.967294	0.336061	-0.072894	0.034282	-0.534546	-1.744942	-0.381281
1062	5.346168	0.005000	-10.549842	0.430006	-4.041720	0.336725	-0.072230	0.029209	-0.558006	-1.604039	-0.396140
1063	5.351168	0.005000	-11.049222	0.545245	-4.107856	0.337390	-0.071565	0.024136	-0.575144	-1.453491	-0.408062
1064	5.356168	0.005000	-11.197317	0.678486	-4.263243	0.338055	-0.070900	0.019063	-0.597823	-1.289491	-0.420809
1065	5.361168	0.005000	-11.067526	0.881977	-4.374337	0.338720	-0.070235	0.013990	-0.600943	-1.126361	-0.418936
1066	5.366168	0.005000	-10.883896	1.188610	-4.394880	0.339385	-0.069667	0.011825	-0.616651	-0.959761	-0.453118
1067	5.371168	0.005000	-10.451424	1.193613	-4.349226	0.340049	-0.069113	0.010093	-0.611411	-0.840680	-0.450972
1068	5.376168	0.005000	-9.867716	1.295428	-4.257413	0.340714	-0.068559	0.008361	-0.607811	-0.736467	-0.460311
1069	5.381168	0.005000	-9.306808	1.356730	-4.148669	0.341379	-0.068005	0.006629	-0.584529	-0.688795	-0.469432
1070	5.386168	0.005000	-8.801378	1.228935	-3.961485	0.342044	-0.067451	0.004897	-0.566686	-0.670009	-0.474688
1071	5.391168	0.005000	-8.494272	1.344564	-3.618107	0.342709	-0.066897	0.003165	-0.551613	-0.654245	-0.481475
1072	5.396168	0.005000	-8.404576	1.430233	-3.563624	0.343373	-0.066343	0.001432	-0.519337	-0.661375	-0.468638
1073	5.401168	0.005000	-8.462531	1.290598	-3.623045	0.344038	-0.065789	-0.000300	-0.508235	-0.673288	-0.471702
1074	5.406168	0.005000	-8.832222	1.213218	-3.765966	0.344703	-0.065235	-0.002032	-0.467592	-0.680394	-0.458655
1075	5.411168	0.005000	-9.168886	1.172775	-3.801855	0.345368	-0.064681	-0.003764	-0.467403	-0.637561	-0.454405
1076	5.416168	0.005000	-9.358029	1.059480	-4.045381	0.346032	-0.064127	-0.005496	-0.462437	-0.582743	-0.447760
1077	5.421168	0.005000	-9.465220	1.059480	-4.361358	0.346697	-0.063573	-0.007228	-0.456655	-0.529448	-0.440762
1078	5.426168	0.005000	-9.479950	1.121830	-4.489490	0.347362	-0.063019	-0.008960	-0.443559	-0.461824	-0.419343
1079	5.431168	0.005000	-9.471377	1.162663	-4.675354	0.347983	-0.062332	-0.010396	-0.438476	-0.406814	-0.410234
1080	5.436168	0.005000	-9.156573	1.338138	-4.651929	0.348537	-0.061446	-0.011386	-0.414004	-0.350096	-0.389392
1081	5.441168	0.005000	-9.087237	1.371282	-4.785162	0.349091	-0.060559	-0.012376	-0.394679	-0.312418	-0.371526
1082	5.446168	0.005000	-8.852992	1.412640	-4.850512	0.349645	-0.059672	-0.013367	-0.368199	-0.293916	-0.343381
1083	5.451168	0.005000	-8.647515	1.321898	-4.801995	0.350200	-0.058785	-0.014357	-0.336018	-0.255943	-0.330194
1084	5.456168	0.005000	-8.487760	1.228360	-4.648533	0.350754	-0.057898	-0.015347	-0.304548	-0.228942	-0.294275
1085	5.461168	0.005000	-8.391566	1.120579	-4.759627	0.351308	-0.057011	-0.016337	-0.285688	-0.212288	-0.283754
1086	5.466168	0.005000	-8.282590	0.899570	-4.787280	0.351863	-0.056124	-0.017328	-0.252549	-0.210829	-0.264322
1087	5.471168	0.005000	-8.318880	0.746592	-4.748384	0.352417	-0.055237	-0.018318	-0.232485	-0.193449	-0.262034
1088	5.476168	0.005000	-8.240400	0.516504	-4.666368	0.352971	-0.054351	-0.019308	-0.209687	-0.180174	-0.250396
1089	5.481168	0.005000	-8.181434	0.261459	-4.519105	0.353525	-0.053464	-0.020298	-0.184941	-0.168431	-0.237138
1090	5.486168	0.005000	-8.289473	0.009772	-4.316370	0.354080	-0.052577	-0.021289	-0.171624	-0.171362	-0.245132
1091	5.491168	0.005000	-8.306234	-0.117720	-4.408827	0.354634	-0.051690	-0.022279	-0.154954	-0.149436	-0.236042
1092	5.496168	0.005000	-8.264243	-0.321245	-4.386808	0.355188	-0.050803	-0.023269	-0.153394	-0.127696	-0.229186
1093	5.501168	0.005000	-8.081806	-0.631107	-4.416951	0.354705	-0.050746	-0.023333	-0.149419	-0.107144	-0.240101
1094	5.506168	0.005000	-8.083440	-0.971077	-4.591080	0.354151	-0.050746	-0.023333	-0.148492	-0.081127	-0.227345
1095	5.511168	0.005000	-7.923341	-1.101859	-4.737053	0.353597	-0.050746	-0.023333	-0.165943	-0.044877	-0.232742
1096	5.516168	0.005000	-7.848000	-1.277645	-4.831209	0.353043	-0.050746	-0.023333	-0.166164	-0.019507	-0.220161
1097	5.521168	0.005000	-7.737338	-1.475029	-5.070005	0.352488	-0.050746	-0.023333	-0.183762	0.016365	-0.203316
1098	5.526168	0.005000	-7.524399	-1.412640	-5.287719	0.351934	-0.050746	-0.023333	-0.206293	0.025698	-0.190330
1099	5.531168	0.005000	-7.294056	-1.334160	-5.294344	0.351380	-0.050746	-0.023333	-0.217655	0.046896	-0.153225
1100	5.536168	0.005000	-7.105939	-1.296670	-5.218920	0.350825	-0.050746	-0.023333	-0.215922	0.059771	-0.130635
1101	5.541168	0.005000	-7.014732	-1.151801	-5.001935	0.350271	-0.050746	-0.023333	-0.213315	0.048738	-0.092463
1102	5.546168	0.005000	-7.055367	-1.051647	-4.983480	0.349717	-0.050746	-0.023333	-0.210640	0.056919	-0.075554
1103	5.551168	0.005000	-7.080899	-1.087949	-5.118899	0.349163	-0.050746	-0.023333	-0.191615	0.053617	-0.021497
1104	5.556168	0.005000	-7.063200	-1.009137	-5.372915	0.348608	-0.050746	-0.023333	-0.190494	0.072737	0.022401
