# FOX Logger (IMU file)
# (c) INRIA 2011-2014
# File created from file sensbiotk output
#
# File format:
# id	t	dt	ax	ay	az	mx	my	mz	gx	gy	gz
#
# Units:
#	Time: s
#	Acceleration: m.s^-2
#	Magneto: gauss
#	Gyrometer: rad/s
#
1	0.034668	0.034668	1.530360	9.854844	0.353160	-0.747761	-0.634328	0.795000	-0.003148	-0.008476	-0.003351
2	0.039668	0.005000	1.491120	9.833387	0.282607	-0.747651	-0.634547	0.795000	-0.005050	-0.011921	-0.002273
3	0.044668	0.005000	1.540323	9.878517	0.382437	-0.747542	-0.634767	0.795000	0.003891	-0.015284	0.004818
4	0.049668	0.005000	1.530360	9.915349	0.287051	-0.747432	-0.634986	0.795000	-0.005939	-0.007069	0.000527
5	0.054668	0.005000	1.584213	9.863853	0.215412	-0.747322	-0.635206	0.795000	0.002740	-0.011094	-0.001725
6	0.059668	0.005000	1.608840	9.832521	0.117720	-0.747213	-0.635425	0.795000	-0.003665	0.000000	-0.003644
7	0.064668	0.005000	1.568621	9.788911	0.256529	-0.747103	-0.635644	0.795000	-0.000872	-0.004414	-0.004679
8	0.069668	0.005000	1.548526	9.831074	0.235440	-0.746993	-0.635864	0.795000	-0.005073	-0.008127	0.003630
9	0.074668	0.005000	1.608840	9.825754	0.266948	-0.746884	-0.636083	0.795000	-0.006960	-0.002515	-0.006286
10	0.079668	0.005000	1.530360	9.862885	0.276374	-0.746774	-0.636303	0.795000	-0.009522	-0.010753	0.003414
11	0.084668	0.005000	1.569600	9.832540	0.353160	-0.746664	-0.636522	0.795000	-0.010258	-0.015272	-0.010706
12	0.089668	0.005000	1.560613	9.879493	0.374426	-0.746555	-0.636741	0.795000	-0.009468	-0.014805	0.002660
13	0.094668	0.005000	1.484539	9.888480	0.274680	-0.746445	-0.636961	0.795000	-0.011821	-0.010041	0.000831
14	0.099668	0.005000	1.525723	9.810000	0.210112	-0.746335	-0.637180	0.795000	-0.006711	-0.009782	0.004644
15	0.104668	0.005000	1.569600	9.851460	0.424980	-0.746182	-0.637400	0.795000	-0.017360	-0.013007	0.005239
16	0.109668	0.005000	1.530360	9.888480	0.392128	-0.745963	-0.637619	0.795000	-0.011026	-0.010994	-0.000332
17	0.114668	0.005000	1.493248	9.962704	0.353160	-0.745744	-0.637838	0.795000	0.002322	-0.019025	0.002063
18	0.119668	0.005000	1.386878	9.818986	0.309427	-0.745524	-0.638058	0.795000	-0.003963	-0.012228	-0.005150
19	0.124668	0.005000	1.523871	9.777249	0.287658	-0.745305	-0.638277	0.795000	-0.009794	-0.016753	0.001232
20	0.129668	0.005000	1.508910	9.879585	0.353160	-0.745086	-0.638497	0.795000	-0.004415	-0.016819	0.010072
21	0.134668	0.005000	1.508689	9.831671	0.257111	-0.744866	-0.638716	0.795000	-0.006487	-0.012392	-0.003665
22	0.139668	0.005000	1.595597	9.861993	0.339917	-0.744647	-0.638935	0.795000	-0.003828	-0.017084	0.001305
23	0.144668	0.005000	1.459065	9.873005	0.353160	-0.744428	-0.639155	0.795000	0.003488	-0.010177	-0.003194
24	0.149668	0.005000	1.412640	9.831640	0.410000	-0.744209	-0.639374	0.795000	0.007043	-0.009263	-0.004035
25	0.154668	0.005000	1.393171	9.849240	0.333994	-0.743989	-0.639594	0.795000	0.003927	-0.012305	-0.006371
26	0.159668	0.005000	1.486450	9.866525	0.348490	-0.743770	-0.639813	0.795000	0.001939	-0.023718	-0.000941
27	0.164668	0.005000	1.569600	9.878991	0.343671	-0.743551	-0.640032	0.795000	-0.002296	-0.017191	0.004058
28	0.169668	0.005000	1.399264	9.849240	0.366536	-0.743331	-0.640252	0.795000	-0.000941	-0.005943	-0.009222
29	0.174668	0.005000	1.561914	9.820518	0.353160	-0.743284	-0.639869	0.795192	-0.004159	-0.015645	0.001608
30	0.179668	0.005000	1.622666	9.810000	0.336218	-0.743284	-0.639321	0.795437	-0.002133	-0.013175	-0.005444
31	0.184668	0.005000	1.491120	9.822335	0.365495	-0.743284	-0.638772	0.795682	0.008327	-0.010446	-0.006677
32	0.189668	0.005000	1.456055	9.923545	0.348985	-0.743284	-0.638224	0.795927	-0.000590	-0.008148	0.007038
33	0.194668	0.005000	1.380626	9.847433	0.356773	-0.743284	-0.637676	0.796172	0.004241	-0.011771	0.001049
34	0.199668	0.005000	1.569010	9.848650	0.354340	-0.743284	-0.637127	0.796416	-0.002969	-0.015398	0.004866
35	0.204668	0.005000	1.608840	9.810000	0.279763	-0.743284	-0.636579	0.796661	0.002256	-0.009043	-0.001158
36	0.209668	0.005000	1.574486	9.849240	0.269794	-0.743284	-0.636031	0.796906	0.004162	-0.018423	0.000072
37	0.214668	0.005000	1.569600	9.920830	0.385510	-0.743284	-0.635482	0.797151	0.003583	-0.006277	-0.003233
38	0.219668	0.005000	1.511750	9.888480	0.332530	-0.743284	-0.634934	0.797396	0.008981	-0.011025	0.001923
39	0.224668	0.005000	1.491120	9.833145	0.420068	-0.743284	-0.634386	0.797641	0.015862	-0.017002	0.008206
40	0.229668	0.005000	1.530360	9.914063	0.315650	-0.743284	-0.633837	0.797886	0.014622	-0.010996	0.000255
41	0.234668	0.005000	1.498221	9.888480	0.353160	-0.743284	-0.633289	0.798131	0.014647	-0.024102	0.000160
42	0.239668	0.005000	1.509133	9.810000	0.229012	-0.743265	-0.632912	0.798269	0.024062	-0.012070	0.003762
43	0.244668	0.005000	1.412640	9.868056	0.273072	-0.743155	-0.633351	0.797902	0.028099	-0.021217	0.008084
44	0.249668	0.005000	1.491120	9.826670	0.353160	-0.743045	-0.633790	0.797534	0.020725	-0.013062	0.006320
45	0.254668	0.005000	1.511750	9.913258	0.353160	-0.742936	-0.634229	0.797167	0.016588	-0.014327	0.003008
46	0.259668	0.005000	1.503494	9.876106	0.367652	-0.742826	-0.634667	0.796799	0.019324	-0.013871	-0.005692
47	0.264668	0.005000	1.578526	9.927720	0.206305	-0.742716	-0.635106	0.796432	0.019242	-0.015583	-0.011730
48	0.269668	0.005000	1.483422	9.951564	0.188502	-0.742607	-0.635545	0.796064	0.026652	-0.020568	-0.001084
49	0.274668	0.005000	1.485363	9.849240	0.213470	-0.742497	-0.635984	0.795697	0.017361	-0.007851	-0.003374
50	0.279668	0.005000	1.566248	9.996145	0.310568	-0.742387	-0.636423	0.795329	0.026827	-0.012127	0.000865
51	0.284668	0.005000	1.569600	9.887072	0.277496	-0.742277	-0.636862	0.794962	0.015311	-0.014030	0.009735
52	0.289668	0.005000	1.530896	9.849240	0.275752	-0.742168	-0.637300	0.794594	0.017493	-0.014744	0.001028
53	0.294668	0.005000	1.530360	9.888480	0.350206	-0.742058	-0.637739	0.794227	0.014548	-0.012877	0.008118
54	0.299668	0.005000	1.559011	9.883185	0.353160	-0.741948	-0.638178	0.793859	0.023813	-0.009820	0.004350
55	0.304668	0.005000	1.530360	9.952354	0.299314	-0.741838	-0.638617	0.793491	0.016529	-0.020019	0.002533
56	0.309668	0.005000	1.491120	9.898198	0.294116	-0.741978	-0.638806	0.793333	0.016263	-0.018042	0.005564
57	0.314668	0.005000	1.557619	9.915739	0.407678	-0.742307	-0.638806	0.793333	0.030518	-0.015184	-0.003236
58	0.319668	0.005000	1.465950	9.891450	0.327990	-0.742636	-0.638806	0.793333	0.031686	-0.015198	0.010345
59	0.324668	0.005000	1.536635	9.911237	0.320195	-0.742965	-0.638806	0.793333	0.022533	-0.010320	0.002684
60	0.329668	0.005000	1.548786	9.906906	0.392400	-0.743294	-0.638806	0.793333	0.024073	-0.017670	0.006267
61	0.334668	0.005000	1.569600	9.849240	0.295517	-0.743623	-0.638806	0.793333	0.018444	-0.015176	0.007257
62	0.339668	0.005000	1.560055	9.872218	0.415378	-0.743952	-0.638806	0.793333	0.016659	-0.013100	0.006166
63	0.344668	0.005000	1.636949	9.913665	0.434564	-0.744281	-0.638806	0.793333	0.019566	-0.014247	0.004645
64	0.349668	0.005000	1.518394	9.876514	0.329229	-0.744610	-0.638806	0.793333	0.019382	-0.016608	-0.002057
65	0.354668	0.005000	1.500823	9.829406	0.333326	-0.744939	-0.638806	0.793333	0.028373	-0.016799	0.007750
66	0.359668	0.005000	1.555025	9.817288	0.250015	-0.745268	-0.638806	0.793333	0.020203	-0.009266	-0.003306
67	0.364668	0.005000	1.491120	9.804721	0.240719	-0.745597	-0.638806	0.793333	0.020969	-0.018063	-0.004150
68	0.369668	0.005000	1.412640	9.812938	0.280557	-0.745926	-0.638806	0.793333	0.030278	-0.006900	-0.004412
69	0.374668	0.005000	1.490599	9.887439	0.353681	-0.746255	-0.638806	0.793333	0.022873	-0.013313	-0.006851
70	0.379668	0.005000	1.489697	9.847817	0.316767	-0.748476	-0.639857	0.795328	0.018535	-0.014417	0.003536
71	0.384668	0.005000	1.558117	9.884652	0.246923	-0.750780	-0.640954	0.797411	0.022912	-0.007223	-0.000481
72	0.389668	0.005000	1.491120	9.921948	0.380856	-0.753084	-0.642051	0.799493	0.025404	-0.015365	0.004507
73	0.394668	0.005000	1.499308	9.880292	0.369536	-0.755388	-0.643148	0.801576	0.022240	-0.011227	0.000451
74	0.399668	0.005000	1.530360	9.878012	0.400236	-0.757691	-0.644245	0.803659	0.028525	-0.018232	0.000848
75	0.404668	0.005000	1.569600	9.783299	0.351537	-0.759995	-0.645342	0.805741	0.029751	-0.018471	0.003217
76	0.409668	0.005000	1.520679	9.903259	0.377621	-0.762299	-0.646439	0.807824	0.029047	-0.012940	-0.002285
77	0.414668	0.005000	1.491120	9.866127	0.370047	-0.764603	-0.647536	0.809907	0.040961	-0.025500	0.006583
78	0.419668	0.005000	1.531003	9.829941	0.313920	-0.766907	-0.648633	0.811989	0.032987	-0.009307	0.001207
79	0.424668	0.005000	1.569600	9.849240	0.349499	-0.769210	-0.649730	0.814072	0.026892	-0.018021	0.007721
80	0.429668	0.005000	1.467466	9.864826	0.337574	-0.771514	-0.650827	0.816155	0.024740	-0.013038	0.001877
81	0.434668	0.005000	1.569891	9.940606	0.353160	-0.773818	-0.651924	0.818237	0.021358	-0.009324	-0.001061
82	0.439668	0.005000	1.558367	9.888480	0.308227	-0.776122	-0.653021	0.820320	0.018124	-0.012882	0.009215
83	0.444668	0.005000	1.600021	9.849240	0.244259	-0.776798	-0.653460	0.821104	0.012262	-0.012243	-0.000032
84	0.449668	0.005000	1.537152	9.914136	0.281472	-0.774494	-0.652692	0.819512	0.011801	-0.009392	0.009191
85	0.454668	0.005000	1.599902	9.814469	0.279149	-0.772191	-0.651924	0.817919	0.011662	-0.006375	-0.000211
86	0.459668	0.005000	1.530360	9.849240	0.274680	-0.769887	-0.651156	0.816327	0.009689	-0.021141	0.001720
87	0.464668	0.005000	1.451773	9.927613	0.313813	-0.767583	-0.650388	0.814734	0.012523	-0.012763	0.003888
88	0.469668	0.005000	1.412640	9.814538	0.311651	-0.765279	-0.649620	0.813141	0.015243	-0.006506	-0.002668
89	0.474668	0.005000	1.334160	9.801518	0.208923	-0.762975	-0.648852	0.811549	0.026221	-0.012546	0.002522
90	0.479668	0.005000	1.484463	9.770760	0.326531	-0.760671	-0.648084	0.809956	0.022346	0.000780	-0.004765
91	0.484668	0.005000	1.491120	9.818955	0.344205	-0.758367	-0.647317	0.808364	0.016026	-0.013403	-0.015020
92	0.489668	0.005000	1.480116	9.803771	0.414407	-0.756064	-0.646549	0.806771	0.016545	-0.014001	-0.002516
93	0.494668	0.005000	1.504371	9.822737	0.327686	-0.753760	-0.645781	0.805178	0.023380	-0.014777	-0.004198
94	0.499668	0.005000	1.458708	9.864596	0.274680	-0.751456	-0.645013	0.803586	0.023802	-0.015010	-0.001338
95	0.504668	0.005000	1.494824	9.906248	0.317624	-0.749152	-0.644245	0.801993	0.010835	-0.008902	-0.001658
96	0.509668	0.005000	1.511058	9.889751	0.412338	-0.746848	-0.643477	0.800400	0.017694	-0.013295	0.003227
97	0.514668	0.005000	1.474003	9.832123	0.414523	-0.746433	-0.643038	0.799725	0.029790	-0.011501	-0.005908
98	0.519668	0.005000	1.506111	9.770760	0.353160	-0.746653	-0.642708	0.799357	0.017141	-0.014410	-0.002856
99	0.524668	0.005000	1.465593	9.888480	0.222676	-0.746872	-0.642379	0.798990	0.016147	-0.016200	0.010283
100	0.529668	0.005000	1.512510	9.859935	0.178350	-0.747091	-0.642050	0.798622	0.014200	-0.008817	0.001053
101	0.534668	0.005000	1.521955	9.866051	0.266275	-0.747311	-0.641721	0.798255	0.014198	-0.019485	-0.004558
102	0.539668	0.005000	1.556833	9.888480	0.241824	-0.747530	-0.641392	0.797887	0.009891	-0.014242	-0.004711
103	0.544668	0.005000	1.499231	9.849240	0.361271	-0.747750	-0.641063	0.797520	0.018363	-0.015247	-0.002186
104	0.549668	0.005000	1.608840	9.888480	0.274680	-0.747969	-0.640734	0.797152	0.013432	-0.006503	-0.002859
105	0.554668	0.005000	1.569906	9.849546	0.391482	-0.748189	-0.640404	0.796785	0.013318	-0.015348	-0.010793
106	0.559668	0.005000	1.527651	9.880353	0.389691	-0.748408	-0.640075	0.796417	0.018157	-0.013923	0.002602
107	0.564668	0.005000	1.495772	9.819305	0.175570	-0.748627	-0.639746	0.796050	0.007668	-0.011813	-0.001200
108	0.569668	0.005000	1.451880	9.777818	0.267622	-0.748847	-0.639417	0.795682	0.003293	-0.016498	0.000142
109	0.574668	0.005000	1.442878	9.870475	0.383398	-0.749066	-0.639088	0.795315	0.006290	-0.008089	0.000631
110	0.579668	0.005000	1.518943	9.849240	0.258274	-0.749222	-0.638790	0.795035	0.018045	-0.022126	-0.004655
111	0.584668	0.005000	1.438220	9.874820	0.211600	-0.749003	-0.638680	0.795280	0.006306	-0.023272	-0.002221
112	0.589668	0.005000	1.499188	9.872711	0.235440	-0.748784	-0.638571	0.795525	0.007599	-0.010348	-0.001564
113	0.594668	0.005000	1.469851	9.810000	0.295949	-0.748564	-0.638461	0.795770	0.003826	-0.023203	-0.000522
114	0.599668	0.005000	1.430745	9.888480	0.254555	-0.748345	-0.638351	0.796015	0.006029	-0.010295	0.000489
115	0.604668	0.005000	1.485287	9.804167	0.358993	-0.748125	-0.638242	0.796260	0.013156	-0.018223	0.000244
116	0.609668	0.005000	1.491120	9.873721	0.392400	-0.747906	-0.638132	0.796505	0.001211	-0.017698	0.000515
117	0.614668	0.005000	1.503470	9.927720	0.313920	-0.747687	-0.638022	0.796750	0.006080	-0.015682	-0.007834
118	0.619668	0.005000	1.530360	9.956673	0.441927	-0.747467	-0.637912	0.796995	0.010830	-0.014379	-0.004699
119	0.624668	0.005000	1.530360	9.911736	0.486144	-0.747248	-0.637803	0.797240	0.011310	-0.016160	-0.001749
120	0.629668	0.005000	1.536350	9.849240	0.401688	-0.747028	-0.637693	0.797485	0.013451	-0.025950	-0.002554
121	0.634668	0.005000	1.534004	9.813644	0.235440	-0.746809	-0.637583	0.797730	0.012769	-0.020298	0.001292
122	0.639668	0.005000	1.571279	9.929399	0.230403	-0.746590	-0.637473	0.797975	0.018538	-0.017629	-0.001261
123	0.644668	0.005000	1.647376	9.928424	0.271863	-0.746370	-0.637364	0.798220	0.017660	-0.017798	0.002695
124	0.649668	0.005000	1.566514	9.888480	0.386228	-0.746210	-0.637372	0.798663	0.009059	-0.016472	0.001107
125	0.654668	0.005000	1.535426	9.893546	0.431640	-0.746100	-0.637482	0.799275	0.013579	-0.016053	0.000581
126	0.659668	0.005000	1.506063	9.888480	0.399871	-0.745990	-0.637592	0.799888	0.018585	-0.010447	-0.001191
127	0.664668	0.005000	1.541353	9.789592	0.382984	-0.745881	-0.637701	0.800500	0.022789	-0.021442	-0.001241
128	0.669668	0.005000	1.557770	9.861070	0.364990	-0.745771	-0.637811	0.801112	0.027139	-0.008733	-0.001493
129	0.674668	0.005000	1.477052	9.838137	0.456812	-0.745661	-0.637921	0.801725	0.028395	-0.017890	-0.007156
130	0.679668	0.005000	1.507303	9.833057	0.431640	-0.745552	-0.638030	0.802337	0.031292	-0.017219	-0.001054
131	0.684668	0.005000	1.429184	9.890531	0.351109	-0.745442	-0.638140	0.802949	0.021935	-0.010064	-0.002114
132	0.689668	0.005000	1.488851	9.925451	0.373915	-0.745332	-0.638250	0.803561	0.031629	-0.009660	0.006942
133	0.694668	0.005000	1.562940	9.934380	0.316890	-0.745223	-0.638359	0.804174	0.019040	-0.007773	-0.003325
134	0.699668	0.005000	1.581067	9.874594	0.403867	-0.745113	-0.638469	0.804786	0.019914	-0.009446	-0.006897
135	0.704668	0.005000	1.542302	9.849240	0.392400	-0.745003	-0.638579	0.805398	0.018860	-0.008224	0.007246
136	0.709668	0.005000	1.511291	9.810000	0.353160	-0.744894	-0.638688	0.806011	0.020826	-0.005268	-0.000993
137	0.714668	0.005000	1.420231	9.785942	0.377218	-0.744784	-0.638798	0.806623	0.022601	-0.007330	0.005397
138	0.719668	0.005000	1.540710	9.927720	0.240615	-0.744674	-0.638908	0.806326	0.010542	-0.009894	0.004269
139	0.724668	0.005000	1.608840	9.885288	0.271488	-0.744565	-0.639018	0.805958	0.027051	-0.011226	-0.001869
140	0.729668	0.005000	1.608014	9.810000	0.158613	-0.744455	-0.639127	0.805591	0.023929	-0.010648	-0.008678
141	0.734668	0.005000	1.569600	9.772333	0.273107	-0.744345	-0.639237	0.805223	0.025622	-0.011950	-0.008962
142	0.739668	0.005000	1.498191	9.842169	0.342554	-0.744236	-0.639347	0.804856	0.023213	-0.016873	-0.001892
143	0.744668	0.005000	1.485251	9.894349	0.319789	-0.744126	-0.639457	0.804488	0.022534	-0.004549	-0.009174
144	0.749668	0.005000	1.522475	9.817885	0.282565	-0.744016	-0.639566	0.804121	0.021846	-0.011621	-0.004569
145	0.754668	0.005000	1.540660	9.799700	0.322261	-0.743907	-0.639676	0.803753	0.013511	-0.011474	0.002861
146	0.759668	0.005000	1.583729	9.902609	0.247996	-0.743797	-0.639786	0.803386	0.021293	-0.015904	-0.000371
147	0.764668	0.005000	1.584252	9.888480	0.274680	-0.743687	-0.639896	0.803018	0.015941	-0.009337	0.000331
148	0.769668	0.005000	1.513304	9.922591	0.235440	-0.743578	-0.640005	0.802651	0.022166	-0.008147	-0.001482
149	0.774668	0.005000	1.529604	9.810000	0.333162	-0.743468	-0.640115	0.802283	0.023999	-0.012519	0.008324
150	0.779668	0.005000	1.473291	9.792171	0.221192	-0.743358	-0.640225	0.801916	0.015889	-0.005520	-0.004786
151	0.784668	0.005000	1.444044	9.825702	0.251112	-0.743213	-0.640122	0.801429	0.032361	-0.015624	0.003978
152	0.789668	0.005000	1.491120	9.849240	0.248913	-0.742994	-0.639573	0.800694	0.004735	-0.005880	0.002646
153	0.794668	0.005000	1.463271	9.793542	0.291138	-0.742774	-0.639024	0.799958	0.009679	-0.014297	-0.005265
154	0.799668	0.005000	1.500241	9.858361	0.138717	-0.742554	-0.638475	0.799223	0.017168	-0.014187	-0.010174
155	0.804668	0.005000	1.530360	9.881385	0.196200	-0.742335	-0.637926	0.798488	0.024810	-0.012166	-0.008990
156	0.809668	0.005000	1.574361	9.922959	0.269919	-0.742115	-0.637377	0.797752	0.022026	-0.016996	0.004923
157	0.814668	0.005000	1.488763	9.846883	0.122434	-0.741896	-0.636829	0.797017	0.006855	-0.005803	-0.000857
158	0.819668	0.005000	1.569192	9.850057	0.235440	-0.741676	-0.636280	0.796282	0.003910	-0.015638	-0.003964
159	0.824668	0.005000	1.493125	9.890485	0.272675	-0.741457	-0.635731	0.795546	0.005905	-0.015036	0.003720
160	0.829668	0.005000	1.561703	9.849240	0.286525	-0.741237	-0.635182	0.794811	-0.000685	-0.011501	-0.005863
161	0.834668	0.005000	1.563246	9.822707	0.320274	-0.741018	-0.634633	0.794075	0.014156	-0.016221	-0.006680
162	0.839668	0.005000	1.560947	9.810000	0.283333	-0.740798	-0.634085	0.793340	0.023061	-0.007247	-0.002103
163	0.844668	0.005000	1.491120	9.877778	0.353160	-0.740579	-0.633536	0.792605	0.021848	-0.014918	-0.003473
164	0.849668	0.005000	1.556484	9.783876	0.418524	-0.740359	-0.632987	0.791869	0.012924	-0.008331	-0.002288
165	0.854668	0.005000	1.506459	9.779322	0.290019	-0.740538	-0.633154	0.792022	0.024328	-0.012904	-0.006918
166	0.859668	0.005000	1.447578	9.836073	0.235440	-0.740867	-0.633593	0.792512	0.022402	-0.011229	-0.001728
167	0.864668	0.005000	1.471760	9.908360	0.235440	-0.741196	-0.634032	0.793002	0.013652	-0.003718	-0.008712
168	0.869668	0.005000	1.508335	9.944935	0.313920	-0.741525	-0.634471	0.793492	0.002280	-0.013084	0.005974
169	0.874668	0.005000	1.545364	9.942724	0.250444	-0.741854	-0.634909	0.793982	0.014149	-0.002559	0.001261
170	0.879668	0.005000	1.544409	9.929174	0.248035	-0.742183	-0.635348	0.794472	0.017520	-0.007574	-0.002296
171	0.884668	0.005000	1.480468	9.813367	0.167612	-0.742512	-0.635787	0.794962	0.016771	-0.016981	-0.001888
172	0.889668	0.005000	1.522123	9.880243	0.220911	-0.742841	-0.636226	0.795452	0.023441	-0.007296	-0.003037
173	0.894668	0.005000	1.530360	9.933937	0.280897	-0.743170	-0.636665	0.795942	0.023447	-0.004733	0.004920
174	0.899668	0.005000	1.604953	9.857015	0.463105	-0.743499	-0.637103	0.796432	0.018031	-0.001683	-0.008820
175	0.904668	0.005000	1.494060	9.888480	0.273210	-0.743828	-0.637542	0.796922	0.015159	-0.012282	-0.003713
176	0.909668	0.005000	1.530819	9.927261	0.157879	-0.744157	-0.637981	0.797412	0.017632	-0.013929	-0.003772
177	0.914668	0.005000	1.527483	9.966960	0.268926	-0.744486	-0.638420	0.797902	0.003350	-0.012769	0.004828
178	0.919668	0.005000	1.535579	9.854459	0.256316	-0.744750	-0.638806	0.798348	0.009120	-0.006595	-0.000027
179	0.924668	0.005000	1.601614	9.881254	0.235440	-0.744530	-0.638806	0.798470	0.007504	-0.012578	0.002332
180	0.929668	0.005000	1.687320	9.858770	0.382870	-0.744311	-0.638806	0.798593	0.010479	-0.015011	0.005103
181	0.934668	0.005000	1.624909	9.876895	0.353160	-0.744091	-0.638806	0.798715	0.010225	-0.011376	0.001951
182	0.939668	0.005000	1.608840	9.860493	0.327914	-0.743872	-0.638806	0.798838	0.013439	-0.008593	-0.004551
183	0.944668	0.005000	1.514144	9.950744	0.297704	-0.743652	-0.638806	0.798961	0.012975	-0.004814	0.004422
184	0.949668	0.005000	1.527820	9.885940	0.293030	-0.743433	-0.638806	0.799083	0.017754	-0.005212	-0.000996
185	0.954668	0.005000	1.470607	9.849240	0.334433	-0.743213	-0.638806	0.799206	0.020795	-0.009873	-0.003418
186	0.959668	0.005000	1.546895	9.894650	0.285045	-0.742994	-0.638806	0.799328	0.015617	-0.006189	-0.000651
187	0.964668	0.005000	1.516234	9.813137	0.257417	-0.742774	-0.638806	0.799451	0.015845	-0.004538	-0.006344
188	0.969668	0.005000	1.464062	9.797818	0.311226	-0.742555	-0.638806	0.799574	0.013676	-0.008783	-0.003551
189	0.974668	0.005000	1.491120	9.770592	0.343392	-0.742335	-0.638806	0.799696	0.002978	-0.005111	-0.004740
190	0.979668	0.005000	1.491120	9.833235	0.298430	-0.742116	-0.638806	0.799819	-0.001587	-0.014780	0.003938
191	0.984668	0.005000	1.485700	9.854660	0.224600	-0.741896	-0.638806	0.799941	0.007785	-0.003516	-0.014394
192	0.989668	0.005000	1.644646	9.927720	0.278114	-0.741905	-0.638520	0.800192	0.015189	-0.010750	0.001247
193	0.994668	0.005000	1.528217	9.888480	0.391329	-0.742125	-0.637971	0.800559	0.010207	-0.004858	0.002209
194	0.999668	0.005000	1.527698	9.850571	0.428978	-0.742344	-0.637423	0.800927	0.023441	-0.000129	-0.000041
195	1.004668	0.005000	1.494410	9.966960	0.428350	-0.742564	-0.636874	0.801294	0.038164	-0.004944	-0.000349
196	1.009668	0.005000	1.491120	9.849240	0.286071	-0.742783	-0.636326	0.801662	0.048056	0.004486	-0.003264
197	1.014668	0.005000	1.576770	9.935737	0.361177	-0.743002	-0.635777	0.802029	0.040358	-0.002298	-0.000145
198	1.019668	0.005000	1.618895	9.908590	0.274680	-0.743222	-0.635229	0.802397	0.005020	-0.000572	-0.005608
199	1.024668	0.005000	1.515747	9.876166	0.328533	-0.743441	-0.634680	0.802764	-0.017472	-0.005205	0.000639
200	1.029668	0.005000	1.505527	9.820426	0.235440	-0.743661	-0.634131	0.803132	-0.034764	-0.004037	0.000265
201	1.034668	0.005000	1.513541	9.849240	0.274680	-0.743880	-0.633583	0.803499	-0.038959	-0.003074	0.002142
202	1.039668	0.005000	1.569600	9.830477	0.315634	-0.744100	-0.633034	0.803867	-0.029004	-0.014297	0.007630
203	1.044668	0.005000	1.548426	9.810000	0.428532	-0.744319	-0.632486	0.804234	-0.008707	0.000338	0.001815
204	1.049668	0.005000	1.467815	9.849240	0.369095	-0.744538	-0.631937	0.804602	0.008126	-0.004945	0.002957
205	1.054668	0.005000	1.398922	9.874762	0.339442	-0.744758	-0.631389	0.804969	0.025489	-0.000778	0.001200
206	1.059668	0.005000	1.463513	9.872506	0.443273	-0.744776	-0.632047	0.804663	0.034931	-0.010403	-0.005030
207	1.064668	0.005000	1.442514	9.877339	0.431640	-0.744776	-0.632815	0.804296	0.037464	-0.009584	0.004736
208	1.069668	0.005000	1.491120	9.992298	0.477831	-0.744776	-0.633583	0.803928	0.027015	-0.007505	-0.000667
209	1.074668	0.005000	1.525354	10.006200	0.549360	-0.744776	-0.634351	0.803561	0.029860	-0.012595	0.009254
210	1.079668	0.005000	1.449278	9.966960	0.429038	-0.744776	-0.635119	0.803193	0.024120	-0.006908	0.014012
211	1.084668	0.005000	1.530360	9.929021	0.429689	-0.744776	-0.635887	0.802825	0.032868	-0.011572	0.006176
212	1.089668	0.005000	1.492880	9.968720	0.276440	-0.744776	-0.636655	0.802458	0.015079	-0.008086	0.004967
213	1.094668	0.005000	1.522953	9.892184	0.270976	-0.744776	-0.637423	0.802090	0.005300	-0.010986	0.008974
214	1.099668	0.005000	1.518142	9.849240	0.235440	-0.744776	-0.638191	0.801723	0.004926	-0.023316	0.002385
215	1.104668	0.005000	1.561174	9.826852	0.291532	-0.744776	-0.638959	0.801355	-0.014166	-0.015517	0.007226
216	1.109668	0.005000	1.470184	9.799532	0.303452	-0.744776	-0.639727	0.800988	-0.017751	-0.024471	0.010614
217	1.114668	0.005000	1.517638	9.783482	0.274680	-0.744776	-0.640495	0.800620	-0.016951	-0.013500	0.007178
218	1.119668	0.005000	1.442281	9.712321	0.313920	-0.744776	-0.641263	0.800253	-0.006941	-0.021271	-0.004387
219	1.124668	0.005000	1.535152	9.753536	0.313920	-0.745289	-0.641894	0.800573	-0.001435	-0.025854	0.013099
220	1.129668	0.005000	1.471288	9.850087	0.451472	-0.746935	-0.642223	0.802411	0.013682	-0.012474	0.007282
221	1.134668	0.005000	1.491120	9.888480	0.331581	-0.748581	-0.642552	0.804249	0.022715	-0.019355	-0.000127
222	1.139668	0.005000	1.506656	9.880311	0.313920	-0.750226	-0.642881	0.806086	0.018391	-0.013652	0.004832
223	1.144668	0.005000	1.582231	9.875175	0.313920	-0.751872	-0.643210	0.807924	0.006523	-0.025778	0.001860
224	1.149668	0.005000	1.491120	9.877583	0.392400	-0.753517	-0.643539	0.809761	0.003772	-0.019003	0.000067
225	1.154668	0.005000	1.530360	9.936569	0.413941	-0.755163	-0.643869	0.811599	0.001010	-0.020292	-0.000996
226	1.159668	0.005000	1.497657	9.947348	0.281217	-0.756809	-0.644198	0.813436	-0.000298	-0.021979	0.001384
227	1.164668	0.005000	1.530360	9.918644	0.383324	-0.758454	-0.644527	0.815274	0.008435	-0.019287	-0.012262
228	1.169668	0.005000	1.563034	9.886291	0.279057	-0.760100	-0.644856	0.817112	0.000796	-0.028798	0.002935
229	1.174668	0.005000	1.491362	9.849240	0.274922	-0.761745	-0.645185	0.818949	-0.007242	-0.019662	0.002868
230	1.179668	0.005000	1.493293	9.775106	0.313920	-0.763391	-0.645514	0.820787	0.005997	-0.028250	-0.000007
231	1.184668	0.005000	1.491120	9.783110	0.309803	-0.765037	-0.645843	0.822624	0.009768	-0.018433	0.001433
232	1.189668	0.005000	1.478076	9.836196	0.300876	-0.766682	-0.646173	0.824462	0.010317	-0.012757	0.006288
233	1.194668	0.005000	1.339016	9.827638	0.331558	-0.766388	-0.645959	0.823787	0.020314	-0.015541	-0.001583
234	1.199668	0.005000	1.486879	9.905980	0.324790	-0.765290	-0.645520	0.822071	0.024982	-0.009989	0.011714
235	1.204668	0.005000	1.465010	9.953830	0.274680	-0.764193	-0.645080	0.820355	0.029777	-0.014705	0.002446
236	1.209668	0.005000	1.569600	9.912492	0.401185	-0.763095	-0.644641	0.818639	0.024740	-0.017402	0.012748
237	1.214668	0.005000	1.473693	9.871053	0.374973	-0.761998	-0.644202	0.816923	0.019708	-0.012967	0.004226
238	1.219668	0.005000	1.510778	9.849240	0.313920	-0.760900	-0.643763	0.815207	0.026560	-0.023320	-0.003295
239	1.224668	0.005000	1.439376	9.893224	0.392400	-0.759803	-0.643324	0.813492	0.015957	-0.011690	0.000620
240	1.229668	0.005000	1.433909	9.849240	0.407527	-0.758705	-0.642885	0.811776	0.018967	-0.018199	0.011259
241	1.234668	0.005000	1.425531	9.888480	0.418182	-0.757608	-0.642446	0.810060	0.020410	-0.016575	0.014658
242	1.239668	0.005000	1.480637	9.877997	0.460397	-0.756510	-0.642007	0.808344	0.029313	-0.013155	0.004367
243	1.244668	0.005000	1.421180	9.949880	0.462340	-0.755412	-0.641568	0.806628	0.028111	-0.018276	0.005196
244	1.249668	0.005000	1.491120	9.888480	0.419392	-0.754315	-0.641129	0.804912	0.021429	-0.015030	0.004820
245	1.254668	0.005000	1.530360	9.896739	0.322179	-0.753217	-0.640690	0.803196	0.027139	-0.014883	0.008823
246	1.259668	0.005000	1.532136	9.927720	0.313920	-0.752203	-0.640311	0.801587	0.019024	-0.007591	-0.002463
247	1.264668	0.005000	1.530528	9.966792	0.352992	-0.751874	-0.640421	0.800852	0.032643	-0.009173	-0.000814
248	1.269668	0.005000	1.569600	9.778476	0.277252	-0.751545	-0.640530	0.800117	0.037939	-0.002051	-0.001035
249	1.274668	0.005000	1.382433	9.696797	0.209750	-0.751216	-0.640640	0.799382	0.024222	-0.019476	-0.002742
250	1.279668	0.005000	1.516494	9.803067	0.228507	-0.750887	-0.640750	0.798647	0.007173	-0.019838	0.007373
251	1.284668	0.005000	1.511905	9.770760	0.226212	-0.750557	-0.640859	0.797912	-0.000874	-0.016157	-0.002664
252	1.289668	0.005000	1.502404	9.905153	0.263396	-0.750228	-0.640969	0.797177	0.004536	-0.022212	-0.005803
253	1.294668	0.005000	1.438341	9.823539	0.353160	-0.749899	-0.641079	0.796442	0.035195	-0.018613	-0.004115
254	1.299668	0.005000	1.467521	9.888480	0.439323	-0.749570	-0.641188	0.795707	0.060655	-0.015956	0.000652
255	1.304668	0.005000	1.512309	9.813139	0.516397	-0.749241	-0.641298	0.794972	0.093803	-0.015097	0.008762
256	1.309668	0.005000	1.568850	9.848490	0.588600	-0.748912	-0.641408	0.794237	0.098462	-0.014042	0.008185
257	1.314668	0.005000	1.569600	9.871645	0.498856	-0.748583	-0.641517	0.793502	0.106293	-0.013477	0.002179
258	1.319668	0.005000	1.506011	9.912829	0.323378	-0.748253	-0.641627	0.792767	0.092751	-0.010505	-0.008922
259	1.324668	0.005000	1.569600	9.874196	0.237247	-0.747924	-0.641737	0.792032	0.079390	-0.014502	0.005950
260	1.329668	0.005000	1.530360	9.899025	0.096631	-0.747540	-0.641680	0.791914	0.045245	-0.005986	0.004620
261	1.334668	0.005000	1.505971	9.919590	0.055499	-0.747101	-0.641461	0.792404	0.035689	-0.003039	0.008214
262	1.339668	0.005000	1.445769	9.776871	0.090703	-0.746662	-0.641242	0.792894	0.025674	-0.000988	0.009882
263	1.344668	0.005000	1.483560	9.810000	0.082260	-0.746223	-0.641022	0.793384	0.023169	0.008292	-0.002036
264	1.349668	0.005000	1.453695	9.849240	0.078480	-0.745785	-0.640803	0.793874	0.032512	-0.002058	0.005240
265	1.354668	0.005000	1.491120	9.926557	0.039822	-0.745346	-0.640583	0.794364	0.034248	-0.009953	0.002699
266	1.359668	0.005000	1.491120	9.852190	0.142211	-0.744907	-0.640364	0.794854	0.028895	-0.003978	-0.005185
267	1.364668	0.005000	1.496050	9.888480	0.073550	-0.744468	-0.640145	0.795344	0.030848	-0.001092	0.003448
268	1.369668	0.005000	1.451880	9.881219	0.014522	-0.744029	-0.639925	0.795834	0.029743	-0.001399	-0.003111
269	1.374668	0.005000	1.442590	9.849240	0.138381	-0.743590	-0.639706	0.796324	0.030123	-0.002863	0.004888
270	1.379668	0.005000	1.502817	9.876783	0.156960	-0.743152	-0.639486	0.796814	0.018784	0.003019	-0.009761
271	1.384668	0.005000	1.544001	9.835599	0.182559	-0.742713	-0.639267	0.797304	0.030728	0.006860	-0.000710
272	1.389668	0.005000	1.491120	9.911666	0.219386	-0.742274	-0.639048	0.797794	0.016339	-0.002488	0.008978
273	1.394668	0.005000	1.648080	9.906944	0.274680	-0.741835	-0.638828	0.798284	0.014091	-0.003426	-0.008346
274	1.399668	0.005000	1.610853	9.888480	0.274680	-0.741890	-0.638412	0.798333	0.022424	-0.011071	-0.005719
275	1.404668	0.005000	1.586028	9.872052	0.313920	-0.741999	-0.637973	0.798333	0.008437	-0.011572	-0.003191
276	1.409668	0.005000	1.583910	9.863550	0.299610	-0.742109	-0.637534	0.798333	0.014919	-0.015084	0.002843
277	1.414668	0.005000	1.596905	10.018135	0.211569	-0.742219	-0.637096	0.798333	0.008330	-0.010256	-0.003085
278	1.419668	0.005000	1.540618	9.858901	0.097801	-0.742328	-0.636657	0.798333	0.007567	-0.017986	-0.006789
279	1.424668	0.005000	1.506368	9.896104	0.243064	-0.742438	-0.636218	0.798333	-0.001676	-0.017074	-0.004995
280	1.429668	0.005000	1.642769	9.927720	0.313920	-0.742548	-0.635780	0.798333	0.001220	-0.012234	-0.018035
281	1.434668	0.005000	1.641424	9.888480	0.317248	-0.742657	-0.635341	0.798333	0.001338	-0.012141	-0.008247
282	1.439668	0.005000	1.492069	9.889429	0.313920	-0.742767	-0.634903	0.798333	0.005729	-0.009255	-0.009780
283	1.444668	0.005000	1.568163	9.889917	0.313920	-0.742877	-0.634464	0.798333	0.009223	-0.007399	-0.004082
284	1.449668	0.005000	1.491120	9.963561	0.310521	-0.742987	-0.634025	0.798333	0.002368	-0.009699	-0.003357
285	1.454668	0.005000	1.608840	9.894296	0.168591	-0.743096	-0.633587	0.798333	-0.011575	-0.011508	-0.015333
286	1.459668	0.005000	1.546607	9.818123	0.032493	-0.743206	-0.633148	0.798333	-0.053243	-0.008825	-0.002476
287	1.464668	0.005000	1.462046	9.799834	-0.058148	-0.743252	-0.632994	0.798262	-0.090213	-0.013400	-0.003968
288	1.469668	0.005000	1.515989	9.704715	-0.090915	-0.743143	-0.633543	0.798017	-0.126975	-0.018752	-0.001160
289	1.474668	0.005000	1.437366	9.770760	-0.029028	-0.743033	-0.634091	0.797772	-0.135919	-0.007929	0.001648
290	1.479668	0.005000	1.496507	9.849240	0.184661	-0.742923	-0.634640	0.797527	-0.103728	-0.015350	-0.001221
291	1.484668	0.005000	1.510226	9.810000	0.314949	-0.742813	-0.635188	0.797282	-0.054049	-0.019779	0.013468
292	1.489668	0.005000	1.512401	9.867199	0.485517	-0.742704	-0.635737	0.797037	-0.005685	-0.017366	0.004633
293	1.494668	0.005000	1.428189	9.974367	0.525669	-0.742594	-0.636286	0.796792	0.025843	-0.032925	-0.002180
294	1.499668	0.005000	1.518331	10.045440	0.550936	-0.742484	-0.636834	0.796547	0.023608	-0.022286	-0.005826
295	1.504668	0.005000	1.541552	9.978152	0.442832	-0.742374	-0.637383	0.796302	0.027950	-0.038848	-0.001037
296	1.509668	0.005000	1.470154	10.036303	0.540223	-0.742265	-0.637931	0.796057	0.018018	-0.025083	-0.001644
297	1.514668	0.005000	1.509837	10.013041	0.510120	-0.742155	-0.638480	0.795812	0.003776	-0.029305	0.008230
298	1.519668	0.005000	1.525935	10.010625	0.422791	-0.742045	-0.639028	0.795567	-0.010805	-0.023284	0.010214
299	1.524668	0.005000	1.488669	10.003749	0.431640	-0.741935	-0.639577	0.795323	-0.013051	-0.014125	0.005342
300	1.529668	0.005000	1.569294	9.966730	0.274527	-0.741826	-0.640125	0.795078	-0.002789	-0.020476	0.012523
301	1.534668	0.005000	1.412640	9.886166	0.196200	-0.741866	-0.640224	0.795754	-0.001847	-0.028719	0.004420
302	1.539668	0.005000	1.451880	9.818570	0.305350	-0.741976	-0.640114	0.796857	0.010249	-0.021192	0.004427
303	1.544668	0.005000	1.412640	9.875099	0.353160	-0.742086	-0.640004	0.797960	0.025586	-0.015979	0.012016
304	1.549668	0.005000	1.451880	9.827971	0.443923	-0.742195	-0.639895	0.799063	0.029077	-0.009062	0.010589
305	1.554668	0.005000	1.480081	9.871317	0.392400	-0.742305	-0.639785	0.800166	0.024118	-0.004265	0.006984
306	1.559668	0.005000	1.529710	9.784057	0.418343	-0.742415	-0.639675	0.801269	0.019780	-0.003621	0.001487
307	1.564668	0.005000	1.530360	9.896928	0.447036	-0.742525	-0.639565	0.802372	0.036394	-0.001809	0.006858
308	1.569668	0.005000	1.508926	9.888480	0.453074	-0.742635	-0.639455	0.803475	0.031342	0.004470	0.001260
309	1.574668	0.005000	1.412380	9.868730	0.313660	-0.742744	-0.639346	0.804578	0.010285	0.003325	0.000258
310	1.579668	0.005000	1.547440	9.854321	0.291760	-0.742854	-0.639236	0.805682	0.011276	-0.003159	0.003448
311	1.584668	0.005000	1.599872	9.879512	0.344192	-0.742964	-0.639126	0.806785	0.014277	0.008091	0.000490
312	1.589668	0.005000	1.608840	9.913926	0.209994	-0.743074	-0.639016	0.807888	0.020529	0.006400	0.009979
313	1.594668	0.005000	1.697970	9.956310	0.188909	-0.743184	-0.638906	0.808991	0.010095	0.006908	0.005795
314	1.599668	0.005000	1.788297	9.835114	0.414897	-0.743303	-0.638955	0.809948	0.017280	-0.001440	0.003651
315	1.604668	0.005000	1.608840	9.927720	0.425287	-0.743522	-0.640711	0.809335	0.016350	-0.004654	0.008462
316	1.609668	0.005000	1.569600	9.892491	0.345137	-0.743741	-0.642466	0.808723	0.016496	0.002156	0.007284
317	1.614668	0.005000	1.530360	9.962845	0.276737	-0.743961	-0.644221	0.808110	0.020084	-0.004731	0.004962
318	1.619668	0.005000	1.608167	9.849577	0.158307	-0.744180	-0.645977	0.807498	0.027270	0.003149	-0.000486
319	1.624668	0.005000	1.495681	9.923159	0.297958	-0.744400	-0.647732	0.806885	0.032214	-0.011397	0.008103
320	1.629668	0.005000	1.564915	9.893165	0.235440	-0.744619	-0.649487	0.806273	0.035463	-0.007972	0.003439
321	1.634668	0.005000	1.498139	9.863278	0.274680	-0.744839	-0.651243	0.805660	0.038882	-0.004040	0.002814
322	1.639668	0.005000	1.491120	9.918675	0.353160	-0.745058	-0.652998	0.805048	0.038877	0.000480	-0.000350
323	1.644668	0.005000	1.535655	9.939035	0.330530	-0.745277	-0.654753	0.804435	0.027982	-0.004158	0.001873
324	1.649668	0.005000	1.595444	9.901876	0.236389	-0.745497	-0.656509	0.803823	0.037091	-0.010494	0.006604
325	1.654668	0.005000	1.569600	9.849240	0.290489	-0.745716	-0.658264	0.803210	0.023615	-0.015660	-0.001996
326	1.659668	0.005000	1.587353	9.888480	0.256927	-0.745936	-0.660019	0.802598	0.027972	-0.013451	0.001991
327	1.664668	0.005000	1.549436	9.869404	0.179298	-0.746155	-0.661775	0.801985	0.018464	-0.011106	0.011590
328	1.669668	0.005000	1.608840	9.871553	0.100793	-0.746111	-0.661844	0.801726	0.018170	-0.001491	0.004759
329	1.674668	0.005000	1.491120	9.888480	0.122648	-0.745782	-0.660089	0.801848	0.017220	-0.018840	0.011079
330	1.679668	0.005000	1.530360	9.849240	0.156960	-0.745453	-0.658333	0.801971	0.022696	-0.011287	0.009515
331	1.684668	0.005000	1.530360	9.791513	0.235440	-0.745123	-0.656578	0.802093	0.030489	-0.008508	0.006047
332	1.689668	0.005000	1.584956	9.880519	0.188805	-0.744794	-0.654823	0.802216	0.007450	-0.003785	0.006104
333	1.694668	0.005000	1.485175	9.894425	0.280625	-0.744465	-0.653067	0.802338	0.018157	-0.014836	0.000639
334	1.699668	0.005000	1.494732	9.856464	0.199812	-0.744136	-0.651312	0.802461	0.013557	-0.010381	0.005265
335	1.704668	0.005000	1.572898	9.888480	0.233791	-0.743807	-0.649557	0.802583	0.015037	-0.003553	-0.009400
336	1.709668	0.005000	1.532610	9.888480	0.234690	-0.743478	-0.647801	0.802705	0.019519	-0.007554	0.008306
337	1.714668	0.005000	1.527244	9.852356	0.235440	-0.743149	-0.646046	0.802828	0.019390	-0.009357	0.005507
338	1.719668	0.005000	1.383597	9.996003	0.308822	-0.742819	-0.644291	0.802950	0.026911	-0.003087	0.009067
339	1.724668	0.005000	1.505975	10.006200	0.282107	-0.742490	-0.642535	0.803073	0.034914	-0.001991	0.008320
340	1.729668	0.005000	1.491120	9.976418	0.244898	-0.742161	-0.640780	0.803195	0.025758	-0.013452	0.001680
341	1.734668	0.005000	1.639858	9.915855	0.262815	-0.741832	-0.639025	0.803318	0.031025	-0.012000	0.010996
342	1.739668	0.005000	1.508335	9.941834	0.313920	-0.741983	-0.638806	0.803440	0.018074	-0.000595	-0.004777
343	1.744668	0.005000	1.451880	9.911498	0.369382	-0.742202	-0.638806	0.803563	0.022932	-0.007368	0.002189
344	1.749668	0.005000	1.572020	9.946130	0.431640	-0.742422	-0.638806	0.803685	0.016676	-0.005529	0.000611
345	1.754668	0.005000	1.549031	9.849240	0.254111	-0.742641	-0.638806	0.803808	0.012674	-0.007941	0.009169
346	1.759668	0.005000	1.507379	9.810000	0.219181	-0.742860	-0.638806	0.803930	0.022834	-0.011628	0.012507
347	1.764668	0.005000	1.526655	9.799390	0.185590	-0.743080	-0.638806	0.804053	0.014057	-0.009237	0.009781
348	1.769668	0.005000	1.557693	9.810000	0.223533	-0.743299	-0.638806	0.804175	0.013522	-0.011355	0.002804
349	1.774668	0.005000	1.530360	9.839392	0.284377	-0.743518	-0.638806	0.804298	0.014696	-0.008933	-0.001266
350	1.779668	0.005000	1.491120	9.794904	0.203748	-0.743737	-0.638806	0.804420	0.019351	-0.002566	0.008151
351	1.784668	0.005000	1.451880	9.775902	0.230298	-0.743957	-0.638806	0.804543	0.016513	-0.002127	-0.003140
352	1.789668	0.005000	1.491120	9.773922	0.271518	-0.744176	-0.638806	0.804665	0.022629	-0.005112	-0.000199
353	1.794668	0.005000	1.528798	9.809219	0.312358	-0.744395	-0.638806	0.804787	0.024049	-0.009096	0.001314
354	1.799668	0.005000	1.451880	9.808397	0.197803	-0.744615	-0.638806	0.804910	0.016867	-0.012067	0.006278
355	1.804668	0.005000	1.612407	9.956258	0.267545	-0.744805	-0.638777	0.804903	0.014309	-0.009671	0.001462
356	1.809668	0.005000	1.569600	9.815915	0.241355	-0.744915	-0.638667	0.804535	0.019688	-0.007006	0.002658
357	1.814668	0.005000	1.569600	9.778688	0.212055	-0.745025	-0.638557	0.804167	0.020702	-0.006916	-0.003541
358	1.819668	0.005000	1.501454	9.791429	0.225106	-0.745134	-0.638448	0.803800	0.008817	-0.007660	0.007306
359	1.824668	0.005000	1.478534	9.875894	0.222854	-0.745244	-0.638338	0.803432	0.003116	-0.009051	-0.008376
360	1.829668	0.005000	1.530360	9.898355	0.250122	-0.745354	-0.638228	0.803064	0.017898	-0.011561	-0.000992
361	1.834668	0.005000	1.530360	9.927720	0.240490	-0.745464	-0.638118	0.802697	0.001932	-0.007334	0.002583
362	1.839668	0.005000	1.549398	9.927720	0.275843	-0.745574	-0.638008	0.802329	0.007431	-0.012305	-0.004352
363	1.844668	0.005000	1.534019	9.909930	0.292470	-0.745683	-0.637899	0.801961	0.002396	-0.010755	0.003248
364	1.849668	0.005000	1.530360	9.833583	0.290337	-0.745793	-0.637789	0.801594	0.009700	-0.000941	-0.000289
365	1.854668	0.005000	1.490049	9.861606	0.287046	-0.745903	-0.637679	0.801226	0.008914	-0.013032	0.002540
366	1.859668	0.005000	1.495973	9.849240	0.263657	-0.746013	-0.637569	0.800858	0.007716	-0.003520	-0.006943
367	1.864668	0.005000	1.639001	9.927720	0.214358	-0.746123	-0.637459	0.800490	-0.000277	-0.002730	-0.003906
368	1.869668	0.005000	1.556255	9.927720	0.300575	-0.746232	-0.637350	0.800123	0.003053	-0.000717	0.000808
369	1.874668	0.005000	1.495794	9.883806	0.279354	-0.747219	-0.637751	0.800979	0.020346	-0.003023	0.004768
370	1.879668	0.005000	1.456504	9.814624	0.350848	-0.748645	-0.638410	0.802449	0.011136	-0.007032	0.003778
371	1.884668	0.005000	1.569963	9.887391	0.274680	-0.750071	-0.639068	0.803919	-0.000604	0.005883	-0.005189
372	1.889668	0.005000	1.534433	9.733556	0.274680	-0.751497	-0.639726	0.805389	0.001568	-0.005625	0.005468
373	1.894668	0.005000	1.604859	9.880519	0.282641	-0.752924	-0.640385	0.806859	-0.003711	0.000398	-0.001591
374	1.899668	0.005000	1.680936	9.882096	0.307536	-0.754350	-0.641043	0.808329	-0.003111	-0.003579	-0.013239
375	1.904668	0.005000	1.608840	9.857938	0.344462	-0.755776	-0.641701	0.809799	0.005014	-0.000174	0.001135
376	1.909668	0.005000	1.484111	9.849240	0.353160	-0.757202	-0.642360	0.811270	-0.001724	-0.005841	0.007646
377	1.914668	0.005000	1.530617	9.849240	0.405394	-0.758628	-0.643018	0.812740	0.008833	-0.009960	0.010741
378	1.919668	0.005000	1.569600	9.921672	0.353160	-0.760055	-0.643676	0.814210	-0.003996	-0.010368	-0.003787
379	1.924668	0.005000	1.547666	9.927720	0.475509	-0.761481	-0.644334	0.815680	-0.003636	-0.004640	-0.007304
380	1.929668	0.005000	1.491120	9.888143	0.451092	-0.762907	-0.644993	0.817150	0.003950	-0.003754	0.007843
381	1.934668	0.005000	1.508758	9.870842	0.392400	-0.764333	-0.645651	0.818620	0.017880	-0.005645	0.007668
382	1.939668	0.005000	1.506553	9.849240	0.274680	-0.765638	-0.646303	0.819933	0.001919	-0.012980	0.009149
383	1.944668	0.005000	1.543552	9.823192	0.274680	-0.765090	-0.646851	0.818830	0.006455	-0.004165	0.000775
384	1.949668	0.005000	1.474040	9.855239	0.296840	-0.764542	-0.647399	0.817728	0.015623	-0.011339	0.007322
385	1.954668	0.005000	1.469211	9.827331	0.292011	-0.763993	-0.647947	0.816626	0.014152	0.001014	0.002834
386	1.959668	0.005000	1.523639	9.842519	0.307199	-0.763445	-0.648496	0.815524	0.022954	-0.000451	0.007941
387	1.964668	0.005000	1.491120	9.810000	0.309603	-0.762897	-0.649044	0.814422	0.005933	-0.006634	0.006077
388	1.969668	0.005000	1.454225	9.814689	0.350815	-0.762349	-0.649592	0.813320	0.009899	-0.007986	0.004611
389	1.974668	0.005000	1.412701	9.849271	0.313920	-0.761800	-0.650140	0.812218	0.024787	-0.014571	0.011161
390	1.979668	0.005000	1.487170	9.851215	0.313920	-0.761252	-0.650688	0.811116	0.022428	-0.000071	0.005498
391	1.984668	0.005000	1.451880	9.844848	0.231048	-0.760704	-0.651237	0.810014	0.031134	-0.006760	0.011596
392	1.989668	0.005000	1.451880	9.810000	0.124056	-0.760155	-0.651785	0.808912	0.029056	-0.009213	0.004941
393	1.994668	0.005000	1.552116	9.770760	0.239712	-0.759607	-0.652333	0.807810	0.029847	-0.009316	-0.001893
394	1.999668	0.005000	1.541388	9.860268	0.201071	-0.759059	-0.652881	0.806708	0.030995	-0.010666	0.002993
395	2.004668	0.005000	1.556500	9.875380	0.196200	-0.758510	-0.653430	0.805606	0.028700	-0.004775	-0.002240
396	2.009668	0.005000	1.547545	9.897072	0.267948	-0.757665	-0.652989	0.804669	0.029147	-0.007777	-0.004980
397	2.014668	0.005000	1.530360	9.905934	0.217986	-0.756458	-0.651343	0.803933	0.025128	-0.006024	-0.000160
398	2.019668	0.005000	1.628445	9.868845	0.333555	-0.755251	-0.649697	0.803198	0.035007	-0.005374	0.007490
399	2.024668	0.005000	1.504174	9.888480	0.274680	-0.754043	-0.648050	0.802463	0.024892	-0.007177	0.002411
400	2.029668	0.005000	1.623859	9.888480	0.323121	-0.752836	-0.646404	0.801727	0.029943	-0.008587	0.001041
401	2.034668	0.005000	1.556515	9.875395	0.287750	-0.751629	-0.644758	0.800992	0.031096	-0.002244	0.002088
402	2.039668	0.005000	1.541031	9.788658	0.224769	-0.750421	-0.643111	0.800257	0.022554	0.001093	-0.006847
403	2.044668	0.005000	1.582660	9.757700	0.165687	-0.749214	-0.641465	0.799521	0.033157	-0.002082	-0.006564
404	2.049668	0.005000	1.464521	9.816321	0.274680	-0.748007	-0.639819	0.798786	0.022063	-0.007102	-0.005382
405	2.054668	0.005000	1.495446	9.888480	0.283333	-0.746799	-0.638172	0.798050	0.027058	-0.013319	-0.004975
406	2.059668	0.005000	1.569600	9.808040	0.268801	-0.745592	-0.636526	0.797315	0.020579	-0.008371	0.002005
407	2.064668	0.005000	1.608855	9.927735	0.078495	-0.744385	-0.634880	0.796580	0.012944	0.001335	-0.012070
408	2.069668	0.005000	1.611228	9.893257	0.191423	-0.743177	-0.633233	0.795844	0.020065	-0.008617	0.000288
409	2.074668	0.005000	1.530360	9.814750	0.309170	-0.741970	-0.631587	0.795109	0.010805	0.000909	0.001493
410	2.079668	0.005000	1.569600	9.842491	0.293673	-0.741884	-0.632184	0.795313	0.007751	-0.001429	-0.004304
411	2.084668	0.005000	1.508506	9.731520	0.204893	-0.741994	-0.633171	0.795681	0.006252	-0.004433	0.001109
412	2.089668	0.005000	1.451880	9.849240	0.235440	-0.742104	-0.634159	0.796048	0.006492	-0.001847	-0.009760
413	2.094668	0.005000	1.595483	9.835883	0.235440	-0.742214	-0.635146	0.796416	0.008594	-0.017756	-0.004487
414	2.099668	0.005000	1.593392	9.912272	0.156960	-0.742323	-0.636134	0.796783	-0.001909	-0.007723	-0.004025
415	2.104668	0.005000	1.651600	9.909860	0.217580	-0.742433	-0.637121	0.797151	-0.000494	-0.016767	-0.007200
416	2.109668	0.005000	1.549572	9.947748	0.313103	-0.742543	-0.638108	0.797518	0.002177	-0.015134	0.001976
417	2.114668	0.005000	1.591815	9.888480	0.247275	-0.742653	-0.639096	0.797886	-0.011473	-0.016033	-0.001243
418	2.119668	0.005000	1.608840	9.849240	0.259599	-0.742762	-0.640083	0.798253	-0.006492	-0.012977	0.000752
419	2.124668	0.005000	1.648080	9.822672	0.221544	-0.742872	-0.641070	0.798621	-0.017179	-0.011446	-0.002408
420	2.129668	0.005000	1.537787	9.810000	0.324524	-0.742982	-0.642058	0.798988	-0.007916	-0.017345	-0.001132
421	2.134668	0.005000	1.522047	9.849240	0.313920	-0.743092	-0.643045	0.799356	-0.012396	-0.005300	-0.004796
422	2.139668	0.005000	1.418933	9.921427	0.313920	-0.743201	-0.644033	0.799723	-0.015612	-0.016152	-0.006975
423	2.144668	0.005000	1.518469	9.845276	0.309956	-0.743230	-0.644668	0.800000	-0.019359	-0.015039	-0.000800
424	2.149668	0.005000	1.453426	9.811546	0.236986	-0.743010	-0.644229	0.800000	-0.010722	-0.014615	-0.003100
425	2.154668	0.005000	1.413436	9.810398	0.274680	-0.742791	-0.643790	0.800000	-0.012780	-0.016230	0.002886
426	2.159668	0.005000	1.451880	9.885678	0.308316	-0.742572	-0.643351	0.800000	-0.017668	-0.004793	0.003461
427	2.164668	0.005000	1.462197	9.922562	0.279838	-0.742352	-0.642912	0.800000	-0.012109	-0.014639	0.002835
428	2.169668	0.005000	1.451880	9.913420	0.417340	-0.742133	-0.642474	0.800000	-0.012378	-0.014496	0.003535
429	2.174668	0.005000	1.530360	9.789669	0.313920	-0.741913	-0.642035	0.800000	-0.020085	-0.012207	-0.000942
430	2.179668	0.005000	1.463389	9.849240	0.286189	-0.741694	-0.641596	0.800000	-0.008025	-0.010125	0.002331
431	2.184668	0.005000	1.463619	9.849240	0.288431	-0.741475	-0.641157	0.800000	-0.016097	-0.008097	-0.005815
432	2.189668	0.005000	1.514499	9.904341	0.353160	-0.741255	-0.640718	0.800000	-0.008034	-0.011474	-0.010526
433	2.194668	0.005000	1.587873	9.830967	0.371433	-0.741036	-0.640279	0.800000	-0.011378	-0.006896	-0.003971
434	2.199668	0.005000	1.550577	9.810000	0.411423	-0.740816	-0.639841	0.800000	-0.017816	-0.013209	-0.003252
435	2.204668	0.005000	1.552988	9.849240	0.398417	-0.740597	-0.639402	0.800000	-0.004755	-0.016827	-0.001346
436	2.209668	0.005000	1.505612	9.902972	0.396636	-0.740377	-0.638963	0.800000	0.002714	-0.004212	-0.006211
437	2.214668	0.005000	1.557341	9.942443	0.473344	-0.740369	-0.638595	0.800315	0.004202	-0.006857	-0.004634
438	2.219668	0.005000	1.509730	9.938035	0.382085	-0.740479	-0.638265	0.800805	-0.000020	-0.000457	0.001833
439	2.224668	0.005000	1.459780	9.919820	0.392400	-0.740589	-0.637936	0.801295	0.012425	-0.007545	-0.005339
440	2.229668	0.005000	1.491120	9.939489	0.437524	-0.740698	-0.637607	0.801785	0.004418	-0.004273	-0.002986
441	2.234668	0.005000	1.533911	9.888480	0.392400	-0.740808	-0.637278	0.802275	-0.009002	-0.012157	-0.005219
442	2.239668	0.005000	1.530360	9.810000	0.349983	-0.740918	-0.636949	0.802765	0.008589	-0.011485	0.005675
443	2.244668	0.005000	1.491916	9.886888	0.313124	-0.741027	-0.636620	0.803255	0.010366	-0.003775	-0.003534
444	2.249668	0.005000	1.488379	9.846499	0.316661	-0.741137	-0.636291	0.803745	0.013236	-0.006854	-0.000101
445	2.254668	0.005000	1.569600	9.932878	0.353160	-0.741247	-0.635961	0.804235	0.011788	0.001231	-0.004668
446	2.259668	0.005000	1.537461	9.849240	0.295983	-0.741356	-0.635632	0.804725	0.026787	0.001223	-0.005636
447	2.264668	0.005000	1.510135	9.810000	0.274680	-0.741466	-0.635303	0.805215	0.035104	-0.003383	-0.000399
448	2.269668	0.005000	1.440428	9.782212	0.274680	-0.741576	-0.634974	0.805705	0.021108	-0.004447	0.005160
449	2.274668	0.005000	1.544226	9.863106	0.237797	-0.741685	-0.634645	0.806195	0.030418	-0.011787	0.012356
450	2.279668	0.005000	1.546440	9.833160	0.140880	-0.741803	-0.634345	0.806658	0.025726	0.001190	-0.006899
451	2.284668	0.005000	1.451880	9.849240	0.256461	-0.742133	-0.634783	0.806413	0.032632	0.001810	0.008521
452	2.289668	0.005000	1.493140	9.849240	0.274680	-0.742462	-0.635222	0.806168	0.014558	-0.002204	0.010346
453	2.294668	0.005000	1.541119	9.849240	0.268773	-0.742791	-0.635661	0.805923	0.024262	0.001674	0.009548
454	2.299668	0.005000	1.580332	9.810000	0.335385	-0.743120	-0.636100	0.805678	0.019796	-0.002112	0.000999
455	2.304668	0.005000	1.515445	9.810000	0.313920	-0.743449	-0.636539	0.805432	0.028773	0.007705	0.002930
456	2.309668	0.005000	1.402734	9.800094	0.235440	-0.743778	-0.636978	0.805187	0.032106	-0.004176	0.009910
457	2.314668	0.005000	1.396998	9.794268	0.180558	-0.744107	-0.637417	0.804942	0.037632	0.003745	0.002636
458	2.319668	0.005000	1.608840	9.781871	0.353160	-0.744437	-0.637856	0.804697	0.029090	-0.000462	0.004840
459	2.324668	0.005000	1.562460	9.924150	0.306780	-0.744766	-0.638295	0.804452	0.032702	0.000587	0.009186
460	2.329668	0.005000	1.411446	9.926526	0.197394	-0.745095	-0.638733	0.804207	0.029961	0.002343	0.008653
461	2.334668	0.005000	1.488870	9.849990	0.158460	-0.745424	-0.639172	0.803962	0.033211	-0.007502	0.007204
462	2.339668	0.005000	1.530360	9.885364	0.235440	-0.745753	-0.639611	0.803717	0.030013	-0.001888	0.003562
463	2.344668	0.005000	1.535458	9.917523	0.156960	-0.746082	-0.640050	0.803472	0.026324	-0.006598	0.011374
464	2.349668	0.005000	1.530360	9.959446	0.259651	-0.746222	-0.640062	0.803333	0.031036	-0.005631	0.012159
465	2.354668	0.005000	1.511444	9.858698	0.284138	-0.746112	-0.639513	0.803333	0.019489	-0.009865	0.001732
466	2.359668	0.005000	1.502985	9.884836	0.313920	-0.746002	-0.638965	0.803333	0.034538	-0.002635	0.002720
467	2.364668	0.005000	1.502133	9.863354	0.350059	-0.745892	-0.638417	0.803333	0.022846	-0.000990	-0.002871
468	2.369668	0.005000	1.530360	9.872258	0.290902	-0.745783	-0.637868	0.803333	0.028002	-0.007682	0.007186
469	2.374668	0.005000	1.527940	9.846820	0.295510	-0.745673	-0.637320	0.803333	0.025117	-0.009653	0.006682
470	2.379668	0.005000	1.567702	9.770760	0.313920	-0.745563	-0.636772	0.803333	0.027544	-0.016897	0.005585
471	2.384668	0.005000	1.461418	9.849240	0.258421	-0.745454	-0.636223	0.803333	0.022062	-0.008888	0.008414
472	2.389668	0.005000	1.623155	9.927720	0.196200	-0.745344	-0.635675	0.803333	0.027622	-0.005531	0.001291
473	2.394668	0.005000	1.518453	9.849240	0.235440	-0.745234	-0.635127	0.803333	0.020714	-0.001643	0.008546
474	2.399668	0.005000	1.403289	9.888480	0.265329	-0.745125	-0.634579	0.803333	0.017356	-0.002316	0.001154
475	2.404668	0.005000	1.483572	9.864336	0.258084	-0.745015	-0.634030	0.803333	0.014745	-0.013456	-0.000297
476	2.409668	0.005000	1.491120	9.933257	0.235440	-0.744905	-0.633482	0.803333	0.024701	-0.011051	0.005076
477	2.414668	0.005000	1.494319	9.846041	0.349961	-0.744796	-0.632934	0.803333	0.027241	-0.008228	-0.001242
478	2.419668	0.005000	1.492682	9.850021	0.237782	-0.744686	-0.633287	0.803031	0.032297	-0.003401	-0.001934
479	2.424668	0.005000	1.607677	9.888480	0.353160	-0.744576	-0.633835	0.802663	0.016583	0.001725	-0.001438
480	2.429668	0.005000	1.648080	9.888480	0.353160	-0.744467	-0.634384	0.802296	0.017752	-0.004332	0.002961
481	2.434668	0.005000	1.541383	9.882968	0.207223	-0.744357	-0.634933	0.801928	0.016015	-0.008980	0.006852
482	2.439668	0.005000	1.483284	9.825672	0.313920	-0.744247	-0.635481	0.801561	0.020472	-0.008308	-0.003133
483	2.444668	0.005000	1.510640	9.810000	0.254960	-0.744138	-0.636030	0.801193	0.009565	-0.005759	-0.003709
484	2.449668	0.005000	1.515384	9.810000	0.193356	-0.744028	-0.636578	0.800826	0.017190	-0.008901	0.002794
485	2.454668	0.005000	1.519555	9.874262	0.349747	-0.743918	-0.637127	0.800458	0.023739	-0.012133	0.001704
486	2.459668	0.005000	1.507747	9.849240	0.291307	-0.743809	-0.637675	0.800091	0.010223	-0.006576	-0.005193
487	2.464668	0.005000	1.511789	9.888480	0.251914	-0.743699	-0.638224	0.799723	0.015538	-0.006148	0.000029
488	2.469668	0.005000	1.593306	9.849240	0.235440	-0.743589	-0.638772	0.799356	0.010364	-0.006435	-0.002593
489	2.474668	0.005000	1.491120	9.849240	0.235440	-0.743480	-0.639321	0.798988	0.010350	-0.004311	-0.005768
490	2.479668	0.005000	1.488655	9.812465	0.249342	-0.743370	-0.639870	0.798621	0.005290	-0.010996	0.004869
491	2.484668	0.005000	1.463694	9.864851	0.368771	-0.743332	-0.640347	0.798333	0.000376	-0.010497	-0.000790
492	2.489668	0.005000	1.550500	9.829100	0.303329	-0.743551	-0.640566	0.798333	0.005873	-0.017112	0.004652
493	2.494668	0.005000	1.491120	9.880962	0.399918	-0.743770	-0.640785	0.798333	-0.007718	-0.009920	-0.004400
494	2.499668	0.005000	1.559220	9.883290	0.416070	-0.743990	-0.641005	0.798333	-0.005077	-0.008120	0.001260
495	2.504668	0.005000	1.494327	9.878859	0.317127	-0.744209	-0.641224	0.798333	-0.001796	-0.008023	-0.003317
496	2.509668	0.005000	1.568758	9.849240	0.313078	-0.744429	-0.641444	0.798333	0.003265	-0.011584	-0.005232
497	2.514668	0.005000	1.530360	9.886922	0.199316	-0.744648	-0.641663	0.798333	0.010514	-0.016581	0.001749
498	2.519668	0.005000	1.487614	9.810000	0.267668	-0.744868	-0.641883	0.798333	0.011735	-0.009606	-0.001979
499	2.524668	0.005000	1.457803	9.815923	0.307997	-0.745087	-0.642102	0.798333	-0.000192	-0.010762	0.000382
500	2.529668	0.005000	1.482891	9.872022	0.266451	-0.745306	-0.642321	0.798333	0.008678	-0.014197	0.003972
501	2.534668	0.005000	1.501393	9.898753	0.313920	-0.745526	-0.642541	0.798333	0.014432	-0.014569	-0.003653
502	2.539668	0.005000	1.491120	9.810000	0.326460	-0.745745	-0.642760	0.798333	0.002033	-0.016939	0.007983
503	2.544668	0.005000	1.418146	9.879071	0.353160	-0.745965	-0.642980	0.798333	0.005022	-0.015454	0.002563
504	2.549668	0.005000	1.417800	9.927720	0.336120	-0.746184	-0.643199	0.798333	0.006794	-0.008855	-0.000477
505	2.554668	0.005000	1.510908	9.868692	0.274680	-0.746135	-0.642881	0.798183	0.010194	-0.011010	-0.002214
506	2.559668	0.005000	1.473275	9.867085	0.374555	-0.745915	-0.642223	0.797938	0.009517	-0.016324	0.002846
507	2.564668	0.005000	1.467313	9.864673	0.305545	-0.745696	-0.641565	0.797693	0.003909	-0.015273	0.006929
508	2.569668	0.005000	1.465207	9.849240	0.248026	-0.745477	-0.640907	0.797448	0.010687	-0.012949	-0.004522
509	2.574668	0.005000	1.491120	9.910640	0.313920	-0.745257	-0.640249	0.797203	0.008254	-0.012832	0.005917
510	2.579668	0.005000	1.556357	9.919054	0.379157	-0.745038	-0.639591	0.796959	0.003959	-0.009310	-0.000833
511	2.584668	0.005000	1.530360	9.914438	0.373083	-0.744819	-0.638933	0.796714	0.007379	-0.006949	-0.008062
512	2.589668	0.005000	1.412640	9.879845	0.383765	-0.744599	-0.638275	0.796469	0.013725	-0.014311	0.002793
513	2.594668	0.005000	1.532273	9.853066	0.194287	-0.744380	-0.637617	0.796224	0.015241	-0.012683	-0.001322
514	2.599668	0.005000	1.569600	9.927720	0.274588	-0.744161	-0.636959	0.795979	0.019176	-0.013498	0.007078
515	2.604668	0.005000	1.530360	10.001359	0.237860	-0.743942	-0.636301	0.795734	0.011499	-0.003904	0.005456
516	2.609668	0.005000	1.530360	9.853632	0.235440	-0.743722	-0.635643	0.795489	0.026669	-0.011758	0.001679
517	2.614668	0.005000	1.451880	9.791153	0.235440	-0.743503	-0.634985	0.795244	0.014559	-0.005295	0.001448
518	2.619668	0.005000	1.530360	9.849240	0.292893	-0.743288	-0.634331	0.795003	0.018319	-0.011296	0.003232
519	2.624668	0.005000	1.513434	9.860397	0.342003	-0.745372	-0.635757	0.796595	0.018711	-0.022240	0.005718
520	2.629668	0.005000	1.530360	9.823565	0.353160	-0.747457	-0.637183	0.798188	0.013298	-0.023190	0.001858
521	2.634668	0.005000	1.538014	9.833447	0.376607	-0.749541	-0.638609	0.799781	0.008773	-0.019026	0.007633
522	2.639668	0.005000	1.473199	9.849240	0.278078	-0.751625	-0.640035	0.801373	0.012217	-0.004934	0.000090
523	2.644668	0.005000	1.508604	9.888480	0.295012	-0.753710	-0.641462	0.802966	0.020689	-0.004621	-0.006403
524	2.649668	0.005000	1.597797	9.843522	0.246483	-0.755794	-0.642888	0.804558	0.020801	-0.009050	0.001767
525	2.654668	0.005000	1.530360	9.849240	0.338606	-0.757879	-0.644314	0.806151	0.016827	-0.008966	-0.002114
526	2.659668	0.005000	1.557459	9.888480	0.301779	-0.759963	-0.645740	0.807744	0.010775	-0.015372	0.007679
527	2.664668	0.005000	1.569891	9.996463	0.343423	-0.762047	-0.647166	0.809336	0.008750	-0.006845	0.001151
528	2.669668	0.005000	1.530360	9.849240	0.298059	-0.764132	-0.648592	0.810929	0.014744	-0.019728	0.004276
529	2.674668	0.005000	1.491120	9.893867	0.263906	-0.766216	-0.650019	0.812521	0.014975	-0.009535	0.008088
530	2.679668	0.005000	1.419447	9.924316	0.199604	-0.768301	-0.651445	0.814114	0.023946	-0.008180	-0.004519
531	2.684668	0.005000	1.528308	9.850266	0.276732	-0.770385	-0.652871	0.815707	0.024705	-0.006151	-0.003410
532	2.689668	0.005000	1.528523	9.888480	0.276517	-0.771163	-0.653426	0.816132	0.019756	-0.005451	-0.006040
533	2.694668	0.005000	1.566278	9.849240	0.320565	-0.769956	-0.652658	0.814784	0.015060	-0.010407	0.007522
534	2.699668	0.005000	1.563927	9.882807	0.319593	-0.768749	-0.651890	0.813437	0.013867	-0.005254	-0.003645
535	2.704668	0.005000	1.601157	9.770760	0.211565	-0.767543	-0.651122	0.812089	0.021735	-0.014758	-0.001509
536	2.709668	0.005000	1.608840	9.839151	0.225351	-0.766336	-0.650355	0.810742	0.020305	-0.013296	0.002211
537	2.714668	0.005000	1.569600	9.981193	0.260447	-0.765129	-0.649587	0.809394	0.007219	-0.007839	-0.002273
538	2.719668	0.005000	1.470429	9.971062	0.245786	-0.763922	-0.648819	0.808046	0.007392	-0.015007	-0.000020
539	2.724668	0.005000	1.412640	9.866097	0.190673	-0.762715	-0.648051	0.806699	0.006722	-0.006988	0.005197
540	2.729668	0.005000	1.472075	9.888480	0.293725	-0.761509	-0.647283	0.805351	0.005466	-0.013763	0.010485
541	2.734668	0.005000	1.494720	9.849240	0.296100	-0.760302	-0.646515	0.804003	0.003050	-0.014924	0.000102
542	2.739668	0.005000	1.451880	9.888480	0.298294	-0.759095	-0.645747	0.802656	0.009963	-0.006478	-0.002808
543	2.744668	0.005000	1.347373	9.888480	0.287893	-0.757888	-0.644979	0.801308	0.014961	-0.009178	-0.002688
544	2.749668	0.005000	1.463014	9.871507	0.280519	-0.756682	-0.644211	0.799961	0.021599	-0.009660	-0.004987
545	2.754668	0.005000	1.443019	9.909998	0.305059	-0.755475	-0.643444	0.798613	0.020384	-0.014342	-0.001774
546	2.759668	0.005000	1.484674	9.894926	0.241886	-0.754790	-0.643023	0.798333	0.001746	-0.008693	0.010630
547	2.764668	0.005000	1.421642	9.883979	0.230939	-0.754241	-0.642694	0.798333	0.013401	-0.018682	0.004682
548	2.769668	0.005000	1.491120	9.851337	0.196200	-0.753693	-0.642365	0.798333	0.002586	-0.006720	0.012301
549	2.774668	0.005000	1.374005	9.966657	0.274680	-0.753145	-0.642036	0.798333	0.009297	-0.010830	0.005221
550	2.779668	0.005000	1.530360	9.851505	0.163755	-0.752596	-0.641707	0.798333	0.017322	-0.021718	0.000513
551	2.784668	0.005000	1.569600	9.888480	0.117720	-0.752048	-0.641378	0.798333	0.012735	-0.006485	0.002373
552	2.789668	0.005000	1.628238	9.881866	0.215598	-0.751500	-0.641049	0.798333	0.019112	-0.010909	0.006371
553	2.794668	0.005000	1.587450	9.840315	0.256830	-0.750951	-0.640720	0.798333	0.016448	-0.002722	-0.004073
554	2.799668	0.005000	1.491120	9.820973	0.263707	-0.750403	-0.640391	0.798333	0.018136	-0.007768	0.006483
555	2.804668	0.005000	1.556379	9.757539	0.287901	-0.749855	-0.640062	0.798333	0.013262	-0.014645	-0.001606
556	2.809668	0.005000	1.554280	9.881761	0.226839	-0.749306	-0.639733	0.798333	0.018166	-0.012392	0.001760
557	2.814668	0.005000	1.530360	9.888480	0.260732	-0.748758	-0.639404	0.798333	0.010596	-0.013625	-0.000954
558	2.819668	0.005000	1.530360	9.829907	0.275255	-0.748210	-0.639075	0.798333	0.000891	0.002048	-0.010885
559	2.824668	0.005000	1.591684	9.878624	0.252596	-0.747681	-0.638826	0.798289	0.006157	-0.007338	0.008558
560	2.829668	0.005000	1.545396	9.912684	0.132756	-0.747243	-0.638936	0.798044	0.013510	-0.008302	0.000286
561	2.834668	0.005000	1.503919	9.810000	0.169759	-0.746804	-0.639045	0.797799	0.014382	-0.008830	-0.000776
562	2.839668	0.005000	1.480728	9.810000	0.175417	-0.746365	-0.639155	0.797554	0.004499	-0.005124	0.007955
563	2.844668	0.005000	1.491120	9.849240	0.218544	-0.745926	-0.639265	0.797309	0.002524	-0.010922	0.001689
564	2.849668	0.005000	1.457912	9.894512	0.214297	-0.745487	-0.639375	0.797064	-0.008556	-0.022644	0.004801
565	2.854668	0.005000	1.412640	9.958784	0.274680	-0.745049	-0.639484	0.796819	-0.003863	-0.010682	0.000404
566	2.859668	0.005000	1.414323	9.886797	0.313920	-0.744610	-0.639594	0.796574	0.002071	-0.019949	0.000469
567	2.864668	0.005000	1.412900	9.888220	0.235961	-0.744171	-0.639704	0.796329	0.011157	-0.016870	0.010008
568	2.869668	0.005000	1.525065	9.888480	0.274680	-0.743732	-0.639814	0.796084	0.014974	-0.010835	-0.002692
569	2.874668	0.005000	1.495728	9.784585	0.387792	-0.743293	-0.639923	0.795839	0.018689	-0.017653	0.000207
570	2.879668	0.005000	1.530360	9.810000	0.256270	-0.742854	-0.640033	0.795594	0.024621	-0.008277	0.002265
571	2.884668	0.005000	1.639112	9.909783	0.265712	-0.742416	-0.640143	0.795349	0.024175	-0.013995	0.001225
572	2.889668	0.005000	1.620215	9.899855	0.230326	-0.741977	-0.640253	0.795104	0.020604	-0.007657	-0.003794
573	2.894668	0.005000	1.504750	9.876499	0.197849	-0.741664	-0.640299	0.795141	0.007346	-0.013307	-0.005472
574	2.899668	0.005000	1.530360	9.864973	0.235440	-0.741445	-0.640299	0.795386	-0.010770	-0.012497	0.000506
575	2.904668	0.005000	1.527405	9.867383	0.274680	-0.741226	-0.640299	0.795631	-0.019328	-0.007827	-0.004457
576	2.909668	0.005000	1.471033	9.829153	0.177047	-0.741006	-0.640299	0.795876	-0.012480	-0.009562	0.000844
577	2.914668	0.005000	1.513617	9.871737	0.229686	-0.740787	-0.640299	0.796121	0.001521	-0.006050	-0.000281
578	2.919668	0.005000	1.530360	9.942348	0.353160	-0.740567	-0.640299	0.796366	0.006583	-0.010870	-0.006731
579	2.924668	0.005000	1.530360	9.851322	0.289148	-0.740348	-0.640299	0.796611	0.020060	-0.010208	0.008917
580	2.929668	0.005000	1.559622	9.908437	0.245418	-0.740129	-0.640299	0.796856	0.034078	-0.005175	-0.001002
581	2.934668	0.005000	1.530360	9.951076	0.329804	-0.739909	-0.640299	0.797101	0.028513	-0.010829	0.000159
582	2.939668	0.005000	1.496739	9.888480	0.313920	-0.739690	-0.640299	0.797346	0.014401	-0.011319	0.000018
583	2.944668	0.005000	1.527145	9.858885	0.271465	-0.739470	-0.640299	0.797591	0.011267	-0.017942	-0.008463
584	2.949668	0.005000	1.493661	9.925179	0.274680	-0.739251	-0.640299	0.797836	0.015643	-0.006617	0.006743
585	2.954668	0.005000	1.531479	9.887361	0.312801	-0.739032	-0.640299	0.798081	0.005285	-0.014381	0.006826
586	2.959668	0.005000	1.491120	9.816155	0.271603	-0.738812	-0.640299	0.798326	0.012894	-0.020321	0.005164
587	2.964668	0.005000	1.384388	9.843746	0.302932	-0.739233	-0.640406	0.798809	0.004433	-0.002221	-0.004570
588	2.969668	0.005000	1.514560	9.849240	0.298120	-0.739671	-0.640515	0.799299	0.013325	-0.015193	-0.000797
589	2.974668	0.005000	1.530360	9.917524	0.244093	-0.740110	-0.640625	0.799789	0.010661	-0.015613	-0.004050
590	2.979668	0.005000	1.608840	9.942443	0.259957	-0.740549	-0.640735	0.800279	0.008278	-0.020134	-0.006713
591	2.984668	0.005000	1.501026	9.927720	0.299253	-0.740988	-0.640844	0.800770	0.002978	-0.012315	-0.003949
592	2.989668	0.005000	1.468492	9.960943	0.274680	-0.741427	-0.640954	0.801260	0.003943	-0.012350	-0.002764
593	2.994668	0.005000	1.510143	9.888480	0.253269	-0.741865	-0.641064	0.801750	0.020495	-0.011270	0.008615
594	2.999668	0.005000	1.409524	9.924604	0.274680	-0.742304	-0.641173	0.802240	0.013113	-0.001267	0.003248
595	3.004668	0.005000	1.522843	9.888480	0.203717	-0.742743	-0.641283	0.802730	0.013781	-0.015904	0.000956
596	3.009668	0.005000	1.477668	9.861575	0.288132	-0.743182	-0.641393	0.803220	0.013443	-0.014450	-0.002127
597	3.014668	0.005000	1.518984	9.810000	0.336671	-0.743621	-0.641502	0.803710	0.019945	-0.012104	-0.005002
598	3.019668	0.005000	1.551388	9.828212	0.313920	-0.744060	-0.641612	0.804200	0.012636	-0.008495	0.004038
599	3.024668	0.005000	1.491120	9.881789	0.301442	-0.744498	-0.641722	0.804690	0.005027	-0.006485	-0.000694
600	3.029668	0.005000	1.535049	9.849240	0.378332	-0.744695	-0.641710	0.804820	0.016082	-0.009995	0.005772
601	3.034668	0.005000	1.530360	9.883797	0.353160	-0.744476	-0.641491	0.804330	0.015847	-0.011301	0.001182
602	3.039668	0.005000	1.490333	9.810787	0.352373	-0.744257	-0.641272	0.803840	0.006098	-0.006617	-0.000735
603	3.044668	0.005000	1.449860	9.851260	0.311900	-0.744038	-0.641053	0.803351	0.011054	-0.012373	0.002518
604	3.049668	0.005000	1.521616	9.770760	0.348788	-0.743818	-0.640833	0.802861	0.018589	-0.016341	0.001093
605	3.054668	0.005000	1.556862	9.803631	0.320289	-0.743599	-0.640614	0.802371	0.025082	-0.009370	-0.000953
606	3.059668	0.005000	1.600055	9.840455	0.305135	-0.743380	-0.640395	0.801881	0.010982	-0.011516	-0.003068
607	3.064668	0.005000	1.513236	9.798942	0.387408	-0.743160	-0.640175	0.801391	0.011908	-0.010144	0.005575
608	3.069668	0.005000	1.504256	9.783896	0.287816	-0.742941	-0.639956	0.800901	0.015173	-0.011032	-0.000288
609	3.074668	0.005000	1.443379	9.849240	0.250809	-0.742722	-0.639737	0.800412	0.012376	-0.007092	-0.004622
610	3.079668	0.005000	1.517122	9.927720	0.235440	-0.742502	-0.639517	0.799922	0.024427	-0.012707	0.008016
611	3.084668	0.005000	1.491120	9.927720	0.176625	-0.742283	-0.639298	0.799432	0.008470	-0.002549	0.004581
612	3.089668	0.005000	1.534798	9.945121	0.191762	-0.742064	-0.639079	0.798942	0.011160	-0.006324	0.004141
613	3.094668	0.005000	1.491120	9.888480	0.196200	-0.741844	-0.638859	0.798452	0.018503	-0.002262	0.002895
614	3.099668	0.005000	1.543248	9.822888	0.287568	-0.742040	-0.639055	0.798333	0.015251	-0.008688	0.001194
615	3.104668	0.005000	1.548327	9.938356	0.353160	-0.742369	-0.639384	0.798333	0.018748	-0.012846	0.009208
616	3.109668	0.005000	1.491120	9.879888	0.196200	-0.742698	-0.639713	0.798333	0.020930	-0.004506	-0.001554
617	3.114668	0.005000	1.425194	9.933997	0.320197	-0.743027	-0.640042	0.798333	0.023213	-0.017148	0.002312
618	3.119668	0.005000	1.491120	9.927720	0.270808	-0.743357	-0.640372	0.798333	0.016017	0.001963	0.000189
619	3.124668	0.005000	1.528432	9.886552	0.196200	-0.743686	-0.640701	0.798333	0.026133	-0.009774	0.009107
620	3.129668	0.005000	1.491120	9.887996	0.312468	-0.744015	-0.641030	0.798333	0.016473	-0.012610	0.002356
621	3.134668	0.005000	1.412640	9.966960	0.316353	-0.744344	-0.641359	0.798333	0.014224	-0.010652	0.002773
622	3.139668	0.005000	1.560040	9.878920	0.309140	-0.744673	-0.641688	0.798333	0.007594	-0.006758	0.000972
623	3.144668	0.005000	1.530360	9.895262	0.209765	-0.745002	-0.642017	0.798333	0.007572	-0.004817	-0.001948
624	3.149668	0.005000	1.509516	9.819198	0.175356	-0.745331	-0.642346	0.798333	0.012886	-0.019714	0.002811
625	3.154668	0.005000	1.530360	9.781901	0.213157	-0.745661	-0.642676	0.798333	0.020977	-0.017529	-0.004685
626	3.159668	0.005000	1.583150	9.810000	0.234031	-0.745990	-0.643005	0.798333	0.015969	-0.013956	0.000062
627	3.164668	0.005000	1.569600	9.810000	0.235440	-0.746219	-0.643251	0.798352	0.018789	-0.014296	0.005537
628	3.169668	0.005000	1.573045	9.831342	0.235440	-0.745890	-0.643031	0.798474	0.009904	-0.008341	-0.008210
629	3.174668	0.005000	1.491120	9.869549	0.293611	-0.745561	-0.642812	0.798597	0.020512	-0.011141	0.003374
630	3.179668	0.005000	1.446615	9.866228	0.196200	-0.745232	-0.642593	0.798719	-0.000166	-0.012718	-0.008695
631	3.184668	0.005000	1.481031	9.863815	0.250015	-0.744903	-0.642373	0.798842	0.014640	-0.020468	-0.003956
632	3.189668	0.005000	1.532160	9.836760	0.274680	-0.744573	-0.642154	0.798964	0.011628	-0.014945	0.001195
633	3.194668	0.005000	1.480897	9.868034	0.235440	-0.744244	-0.641934	0.799087	0.013835	-0.013725	0.007619
634	3.199668	0.005000	1.530360	9.857424	0.243624	-0.743915	-0.641715	0.799209	0.011758	-0.013737	0.003956
635	3.204668	0.005000	1.563736	9.888480	0.262952	-0.743586	-0.641495	0.799332	0.001904	-0.015187	-0.008858
636	3.209668	0.005000	1.533819	9.810000	0.320838	-0.743257	-0.641276	0.799454	0.004534	-0.018373	0.001442
637	3.214668	0.005000	1.453395	9.849240	0.196200	-0.742928	-0.641057	0.799577	-0.002144	-0.016389	-0.004356
638	3.219668	0.005000	1.491120	9.887587	0.311242	-0.742598	-0.640837	0.799699	0.002177	-0.015591	-0.004958
639	3.224668	0.005000	1.524667	9.927720	0.347467	-0.742269	-0.640618	0.799822	0.007511	-0.012114	0.001118
640	3.229668	0.005000	1.412640	9.864806	0.387211	-0.741940	-0.640398	0.799944	0.001147	-0.009022	-0.002552
641	3.234668	0.005000	1.451880	9.881287	0.196200	-0.742151	-0.640539	0.800000	0.005760	-0.008785	-0.000446
642	3.239668	0.005000	1.511161	9.888480	0.265081	-0.742809	-0.640977	0.800000	0.003921	0.000918	-0.008809
643	3.244668	0.005000	1.558056	9.810000	0.258528	-0.743467	-0.641416	0.800000	0.007649	-0.020439	-0.001209
644	3.249668	0.005000	1.544317	9.810000	0.263355	-0.744125	-0.641855	0.800000	0.006921	-0.006775	-0.001161
645	3.254668	0.005000	1.569600	9.840777	0.219539	-0.744782	-0.642293	0.800000	-0.005406	-0.010655	-0.005047
646	3.259668	0.005000	1.548671	9.810000	0.292991	-0.745440	-0.642732	0.800000	0.008757	-0.013024	0.004262
647	3.264668	0.005000	1.588585	9.907465	0.334175	-0.746098	-0.643171	0.800000	-0.000881	-0.001524	-0.004091
648	3.269668	0.005000	1.569600	9.911146	0.274680	-0.746756	-0.643609	0.800000	0.012397	-0.003692	0.000963
649	3.274668	0.005000	1.515898	9.888480	0.260218	-0.747414	-0.644048	0.800000	0.000449	-0.008550	-0.009905
650	3.279668	0.005000	1.464098	9.795195	0.259875	-0.748072	-0.644486	0.800000	0.002495	-0.017136	0.004613
651	3.284668	0.005000	1.481310	9.868860	0.284490	-0.748730	-0.644925	0.800000	-0.004014	-0.010361	0.002002
652	3.289668	0.005000	1.467431	9.927720	0.360935	-0.749388	-0.645364	0.800000	0.002746	-0.006156	0.003443
653	3.294668	0.005000	1.530360	9.849240	0.415289	-0.750046	-0.645802	0.800000	0.003553	-0.018277	0.006928
654	3.299668	0.005000	1.644601	9.806521	0.199679	-0.750704	-0.646241	0.800000	-0.000410	-0.008928	0.002034
655	3.304668	0.005000	1.566293	9.808898	0.234338	-0.750438	-0.645756	0.800000	0.012841	-0.016799	-0.005795
656	3.309668	0.005000	1.451880	9.770760	0.272108	-0.750109	-0.645207	0.800000	0.010497	-0.012467	-0.003306
657	3.314668	0.005000	1.455126	9.813246	0.228948	-0.749780	-0.644658	0.800000	0.014918	-0.014459	-0.004374
658	3.319668	0.005000	1.491120	9.849240	0.386803	-0.749451	-0.644110	0.800000	0.012659	-0.012967	0.004268
659	3.324668	0.005000	1.427852	9.849240	0.250652	-0.749122	-0.643561	0.800000	0.009976	-0.009118	-0.006100
660	3.329668	0.005000	1.530027	9.849240	0.176746	-0.748793	-0.643013	0.800000	0.017502	-0.011582	0.003024
661	3.334668	0.005000	1.463837	9.876523	0.353160	-0.748464	-0.642464	0.800000	0.007630	-0.013923	-0.005047
662	3.339668	0.005000	1.494493	9.941924	0.263849	-0.748134	-0.641916	0.800000	0.007249	-0.012821	-0.002205
663	3.344668	0.005000	1.419251	9.865554	0.290994	-0.747805	-0.641367	0.800000	0.004916	-0.010060	-0.002959
664	3.349668	0.005000	1.431364	9.811791	0.373676	-0.747476	-0.640818	0.800000	-0.000475	-0.005056	-0.001154
665	3.354668	0.005000	1.412640	9.946291	0.353160	-0.747147	-0.640270	0.800000	0.007988	-0.020357	-0.003771
666	3.359668	0.005000	1.474959	9.826161	0.297759	-0.746818	-0.639721	0.800000	0.013976	-0.002731	0.003887
667	3.364668	0.005000	1.530360	9.952907	0.299867	-0.746489	-0.639173	0.800000	0.012497	-0.014055	0.006723
668	3.369668	0.005000	1.597025	9.876665	0.313920	-0.746887	-0.639097	0.800771	-0.011486	-0.013326	0.001194
669	3.374668	0.005000	1.492758	9.849240	0.166360	-0.748752	-0.639974	0.803099	0.005752	-0.002797	0.003047
670	3.379668	0.005000	1.498576	9.935176	0.284096	-0.750617	-0.640852	0.805427	0.002138	-0.007478	-0.003437
671	3.384668	0.005000	1.491120	9.888480	0.235440	-0.752482	-0.641730	0.807754	0.009730	-0.006141	-0.004996
672	3.389668	0.005000	1.451880	9.855382	0.202342	-0.754347	-0.642607	0.810082	0.003971	-0.011912	0.006228
673	3.394668	0.005000	1.453258	9.887791	0.353160	-0.756212	-0.643485	0.812410	0.010079	-0.014203	-0.002290
674	3.399668	0.005000	1.492814	9.849240	0.428252	-0.758077	-0.644363	0.814737	0.007395	-0.013283	0.001098
675	3.404668	0.005000	1.448221	9.781737	0.360478	-0.759942	-0.645240	0.817065	0.021380	-0.016474	-0.001337
676	3.409668	0.005000	1.491120	9.776766	0.392400	-0.761807	-0.646118	0.819392	0.021729	-0.005153	-0.008196
677	3.414668	0.005000	1.435841	9.880461	0.189038	-0.763672	-0.646996	0.821720	0.013541	-0.009927	-0.006975
678	3.419668	0.005000	1.559174	9.888480	0.214588	-0.765537	-0.647873	0.824048	0.015370	-0.009981	-0.001503
679	3.424668	0.005000	1.451880	9.822692	0.208892	-0.767402	-0.648751	0.826375	0.005478	-0.014663	0.002729
680	3.429668	0.005000	1.569600	9.888480	0.313920	-0.769267	-0.649628	0.828703	0.008645	-0.007156	-0.003410
681	3.434668	0.005000	1.552612	9.905468	0.224911	-0.771132	-0.650506	0.831031	0.012015	-0.013741	-0.000404
682	3.439668	0.005000	1.588730	9.830110	0.196200	-0.772120	-0.651065	0.831667	0.010096	-0.010166	0.008811
683	3.444668	0.005000	1.566272	9.927720	0.310592	-0.772778	-0.651504	0.831667	0.002845	-0.006416	-0.010686
684	3.449668	0.005000	1.475366	9.872726	0.305897	-0.773437	-0.651942	0.831667	0.018781	-0.005734	-0.004670
685	3.454668	0.005000	1.491916	9.888480	0.288025	-0.774095	-0.652381	0.831667	0.018476	-0.002594	-0.003056
686	3.459668	0.005000	1.541762	9.821402	0.279715	-0.774753	-0.652820	0.831667	0.020047	-0.013881	0.002274
687	3.464668	0.005000	1.491120	9.918733	0.265693	-0.775411	-0.653259	0.831667	0.009530	-0.010368	0.003542
688	3.469668	0.005000	1.484161	9.777719	0.203159	-0.776070	-0.653698	0.831667	0.016154	-0.003211	-0.001001
689	3.474668	0.005000	1.481846	9.823912	0.348523	-0.776728	-0.654137	0.831667	0.013586	-0.011404	0.003665
690	3.479668	0.005000	1.535685	9.885818	0.240765	-0.777386	-0.654575	0.831667	0.008002	-0.001027	0.006047
691	3.484668	0.005000	1.569324	9.850067	0.196751	-0.778044	-0.655014	0.831667	0.015595	-0.006381	0.000628
692	3.489668	0.005000	1.493223	9.892685	0.200405	-0.778703	-0.655453	0.831667	0.019090	-0.007585	-0.002544
693	3.494668	0.005000	1.600695	9.853313	0.161033	-0.779361	-0.655892	0.831667	0.017410	-0.007079	-0.003159
694	3.499668	0.005000	1.523871	9.894969	0.137187	-0.780019	-0.656331	0.831667	0.018081	-0.007175	-0.001510
695	3.504668	0.005000	1.617273	9.950095	0.218575	-0.780276	-0.656582	0.831339	0.016597	-0.008853	0.003260
696	3.509668	0.005000	1.541195	9.860075	0.274680	-0.777645	-0.655486	0.828645	0.012323	-0.013485	0.005884
697	3.514668	0.005000	1.490217	9.902162	0.222661	-0.775013	-0.654389	0.825951	0.011890	-0.008848	-0.003221
698	3.519668	0.005000	1.475932	9.849240	0.322785	-0.772381	-0.653293	0.823257	0.015093	-0.010208	-0.008399
699	3.524668	0.005000	1.534807	9.849240	0.252836	-0.769749	-0.652196	0.820563	0.022602	-0.003669	-0.001055
700	3.529668	0.005000	1.530207	9.829697	0.215897	-0.767117	-0.651100	0.817869	0.017178	-0.008247	-0.004808
701	3.534668	0.005000	1.512812	9.866788	0.292228	-0.764486	-0.650003	0.815175	0.015674	-0.017119	0.000370
702	3.539668	0.005000	1.530360	9.879922	0.228658	-0.761854	-0.648907	0.812481	0.020343	-0.006575	-0.002315
703	3.544668	0.005000	1.608840	9.849240	0.169448	-0.759222	-0.647810	0.809787	0.020502	-0.010360	-0.004879
704	3.549668	0.005000	1.565395	9.820861	0.246301	-0.756590	-0.646713	0.807093	0.015680	-0.008329	0.006291
705	3.554668	0.005000	1.491120	9.874961	0.196200	-0.753958	-0.645617	0.804399	0.019369	-0.004079	-0.001748
706	3.559668	0.005000	1.517260	9.960410	0.202750	-0.751327	-0.644520	0.801705	0.015714	-0.012311	-0.004689
707	3.564668	0.005000	1.460328	9.810000	0.348936	-0.748695	-0.643424	0.799011	0.013130	-0.008337	-0.000201
708	3.569668	0.005000	1.419866	9.849240	0.269260	-0.746063	-0.642327	0.796317	0.014052	-0.009748	-0.004428
709	3.574668	0.005000	1.530498	9.888342	0.196062	-0.744720	-0.641735	0.795250	0.015447	-0.008988	-0.000322
710	3.579668	0.005000	1.527849	9.807489	0.225396	-0.744610	-0.641625	0.795740	0.017791	-0.012652	-0.008471
711	3.584668	0.005000	1.565116	9.775244	0.200684	-0.744501	-0.641516	0.796231	0.012838	-0.013449	0.005479
712	3.589668	0.005000	1.516581	9.849240	0.267790	-0.744391	-0.641406	0.796721	0.015500	-0.010537	0.002979
713	3.594668	0.005000	1.548028	9.910052	0.244274	-0.744281	-0.641296	0.797211	0.015177	-0.011155	-0.002902
714	3.599668	0.005000	1.541609	9.927720	0.291423	-0.744172	-0.641187	0.797701	0.011100	-0.009209	-0.004258
715	3.604668	0.005000	1.516867	9.888480	0.262427	-0.744062	-0.641077	0.798191	0.021371	-0.014637	-0.009766
716	3.609668	0.005000	1.608840	9.912119	0.298319	-0.743952	-0.640967	0.798681	0.007687	-0.011046	0.003894
717	3.614668	0.005000	1.544534	9.963329	0.274680	-0.743843	-0.640858	0.799171	0.008681	-0.007636	0.003002
718	3.619668	0.005000	1.491120	9.869197	0.234767	-0.743733	-0.640748	0.799661	0.010712	-0.011286	0.007629
719	3.624668	0.005000	1.491120	9.910848	0.313920	-0.743623	-0.640638	0.800151	0.004256	-0.013848	0.000215
720	3.629668	0.005000	1.559858	9.888480	0.362902	-0.743514	-0.640529	0.800641	0.008378	-0.011787	-0.000070
721	3.634668	0.005000	1.517841	9.810000	0.328122	-0.743404	-0.640419	0.801131	0.010718	-0.009321	-0.002120
722	3.639668	0.005000	1.569600	9.799547	0.253774	-0.743294	-0.640309	0.801621	0.006000	-0.009353	0.002871
723	3.644668	0.005000	1.538520	9.857400	0.274680	-0.743284	-0.640398	0.801445	0.009545	-0.010176	0.001527
724	3.649668	0.005000	1.558087	9.888480	0.274680	-0.743284	-0.640508	0.801200	0.008715	-0.011138	-0.000549
725	3.654668	0.005000	1.526548	9.853052	0.377151	-0.743284	-0.640618	0.800955	0.021697	-0.016895	-0.006235
726	3.659668	0.005000	1.412640	9.811408	0.196200	-0.743284	-0.640727	0.800710	0.007764	-0.008375	0.001867
727	3.664668	0.005000	1.490048	9.926648	0.351017	-0.743284	-0.640837	0.800465	0.015264	-0.007944	0.001833
728	3.669668	0.005000	1.530360	9.815907	0.395354	-0.743284	-0.640947	0.800220	0.010815	-0.001854	0.003489
729	3.674668	0.005000	1.559011	9.843945	0.246029	-0.743284	-0.641056	0.799975	0.013548	-0.005087	0.005423
730	3.679668	0.005000	1.491120	9.952354	0.313920	-0.743284	-0.641166	0.799729	0.015433	-0.010846	0.008315
731	3.684668	0.005000	1.559994	9.810000	0.274680	-0.743284	-0.641276	0.799484	0.016389	-0.006829	0.003257
732	3.689668	0.005000	1.585516	9.876818	0.290596	-0.743284	-0.641385	0.799239	0.012817	-0.015806	0.005847
733	3.694668	0.005000	1.519260	9.877380	0.235440	-0.743284	-0.641495	0.798994	0.006875	-0.010723	0.002857
734	3.699668	0.005000	1.507134	9.904494	0.242651	-0.743284	-0.641605	0.798749	0.015351	-0.011107	-0.001837
735	3.704668	0.005000	1.530360	9.810000	0.198587	-0.743284	-0.641714	0.798504	0.012534	-0.007540	0.000611
736	3.709668	0.005000	1.550948	9.909068	0.274680	-0.743317	-0.641725	0.798444	0.004204	-0.002908	-0.008092
737	3.714668	0.005000	1.513902	9.839105	0.297462	-0.743427	-0.641506	0.798811	0.009892	-0.012056	0.000794
738	3.719668	0.005000	1.463011	9.874425	0.207331	-0.743536	-0.641286	0.799178	0.008338	-0.010255	0.000852
739	3.724668	0.005000	1.506139	9.849240	0.368179	-0.743646	-0.641067	0.799546	0.010383	-0.013742	0.002739
740	3.729668	0.005000	1.510526	9.888480	0.392400	-0.743756	-0.640848	0.799913	0.001065	-0.011380	-0.000350
741	3.734668	0.005000	1.561931	9.802331	0.267011	-0.743865	-0.640628	0.800281	-0.005418	-0.008781	-0.007712
742	3.739668	0.005000	1.485777	9.859927	0.251470	-0.743975	-0.640409	0.800648	0.002388	-0.005818	0.005728
743	3.744668	0.005000	1.451880	9.958145	0.308043	-0.744084	-0.640190	0.801015	0.000707	-0.005189	-0.000607
744	3.749668	0.005000	1.492115	9.887485	0.312925	-0.744194	-0.639970	0.801383	0.012091	-0.016763	0.002084
745	3.754668	0.005000	1.492527	9.849240	0.274680	-0.744304	-0.639751	0.801750	0.003033	-0.006401	-0.005925
746	3.759668	0.005000	1.530360	9.927720	0.278047	-0.744413	-0.639532	0.802117	0.004458	-0.010133	-0.001345
747	3.764668	0.005000	1.502526	9.922017	0.268977	-0.744523	-0.639312	0.802485	0.003892	-0.011016	0.006398
748	3.769668	0.005000	1.530360	9.919345	0.345444	-0.744632	-0.639093	0.802852	0.010631	-0.012884	0.000182
749	3.774668	0.005000	1.530360	9.907692	0.323934	-0.744742	-0.638874	0.803219	0.018420	-0.024352	0.008852
750	3.779668	0.005000	1.608840	9.912630	0.365235	-0.745079	-0.638654	0.802910	0.016292	-0.001922	0.002162
751	3.784668	0.005000	1.579873	9.888480	0.324193	-0.745518	-0.638435	0.802297	0.015577	-0.017104	-0.007941
752	3.789668	0.005000	1.507805	9.832555	0.319789	-0.745957	-0.638216	0.801685	0.020121	-0.010958	-0.003596
753	3.794668	0.005000	1.549192	9.770760	0.335905	-0.746396	-0.637996	0.801072	0.010739	-0.008714	0.003518
754	3.799668	0.005000	1.545850	9.849240	0.353160	-0.746834	-0.637777	0.800460	0.017039	-0.015896	0.003511
755	3.804668	0.005000	1.514306	9.833186	0.369214	-0.747273	-0.637557	0.799847	0.020181	-0.003894	-0.002215
756	3.809668	0.005000	1.555959	9.810000	0.194516	-0.747712	-0.637338	0.799235	0.017973	-0.012081	0.009709
757	3.814668	0.005000	1.518663	9.865086	0.274680	-0.748151	-0.637119	0.798622	0.017248	-0.002608	0.008419
758	3.819668	0.005000	1.500410	9.858530	0.244730	-0.748590	-0.636899	0.798010	0.011705	-0.005291	-0.001922
759	3.824668	0.005000	1.530360	9.959699	0.306659	-0.749028	-0.636680	0.797397	0.003366	-0.012021	0.003363
760	3.829668	0.005000	1.496050	9.883550	0.353160	-0.749467	-0.636460	0.796785	0.006392	-0.010579	-0.008455
761	3.834668	0.005000	1.560751	9.849240	0.344311	-0.749906	-0.636241	0.796172	0.022762	-0.014480	0.003224
762	3.839668	0.005000	1.569018	9.849240	0.274680	-0.750345	-0.636022	0.795560	0.008620	-0.005551	0.001407
763	3.844668	0.005000	1.530360	9.886665	0.274680	-0.750689	-0.635849	0.795021	0.010406	-0.012459	-0.000955
764	3.849668	0.005000	1.601280	9.896040	0.388620	-0.750031	-0.636178	0.795266	0.022953	-0.009858	0.008391
765	3.854668	0.005000	1.557229	9.867796	0.313920	-0.749374	-0.636507	0.795511	0.024592	-0.002030	-0.002404
766	3.859668	0.005000	1.507373	9.888480	0.322047	-0.748716	-0.636836	0.795756	0.016882	-0.009234	0.001930
767	3.864668	0.005000	1.430813	9.820533	0.217267	-0.748058	-0.637165	0.796001	0.011812	-0.008160	-0.005166
768	3.869668	0.005000	1.491120	9.783558	0.195353	-0.747400	-0.637494	0.796245	0.011718	-0.022533	0.006706
769	3.874668	0.005000	1.491120	9.834349	0.196200	-0.746742	-0.637823	0.796490	0.012197	-0.015274	0.002150
770	3.879668	0.005000	1.468974	9.871386	0.296826	-0.746084	-0.638152	0.796735	0.004808	-0.005828	0.003086
771	3.884668	0.005000	1.491120	9.810000	0.294675	-0.745426	-0.638481	0.796980	0.016068	-0.007195	0.002849
772	3.889668	0.005000	1.512775	9.845169	0.261166	-0.744768	-0.638810	0.797225	0.017479	-0.007784	-0.006345
773	3.894668	0.005000	1.576740	9.825460	0.274680	-0.744110	-0.639139	0.797470	0.009135	-0.007767	-0.002786
774	3.899668	0.005000	1.608840	9.796772	0.300248	-0.743452	-0.639468	0.797715	0.019094	-0.006152	-0.002818
775	3.904668	0.005000	1.648080	9.742669	0.358954	-0.742794	-0.639797	0.797960	0.016822	-0.017367	-0.001836
776	3.909668	0.005000	1.491120	9.818876	0.205076	-0.742136	-0.640126	0.798204	0.009082	-0.010324	0.008464
777	3.914668	0.005000	1.497973	9.895333	0.295238	-0.742208	-0.640351	0.798508	0.016054	-0.010014	-0.000022
778	3.919668	0.005000	1.560567	9.923203	0.383367	-0.743086	-0.640461	0.798875	0.014600	-0.008995	0.003274
779	3.924668	0.005000	1.530360	9.886368	0.313920	-0.743963	-0.640570	0.799243	0.009755	-0.008684	-0.005451
780	3.929668	0.005000	1.529694	9.810333	0.313754	-0.744841	-0.640680	0.799610	0.019438	-0.013339	0.000375
781	3.934668	0.005000	1.447409	9.888480	0.274680	-0.745719	-0.640790	0.799978	0.017086	-0.005262	-0.004550
782	3.939668	0.005000	1.447700	9.845060	0.138618	-0.746596	-0.640899	0.800345	0.024697	-0.009516	-0.003721
783	3.944668	0.005000	1.530360	9.881884	0.307324	-0.747474	-0.641009	0.800713	0.015688	-0.011816	0.008858
784	3.949668	0.005000	1.538900	9.849240	0.274680	-0.748351	-0.641119	0.801080	0.016163	-0.009147	0.000673
785	3.954668	0.005000	1.597893	9.849240	0.274680	-0.749229	-0.641228	0.801448	0.008457	-0.006278	0.009448
786	3.959668	0.005000	1.582428	9.862446	0.235440	-0.750107	-0.641338	0.801815	0.003348	-0.006679	-0.000722
787	3.964668	0.005000	1.584904	9.903784	0.211504	-0.750984	-0.641448	0.802183	0.020042	-0.012162	0.007589
788	3.969668	0.005000	1.608840	9.827714	0.296206	-0.751862	-0.641557	0.802550	0.015811	-0.014236	0.001104
789	3.974668	0.005000	1.550018	9.810000	0.255175	-0.752740	-0.641667	0.802918	0.022720	-0.005868	0.000385
790	3.979668	0.005000	1.630909	9.827171	0.326194	-0.753617	-0.641777	0.803285	0.023598	-0.019718	0.005418
791	3.984668	0.005000	1.578385	9.834012	0.344375	-0.753158	-0.641982	0.803013	0.007666	-0.010690	-0.000443
792	3.989668	0.005000	1.517545	9.862055	0.221829	-0.752500	-0.642201	0.802646	0.007974	-0.012670	-0.002449
793	3.994668	0.005000	1.451880	9.838370	0.342290	-0.751842	-0.642421	0.802279	0.006742	-0.005509	0.000755
794	3.999668	0.005000	1.446506	9.801533	0.283147	-0.751185	-0.642640	0.801911	0.016405	-0.011910	0.008549
795	4.004668	0.005000	1.484676	9.842796	0.281699	-0.750527	-0.642859	0.801544	0.017676	-0.023477	0.011912
796	4.009668	0.005000	1.487003	9.849240	0.235440	-0.749869	-0.643078	0.801176	0.012853	-0.013098	0.000122
797	4.014668	0.005000	1.416936	9.777204	0.278976	-0.749211	-0.643298	0.800809	0.012911	-0.011635	0.003194
798	4.019668	0.005000	1.413130	9.771495	0.353160	-0.748553	-0.643517	0.800442	0.014748	-0.013396	0.001424
799	4.024668	0.005000	1.449263	9.812617	0.429023	-0.747895	-0.643736	0.800074	0.021978	-0.011923	0.005559
800	4.029668	0.005000	1.530360	9.888480	0.240033	-0.747237	-0.643956	0.799707	0.019162	-0.008977	0.002744
801	4.034668	0.005000	1.541563	9.881471	0.313920	-0.746579	-0.644175	0.799340	0.009797	-0.013580	-0.007142
802	4.039668	0.005000	1.530360	9.909814	0.365541	-0.745921	-0.644394	0.798972	0.010861	-0.013526	0.004292
803	4.044668	0.005000	1.580960	10.006200	0.263320	-0.745263	-0.644614	0.798605	-0.001000	-0.007882	0.002061
804	4.049668	0.005000	1.504734	9.876469	0.327534	-0.744634	-0.644776	0.798333	0.015128	-0.016734	0.002516
805	4.054668	0.005000	1.451880	9.864957	0.353160	-0.744085	-0.644776	0.798333	0.004346	-0.006423	0.003343
806	4.059668	0.005000	1.416059	9.870569	0.374489	-0.743536	-0.644776	0.798333	0.015098	-0.011352	0.003356
807	4.064668	0.005000	1.490217	9.830072	0.296558	-0.742988	-0.644776	0.798333	0.016680	-0.006674	0.003352
808	4.069668	0.005000	1.457591	9.832475	0.308209	-0.742439	-0.644776	0.798333	0.012887	-0.003045	-0.002670
809	4.074668	0.005000	1.427460	9.878881	0.156960	-0.741891	-0.644776	0.798333	0.002993	-0.008217	0.007057
810	4.079668	0.005000	1.542772	9.966960	0.301508	-0.741342	-0.644776	0.798333	0.011739	-0.008351	0.000788
811	4.084668	0.005000	1.459716	9.995732	0.402868	-0.740794	-0.644776	0.798333	0.016481	-0.009459	0.003623
812	4.089668	0.005000	1.389506	9.919667	0.282733	-0.740245	-0.644776	0.798333	0.013721	-0.009707	-0.003439
813	4.094668	0.005000	1.497229	9.894589	0.235440	-0.739697	-0.644776	0.798333	0.016683	-0.013533	-0.003410
814	4.099668	0.005000	1.558489	9.881073	0.160664	-0.739148	-0.644776	0.798333	0.013573	-0.011215	0.007283
815	4.104668	0.005000	1.412640	9.810000	0.233700	-0.738599	-0.644776	0.798333	0.013778	-0.005803	0.002470
816	4.109668	0.005000	1.489804	9.810000	0.196200	-0.738051	-0.644776	0.798333	0.013192	-0.014754	0.001558
817	4.114668	0.005000	1.603637	9.891082	0.311318	-0.737502	-0.644776	0.798333	0.015049	-0.007974	0.007388
818	4.119668	0.005000	1.569600	9.854246	0.274680	-0.737672	-0.644704	0.798975	0.018386	-0.012404	0.001706
819	4.124668	0.005000	1.505793	9.888480	0.252670	-0.738221	-0.644595	0.799955	0.010479	-0.010385	-0.000814
820	4.129668	0.005000	1.461246	9.879114	0.214932	-0.738769	-0.644485	0.800935	0.007083	-0.011792	0.002709
821	4.134668	0.005000	1.435906	9.916087	0.113378	-0.739318	-0.644375	0.801915	0.014723	-0.006979	-0.000830
822	4.139668	0.005000	1.438167	9.966960	0.272782	-0.739866	-0.644266	0.802895	0.011227	-0.003769	-0.005445
823	4.144668	0.005000	1.592718	9.936845	0.313920	-0.740415	-0.644156	0.803875	0.003374	-0.015563	0.008460
824	4.149668	0.005000	1.606238	9.885878	0.277282	-0.740964	-0.644046	0.804855	0.013834	-0.007247	0.005269
825	4.154668	0.005000	1.550837	9.849240	0.197914	-0.741512	-0.643937	0.805835	0.021145	-0.004441	0.002819
826	4.159668	0.005000	1.530360	9.944345	0.212825	-0.742061	-0.643827	0.806816	0.011204	-0.011521	0.002765
827	4.164668	0.005000	1.544595	9.874245	0.167731	-0.742609	-0.643717	0.807796	0.016937	-0.001444	-0.000127
828	4.169668	0.005000	1.545603	9.849240	0.220197	-0.743158	-0.643608	0.808776	0.017539	-0.008065	0.007152
829	4.174668	0.005000	1.432517	9.917781	0.264741	-0.743706	-0.643498	0.809756	0.019473	-0.010563	0.001662
830	4.179668	0.005000	1.467160	9.849240	0.259400	-0.744255	-0.643388	0.810736	0.015320	-0.015338	0.001563
831	4.184668	0.005000	1.462348	9.854474	0.141258	-0.744831	-0.643306	0.811741	0.011136	-0.013523	0.002854
832	4.189668	0.005000	1.612130	9.960379	0.160250	-0.745928	-0.643745	0.813211	0.016250	-0.007312	-0.002108
833	4.194668	0.005000	1.451880	9.889353	0.158705	-0.747025	-0.644184	0.814681	0.021325	-0.008140	0.011824
834	4.199668	0.005000	1.451880	9.851383	0.197271	-0.748122	-0.644622	0.816151	0.006736	-0.003238	0.001010
835	4.204668	0.005000	1.448405	9.849240	0.310445	-0.749219	-0.645061	0.817621	0.005725	-0.014860	-0.006714
836	4.209668	0.005000	1.524551	9.849240	0.252867	-0.750316	-0.645500	0.819091	0.013744	-0.004727	0.002255
837	4.214668	0.005000	1.522536	9.919896	0.282504	-0.751413	-0.645939	0.820561	0.011885	-0.010395	-0.001827
838	4.219668	0.005000	1.588600	9.801120	0.284800	-0.752510	-0.646378	0.822031	0.015426	-0.017454	0.011718
839	4.224668	0.005000	1.542542	9.810000	0.340978	-0.753607	-0.646817	0.823501	0.016077	-0.014441	0.002175
840	4.229668	0.005000	1.530360	9.824591	0.313920	-0.754704	-0.647255	0.824971	0.015391	-0.013496	0.002695
841	4.234668	0.005000	1.451880	9.871945	0.336625	-0.755801	-0.647694	0.826441	0.014130	-0.007650	0.000583
842	4.239668	0.005000	1.570947	9.889827	0.276027	-0.756898	-0.648133	0.827912	0.013958	-0.007451	0.000174
843	4.244668	0.005000	1.590702	9.885515	0.250613	-0.757996	-0.648572	0.829382	0.015840	-0.014725	0.001511
844	4.249668	0.005000	1.553662	9.927720	0.234230	-0.759093	-0.649011	0.830852	0.017156	-0.011958	0.000674
845	4.254668	0.005000	1.504946	9.966960	0.156960	-0.759359	-0.649059	0.830631	0.018497	-0.019121	-0.005315
846	4.259668	0.005000	1.553531	9.853724	0.207785	-0.758592	-0.648620	0.828304	0.021053	-0.001002	0.000715
847	4.264668	0.005000	1.532917	9.927720	0.217098	-0.757824	-0.648181	0.825978	0.011726	-0.007905	0.009411
848	4.269668	0.005000	1.498346	9.881254	0.220987	-0.757057	-0.647743	0.823651	0.005014	-0.012372	0.006414
849	4.274668	0.005000	1.486299	9.814821	0.201021	-0.756289	-0.647304	0.821324	0.005355	-0.007863	0.000591
850	4.279668	0.005000	1.486284	9.844404	0.277098	-0.755521	-0.646866	0.818998	0.010974	-0.007515	0.003444
851	4.284668	0.005000	1.412640	9.810474	0.313920	-0.754754	-0.646427	0.816671	0.014970	-0.010435	-0.002088
852	4.289668	0.005000	1.487278	9.886559	0.313920	-0.753986	-0.645988	0.814345	0.012158	-0.019922	0.002512
853	4.294668	0.005000	1.534247	9.810000	0.349273	-0.753219	-0.645550	0.812018	0.018137	-0.013528	0.004623
854	4.299668	0.005000	1.569600	9.816217	0.235440	-0.752451	-0.645111	0.809692	0.024257	-0.009213	-0.003149
855	4.304668	0.005000	1.499357	9.849240	0.196200	-0.751684	-0.644672	0.807365	0.018341	-0.007084	0.002977
856	4.309668	0.005000	1.548297	9.859892	0.292617	-0.750916	-0.644234	0.805038	0.016799	-0.008343	0.002924
857	4.314668	0.005000	1.517765	9.822595	0.196200	-0.750149	-0.643795	0.802712	0.015194	-0.013384	0.005739
858	4.319668	0.005000	1.515356	9.800768	0.190428	-0.749381	-0.643357	0.800385	0.012460	-0.002389	-0.003877
859	4.324668	0.005000	1.552385	9.832025	0.257465	-0.749071	-0.643467	0.800613	0.009306	-0.011192	0.001158
860	4.329668	0.005000	1.550240	9.888480	0.294560	-0.748852	-0.643686	0.801348	0.012717	-0.012763	0.006436
861	4.334668	0.005000	1.569600	9.853022	0.274680	-0.748632	-0.643906	0.802082	0.017530	-0.009208	0.011413
862	4.339668	0.005000	1.561409	9.849240	0.313920	-0.748413	-0.644125	0.802817	0.011228	-0.009067	0.006486
863	4.344668	0.005000	1.503524	9.836836	0.209618	-0.748194	-0.644344	0.803552	0.010297	-0.007771	0.000291
864	4.349668	0.005000	1.519184	9.866127	0.246616	-0.747974	-0.644564	0.804287	0.010464	-0.011796	0.000369
865	4.354668	0.005000	1.461002	9.849240	0.295677	-0.747755	-0.644783	0.805021	0.013616	-0.008543	-0.002031
866	4.359668	0.005000	1.530360	9.816826	0.209851	-0.747536	-0.645002	0.805756	0.011247	-0.009887	-0.006774
867	4.364668	0.005000	1.530360	9.854066	0.274680	-0.747317	-0.645221	0.806491	0.014831	-0.010775	-0.000611
868	4.369668	0.005000	1.532825	9.890945	0.149565	-0.747097	-0.645441	0.807225	0.011817	-0.009549	-0.005947
869	4.374668	0.005000	1.529846	9.888480	0.080023	-0.746878	-0.645660	0.807960	0.007583	-0.008592	0.002913
870	4.379668	0.005000	1.528477	9.851123	0.308271	-0.746659	-0.645879	0.808695	0.003743	-0.005188	-0.008816
871	4.384668	0.005000	1.521859	9.810000	0.301168	-0.746439	-0.646099	0.809430	0.007058	-0.012122	-0.001885
872	4.389668	0.005000	1.503608	9.836752	0.274680	-0.746122	-0.646146	0.809836	0.012501	-0.012240	0.004865
873	4.394668	0.005000	1.421187	9.879933	0.305373	-0.745464	-0.645598	0.809101	0.015343	-0.008004	-0.001159
874	4.399668	0.005000	1.469931	9.906531	0.342565	-0.744806	-0.645050	0.808366	0.011424	-0.016794	0.009863
875	4.404668	0.005000	1.478262	9.862098	0.326778	-0.744148	-0.644501	0.807632	0.015717	-0.007065	0.003959
876	4.409668	0.005000	1.476168	9.903432	0.250392	-0.743490	-0.643953	0.806897	0.018157	-0.013475	0.005287
877	4.414668	0.005000	1.386245	9.849240	0.218078	-0.742832	-0.643405	0.806162	0.007643	-0.010074	0.006555
878	4.419668	0.005000	1.373400	9.888480	0.274498	-0.742174	-0.642857	0.805427	0.012221	-0.015673	0.002512
879	4.424668	0.005000	1.451880	9.849240	0.187841	-0.741516	-0.642308	0.804693	0.002042	-0.017124	0.009468
880	4.429668	0.005000	1.491120	9.912599	0.322919	-0.740858	-0.641760	0.803958	0.004134	-0.013250	0.003728
881	4.434668	0.005000	1.491120	9.849240	0.248465	-0.740200	-0.641212	0.803223	0.007865	-0.014279	0.002539
882	4.439668	0.005000	1.473406	9.866954	0.296206	-0.739542	-0.640663	0.802489	0.003085	-0.007151	-0.002561
883	4.444668	0.005000	1.578313	9.849240	0.305207	-0.738884	-0.640115	0.801754	0.014940	-0.011549	0.001514
884	4.449668	0.005000	1.563188	9.849240	0.176197	-0.738226	-0.639567	0.801019	0.011958	-0.015689	0.007369
885	4.454668	0.005000	1.491120	9.782748	0.243432	-0.737568	-0.639018	0.800284	0.017030	-0.012762	-0.009154
886	4.459668	0.005000	1.565546	9.894561	0.274680	-0.738053	-0.639075	0.799925	0.014959	-0.008787	0.003505
887	4.464668	0.005000	1.491120	9.889536	0.352456	-0.739259	-0.639514	0.799802	0.006435	-0.012618	-0.008465
888	4.469668	0.005000	1.451880	9.849240	0.348567	-0.740466	-0.639953	0.799680	0.005767	-0.011181	0.005134
889	4.474668	0.005000	1.530360	9.853954	0.348446	-0.741673	-0.640391	0.799557	-0.002809	-0.012328	0.001357
890	4.479668	0.005000	1.458914	9.959926	0.367228	-0.742880	-0.640830	0.799435	0.006413	-0.015475	0.006842
891	4.484668	0.005000	1.569600	9.957896	0.383336	-0.744086	-0.641269	0.799312	0.007851	-0.014207	0.001667
892	4.489668	0.005000	1.597373	9.899947	0.364627	-0.745293	-0.641708	0.799190	0.006302	-0.007497	-0.000416
893	4.494668	0.005000	1.583320	9.862960	0.264802	-0.746500	-0.642147	0.799067	0.014085	-0.009405	0.007385
894	4.499668	0.005000	1.553775	9.849240	0.258855	-0.747707	-0.642585	0.798945	0.004096	-0.009312	-0.001211
895	4.504668	0.005000	1.569600	9.888480	0.214217	-0.748914	-0.643024	0.798822	0.003437	-0.009327	0.004612
896	4.509668	0.005000	1.570718	9.868301	0.253384	-0.750120	-0.643463	0.798700	0.003878	-0.009688	0.004120
897	4.514668	0.005000	1.530360	9.961544	0.291592	-0.751327	-0.643902	0.798577	0.004638	-0.002434	0.003154
898	4.519668	0.005000	1.466587	9.976785	0.299213	-0.752534	-0.644341	0.798455	0.002120	-0.008181	0.002586
899	4.524668	0.005000	1.530360	9.940014	0.260028	-0.753724	-0.644775	0.798333	0.001766	-0.006776	0.005324
900	4.529668	0.005000	1.569600	9.869939	0.371701	-0.752847	-0.644666	0.798333	0.006891	-0.012256	0.007563
901	4.534668	0.005000	1.553714	9.865126	0.313920	-0.751969	-0.644556	0.798333	0.005970	-0.006912	-0.004826
902	4.539668	0.005000	1.463879	9.815999	0.280679	-0.751092	-0.644446	0.798333	0.010575	-0.013649	0.002670
903	4.544668	0.005000	1.459045	9.888480	0.164125	-0.750215	-0.644337	0.798333	0.012159	-0.009883	0.006022
904	4.549668	0.005000	1.455156	9.810000	0.353160	-0.749338	-0.644227	0.798333	0.012324	-0.007304	-0.004887
905	4.554668	0.005000	1.491876	9.810000	0.391644	-0.748461	-0.644117	0.798333	0.015712	-0.009317	0.007923
906	4.559668	0.005000	1.524942	9.849240	0.355869	-0.747583	-0.644008	0.798333	0.006781	-0.009010	0.012797
907	4.564668	0.005000	1.535474	9.775874	0.324147	-0.746706	-0.643898	0.798333	0.012386	-0.010905	0.009873
908	4.569668	0.005000	1.530360	9.864125	0.299035	-0.745829	-0.643789	0.798333	-0.004430	-0.014890	0.002806
909	4.574668	0.005000	1.608840	9.849240	0.284153	-0.744952	-0.643679	0.798333	0.004030	-0.013996	0.003859
910	4.579668	0.005000	1.530360	9.915981	0.251203	-0.744074	-0.643569	0.798333	0.018172	-0.010217	0.003993
911	4.584668	0.005000	1.583425	9.941545	0.247030	-0.743197	-0.643460	0.798333	0.009729	-0.006253	-0.000144
912	4.589668	0.005000	1.530360	9.888480	0.281444	-0.742320	-0.643350	0.798333	0.012374	-0.015087	-0.002414
913	4.594668	0.005000	1.551419	9.828181	0.295739	-0.741922	-0.643284	0.798333	0.007981	-0.009904	-0.001387
914	4.599668	0.005000	1.491120	9.772704	0.256032	-0.742251	-0.643284	0.798333	0.010790	-0.014928	0.000464
915	4.604668	0.005000	1.412640	9.803768	0.150728	-0.742580	-0.643284	0.798333	0.009341	-0.010822	0.005653
916	4.609668	0.005000	1.466174	9.849240	0.206852	-0.742909	-0.643284	0.798333	0.006910	-0.005116	-0.002215
917	4.614668	0.005000	1.451880	9.824825	0.154343	-0.743238	-0.643284	0.798333	0.015381	-0.015634	0.001869
918	4.619668	0.005000	1.481689	9.819936	0.196200	-0.743567	-0.643284	0.798333	0.007602	-0.011878	-0.002888
919	4.624668	0.005000	1.514567	9.865033	0.235440	-0.743897	-0.643284	0.798333	0.017563	-0.005832	0.002982
920	4.629668	0.005000	1.547125	9.995024	0.297155	-0.744226	-0.643284	0.798333	0.006510	-0.013839	0.003873
921	4.634668	0.005000	1.530360	9.884880	0.207001	-0.744555	-0.643284	0.798333	0.013294	-0.006659	-0.000347
922	4.639668	0.005000	1.569600	9.810000	0.236680	-0.744884	-0.643284	0.798333	0.011755	-0.014060	0.004672
923	4.644668	0.005000	1.531525	9.886150	0.350830	-0.745213	-0.643284	0.798333	0.017900	-0.009038	0.000705
924	4.649668	0.005000	1.530360	9.891602	0.310798	-0.745542	-0.643284	0.798333	0.011885	-0.015583	0.004881
925	4.654668	0.005000	1.676398	9.961499	0.235440	-0.745872	-0.643284	0.798333	0.015040	-0.008698	0.000361
926	4.659668	0.005000	1.481765	9.952017	0.218614	-0.746201	-0.643284	0.798333	0.018508	-0.016052	-0.002064
927	4.664668	0.005000	1.559713	9.859127	0.235440	-0.746356	-0.643110	0.798527	0.019955	-0.010427	0.000070
928	4.669668	0.005000	1.502950	9.833660	0.333249	-0.746466	-0.642891	0.798772	0.005441	-0.013050	-0.001336
929	4.674668	0.005000	1.516122	9.899243	0.249678	-0.746575	-0.642671	0.799017	0.010325	-0.012762	0.001275
930	4.679668	0.005000	1.484797	9.904938	0.268357	-0.746685	-0.642452	0.799262	0.017104	-0.009932	-0.008218
931	4.684668	0.005000	1.571651	9.830645	0.293275	-0.746795	-0.642232	0.799507	0.014882	-0.008177	0.004969
932	4.689668	0.005000	1.571869	9.807731	0.290896	-0.746904	-0.642013	0.799753	0.013972	-0.005180	-0.002878
933	4.694668	0.005000	1.491120	9.888480	0.281340	-0.747014	-0.641794	0.799998	0.013219	-0.008083	-0.002884
934	4.699668	0.005000	1.479653	9.860707	0.246907	-0.747124	-0.641574	0.800243	0.016582	-0.013190	0.006189
935	4.704668	0.005000	1.554244	9.837298	0.247382	-0.747233	-0.641355	0.800488	0.008308	-0.009245	0.002484
936	4.709668	0.005000	1.539895	9.829069	0.343625	-0.747343	-0.641135	0.800733	0.002024	-0.009085	0.003753
937	4.714668	0.005000	1.498623	9.895983	0.282183	-0.747453	-0.640916	0.800978	0.010079	-0.009319	-0.002212
938	4.719668	0.005000	1.491120	9.922545	0.274680	-0.747562	-0.640697	0.801223	0.012024	-0.011102	0.003806
939	4.724668	0.005000	1.407100	9.852010	0.198970	-0.747672	-0.640477	0.801468	0.008653	-0.010764	0.000278
940	4.729668	0.005000	1.414293	9.850893	0.235440	-0.747637	-0.640278	0.801621	0.003857	-0.006441	0.000254
941	4.734668	0.005000	1.566454	9.814720	0.273107	-0.746979	-0.640169	0.801376	0.009730	-0.015168	0.005467
942	4.739668	0.005000	1.491120	9.810000	0.199735	-0.746321	-0.640059	0.801131	0.009914	-0.013918	0.004762
943	4.744668	0.005000	1.557719	9.776700	0.268740	-0.745663	-0.639949	0.800886	0.006760	-0.010072	0.001029
944	4.749668	0.005000	1.459765	9.849240	0.258911	-0.745004	-0.639839	0.800641	-0.000063	-0.010385	-0.009966
945	4.754668	0.005000	1.540660	9.888480	0.334519	-0.744346	-0.639730	0.800396	0.007855	-0.018615	0.001069
946	4.759668	0.005000	1.531933	9.875924	0.339031	-0.743688	-0.639620	0.800151	0.010247	-0.017195	0.006772
947	4.764668	0.005000	1.520424	9.888480	0.235440	-0.743030	-0.639510	0.799906	0.007213	-0.009987	0.004755
948	4.769668	0.005000	1.474268	9.871628	0.319457	-0.742372	-0.639400	0.799660	0.015763	-0.015324	0.001246
949	4.774668	0.005000	1.491120	9.829000	0.373400	-0.741713	-0.639291	0.799415	0.008831	-0.014533	0.001774
950	4.779668	0.005000	1.530360	9.810000	0.356741	-0.741055	-0.639181	0.799170	0.008437	-0.014713	0.005005
951	4.784668	0.005000	1.569600	9.810000	0.274680	-0.740397	-0.639071	0.798925	0.011653	-0.018562	0.002120
952	4.789668	0.005000	1.543833	9.888480	0.288153	-0.739739	-0.638962	0.798680	0.012240	-0.009896	-0.005363
953	4.794668	0.005000	1.362009	9.849240	0.313920	-0.739080	-0.638852	0.798435	0.005834	-0.015842	0.005545
954	4.799668	0.005000	1.373400	9.858361	0.313920	-0.739062	-0.638998	0.798476	0.011334	-0.003407	-0.008565
955	4.804668	0.005000	1.412640	9.881774	0.242146	-0.739500	-0.639327	0.798721	0.010053	-0.011841	0.006489
956	4.809668	0.005000	1.417345	9.844535	0.274680	-0.739939	-0.639656	0.798966	0.002880	-0.008526	0.005622
957	4.814668	0.005000	1.488763	9.851597	0.387686	-0.740378	-0.639985	0.799211	0.014697	-0.004697	-0.000617
958	4.819668	0.005000	1.451880	9.887255	0.313103	-0.740816	-0.640314	0.799456	0.011474	-0.013543	-0.000207
959	4.824668	0.005000	1.526350	9.807995	0.347145	-0.741255	-0.640643	0.799701	0.012150	-0.005550	-0.003972
960	4.829668	0.005000	1.455828	9.845292	0.278628	-0.741693	-0.640972	0.799946	0.021675	-0.013626	-0.000582
961	4.834668	0.005000	1.602486	9.855594	0.248147	-0.742132	-0.641301	0.800190	0.016144	-0.007107	0.001336
962	4.839668	0.005000	1.508426	9.897133	0.375094	-0.742571	-0.641630	0.800435	0.015172	-0.004741	0.002075
963	4.844668	0.005000	1.491120	9.810000	0.303218	-0.743009	-0.641959	0.800680	0.012500	-0.011308	0.000961
964	4.849668	0.005000	1.478004	9.770760	0.379284	-0.743448	-0.642288	0.800925	0.016565	-0.012414	-0.005731
965	4.854668	0.005000	1.436541	9.770760	0.290019	-0.743887	-0.642617	0.801170	0.011006	-0.011419	0.004106
966	4.859668	0.005000	1.573902	9.888480	0.318222	-0.744325	-0.642946	0.801415	0.008444	-0.002772	-0.004131
967	4.864668	0.005000	1.530421	9.888541	0.333449	-0.744764	-0.643275	0.801660	0.013764	-0.009035	0.006503
968	4.869668	0.005000	1.547776	9.788176	0.374984	-0.745096	-0.643177	0.801786	0.014382	-0.010996	0.010003
969	4.874668	0.005000	1.539013	9.864534	0.377106	-0.745425	-0.643068	0.801908	0.025088	-0.005531	-0.001369
970	4.879668	0.005000	1.451880	9.862300	0.353221	-0.745754	-0.642958	0.802031	0.022455	-0.019121	0.005829
971	4.884668	0.005000	1.513085	9.831965	0.296645	-0.746083	-0.642848	0.802153	0.024590	-0.006906	0.003230
972	4.889668	0.005000	1.499828	9.879772	0.235440	-0.746412	-0.642739	0.802276	0.019161	-0.008010	0.007262
973	4.894668	0.005000	1.497412	9.855532	0.268388	-0.746741	-0.642629	0.802398	0.000513	-0.009354	0.004825
974	4.899668	0.005000	1.530360	9.810000	0.196200	-0.747070	-0.642519	0.802520	0.006075	-0.011844	0.002002
975	4.904668	0.005000	1.567656	9.810000	0.198144	-0.747399	-0.642410	0.802643	0.003661	-0.010211	-0.000854
976	4.909668	0.005000	1.569600	9.810000	0.313920	-0.747728	-0.642300	0.802765	0.006754	-0.004850	-0.002783
977	4.914668	0.005000	1.495927	9.886076	0.235440	-0.748057	-0.642190	0.802888	0.009706	-0.013838	-0.000687
978	4.919668	0.005000	1.565252	9.884132	0.348812	-0.748386	-0.642080	0.803010	0.009380	-0.008068	-0.001510
979	4.924668	0.005000	1.426169	9.810000	0.366689	-0.748715	-0.641971	0.803132	0.012398	-0.013886	0.002145
980	4.929668	0.005000	1.421701	9.888480	0.283741	-0.749044	-0.641861	0.803255	0.013490	-0.005394	-0.002544
981	4.934668	0.005000	1.440765	9.877365	0.291690	-0.749650	-0.642267	0.803776	0.014449	-0.014007	0.002876
982	4.939668	0.005000	1.503302	9.914191	0.353160	-0.750748	-0.643583	0.805001	0.008429	-0.009086	0.000772
983	4.944668	0.005000	1.530360	9.904227	0.353160	-0.751845	-0.644900	0.806226	0.009753	-0.008367	0.000234
984	4.949668	0.005000	1.551718	9.867122	0.317395	-0.752942	-0.646216	0.807451	0.011588	-0.011369	0.007025
985	4.954668	0.005000	1.550419	9.829181	0.255499	-0.754039	-0.647533	0.808676	0.019461	-0.016427	0.000650
986	4.959668	0.005000	1.552597	9.888480	0.291683	-0.755136	-0.648849	0.809901	0.015869	-0.012764	-0.001854
987	4.964668	0.005000	1.466471	9.878421	0.190673	-0.756233	-0.650165	0.811126	0.009689	-0.015081	0.006220
988	4.969668	0.005000	1.478625	9.966960	0.221190	-0.757330	-0.651482	0.812351	0.012507	-0.007025	-0.003021
989	4.974668	0.005000	1.511605	9.937963	0.235440	-0.758427	-0.652798	0.813576	0.005141	-0.016820	0.000316
990	4.979668	0.005000	1.476774	9.927720	0.274680	-0.759524	-0.654115	0.814801	0.007181	-0.014284	-0.003399
991	4.984668	0.005000	1.491120	9.972852	0.341376	-0.760621	-0.655431	0.816027	0.007182	-0.012171	-0.000342
992	4.989668	0.005000	1.495068	9.963012	0.231492	-0.761718	-0.656748	0.817252	-0.000064	-0.005949	-0.000387
993	4.994668	0.005000	1.528829	9.850771	0.274680	-0.762815	-0.658064	0.818477	0.010989	-0.001070	0.003078
994	4.999668	0.005000	1.491120	9.849653	0.197026	-0.763912	-0.659381	0.819702	0.012589	-0.006837	0.003986
995	5.004668	0.005000	1.449063	9.927720	0.341892	-0.763266	-0.658871	0.818795	0.017965	-0.005961	-0.004684
996	5.009668	0.005000	1.535534	9.864761	0.358334	-0.762059	-0.657774	0.817202	0.013620	-0.011756	0.003313
997	5.014668	0.005000	1.505475	9.881302	0.249795	-0.760852	-0.656677	0.815610	0.014142	-0.003198	0.002749
998	5.019668	0.005000	1.500590	9.879010	0.343690	-0.759646	-0.655580	0.814017	0.017519	-0.006066	0.005072
999	5.024668	0.005000	1.518831	9.837711	0.380871	-0.758439	-0.654483	0.812425	0.013656	-0.011801	0.006439
1000	5.029668	0.005000	1.530360	9.902261	0.341482	-0.757232	-0.653386	0.810832	0.014735	-0.017484	0.008429
1001	5.034668	0.005000	1.451880	9.927720	0.321388	-0.756025	-0.652289	0.809239	0.019010	-0.010090	0.005912
1002	5.039668	0.005000	1.515369	9.849240	0.307748	-0.754818	-0.651192	0.807647	0.008836	-0.003238	0.007849
1003	5.044668	0.005000	1.550600	9.869480	0.313920	-0.753612	-0.650095	0.806054	0.017292	-0.016247	0.005055
1004	5.049668	0.005000	1.451880	9.871884	0.229392	-0.752405	-0.648998	0.804462	0.019381	-0.008840	0.010096
1005	5.054668	0.005000	1.437228	9.810000	0.196200	-0.751198	-0.647901	0.802869	0.011823	-0.010993	0.007654
1006	5.059668	0.005000	1.555471	9.795871	0.353160	-0.749991	-0.646804	0.801276	0.024873	-0.012178	0.002774
1007	5.064668	0.005000	1.491120	9.830599	0.274680	-0.748785	-0.645707	0.799684	0.021938	-0.009642	-0.003731
1008	5.069668	0.005000	1.389169	9.919835	0.298151	-0.747678	-0.644709	0.798296	0.032105	-0.011709	-0.000265
1009	5.074668	0.005000	1.497060	9.855180	0.247321	-0.747129	-0.644270	0.798051	0.022575	-0.007920	-0.000831
1010	5.079668	0.005000	1.530360	9.845705	0.238975	-0.746580	-0.643831	0.797806	0.016234	-0.012812	-0.002886
1011	5.084668	0.005000	1.530360	9.808427	0.237013	-0.746032	-0.643392	0.797560	0.016056	-0.012757	0.001904
1012	5.089668	0.005000	1.530360	9.809174	0.236266	-0.745483	-0.642953	0.797315	0.014669	-0.003765	-0.002564
1013	5.094668	0.005000	1.566830	9.882940	0.384090	-0.744934	-0.642514	0.797070	0.018395	-0.013503	0.000428
1014	5.099668	0.005000	1.433339	9.961785	0.245790	-0.744385	-0.642075	0.796825	0.008622	-0.017775	-0.008988
1015	5.104668	0.005000	1.562481	9.927720	0.385281	-0.743837	-0.641636	0.796580	0.016353	-0.016127	0.008640
1016	5.109668	0.005000	1.461415	9.849240	0.353160	-0.743288	-0.641197	0.796335	0.008787	-0.013702	-0.008594
1017	5.114668	0.005000	1.463679	9.833598	0.259038	-0.742739	-0.640758	0.796090	0.008210	-0.011584	-0.006077
1018	5.119668	0.005000	1.544241	9.849240	0.235440	-0.742190	-0.640319	0.795845	0.017735	-0.013105	0.003665
1019	5.124668	0.005000	1.523311	9.904575	0.235440	-0.741642	-0.639880	0.795600	0.017761	-0.009458	0.002739
1020	5.129668	0.005000	1.527589	9.846469	0.277451	-0.741093	-0.639441	0.795355	0.022724	-0.018587	0.004531
1021	5.134668	0.005000	1.549193	9.908887	0.274680	-0.740544	-0.639002	0.795110	0.003388	-0.013071	0.006975
1022	5.139668	0.005000	1.563662	9.888480	0.425702	-0.740420	-0.638988	0.795135	0.016724	-0.009556	-0.005289
1023	5.144668	0.005000	1.608840	9.903017	0.377863	-0.740640	-0.639317	0.795380	0.021164	-0.008535	-0.001491
1024	5.149668	0.005000	1.493478	9.903132	0.272322	-0.740859	-0.639646	0.795625	0.012141	-0.006284	-0.005806
1025	5.154668	0.005000	1.402414	9.830452	0.332708	-0.741078	-0.639975	0.795870	0.006355	-0.013682	0.000670
1026	5.159668	0.005000	1.467766	9.849240	0.290566	-0.741298	-0.640304	0.796115	0.023083	-0.002761	-0.002090
1027	5.164668	0.005000	1.519306	9.922193	0.347633	-0.741517	-0.640633	0.796360	0.027185	-0.008944	-0.006145
1028	5.169668	0.005000	1.562435	9.888480	0.321085	-0.741736	-0.640962	0.796605	0.013475	-0.010299	0.004643
1029	5.174668	0.005000	1.451880	9.887302	0.311563	-0.741956	-0.641291	0.796850	0.009161	-0.013969	0.000508
1030	5.179668	0.005000	1.528829	9.887714	0.235440	-0.742175	-0.641620	0.797094	0.006665	-0.013281	0.003128
1031	5.184668	0.005000	1.527191	9.816338	0.238609	-0.742394	-0.641949	0.797339	0.011707	-0.004493	-0.005053
1032	5.189668	0.005000	1.462107	9.765646	0.230326	-0.742613	-0.642278	0.797584	0.017845	-0.017934	-0.004100
1033	5.194668	0.005000	1.593781	9.810000	0.173611	-0.742833	-0.642607	0.797829	0.015493	-0.008653	-0.000999
1034	5.199668	0.005000	1.481333	9.878662	0.156960	-0.743052	-0.642936	0.798074	0.016763	-0.008894	-0.002814
1035	5.204668	0.005000	1.554121	9.755281	0.196200	-0.743271	-0.643265	0.798319	0.017620	-0.013020	0.004103
1036	5.209668	0.005000	1.476991	9.810000	0.260551	-0.743181	-0.643077	0.798333	0.017234	-0.004143	0.011514
1037	5.214668	0.005000	1.468118	9.865478	0.290918	-0.743071	-0.642858	0.798333	0.024376	-0.015211	0.006901
1038	5.219668	0.005000	1.433232	9.909072	0.194256	-0.742961	-0.642639	0.798333	0.016755	-0.011004	-0.000061
1039	5.224668	0.005000	1.489176	9.871777	0.097128	-0.742852	-0.642419	0.798333	0.011983	-0.014692	-0.002570
1040	5.229668	0.005000	1.592602	9.833002	0.196200	-0.742742	-0.642200	0.798333	0.014690	-0.014762	-0.006545
1041	5.234668	0.005000	1.466009	9.795871	0.274680	-0.742632	-0.641981	0.798333	0.010654	-0.010859	-0.006186
1042	5.239668	0.005000	1.585079	9.821881	0.235440	-0.742522	-0.641761	0.798333	0.009870	-0.011606	-0.000063
1043	5.244668	0.005000	1.540147	9.849240	0.274680	-0.742413	-0.641542	0.798333	0.002708	-0.012468	0.000968
1044	5.249668	0.005000	1.522830	9.841710	0.282210	-0.742303	-0.641323	0.798333	0.013063	-0.012231	0.005107
1045	5.254668	0.005000	1.412640	9.815521	0.235440	-0.742193	-0.641104	0.798333	0.011626	-0.007641	0.000807
1046	5.259668	0.005000	1.491120	9.894847	0.202567	-0.742084	-0.640884	0.798333	0.014831	-0.013472	0.004022
1047	5.264668	0.005000	1.453411	9.966194	0.352394	-0.741974	-0.640665	0.798333	0.010482	-0.017680	0.003833
1048	5.269668	0.005000	1.568422	9.889658	0.275858	-0.741864	-0.640446	0.798333	0.009992	-0.010902	-0.001353
1049	5.274668	0.005000	1.498200	9.817080	0.199740	-0.741937	-0.640335	0.798577	-0.005306	-0.009713	-0.002746
1050	5.279668	0.005000	1.434748	9.781814	0.347633	-0.742376	-0.640445	0.799312	-0.000880	-0.012749	0.001301
1051	5.284668	0.005000	1.483177	9.880537	0.345217	-0.742815	-0.640555	0.800048	0.011972	-0.014591	0.012971
1052	5.289668	0.005000	1.501007	9.917833	0.304033	-0.743254	-0.640665	0.800783	-0.006088	-0.004054	-0.000474
1053	5.294668	0.005000	1.451880	9.849240	0.220788	-0.743693	-0.640774	0.801518	0.000950	-0.005019	-0.008642
1054	5.299668	0.005000	1.515823	9.952423	0.328457	-0.744132	-0.640884	0.802254	0.010230	-0.011635	0.003518
1055	5.304668	0.005000	1.547011	9.944371	0.196200	-0.744571	-0.640994	0.802989	0.006246	-0.001884	0.001979
1056	5.309668	0.005000	1.629247	9.886907	0.156960	-0.745010	-0.641103	0.803724	-0.000682	-0.016853	0.008310
1057	5.314668	0.005000	1.493891	9.849240	0.117720	-0.745449	-0.641213	0.804460	0.013277	-0.010875	0.011042
1058	5.319668	0.005000	1.451880	9.849240	0.172785	-0.745888	-0.641323	0.805195	0.018754	-0.008448	-0.003055
1059	5.324668	0.005000	1.477400	9.837441	0.251082	-0.746327	-0.641433	0.805931	0.016044	-0.007708	-0.002945
1060	5.329668	0.005000	1.463358	9.911436	0.286158	-0.746766	-0.641542	0.806666	0.008552	-0.005314	-0.003481
1061	5.334668	0.005000	1.472271	9.908871	0.373551	-0.747205	-0.641652	0.807401	0.006536	-0.008919	0.011301
1062	5.339668	0.005000	1.623078	9.934839	0.274680	-0.747644	-0.641762	0.808137	0.006081	-0.009630	0.000601
1063	5.344668	0.005000	1.682606	9.927720	0.343733	-0.747359	-0.642113	0.807794	0.012070	-0.013179	-0.003020
1064	5.349668	0.005000	1.533098	9.958746	0.232702	-0.746810	-0.642551	0.807059	0.001602	0.002615	-0.000763
1065	5.354668	0.005000	1.569600	9.810000	0.273624	-0.746262	-0.642990	0.806324	0.011147	-0.016989	-0.002175
1066	5.359668	0.005000	1.531952	9.847648	0.269905	-0.745714	-0.643429	0.805589	0.008440	-0.015465	0.004212
1067	5.364668	0.005000	1.538352	9.923724	0.239436	-0.745165	-0.643868	0.804854	0.001472	-0.005396	-0.000735
1068	5.369668	0.005000	1.503001	9.921780	0.325801	-0.744617	-0.644307	0.804119	0.008781	-0.012371	0.006034
1069	5.374668	0.005000	1.451880	9.818356	0.266324	-0.744068	-0.644746	0.803384	0.001205	-0.001939	0.000730
1070	5.379668	0.005000	1.540994	9.827971	0.246074	-0.743520	-0.645184	0.802649	0.003659	-0.012001	0.002518
1071	5.384668	0.005000	1.477295	9.902305	0.301213	-0.742971	-0.645623	0.801914	0.008532	-0.017987	0.000471
1072	5.389668	0.005000	1.427586	9.873534	0.274680	-0.742423	-0.646062	0.801179	0.013342	-0.012484	-0.001443
1073	5.394668	0.005000	1.373400	9.849240	0.252496	-0.741874	-0.646501	0.800444	0.010837	-0.021311	0.002211
1074	5.399668	0.005000	1.412640	9.947187	0.274680	-0.741326	-0.646940	0.799709	0.006483	-0.016287	0.000011
1075	5.404668	0.005000	1.369406	9.853234	0.288310	-0.740777	-0.647378	0.798974	0.017131	-0.019019	-0.000644
1076	5.409668	0.005000	1.412640	9.888480	0.313920	-0.740369	-0.647817	0.798396	0.017092	-0.017832	0.002301
1077	5.414668	0.005000	1.438871	9.862249	0.392186	-0.740918	-0.648256	0.798886	0.016683	-0.014397	-0.002284
1078	5.419668	0.005000	1.519423	9.849240	0.335794	-0.741466	-0.648694	0.799375	0.010188	-0.012954	0.007117
1079	5.424668	0.005000	1.608840	9.857890	0.353160	-0.742014	-0.649133	0.799865	0.010248	-0.010144	0.003301
1080	5.429668	0.005000	1.549723	9.895106	0.242066	-0.742562	-0.649572	0.800355	0.016637	-0.012638	0.003475
1081	5.434668	0.005000	1.530360	9.857841	0.274680	-0.743110	-0.650010	0.800845	0.011937	-0.008565	-0.004581
1082	5.439668	0.005000	1.455646	9.927720	0.315803	-0.743659	-0.650449	0.801335	0.016768	-0.009887	-0.002279
1083	5.444668	0.005000	1.530360	9.888541	0.392339	-0.744207	-0.650888	0.801825	0.018978	-0.007526	0.001055
1084	5.449668	0.005000	1.495991	9.922849	0.269809	-0.744755	-0.651326	0.802314	0.016974	-0.010134	-0.002590
1085	5.454668	0.005000	1.447471	9.849240	0.279089	-0.745303	-0.651765	0.802804	0.021266	-0.014649	0.002609
1086	5.459668	0.005000	1.530360	9.888480	0.274680	-0.745852	-0.652203	0.803294	0.022990	-0.017558	-0.003174
1087	5.464668	0.005000	1.539117	9.918963	0.283437	-0.746400	-0.652642	0.803784	0.017432	-0.014183	-0.003054
1088	5.469668	0.005000	1.563876	9.910824	0.302748	-0.746948	-0.653081	0.804274	0.028067	-0.012451	-0.005164
1089	5.474668	0.005000	1.530360	9.875062	0.235440	-0.747496	-0.653519	0.804764	0.024737	-0.008250	-0.006981
1090	5.479668	0.005000	1.554075	9.904005	0.298395	-0.747591	-0.653163	0.804556	0.014966	-0.010309	0.008163
1091	5.484668	0.005000	1.551871	9.866969	0.335431	-0.747262	-0.652066	0.803699	0.011495	-0.003161	0.003218
1092	5.489668	0.005000	1.550761	9.869120	0.353680	-0.746933	-0.650969	0.802841	0.021560	-0.005570	0.002796
1093	5.494668	0.005000	1.473905	9.932530	0.183796	-0.746604	-0.649872	0.801984	0.017525	-0.004111	-0.002128
1094	5.499668	0.005000	1.481888	9.825004	0.226208	-0.746274	-0.648775	0.801126	0.001969	-0.013830	-0.002943
1095	5.504668	0.005000	1.478216	9.822904	0.169864	-0.745945	-0.647678	0.800268	0.011711	-0.014384	0.005951
1096	5.509668	0.005000	1.451880	9.859892	0.196200	-0.745616	-0.646581	0.799411	0.018541	-0.011735	-0.000540
1097	5.514668	0.005000	1.499727	9.888480	0.252655	-0.745287	-0.645484	0.798553	0.011659	-0.010048	-0.003834
1098	5.519668	0.005000	1.563308	9.882188	0.340575	-0.744958	-0.644387	0.797696	0.011301	-0.002041	-0.006571
1099	5.524668	0.005000	1.491120	9.849240	0.278567	-0.744629	-0.643290	0.796838	0.006002	-0.007522	0.007466
1100	5.529668	0.005000	1.530360	9.810000	0.310031	-0.744300	-0.642193	0.795981	0.009004	-0.014832	-0.000621
1101	5.534668	0.005000	1.491574	9.771214	0.313012	-0.743971	-0.641096	0.795123	0.000155	-0.008517	0.000189
1102	5.539668	0.005000	1.491120	9.812404	0.279487	-0.743642	-0.639999	0.794266	0.016053	-0.015687	0.005868
1103	5.544668	0.005000	1.525539	9.770760	0.230619	-0.743313	-0.638902	0.793408	0.013701	-0.009408	0.000511
