# FOX Logger (IMU file)
# (c) INRIA 2011-2014
# File created from file sensbiotk output
#
# File format:
# id	t	dt	ax	ay	az	mx	my	mz	gx	gy	gz
#
# Units:
#	Time: s
#	Acceleration: m.s^-2
#	Magneto: gauss
#	Gyrometer: rad/s
#
1	0.058929	0.058929	2.615850	-9.064440	-1.648080	-0.537313	0.044776	-0.348333	0.001760	0.025656	-0.010603
2	0.063929	0.005000	2.573373	-9.041667	-1.608840	-0.537313	0.045228	-0.348207	0.002249	0.027013	-0.021588
3	0.068929	0.005000	2.652410	-9.182160	-1.663990	-0.537313	0.045680	-0.348081	-0.005963	0.026335	-0.015136
4	0.073929	0.005000	2.692667	-9.167267	-1.633187	-0.537313	0.046131	-0.347955	-0.000112	0.015824	-0.004816
5	0.078929	0.005000	2.550600	-9.078320	-1.553318	-0.537313	0.046583	-0.347829	-0.006169	0.033574	-0.019135
6	0.083929	0.005000	2.563195	-9.208077	-1.635485	-0.537313	0.047035	-0.347703	-0.008965	0.020326	-0.004837
7	0.088929	0.005000	2.562900	-9.052140	-1.741199	-0.537313	0.047487	-0.347577	-0.012257	0.026791	-0.003952
8	0.093929	0.005000	2.545613	-9.092262	-1.636662	-0.537313	0.047939	-0.347450	-0.025304	0.016939	-0.017417
9	0.098929	0.005000	2.579104	-8.989662	-1.608840	-0.537313	0.048390	-0.347324	-0.019820	0.019770	-0.016244
10	0.103929	0.005000	2.570267	-9.034939	-1.520526	-0.537313	0.048842	-0.347198	-0.018415	0.021971	-0.018611
11	0.108929	0.005000	2.599011	-8.995131	-1.599669	-0.537313	0.049294	-0.347072	-0.016096	0.019053	-0.010477
12	0.113929	0.005000	2.604341	-9.056194	-1.639834	-0.537313	0.049746	-0.346946	-0.023042	0.022575	-0.015651
13	0.118929	0.005000	2.582249	-9.056849	-1.593658	-0.537313	0.050197	-0.346820	-0.012075	0.016595	-0.020443
14	0.123929	0.005000	2.615943	-9.025200	-1.556634	-0.537313	0.050649	-0.346694	-0.017286	0.021478	-0.010834
15	0.128929	0.005000	2.640309	-9.019585	-1.687320	-0.538111	0.050214	-0.346172	-0.018498	0.017507	-0.016710
16	0.133929	0.005000	2.741796	-8.985960	-1.648080	-0.539128	0.049536	-0.345541	-0.013585	0.010548	-0.010840
17	0.138929	0.005000	2.672301	-9.068421	-1.671395	-0.540144	0.048859	-0.344911	-0.022726	0.027640	-0.017549
18	0.143929	0.005000	2.707560	-9.103680	-1.576478	-0.541160	0.048182	-0.344280	-0.012137	0.017828	-0.019186
19	0.148929	0.005000	2.786040	-9.062023	-1.724143	-0.542176	0.047504	-0.343650	-0.013169	0.013394	-0.007412
20	0.153929	0.005000	2.746800	-9.066299	-1.575177	-0.543192	0.046827	-0.343020	-0.016524	0.019633	-0.022156
21	0.158929	0.005000	2.785203	-9.102006	-1.648080	-0.544208	0.046149	-0.342389	-0.003626	0.004912	-0.009799
22	0.163929	0.005000	2.746800	-8.986130	-1.687150	-0.545224	0.045472	-0.341759	-0.005128	0.015144	-0.007599
23	0.168929	0.005000	2.746072	-9.100768	-1.648080	-0.546240	0.044795	-0.341128	-0.005678	0.012165	-0.000658
24	0.173929	0.005000	2.589840	-8.992962	-1.649831	-0.547256	0.044117	-0.340498	-0.000239	0.014567	-0.010330
25	0.178929	0.005000	2.702014	-9.025200	-1.611613	-0.548272	0.043440	-0.339868	0.000580	0.011490	-0.017040
26	0.183929	0.005000	2.704245	-9.061125	-1.608840	-0.549289	0.042763	-0.339237	0.001755	0.013317	-0.010073
27	0.188929	0.005000	2.733787	-9.103680	-1.674307	-0.550305	0.042085	-0.338607	-0.014199	0.014206	-0.022676
28	0.193929	0.005000	2.741860	-9.103680	-1.672499	-0.550363	0.042174	-0.339046	-0.007093	0.005872	-0.005294
29	0.198929	0.005000	2.634982	-9.009569	-1.648080	-0.549685	0.042852	-0.340308	-0.017581	0.021556	-0.020154
30	0.203929	0.005000	2.661395	-8.985960	-1.576525	-0.549007	0.043530	-0.341569	-0.005809	0.016372	-0.017662
31	0.208929	0.005000	2.597322	-9.049475	-1.530360	-0.548330	0.044207	-0.342830	-0.007366	0.009880	-0.011826
32	0.213929	0.005000	2.559105	-9.002970	-1.622565	-0.547652	0.044885	-0.344092	-0.009041	0.025632	-0.023261
33	0.218929	0.005000	2.550600	-9.016045	-1.599685	-0.546974	0.045563	-0.345353	-0.000455	0.015677	-0.012366
34	0.223929	0.005000	2.697491	-9.005061	-1.716491	-0.546297	0.046240	-0.346614	-0.007174	0.023091	-0.005095
35	0.228929	0.005000	2.780912	-9.053348	-1.754708	-0.545619	0.046918	-0.347875	-0.001856	0.015909	-0.014046
36	0.233929	0.005000	2.680098	-9.040883	-1.581378	-0.544941	0.047596	-0.349137	-0.001578	0.019159	-0.013192
37	0.238929	0.005000	2.615153	-9.077097	-1.753143	-0.544264	0.048273	-0.350398	-0.000192	0.019144	-0.003382
38	0.243929	0.005000	2.629080	-9.115562	-1.622519	-0.543586	0.048951	-0.351659	-0.001501	0.015664	-0.009529
39	0.248929	0.005000	2.654099	-9.025200	-1.673099	-0.542908	0.049629	-0.352921	0.000670	0.019647	-0.008841
40	0.253929	0.005000	2.598593	-9.040444	-1.696073	-0.542231	0.050306	-0.354182	-0.005703	0.018072	-0.005227
41	0.258929	0.005000	2.566866	-9.041466	-1.726560	-0.541553	0.050905	-0.355177	-0.005468	0.020769	-0.021163
42	0.263929	0.005000	2.601025	-9.042024	-1.704144	-0.540875	0.051357	-0.355682	-0.003439	0.012898	-0.010534
43	0.268929	0.005000	2.646926	-9.082286	-1.665926	-0.540197	0.051808	-0.356186	-0.003843	0.010378	-0.017252
44	0.273929	0.005000	2.709567	-9.064440	-1.666696	-0.539520	0.052260	-0.356691	-0.007218	0.023230	-0.021526
45	0.278929	0.005000	2.648491	-9.064440	-1.648080	-0.538842	0.052712	-0.357195	-0.003839	0.012595	-0.005989
46	0.283929	0.005000	2.629080	-9.064440	-1.648080	-0.538164	0.053164	-0.357700	-0.012009	0.018553	-0.014403
47	0.288929	0.005000	2.683873	-9.022489	-1.650791	-0.537487	0.053616	-0.358205	-0.015356	0.009635	-0.012622
48	0.293929	0.005000	2.511360	-9.108436	-1.591598	-0.536809	0.054067	-0.358709	-0.005186	0.020758	-0.002665
49	0.298929	0.005000	2.567014	-9.058028	-1.631666	-0.536131	0.054519	-0.359214	-0.009592	0.016818	-0.013964
50	0.303929	0.005000	2.605517	-9.103680	-1.600955	-0.535454	0.054971	-0.359718	-0.010927	0.014151	-0.012482
51	0.308929	0.005000	2.678250	-9.103680	-1.648080	-0.534776	0.055423	-0.360223	-0.001541	0.024041	-0.009608
52	0.313929	0.005000	2.640728	-9.117476	-1.622636	-0.534098	0.055874	-0.360727	-0.005228	0.024244	-0.010016
53	0.318929	0.005000	2.629080	-9.012125	-1.648080	-0.533421	0.056326	-0.361232	-0.009910	0.021086	-0.019357
54	0.323929	0.005000	2.668320	-9.073410	-1.672185	-0.532820	0.056700	-0.361736	-0.010672	0.015342	-0.012200
55	0.328929	0.005000	2.612860	-8.985960	-1.664300	-0.532707	0.056588	-0.362241	-0.006476	0.014491	-0.009994
56	0.333929	0.005000	2.668320	-8.996448	-1.619328	-0.532595	0.056475	-0.362745	-0.008226	0.017874	-0.013615
57	0.338929	0.005000	2.578996	-9.064440	-1.608840	-0.532482	0.056362	-0.363250	0.009447	0.012825	-0.008316
58	0.343929	0.005000	2.598763	-9.055517	-1.599917	-0.532369	0.056249	-0.363754	0.002828	0.023953	-0.016661
59	0.348929	0.005000	2.676221	-8.962521	-1.538261	-0.532256	0.056136	-0.364259	0.004185	0.016889	-0.007098
60	0.353929	0.005000	2.693804	-8.960476	-1.595084	-0.532143	0.056023	-0.364763	-0.003846	0.016005	-0.011938
61	0.358929	0.005000	2.687289	-9.031523	-1.654403	-0.532030	0.055910	-0.365268	-0.007492	0.015621	-0.014089
62	0.363929	0.005000	2.696933	-9.069754	-1.682006	-0.531917	0.055797	-0.365772	0.002086	0.011948	-0.015818
63	0.368929	0.005000	2.664029	-9.212818	-1.573891	-0.531804	0.055684	-0.366276	-0.001150	0.014417	-0.018852
64	0.373929	0.005000	2.582373	-9.111147	-1.537827	-0.531691	0.055571	-0.366781	-0.002697	0.011504	-0.013357
65	0.378929	0.005000	2.707560	-9.056307	-1.499253	-0.531578	0.055458	-0.367285	-0.002464	0.017994	-0.014064
66	0.383929	0.005000	2.629080	-9.028619	-1.569600	-0.531465	0.055346	-0.367790	-0.003054	0.014412	-0.010194
67	0.388929	0.005000	2.629080	-9.025200	-1.682735	-0.531352	0.055233	-0.368294	-0.007381	0.016472	-0.007915
68	0.393929	0.005000	2.550724	-9.064316	-1.648328	-0.531343	0.054599	-0.367751	-0.005757	0.012714	-0.015851
69	0.398929	0.005000	2.706290	-8.986383	-1.726560	-0.531343	0.053921	-0.367121	-0.010980	0.012143	-0.000696
70	0.403929	0.005000	2.710441	-9.023759	-1.571041	-0.531343	0.053244	-0.366490	-0.007591	0.023135	-0.019820
71	0.408929	0.005000	2.668320	-9.138875	-1.648080	-0.531343	0.052567	-0.365860	-0.003713	0.017717	-0.007646
72	0.413929	0.005000	2.677383	-9.103680	-1.572621	-0.531343	0.051889	-0.365230	0.001336	0.022602	-0.005510
73	0.418929	0.005000	2.668320	-9.095624	-1.542443	-0.531343	0.051212	-0.364599	-0.000347	0.015061	-0.026682
74	0.423929	0.005000	2.634130	-9.069490	-1.598740	-0.531343	0.050534	-0.363969	0.003930	0.017086	0.001810
75	0.428929	0.005000	2.550600	-9.025200	-1.648080	-0.531343	0.049857	-0.363339	0.004061	0.019074	-0.011524
76	0.433929	0.005000	2.615819	-9.103680	-1.648080	-0.531343	0.049180	-0.362708	-0.004790	0.014119	-0.005624
77	0.438929	0.005000	2.565906	-9.088374	-1.577253	-0.531343	0.048502	-0.362078	-0.002589	0.015669	-0.011606
78	0.443929	0.005000	2.635540	-9.033395	-1.437225	-0.531343	0.047825	-0.361448	-0.003515	0.015386	-0.014014
79	0.448929	0.005000	2.668320	-9.094463	-1.502708	-0.531343	0.047148	-0.360818	-0.008009	0.018119	-0.012754
80	0.453929	0.005000	2.688081	-9.133039	-1.501001	-0.531343	0.046470	-0.360187	-0.003763	0.021215	-0.017345
81	0.458929	0.005000	2.742912	-9.007524	-1.580382	-0.531343	0.046428	-0.360177	-0.007444	0.014661	-0.013714
82	0.463929	0.005000	2.683951	-9.052635	-1.573426	-0.531343	0.046654	-0.360430	-0.010859	0.015539	-0.012065
83	0.468929	0.005000	2.668320	-9.038027	-1.516774	-0.531343	0.046880	-0.360682	-0.006885	0.013840	-0.017610
84	0.473929	0.005000	2.616589	-9.064440	-1.556226	-0.531343	0.047105	-0.360934	-0.015560	0.021854	-0.013218
85	0.478929	0.005000	2.515295	-9.099745	-1.658537	-0.531343	0.047331	-0.361186	-0.011279	0.019758	-0.021485
86	0.483929	0.005000	2.668320	-9.088552	-1.681175	-0.531343	0.047557	-0.361438	-0.012825	0.006171	-0.004341
87	0.488929	0.005000	2.661023	-9.032497	-1.703292	-0.531343	0.047783	-0.361691	-0.010140	0.022902	-0.019655
88	0.493929	0.005000	2.545348	-8.980708	-1.665074	-0.531343	0.048009	-0.361943	-0.016808	0.008555	-0.015275
89	0.498929	0.005000	2.493824	-8.968424	-1.613007	-0.531343	0.048235	-0.362195	-0.015800	0.015698	-0.012199
90	0.503929	0.005000	2.532041	-8.965279	-1.645958	-0.531343	0.048461	-0.362447	-0.033704	0.013552	-0.023174
91	0.508929	0.005000	2.629080	-9.025765	-1.608840	-0.531343	0.048687	-0.362700	-0.021626	0.005743	-0.011546
92	0.513929	0.005000	2.688443	-9.024193	-1.668203	-0.531343	0.048913	-0.362952	-0.020085	0.010872	-0.014795
93	0.518929	0.005000	2.583736	-9.106732	-1.602736	-0.531343	0.049139	-0.363204	-0.020414	0.009505	-0.011422
94	0.523929	0.005000	2.554767	-8.972591	-1.608840	-0.531398	0.049309	-0.363210	-0.025664	0.009193	-0.018304
95	0.528929	0.005000	2.668320	-8.985960	-1.664594	-0.531511	0.049422	-0.362957	-0.021196	0.000000	-0.013865
96	0.533929	0.005000	2.519199	-9.095826	-1.538214	-0.531624	0.049535	-0.362705	-0.020126	0.017917	-0.013753
97	0.538929	0.005000	2.580499	-9.079389	-1.599499	-0.531737	0.049648	-0.362453	-0.026187	0.011099	-0.027417
98	0.543929	0.005000	2.626022	-9.168061	-1.673221	-0.531850	0.049761	-0.362201	-0.020906	0.008817	-0.013416
99	0.548929	0.005000	2.628166	-9.103680	-1.582071	-0.531963	0.049874	-0.361949	-0.018273	0.022049	-0.021265
100	0.553929	0.005000	2.550600	-9.091318	-1.517998	-0.532076	0.049987	-0.361696	-0.019560	0.007424	-0.011240
101	0.558929	0.005000	2.640889	-8.958529	-1.491120	-0.532189	0.050100	-0.361444	-0.015166	0.015124	-0.011732
102	0.563929	0.005000	2.725205	-9.053642	-1.569600	-0.532302	0.050212	-0.361192	-0.027493	0.018900	-0.016094
103	0.568929	0.005000	2.589840	-9.074215	-1.589150	-0.532415	0.050325	-0.360940	-0.020601	0.015837	-0.017013
104	0.573929	0.005000	2.580623	-9.025200	-1.668885	-0.532528	0.050438	-0.360687	-0.017308	0.019492	-0.021297
105	0.578929	0.005000	2.591575	-8.985960	-1.617035	-0.532641	0.050551	-0.360435	-0.023664	0.010074	-0.011763
106	0.583929	0.005000	2.646536	-9.032461	-1.626296	-0.532754	0.050664	-0.360183	-0.021888	0.019473	-0.022752
107	0.588929	0.005000	2.543970	-9.057810	-1.491120	-0.532774	0.050808	-0.360000	-0.022042	0.001809	-0.002658
108	0.593929	0.005000	2.550600	-9.098003	-1.508152	-0.532548	0.051034	-0.360000	-0.021430	0.021056	-0.009173
109	0.598929	0.005000	2.613883	-9.035331	-1.574666	-0.532322	0.051260	-0.360000	-0.015931	0.012039	-0.026826
110	0.603929	0.005000	2.558687	-9.060397	-1.612883	-0.532096	0.051486	-0.360000	-0.010559	0.007440	-0.011442
111	0.608929	0.005000	2.593326	-9.025200	-1.644594	-0.531870	0.051712	-0.360000	-0.023207	0.022394	-0.028957
112	0.613929	0.005000	2.631544	-8.990888	-1.682392	-0.531644	0.051938	-0.360000	-0.013767	0.006272	-0.030844
113	0.618929	0.005000	2.633449	-9.064440	-1.725104	-0.531419	0.052163	-0.360000	-0.004975	0.020839	-0.020041
114	0.623929	0.005000	2.666523	-9.062643	-1.609739	-0.531193	0.052389	-0.360000	-0.010733	0.009404	-0.022429
115	0.628929	0.005000	2.707188	-8.946844	-1.608964	-0.530967	0.052615	-0.360000	-0.013398	0.006766	-0.003679
116	0.633929	0.005000	2.628406	-8.983937	-1.647406	-0.530741	0.052841	-0.360000	-0.014029	0.008540	-0.021991
117	0.638929	0.005000	2.632457	-9.098614	-1.646391	-0.530515	0.053067	-0.360000	-0.011806	0.010396	-0.013997
118	0.643929	0.005000	2.623658	-9.140209	-1.645369	-0.530289	0.053293	-0.360000	-0.009652	0.019269	-0.014488
119	0.648929	0.005000	2.596346	-9.031706	-1.648080	-0.530063	0.053519	-0.360000	-0.012337	0.009175	-0.011315
120	0.653929	0.005000	2.629080	-8.985960	-1.600289	-0.529865	0.053752	-0.359977	-0.021915	0.022934	-0.019481
121	0.658929	0.005000	2.511360	-9.069331	-1.652971	-0.530091	0.054090	-0.359599	-0.020224	0.012512	-0.018829
122	0.663929	0.005000	2.650753	-9.031056	-1.581312	-0.530317	0.054429	-0.359220	-0.015118	0.004075	-0.004224
123	0.668929	0.005000	2.668320	-9.071318	-1.562722	-0.530542	0.054768	-0.358842	-0.022319	0.016163	-0.023093
124	0.673929	0.005000	2.644105	-8.976769	-1.696511	-0.530768	0.055107	-0.358463	-0.006429	0.003370	-0.007935
125	0.678929	0.005000	2.550600	-9.086794	-1.704206	-0.530994	0.055446	-0.358085	-0.018512	0.012130	-0.011639
126	0.683929	0.005000	2.589840	-8.965651	-1.629149	-0.531220	0.055785	-0.357707	-0.011738	0.014576	-0.027292
127	0.688929	0.005000	2.453143	-9.054308	-1.697452	-0.531446	0.056124	-0.357328	-0.004884	0.011216	-0.005587
128	0.693929	0.005000	2.618050	-9.075470	-1.659110	-0.531672	0.056463	-0.356950	-0.006128	0.013076	-0.010557
129	0.698929	0.005000	2.722695	-9.076492	-1.687320	-0.531898	0.056802	-0.356572	-0.005804	0.011632	-0.013214
130	0.703929	0.005000	2.641675	-9.077035	-1.674725	-0.532124	0.057140	-0.356193	-0.000994	0.021653	-0.005110
131	0.708929	0.005000	2.629080	-9.050823	-1.673703	-0.532350	0.057479	-0.355815	-0.001050	0.015821	-0.014266
132	0.713929	0.005000	2.678871	-8.957271	-1.569600	-0.532575	0.057818	-0.355436	-0.021625	0.020516	-0.020089
133	0.718929	0.005000	2.810083	-8.868240	-1.687320	-0.532801	0.058157	-0.355058	-0.017551	0.018468	-0.021642
134	0.723929	0.005000	2.668320	-8.946720	-1.572218	-0.532836	0.058018	-0.355854	-0.005527	0.015690	-0.009232
135	0.728929	0.005000	2.707560	-9.008231	-1.535661	-0.532836	0.057792	-0.356862	-0.015415	0.023841	-0.021412
136	0.733929	0.005000	2.625409	-9.003744	-1.565929	-0.532836	0.057566	-0.357871	-0.003178	0.007454	-0.009572
137	0.738929	0.005000	2.589840	-9.066067	-1.569600	-0.532836	0.057340	-0.358879	-0.004939	0.012002	-0.011691
138	0.743929	0.005000	2.610273	-9.163353	-1.687320	-0.532836	0.057115	-0.359888	-0.003004	0.017142	-0.024086
139	0.748929	0.005000	2.726429	-9.084811	-1.668451	-0.532836	0.056889	-0.360896	-0.002189	0.009445	-0.013728
140	0.753929	0.005000	2.686166	-9.103680	-1.744406	-0.532836	0.056663	-0.361905	-0.003592	0.019239	-0.020472
141	0.758929	0.005000	2.651016	-9.069072	-1.687320	-0.532836	0.056437	-0.362914	-0.012531	0.011812	-0.012304
142	0.763929	0.005000	2.635757	-9.025200	-1.615517	-0.532836	0.056212	-0.363922	-0.004986	0.008781	-0.010336
143	0.768929	0.005000	2.543514	-9.064440	-1.467322	-0.532836	0.055986	-0.364931	-0.002732	0.014063	-0.006882
144	0.773929	0.005000	2.565301	-9.064440	-1.569600	-0.532836	0.055760	-0.365939	-0.000043	0.012652	-0.005321
145	0.778929	0.005000	2.562482	-9.076322	-1.581482	-0.532836	0.055534	-0.366948	-0.007330	0.019105	-0.017921
146	0.783929	0.005000	2.576703	-8.985960	-1.543326	-0.532836	0.055308	-0.367956	-0.003501	0.014542	-0.014378
147	0.788929	0.005000	2.562714	-8.998074	-1.605943	-0.532907	0.054941	-0.368175	-0.003529	0.022262	-0.019259
148	0.793929	0.005000	2.656748	-9.064440	-1.675748	-0.533020	0.054489	-0.367923	0.009445	0.013368	-0.003888
149	0.798929	0.005000	2.629080	-9.056849	-1.577191	-0.533133	0.054037	-0.367671	-0.004176	0.014578	-0.020964
150	0.803929	0.005000	2.668320	-9.192476	-1.579241	-0.533245	0.053586	-0.367418	-0.015566	0.012061	-0.026123
151	0.808929	0.005000	2.719891	-9.103680	-1.639110	-0.533358	0.053134	-0.367166	-0.005621	0.002145	-0.012013
152	0.813929	0.005000	2.613179	-9.017250	-1.569600	-0.533471	0.052682	-0.366914	-0.016130	0.013319	-0.007579
153	0.818929	0.005000	2.603887	-9.007030	-1.648080	-0.533584	0.052230	-0.366662	-0.029101	0.017682	-0.016307
154	0.823929	0.005000	2.701177	-9.058057	-1.648080	-0.533697	0.051778	-0.366409	-0.022738	0.021422	-0.021897
155	0.828929	0.005000	2.741440	-9.030560	-1.637360	-0.533810	0.051327	-0.366157	-0.025060	0.017198	-0.020716
156	0.833929	0.005000	2.638716	-9.064440	-1.652898	-0.533923	0.050875	-0.365905	-0.011754	0.013772	-0.014800
157	0.838929	0.005000	2.625285	-9.053054	-1.601249	-0.534036	0.050423	-0.365653	-0.009200	0.011818	-0.016203
158	0.843929	0.005000	2.598262	-8.946720	-1.603225	-0.534149	0.049971	-0.365400	-0.010288	0.016717	-0.009260
159	0.848929	0.005000	2.631311	-9.029662	-1.532591	-0.534262	0.049520	-0.365148	-0.005477	0.024970	-0.021761
160	0.853929	0.005000	2.707560	-9.063232	-1.604007	-0.534188	0.049394	-0.364740	0.003218	0.025143	-0.014945
161	0.858929	0.005000	2.745499	-9.025851	-1.686019	-0.533850	0.049732	-0.364110	-0.005427	0.028052	-0.021480
162	0.863929	0.005000	2.629452	-9.064440	-1.725445	-0.533511	0.050071	-0.363480	-0.021054	0.020812	-0.022620
163	0.868929	0.005000	2.708954	-8.985960	-1.613023	-0.533172	0.050410	-0.362849	0.000918	0.020955	-0.006767
164	0.873929	0.005000	2.709496	-9.062504	-1.608840	-0.532834	0.050748	-0.362219	-0.018254	0.030812	-0.026343
165	0.878929	0.005000	2.632039	-9.100721	-1.491120	-0.532495	0.051087	-0.361589	-0.015181	0.013943	-0.010172
166	0.883929	0.005000	2.593384	-9.064440	-1.569600	-0.532157	0.051425	-0.360958	-0.007568	0.016453	-0.011994
167	0.888929	0.005000	2.663796	-9.025200	-1.525836	-0.531818	0.051764	-0.360328	-0.021736	0.014232	-0.014495
168	0.893929	0.005000	2.702014	-9.025200	-1.580692	-0.531479	0.052103	-0.359698	-0.016157	0.016584	-0.016185
169	0.898929	0.005000	2.635184	-9.010375	-1.608840	-0.531141	0.052441	-0.359067	-0.011402	0.019590	-0.024805
170	0.903929	0.005000	2.604061	-9.010979	-1.648080	-0.530802	0.052780	-0.358437	-0.014622	0.014093	-0.007094
171	0.908929	0.005000	2.597600	-9.001480	-1.648080	-0.530463	0.053119	-0.357807	-0.016538	0.015878	-0.012931
172	0.913929	0.005000	2.615912	-9.047059	-1.717869	-0.530125	0.053457	-0.357176	-0.007944	0.009127	-0.006925
173	0.918929	0.005000	2.462407	-9.142920	-1.648080	-0.529873	0.053731	-0.356740	-0.017867	0.013796	-0.021443
174	0.923929	0.005000	2.560982	-9.103680	-1.629605	-0.529986	0.053731	-0.357118	-0.022951	0.013479	-0.015757
175	0.928929	0.005000	2.629080	-9.114958	-1.580878	-0.530098	0.053731	-0.357496	-0.019711	0.002656	-0.000434
176	0.933929	0.005000	2.589840	-9.010561	-1.554961	-0.530211	0.053731	-0.357874	-0.009937	0.017714	-0.019872
177	0.938929	0.005000	2.589127	-8.999515	-1.595998	-0.530324	0.053731	-0.358252	-0.018645	0.002179	-0.014018
178	0.943929	0.005000	2.589840	-8.935210	-1.726560	-0.530437	0.053731	-0.358631	-0.015415	0.013049	-0.011368
179	0.948929	0.005000	2.731913	-8.941298	-1.653502	-0.530550	0.053731	-0.359009	-0.015862	0.012088	-0.022817
180	0.953929	0.005000	2.644525	-8.900385	-1.608840	-0.530663	0.053731	-0.359387	-0.006148	0.007659	-0.010465
181	0.958929	0.005000	2.635416	-8.992296	-1.615176	-0.530776	0.053731	-0.359765	0.000154	0.021401	-0.015704
182	0.963929	0.005000	2.611866	-9.120894	-1.721747	-0.530888	0.053731	-0.360143	-0.005487	0.023534	-0.025827
183	0.968929	0.005000	2.749976	-9.085648	-1.626872	-0.531001	0.053731	-0.360522	-0.001071	0.033731	-0.031986
184	0.973929	0.005000	2.706429	-9.024069	-1.472065	-0.531114	0.053731	-0.360900	-0.001096	0.022610	-0.006007
185	0.978929	0.005000	2.609437	-9.084037	-1.648173	-0.531227	0.053731	-0.361278	-0.008286	0.019968	-0.011124
186	0.983929	0.005000	2.571219	-8.905482	-1.586222	-0.531340	0.053731	-0.361656	0.002692	0.023861	-0.017245
187	0.988929	0.005000	2.568198	-8.946720	-1.630482	-0.531123	0.053731	-0.361912	0.000145	0.023460	-0.010865
188	0.993929	0.005000	2.567656	-9.042256	-1.586656	-0.530898	0.053731	-0.362164	0.011658	0.033276	-0.021225
189	0.998929	0.005000	2.518533	-9.094819	-1.530360	-0.530672	0.053731	-0.362417	0.034647	0.015823	-0.008951
190	1.003929	0.005000	2.518548	-9.033488	-1.585076	-0.530446	0.053731	-0.362669	0.020872	0.024683	-0.003705
191	1.008929	0.005000	2.604294	-9.078894	-1.472546	-0.530220	0.053731	-0.362921	0.010633	0.021455	-0.028456
192	1.013929	0.005000	2.576242	-9.064440	-1.451880	-0.529994	0.053731	-0.363173	0.006936	0.002953	-0.016685
193	1.018929	0.005000	2.471547	-9.129458	-1.412640	-0.529768	0.053731	-0.363426	-0.016812	0.002655	-0.012914
194	1.023929	0.005000	2.617214	-9.170294	-1.482894	-0.529542	0.053731	-0.363678	-0.034730	0.003214	-0.007147
195	1.028929	0.005000	2.662015	-9.109985	-1.473837	-0.529316	0.053731	-0.363930	-0.040005	0.004304	-0.012005
196	1.033929	0.005000	2.668320	-9.171858	-1.550964	-0.529090	0.053731	-0.364182	-0.041334	0.000513	-0.016396
197	1.038929	0.005000	2.638471	-9.113071	-1.666861	-0.528865	0.053731	-0.364434	-0.043637	-0.001606	-0.024514
198	1.043929	0.005000	2.637817	-9.094943	-1.774537	-0.528639	0.053731	-0.364687	-0.017128	0.007435	-0.013398
199	1.048929	0.005000	2.644510	-9.056725	-1.805040	-0.528413	0.053731	-0.364939	-0.010777	0.006199	-0.011211
200	1.053929	0.005000	2.582683	-8.953877	-1.805040	-0.529299	0.053303	-0.363758	-0.013026	0.019119	-0.020464
201	1.058929	0.005000	2.550600	-8.985960	-1.798905	-0.530541	0.052739	-0.362119	0.001464	0.003351	-0.008850
202	1.063929	0.005000	2.483305	-9.047663	-1.709783	-0.531783	0.052174	-0.360480	0.001511	0.015912	-0.008514
203	1.068929	0.005000	2.654610	-8.990530	-1.652650	-0.533025	0.051610	-0.358841	0.005647	0.010381	-0.010171
204	1.073929	0.005000	2.557783	-8.978777	-1.566008	-0.534267	0.051046	-0.357202	0.008323	0.009439	0.001862
205	1.078929	0.005000	2.701549	-8.985960	-1.448875	-0.535509	0.050481	-0.355563	-0.000962	0.016537	-0.010412
206	1.083929	0.005000	2.625114	-8.985960	-1.526394	-0.536750	0.049917	-0.353924	-0.009293	0.009777	-0.011545
207	1.088929	0.005000	2.627136	-9.026172	-1.492092	-0.537992	0.049352	-0.352285	-0.009039	0.020809	-0.010528
208	1.093929	0.005000	2.667917	-9.025603	-1.529957	-0.539234	0.048788	-0.350647	-0.014041	0.012662	-0.006645
209	1.098929	0.005000	2.590460	-9.141681	-1.645601	-0.540476	0.048223	-0.349008	-0.005328	0.012986	-0.013537
210	1.103929	0.005000	2.665996	-8.912127	-1.611164	-0.541718	0.047659	-0.347369	-0.000154	0.009602	-0.010842
211	1.108929	0.005000	2.668320	-8.988144	-1.571784	-0.542960	0.047094	-0.345730	0.006612	0.010264	-0.006488
212	1.113929	0.005000	2.744040	-8.985960	-1.645320	-0.544202	0.046530	-0.344091	-0.006432	0.024888	-0.015777
213	1.118929	0.005000	2.589840	-8.985960	-1.562102	-0.544958	0.046208	-0.343130	-0.003969	0.015880	-0.015566
214	1.123929	0.005000	2.599383	-9.098909	-1.692091	-0.545297	0.046095	-0.342751	-0.009528	0.019119	-0.006218
215	1.128929	0.005000	2.545221	-9.092921	-1.574979	-0.545636	0.045982	-0.342373	-0.014109	0.006709	-0.023045
216	1.133929	0.005000	2.629080	-9.110016	-1.536696	-0.545975	0.045869	-0.341994	-0.006647	0.004689	-0.005784
217	1.138929	0.005000	2.668320	-9.174802	-1.547525	-0.546314	0.045756	-0.341616	-0.011474	0.009678	-0.019396
218	1.143929	0.005000	2.558611	-9.049233	-1.569600	-0.546653	0.045643	-0.341238	-0.016772	0.002450	-0.020440
219	1.148929	0.005000	2.659381	-8.985960	-1.578539	-0.546991	0.045530	-0.340859	-0.018507	0.008746	-0.007306
220	1.153929	0.005000	2.687638	-8.907480	-1.588918	-0.547330	0.045417	-0.340481	-0.020066	0.009345	-0.009633
221	1.158929	0.005000	2.629080	-8.975457	-1.655810	-0.547669	0.045304	-0.340103	-0.025565	0.008552	-0.009401
222	1.163929	0.005000	2.573651	-8.969771	-1.687320	-0.548008	0.045191	-0.339724	-0.011455	0.010371	-0.016549
223	1.168929	0.005000	2.602388	-9.117824	-1.660628	-0.548347	0.045078	-0.339346	-0.002793	0.014297	-0.011060
224	1.173929	0.005000	2.589840	-9.025200	-1.752710	-0.548686	0.044965	-0.338967	-0.006736	0.020092	-0.009039
225	1.178929	0.005000	2.603953	-8.960833	-1.765800	-0.549025	0.044852	-0.338589	-0.002631	0.012611	-0.000830
226	1.183929	0.005000	2.574705	-9.079575	-1.560630	-0.548998	0.044886	-0.338578	-0.006746	0.028703	-0.007667
227	1.188929	0.005000	2.534923	-8.946720	-1.546037	-0.548208	0.045224	-0.339334	-0.014553	0.025813	-0.011955
228	1.193929	0.005000	2.567300	-8.924180	-1.664780	-0.547417	0.045563	-0.340091	-0.000850	0.031698	0.004526
229	1.198929	0.005000	2.585529	-8.964184	-1.687320	-0.546626	0.045902	-0.340848	-0.006534	0.041662	-0.008516
230	1.203929	0.005000	2.592520	-8.967680	-1.708280	-0.545836	0.046241	-0.341605	0.026065	0.029933	-0.002343
231	1.208929	0.005000	2.530027	-8.927418	-1.668018	-0.545045	0.046580	-0.342362	0.037659	0.046102	-0.015369
232	1.213929	0.005000	2.609235	-8.946271	-1.667475	-0.544254	0.046919	-0.343118	0.023036	0.048704	-0.025472
233	1.218929	0.005000	2.647453	-8.925853	-1.689814	-0.543464	0.047258	-0.343875	0.035852	0.041438	-0.014601
234	1.223929	0.005000	2.568165	-9.046875	-1.612949	-0.542673	0.047597	-0.344632	0.034442	0.036169	-0.015754
235	1.228929	0.005000	2.629080	-9.081248	-1.569600	-0.541882	0.047935	-0.345389	0.028677	0.035151	-0.008160
236	1.233929	0.005000	2.645055	-9.142920	-1.632105	-0.541092	0.048274	-0.346145	0.035812	0.022583	-0.017276
237	1.238929	0.005000	2.659536	-9.166932	-1.563156	-0.540301	0.048613	-0.346902	0.031969	0.010521	-0.001120
238	1.243929	0.005000	2.604061	-9.103680	-1.544581	-0.539510	0.048952	-0.347659	0.012648	0.024139	-0.012543
239	1.248929	0.005000	2.812754	-9.038557	-1.543717	-0.538744	0.049279	-0.348443	-0.014370	0.005788	-0.018145
240	1.253929	0.005000	2.798681	-8.985960	-1.569600	-0.538180	0.049504	-0.349452	-0.020133	-0.003477	-0.004079
241	1.258929	0.005000	2.746800	-8.962435	-1.593125	-0.537615	0.049730	-0.350460	-0.037508	0.001222	-0.020402
242	1.263929	0.005000	2.696484	-8.968873	-1.637004	-0.537051	0.049956	-0.351469	-0.020494	0.001891	-0.015289
243	1.268929	0.005000	2.599894	-8.867264	-1.638026	-0.536486	0.050182	-0.352478	-0.018635	-0.007237	-0.010813
244	1.273929	0.005000	2.668320	-8.750520	-1.657223	-0.535922	0.050408	-0.353486	-0.011590	-0.010269	-0.019821
245	1.278929	0.005000	2.642852	-8.907480	-1.757311	-0.535357	0.050633	-0.354495	0.006379	-0.009050	-0.007873
246	1.283929	0.005000	2.582373	-8.922414	-1.735932	-0.534793	0.050859	-0.355503	0.025393	0.010370	-0.017602
247	1.288929	0.005000	2.661411	-8.999778	-1.634262	-0.534228	0.051085	-0.356512	0.042553	0.005845	-0.003085
248	1.293929	0.005000	2.719334	-9.064440	-1.512700	-0.533664	0.051311	-0.357521	0.035248	0.007941	-0.010635
249	1.298929	0.005000	2.761417	-9.064440	-1.412640	-0.533099	0.051537	-0.358529	-0.000317	-0.004863	-0.005510
250	1.303929	0.005000	2.520004	-9.029522	-1.408318	-0.532535	0.051762	-0.359538	-0.033972	0.001635	-0.020069
251	1.308929	0.005000	2.563799	-9.031799	-1.572900	-0.531970	0.051988	-0.360546	-0.046089	-0.009299	-0.024486
252	1.313929	0.005000	2.738528	-9.069955	-1.493877	-0.531406	0.052214	-0.361555	-0.025562	-0.007032	-0.006584
253	1.318929	0.005000	2.668320	-9.105415	-1.417845	-0.531243	0.052641	-0.361331	-0.023692	0.010635	-0.012853
254	1.323929	0.005000	2.668320	-9.063727	-1.568887	-0.531130	0.053092	-0.360952	-0.007982	-0.006111	-0.002244
255	1.328929	0.005000	2.667979	-8.946720	-1.491802	-0.531017	0.053544	-0.360574	0.001080	0.000918	-0.009754
256	1.333929	0.005000	2.666616	-8.946720	-1.609692	-0.530904	0.053996	-0.360195	0.000305	0.006253	-0.016971
257	1.338929	0.005000	2.591714	-8.911229	-1.651829	-0.530791	0.054448	-0.359817	0.004699	0.012007	-0.012694
258	1.343929	0.005000	2.516224	-9.057143	-1.613704	-0.530678	0.054900	-0.359439	0.012461	0.025455	-0.012497
259	1.348929	0.005000	2.622171	-9.064440	-1.644625	-0.530565	0.055351	-0.359060	0.026513	0.028004	-0.010992
260	1.353929	0.005000	2.624603	-9.025200	-1.608840	-0.530452	0.055803	-0.358682	0.033931	0.019793	-0.011421
261	1.358929	0.005000	2.589840	-8.990979	-1.574619	-0.530339	0.056255	-0.358304	0.038414	0.023382	-0.005768
262	1.363929	0.005000	2.556642	-9.164035	-1.530360	-0.530226	0.056707	-0.357925	0.032149	0.031908	-0.011366
263	1.368929	0.005000	2.629080	-9.103680	-1.523296	-0.530114	0.057159	-0.357547	0.020696	0.027702	-0.025249
264	1.373929	0.005000	2.660233	-9.025200	-1.491120	-0.530001	0.057610	-0.357168	0.017975	0.017200	-0.013510
265	1.378929	0.005000	2.637709	-9.086422	-1.460509	-0.529888	0.058062	-0.356790	0.017606	0.025236	-0.012018
266	1.383929	0.005000	2.629080	-9.064440	-1.501406	-0.530080	0.057599	-0.357348	0.010081	0.013607	-0.010302
267	1.388929	0.005000	2.571947	-9.043093	-1.587493	-0.530418	0.056696	-0.358356	0.007601	0.018817	-0.011281
268	1.393929	0.005000	2.685128	-9.070032	-1.569600	-0.530757	0.055793	-0.359365	0.016528	0.019569	-0.012983
269	1.398929	0.005000	2.602078	-9.103680	-1.503358	-0.531096	0.054890	-0.360373	0.013600	0.016647	0.000028
270	1.403929	0.005000	2.759519	-9.142920	-1.478401	-0.531434	0.053987	-0.361382	0.003054	0.019168	-0.018364
271	1.408929	0.005000	2.707560	-9.078258	-1.424243	-0.531773	0.053084	-0.362390	-0.000926	0.017914	-0.003826
272	1.413929	0.005000	2.697982	-9.182160	-1.618418	-0.532111	0.052180	-0.363399	-0.003446	0.014009	-0.004555
273	1.418929	0.005000	2.644928	-9.205552	-1.569600	-0.532450	0.051277	-0.364407	-0.014748	0.013392	-0.011210
274	1.423929	0.005000	2.635509	-9.244234	-1.445451	-0.532789	0.050374	-0.365416	-0.022420	0.013999	-0.005617
275	1.428929	0.005000	2.506976	-9.134152	-1.552172	-0.533127	0.049471	-0.366425	-0.029094	0.021266	-0.021496
276	1.433929	0.005000	2.550600	-9.043650	-1.606501	-0.533466	0.048568	-0.367433	-0.025623	0.013557	-0.006897
277	1.438929	0.005000	2.708815	-9.083433	-1.646825	-0.533805	0.047665	-0.368442	-0.014694	0.016057	-0.019209
278	1.443929	0.005000	2.551390	-9.122905	-1.472685	-0.534143	0.046761	-0.369450	-0.007661	0.016618	-0.004519
279	1.448929	0.005000	2.511360	-9.064440	-1.527525	-0.534328	0.046372	-0.369828	-0.005807	0.026339	-0.015871
280	1.453929	0.005000	2.529020	-9.021281	-1.512700	-0.534328	0.046598	-0.369450	0.008494	0.017532	-0.010104
281	1.458929	0.005000	2.606478	-9.064440	-1.614804	-0.534328	0.046824	-0.369071	0.015100	0.031737	-0.005484
282	1.463929	0.005000	2.629080	-9.009585	-1.601234	-0.534328	0.047049	-0.368693	0.036550	0.023603	-0.018822
283	1.468929	0.005000	2.535542	-9.049382	-1.633022	-0.534328	0.047275	-0.368314	0.043345	0.016331	-0.008055
284	1.473929	0.005000	2.586928	-8.960771	-1.611752	-0.534328	0.047501	-0.367936	0.024394	0.021769	-0.016651
285	1.478929	0.005000	2.524543	-9.129892	-1.556572	-0.534328	0.047727	-0.367558	0.015281	0.009070	-0.015075
286	1.483929	0.005000	2.550600	-9.155391	-1.401997	-0.534328	0.047953	-0.367179	-0.021128	0.013027	-0.007397
287	1.488929	0.005000	2.629080	-9.209952	-1.204992	-0.534328	0.048179	-0.366801	-0.051223	0.010511	-0.019943
288	1.493929	0.005000	2.571710	-9.100700	-1.287345	-0.534328	0.048405	-0.366422	-0.074432	-0.008061	-0.008584
289	1.498929	0.005000	2.599724	-8.995844	-1.393167	-0.534328	0.048631	-0.366044	-0.074017	-0.003787	-0.020880
290	1.503929	0.005000	2.629080	-9.094819	-1.460741	-0.534328	0.048857	-0.365666	-0.090309	-0.022242	-0.014422
291	1.508929	0.005000	2.637399	-9.103680	-1.468518	-0.534328	0.049082	-0.365287	-0.077759	-0.013505	-0.011669
292	1.513929	0.005000	2.582543	-9.103680	-1.680023	-0.534274	0.049254	-0.364970	-0.073079	-0.015834	-0.009694
293	1.518929	0.005000	2.635354	-9.097406	-1.621388	-0.534048	0.049254	-0.364844	-0.070358	-0.012950	-0.005750
294	1.523929	0.005000	2.522793	-9.097964	-1.693036	-0.533822	0.049254	-0.364717	-0.066054	-0.006655	-0.008488
295	1.528929	0.005000	2.481539	-9.029909	-1.731269	-0.533596	0.049254	-0.364591	-0.058362	-0.006356	-0.004612
296	1.533929	0.005000	2.546913	-9.017826	-1.793979	-0.533371	0.049254	-0.364465	-0.048967	0.004097	-0.016796
297	1.538929	0.005000	2.553729	-8.985960	-1.611969	-0.533145	0.049254	-0.364339	-0.030535	0.000090	-0.011220
298	1.543929	0.005000	2.587733	-9.029414	-1.765800	-0.532919	0.049254	-0.364213	-0.024740	0.010012	-0.015123
299	1.548929	0.005000	2.552769	-8.988129	-1.649164	-0.532693	0.049254	-0.364087	-0.024426	0.007861	-0.014371
300	1.553929	0.005000	2.746258	-9.062271	-1.648080	-0.532467	0.049254	-0.363961	-0.009899	0.009395	0.004894
301	1.558929	0.005000	2.668800	-8.907480	-1.648080	-0.532242	0.049254	-0.363835	-0.007046	0.030739	-0.028464
302	1.563929	0.005000	2.706057	-9.023697	-1.651085	-0.532016	0.049254	-0.363709	-0.009150	0.031470	-0.023817
303	1.568929	0.005000	2.825280	-8.948765	-1.763755	-0.531790	0.049254	-0.363583	-0.003411	0.031765	-0.016448
304	1.573929	0.005000	2.680589	-8.838202	-1.765800	-0.531564	0.049254	-0.363457	-0.001527	0.026618	-0.015432
305	1.578929	0.005000	2.742710	-8.938540	-1.538540	-0.531345	0.049254	-0.363336	0.004850	0.025566	-0.014176
306	1.583929	0.005000	2.643022	-9.025200	-1.569600	-0.531458	0.049254	-0.363462	0.013726	0.025520	-0.011138
307	1.588929	0.005000	2.533978	-9.058786	-1.569600	-0.531571	0.049254	-0.363588	0.008137	0.027751	-0.005705
308	1.593929	0.005000	2.622403	-9.031877	-1.641403	-0.531684	0.049254	-0.363714	0.012784	0.030543	-0.012550
309	1.598929	0.005000	2.700325	-9.010731	-1.687320	-0.531797	0.049254	-0.363840	0.008597	0.025618	-0.002521
310	1.603929	0.005000	2.769526	-9.111937	-1.695577	-0.531910	0.049254	-0.363966	0.004519	0.029021	-0.013315
311	1.608929	0.005000	2.716468	-9.151828	-1.569600	-0.532023	0.049254	-0.364092	0.013173	0.019335	-0.009841
312	1.613929	0.005000	2.570487	-9.055030	-1.628193	-0.532136	0.049254	-0.364219	0.013747	0.006460	0.003906
313	1.618929	0.005000	2.533048	-8.900772	-1.687320	-0.532249	0.049254	-0.364345	-0.003557	0.017776	-0.016437
314	1.623929	0.005000	2.483647	-8.974433	-1.569600	-0.532362	0.049254	-0.364471	0.000837	0.001518	-0.009737
315	1.628929	0.005000	2.523769	-8.985960	-1.660489	-0.532475	0.049254	-0.364597	0.000070	0.013121	-0.010690
316	1.633929	0.005000	2.629080	-9.091302	-1.479796	-0.532588	0.049254	-0.364723	-0.008066	0.008235	-0.008295
317	1.638929	0.005000	2.721549	-9.103680	-1.541622	-0.532701	0.049254	-0.364849	0.006468	0.000308	0.001159
318	1.643929	0.005000	2.604842	-9.064440	-1.687320	-0.532814	0.049254	-0.364976	0.006038	0.009844	-0.011669
319	1.648929	0.005000	2.621876	-9.001978	-1.608840	-0.532745	0.049709	-0.364695	0.001710	0.006633	-0.014389
320	1.653929	0.005000	2.684896	-9.025200	-1.518184	-0.532632	0.050274	-0.364317	0.009646	0.007788	-0.001678
321	1.658929	0.005000	2.650722	-9.064440	-1.447837	-0.532519	0.050838	-0.363939	0.010540	0.011225	-0.006060
322	1.663929	0.005000	2.589840	-9.064440	-1.433515	-0.532406	0.051402	-0.363560	0.000186	0.014566	-0.018257
323	1.668929	0.005000	2.550600	-9.027028	-1.531274	-0.532293	0.051967	-0.363182	-0.003984	0.017002	-0.016631
324	1.673929	0.005000	2.608895	-9.083495	-1.608840	-0.532180	0.052531	-0.362804	-0.001011	0.012672	-0.003420
325	1.678929	0.005000	2.726072	-9.048143	-1.528145	-0.532067	0.053096	-0.362426	-0.006334	0.022774	-0.015921
326	1.683929	0.005000	2.672580	-9.086190	-1.661310	-0.531954	0.053660	-0.362048	0.011915	0.015620	-0.007250
327	1.688929	0.005000	2.651655	-9.087015	-1.608840	-0.531841	0.054225	-0.361669	0.009808	0.013871	-0.004124
328	1.693929	0.005000	2.558020	-9.064440	-1.577020	-0.531729	0.054789	-0.361291	0.015179	0.020209	-0.015669
329	1.698929	0.005000	2.599294	-9.103680	-1.442426	-0.531616	0.055353	-0.360913	0.016202	0.010935	0.002012
330	1.703929	0.005000	2.579290	-9.114230	-1.519810	-0.531503	0.055918	-0.360535	0.022612	0.022097	-0.013418
331	1.708929	0.005000	2.589112	-9.025928	-1.583651	-0.531390	0.056482	-0.360157	0.014366	0.021037	-0.011520
332	1.713929	0.005000	2.668320	-9.116133	-1.557147	-0.531475	0.056716	-0.360443	0.007642	0.019696	-0.003398
333	1.718929	0.005000	2.640838	-9.103680	-1.424398	-0.531701	0.056716	-0.361200	-0.001167	0.013860	-0.003368
334	1.723929	0.005000	2.657584	-9.035936	-1.580336	-0.531927	0.056716	-0.361956	0.005359	0.013671	-0.011931
335	1.728929	0.005000	2.580006	-9.044867	-1.677486	-0.532153	0.056716	-0.362713	0.008241	0.022415	-0.014534
336	1.733929	0.005000	2.571498	-9.055269	-1.638909	-0.532378	0.056716	-0.363469	-0.005143	0.010261	-0.007215
337	1.738929	0.005000	2.597989	-9.033349	-1.554806	-0.532604	0.056716	-0.364225	-0.008935	0.019394	-0.016797
338	1.743929	0.005000	2.660729	-9.056849	-1.648080	-0.532830	0.056716	-0.364982	0.004297	0.010319	-0.007404
339	1.748929	0.005000	2.596408	-9.012063	-1.595703	-0.533056	0.056716	-0.365738	-0.003168	0.016943	-0.013830
340	1.753929	0.005000	2.567444	-9.030815	-1.653695	-0.533282	0.056716	-0.366495	0.002431	0.015288	-0.020778
341	1.758929	0.005000	2.653309	-9.030204	-1.515349	-0.533507	0.056716	-0.367251	-0.003223	0.014570	-0.011039
342	1.763929	0.005000	2.676283	-9.060459	-1.573581	-0.533733	0.056716	-0.368007	-0.000960	0.020464	-0.019540
343	1.768929	0.005000	2.668320	-9.109598	-1.611799	-0.533959	0.056716	-0.368764	-0.004106	0.011139	-0.006346
344	1.773929	0.005000	2.548183	-9.098847	-1.643247	-0.534185	0.056716	-0.369520	0.000125	0.009790	-0.014937
345	1.778929	0.005000	2.592628	-9.102286	-1.491120	-0.534245	0.056716	-0.369862	0.006456	0.011934	-0.023215
346	1.783929	0.005000	2.550972	-9.064812	-1.570715	-0.534019	0.056716	-0.369483	0.007987	0.008816	-0.012824
347	1.788929	0.005000	2.628907	-9.025545	-1.570118	-0.533794	0.056716	-0.369105	-0.000499	0.012217	-0.017647
348	1.793929	0.005000	2.555371	-9.142920	-1.568407	-0.533568	0.056716	-0.368726	-0.001636	0.010631	-0.014619
349	1.798929	0.005000	2.585409	-9.064440	-1.493335	-0.533342	0.056716	-0.368348	-0.003483	0.009742	-0.012859
350	1.803929	0.005000	2.584294	-9.061667	-1.606067	-0.533116	0.056716	-0.367970	-0.005724	0.007063	-0.015815
351	1.808929	0.005000	2.625285	-9.096089	-1.580986	-0.532890	0.056716	-0.367591	-0.018161	0.017676	-0.016857
352	1.813929	0.005000	2.732346	-9.069258	-1.604022	-0.532664	0.056716	-0.367213	-0.006219	0.012172	-0.011701
353	1.818929	0.005000	2.707560	-9.041280	-1.614200	-0.532438	0.056716	-0.366834	-0.009158	0.009576	-0.004643
354	1.823929	0.005000	2.713943	-9.044348	-1.543125	-0.532212	0.056716	-0.366456	-0.009248	0.020410	-0.014864
355	1.828929	0.005000	2.621675	-9.103680	-1.530360	-0.531986	0.056716	-0.366078	-0.009159	0.003054	-0.011127
356	1.833929	0.005000	2.542653	-9.158319	-1.451880	-0.531761	0.056716	-0.365699	-0.015241	0.015331	-0.015771
357	1.838929	0.005000	2.689621	-9.064440	-1.500090	-0.531535	0.056716	-0.365321	-0.023842	0.016224	-0.012243
358	1.843929	0.005000	2.629808	-9.054448	-1.520368	-0.531377	0.056716	-0.364962	-0.009137	0.007094	-0.007990
359	1.848929	0.005000	2.629080	-9.004132	-1.637546	-0.531603	0.056716	-0.364710	-0.010185	0.012890	-0.019685
360	1.853929	0.005000	2.656763	-8.958277	-1.664207	-0.531829	0.056716	-0.364458	-0.017644	-0.001229	-0.011889
361	1.858929	0.005000	2.734540	-8.909941	-1.581860	-0.532055	0.056716	-0.364205	-0.019205	0.009205	-0.015203
362	1.863929	0.005000	2.629250	-9.051303	-1.569600	-0.532280	0.056716	-0.363953	-0.012396	0.005698	-0.009648
363	1.868929	0.005000	2.486279	-9.089521	-1.608840	-0.532506	0.056716	-0.363701	-0.023267	0.009395	-0.005732
364	1.873929	0.005000	2.692394	-9.151828	-1.536619	-0.532732	0.056716	-0.363449	-0.019798	0.013205	-0.012523
365	1.878929	0.005000	2.652736	-9.135128	-1.600908	-0.532958	0.056716	-0.363197	-0.028535	0.006569	-0.008795
366	1.883929	0.005000	2.589840	-9.103680	-1.642333	-0.533184	0.056716	-0.362945	-0.026723	0.011722	-0.009824
367	1.888929	0.005000	2.650817	-9.125417	-1.512857	-0.533409	0.056716	-0.362693	-0.025301	0.001281	-0.001810
368	1.893929	0.005000	2.626462	-9.025200	-1.509431	-0.533635	0.056716	-0.362441	-0.032378	0.010187	-0.018462
369	1.898929	0.005000	2.570507	-9.084920	-1.491120	-0.533861	0.056716	-0.362188	-0.028794	0.008939	-0.017790
370	1.903929	0.005000	2.551111	-9.064951	-1.550747	-0.534087	0.056716	-0.361936	-0.029575	0.010493	-0.009849
371	1.908929	0.005000	2.568942	-9.043542	-1.572156	-0.534313	0.056716	-0.361684	-0.036694	0.012440	-0.014046
372	1.913929	0.005000	2.528680	-9.121000	-1.564999	-0.534118	0.056506	-0.361902	-0.034630	0.008552	-0.015068
373	1.918929	0.005000	2.634796	-9.142920	-1.569600	-0.533892	0.056280	-0.362154	-0.037172	0.017338	-0.019152
374	1.923929	0.005000	2.542839	-9.064440	-1.530360	-0.533666	0.056054	-0.362406	-0.040145	0.003704	-0.015216
375	1.928929	0.005000	2.599281	-9.064440	-1.511477	-0.533440	0.055828	-0.362658	-0.027422	0.012788	-0.007503
376	1.933929	0.005000	2.553884	-9.103680	-1.676429	-0.533214	0.055602	-0.362910	-0.036538	0.003391	-0.009695
377	1.938929	0.005000	2.616145	-9.090745	-1.648080	-0.532989	0.055377	-0.363162	-0.031228	0.012408	-0.006718
378	1.943929	0.005000	2.578640	-9.103680	-1.635470	-0.532763	0.055151	-0.363415	-0.028462	0.014050	-0.018449
379	1.948929	0.005000	2.640668	-9.131332	-1.530360	-0.532537	0.054925	-0.363667	-0.019215	0.016774	-0.002180
380	1.953929	0.005000	2.657755	-9.043310	-1.669210	-0.532311	0.054699	-0.363919	-0.025616	0.015552	-0.016759
381	1.958929	0.005000	2.579938	-9.025200	-1.746364	-0.532086	0.054474	-0.364171	-0.022349	0.009973	-0.012616
382	1.963929	0.005000	2.620079	-9.146158	-1.756799	-0.531860	0.054248	-0.364423	-0.013668	0.012051	-0.010474
383	1.968929	0.005000	2.573884	-9.072418	-1.679342	-0.531634	0.054022	-0.364675	-0.011890	0.022118	-0.020587
384	1.973929	0.005000	2.550600	-9.111100	-1.640660	-0.531408	0.053796	-0.364927	-0.009620	0.007197	-0.012297
385	1.978929	0.005000	2.583442	-9.130124	-1.503916	-0.531263	0.054052	-0.365269	-0.017681	0.025494	-0.019595
386	1.983929	0.005000	2.556042	-9.121151	-1.670994	-0.531150	0.054504	-0.365648	-0.006978	0.017401	-0.010693
387	1.988929	0.005000	2.638747	-9.098847	-1.466380	-0.531037	0.054956	-0.366026	-0.001646	0.017824	-0.007116
388	1.993929	0.005000	2.707560	-8.989771	-1.581033	-0.530924	0.055408	-0.366404	-0.000966	0.032561	-0.021384
389	1.998929	0.005000	2.665051	-9.061171	-1.651349	-0.530811	0.055860	-0.366783	0.001035	0.021359	-0.005214
390	2.003929	0.005000	2.631326	-8.948966	-1.682827	-0.530698	0.056311	-0.367161	0.006575	0.024169	-0.014002
391	2.008929	0.005000	2.707560	-9.025200	-1.644365	-0.530585	0.056763	-0.367539	0.009717	0.018960	-0.023845
392	2.013929	0.005000	2.706197	-9.063758	-1.492483	-0.530472	0.057215	-0.367918	-0.002073	0.021231	-0.028050
393	2.018929	0.005000	2.706878	-9.025200	-1.569600	-0.530359	0.057667	-0.368296	-0.000598	0.013731	-0.018963
394	2.023929	0.005000	2.747709	-9.063531	-1.531269	-0.530246	0.058118	-0.368675	-0.005837	0.019078	-0.012177
395	2.028929	0.005000	2.629080	-8.875924	-1.608840	-0.530134	0.058570	-0.369053	-0.004565	0.022330	-0.027136
396	2.033929	0.005000	2.589840	-9.028143	-1.605897	-0.530021	0.059022	-0.369431	-0.003570	0.010618	-0.010771
397	2.038929	0.005000	2.625594	-9.021714	-1.530360	-0.529908	0.059474	-0.369810	-0.004887	0.024900	-0.017264
398	2.043929	0.005000	2.663812	-9.099172	-1.460896	-0.530469	0.058522	-0.368683	-0.011086	0.021104	-0.026542
399	2.048929	0.005000	2.555650	-9.098630	-1.456930	-0.531711	0.056150	-0.366034	-0.003896	0.012635	-0.010174
400	2.053929	0.005000	2.695415	-9.109753	-1.590622	-0.532954	0.053778	-0.363386	-0.014539	0.018286	-0.023054
401	2.058929	0.005000	2.642500	-9.110390	-1.446189	-0.534196	0.051406	-0.360737	-0.012499	0.005309	-0.031263
402	2.063929	0.005000	2.636733	-9.056787	-1.467186	-0.535439	0.049034	-0.358088	-0.009341	0.008070	-0.023045
403	2.068929	0.005000	2.498146	-9.064440	-1.399426	-0.536681	0.046662	-0.355440	-0.012184	0.017276	-0.011953
404	2.073929	0.005000	2.580512	-9.034528	-1.580856	-0.537924	0.044290	-0.352791	-0.021908	0.014003	-0.014186
405	2.078929	0.005000	2.531840	-9.054200	-1.590080	-0.539166	0.041918	-0.350142	-0.013985	0.009662	-0.014687
406	2.083929	0.005000	2.568009	-9.103680	-1.608840	-0.540409	0.039546	-0.347493	-0.018146	0.010902	-0.005390
407	2.088929	0.005000	2.605471	-9.064440	-1.569600	-0.541651	0.037174	-0.344845	-0.011833	0.013972	-0.029058
408	2.093929	0.005000	2.641907	-9.064440	-1.569600	-0.542893	0.034802	-0.342196	-0.019884	-0.004599	-0.007220
409	2.098929	0.005000	2.629963	-9.051066	-1.621331	-0.544136	0.032430	-0.339547	-0.022454	0.018906	-0.016326
410	2.103929	0.005000	2.639537	-9.171703	-1.608840	-0.545378	0.030058	-0.336899	-0.019703	0.006259	-0.021377
411	2.108929	0.005000	2.653192	-9.079568	-1.482137	-0.546621	0.028518	-0.335143	-0.018931	0.009735	-0.003613
412	2.113929	0.005000	2.629080	-9.025200	-1.592868	-0.547863	0.029082	-0.335647	-0.024179	0.013959	-0.007941
413	2.118929	0.005000	2.584588	-9.108932	-1.513366	-0.549104	0.029647	-0.336151	-0.022783	0.011131	-0.009512
414	2.123929	0.005000	2.589840	-9.064440	-1.552064	-0.550346	0.030211	-0.336656	-0.025041	0.015851	-0.014643
415	2.128929	0.005000	2.532041	-8.965279	-1.606718	-0.551588	0.030776	-0.337160	-0.030831	0.012569	-0.013421
416	2.133929	0.005000	2.609979	-9.064440	-1.550499	-0.552830	0.031340	-0.337664	-0.037940	0.015788	-0.013040
417	2.138929	0.005000	2.669327	-9.024193	-1.590730	-0.554072	0.031905	-0.338169	-0.031312	0.012559	-0.016291
418	2.143929	0.005000	2.553652	-9.025200	-1.491120	-0.555314	0.032469	-0.338673	-0.034431	0.010206	-0.012384
419	2.148929	0.005000	2.572304	-9.056106	-1.526193	-0.556556	0.033034	-0.339177	-0.035481	0.023846	-0.032427
420	2.153929	0.005000	2.668320	-9.064440	-1.625354	-0.557798	0.033598	-0.339681	-0.032720	0.004534	-0.018774
421	2.158929	0.005000	2.636377	-9.087708	-1.498417	-0.559039	0.034163	-0.340186	-0.031126	0.008779	-0.023071
422	2.163929	0.005000	2.644029	-9.040149	-1.511677	-0.560281	0.034727	-0.340690	-0.033690	0.007556	-0.015519
423	2.168929	0.005000	2.629080	-8.985960	-1.675934	-0.561523	0.035292	-0.341194	-0.032246	0.009476	-0.012172
424	2.173929	0.005000	2.563985	-9.025200	-1.582985	-0.562566	0.035892	-0.341738	-0.036219	0.012281	-0.019113
425	2.178929	0.005000	2.589840	-9.037562	-1.528207	-0.560646	0.037021	-0.342873	-0.041572	0.011723	-0.014322
426	2.183929	0.005000	2.652041	-9.048161	-1.664359	-0.558726	0.038151	-0.344009	-0.032121	0.008982	-0.016172
427	2.188929	0.005000	2.607485	-9.064440	-1.630435	-0.556806	0.039280	-0.345144	-0.033700	0.012268	-0.013999
428	2.193929	0.005000	2.648865	-8.976068	-1.677757	-0.554885	0.040410	-0.346279	-0.043641	0.013901	-0.019762
429	2.198929	0.005000	2.638297	-8.976743	-1.735777	-0.552965	0.041539	-0.347414	-0.042782	0.007708	-0.016205
430	2.203929	0.005000	2.645470	-9.087290	-1.749410	-0.551045	0.042669	-0.348549	-0.037482	0.005977	-0.013645
431	2.208929	0.005000	2.715213	-9.032853	-1.750494	-0.549125	0.043798	-0.349684	-0.039547	0.016778	-0.032448
432	2.213929	0.005000	2.629080	-9.025200	-1.654710	-0.547205	0.044928	-0.350820	-0.031095	0.008311	-0.019895
433	2.218929	0.005000	2.623403	-9.070117	-1.720883	-0.545284	0.046057	-0.351955	-0.028953	0.016454	-0.013388
434	2.223929	0.005000	2.634146	-9.211269	-1.525294	-0.543364	0.047187	-0.353090	-0.030594	0.016648	-0.016493
435	2.228929	0.005000	2.589840	-9.130790	-1.577687	-0.541444	0.048316	-0.354225	-0.023915	0.008888	-0.007422
436	2.233929	0.005000	2.586354	-9.025200	-1.730046	-0.539524	0.049446	-0.355360	-0.026241	0.026015	-0.017078
437	2.238929	0.005000	2.621688	-8.985960	-1.687320	-0.537603	0.050575	-0.356495	-0.018907	0.021541	-0.008437
438	2.243929	0.005000	2.630554	-8.983013	-1.648080	-0.537026	0.051033	-0.356667	-0.009856	0.008191	-0.011598
439	2.248929	0.005000	2.591637	-8.985061	-1.726560	-0.536687	0.051372	-0.356667	-0.011347	0.009431	-0.015669
440	2.253929	0.005000	2.629204	-9.024952	-1.765676	-0.536349	0.051711	-0.356667	-0.014744	0.009380	-0.013871
441	2.258929	0.005000	2.629080	-9.025200	-1.687994	-0.536010	0.052049	-0.356667	-0.006297	0.010615	-0.012983
442	2.263929	0.005000	2.666631	-9.062751	-1.765800	-0.535672	0.052388	-0.356667	-0.009396	0.007475	-0.012356
443	2.268929	0.005000	2.626369	-8.991382	-1.807751	-0.535333	0.052726	-0.356667	-0.002383	0.019604	-0.005603
444	2.273929	0.005000	2.632374	-8.989254	-1.693907	-0.534995	0.053065	-0.356667	0.014555	0.012826	-0.000424
445	2.278929	0.005000	2.629080	-9.095129	-1.683044	-0.534656	0.053403	-0.356667	0.005655	0.017416	-0.020310
446	2.283929	0.005000	2.600436	-9.069738	-1.749906	-0.534318	0.053742	-0.356667	0.008919	0.010243	-0.013814
447	2.288929	0.005000	2.656608	-9.019344	-1.738272	-0.533979	0.054080	-0.356667	0.009010	0.013446	-0.002205
448	2.293929	0.005000	2.622202	-9.078196	-1.726560	-0.533641	0.054419	-0.356667	0.003360	0.018530	-0.019693
449	2.298929	0.005000	2.707560	-9.000801	-1.655500	-0.533302	0.054758	-0.356667	0.003420	0.016537	-0.008592
450	2.303929	0.005000	2.654409	-9.055997	-1.524891	-0.532964	0.055096	-0.356667	0.005946	0.013760	-0.011951
451	2.308929	0.005000	2.677416	-9.073536	-1.608840	-0.532906	0.055224	-0.357216	-0.005082	0.007265	-0.013659
452	2.313929	0.005000	2.678328	-9.084455	-1.520352	-0.533019	0.055224	-0.358099	0.002604	0.020310	-0.022577
453	2.318929	0.005000	2.685500	-9.053410	-1.608840	-0.533132	0.055224	-0.358982	0.007149	0.014844	-0.016171
454	2.323929	0.005000	2.613015	-9.020723	-1.558012	-0.533245	0.055224	-0.359865	0.017145	0.012421	-0.007595
455	2.328929	0.005000	2.616485	-8.987416	-1.594789	-0.533358	0.055224	-0.360748	0.015354	0.014975	-0.017061
456	2.333929	0.005000	2.589840	-9.090370	-1.517050	-0.533471	0.055224	-0.361631	0.027178	0.010327	-0.006095
457	2.338929	0.005000	2.604015	-9.157095	-1.630621	-0.533584	0.055224	-0.362514	0.011664	0.017977	-0.014588
458	2.343929	0.005000	2.653421	-9.064440	-1.648080	-0.533697	0.055224	-0.363396	0.011022	0.015909	-0.013997
459	2.348929	0.005000	2.668320	-9.103680	-1.703059	-0.533810	0.055224	-0.364279	0.007523	0.011226	0.000037
460	2.353929	0.005000	2.600050	-9.041683	-1.507603	-0.533922	0.055224	-0.365162	0.005235	0.017984	-0.017239
461	2.358929	0.005000	2.672952	-9.029832	-1.513056	-0.534035	0.055224	-0.366045	0.001256	0.013779	-0.013432
462	2.363929	0.005000	2.670907	-9.064440	-1.530360	-0.534148	0.055224	-0.366928	0.007629	0.011927	-0.016046
463	2.368929	0.005000	2.649436	-9.026672	-1.508532	-0.534261	0.055224	-0.367811	0.002639	0.011200	-0.011900
464	2.373929	0.005000	2.589267	-9.083773	-1.529787	-0.534374	0.055132	-0.368333	0.003272	0.023865	-0.014185
465	2.378929	0.005000	2.571302	-9.025200	-1.551062	-0.534487	0.054906	-0.368333	-0.000225	0.013625	-0.014746
466	2.383929	0.005000	2.632782	-9.046671	-1.608840	-0.534600	0.054680	-0.368333	0.001202	0.001985	0.000706
467	2.388929	0.005000	2.517107	-9.025200	-1.536107	-0.534713	0.054454	-0.368333	0.000508	0.016006	-0.013616
468	2.393929	0.005000	2.677692	-8.985960	-1.497952	-0.534826	0.054229	-0.368333	-0.002749	0.009974	-0.011528
469	2.398929	0.005000	2.644262	-9.055563	-1.584782	-0.534939	0.054003	-0.368333	-0.007745	0.016908	-0.016655
470	2.403929	0.005000	2.629080	-8.971631	-1.519778	-0.535052	0.053777	-0.368333	-0.009140	0.016797	-0.015663
471	2.408929	0.005000	2.641106	-9.038807	-1.555993	-0.535165	0.053551	-0.368333	-0.002535	0.009928	-0.000611
472	2.413929	0.005000	2.563195	-9.077035	-1.569600	-0.535278	0.053325	-0.368333	-0.003741	0.020426	-0.007788
473	2.418929	0.005000	2.613914	-9.040366	-1.542397	-0.535391	0.053100	-0.368333	-0.004620	0.007749	-0.009880
474	2.423929	0.005000	2.640094	-9.042411	-1.491120	-0.535503	0.052874	-0.368333	-0.002138	0.014758	-0.011464
475	2.428929	0.005000	2.627857	-9.035316	-1.599947	-0.535616	0.052648	-0.368333	-0.015787	0.008786	-0.013043
476	2.433929	0.005000	2.501910	-9.094230	-1.519469	-0.535729	0.052422	-0.368333	-0.015529	0.020016	-0.012124
477	2.438929	0.005000	2.536642	-9.081295	-1.617267	-0.535736	0.052282	-0.368286	-0.004858	0.012540	-0.024859
478	2.443929	0.005000	2.644664	-9.135035	-1.640195	-0.535284	0.052507	-0.368033	-0.015235	0.015712	-0.006518
479	2.448929	0.005000	2.557463	-9.071303	-1.544085	-0.534832	0.052733	-0.367781	-0.018283	0.020202	-0.021840
480	2.453929	0.005000	2.634990	-9.031110	-1.569600	-0.534381	0.052959	-0.367529	-0.008265	0.006728	-0.011301
481	2.458929	0.005000	2.691712	-9.137637	-1.540925	-0.533929	0.053185	-0.367277	-0.019223	0.018816	-0.014268
482	2.463929	0.005000	2.598360	-9.064440	-1.565340	-0.533477	0.053411	-0.367024	-0.029796	0.017118	-0.021041
483	2.468929	0.005000	2.668320	-9.064440	-1.573318	-0.533025	0.053637	-0.366772	-0.014607	0.012341	-0.003857
484	2.473929	0.005000	2.665624	-9.025200	-1.645384	-0.532573	0.053863	-0.366520	-0.019808	0.022790	-0.018087
485	2.478929	0.005000	2.670014	-9.062746	-1.537135	-0.532122	0.054089	-0.366268	-0.027493	0.014048	-0.011115
486	2.483929	0.005000	2.745669	-8.987091	-1.528098	-0.531670	0.054315	-0.366015	-0.012556	0.016810	-0.018825
487	2.488929	0.005000	2.707560	-9.064332	-1.491445	-0.531218	0.054540	-0.365763	-0.023960	0.012703	-0.009410
488	2.493929	0.005000	2.746345	-9.025200	-1.492484	-0.530766	0.054766	-0.365511	-0.017035	0.011310	-0.009193
489	2.498929	0.005000	2.668320	-9.061528	-1.569600	-0.530315	0.054992	-0.365259	-0.028005	0.006034	-0.012047
490	2.503929	0.005000	2.705081	-8.993396	-1.643123	-0.529863	0.055218	-0.365007	-0.023373	0.007547	-0.010519
491	2.508929	0.005000	2.713705	-9.100607	-1.533433	-0.530291	0.055004	-0.364877	-0.023115	0.022343	-0.021451
492	2.513929	0.005000	2.633139	-9.178101	-1.600722	-0.530743	0.054778	-0.364751	-0.013772	0.006694	-0.016042
493	2.518929	0.005000	2.663239	-9.108761	-1.677158	-0.531195	0.054552	-0.364625	-0.026119	0.021669	-0.002409
494	2.523929	0.005000	2.696174	-9.058747	-1.614533	-0.531646	0.054326	-0.364499	-0.021914	0.010965	-0.014684
495	2.528929	0.005000	2.714206	-9.025200	-1.602194	-0.532098	0.054100	-0.364373	-0.022676	0.008973	-0.010450
496	2.533929	0.005000	2.597117	-9.032477	-1.608840	-0.532550	0.053874	-0.364246	-0.021364	0.022586	-0.023503
497	2.538929	0.005000	2.637291	-8.985960	-1.679109	-0.533002	0.053649	-0.364120	-0.022467	0.011809	-0.013709
498	2.543929	0.005000	2.619847	-9.055207	-1.687320	-0.533454	0.053423	-0.363994	-0.011761	0.016303	-0.011983
499	2.548929	0.005000	2.668320	-9.113471	-1.687320	-0.533905	0.053197	-0.363868	-0.008725	0.011753	-0.016510
500	2.553929	0.005000	2.639882	-9.092878	-1.580402	-0.534357	0.052971	-0.363742	-0.006399	0.018535	-0.011059
501	2.558929	0.005000	2.668320	-9.126391	-1.597485	-0.534809	0.052745	-0.363616	0.001736	0.018237	-0.009346
502	2.563929	0.005000	2.641458	-9.064440	-1.674942	-0.535261	0.052519	-0.363489	0.000561	0.015741	-0.002749
503	2.568929	0.005000	2.654920	-9.090280	-1.649040	-0.535713	0.052293	-0.363363	-0.006565	0.019928	-0.013065
504	2.573929	0.005000	2.564542	-9.128978	-1.597485	-0.535907	0.052067	-0.363333	-0.005662	0.010223	-0.010526
505	2.578929	0.005000	2.644045	-9.176506	-1.608840	-0.536020	0.051842	-0.363333	-0.011483	0.025705	-0.020156
506	2.583929	0.005000	2.597682	-9.127221	-1.608840	-0.536132	0.051616	-0.363333	-0.000211	0.014934	-0.023478
507	2.588929	0.005000	2.629080	-9.041729	-1.530360	-0.536245	0.051390	-0.363333	-0.010221	0.014912	-0.000668
508	2.593929	0.005000	2.568152	-9.068576	-1.630528	-0.536358	0.051164	-0.363333	-0.006326	0.024849	-0.017389
509	2.598929	0.005000	2.629080	-9.043310	-1.593751	-0.536471	0.050938	-0.363333	-0.004644	0.011859	-0.005722
510	2.603929	0.005000	2.608972	-9.182160	-1.726560	-0.536584	0.050713	-0.363333	0.006777	0.016775	-0.013660
511	2.608929	0.005000	2.648402	-9.084358	-1.588922	-0.536697	0.050487	-0.363333	-0.004718	0.022013	-0.015606
512	2.613929	0.005000	2.709713	-9.066593	-1.590297	-0.536810	0.050261	-0.363333	0.000094	0.025285	-0.024620
513	2.618929	0.005000	2.650799	-9.025200	-1.530360	-0.536922	0.050035	-0.363333	0.001125	0.023487	-0.016994
514	2.623929	0.005000	2.646059	-9.047461	-1.530360	-0.537035	0.049809	-0.363333	-0.002581	0.016120	-0.005968
515	2.628929	0.005000	2.543273	-8.985960	-1.562273	-0.537148	0.049584	-0.363333	0.001006	0.017849	-0.018125
516	2.633929	0.005000	2.496247	-9.016186	-1.539374	-0.537261	0.049358	-0.363333	0.005814	0.010297	-0.009842
517	2.638929	0.005000	2.604232	-9.064440	-1.555208	-0.537130	0.049376	-0.363537	-0.004886	0.019497	-0.018605
518	2.643929	0.005000	2.563102	-9.117049	-1.609708	-0.536792	0.049602	-0.363915	-0.008858	0.015356	-0.023835
519	2.648929	0.005000	2.536983	-9.117297	-1.648886	-0.536453	0.049827	-0.364294	-0.000845	0.006722	-0.005052
520	2.653929	0.005000	2.656531	-9.036989	-1.648080	-0.536114	0.050053	-0.364672	0.001611	0.024777	-0.017335
521	2.658929	0.005000	2.550600	-9.025200	-1.597940	-0.535776	0.050279	-0.365050	-0.001037	0.009430	-0.013690
522	2.663929	0.005000	2.600064	-8.985960	-1.569600	-0.535437	0.050505	-0.365428	-0.004710	0.007193	-0.008566
523	2.668929	0.005000	2.756002	-9.055238	-1.461082	-0.535098	0.050731	-0.365806	-0.009229	0.015625	-0.008194
524	2.673929	0.005000	2.681581	-9.086360	-1.517099	-0.534760	0.050956	-0.366185	-0.008799	0.019306	-0.010669
525	2.678929	0.005000	2.668320	-8.970685	-1.640443	-0.534421	0.051182	-0.366563	-0.003637	0.013221	-0.016935
526	2.683929	0.005000	2.654161	-9.025200	-1.576680	-0.534082	0.051408	-0.366941	-0.012688	0.012010	-0.004141
527	2.688929	0.005000	2.556657	-9.025200	-1.593829	-0.533744	0.051634	-0.367319	-0.007965	0.016212	-0.014240
528	2.693929	0.005000	2.599913	-8.917553	-1.643043	-0.533405	0.051860	-0.367697	0.001342	0.007419	-0.006205
529	2.698929	0.005000	2.689590	-9.020707	-1.599855	-0.533066	0.052085	-0.368076	-0.000493	0.020918	-0.018486
530	2.703929	0.005000	2.704090	-8.975550	-1.576540	-0.532980	0.052167	-0.368373	-0.004941	0.012488	-0.018865
531	2.708929	0.005000	2.668320	-8.951676	-1.527882	-0.533432	0.051941	-0.368499	0.002178	0.010991	0.003820
532	2.713929	0.005000	2.627175	-8.950531	-1.459502	-0.533883	0.051715	-0.368625	-0.011081	0.016411	-0.011161
533	2.718929	0.005000	2.551483	-9.066206	-1.532126	-0.534335	0.051490	-0.368752	-0.005439	0.014350	-0.005722
534	2.723929	0.005000	2.590522	-9.064440	-1.530360	-0.534787	0.051264	-0.368878	0.002759	0.022678	-0.001898
535	2.728929	0.005000	2.745437	-9.141557	-1.530360	-0.535238	0.051038	-0.369004	-0.008141	0.017999	-0.019531
536	2.733929	0.005000	2.668320	-9.103680	-1.569600	-0.535690	0.050812	-0.369130	-0.004952	0.012363	-0.007080
537	2.738929	0.005000	2.668320	-9.069018	-1.604262	-0.536141	0.050586	-0.369256	-0.003992	0.017311	-0.016898
538	2.743929	0.005000	2.707560	-9.071008	-1.677467	-0.536593	0.050361	-0.369382	-0.002976	0.014265	-0.016317
539	2.748929	0.005000	2.786040	-9.142920	-1.613147	-0.537044	0.050135	-0.369508	-0.004447	0.013174	-0.008905
540	2.753929	0.005000	2.746800	-9.059591	-1.544907	-0.537496	0.049909	-0.369634	-0.001249	0.003693	-0.011216
541	2.758929	0.005000	2.695817	-9.031071	-1.430254	-0.537948	0.049683	-0.369760	-0.005692	0.013610	-0.014163
542	2.763929	0.005000	2.818386	-9.115345	-1.530360	-0.538399	0.049457	-0.369886	-0.010153	0.013717	-0.013226
543	2.768929	0.005000	2.629080	-9.025200	-1.466936	-0.538772	0.049254	-0.369987	-0.013741	0.010975	-0.000224
544	2.773929	0.005000	2.581382	-9.064440	-1.639622	-0.538434	0.049254	-0.369861	-0.012012	0.023535	-0.020384
545	2.778929	0.005000	2.688598	-9.084718	-1.549322	-0.538095	0.049254	-0.369735	0.001124	0.012892	-0.008564
546	2.783929	0.005000	2.619057	-9.103680	-1.530360	-0.537756	0.049254	-0.369609	-0.003542	0.017348	-0.015759
547	2.788929	0.005000	2.707560	-9.069382	-1.508269	-0.537418	0.049254	-0.369483	-0.018326	0.014992	-0.014908
548	2.793929	0.005000	2.684076	-8.985960	-1.581342	-0.537079	0.049254	-0.369357	-0.011714	0.015577	-0.013457
549	2.798929	0.005000	2.720186	-9.050451	-1.596214	-0.536740	0.049254	-0.369231	-0.017088	0.015762	-0.018101
550	2.803929	0.005000	2.641024	-9.013256	-1.636136	-0.536401	0.049254	-0.369105	-0.019252	0.016924	0.002468
551	2.808929	0.005000	2.632411	-9.025200	-1.483591	-0.536063	0.049254	-0.368979	-0.012877	0.015342	-0.012719
552	2.813929	0.005000	2.707560	-9.040413	-1.530360	-0.535724	0.049254	-0.368853	-0.008547	0.011086	0.002058
553	2.818929	0.005000	2.730850	-9.103680	-1.546310	-0.535385	0.049254	-0.368727	-0.006063	0.018210	-0.003878
554	2.823929	0.005000	2.668320	-9.142920	-1.547137	-0.535046	0.049254	-0.368600	-0.005566	0.009380	-0.010781
555	2.828929	0.005000	2.668320	-9.107321	-1.591040	-0.534708	0.049254	-0.368474	-0.010177	0.022718	-0.004795
556	2.833929	0.005000	2.571263	-9.122257	-1.511783	-0.534369	0.049254	-0.368348	-0.005901	0.016876	-0.013397
557	2.838929	0.005000	2.688196	-9.123044	-1.530871	-0.534229	0.049750	-0.368001	0.000645	0.006520	-0.007597
558	2.843929	0.005000	2.669854	-9.045587	-1.607306	-0.534116	0.050315	-0.367622	-0.009657	0.019169	-0.014309
559	2.848929	0.005000	2.631729	-9.142920	-1.689969	-0.534003	0.050879	-0.367244	-0.016325	0.009600	-0.018603
560	2.853929	0.005000	2.472120	-9.103680	-1.557021	-0.533890	0.051443	-0.366866	-0.020186	0.011842	-0.008198
561	2.858929	0.005000	2.544264	-9.047988	-1.592388	-0.533777	0.052008	-0.366488	-0.018447	0.019462	-0.025252
562	2.863929	0.005000	2.527068	-8.978137	-1.569600	-0.533665	0.052572	-0.366110	-0.008891	0.016519	-0.023644
563	2.868929	0.005000	2.643766	-9.010514	-1.569600	-0.533552	0.053137	-0.365731	-0.000793	0.025772	-0.023070
564	2.873929	0.005000	2.696608	-9.075392	-1.673176	-0.533439	0.053701	-0.365353	-0.000489	0.021114	-0.006541
565	2.878929	0.005000	2.655199	-9.064440	-1.621961	-0.533326	0.054266	-0.364975	-0.004606	0.021050	-0.013463
566	2.883929	0.005000	2.653568	-9.091436	-1.554848	-0.533213	0.054830	-0.364597	-0.008360	0.011076	-0.017095
567	2.888929	0.005000	2.652162	-9.052899	-1.558059	-0.533100	0.055395	-0.364218	-0.022295	0.009331	-0.003361
568	2.893929	0.005000	2.728858	-9.035849	-1.530360	-0.532987	0.055959	-0.363840	-0.034925	0.018954	-0.015394
569	2.898929	0.005000	2.707560	-9.035177	-1.618817	-0.532875	0.056523	-0.363462	-0.018935	0.004287	-0.012529
570	2.903929	0.005000	2.737846	-9.064440	-1.578554	-0.532836	0.056716	-0.363582	-0.016806	0.018846	-0.016275
571	2.908929	0.005000	2.715590	-8.993990	-1.569600	-0.532836	0.056716	-0.363960	-0.024942	0.012904	-0.026124
572	2.913929	0.005000	2.668320	-8.985960	-1.719171	-0.532836	0.056716	-0.364339	-0.012467	0.012075	-0.020103
573	2.918929	0.005000	2.641814	-9.058073	-1.713826	-0.532836	0.056716	-0.364717	-0.019578	0.017884	-0.026217
574	2.923929	0.005000	2.696738	-9.103680	-1.614251	-0.532836	0.056716	-0.365095	-0.011866	0.004391	-0.011769
575	2.928929	0.005000	2.624278	-9.103680	-1.687320	-0.532836	0.056716	-0.365473	-0.005570	0.016000	-0.009484
576	2.933929	0.005000	2.636640	-9.103680	-1.648080	-0.532836	0.056716	-0.365851	-0.001896	0.020562	-0.014744
577	2.938929	0.005000	2.707560	-9.064440	-1.651302	-0.532836	0.056716	-0.366230	-0.003807	0.014933	-0.001076
578	2.943929	0.005000	2.742400	-9.142920	-1.643680	-0.532836	0.056716	-0.366608	-0.007077	0.016089	-0.020840
579	2.948929	0.005000	2.665936	-9.025200	-1.530360	-0.532836	0.056716	-0.366986	-0.016264	0.015551	-0.015962
580	2.953929	0.005000	2.667685	-9.103680	-1.531630	-0.532836	0.056716	-0.367364	-0.023758	0.018326	-0.022571
581	2.958929	0.005000	2.667933	-9.103680	-1.686545	-0.532836	0.056716	-0.367742	-0.009906	0.017089	-0.006523
582	2.963929	0.005000	2.668320	-9.144330	-1.648080	-0.532836	0.056716	-0.368121	-0.026831	0.024074	-0.014857
583	2.968929	0.005000	2.703608	-9.027176	-1.685344	-0.532836	0.056369	-0.368333	-0.007144	0.016078	-0.013157
584	2.973929	0.005000	2.517309	-9.103680	-1.651054	-0.532836	0.055579	-0.368333	-0.002878	0.015948	-0.006728
585	2.978929	0.005000	2.621960	-9.060880	-1.648080	-0.532836	0.054788	-0.368333	-0.000763	0.023738	-0.026267
586	2.983929	0.005000	2.746800	-8.985960	-1.687320	-0.532836	0.053997	-0.368333	0.005225	0.010429	-0.007232
587	2.988929	0.005000	2.606524	-8.985960	-1.653641	-0.532836	0.053207	-0.368333	-0.004562	0.018403	-0.013465
588	2.993929	0.005000	2.490477	-9.073084	-1.542598	-0.532836	0.052416	-0.368333	-0.013141	0.014349	-0.015726
589	2.998929	0.005000	2.575557	-9.071582	-1.373400	-0.532836	0.051626	-0.368333	-0.020216	0.011805	-0.009873
590	3.003929	0.005000	2.722308	-9.025200	-1.584348	-0.532836	0.050835	-0.368333	-0.010955	0.016926	-0.017167
591	3.008929	0.005000	2.755506	-8.933599	-1.578306	-0.532836	0.050044	-0.368333	-0.011090	0.010705	-0.017744
592	3.013929	0.005000	2.599243	-9.015471	-1.667863	-0.532836	0.049254	-0.368333	-0.013960	0.004398	-0.020816
593	3.018929	0.005000	2.675307	-9.071427	-1.541111	-0.532836	0.048463	-0.368333	-0.010178	0.008317	-0.010687
594	3.023929	0.005000	2.635013	-9.025200	-1.608840	-0.532836	0.047673	-0.368333	-0.014131	0.014529	-0.013156
595	3.028929	0.005000	2.656004	-8.998276	-1.581916	-0.532836	0.046882	-0.368333	-0.004397	0.017639	-0.020772
596	3.033929	0.005000	2.680884	-9.051102	-1.595502	-0.533191	0.046066	-0.367568	-0.014045	0.017033	-0.011955
597	3.038929	0.005000	2.617601	-8.935241	-1.597361	-0.534772	0.045163	-0.364165	-0.005964	0.017958	-0.018682
598	3.043929	0.005000	2.550600	-9.019731	-1.579034	-0.536352	0.044260	-0.360761	-0.001648	0.012562	0.001626
599	3.048929	0.005000	2.652395	-8.993349	-1.640691	-0.537933	0.043356	-0.357357	-0.011993	0.025016	-0.021716
600	3.053929	0.005000	2.651837	-9.041683	-1.726560	-0.539513	0.042453	-0.353953	-0.004001	0.009900	-0.022156
601	3.058929	0.005000	2.585611	-9.125415	-1.587105	-0.541094	0.041550	-0.350549	0.000905	0.003873	-0.004581
602	3.063929	0.005000	2.707560	-9.043728	-1.509648	-0.542674	0.040647	-0.347145	-0.004491	0.015599	-0.010634
603	3.068929	0.005000	2.707560	-9.005259	-1.588899	-0.544255	0.039743	-0.343741	0.002357	0.009186	0.002098
604	3.073929	0.005000	2.667375	-9.064440	-1.608840	-0.545835	0.038840	-0.340337	-0.008052	0.015831	-0.014177
605	3.078929	0.005000	2.710550	-8.985960	-1.551475	-0.547416	0.037937	-0.336934	-0.004753	0.012328	-0.018412
606	3.083929	0.005000	2.668320	-9.064440	-1.434297	-0.548996	0.037034	-0.333530	0.000094	0.011259	-0.013349
607	3.088929	0.005000	2.573280	-9.064440	-1.524241	-0.550577	0.036131	-0.330126	-0.003053	0.019242	-0.014048
608	3.093929	0.005000	2.574109	-9.103853	-1.695099	-0.552157	0.035227	-0.326722	-0.006210	0.015872	-0.013282
609	3.098929	0.005000	2.638328	-9.133672	-1.690821	-0.553729	0.034330	-0.323337	-0.001833	0.016200	-0.012456
610	3.103929	0.005000	2.525333	-9.064440	-1.620133	-0.553277	0.034782	-0.324346	-0.002661	0.014979	-0.013941
611	3.108929	0.005000	2.497944	-9.025200	-1.556184	-0.552826	0.035233	-0.325355	-0.005410	0.023277	-0.015999
612	3.113929	0.005000	2.602233	-9.062380	-1.542753	-0.552374	0.035685	-0.326363	-0.008866	0.009881	-0.013700
613	3.118929	0.005000	2.573342	-9.036571	-1.474622	-0.551923	0.036137	-0.327372	-0.009939	0.015170	-0.003134
614	3.123929	0.005000	2.629080	-9.035688	-1.519872	-0.551471	0.036588	-0.328380	-0.011458	0.016266	-0.014199
615	3.128929	0.005000	2.629080	-9.064440	-1.510748	-0.551020	0.037040	-0.329389	-0.008552	0.003360	-0.014279
616	3.133929	0.005000	2.668320	-9.025200	-1.491120	-0.550568	0.037492	-0.330398	-0.009660	0.020982	-0.015350
617	3.138929	0.005000	2.567083	-9.095439	-1.569600	-0.550116	0.037943	-0.331406	-0.002138	0.013169	-0.014085
618	3.143929	0.005000	2.661101	-9.071659	-1.630497	-0.549665	0.038395	-0.332415	-0.000417	0.011261	-0.010524
619	3.148929	0.005000	2.707560	-9.142920	-1.714013	-0.549213	0.038846	-0.333423	-0.006946	0.008281	-0.016361
620	3.153929	0.005000	2.589840	-9.098026	-1.597531	-0.548762	0.039298	-0.334432	-0.014240	0.014377	-0.011658
621	3.158929	0.005000	2.633712	-9.059808	-1.530360	-0.548310	0.039750	-0.335441	0.003127	0.015818	-0.005506
622	3.163929	0.005000	2.582621	-8.914699	-1.608840	-0.547859	0.040201	-0.336449	-0.004707	0.007868	0.000115
623	3.168929	0.005000	2.482592	-9.017346	-1.527742	-0.547053	0.040742	-0.337952	0.003507	0.012907	-0.009876
624	3.173929	0.005000	2.589840	-9.025200	-1.571629	-0.546150	0.041306	-0.339591	-0.005904	0.010691	-0.010997
625	3.178929	0.005000	2.590847	-9.063433	-1.532375	-0.545247	0.041870	-0.341230	-0.010861	0.019569	-0.003484
626	3.183929	0.005000	2.668320	-9.142920	-1.569600	-0.544343	0.042435	-0.342868	-0.010032	0.014696	-0.011888
627	3.188929	0.005000	2.512475	-9.105353	-1.569042	-0.543440	0.042999	-0.344507	-0.009700	0.015560	-0.005506
628	3.193929	0.005000	2.589840	-9.062860	-1.648080	-0.542537	0.043564	-0.346146	-0.013180	0.028046	-0.018030
629	3.198929	0.005000	2.587237	-9.064440	-1.504133	-0.541634	0.044128	-0.347785	-0.009019	0.015018	-0.009127
630	3.203929	0.005000	2.635370	-8.953010	-1.563310	-0.540731	0.044693	-0.349424	-0.010580	0.018706	-0.016875
631	3.208929	0.005000	2.707560	-9.029367	-1.491120	-0.539828	0.045257	-0.351063	-0.019011	0.016868	-0.024780
632	3.213929	0.005000	2.820090	-9.064440	-1.559221	-0.538924	0.045821	-0.352702	-0.007106	0.015790	-0.003953
633	3.218929	0.005000	2.646276	-9.058708	-1.636616	-0.538021	0.046386	-0.354340	-0.020733	0.018455	-0.026790
634	3.223929	0.005000	2.694051	-9.064440	-1.634571	-0.537118	0.046950	-0.355979	-0.007930	0.013675	-0.011987
635	3.228929	0.005000	2.683873	-9.103680	-1.585153	-0.536215	0.047515	-0.357618	-0.007045	0.010735	-0.023333
636	3.233929	0.005000	2.738466	-9.072774	-1.569600	-0.535566	0.047952	-0.358617	-0.008607	0.017848	-0.015000
637	3.238929	0.005000	2.629080	-9.124230	-1.696665	-0.535114	0.048291	-0.359122	-0.004516	0.015970	-0.012086
638	3.243929	0.005000	2.551431	-9.045235	-1.638062	-0.534663	0.048630	-0.359627	-0.007750	0.014888	-0.018566
639	3.248929	0.005000	2.629080	-9.110155	-1.552203	-0.534211	0.048969	-0.360131	-0.007579	0.011734	-0.010336
640	3.253929	0.005000	2.656376	-9.064440	-1.424584	-0.533759	0.049308	-0.360636	-0.005741	0.017703	-0.014056
641	3.258929	0.005000	2.694919	-9.117638	-1.544318	-0.533307	0.049646	-0.361140	0.002956	0.005599	-0.014460
642	3.263929	0.005000	2.591126	-9.117189	-1.713051	-0.532856	0.049985	-0.361645	-0.006647	0.020857	-0.014195
643	3.268929	0.005000	2.653789	-9.025200	-1.687320	-0.532404	0.050324	-0.362149	-0.000451	0.016373	-0.015231
644	3.273929	0.005000	2.659600	-8.955440	-1.569600	-0.531952	0.050663	-0.362654	-0.002290	0.013072	-0.014508
645	3.278929	0.005000	2.730704	-8.969864	-1.624936	-0.531500	0.051002	-0.363158	-0.009436	0.026480	-0.018021
646	3.283929	0.005000	2.685438	-9.047322	-1.547478	-0.531048	0.051341	-0.363663	-0.004017	0.003434	-0.017142
647	3.288929	0.005000	2.686461	-9.067399	-1.587741	-0.530597	0.051680	-0.364167	-0.011914	0.016341	-0.012281
648	3.293929	0.005000	2.649630	-9.144780	-1.547190	-0.530145	0.052019	-0.364672	-0.020914	0.018773	-0.024335
649	3.298929	0.005000	2.452415	-9.044905	-1.510655	-0.529890	0.052278	-0.364956	-0.002730	0.012843	-0.014374
650	3.303929	0.005000	2.552815	-9.082952	-1.608840	-0.530003	0.052391	-0.364830	-0.016586	0.013049	-0.027384
651	3.308929	0.005000	2.547269	-9.082395	-1.566269	-0.530116	0.052504	-0.364704	-0.023180	0.018737	-0.022384
652	3.313929	0.005000	2.668320	-9.109056	-1.558043	-0.530229	0.052617	-0.364578	-0.018317	0.019397	-0.021172
653	3.318929	0.005000	2.629080	-9.009290	-1.514450	-0.530342	0.052730	-0.364452	-0.014001	0.018067	-0.018415
654	3.323929	0.005000	2.644152	-9.109655	-1.500216	-0.530455	0.052843	-0.364325	-0.005265	0.018916	-0.013682
655	3.328929	0.005000	2.593635	-9.167815	-1.544705	-0.530568	0.052956	-0.364199	-0.011209	0.016055	-0.012673
656	3.333929	0.005000	2.524683	-9.077763	-1.622891	-0.530680	0.053068	-0.364073	-0.008476	0.012631	-0.014021
657	3.338929	0.005000	2.668320	-9.037980	-1.570499	-0.530793	0.053181	-0.363947	-0.016643	0.016020	-0.015088
658	3.343929	0.005000	2.684044	-9.025200	-1.581358	-0.530906	0.053294	-0.363821	-0.017459	0.007323	-0.014348
659	3.348929	0.005000	2.629080	-9.025200	-1.569600	-0.531019	0.053407	-0.363695	-0.015908	0.014082	-0.021835
660	3.353929	0.005000	2.678513	-8.996153	-1.648080	-0.531132	0.053520	-0.363569	-0.018744	0.014022	-0.013934
661	3.358929	0.005000	2.689218	-9.055269	-1.618011	-0.531245	0.053633	-0.363443	-0.010601	0.013692	-0.010782
662	3.363929	0.005000	2.620931	-9.095531	-1.631783	-0.531372	0.053731	-0.363349	-0.020192	0.014627	-0.018878
663	3.368929	0.005000	2.675532	-9.032412	-1.594417	-0.531598	0.053731	-0.363475	-0.011619	0.000233	-0.009412
664	3.373929	0.005000	2.557168	-8.985960	-1.543497	-0.531824	0.053731	-0.363602	-0.015930	0.018461	-0.019266
665	3.378929	0.005000	2.662774	-9.030746	-1.608840	-0.532050	0.053731	-0.363728	-0.030450	0.005142	-0.022246
666	3.383929	0.005000	2.604851	-9.064440	-1.613844	-0.532275	0.053731	-0.363854	-0.011898	0.004828	-0.004983
667	3.388929	0.005000	2.633061	-9.056477	-1.656043	-0.532501	0.053731	-0.363980	-0.015882	0.015097	-0.013569
668	3.393929	0.005000	2.505442	-8.994837	-1.681402	-0.532727	0.053731	-0.364106	-0.016374	0.015476	-0.000933
669	3.398929	0.005000	2.515281	-9.062480	-1.608840	-0.532953	0.053731	-0.364232	-0.011532	0.023059	-0.009810
670	3.403929	0.005000	2.434274	-8.988748	-1.723772	-0.533179	0.053731	-0.364358	-0.007519	0.005789	-0.013728
671	3.408929	0.005000	2.551715	-9.025200	-1.608096	-0.533404	0.053731	-0.364484	0.000143	0.009098	-0.018862
672	3.413929	0.005000	2.668320	-9.025200	-1.647562	-0.533630	0.053731	-0.364610	-0.007874	0.012284	-0.007681
673	3.418929	0.005000	2.744414	-8.988346	-1.531553	-0.533856	0.053731	-0.364736	-0.009305	0.021995	-0.000678
674	3.423929	0.005000	2.707560	-9.060009	-1.569600	-0.534082	0.053731	-0.364862	-0.008432	0.020554	-0.016315
675	3.428929	0.005000	2.668320	-8.991572	-1.569600	-0.534308	0.053731	-0.364989	-0.002539	0.001401	-0.006901
676	3.433929	0.005000	2.589840	-9.025200	-1.569600	-0.534328	0.053731	-0.364885	0.002433	0.022132	-0.018324
677	3.438929	0.005000	2.619444	-9.015564	-1.574418	-0.534328	0.053731	-0.364759	-0.000428	0.017385	-0.015226
678	3.443929	0.005000	2.741440	-9.103680	-1.614200	-0.534328	0.053731	-0.364633	-0.006205	0.008710	-0.003499
679	3.448929	0.005000	2.602605	-9.130155	-1.569600	-0.534328	0.053731	-0.364507	-0.007900	0.017635	-0.011520
680	3.453929	0.005000	2.700549	-9.142920	-1.601829	-0.534328	0.053731	-0.364380	-0.005181	0.006668	-0.008170
681	3.458929	0.005000	2.668320	-9.087786	-1.616787	-0.534328	0.053731	-0.364254	-0.000477	0.014279	-0.004638
682	3.463929	0.005000	2.589840	-9.094710	-1.551661	-0.534328	0.053731	-0.364128	0.005678	0.004949	-0.006322
683	3.468929	0.005000	2.599104	-9.025200	-1.618832	-0.534328	0.053731	-0.364002	-0.007875	0.016312	-0.002617
684	3.473929	0.005000	2.582203	-9.103680	-1.676786	-0.534328	0.053731	-0.363876	-0.005030	0.013526	-0.011795
685	3.478929	0.005000	2.543613	-9.075997	-1.592713	-0.534328	0.053731	-0.363749	-0.015210	0.012156	-0.013764
686	3.483929	0.005000	2.550600	-9.037779	-1.555518	-0.534328	0.053731	-0.363623	-0.010443	0.012378	-0.013376
687	3.488929	0.005000	2.642046	-8.985960	-1.543497	-0.534328	0.053731	-0.363497	-0.004270	0.011521	-0.021597
688	3.493929	0.005000	2.625842	-8.985960	-1.533598	-0.534328	0.053731	-0.363371	-0.007376	0.014113	-0.017750
689	3.498929	0.005000	2.683198	-8.971082	-1.687320	-0.534249	0.053652	-0.363421	-0.001138	0.014590	-0.016416
690	3.503929	0.005000	2.621148	-8.993752	-1.679388	-0.534136	0.053539	-0.363548	-0.012160	0.022009	-0.015301
691	3.508929	0.005000	2.606586	-9.002706	-1.737559	-0.534023	0.053426	-0.363674	-0.010079	0.020718	-0.023412
692	3.513929	0.005000	2.650551	-8.989662	-1.630311	-0.533910	0.053313	-0.363800	-0.004114	0.011633	-0.000495
693	3.518929	0.005000	2.689249	-9.046129	-1.648080	-0.533797	0.053200	-0.363926	-0.016307	0.025838	-0.024093
694	3.523929	0.005000	2.668893	-9.025200	-1.628173	-0.533684	0.053087	-0.364052	-0.013900	0.018696	-0.001411
695	3.528929	0.005000	2.647964	-9.083324	-1.591428	-0.533571	0.052974	-0.364178	-0.010314	0.017217	-0.011953
696	3.533929	0.005000	2.571498	-9.124578	-1.587942	-0.533458	0.052861	-0.364305	-0.013448	0.019544	-0.017703
697	3.538929	0.005000	2.646400	-9.103680	-1.652681	-0.533346	0.052749	-0.364431	-0.009751	0.019525	-0.013308
698	3.543929	0.005000	2.556855	-9.165668	-1.559363	-0.533233	0.052636	-0.364557	-0.010979	0.021350	-0.016251
699	3.548929	0.005000	2.519338	-9.064440	-1.553861	-0.533120	0.052523	-0.364683	-0.013647	0.011960	-0.005374
700	3.553929	0.005000	2.565323	-9.064440	-1.505843	-0.533007	0.052410	-0.364809	-0.006356	0.019431	-0.012312
701	3.558929	0.005000	2.632364	-9.167985	-1.569600	-0.532894	0.052297	-0.364935	0.000765	0.013157	-0.006209
702	3.563929	0.005000	2.694408	-9.064440	-1.556448	-0.532836	0.052294	-0.364816	0.000737	0.012054	-0.002726
703	3.568929	0.005000	2.680450	-8.988810	-1.584580	-0.532836	0.052407	-0.364438	-0.008858	0.021133	-0.013272
704	3.573929	0.005000	2.610382	-8.962785	-1.636492	-0.532836	0.052520	-0.364060	-0.004427	0.016676	-0.008447
705	3.578929	0.005000	2.629080	-8.878805	-1.530360	-0.532836	0.052632	-0.363682	-0.010754	0.022635	-0.018419
706	3.583929	0.005000	2.668916	-8.936463	-1.530360	-0.532836	0.052745	-0.363304	-0.007019	0.000923	-0.020958
707	3.588929	0.005000	2.547362	-9.073441	-1.569600	-0.532836	0.052858	-0.362926	-0.005735	0.024086	-0.012039
708	3.593929	0.005000	2.636407	-9.119636	-1.608840	-0.532836	0.052971	-0.362548	-0.006866	0.023856	-0.015570
709	3.598929	0.005000	2.621660	-9.152478	-1.591861	-0.532836	0.053084	-0.362170	-0.001560	0.013770	0.002657
710	3.603929	0.005000	2.629080	-9.031598	-1.680922	-0.532836	0.053196	-0.361792	-0.005774	0.022602	-0.004816
711	3.608929	0.005000	2.505504	-9.115392	-1.557888	-0.532836	0.053309	-0.361414	-0.015548	0.026822	-0.021156
712	3.613929	0.005000	2.589840	-9.167660	-1.530360	-0.532836	0.053422	-0.361036	-0.002280	0.028014	-0.020366
713	3.618929	0.005000	2.699938	-9.142920	-1.534171	-0.532836	0.053535	-0.360657	-0.006701	0.017637	-0.020786
714	3.623929	0.005000	2.634726	-9.100857	-1.614486	-0.532836	0.053648	-0.360279	-0.013134	0.012904	-0.016211
715	3.628929	0.005000	2.700821	-9.062194	-1.574093	-0.532865	0.053790	-0.360099	-0.008154	0.019663	-0.023553
716	3.633929	0.005000	2.702606	-8.988437	-1.644365	-0.532978	0.054016	-0.360477	-0.013385	0.018577	-0.011981
717	3.638929	0.005000	2.628398	-9.140875	-1.530360	-0.533091	0.054242	-0.360855	-0.004979	0.023960	-0.025186
718	3.643929	0.005000	2.628739	-9.025200	-1.530360	-0.533204	0.054468	-0.361234	-0.007995	0.001833	-0.003833
719	3.648929	0.005000	2.708469	-9.065349	-1.647171	-0.533317	0.054694	-0.361612	-0.008229	0.017797	-0.003064
720	3.653929	0.005000	2.552521	-9.029042	-1.526518	-0.533430	0.054919	-0.361991	-0.011450	0.012095	-0.020960
721	3.658929	0.005000	2.701673	-8.955550	-1.530360	-0.533543	0.055145	-0.362369	-0.009613	0.008359	-0.012535
722	3.663929	0.005000	2.632566	-9.025200	-1.562629	-0.533656	0.055371	-0.362747	-0.012650	0.020699	-0.019656
723	3.668929	0.005000	2.659304	-9.055424	-1.604332	-0.533769	0.055597	-0.363126	-0.013061	0.015186	-0.010751
724	3.673929	0.005000	2.589840	-9.098150	-1.619901	-0.533882	0.055823	-0.363504	-0.009517	0.017319	-0.017350
725	3.678929	0.005000	2.595913	-9.103680	-1.563527	-0.533995	0.056049	-0.363883	-0.011056	0.013220	-0.015243
726	3.683929	0.005000	2.557695	-9.110775	-1.583790	-0.534107	0.056275	-0.364261	-0.015519	0.016271	-0.003965
727	3.688929	0.005000	2.605329	-9.056695	-1.640335	-0.534220	0.056501	-0.364639	-0.012258	0.023007	-0.012287
728	3.693929	0.005000	2.659645	-9.142920	-1.626190	-0.534317	0.056716	-0.365000	-0.014058	0.010061	-0.009451
729	3.698929	0.005000	2.648956	-9.152602	-1.657762	-0.534092	0.056716	-0.365000	-0.013923	0.022494	-0.007423
730	3.703929	0.005000	2.668320	-9.132680	-1.687320	-0.533866	0.056716	-0.365000	-0.009750	0.013201	-0.014209
731	3.708929	0.005000	2.640342	-9.075702	-1.743275	-0.533640	0.056716	-0.365000	-0.009692	0.017023	-0.017403
732	3.713929	0.005000	2.589840	-9.025200	-1.593502	-0.533414	0.056716	-0.365000	-0.008355	0.018095	-0.019818
733	3.718929	0.005000	2.603426	-8.999546	-1.503947	-0.533188	0.056716	-0.365000	-0.005356	0.010747	-0.005246
734	3.723929	0.005000	2.656779	-9.064440	-1.581141	-0.532962	0.056716	-0.365000	-0.016835	0.019283	-0.014309
735	3.728929	0.005000	2.643650	-9.113780	-1.633510	-0.532736	0.056716	-0.365000	-0.000107	0.019392	-0.009313
736	3.733929	0.005000	2.526774	-9.127506	-1.593426	-0.532510	0.056716	-0.365000	-0.016149	0.022040	-0.009295
737	3.738929	0.005000	2.589840	-9.018833	-1.625276	-0.532284	0.056716	-0.365000	-0.025740	0.019565	-0.009035
738	3.743929	0.005000	2.606834	-9.008206	-1.586594	-0.532058	0.056716	-0.365000	-0.010516	0.013388	-0.007583
739	3.748929	0.005000	2.604650	-9.082457	-1.626857	-0.531833	0.056716	-0.365000	-0.008822	0.013967	-0.005311
740	3.753929	0.005000	2.610049	-9.065618	-1.668289	-0.531607	0.056716	-0.365000	-0.010880	0.017053	-0.019941
741	3.758929	0.005000	2.609344	-9.064440	-1.726483	-0.531381	0.056716	-0.365000	-0.009911	0.021686	-0.026564
742	3.763929	0.005000	2.587873	-8.967324	-1.646113	-0.531249	0.056622	-0.364790	-0.014926	0.012207	-0.005151
743	3.768929	0.005000	2.642682	-9.086066	-1.626454	-0.531136	0.056509	-0.364538	-0.017144	0.016879	-0.005751
744	3.773929	0.005000	2.673417	-9.025200	-1.660055	-0.531023	0.056396	-0.364286	-0.011987	0.010258	-0.022786
745	3.778929	0.005000	2.691511	-9.034108	-1.560692	-0.530910	0.056283	-0.364034	-0.013495	0.006036	-0.001382
746	3.783929	0.005000	2.589840	-9.157947	-1.678134	-0.530798	0.056171	-0.363782	-0.024780	0.020810	-0.022397
747	3.788929	0.005000	2.693075	-9.099466	-1.579871	-0.530685	0.056058	-0.363530	-0.021029	0.000380	-0.011224
748	3.793929	0.005000	2.656004	-9.026346	-1.543822	-0.530572	0.055945	-0.363277	-0.014865	0.016796	-0.004242
749	3.798929	0.005000	2.643441	-9.118041	-1.528439	-0.530459	0.055832	-0.363025	-0.006735	0.015008	-0.017699
750	3.803929	0.005000	2.601722	-9.064440	-1.711084	-0.530346	0.055719	-0.362773	-0.013969	0.002916	-0.014966
751	3.808929	0.005000	2.550600	-9.025200	-1.783312	-0.530233	0.055606	-0.362521	-0.005510	0.007466	-0.005863
752	3.813929	0.005000	2.579987	-9.103680	-1.618693	-0.530120	0.055493	-0.362269	0.002376	0.018148	-0.008429
753	3.818929	0.005000	2.716855	-9.064440	-1.657375	-0.530008	0.055381	-0.362017	-0.008349	0.018674	-0.014849
754	3.823929	0.005000	2.660048	-9.103680	-1.656352	-0.529895	0.055268	-0.361765	-0.010308	0.013358	-0.014984
755	3.828929	0.005000	2.589840	-9.103680	-1.648080	-0.529851	0.055224	-0.361513	-0.009052	0.015718	-0.011274
756	3.833929	0.005000	2.596548	-9.096972	-1.641372	-0.529851	0.055224	-0.361260	0.005016	0.015930	-0.022778
757	3.838929	0.005000	2.707560	-9.064440	-1.603155	-0.529851	0.055224	-0.361008	-0.009621	0.013726	-0.013814
758	3.843929	0.005000	2.550600	-9.094354	-1.608840	-0.529851	0.055224	-0.360756	-0.008106	0.020981	-0.016893
759	3.848929	0.005000	2.629080	-9.029321	-1.635718	-0.529851	0.055224	-0.360504	0.005304	0.012665	0.004531
760	3.853929	0.005000	2.586742	-8.979763	-1.608840	-0.529851	0.055224	-0.360252	-0.009428	0.019912	-0.015499
761	3.858929	0.005000	2.517588	-8.950872	-1.681092	-0.529851	0.055224	-0.359999	-0.008422	0.017575	-0.019731
762	3.863929	0.005000	2.666802	-9.025200	-1.571118	-0.529851	0.055224	-0.359747	-0.005947	0.007806	-0.003139
763	3.868929	0.005000	2.628569	-8.985449	-1.649614	-0.529851	0.055224	-0.359495	-0.006455	0.018957	-0.024740
764	3.873929	0.005000	2.589840	-8.985449	-1.572156	-0.529851	0.055224	-0.359243	-0.004098	0.009868	-0.012627
765	3.878929	0.005000	2.589840	-9.064440	-1.532498	-0.529851	0.055224	-0.358991	-0.004226	0.014821	-0.018104
766	3.883929	0.005000	2.594023	-9.062349	-1.534543	-0.529851	0.055224	-0.358738	-0.011446	0.013885	-0.017406
767	3.888929	0.005000	2.701332	-9.070668	-1.644966	-0.529851	0.055224	-0.358486	-0.000897	0.014398	-0.017429
768	3.893929	0.005000	2.671976	-9.100024	-1.633456	-0.530117	0.055180	-0.358432	-0.004675	0.015685	-0.017884
769	3.898929	0.005000	2.737443	-9.069118	-1.717203	-0.530794	0.055067	-0.358684	-0.008166	0.006359	-0.012235
770	3.903929	0.005000	2.673605	-9.075011	-1.569600	-0.531472	0.054954	-0.358937	0.003225	0.006133	-0.007370
771	3.908929	0.005000	2.695074	-9.103680	-1.563357	-0.532150	0.054841	-0.359189	-0.003277	-0.000198	-0.011034
772	3.913929	0.005000	2.668320	-9.039731	-1.697498	-0.532828	0.054728	-0.359441	-0.000629	0.017237	-0.010626
773	3.918929	0.005000	2.564976	-9.064440	-1.672944	-0.533505	0.054615	-0.359693	-0.006362	0.013499	-0.011485
774	3.923929	0.005000	2.681023	-9.003651	-1.508811	-0.534183	0.054502	-0.359946	-0.010411	0.005337	-0.014261
775	3.928929	0.005000	2.648785	-9.083975	-1.530360	-0.534861	0.054389	-0.360198	-0.017220	0.014839	-0.018546
776	3.933929	0.005000	2.661705	-9.132045	-1.554465	-0.535538	0.054276	-0.360450	-0.010463	0.007519	-0.002516
777	3.938929	0.005000	2.746800	-9.092247	-1.558167	-0.536216	0.054163	-0.360703	-0.015218	0.018203	-0.006040
778	3.943929	0.005000	2.695105	-9.130465	-1.594510	-0.536894	0.054050	-0.360955	-0.009587	0.016357	-0.013676
779	3.948929	0.005000	2.642238	-9.103680	-1.621763	-0.537571	0.053937	-0.361207	-0.007403	0.014806	-0.007620
780	3.953929	0.005000	2.629080	-9.114880	-1.687320	-0.538249	0.053824	-0.361460	-0.016925	0.015575	-0.025406
781	3.958929	0.005000	2.653278	-9.142920	-1.810927	-0.538705	0.053771	-0.361689	-0.011674	0.017896	-0.011532
782	3.963929	0.005000	2.707560	-9.048662	-1.671542	-0.538141	0.053997	-0.361815	-0.012180	0.014966	-0.016090
783	3.968929	0.005000	2.668320	-9.120287	-1.664687	-0.537576	0.054223	-0.361941	-0.012176	0.010160	-0.005919
784	3.973929	0.005000	2.589840	-8.977997	-1.665709	-0.537012	0.054449	-0.362068	-0.013612	0.011277	-0.012596
785	3.978929	0.005000	2.568787	-8.985960	-1.690186	-0.536447	0.054674	-0.362194	-0.010679	0.010390	-0.009167
786	3.983929	0.005000	2.609886	-9.006006	-1.726560	-0.535883	0.054900	-0.362320	-0.008503	0.026835	-0.008809
787	3.988929	0.005000	2.668320	-9.046609	-1.630249	-0.535318	0.055126	-0.362446	-0.005570	0.024774	-0.004560
788	3.993929	0.005000	2.650103	-8.946720	-1.590623	-0.534754	0.055352	-0.362572	0.001338	0.005597	-0.002206
789	3.998929	0.005000	2.663967	-9.003403	-1.512917	-0.534189	0.055578	-0.362698	-0.007526	0.019624	-0.010697
790	4.003929	0.005000	2.786040	-8.995983	-1.546781	-0.533625	0.055803	-0.362824	-0.000323	0.017764	-0.014641
791	4.008929	0.005000	2.582358	-9.048561	-1.608840	-0.533060	0.056029	-0.362950	-0.004985	0.013288	-0.005656
792	4.013929	0.005000	2.614224	-9.103680	-1.530360	-0.532496	0.056255	-0.363076	-0.003868	0.022175	-0.024220
793	4.018929	0.005000	2.578611	-8.999965	-1.622845	-0.531931	0.056481	-0.363202	-0.000417	0.017065	-0.005127
794	4.023929	0.005000	2.563892	-9.011908	-1.648080	-0.531367	0.056707	-0.363328	-0.007498	0.023509	-0.017148
795	4.028929	0.005000	2.604541	-9.025200	-1.594139	-0.531992	0.056067	-0.362004	0.005199	0.007816	-0.016206
796	4.033929	0.005000	2.652503	-8.985960	-1.542072	-0.532670	0.055389	-0.360617	-0.002881	0.019773	-0.017276
797	4.038929	0.005000	2.686173	-9.025200	-1.587453	-0.533348	0.054711	-0.359229	-0.007434	0.014657	-0.013422
798	4.043929	0.005000	2.589840	-9.162564	-1.510764	-0.534026	0.054034	-0.357842	-0.010379	0.010159	-0.012540
799	4.048929	0.005000	2.638205	-9.043449	-1.500245	-0.534703	0.053356	-0.356454	-0.007249	0.012555	-0.019534
800	4.053929	0.005000	2.637182	-9.025200	-1.561498	-0.535381	0.052678	-0.355067	-0.012929	0.013689	-0.006857
801	4.058929	0.005000	2.661240	-9.089521	-1.466039	-0.536059	0.052001	-0.353680	-0.015341	0.017565	-0.019614
802	4.063929	0.005000	2.668320	-9.057903	-1.484583	-0.536737	0.051323	-0.352292	-0.007117	0.007168	-0.010581
803	4.068929	0.005000	2.657290	-9.030715	-1.451880	-0.537414	0.050645	-0.350905	-0.012120	0.006200	-0.010931
804	4.073929	0.005000	2.629080	-9.059892	-1.491120	-0.538092	0.049968	-0.349518	-0.020110	0.012271	-0.016948
805	4.078929	0.005000	2.566401	-9.099730	-1.502971	-0.538770	0.049290	-0.348130	-0.010119	0.007737	-0.005204
806	4.083929	0.005000	2.668320	-9.100752	-1.536216	-0.539448	0.048612	-0.346743	-0.009202	0.018597	-0.012664
807	4.088929	0.005000	2.742060	-9.025200	-1.652820	-0.540125	0.047935	-0.345355	-0.007033	0.007633	-0.017877
808	4.093929	0.005000	2.666972	-9.064440	-1.645384	-0.541223	0.047173	-0.345094	-0.001741	0.017293	-0.000761
809	4.098929	0.005000	2.590185	-9.024510	-1.648425	-0.542465	0.046382	-0.345220	-0.004887	0.014751	-0.017122
810	4.103929	0.005000	2.668103	-8.946720	-1.648297	-0.543708	0.045592	-0.345346	-0.008562	0.013773	-0.019213
811	4.108929	0.005000	2.707560	-9.061961	-1.570839	-0.544950	0.044801	-0.345472	0.000175	0.008630	-0.013154
812	4.113929	0.005000	2.631342	-9.099156	-1.491120	-0.546193	0.044010	-0.345598	0.001238	0.015469	-0.006973
813	4.118929	0.005000	2.710364	-9.112092	-1.488316	-0.547435	0.043220	-0.345725	-0.001522	0.022612	-0.015955
814	4.123929	0.005000	2.746800	-9.064440	-1.636601	-0.548677	0.042429	-0.345851	0.009878	0.015646	-0.018582
815	4.128929	0.005000	2.751649	-9.069289	-1.569600	-0.549920	0.041638	-0.345977	-0.009747	0.011078	-0.015075
816	4.133929	0.005000	2.809107	-8.985960	-1.541142	-0.551162	0.040848	-0.346103	-0.003894	0.017677	-0.016205
817	4.138929	0.005000	2.602667	-8.979547	-1.628840	-0.552404	0.040057	-0.346229	0.004197	0.013752	-0.006145
818	4.143929	0.005000	2.589840	-9.050331	-1.512284	-0.553647	0.039266	-0.346355	-0.006907	0.022587	-0.020810
819	4.148929	0.005000	2.652333	-8.923467	-1.632093	-0.554889	0.038476	-0.346482	-0.005235	0.011565	-0.014672
820	4.153929	0.005000	2.698556	-9.064440	-1.630072	-0.556132	0.037685	-0.346608	0.005876	0.007476	-0.013711
821	4.158929	0.005000	2.608957	-9.123803	-1.648080	-0.556178	0.037911	-0.347001	-0.004175	0.014610	-0.015171
822	4.163929	0.005000	2.650241	-9.093099	-1.616338	-0.555162	0.039040	-0.347631	-0.001548	0.016208	-0.001947
823	4.168929	0.005000	2.640683	-9.103680	-1.652511	-0.554146	0.040169	-0.348261	-0.007929	0.017414	-0.016423
824	4.173929	0.005000	2.604488	-9.052144	-1.753504	-0.553130	0.041298	-0.348892	-0.009771	0.014211	-0.014417
825	4.178929	0.005000	2.629080	-9.012296	-1.634912	-0.552114	0.042427	-0.349522	-0.000779	0.017856	-0.010541
826	4.183929	0.005000	2.704229	-9.064440	-1.676460	-0.551098	0.043556	-0.350152	-0.003208	0.007636	-0.022100
827	4.188929	0.005000	2.697785	-9.079172	-1.594108	-0.550082	0.044685	-0.350783	-0.009120	0.012415	-0.016353
828	4.193929	0.005000	2.676050	-8.993690	-1.553845	-0.549066	0.045814	-0.351413	-0.004698	0.018210	-0.019621
829	4.198929	0.005000	2.684828	-9.047932	-1.631572	-0.548050	0.046943	-0.352043	-0.005399	0.009528	-0.007410
830	4.203929	0.005000	2.624510	-9.047105	-1.621605	-0.547034	0.048072	-0.352674	-0.009295	0.021131	-0.015948
831	4.208929	0.005000	2.647437	-9.064440	-1.587957	-0.546018	0.049201	-0.353304	-0.001220	0.012180	-0.013383
832	4.213929	0.005000	2.629080	-9.123556	-1.570622	-0.545002	0.050330	-0.353934	-0.001375	0.012435	-0.003605
833	4.218929	0.005000	2.570522	-9.064440	-1.608840	-0.543986	0.051459	-0.354565	-0.009208	0.010930	-0.019498
834	4.223929	0.005000	2.587191	-9.004255	-1.509415	-0.542970	0.052239	-0.355234	0.003785	0.017569	0.006220
835	4.228929	0.005000	2.725047	-9.099414	-1.530360	-0.541954	0.052239	-0.355990	-0.015461	0.018884	-0.014189
836	4.233929	0.005000	2.589840	-9.041931	-1.491120	-0.540937	0.052239	-0.356747	-0.009148	0.011571	0.002701
837	4.238929	0.005000	2.558485	-9.087972	-1.608840	-0.539921	0.052239	-0.357503	-0.001005	0.019606	-0.015272
838	4.243929	0.005000	2.579972	-9.049754	-1.613658	-0.538905	0.052239	-0.358260	-0.013582	0.015174	-0.017624
839	4.248929	0.005000	2.589840	-9.142920	-1.566409	-0.537889	0.052239	-0.359016	-0.005091	0.011005	-0.008858
840	4.253929	0.005000	2.642201	-9.142796	-1.451880	-0.536873	0.052239	-0.359773	-0.008844	0.007808	-0.011095
841	4.258929	0.005000	2.614038	-9.010158	-1.503219	-0.535857	0.052239	-0.360529	-0.005255	0.011668	-0.006415
842	4.263929	0.005000	2.729978	-8.997169	-1.535957	-0.534841	0.052239	-0.361285	-0.002600	0.022305	-0.015321
843	4.268929	0.005000	2.707560	-9.074963	-1.629886	-0.533825	0.052239	-0.362042	-0.006525	0.015990	-0.003028
844	4.273929	0.005000	2.648104	-9.084656	-1.677808	-0.532809	0.052239	-0.362798	-0.004932	0.018348	-0.006600
845	4.278929	0.005000	2.768858	-9.073031	-1.678729	-0.531793	0.052239	-0.363555	-0.007011	0.012445	-0.014278
846	4.283929	0.005000	2.660388	-9.087817	-1.679388	-0.530776	0.052239	-0.364311	-0.008590	0.016352	-0.009223
847	4.288929	0.005000	2.622171	-9.039018	-1.687320	-0.529881	0.052239	-0.364989	-0.010360	0.020232	-0.024923
848	4.293929	0.005000	2.556560	-9.097720	-1.720600	-0.530220	0.052239	-0.364863	0.002644	0.007882	-0.004376
849	4.298929	0.005000	2.571978	-9.064440	-1.569600	-0.530559	0.052239	-0.364736	-0.009177	0.016573	-0.010978
850	4.303929	0.005000	2.711882	-9.029522	-1.726560	-0.530898	0.052239	-0.364610	-0.019134	0.017841	-0.016953
851	4.308929	0.005000	2.743459	-9.064440	-1.644739	-0.531236	0.052239	-0.364484	-0.005187	0.011099	-0.009526
852	4.313929	0.005000	2.660048	-9.064440	-1.608840	-0.531575	0.052239	-0.364358	-0.014372	0.020202	-0.020159
853	4.318929	0.005000	2.589840	-8.950190	-1.607105	-0.531914	0.052239	-0.364232	-0.010995	0.011087	-0.005742
854	4.323929	0.005000	2.474284	-9.102959	-1.724396	-0.532253	0.052239	-0.364106	-0.002860	0.012292	-0.016966
855	4.328929	0.005000	2.668320	-9.025370	-1.647910	-0.532592	0.052239	-0.363980	-0.005930	0.012058	-0.012350
856	4.333929	0.005000	2.629932	-9.026052	-1.608840	-0.532930	0.052239	-0.363853	-0.009577	0.015685	-0.007020
857	4.338929	0.005000	2.587966	-9.101806	-1.681697	-0.533269	0.052239	-0.363727	-0.008902	0.015927	-0.013975
858	4.343929	0.005000	2.589840	-8.985960	-1.613704	-0.533608	0.052239	-0.363601	-0.013508	0.012502	-0.006394
859	4.348929	0.005000	2.586385	-8.982505	-1.641171	-0.533947	0.052239	-0.363475	-0.005634	0.021465	-0.014443
860	4.353929	0.005000	2.589840	-9.130781	-1.569600	-0.534286	0.052239	-0.363349	-0.000938	0.011432	-0.001657
861	4.358929	0.005000	2.653262	-9.025200	-1.540398	-0.533933	0.052634	-0.363443	-0.006552	0.010940	0.002020
862	4.363929	0.005000	2.517402	-8.907480	-1.451880	-0.533481	0.053086	-0.363570	-0.005897	0.009109	-0.016395
863	4.368929	0.005000	2.511360	-8.985960	-1.477789	-0.533029	0.053538	-0.363696	-0.005833	0.007576	-0.018631
864	4.373929	0.005000	2.621474	-9.049227	-1.396219	-0.532577	0.053990	-0.363822	-0.016670	0.025288	-0.022692
865	4.378929	0.005000	2.550600	-9.025200	-1.521731	-0.532125	0.054442	-0.363948	0.000639	0.008293	-0.005016
866	4.383929	0.005000	2.580555	-9.055155	-1.578885	-0.531674	0.054893	-0.364074	-0.009887	0.022104	-0.022369
867	4.388929	0.005000	2.570987	-9.045587	-1.637887	-0.531222	0.055345	-0.364200	-0.017398	0.015302	-0.017609
868	4.393929	0.005000	2.606648	-9.103680	-1.676104	-0.530770	0.055797	-0.364326	-0.005416	0.008342	-0.009030
869	4.398929	0.005000	2.629080	-9.131146	-1.663773	-0.530318	0.056249	-0.364453	-0.016030	0.013903	-0.009189
870	4.403929	0.005000	2.536952	-9.078088	-1.596044	-0.529867	0.056700	-0.364579	-0.020129	0.012769	-0.012320
871	4.408929	0.005000	2.538997	-9.066655	-1.597237	-0.529415	0.057152	-0.364705	-0.018988	0.016705	-0.024291
872	4.413929	0.005000	2.564961	-9.103680	-1.569600	-0.528963	0.057604	-0.364831	-0.014690	0.020416	-0.019236
873	4.418929	0.005000	2.535217	-9.055966	-1.632697	-0.528511	0.058056	-0.364957	-0.005419	0.018939	-0.015907
874	4.423929	0.005000	2.573717	-9.071435	-1.530360	-0.528433	0.058134	-0.364583	-0.008530	0.020128	-0.009492
875	4.428929	0.005000	2.695957	-9.081388	-1.614185	-0.528546	0.058021	-0.363953	-0.009873	0.012550	-0.010293
876	4.433929	0.005000	2.704260	-9.089010	-1.608840	-0.528659	0.057908	-0.363322	-0.007989	0.021615	-0.013886
877	4.438929	0.005000	2.610330	-9.122430	-1.549110	-0.528772	0.057795	-0.362691	-0.009104	0.002270	-0.005528
878	4.443929	0.005000	2.609545	-9.103510	-1.608840	-0.528885	0.057682	-0.362061	-0.010480	0.021132	-0.017293
879	4.448929	0.005000	2.565534	-9.103680	-1.569600	-0.528998	0.057569	-0.361430	-0.003958	0.012828	-0.015486
880	4.453929	0.005000	2.589840	-9.064440	-1.569600	-0.529111	0.057456	-0.360799	-0.004193	0.008292	-0.004908
881	4.458929	0.005000	2.656252	-9.059405	-1.692355	-0.529224	0.057343	-0.360169	-0.015529	0.022907	-0.010108
882	4.463929	0.005000	2.652041	-9.025200	-1.671041	-0.529337	0.057230	-0.359538	-0.010293	0.009632	-0.008980
883	4.468929	0.005000	2.597214	-9.119218	-1.648080	-0.529450	0.057117	-0.358908	-0.013171	0.008432	-0.008321
884	4.473929	0.005000	2.643596	-9.103680	-1.555084	-0.529563	0.057004	-0.358277	-0.012150	0.014184	-0.005061
885	4.478929	0.005000	2.589840	-9.050467	-1.687320	-0.529676	0.056891	-0.357646	-0.007815	0.016291	-0.007443
886	4.483929	0.005000	2.655369	-9.103680	-1.622178	-0.529789	0.056778	-0.357016	-0.008731	0.008748	-0.020248
887	4.488929	0.005000	2.613983	-8.998031	-1.530360	-0.530002	0.056464	-0.356892	-0.019458	0.012402	-0.005593
888	4.493929	0.005000	2.679691	-9.008702	-1.502491	-0.530341	0.055899	-0.357397	-0.015303	0.023886	-0.014349
889	4.498929	0.005000	2.736436	-9.085168	-1.611055	-0.530680	0.055335	-0.357901	-0.008536	0.007455	-0.014234
890	4.503929	0.005000	2.599646	-9.123308	-1.746188	-0.531018	0.054770	-0.358405	-0.019018	0.011069	-0.012612
891	4.508929	0.005000	2.607407	-9.064440	-1.639296	-0.531357	0.054206	-0.358909	-0.011706	0.009857	-0.015180
892	4.513929	0.005000	2.581983	-9.158588	-1.491120	-0.531696	0.053641	-0.359414	-0.012616	0.010106	-0.013728
893	4.518929	0.005000	2.565038	-8.978741	-1.544798	-0.532034	0.053077	-0.359918	-0.017707	0.018956	-0.025806
894	4.523929	0.005000	2.701363	-9.070637	-1.511770	-0.532373	0.052513	-0.360422	-0.023649	0.005235	-0.014137
895	4.528929	0.005000	2.595494	-9.103680	-1.457534	-0.532712	0.051948	-0.360926	-0.010347	0.011488	-0.021318
896	4.533929	0.005000	2.732904	-9.103680	-1.500384	-0.533050	0.051384	-0.361430	-0.023139	0.013088	-0.025902
897	4.538929	0.005000	2.621861	-9.103680	-1.555162	-0.533389	0.050819	-0.361935	-0.023000	0.017358	-0.013226
898	4.543929	0.005000	2.589840	-9.061388	-1.500275	-0.533728	0.050255	-0.362439	-0.019319	0.011964	-0.014707
899	4.548929	0.005000	2.664261	-9.027229	-1.567571	-0.534066	0.049690	-0.362943	-0.028100	0.016477	-0.018802
900	4.553929	0.005000	2.511360	-8.987447	-1.495582	-0.534405	0.049382	-0.363304	-0.023127	0.020193	-0.010961
901	4.558929	0.005000	2.591234	-9.063975	-1.569135	-0.534744	0.049947	-0.363178	-0.012480	0.007253	-0.015380
902	4.563929	0.005000	2.630195	-9.063882	-1.685089	-0.535083	0.050511	-0.363052	-0.019852	0.012646	-0.014664
903	4.568929	0.005000	2.593000	-8.985960	-1.685740	-0.535421	0.051076	-0.362926	-0.015170	0.013693	-0.015324
904	4.573929	0.005000	2.631202	-9.023078	-1.685198	-0.535760	0.051641	-0.362800	-0.018767	0.017775	0.001089
905	4.578929	0.005000	2.704415	-8.985960	-1.756366	-0.536099	0.052206	-0.362674	-0.013439	0.013293	-0.022177
906	4.583929	0.005000	2.604771	-8.985960	-1.584531	-0.536438	0.052770	-0.362548	-0.009894	0.008194	-0.018038
907	4.588929	0.005000	2.654192	-8.976541	-1.604131	-0.536777	0.053335	-0.362422	-0.010007	0.021635	-0.011693
908	4.593929	0.005000	2.595572	-9.025200	-1.614572	-0.537116	0.053900	-0.362296	-0.012609	0.012998	-0.007012
909	4.598929	0.005000	2.668320	-9.103680	-1.615130	-0.537455	0.054464	-0.362170	-0.003243	0.014873	-0.008871
910	4.603929	0.005000	2.589840	-9.096368	-1.616152	-0.537794	0.055029	-0.362044	-0.006907	0.010996	-0.006529
911	4.608929	0.005000	2.550600	-9.056106	-1.569600	-0.538133	0.055594	-0.361918	0.002313	0.019082	-0.010960
912	4.613929	0.005000	2.489873	-8.955597	-1.630327	-0.538471	0.056158	-0.361791	0.003030	0.010115	-0.016735
913	4.618929	0.005000	2.560143	-9.073983	-1.657979	-0.538796	0.056713	-0.361675	0.005164	0.010945	-0.009575
914	4.623929	0.005000	2.657398	-9.053518	-1.608840	-0.538005	0.056487	-0.362306	-0.008953	0.015422	-0.017673
915	4.628929	0.005000	2.589840	-9.013736	-1.603991	-0.537215	0.056261	-0.362936	-0.005957	0.011171	-0.022086
916	4.633929	0.005000	2.614812	-9.064440	-1.594572	-0.536424	0.056035	-0.363567	-0.007203	0.014907	-0.000991
917	4.638929	0.005000	2.589840	-9.038040	-1.647719	-0.535633	0.055810	-0.364197	-0.006955	0.011346	-0.021120
918	4.643929	0.005000	2.564651	-9.014062	-1.673269	-0.534843	0.055584	-0.364828	-0.003185	0.004653	-0.007876
919	4.648929	0.005000	2.644153	-8.979980	-1.648080	-0.534052	0.055358	-0.365459	-0.015399	0.011344	-0.014556
920	4.653929	0.005000	2.645176	-9.071489	-1.624936	-0.533261	0.055132	-0.366089	-0.021264	0.013913	-0.022486
921	4.658929	0.005000	2.629080	-9.064440	-1.586253	-0.532471	0.054906	-0.366720	-0.010523	0.010557	-0.019182
922	4.663929	0.005000	2.515248	-9.103680	-1.548036	-0.531680	0.054680	-0.367350	-0.018290	0.010795	-0.019993
923	4.668929	0.005000	2.472120	-9.142920	-1.571460	-0.530889	0.054454	-0.367981	-0.019771	0.006445	-0.012371
924	4.673929	0.005000	2.610599	-9.103680	-1.648080	-0.530099	0.054228	-0.368612	-0.008536	0.025279	-0.013285
925	4.678929	0.005000	2.610103	-9.008794	-1.668343	-0.529308	0.054002	-0.369242	-0.018542	0.009216	-0.000912
926	4.683929	0.005000	2.643704	-9.046485	-1.587555	-0.528517	0.053777	-0.369873	-0.013087	0.015793	-0.007511
927	4.688929	0.005000	2.681317	-8.968548	-1.565185	-0.528448	0.053821	-0.369698	-0.004414	0.018489	-0.014683
928	4.693929	0.005000	2.668320	-9.057980	-1.585990	-0.528561	0.053934	-0.369320	-0.013828	0.014416	-0.015644
929	4.698929	0.005000	2.526728	-8.955225	-1.671952	-0.528674	0.054047	-0.368942	-0.003872	0.021812	-0.017733
930	4.703929	0.005000	2.643905	-9.049615	-1.677731	-0.528787	0.054160	-0.368563	-0.005385	0.014078	-0.002915
931	4.708929	0.005000	2.668320	-9.025200	-1.569600	-0.528900	0.054273	-0.368185	-0.007911	0.017210	-0.008271
932	4.713929	0.005000	2.654641	-9.037980	-1.648080	-0.529013	0.054386	-0.367807	-0.019228	0.016478	-0.008161
933	4.718929	0.005000	2.629080	-9.130697	-1.650652	-0.529126	0.054499	-0.367429	-0.016096	0.017680	-0.002731
934	4.723929	0.005000	2.645919	-9.159759	-1.597640	-0.529239	0.054612	-0.367051	-0.016478	0.012131	-0.021709
935	4.728929	0.005000	2.600156	-9.161529	-1.598524	-0.529352	0.054725	-0.366672	-0.009471	0.005382	-0.004392
936	4.733929	0.005000	2.648351	-9.054804	-1.648777	-0.529465	0.054838	-0.366294	-0.023089	0.025699	-0.017712
937	4.738929	0.005000	2.581227	-9.073053	-1.547587	-0.529577	0.054950	-0.365916	-0.021788	0.018604	-0.019722
938	4.743929	0.005000	2.581769	-9.017129	-1.562644	-0.529690	0.055063	-0.365538	-0.007568	0.009893	-0.012234
939	4.748929	0.005000	2.557649	-9.000057	-1.676275	-0.529803	0.055176	-0.365160	-0.020473	0.017552	-0.018065
940	4.753929	0.005000	2.529663	-9.109781	-1.753598	-0.529916	0.055159	-0.364781	-0.022834	0.020613	-0.016139
941	4.758929	0.005000	2.648057	-9.030266	-1.711363	-0.530029	0.055046	-0.364403	-0.016412	0.020798	-0.014188
942	4.763929	0.005000	2.659397	-9.059978	-1.657003	-0.530142	0.054933	-0.364024	-0.021418	0.018505	-0.015547
943	4.768929	0.005000	2.629080	-9.054123	-1.683881	-0.530255	0.054820	-0.363646	-0.013453	0.014216	-0.029002
944	4.773929	0.005000	2.634843	-8.991723	-1.690201	-0.530368	0.054707	-0.363268	-0.010643	0.012039	-0.017800
945	4.778929	0.005000	2.666461	-9.180301	-1.648080	-0.530481	0.054594	-0.362889	-0.009135	0.020763	-0.016253
946	4.783929	0.005000	2.628243	-9.181323	-1.648080	-0.530594	0.054481	-0.362511	-0.012813	0.017536	-0.014497
947	4.788929	0.005000	2.589546	-9.064440	-1.726266	-0.530707	0.054368	-0.362133	-0.008247	0.012444	-0.012661
948	4.793929	0.005000	2.666136	-9.102952	-1.648808	-0.530820	0.054255	-0.361754	-0.012056	0.020134	-0.022610
949	4.798929	0.005000	2.595092	-9.141169	-1.608840	-0.530932	0.054142	-0.361376	-0.005847	0.013521	-0.013625
950	4.803929	0.005000	2.589840	-9.101387	-1.606547	-0.531045	0.054029	-0.360997	-0.005026	0.015171	-0.007831
951	4.808929	0.005000	2.668320	-9.031830	-1.530360	-0.531158	0.053916	-0.360619	-0.010878	0.012014	-0.029714
952	4.813929	0.005000	2.554938	-9.029538	-1.560925	-0.531271	0.053803	-0.360241	-0.003681	0.010176	-0.007141
953	4.818929	0.005000	2.657600	-9.025200	-1.733640	-0.531343	0.053731	-0.360230	-0.013955	0.009017	-0.020033
954	4.823929	0.005000	2.668320	-8.991862	-1.614742	-0.531343	0.053731	-0.360860	-0.006884	0.011004	-0.016146
955	4.828929	0.005000	2.714485	-9.011351	-1.530360	-0.531343	0.053731	-0.361491	-0.011388	0.017690	-0.014689
956	4.833929	0.005000	2.723454	-9.064440	-1.616787	-0.531343	0.053731	-0.362121	-0.006211	0.018423	-0.020930
957	4.838929	0.005000	2.632364	-9.047430	-1.569600	-0.531343	0.053731	-0.362752	0.000670	0.015872	-0.012139
958	4.843929	0.005000	2.638592	-9.103680	-1.627864	-0.531343	0.053731	-0.363383	-0.010236	0.015169	-0.011959
959	4.848929	0.005000	2.736266	-9.025200	-1.598306	-0.531343	0.053731	-0.364013	-0.012768	0.020735	-0.015888
960	4.853929	0.005000	2.629080	-9.103680	-1.676228	-0.531343	0.053731	-0.364644	-0.011188	0.022388	-0.026664
961	4.858929	0.005000	2.659103	-9.088669	-1.473212	-0.531343	0.053731	-0.365275	-0.011850	0.005911	-0.017469
962	4.863929	0.005000	2.629080	-9.077577	-1.464846	-0.531343	0.053731	-0.365905	-0.014672	0.013892	-0.011844
963	4.868929	0.005000	2.629080	-9.048286	-1.541903	-0.531343	0.053731	-0.366536	-0.014049	0.011295	-0.011909
964	4.873929	0.005000	2.638917	-9.118381	-1.564627	-0.531343	0.053731	-0.367166	-0.007821	0.008115	-0.011291
965	4.878929	0.005000	2.668320	-9.056648	-1.530360	-0.531343	0.053731	-0.367797	-0.018375	0.018128	-0.020415
966	4.883929	0.005000	2.635788	-8.914188	-1.654788	-0.531343	0.053748	-0.368106	-0.009755	0.003809	-0.010619
967	4.888929	0.005000	2.646369	-9.069103	-1.643417	-0.531343	0.053861	-0.366592	-0.011415	0.007715	-0.014018
968	4.893929	0.005000	2.626462	-9.080133	-1.684702	-0.531343	0.053974	-0.365079	-0.013751	0.012982	-0.019644
969	4.898929	0.005000	2.668320	-9.124059	-1.709218	-0.531343	0.054087	-0.363565	-0.007368	0.000885	-0.015620
970	4.903929	0.005000	2.688196	-9.103680	-1.746947	-0.531343	0.054200	-0.362052	-0.010186	0.007334	-0.009877
971	4.908929	0.005000	2.631636	-9.064440	-1.687320	-0.531343	0.054313	-0.360538	-0.010226	0.006979	-0.007050
972	4.913929	0.005000	2.646864	-9.103680	-1.694663	-0.531343	0.054426	-0.359025	-0.006561	0.013840	-0.016029
973	4.918929	0.005000	2.662604	-9.142920	-1.687320	-0.531343	0.054539	-0.357511	-0.014745	0.017282	-0.017560
974	4.923929	0.005000	2.629080	-9.080179	-1.718582	-0.531343	0.054652	-0.355998	-0.016882	0.015965	-0.007149
975	4.928929	0.005000	2.653421	-9.064440	-1.672421	-0.531343	0.054765	-0.354484	-0.005187	0.005867	-0.008847
976	4.933929	0.005000	2.654145	-9.011025	-1.662255	-0.531343	0.054878	-0.352971	-0.010705	0.010133	-0.015515
977	4.938929	0.005000	2.589840	-8.999112	-1.556448	-0.531343	0.054991	-0.351457	-0.003729	0.015481	-0.012650
978	4.943929	0.005000	2.550600	-9.015319	-1.611240	-0.531343	0.055104	-0.349943	-0.002308	0.011515	-0.013309
979	4.948929	0.005000	2.562188	-8.946720	-1.541948	-0.531343	0.055217	-0.348430	-0.009912	0.017263	-0.028373
980	4.953929	0.005000	2.629080	-8.967850	-1.601296	-0.531343	0.055435	-0.349867	-0.006107	0.011810	-0.016999
981	4.958929	0.005000	2.648166	-9.064440	-1.648080	-0.531343	0.055661	-0.351506	0.001599	0.013098	-0.008329
982	4.963929	0.005000	2.632318	-9.064440	-1.617841	-0.531343	0.055887	-0.353145	-0.014179	0.018208	-0.018054
983	4.968929	0.005000	2.660342	-9.033178	-1.718582	-0.531343	0.056113	-0.354784	-0.011314	0.015250	-0.003787
984	4.973929	0.005000	2.603751	-9.018244	-1.523404	-0.531343	0.056339	-0.356423	-0.013644	0.019948	-0.008707
985	4.978929	0.005000	2.602636	-8.913878	-1.575998	-0.531343	0.056564	-0.358062	-0.009216	0.017678	-0.021961
986	4.983929	0.005000	2.696809	-9.025200	-1.614216	-0.531343	0.056790	-0.359701	-0.007293	0.015177	-0.008934
987	4.988929	0.005000	2.633501	-9.099259	-1.569600	-0.531343	0.057016	-0.361340	-0.022092	0.009435	-0.013710
988	4.993929	0.005000	2.597462	-8.989771	-1.605029	-0.531343	0.057242	-0.362978	-0.013972	0.007307	-0.003813
989	4.998929	0.005000	2.626292	-9.103680	-1.614417	-0.531343	0.057467	-0.364617	-0.014944	0.015942	-0.019277
990	5.003929	0.005000	2.709326	-9.066206	-1.532126	-0.531343	0.057693	-0.366256	-0.006878	0.012720	-0.003627
991	5.008929	0.005000	2.668320	-9.142920	-1.529136	-0.531343	0.057919	-0.367895	-0.001588	0.008247	-0.012399
992	5.013929	0.005000	2.706956	-9.142517	-1.609243	-0.531343	0.058145	-0.369534	-0.007686	0.009386	-0.018785
993	5.018929	0.005000	2.513002	-9.179697	-1.687320	-0.532071	0.057401	-0.368194	-0.008353	0.011764	-0.012707
994	5.023929	0.005000	2.629080	-9.105060	-1.456020	-0.533087	0.056271	-0.365672	-0.007636	0.011810	-0.017547
995	5.028929	0.005000	2.744414	-9.145306	-1.567214	-0.534104	0.055142	-0.363149	-0.009128	0.010690	-0.007082
996	5.033929	0.005000	2.664912	-9.110496	-1.755576	-0.535120	0.054012	-0.360627	-0.014560	0.016007	-0.018887
997	5.038929	0.005000	2.629080	-8.993892	-1.695252	-0.536137	0.052883	-0.358104	-0.001871	0.014092	-0.013052
998	5.043929	0.005000	2.609181	-9.059465	-1.653055	-0.537153	0.051753	-0.355582	-0.006510	0.014678	-0.012488
999	5.048929	0.005000	2.673917	-8.985960	-1.664870	-0.538170	0.050624	-0.353059	-0.012188	0.023518	-0.028897
1000	5.053929	0.005000	2.642186	-8.920586	-1.615393	-0.539187	0.049494	-0.350537	0.001289	0.020835	-0.018721
1001	5.058929	0.005000	2.526511	-8.954295	-1.694895	-0.540203	0.048365	-0.348014	-0.008485	0.016239	-0.011301
1002	5.063929	0.005000	2.558718	-8.938602	-1.687320	-0.541220	0.047235	-0.345492	-0.006707	0.013168	-0.013970
1003	5.068929	0.005000	2.499540	-8.937580	-1.587880	-0.542236	0.046106	-0.342969	-0.011461	0.014986	-0.018697
1004	5.073929	0.005000	2.580038	-9.074242	-1.599038	-0.543253	0.044976	-0.340447	-0.002036	0.012894	-0.012596
1005	5.078929	0.005000	2.646911	-8.939594	-1.523234	-0.544269	0.043847	-0.337924	0.000445	0.025096	-0.018541
1006	5.083929	0.005000	2.652534	-9.001746	-1.730619	-0.545003	0.043341	-0.337110	0.004173	0.017125	-0.017392
1007	5.088929	0.005000	2.589840	-9.039576	-1.646136	-0.545454	0.043454	-0.337993	0.005496	0.011747	-0.006625
1008	5.093929	0.005000	2.615773	-8.999267	-1.674013	-0.545906	0.043566	-0.338876	-0.006648	0.018901	-0.021376
1009	5.098929	0.005000	2.657739	-8.985960	-1.530360	-0.546358	0.043679	-0.339758	-0.000930	0.008704	-0.013197
1010	5.103929	0.005000	2.629080	-9.049390	-1.560460	-0.546810	0.043792	-0.340641	-0.008146	0.015479	-0.006562
1011	5.108929	0.005000	2.589840	-9.103680	-1.546254	-0.547262	0.043905	-0.341524	-0.005882	0.016703	-0.023765
1012	5.113929	0.005000	2.561413	-9.215993	-1.558090	-0.547713	0.044018	-0.342407	-0.005192	0.010397	-0.001806
1013	5.118929	0.005000	2.607299	-9.064440	-1.669861	-0.548165	0.044131	-0.343290	-0.004677	0.015806	-0.012313
1014	5.123929	0.005000	2.573636	-9.103680	-1.666561	-0.548617	0.044244	-0.344173	-0.007515	0.010090	-0.009756
1015	5.128929	0.005000	2.629080	-9.103680	-1.628111	-0.549069	0.044357	-0.345056	0.003390	0.015310	-0.007022
1016	5.133929	0.005000	2.648274	-9.142920	-1.745754	-0.549521	0.044470	-0.345938	-0.007235	0.021285	-0.012808
1017	5.138929	0.005000	2.671217	-8.991754	-1.669148	-0.549972	0.044583	-0.346821	-0.002493	0.017359	-0.010905
1018	5.143929	0.005000	2.677381	-8.942189	-1.726560	-0.550424	0.044696	-0.347704	-0.000605	0.014353	-0.018327
1019	5.148929	0.005000	2.527951	-9.008609	-1.743151	-0.550454	0.044873	-0.348514	-0.000810	0.013402	-0.017296
1020	5.153929	0.005000	2.581738	-8.962289	-1.726560	-0.549438	0.045212	-0.349145	-0.002641	0.018853	-0.021991
1021	5.158929	0.005000	2.556440	-9.000987	-1.741587	-0.548422	0.045551	-0.349775	-0.000976	0.013549	-0.009793
1022	5.163929	0.005000	2.693556	-9.039204	-1.622844	-0.547406	0.045890	-0.350405	-0.001385	0.021253	-0.008496
1023	5.168929	0.005000	2.707560	-9.051485	-1.661223	-0.546389	0.046228	-0.351036	-0.005044	0.025574	-0.014788
1024	5.173929	0.005000	2.602280	-9.064440	-1.569600	-0.545373	0.046567	-0.351666	-0.009472	0.016000	-0.006606
1025	5.178929	0.005000	2.656903	-8.985960	-1.687320	-0.544357	0.046906	-0.352297	-0.013210	0.023405	-0.011377
1026	5.183929	0.005000	2.618216	-9.014336	-1.565385	-0.543341	0.047244	-0.352927	-0.005722	0.004066	-0.014426
1027	5.188929	0.005000	2.609545	-8.985960	-1.550065	-0.542325	0.047583	-0.353557	-0.002498	0.015980	-0.003708
1028	5.193929	0.005000	2.598670	-9.034030	-1.587260	-0.541309	0.047922	-0.354188	-0.009799	0.015109	-0.017125
1029	5.198929	0.005000	2.629080	-9.072712	-1.575750	-0.540293	0.048261	-0.354818	-0.008839	0.015188	-0.013947
1030	5.203929	0.005000	2.700310	-9.000460	-1.444630	-0.539277	0.048599	-0.355449	-0.012051	0.015017	-0.008329
1031	5.208929	0.005000	2.713788	-9.051985	-1.503575	-0.538261	0.048938	-0.356079	-0.016692	0.008891	-0.001222
1032	5.213929	0.005000	2.595525	-9.097995	-1.586656	-0.537290	0.049284	-0.356726	-0.013953	0.012603	-0.016285
1033	5.218929	0.005000	2.585177	-8.985960	-1.574263	-0.536951	0.049736	-0.357609	-0.003976	0.009635	-0.016316
1034	5.223929	0.005000	2.672006	-9.064440	-1.530360	-0.536613	0.050188	-0.358492	-0.009635	0.018240	-0.012270
1035	5.228929	0.005000	2.740603	-8.985960	-1.527262	-0.536274	0.050640	-0.359375	-0.002551	0.012937	-0.009995
1036	5.233929	0.005000	2.668320	-9.103680	-1.563372	-0.535935	0.051092	-0.360258	-0.008526	0.006162	-0.007675
1037	5.238929	0.005000	2.630598	-9.065958	-1.453398	-0.535596	0.051543	-0.361141	-0.016919	0.016811	-0.024100
1038	5.243929	0.005000	2.590862	-9.104702	-1.530871	-0.535257	0.051995	-0.362023	-0.015730	0.009989	-0.014054
1039	5.248929	0.005000	2.707049	-9.065974	-1.492142	-0.534919	0.052447	-0.362906	-0.017972	0.002106	-0.012714
1040	5.253929	0.005000	2.589840	-8.988098	-1.529291	-0.534580	0.052899	-0.363789	-0.019217	0.007214	-0.014647
1041	5.258929	0.005000	2.668320	-9.027291	-1.453971	-0.534241	0.053351	-0.364672	-0.016984	0.009758	-0.007069
1042	5.263929	0.005000	2.738801	-8.985960	-1.603508	-0.533902	0.053802	-0.365555	-0.025827	0.011329	-0.012142
1043	5.268929	0.005000	2.629080	-9.060784	-1.762144	-0.533563	0.054254	-0.366438	-0.016207	0.010582	-0.005513
1044	5.273929	0.005000	2.633758	-9.138242	-1.751765	-0.533225	0.054706	-0.367321	-0.014917	0.016702	-0.010737
1045	5.278929	0.005000	2.521801	-9.098459	-1.590483	-0.532886	0.055158	-0.368203	-0.018407	0.008911	-0.019659
1046	5.283929	0.005000	2.622837	-9.169674	-1.615083	-0.533221	0.054839	-0.368333	-0.019152	0.012340	-0.016138
1047	5.288929	0.005000	2.668320	-9.142920	-1.665523	-0.533673	0.054387	-0.368333	-0.003553	0.015307	-0.016140
1048	5.293929	0.005000	2.691914	-9.111503	-1.624486	-0.534124	0.053936	-0.368333	-0.008994	0.003748	-0.003274
1049	5.298929	0.005000	2.729109	-9.034046	-1.617686	-0.534576	0.053484	-0.368333	-0.021903	0.016164	-0.010891
1050	5.303929	0.005000	2.668320	-9.064440	-1.598987	-0.535028	0.053032	-0.368333	-0.005894	0.007589	-0.007709
1051	5.308929	0.005000	2.668320	-9.074850	-1.608840	-0.535479	0.052581	-0.368333	-0.003548	0.012570	-0.004934
1052	5.313929	0.005000	2.635571	-8.974527	-1.541793	-0.535931	0.052129	-0.368333	-0.007025	0.019229	-0.020471
1053	5.318929	0.005000	2.577717	-8.998083	-1.572470	-0.536382	0.051678	-0.368333	-0.011580	0.015731	-0.001431
1054	5.323929	0.005000	2.615835	-9.038445	-1.582597	-0.536834	0.051226	-0.368333	-0.012405	0.018021	-0.018647
1055	5.328929	0.005000	2.601040	-9.025200	-1.493939	-0.537286	0.050774	-0.368333	-0.002317	0.007312	-0.003341
1056	5.333929	0.005000	2.653758	-9.103680	-1.608840	-0.537737	0.050323	-0.368333	-0.014856	0.011411	-0.010877
1057	5.338929	0.005000	2.629080	-9.119264	-1.537873	-0.538189	0.049871	-0.368333	-0.009468	0.008236	-0.013134
1058	5.343929	0.005000	2.521941	-9.019174	-1.660132	-0.538640	0.049420	-0.368333	-0.009841	0.021647	-0.014105
1059	5.348929	0.005000	2.555511	-9.025200	-1.613751	-0.538377	0.049611	-0.368413	-0.010039	0.017286	-0.011262
1060	5.353929	0.005000	2.650133	-9.064440	-1.587787	-0.537699	0.050176	-0.368539	-0.003220	0.013662	-0.013506
1061	5.358929	0.005000	2.628228	-9.064440	-1.568748	-0.537022	0.050741	-0.368665	-0.015838	0.015927	-0.023296
1062	5.363929	0.005000	2.570352	-9.005448	-1.687320	-0.536344	0.051306	-0.368791	-0.014096	0.005306	-0.007111
1063	5.368929	0.005000	2.532134	-9.004426	-1.689628	-0.535666	0.051870	-0.368917	-0.015628	0.014326	-0.015003
1064	5.373929	0.005000	2.607500	-9.007540	-1.652001	-0.534989	0.052435	-0.369044	-0.016151	0.014045	-0.021047
1065	5.378929	0.005000	2.707560	-8.985960	-1.591939	-0.534311	0.053000	-0.369170	-0.004464	0.012982	-0.004078
1066	5.383929	0.005000	2.683285	-9.025200	-1.633115	-0.533633	0.053564	-0.369296	-0.015856	0.018326	-0.018074
1067	5.388929	0.005000	2.659753	-9.025200	-1.593503	-0.532956	0.054129	-0.369422	-0.010104	0.010550	-0.016990
1068	5.393929	0.005000	2.589840	-9.050126	-1.583914	-0.532278	0.054694	-0.369548	-0.005561	0.019242	-0.016204
1069	5.398929	0.005000	2.721011	-9.221400	-1.609953	-0.531600	0.055258	-0.369674	-0.012793	0.018134	-0.024330
1070	5.403929	0.005000	2.642852	-9.169426	-1.661852	-0.530923	0.055823	-0.369801	0.000508	0.017892	-0.018604
1071	5.408929	0.005000	2.550600	-9.068545	-1.636368	-0.530245	0.056388	-0.369927	0.000445	0.016504	-0.014834
1072	5.413929	0.005000	2.561769	-8.918649	-1.636911	-0.529993	0.056763	-0.369947	0.004418	0.011735	-0.007602
1073	5.418929	0.005000	2.560747	-9.093533	-1.627786	-0.530332	0.056876	-0.369821	0.004952	0.017530	-0.019414
1074	5.423929	0.005000	2.580602	-9.163685	-1.608840	-0.530671	0.056989	-0.369695	0.001727	0.010822	-0.003399
1075	5.428929	0.005000	2.611915	-9.095098	-1.648080	-0.531009	0.057102	-0.369569	-0.003569	0.022006	-0.014922
1076	5.433929	0.005000	2.668320	-9.040320	-1.577160	-0.531348	0.057215	-0.369443	-0.000340	0.017940	-0.019896
1077	5.438929	0.005000	2.675322	-8.992962	-1.594836	-0.531687	0.057328	-0.369316	0.005284	0.007941	-0.001264
1078	5.443929	0.005000	2.662325	-8.997950	-1.524365	-0.532026	0.057441	-0.369190	-0.006997	0.021465	-0.015967
1079	5.448929	0.005000	2.629080	-9.030173	-1.579546	-0.532365	0.057554	-0.369064	-0.010452	0.019101	-0.007279
1080	5.453929	0.005000	2.768380	-9.060025	-1.717730	-0.532703	0.057667	-0.368938	-0.006751	0.019927	-0.006699
