# FOX Logger (IMU file)
# (c) INRIA 2011-2014
# File created from file sensbiotk output
#
# File format:
# id	t	dt	ax	ay	az	mx	my	mz	gx	gy	gz
#
# Units:
#	Time: s
#	Acceleration: m.s^-2
#	Magneto: gauss
#	Gyrometer: rad/s
#
1	0.059875	0.059875	9.485461	1.187819	1.844280	0.488060	-0.188060	-0.293333	0.007428	-0.015066	0.012173
2	0.064875	0.005000	9.430609	1.386621	1.818049	0.488060	-0.187948	-0.293333	-0.003044	-0.013447	0.017096
3	0.069875	0.005000	9.504551	1.373400	1.813511	0.488060	-0.187837	-0.293333	0.001833	-0.014226	0.004460
4	0.074875	0.005000	9.553094	1.394866	1.940534	0.488060	-0.187725	-0.293333	0.000611	-0.002104	0.010369
5	0.079875	0.005000	9.613800	1.353251	1.981091	0.488060	-0.187614	-0.293333	-0.003742	-0.003715	0.008454
6	0.084875	0.005000	9.506941	1.373400	1.895198	0.488060	-0.187502	-0.293333	-0.003076	-0.003109	0.001771
7	0.089875	0.005000	9.692280	1.320136	1.819064	0.488060	-0.187390	-0.293333	0.008421	-0.005934	0.005847
8	0.094875	0.005000	9.613800	1.373400	1.844280	0.488060	-0.187279	-0.293333	0.003054	-0.010323	0.002097
9	0.099875	0.005000	9.574560	1.375834	1.883520	0.488060	-0.187167	-0.293333	-0.004036	-0.006204	0.012378
10	0.104875	0.005000	9.574560	1.294920	1.818630	0.488060	-0.187056	-0.293333	-0.007227	-0.001108	0.003645
11	0.109875	0.005000	9.530941	1.369021	1.844280	0.488060	-0.186944	-0.293333	-0.002689	-0.003049	0.018543
12	0.114875	0.005000	9.492132	1.296894	1.846254	0.488060	-0.186832	-0.293333	0.000497	0.008422	0.010407
13	0.119875	0.005000	9.378799	1.411763	1.883520	0.488060	-0.186721	-0.293333	-0.000362	-0.005102	0.010882
14	0.124875	0.005000	9.453992	1.449032	1.774343	0.488060	-0.186609	-0.293333	0.002415	-0.013773	0.009863
15	0.129875	0.005000	9.530055	1.378665	1.833751	0.487090	-0.187191	-0.292714	-0.001960	-0.012237	-0.000785
16	0.134875	0.005000	9.504113	1.428705	1.962000	0.485528	-0.188195	-0.291718	0.021502	-0.008243	0.011108
17	0.139875	0.005000	9.399205	1.431035	1.862675	0.483966	-0.189199	-0.290721	0.011540	-0.000825	0.009851
18	0.144875	0.005000	9.417600	1.425438	1.897165	0.482405	-0.190203	-0.289724	0.018080	-0.002235	0.016032
19	0.149875	0.005000	9.441652	1.316431	1.907572	0.480843	-0.191207	-0.288728	-0.002672	-0.002605	0.005498
20	0.154875	0.005000	9.539435	1.334160	1.962000	0.479281	-0.192211	-0.287731	0.002015	-0.004992	0.002522
21	0.159875	0.005000	9.653706	1.353447	2.000574	0.477719	-0.193215	-0.286735	0.004808	-0.009880	0.011248
22	0.164875	0.005000	9.568604	1.317518	2.007196	0.476157	-0.194219	-0.285738	-0.003579	-0.008215	0.002255
23	0.169875	0.005000	9.467614	1.373400	1.972774	0.474595	-0.195223	-0.284742	0.004686	-0.011383	0.015071
24	0.174875	0.005000	9.362759	1.334160	1.962000	0.473033	-0.196227	-0.283745	-0.007488	-0.005758	0.000019
25	0.179875	0.005000	9.436424	1.343572	1.902344	0.471472	-0.197231	-0.282749	-0.003270	-0.018151	0.012466
26	0.184875	0.005000	9.567647	1.327247	1.941261	0.469910	-0.198235	-0.281752	-0.002103	-0.011932	0.008317
27	0.189875	0.005000	9.653040	1.373400	1.909146	0.468348	-0.199239	-0.280755	0.004002	-0.005562	0.007925
28	0.194875	0.005000	9.613800	1.379844	1.881372	0.467515	-0.199649	-0.280211	0.004684	-0.018788	0.010314
29	0.199875	0.005000	9.652810	1.374089	1.961311	0.468965	-0.198199	-0.281083	-0.005469	-0.008245	0.003545
30	0.204875	0.005000	9.537968	1.302863	1.807688	0.470416	-0.196748	-0.281955	-0.001804	-0.013356	0.017161
31	0.209875	0.005000	9.569508	1.334160	1.849332	0.471866	-0.195298	-0.282827	-0.002861	-0.001500	-0.000495
32	0.214875	0.005000	9.535320	1.334160	1.986303	0.473316	-0.193848	-0.283699	0.001534	-0.005584	0.000474
33	0.219875	0.005000	9.466715	1.334160	1.952125	0.474766	-0.192398	-0.284571	0.002607	-0.010471	0.007305
34	0.224875	0.005000	9.471522	1.334160	1.895799	0.476217	-0.190947	-0.285443	0.007542	-0.004793	0.009288
35	0.229875	0.005000	9.499680	1.334160	1.898496	0.477667	-0.189497	-0.286315	0.006786	-0.015866	0.000750
36	0.234875	0.005000	9.530812	1.434514	1.905394	0.479117	-0.188047	-0.287187	0.002338	-0.017841	0.005219
37	0.239875	0.005000	9.476581	1.353659	1.942259	0.480567	-0.186597	-0.288059	0.017126	-0.008425	0.004276
38	0.244875	0.005000	9.513189	1.334160	1.984131	0.482018	-0.185146	-0.288932	0.011678	-0.007330	-0.001953
39	0.249875	0.005000	9.599066	1.383172	1.922760	0.483468	-0.183696	-0.289804	0.006739	-0.014406	0.010066
40	0.254875	0.005000	9.520138	1.318978	1.856309	0.484918	-0.182246	-0.290676	0.015450	-0.006528	0.007635
41	0.259875	0.005000	9.456840	1.412640	1.854249	0.486369	-0.180795	-0.291548	0.012413	-0.010690	-0.003210
42	0.264875	0.005000	9.542528	1.366192	1.844280	0.487241	-0.180404	-0.292957	0.009802	-0.009676	0.007318
43	0.269875	0.005000	9.564976	1.299712	1.858656	0.488022	-0.180181	-0.294452	0.017072	-0.003475	0.013988
44	0.274875	0.005000	9.461615	1.292533	1.846667	0.488803	-0.179958	-0.295947	0.014029	-0.018100	-0.000590
45	0.279875	0.005000	9.535320	1.177261	1.961939	0.489584	-0.179735	-0.297442	0.003991	-0.008337	-0.000285
46	0.284875	0.005000	9.540130	1.214035	1.962000	0.490365	-0.179512	-0.298937	0.006996	-0.008045	-0.004581
47	0.289875	0.005000	9.530525	1.334160	1.932351	0.491146	-0.179289	-0.300432	0.011901	-0.011908	0.005033
48	0.294875	0.005000	9.535320	1.366143	1.876263	0.491927	-0.179066	-0.301927	0.003887	-0.003962	0.006310
49	0.299875	0.005000	9.594455	1.323937	1.863625	0.492708	-0.178843	-0.303422	-0.002305	-0.014293	0.006289
50	0.304875	0.005000	9.625880	1.322080	1.817120	0.493488	-0.178620	-0.304916	0.002220	-0.007883	0.013236
51	0.309875	0.005000	9.539559	1.284666	1.883520	0.494269	-0.178396	-0.306411	-0.000990	-0.006998	0.015693
52	0.314875	0.005000	9.456840	1.334160	1.910492	0.495050	-0.178173	-0.307906	0.008197	-0.008615	0.008181
53	0.319875	0.005000	9.496231	1.393096	1.883369	0.495831	-0.177950	-0.309401	-0.001300	-0.008299	0.004809
54	0.324875	0.005000	9.543443	1.334160	1.900841	0.496612	-0.177727	-0.310896	0.002050	-0.022548	0.006380
55	0.329875	0.005000	9.580112	1.412640	1.898451	0.496961	-0.177558	-0.311727	-0.016182	-0.020300	-0.001219
56	0.334875	0.005000	9.613800	1.373400	1.896076	0.496849	-0.177446	-0.311852	0.005850	-0.013275	0.001549
57	0.339875	0.005000	9.505905	1.334160	1.932585	0.496738	-0.177335	-0.311976	0.000937	-0.007434	0.016504
58	0.344875	0.005000	9.613800	1.365990	1.836870	0.496626	-0.177223	-0.312101	-0.005913	-0.004241	0.007563
59	0.349875	0.005000	9.613800	1.339164	1.854289	0.496515	-0.177112	-0.312225	0.007505	-0.005397	0.019853
60	0.354875	0.005000	9.608625	1.336747	2.032718	0.496403	-0.177000	-0.312350	0.007021	-0.009937	0.006221
61	0.359875	0.005000	9.496447	1.294920	1.883153	0.496291	-0.176888	-0.312474	0.006380	-0.014355	0.014219
62	0.364875	0.005000	9.648623	1.368983	1.879103	0.496180	-0.176777	-0.312599	0.009887	-0.008153	0.009643
63	0.369875	0.005000	9.539959	1.320243	1.878881	0.496068	-0.176665	-0.312723	0.014128	-0.013690	0.011309
64	0.374875	0.005000	9.510027	1.437933	1.922760	0.495957	-0.176554	-0.312848	0.023199	-0.007937	0.019857
65	0.379875	0.005000	9.585415	1.382862	1.902443	0.495845	-0.176442	-0.312973	0.007546	-0.010047	0.004254
66	0.384875	0.005000	9.547196	1.267556	1.856156	0.495733	-0.176330	-0.313097	0.014844	-0.012226	0.008699
67	0.389875	0.005000	9.559977	1.309503	1.893595	0.495622	-0.176219	-0.313222	0.006945	-0.005391	0.005882
68	0.394875	0.005000	9.557602	1.317202	1.922760	0.495475	-0.176131	-0.313307	0.010951	-0.005589	0.010734
69	0.399875	0.005000	9.536409	1.294375	1.942108	0.495029	-0.176242	-0.313058	0.014836	-0.010283	0.003377
70	0.404875	0.005000	9.653040	1.255680	1.883520	0.494583	-0.176354	-0.312808	0.007095	-0.015373	0.005549
71	0.409875	0.005000	9.471967	1.246694	1.868393	0.494136	-0.176466	-0.312559	0.007520	-0.011301	0.001445
72	0.414875	0.005000	9.549056	1.346912	1.896272	0.493690	-0.176577	-0.312310	-0.004114	-0.015857	0.003564
73	0.419875	0.005000	9.593744	1.373400	1.972028	0.493244	-0.176689	-0.312061	-0.000119	-0.012240	0.005647
74	0.424875	0.005000	9.636664	1.365779	1.946757	0.492798	-0.176800	-0.311812	0.001040	-0.005030	0.012475
75	0.429875	0.005000	9.608657	1.368257	1.927903	0.492351	-0.176912	-0.311563	0.000028	-0.013062	0.004448
76	0.434875	0.005000	9.577328	1.387241	1.956463	0.491905	-0.177024	-0.311314	-0.007199	-0.013455	0.007929
77	0.439875	0.005000	9.613044	1.412640	1.960865	0.491459	-0.177135	-0.311065	-0.004073	-0.019446	0.002569
78	0.444875	0.005000	9.498101	1.375421	1.918718	0.491013	-0.177247	-0.310816	-0.000058	-0.015606	0.001405
79	0.449875	0.005000	9.496080	1.373400	1.983487	0.490567	-0.177358	-0.310566	-0.000253	-0.003764	0.001100
80	0.454875	0.005000	9.560873	1.334160	1.943291	0.490120	-0.177470	-0.310317	-0.004280	-0.008415	0.004257
81	0.459875	0.005000	9.515292	1.393428	1.853886	0.489674	-0.177581	-0.310068	0.009943	-0.001009	0.009342
82	0.464875	0.005000	9.496080	1.412640	1.868272	0.489633	-0.177855	-0.310090	0.012463	-0.006085	-0.002198
83	0.469875	0.005000	9.496080	1.412640	1.819411	0.489745	-0.178190	-0.310215	0.010441	-0.007660	0.013704
84	0.474875	0.005000	9.473601	1.395879	1.749039	0.489856	-0.178524	-0.310340	0.006446	0.002541	0.014391
85	0.479875	0.005000	9.555424	1.295888	1.844280	0.489968	-0.178859	-0.310464	0.007544	-0.003573	0.005483
86	0.484875	0.005000	9.539636	1.360254	1.805040	0.490079	-0.179193	-0.310589	0.005701	-0.001833	0.008436
87	0.489875	0.005000	9.471890	1.358350	1.780850	0.490191	-0.179528	-0.310713	0.002685	-0.003047	0.008970
88	0.494875	0.005000	9.483439	1.373400	1.818997	0.490302	-0.179862	-0.310838	0.013697	-0.005063	0.007363
89	0.499875	0.005000	9.566002	1.344387	1.932987	0.490414	-0.180197	-0.310962	0.009435	-0.002232	0.000685
90	0.504875	0.005000	9.566736	1.287096	1.930584	0.490525	-0.180531	-0.311087	0.005100	-0.006207	0.014910
91	0.509875	0.005000	9.535320	1.300275	1.917405	0.490637	-0.180866	-0.311211	0.003327	-0.010967	0.004980
92	0.514875	0.005000	9.456840	1.297885	1.810970	0.490748	-0.181201	-0.311336	0.010314	-0.001268	0.004572
93	0.519875	0.005000	9.575150	1.412640	1.960820	0.490860	-0.181535	-0.311460	0.014069	-0.013540	0.010792
94	0.524875	0.005000	9.576381	1.375221	1.846101	0.490972	-0.181870	-0.311585	0.004406	-0.014485	0.003885
95	0.529875	0.005000	9.522643	1.447654	1.870843	0.491121	-0.182014	-0.311667	0.000180	-0.014494	0.008733
96	0.534875	0.005000	9.567918	1.380042	1.883520	0.491344	-0.181790	-0.311667	-0.005094	-0.010989	0.012630
97	0.539875	0.005000	9.505128	1.403592	1.904663	0.491568	-0.181567	-0.311667	0.004238	-0.015424	-0.003398
98	0.544875	0.005000	9.468303	1.306383	1.872057	0.491791	-0.181344	-0.311667	0.002984	-0.008645	0.002703
99	0.549875	0.005000	9.521449	1.306418	1.802667	0.492014	-0.181121	-0.311667	0.005464	-0.012150	0.012208
100	0.554875	0.005000	9.479796	1.334160	1.805040	0.492237	-0.180897	-0.311667	-0.005058	-0.011912	0.009068
101	0.559875	0.005000	9.455479	1.274619	1.786101	0.492460	-0.180674	-0.311667	-0.003571	-0.005828	0.006460
102	0.564875	0.005000	9.453452	1.352086	1.787114	0.492684	-0.180451	-0.311667	-0.002657	-0.007544	0.008132
103	0.569875	0.005000	9.692280	1.341527	1.805040	0.492907	-0.180227	-0.311667	-0.003396	-0.004352	0.012408
104	0.574875	0.005000	9.626719	1.334402	1.896681	0.493130	-0.180004	-0.311667	-0.001974	-0.005088	0.003946
105	0.579875	0.005000	9.467611	1.373400	1.855051	0.493353	-0.179781	-0.311667	0.002143	-0.002425	0.012503
106	0.584875	0.005000	9.535320	1.373400	1.875497	0.493577	-0.179558	-0.311667	0.001203	0.003756	-0.002144
107	0.589875	0.005000	9.535320	1.362167	1.922760	0.493800	-0.179334	-0.311667	0.001122	0.001368	0.004051
108	0.594875	0.005000	9.607400	1.340560	1.850680	0.494023	-0.179111	-0.311667	0.002642	-0.007941	0.013351
109	0.599875	0.005000	9.572987	1.296493	1.921187	0.494030	-0.178888	-0.311546	0.001660	-0.002291	0.009087
110	0.604875	0.005000	9.496080	1.335768	1.844280	0.494030	-0.178665	-0.311422	0.003327	0.001926	0.008072
111	0.609875	0.005000	9.492055	1.373400	1.809065	0.494030	-0.178442	-0.311297	0.005779	0.008159	-0.008266
112	0.614875	0.005000	9.489650	1.340590	1.877090	0.494030	-0.178219	-0.311173	0.008346	0.002300	0.005532
113	0.619875	0.005000	9.504926	1.355708	1.931606	0.494030	-0.177995	-0.311048	-0.000022	0.009702	0.011954
114	0.624875	0.005000	9.524067	1.322907	1.978734	0.494030	-0.177772	-0.310923	0.005178	-0.001672	0.010295
115	0.629875	0.005000	9.599838	1.280958	2.001240	0.494030	-0.177549	-0.310799	0.003290	-0.011135	-0.004656
116	0.634875	0.005000	9.613800	1.288385	1.867167	0.494030	-0.177326	-0.310674	0.003669	-0.009950	-0.004853
117	0.639875	0.005000	9.595073	1.255680	1.902247	0.494030	-0.177103	-0.310550	0.006526	-0.007133	0.011197
118	0.644875	0.005000	9.535320	1.277045	1.869134	0.494030	-0.176880	-0.310425	-0.003662	-0.007336	0.003674
119	0.649875	0.005000	9.472303	1.334160	1.875207	0.494030	-0.176657	-0.310300	0.008998	-0.008446	0.004249
120	0.654875	0.005000	9.456917	1.334160	1.922683	0.494030	-0.176434	-0.310176	0.002383	0.000279	0.003650
121	0.659875	0.005000	9.478121	1.344801	2.011881	0.494030	-0.176211	-0.310051	0.005205	0.004206	0.010823
122	0.664875	0.005000	9.543458	1.381538	1.993102	0.494030	-0.176119	-0.310147	0.013257	0.001684	0.012630
123	0.669875	0.005000	9.490332	1.401143	1.889268	0.494030	-0.176119	-0.310396	-0.000979	-0.002014	0.002455
124	0.674875	0.005000	9.531947	1.259053	1.926133	0.494030	-0.176119	-0.310645	-0.001578	-0.009562	0.012650
125	0.679875	0.005000	9.456840	1.333089	1.923296	0.494030	-0.176119	-0.310894	0.000000	-0.005692	0.009209
126	0.684875	0.005000	9.494219	1.330439	1.849862	0.494030	-0.176119	-0.311143	0.007056	-0.003878	0.004956
127	0.689875	0.005000	9.421836	1.334160	1.813511	0.494030	-0.176119	-0.311393	-0.003642	-0.008173	-0.004310
128	0.694875	0.005000	9.470066	1.301533	1.805040	0.494030	-0.176119	-0.311642	-0.002034	-0.008820	-0.002912
129	0.699875	0.005000	9.644039	1.321922	1.835279	0.494030	-0.176119	-0.311891	-0.007417	-0.011631	0.008761
130	0.704875	0.005000	9.558347	1.361887	1.883520	0.494030	-0.176119	-0.312140	-0.000989	-0.003181	0.004923
131	0.709875	0.005000	9.574560	1.401254	1.948073	0.494030	-0.176119	-0.312389	0.002479	-0.011967	0.010923
132	0.714875	0.005000	9.512416	1.389736	1.850848	0.494030	-0.176119	-0.312638	-0.002485	-0.017100	0.003603
133	0.719875	0.005000	9.555575	1.412640	1.865806	0.494030	-0.176119	-0.312887	0.001624	-0.013461	0.011537
134	0.724875	0.005000	9.474705	1.391265	1.962000	0.494030	-0.176119	-0.313136	0.004889	-0.006413	0.009628
135	0.729875	0.005000	9.503311	1.381659	1.883520	0.494054	-0.176143	-0.313333	-0.010669	-0.002617	0.008210
136	0.734875	0.005000	9.456840	1.334160	1.948960	0.494165	-0.176254	-0.313333	-0.001011	-0.006620	-0.000701
137	0.739875	0.005000	9.556081	1.373400	1.873140	0.494277	-0.176366	-0.313333	0.005399	-0.007478	-0.005735
138	0.744875	0.005000	9.660386	1.396693	1.828333	0.494388	-0.176477	-0.313333	0.004382	-0.014616	0.003356
139	0.749875	0.005000	9.456840	1.317487	1.877962	0.494500	-0.176589	-0.313333	-0.004901	-0.010371	0.002702
140	0.754875	0.005000	9.532204	1.265029	1.883520	0.494611	-0.176701	-0.313333	0.005278	-0.009563	-0.004255
141	0.759875	0.005000	9.573834	1.334160	1.962000	0.494723	-0.176812	-0.313333	0.005938	-0.008830	0.016168
142	0.764875	0.005000	9.648034	1.296589	1.849286	0.494835	-0.176924	-0.313333	0.000455	-0.004688	0.003499
143	0.769875	0.005000	9.504252	1.365228	1.887606	0.494946	-0.177036	-0.313333	0.007623	-0.009819	0.007724
144	0.774875	0.005000	9.482314	1.438114	1.915877	0.495058	-0.177147	-0.313333	0.004300	-0.002741	0.009515
145	0.779875	0.005000	9.417600	1.431156	1.922760	0.495169	-0.177259	-0.313333	0.003448	-0.001211	0.003303
146	0.784875	0.005000	9.390008	1.306568	1.883520	0.495281	-0.177371	-0.313333	-0.002576	-0.016247	0.007944
147	0.789875	0.005000	9.484886	1.244486	1.933954	0.495392	-0.177482	-0.313333	-0.003506	-0.006373	-0.001036
148	0.794875	0.005000	9.485531	1.311516	1.877472	0.495504	-0.177594	-0.313333	0.013647	-0.006914	0.004892
149	0.799875	0.005000	9.555552	1.373400	1.844280	0.495429	-0.177518	-0.313229	0.012698	0.004548	0.000438
150	0.804875	0.005000	9.535320	1.394819	1.862101	0.495317	-0.177407	-0.313104	0.004882	-0.004701	0.004191
151	0.809875	0.005000	9.504854	1.286146	1.868287	0.495206	-0.177295	-0.312980	0.004717	-0.007517	0.019305
152	0.814875	0.005000	9.482526	1.426194	1.896363	0.495094	-0.177184	-0.312855	0.001157	-0.011914	0.008182
153	0.819875	0.005000	9.477776	1.373400	1.969836	0.494982	-0.177072	-0.312731	0.001866	-0.007486	0.013299
154	0.824875	0.005000	9.628806	1.396484	1.962000	0.494871	-0.176961	-0.312606	-0.002066	0.000377	0.007079
155	0.829875	0.005000	9.473949	1.373400	1.956297	0.494759	-0.176849	-0.312481	0.008016	-0.003828	0.006271
156	0.834875	0.005000	9.463466	1.373400	1.962000	0.494648	-0.176737	-0.312357	0.003275	-0.006720	0.011945
157	0.839875	0.005000	9.495131	1.373875	1.923235	0.494536	-0.176626	-0.312232	0.006437	-0.008811	0.006860
158	0.844875	0.005000	9.417600	1.412640	1.924666	0.494425	-0.176514	-0.312108	0.009904	-0.004111	0.008549
159	0.849875	0.005000	9.640152	1.369104	1.927056	0.494313	-0.176403	-0.311983	-0.000928	-0.008034	0.003009
160	0.854875	0.005000	9.516093	1.451880	1.876849	0.494202	-0.176291	-0.311859	0.005553	-0.013494	0.008190
161	0.859875	0.005000	9.496080	1.451880	1.892581	0.494090	-0.176179	-0.311734	-0.002000	-0.004707	0.011764
162	0.864875	0.005000	9.507516	1.424076	1.955495	0.494030	-0.176170	-0.311781	0.003762	-0.010978	0.010833
163	0.869875	0.005000	9.456840	1.361813	1.936586	0.494030	-0.176282	-0.312031	0.003346	-0.007464	0.009911
164	0.874875	0.005000	9.535320	1.357003	1.867123	0.494030	-0.176393	-0.312280	0.005688	-0.000817	-0.002068
165	0.879875	0.005000	9.494458	1.371778	1.863089	0.494030	-0.176505	-0.312529	0.012239	-0.002327	0.009298
166	0.884875	0.005000	9.535320	1.294920	1.862300	0.494030	-0.176617	-0.312778	0.003388	0.002640	0.008333
167	0.889875	0.005000	9.559130	1.342540	1.970380	0.494030	-0.176728	-0.313027	0.010832	-0.010455	0.005136
168	0.894875	0.005000	9.417600	1.242625	1.935890	0.494030	-0.176840	-0.313276	0.002273	-0.011980	0.008892
169	0.899875	0.005000	9.371114	1.305585	1.865609	0.494030	-0.176951	-0.313525	0.005025	-0.013216	0.001456
170	0.904875	0.005000	9.597221	1.247390	1.953710	0.494030	-0.177063	-0.313774	0.000030	-0.000138	0.013136
171	0.909875	0.005000	9.562761	1.294920	1.962000	0.494030	-0.177175	-0.314023	-0.000542	-0.000296	0.002288
172	0.914875	0.005000	9.492555	1.301969	1.858379	0.494030	-0.177286	-0.314273	0.008626	-0.008743	0.007931
173	0.919875	0.005000	9.496080	1.333025	1.923895	0.494030	-0.177398	-0.314522	-0.000182	-0.000829	0.007946
174	0.924875	0.005000	9.533611	1.294920	1.924469	0.494030	-0.177509	-0.314771	0.006004	-0.002927	0.006483
175	0.929875	0.005000	9.543489	1.408556	1.805040	0.494003	-0.177621	-0.314990	-0.003538	-0.011384	0.015378
176	0.934875	0.005000	9.424074	1.340634	1.772274	0.493668	-0.177732	-0.314865	-0.001596	-0.012741	0.006229
177	0.939875	0.005000	9.556861	1.334160	1.813889	0.493334	-0.177844	-0.314741	0.006324	-0.017194	0.004332
178	0.944875	0.005000	9.563320	1.311681	1.855520	0.492999	-0.177956	-0.314616	-0.005294	-0.006414	-0.001324
179	0.949875	0.005000	9.509694	1.371797	1.948386	0.492664	-0.178067	-0.314492	-0.005215	-0.012081	0.004174
180	0.954875	0.005000	9.472845	1.334160	1.883520	0.492330	-0.178179	-0.314367	-0.004706	-0.010121	0.003806
181	0.959875	0.005000	9.516718	1.294920	1.902122	0.491995	-0.178290	-0.314242	0.003759	-0.006599	0.003365
182	0.964875	0.005000	9.493295	1.297705	1.901747	0.491660	-0.178402	-0.314118	0.012171	-0.006773	0.013676
183	0.969875	0.005000	9.535320	1.349975	1.938575	0.491325	-0.178513	-0.313993	0.002133	-0.002724	0.013313
184	0.974875	0.005000	9.522903	1.281508	1.936172	0.490991	-0.178625	-0.313869	0.017953	-0.007962	0.010405
185	0.979875	0.005000	9.467844	1.334160	1.922760	0.490656	-0.178736	-0.313744	0.008040	0.003296	-0.004163
186	0.984875	0.005000	9.543806	1.294920	1.931246	0.490321	-0.178848	-0.313619	0.006550	-0.003373	-0.000651
187	0.989875	0.005000	9.574560	1.255680	1.928871	0.489987	-0.178959	-0.313495	0.011790	-0.005807	0.013564
188	0.994875	0.005000	9.542763	1.231325	1.776964	0.489652	-0.179071	-0.313370	0.011473	-0.006374	0.012691
189	0.999875	0.005000	9.536666	1.373400	1.924106	0.489943	-0.179495	-0.313246	0.014460	-0.020525	0.018800
190	1.004875	0.005000	9.498192	1.335216	1.923816	0.490502	-0.180054	-0.313121	0.008508	-0.007948	0.013063
191	1.009875	0.005000	9.571100	1.376860	1.922760	0.491060	-0.180612	-0.312996	0.009894	-0.009412	0.004567
192	1.014875	0.005000	9.430125	1.301183	2.046743	0.491618	-0.181170	-0.312872	0.000134	-0.017031	0.007081
193	1.019875	0.005000	9.509362	1.334160	1.900826	0.492176	-0.181728	-0.312747	0.005724	-0.012854	0.006282
194	1.024875	0.005000	9.580717	1.362372	1.933788	0.492734	-0.182286	-0.312623	0.003638	-0.006229	0.002192
195	1.029875	0.005000	9.509498	1.320742	1.962000	0.493292	-0.182844	-0.312498	-0.003303	-0.009758	-0.000256
196	1.034875	0.005000	9.496080	1.373400	1.867536	0.493850	-0.183402	-0.312374	-0.009034	-0.010699	0.007080
197	1.039875	0.005000	9.475236	1.394244	1.844280	0.494408	-0.183960	-0.312249	0.001087	-0.010996	0.006557
198	1.044875	0.005000	9.516887	1.352593	1.941193	0.494966	-0.184518	-0.312124	0.000376	-0.010998	0.007285
199	1.049875	0.005000	9.480056	1.334160	1.922760	0.495524	-0.185076	-0.312000	0.000101	-0.010130	0.009641
200	1.054875	0.005000	9.521709	1.282902	1.859483	0.496082	-0.185634	-0.311875	-0.003901	-0.009155	0.003363
201	1.059875	0.005000	9.490448	1.283717	1.855544	0.496640	-0.186192	-0.311751	0.002383	-0.013600	0.009979
202	1.064875	0.005000	9.565877	1.316794	1.796357	0.496209	-0.186970	-0.310930	-0.003575	-0.006359	0.000756
203	1.069875	0.005000	9.496080	1.412640	1.805040	0.493754	-0.188197	-0.308688	0.000501	-0.011975	0.003939
204	1.074875	0.005000	9.492147	1.440081	1.852146	0.491300	-0.189425	-0.306446	-0.011343	-0.005623	0.010974
205	1.079875	0.005000	9.499166	1.374943	1.842737	0.488846	-0.190652	-0.304203	0.003891	-0.008188	0.001294
206	1.084875	0.005000	9.574560	1.412640	1.881836	0.486391	-0.191879	-0.301961	0.003252	-0.007974	0.009774
207	1.089875	0.005000	9.541840	1.337420	1.922760	0.483937	-0.193106	-0.299719	-0.004511	0.000848	0.003520
208	1.094875	0.005000	9.541386	1.373400	1.922760	0.481483	-0.194333	-0.297476	0.009155	0.000003	0.015869
209	1.099875	0.005000	9.653040	1.381841	1.914319	0.479028	-0.195560	-0.295234	0.008439	-0.001836	0.009856
210	1.104875	0.005000	9.681449	1.373400	1.883520	0.476574	-0.196787	-0.292992	0.001424	-0.016379	0.010439
211	1.109875	0.005000	9.587766	1.347366	1.831074	0.474120	-0.198015	-0.290749	-0.000703	-0.000248	0.008437
212	1.114875	0.005000	9.386456	1.373400	1.781579	0.471666	-0.199242	-0.288507	-0.002374	-0.002838	0.001123
213	1.119875	0.005000	9.498943	1.370537	1.828955	0.469211	-0.200469	-0.286265	0.003316	-0.007279	0.019578
214	1.124875	0.005000	9.553961	1.255680	1.941401	0.466757	-0.201696	-0.284022	0.005516	0.001260	0.014922
215	1.129875	0.005000	9.604354	1.255680	1.899749	0.464303	-0.202923	-0.281780	0.004977	-0.009630	0.007847
216	1.134875	0.005000	9.627460	1.202780	1.897180	0.465556	-0.201714	-0.283323	-0.001199	-0.007402	0.012407
217	1.139875	0.005000	9.535320	1.306190	1.883520	0.467006	-0.200375	-0.285067	0.009271	-0.004041	0.001101
218	1.144875	0.005000	9.613800	1.343055	1.844280	0.468457	-0.199036	-0.286811	0.013214	0.002195	0.012186
219	1.149875	0.005000	9.653040	1.412640	1.877015	0.469907	-0.197698	-0.288555	0.001770	0.002489	0.000808
220	1.154875	0.005000	9.566301	1.385789	1.813299	0.471357	-0.196359	-0.290299	0.008577	0.000774	0.001951
221	1.159875	0.005000	9.613800	1.485901	1.849499	0.472808	-0.195020	-0.292043	-0.003644	0.005152	0.004869
222	1.164875	0.005000	9.652397	1.334803	2.039194	0.474258	-0.193682	-0.293787	0.008808	0.003762	-0.001623
223	1.169875	0.005000	9.584998	1.298399	1.933198	0.475708	-0.192343	-0.295531	0.011849	-0.009967	0.009889
224	1.174875	0.005000	9.496080	1.255680	1.855988	0.477158	-0.191004	-0.297275	0.003108	-0.007515	0.005714
225	1.179875	0.005000	9.465084	1.294920	1.992996	0.478609	-0.189666	-0.299019	0.006775	-0.002443	0.017840
226	1.184875	0.005000	9.514081	1.294920	1.962000	0.480059	-0.188327	-0.300763	0.002756	0.001241	0.007191
227	1.189875	0.005000	9.535320	1.478111	1.948779	0.481509	-0.186988	-0.302507	0.006771	-0.004232	-0.000095
228	1.194875	0.005000	9.502993	1.334160	1.938144	0.482960	-0.185650	-0.304251	0.004266	-0.006109	0.002411
229	1.199875	0.005000	9.553094	1.391174	2.022706	0.483773	-0.185075	-0.305142	0.028662	-0.007558	0.006423
230	1.204875	0.005000	9.514112	1.392491	2.059571	0.484108	-0.185075	-0.305391	0.019268	-0.002837	-0.000765
231	1.209875	0.005000	9.568721	1.412640	2.023780	0.484442	-0.185075	-0.305640	0.005823	-0.004412	-0.005504
232	1.214875	0.005000	9.535320	1.412640	1.986915	0.484777	-0.185075	-0.305890	0.009630	-0.014898	0.001035
233	1.219875	0.005000	9.531886	1.282985	2.016609	0.485112	-0.185075	-0.306139	0.006819	-0.004182	0.013553
234	1.224875	0.005000	9.505640	1.324600	1.922760	0.485447	-0.185075	-0.306388	0.010670	-0.018001	0.011613
235	1.229875	0.005000	9.567765	1.313775	2.059335	0.485781	-0.185075	-0.306637	0.008524	-0.011884	0.005750
236	1.234875	0.005000	9.500459	1.264437	1.927139	0.486116	-0.185075	-0.306886	0.003680	-0.014665	0.003722
237	1.239875	0.005000	9.494106	1.408692	1.887468	0.486451	-0.185075	-0.307135	0.004574	-0.015354	0.011085
238	1.244875	0.005000	9.495641	1.372961	1.806795	0.486785	-0.185075	-0.307384	0.003253	-0.003045	0.000730
239	1.249875	0.005000	9.496080	1.339787	1.877893	0.487120	-0.185075	-0.307633	0.010419	-0.015824	0.009657
240	1.254875	0.005000	9.569295	1.294920	1.990711	0.487455	-0.185075	-0.307883	-0.001408	-0.015496	0.009391
241	1.259875	0.005000	9.622370	1.365733	2.032813	0.487789	-0.185075	-0.308132	0.005399	-0.016089	0.009441
242	1.264875	0.005000	9.642966	1.344234	1.991166	0.488039	-0.184904	-0.308214	0.007376	-0.016019	0.017520
243	1.269875	0.005000	9.562072	1.307408	1.985201	0.487927	-0.184011	-0.307591	0.000740	-0.015706	-0.001638
244	1.274875	0.005000	9.505526	1.319263	1.980893	0.487815	-0.183119	-0.306968	0.005302	-0.020553	0.005499
245	1.279875	0.005000	9.552883	1.334160	2.022917	0.487704	-0.182226	-0.306345	0.005876	-0.009286	0.010307
246	1.284875	0.005000	9.555273	1.354113	1.942713	0.487592	-0.181334	-0.305722	0.005127	-0.026792	0.002443
247	1.289875	0.005000	9.439928	1.334160	2.001240	0.487481	-0.180441	-0.305099	0.006547	-0.013987	0.006930
248	1.294875	0.005000	9.545516	1.387922	1.893716	0.487369	-0.179549	-0.304476	0.018401	-0.011627	0.005323
249	1.299875	0.005000	9.483933	1.319214	2.001240	0.487257	-0.178656	-0.303854	0.026103	-0.023797	0.009301
250	1.304875	0.005000	9.564803	1.412640	2.001240	0.487146	-0.177764	-0.303231	0.023571	-0.015281	0.018397
251	1.309875	0.005000	9.496080	1.320166	1.962000	0.487034	-0.176871	-0.302608	0.021176	-0.017103	0.016697
252	1.314875	0.005000	9.491489	1.260271	1.922760	0.486923	-0.175979	-0.301985	0.020567	-0.016604	0.008076
253	1.319875	0.005000	9.498254	1.297094	1.883520	0.486811	-0.175086	-0.301362	0.022713	-0.014194	0.000455
254	1.324875	0.005000	9.535320	1.334160	1.922533	0.486699	-0.174194	-0.300739	0.027176	-0.026488	0.005554
255	1.329875	0.005000	9.535320	1.187668	1.922760	0.486588	-0.173301	-0.300117	0.009179	-0.016386	0.009606
256	1.334875	0.005000	9.501072	1.363416	1.922760	0.486748	-0.173860	-0.300709	0.013910	-0.020094	0.008785
257	1.339875	0.005000	9.527852	1.294920	1.954532	0.486972	-0.174753	-0.301582	0.006425	-0.023573	0.002397
258	1.344875	0.005000	9.496080	1.334160	1.883520	0.487195	-0.175646	-0.302454	-0.005897	-0.012699	0.004264
259	1.349875	0.005000	9.483801	1.307199	1.868838	0.487418	-0.176539	-0.303326	-0.001629	-0.021965	0.020438
260	1.354875	0.005000	9.466128	1.240704	1.922760	0.487641	-0.177432	-0.304199	0.003103	-0.016475	0.001655
261	1.359875	0.005000	9.461348	1.334160	1.770308	0.487865	-0.178324	-0.305071	-0.007550	-0.024743	0.001639
262	1.364875	0.005000	9.476339	1.353659	1.785299	0.488088	-0.179217	-0.305944	-0.014922	-0.028320	0.010149
263	1.369875	0.005000	9.478971	1.299942	1.748691	0.488311	-0.180110	-0.306816	-0.021014	-0.022398	0.008186
264	1.374875	0.005000	9.496080	1.280186	1.711826	0.488534	-0.181003	-0.307689	-0.018742	-0.025214	0.011086
265	1.379875	0.005000	9.550502	1.228469	1.765800	0.488757	-0.181896	-0.308561	-0.021952	-0.014530	0.000258
266	1.384875	0.005000	9.476070	1.304535	1.765800	0.488981	-0.182789	-0.309434	-0.005645	-0.020157	0.014361
267	1.389875	0.005000	9.442423	1.358983	1.765800	0.489204	-0.183682	-0.310306	-0.010132	-0.009714	0.014355
268	1.394875	0.005000	9.422392	1.348536	1.775384	0.489427	-0.184575	-0.311178	-0.005105	-0.012863	0.011022
269	1.399875	0.005000	9.535320	1.451880	1.765800	0.489552	-0.184879	-0.311612	0.021076	-0.009163	0.001499
270	1.404875	0.005000	9.574529	1.412671	1.805009	0.489552	-0.184432	-0.311488	0.021264	-0.003592	0.003593
271	1.409875	0.005000	9.422469	1.380703	1.768234	0.489552	-0.183986	-0.311363	0.019655	-0.007102	0.015348
272	1.414875	0.005000	9.491229	1.398086	1.692171	0.489552	-0.183540	-0.311238	0.018030	-0.008302	0.001286
273	1.419875	0.005000	9.528063	1.348674	1.783269	0.489552	-0.183093	-0.311114	0.026677	-0.001618	0.007421
274	1.424875	0.005000	9.613800	1.354055	1.834608	0.489552	-0.182647	-0.310989	0.018506	0.009720	-0.001222
275	1.429875	0.005000	9.628231	1.425044	1.922760	0.489552	-0.182201	-0.310865	0.031960	0.005637	-0.003256
276	1.434875	0.005000	9.638261	1.412640	1.952319	0.489552	-0.181755	-0.310740	0.022105	0.004071	0.006021
277	1.439875	0.005000	9.670209	1.395471	1.844280	0.489552	-0.181308	-0.310615	0.012927	0.007489	-0.001080
278	1.444875	0.005000	9.535169	1.412489	1.863824	0.489552	-0.180862	-0.310491	0.016714	-0.002551	-0.001470
279	1.449875	0.005000	9.517999	1.373400	1.910038	0.489552	-0.180416	-0.310366	0.001732	-0.002821	0.003698
280	1.454875	0.005000	9.432246	1.329462	1.883520	0.489552	-0.179969	-0.310242	0.005824	-0.000778	-0.001683
281	1.459875	0.005000	9.496080	1.304611	1.934993	0.489552	-0.179523	-0.310117	-0.002035	0.005470	0.005247
282	1.464875	0.005000	9.486316	1.304745	1.912935	0.489586	-0.179077	-0.310023	-0.003829	0.001855	0.001631
283	1.469875	0.005000	9.496080	1.287510	1.836870	0.490144	-0.178631	-0.310396	-0.004966	0.008202	0.011683
284	1.474875	0.005000	9.545329	1.255680	1.878516	0.490701	-0.178185	-0.310770	-0.016835	0.013022	-0.010355
285	1.479875	0.005000	9.569385	1.221615	2.035305	0.491259	-0.177739	-0.311144	-0.009687	-0.007656	-0.002319
286	1.484875	0.005000	9.534775	1.334342	2.000877	0.491816	-0.177293	-0.311517	-0.008875	0.000272	0.002155
287	1.489875	0.005000	9.454606	1.373400	1.922760	0.492374	-0.176847	-0.311891	-0.014815	0.002364	0.000284
288	1.494875	0.005000	9.452201	1.343438	1.966639	0.492932	-0.176401	-0.312264	-0.010313	0.003933	0.002019
289	1.499875	0.005000	9.521210	1.458935	1.947890	0.493489	-0.175955	-0.312638	-0.007312	0.011500	-0.002010
290	1.504875	0.005000	9.584022	1.501975	1.980923	0.494047	-0.175509	-0.313011	0.010829	0.005220	0.001333
291	1.509875	0.005000	9.590048	1.506608	1.871644	0.494604	-0.175063	-0.313385	0.016532	0.012274	0.011795
292	1.514875	0.005000	9.524649	1.466164	1.933431	0.495162	-0.174616	-0.313758	0.023755	0.005172	0.002421
293	1.519875	0.005000	9.540645	1.496445	2.029830	0.495719	-0.174170	-0.314132	0.019818	0.007533	0.005050
294	1.524875	0.005000	9.575105	1.451880	1.922760	0.496277	-0.173724	-0.314505	0.028157	-0.000927	0.001191
295	1.529875	0.005000	9.600488	1.377605	1.940277	0.496834	-0.173278	-0.314879	0.041611	0.003893	0.013808
296	1.534875	0.005000	9.515180	1.388245	2.064875	0.496864	-0.173209	-0.314747	0.033593	-0.001171	0.004330
297	1.539875	0.005000	9.431955	1.373400	2.015595	0.496641	-0.173321	-0.314374	0.026332	0.003038	0.007436
298	1.544875	0.005000	9.476024	1.431824	1.951972	0.496418	-0.173433	-0.314000	0.031371	-0.000569	0.017074
299	1.549875	0.005000	9.440464	1.310163	1.962000	0.496195	-0.173544	-0.313626	0.033734	-0.010628	0.012484
300	1.554875	0.005000	9.530177	1.402353	2.021813	0.495972	-0.173656	-0.313252	0.014316	-0.013345	0.006253
301	1.559875	0.005000	9.574560	1.409872	2.110655	0.495749	-0.173767	-0.312879	0.005063	-0.013914	0.000005
302	1.564875	0.005000	9.575316	1.373022	1.963135	0.495525	-0.173879	-0.312505	0.003978	-0.008545	0.012880
303	1.569875	0.005000	9.653040	1.334160	1.968063	0.495302	-0.173991	-0.312131	-0.008361	-0.018672	0.014736
304	1.574875	0.005000	9.574560	1.294920	1.893201	0.495079	-0.174102	-0.311758	-0.007464	-0.023288	0.010367
305	1.579875	0.005000	9.567329	1.255680	1.883520	0.494856	-0.174214	-0.311384	-0.014470	-0.022953	0.005326
306	1.584875	0.005000	9.594588	1.226046	1.883520	0.494633	-0.174325	-0.311010	-0.019606	-0.020367	0.008912
307	1.589875	0.005000	9.601804	1.349408	1.910764	0.494410	-0.174437	-0.310636	-0.021733	-0.027519	0.018967
308	1.594875	0.005000	9.442295	1.398095	2.001240	0.494187	-0.174549	-0.310263	-0.025370	-0.022192	0.011086
309	1.599875	0.005000	9.496080	1.351375	1.952379	0.493964	-0.174793	-0.309926	-0.004880	-0.029999	0.013299
310	1.604875	0.005000	9.417570	1.314555	1.824705	0.493741	-0.175351	-0.309677	-0.008975	-0.022260	0.013041
311	1.609875	0.005000	9.569840	1.277660	1.787780	0.493517	-0.175908	-0.309428	-0.004355	-0.016214	0.001850
312	1.614875	0.005000	9.647670	1.339530	1.780670	0.493294	-0.176466	-0.309179	-0.002687	-0.021726	0.003197
313	1.619875	0.005000	9.586732	1.373400	1.841555	0.493071	-0.177024	-0.308929	0.006223	-0.014465	-0.007853
314	1.624875	0.005000	9.613984	1.314632	1.844464	0.492848	-0.177582	-0.308680	0.011688	-0.018700	0.010034
315	1.629875	0.005000	9.574560	1.231138	1.765800	0.492625	-0.178140	-0.308431	0.008431	-0.012576	0.006074
316	1.634875	0.005000	9.540265	1.270516	1.829444	0.492402	-0.178698	-0.308182	0.016463	-0.013350	0.004718
317	1.639875	0.005000	9.501102	1.412640	1.768311	0.492179	-0.179255	-0.307933	0.020136	-0.016468	0.004607
318	1.644875	0.005000	9.535320	1.294799	1.727044	0.491956	-0.179813	-0.307684	0.031162	-0.011542	-0.002886
319	1.649875	0.005000	9.535320	1.329598	1.809602	0.491733	-0.180371	-0.307435	0.026179	-0.017644	0.006848
320	1.654875	0.005000	9.535320	1.364003	1.848978	0.491509	-0.180929	-0.307186	0.031764	-0.010067	0.001076
321	1.659875	0.005000	9.581664	1.230648	1.908552	0.491286	-0.181487	-0.306936	0.046287	-0.009610	0.004580
322	1.664875	0.005000	9.496080	1.294920	1.952481	0.491063	-0.182044	-0.306687	0.021901	-0.013906	-0.002096
323	1.669875	0.005000	9.432334	1.307173	1.922760	0.491250	-0.181783	-0.307353	0.014659	-0.010889	0.004761
324	1.674875	0.005000	9.506064	1.309548	1.883520	0.491473	-0.181448	-0.308101	0.028367	-0.009442	0.007923
325	1.679875	0.005000	9.513098	1.385214	1.962000	0.491696	-0.181113	-0.308848	0.011443	-0.005500	-0.002915
326	1.684875	0.005000	9.456855	1.334160	1.942388	0.491919	-0.180778	-0.309596	0.010385	-0.017128	-0.006696
327	1.689875	0.005000	9.422436	1.395438	1.922760	0.492142	-0.180444	-0.310343	0.006007	-0.007868	-0.002472
328	1.694875	0.005000	9.471630	1.329031	1.829490	0.492365	-0.180109	-0.311091	-0.001659	-0.018841	0.002404
329	1.699875	0.005000	9.549798	1.280442	1.858758	0.492589	-0.179774	-0.311838	-0.003402	-0.015583	-0.004781
330	1.704875	0.005000	9.476384	1.324463	1.834432	0.492812	-0.179440	-0.312586	-0.010224	-0.017748	-0.009246
331	1.709875	0.005000	9.400779	1.365927	1.780746	0.493035	-0.179105	-0.313333	-0.010633	-0.022569	0.008951
332	1.714875	0.005000	9.545485	1.334160	1.799957	0.493258	-0.178770	-0.314080	-0.008657	-0.012839	-0.000979
333	1.719875	0.005000	9.577268	1.334160	1.846988	0.493481	-0.178436	-0.314828	-0.007885	-0.018326	0.011412
334	1.724875	0.005000	9.612847	1.372447	1.922442	0.493704	-0.178101	-0.315575	-0.005248	-0.016333	0.003047
335	1.729875	0.005000	9.496080	1.292838	1.920678	0.493927	-0.177766	-0.316323	-0.013178	-0.017848	-0.002971
336	1.734875	0.005000	9.603998	1.491120	1.814842	0.494030	-0.177612	-0.316398	-0.018720	-0.018440	0.004584
337	1.739875	0.005000	9.464116	1.459156	1.844280	0.494030	-0.177612	-0.315900	-0.007894	-0.015074	0.010916
338	1.744875	0.005000	9.545561	1.431973	1.913094	0.494030	-0.177612	-0.315402	-0.003638	-0.023505	0.001883
339	1.749875	0.005000	9.547361	1.412640	1.949959	0.494030	-0.177612	-0.314904	0.000162	-0.006252	-0.004408
340	1.754875	0.005000	9.613800	1.437449	1.908329	0.494030	-0.177612	-0.314406	0.001987	-0.012829	0.001221
341	1.759875	0.005000	9.613800	1.451880	1.917133	0.494030	-0.177612	-0.313908	0.014480	-0.014029	0.005506
342	1.764875	0.005000	9.653887	1.392596	1.845127	0.494030	-0.177612	-0.313410	0.011048	-0.008354	0.000052
343	1.769875	0.005000	9.656943	1.334160	1.791274	0.494030	-0.177612	-0.312912	0.015882	-0.008128	0.007116
344	1.774875	0.005000	9.511358	1.255680	1.711282	0.494030	-0.177612	-0.312414	0.013730	-0.005185	0.004226
345	1.779875	0.005000	9.469744	1.294920	1.804511	0.494030	-0.177612	-0.311915	0.021029	-0.011290	0.015456
346	1.784875	0.005000	9.545497	1.353045	1.873343	0.494030	-0.177612	-0.311417	0.018238	-0.004689	0.018036
347	1.789875	0.005000	9.653040	1.326398	1.883520	0.494030	-0.177612	-0.310919	0.008120	-0.012236	0.005263
348	1.794875	0.005000	9.619156	1.334160	1.872807	0.494030	-0.177612	-0.310421	0.007067	-0.003565	0.011422
349	1.799875	0.005000	9.577500	1.415580	1.807980	0.494013	-0.177646	-0.309981	-0.004286	-0.011963	0.004943
350	1.804875	0.005000	9.572953	1.451344	1.883520	0.493901	-0.177870	-0.309856	-0.003087	-0.009865	0.014042
351	1.809875	0.005000	9.419461	1.300502	1.920899	0.493790	-0.178093	-0.309732	-0.003092	-0.008428	0.013791
352	1.814875	0.005000	9.496080	1.334160	1.774374	0.493678	-0.178316	-0.309607	-0.005345	-0.014195	-0.001611
353	1.819875	0.005000	9.456840	1.412640	1.890211	0.493566	-0.178539	-0.309482	0.002361	-0.005734	0.017191
354	1.824875	0.005000	9.595588	1.322238	1.904548	0.493455	-0.178762	-0.309358	0.003651	-0.002844	0.012308
355	1.829875	0.005000	9.496080	1.255680	1.945787	0.493343	-0.178985	-0.309233	0.003163	-0.007747	0.014869
356	1.834875	0.005000	9.546121	1.241460	1.919341	0.493232	-0.179208	-0.309109	-0.002790	-0.009774	0.015930
357	1.839875	0.005000	9.551930	1.278310	1.860890	0.493120	-0.179431	-0.308984	0.002700	-0.002017	0.008059
358	1.844875	0.005000	9.494809	1.332889	1.944286	0.493008	-0.179654	-0.308859	0.001130	0.003556	0.013372
359	1.849875	0.005000	9.538830	1.352025	1.922760	0.492897	-0.179878	-0.308735	-0.003078	0.002475	0.005381
360	1.854875	0.005000	9.496080	1.318670	1.859770	0.492785	-0.180101	-0.308610	0.000795	-0.008734	0.021762
361	1.859875	0.005000	9.534463	1.334160	1.805040	0.492674	-0.180324	-0.308486	0.005857	-0.005675	0.004788
362	1.864875	0.005000	9.593039	1.381499	1.893900	0.492562	-0.180547	-0.308361	0.008610	-0.005236	0.011125
363	1.869875	0.005000	9.496080	1.232387	1.962000	0.492364	-0.180857	-0.308526	0.008914	-0.008119	0.006342
364	1.874875	0.005000	9.529762	1.367842	2.063047	0.492141	-0.181191	-0.308775	0.002551	-0.009571	0.001235
365	1.879875	0.005000	9.463145	1.301225	1.916455	0.491918	-0.181526	-0.309025	0.010731	-0.006651	0.013427
366	1.884875	0.005000	9.495354	1.411914	1.805040	0.491695	-0.181861	-0.309274	0.006946	0.001527	0.002587
367	1.889875	0.005000	9.494411	1.410971	1.805040	0.491472	-0.182195	-0.309523	0.013813	-0.002369	0.007725
368	1.894875	0.005000	9.605628	1.408554	1.840194	0.491248	-0.182530	-0.309772	-0.001736	0.001800	0.004196
369	1.899875	0.005000	9.698772	1.412640	1.850772	0.491025	-0.182865	-0.310021	0.009645	-0.007592	0.002119
370	1.904875	0.005000	9.622707	1.325253	1.883520	0.490802	-0.183200	-0.310271	0.010389	0.001755	0.009568
371	1.909875	0.005000	9.692280	1.227754	1.900132	0.490579	-0.183534	-0.310520	0.017232	0.000073	0.001337
372	1.914875	0.005000	9.576474	1.306724	2.014958	0.490356	-0.183869	-0.310769	0.010757	-0.013547	0.006018
373	1.919875	0.005000	9.496080	1.396242	1.945602	0.490133	-0.184204	-0.311018	0.008923	-0.012658	0.002404
374	1.924875	0.005000	9.516532	1.354612	1.883520	0.489910	-0.184538	-0.311267	0.015780	-0.011133	0.008824
375	1.929875	0.005000	9.553397	1.436889	1.919674	0.489687	-0.184873	-0.311517	0.012740	-0.002303	0.004485
376	1.934875	0.005000	9.488214	1.310607	1.907073	0.489640	-0.184854	-0.311618	0.040127	-0.007987	0.002807
377	1.939875	0.005000	9.535320	1.308232	2.027168	0.489863	-0.184296	-0.311493	0.018103	-0.003936	0.002245
378	1.944875	0.005000	9.467762	1.283998	1.951078	0.490086	-0.183739	-0.311369	0.010352	-0.006529	-0.006314
379	1.949875	0.005000	9.535320	1.263856	1.984889	0.490309	-0.183181	-0.311244	0.003281	-0.002472	0.008105
380	1.954875	0.005000	9.474149	1.312229	1.850050	0.490532	-0.182624	-0.311119	0.004757	-0.005274	0.004852
381	1.959875	0.005000	9.427659	1.405934	1.886873	0.490756	-0.182066	-0.310995	0.009939	-0.023709	0.008908
382	1.964875	0.005000	9.418549	1.371502	1.962949	0.490979	-0.181508	-0.310870	0.001869	-0.021645	-0.000501
383	1.969875	0.005000	9.532416	1.370496	1.887877	0.491202	-0.180951	-0.310746	-0.004276	-0.009360	0.005163
384	1.974875	0.005000	9.460713	1.444133	1.879647	0.491425	-0.180393	-0.310621	-0.007726	-0.014754	0.012616
385	1.979875	0.005000	9.496080	1.359320	1.877230	0.491648	-0.179836	-0.310497	-0.010367	-0.005221	0.007284
386	1.984875	0.005000	9.496080	1.334160	1.953304	0.491871	-0.179278	-0.310372	-0.003551	-0.008247	0.002205
387	1.989875	0.005000	9.524209	1.255680	1.748782	0.492094	-0.178721	-0.310248	-0.004954	-0.008484	0.007432
388	1.994875	0.005000	9.574560	1.359881	1.803723	0.492317	-0.178163	-0.310123	-0.000447	-0.019651	0.016947
389	1.999875	0.005000	9.574560	1.444503	1.844280	0.492536	-0.177620	-0.309984	0.000340	-0.014654	0.020698
390	2.004875	0.005000	9.592902	1.436095	1.904418	0.492424	-0.178289	-0.308613	-0.009106	-0.004376	0.000883
391	2.009875	0.005000	9.491579	1.375651	1.768051	0.492313	-0.178959	-0.307242	0.010279	-0.013990	0.007617
392	2.014875	0.005000	9.417600	1.373400	1.876077	0.492201	-0.179629	-0.305871	-0.007562	-0.007207	0.015111
393	2.019875	0.005000	9.378360	1.412640	1.829486	0.492089	-0.180298	-0.304500	0.010433	-0.015709	0.012398
394	2.024875	0.005000	9.535320	1.401506	1.703748	0.491978	-0.180968	-0.303130	0.012598	-0.007083	0.011207
395	2.029875	0.005000	9.574560	1.412640	1.857289	0.491866	-0.181638	-0.301759	0.013259	-0.010430	0.006052
396	2.034875	0.005000	9.623185	1.451880	1.732531	0.491755	-0.182307	-0.300388	0.009356	-0.015034	0.016108
397	2.039875	0.005000	9.417600	1.337726	1.883520	0.491643	-0.182977	-0.299017	-0.002142	-0.007432	0.010593
398	2.044875	0.005000	9.536468	1.335308	1.962000	0.491532	-0.183647	-0.297646	0.004743	-0.011091	0.000014
399	2.049875	0.005000	9.612560	1.411400	2.000000	0.491420	-0.184316	-0.296275	0.005591	-0.010014	0.014103
400	2.054875	0.005000	9.574560	1.341506	1.926433	0.491308	-0.184986	-0.294904	0.010444	-0.008703	0.004212
401	2.059875	0.005000	9.535320	1.282764	1.850358	0.491197	-0.185655	-0.293533	0.015509	-0.007680	0.014311
402	2.064875	0.005000	9.496080	1.233428	1.928025	0.491085	-0.186325	-0.292162	0.004432	-0.001877	0.015123
403	2.069875	0.005000	9.474278	1.255680	1.844280	0.489977	-0.186852	-0.291110	0.000957	-0.002097	0.011647
404	2.074875	0.005000	9.496080	1.190515	1.831669	0.488304	-0.187298	-0.290239	-0.008387	-0.001645	0.002947
405	2.079875	0.005000	9.433605	1.262911	1.844280	0.486631	-0.187744	-0.289367	-0.002187	-0.007185	-0.002499
406	2.084875	0.005000	9.556180	1.350059	1.805040	0.484959	-0.188190	-0.288495	0.002417	0.000824	0.012204
407	2.089875	0.005000	9.514550	1.294920	1.881221	0.483286	-0.188636	-0.287624	-0.008250	0.000164	0.005264
408	2.094875	0.005000	9.535320	1.373400	1.906665	0.481613	-0.189082	-0.286752	-0.002502	0.001789	0.012553
409	2.099875	0.005000	9.535320	1.320449	1.883520	0.479941	-0.189528	-0.285880	-0.008247	0.000109	0.006194
410	2.104875	0.005000	9.546650	1.317581	1.888769	0.478268	-0.189974	-0.285009	-0.009448	-0.006533	0.012740
411	2.109875	0.005000	9.622755	1.442925	1.787129	0.476596	-0.190420	-0.284137	-0.003058	-0.005333	-0.000473
412	2.114875	0.005000	9.535320	1.432184	1.693885	0.474923	-0.190866	-0.283265	-0.006117	0.006671	-0.002780
413	2.119875	0.005000	9.574560	1.369634	1.765800	0.473250	-0.191312	-0.282394	-0.011056	0.003645	0.009226
414	2.124875	0.005000	9.420324	1.367952	1.844280	0.471578	-0.191758	-0.281522	0.004778	0.009460	-0.001854
415	2.129875	0.005000	9.496080	1.254636	1.882476	0.469905	-0.192204	-0.280650	-0.003759	-0.001315	0.008390
416	2.134875	0.005000	9.535320	1.334160	1.798202	0.469025	-0.192367	-0.280348	-0.017034	0.000278	0.012337
417	2.139875	0.005000	9.429354	1.267434	1.838403	0.470475	-0.191698	-0.281718	0.003248	0.004348	0.004232
418	2.144875	0.005000	9.434166	1.373400	1.931043	0.471926	-0.191028	-0.283088	-0.003547	0.001769	0.007764
419	2.149875	0.005000	9.592405	1.412640	1.962000	0.473376	-0.190359	-0.284459	0.001439	0.007722	-0.004742
420	2.154875	0.005000	9.443734	1.373400	1.909654	0.474826	-0.189690	-0.285829	0.004055	0.001138	0.001561
421	2.159875	0.005000	9.456840	1.482982	1.962000	0.476276	-0.189020	-0.287199	0.002303	0.001562	0.001498
422	2.164875	0.005000	9.553503	1.415514	2.061537	0.477727	-0.188351	-0.288570	0.008811	-0.000117	0.011162
423	2.169875	0.005000	9.634358	1.393958	2.098402	0.479177	-0.187682	-0.289940	0.010302	-0.004202	0.004217
424	2.174875	0.005000	9.574560	1.396348	2.056772	0.480627	-0.187012	-0.291310	0.012788	-0.000619	-0.001728
425	2.179875	0.005000	9.482163	1.334160	2.065803	0.482078	-0.186343	-0.292681	0.008506	0.000073	0.012471
426	2.184875	0.005000	9.401414	1.373400	1.950473	0.483528	-0.185674	-0.294051	0.014378	0.004253	0.002861
427	2.189875	0.005000	9.487292	1.443092	1.883520	0.484978	-0.185004	-0.295421	0.011006	-0.004869	0.010068
428	2.194875	0.005000	9.489696	1.379784	2.027711	0.486428	-0.184335	-0.296791	0.002099	-0.000167	0.009974
429	2.199875	0.005000	9.468639	1.455813	2.032614	0.487879	-0.183666	-0.298162	0.010294	0.002023	0.003617
430	2.204875	0.005000	9.612257	1.374943	1.924303	0.488353	-0.183192	-0.299205	0.009790	-0.000447	0.000222
431	2.209875	0.005000	9.612958	1.374242	2.000398	0.488687	-0.182745	-0.300202	0.009475	-0.009350	-0.011171
432	2.214875	0.005000	9.613800	1.448620	2.001240	0.489022	-0.182299	-0.301198	0.009054	-0.014846	0.012358
433	2.219875	0.005000	9.568895	1.367735	2.046145	0.489357	-0.181853	-0.302195	-0.002341	-0.002220	0.011220
434	2.224875	0.005000	9.566119	1.320243	1.978882	0.489691	-0.181407	-0.303192	-0.005349	-0.009782	0.005248
435	2.229875	0.005000	9.552898	1.238102	1.968747	0.490026	-0.180960	-0.304188	0.002735	-0.007717	0.012998
436	2.234875	0.005000	9.600594	1.320954	1.909932	0.490361	-0.180514	-0.305185	-0.004890	-0.017530	-0.000103
437	2.239875	0.005000	9.653040	1.365852	1.844280	0.490695	-0.180068	-0.306182	0.008400	-0.018944	0.001910
438	2.244875	0.005000	9.613800	1.355429	1.940731	0.491030	-0.179622	-0.307178	-0.002714	-0.011883	0.006276
439	2.249875	0.005000	9.593439	1.296402	1.863159	0.491364	-0.179176	-0.308175	-0.000325	-0.017034	0.007803
440	2.254875	0.005000	9.502862	1.232669	1.899749	0.491699	-0.178729	-0.309171	-0.005151	-0.016147	-0.000009
441	2.259875	0.005000	9.507681	1.373400	1.883520	0.492034	-0.178283	-0.310168	0.003512	-0.007686	0.002444
442	2.264875	0.005000	9.523914	1.417662	1.934166	0.492368	-0.177837	-0.311165	-0.001949	-0.023005	0.006850
443	2.269875	0.005000	9.435598	1.294920	1.940758	0.492537	-0.177557	-0.311605	-0.015920	-0.014758	0.002220
444	2.274875	0.005000	9.489497	1.406057	1.981490	0.492537	-0.177445	-0.311481	0.003730	-0.017798	0.012362
445	2.279875	0.005000	9.425859	1.377530	1.809170	0.492537	-0.177333	-0.311356	0.000732	-0.006293	0.005908
446	2.284875	0.005000	9.617279	1.332420	2.001240	0.492537	-0.177222	-0.311231	0.006520	-0.013771	0.008153
447	2.289875	0.005000	9.576489	1.372114	2.001240	0.492537	-0.177110	-0.311107	0.009364	-0.016576	0.017515
448	2.294875	0.005000	9.535320	1.406547	1.934947	0.492537	-0.176999	-0.310982	0.016157	-0.016805	0.007185
449	2.299875	0.005000	9.540784	1.300384	1.922760	0.492537	-0.176887	-0.310858	0.018759	-0.011757	0.012751
450	2.304875	0.005000	9.448596	1.325916	1.869013	0.492537	-0.176776	-0.310733	0.007004	-0.010735	0.007750
451	2.309875	0.005000	9.477409	1.313591	1.922760	0.492537	-0.176664	-0.310608	0.012097	-0.017112	0.008375
452	2.314875	0.005000	9.483388	1.320304	1.948144	0.492537	-0.176552	-0.310484	0.010174	-0.011926	0.007240
453	2.319875	0.005000	9.583031	1.388784	1.828896	0.492537	-0.176441	-0.310359	0.005861	-0.011983	0.005913
454	2.324875	0.005000	9.588643	1.391174	1.944226	0.492537	-0.176329	-0.310235	-0.005018	-0.015679	0.016087
455	2.329875	0.005000	9.574560	1.355368	1.922760	0.492537	-0.176218	-0.310110	-0.004220	-0.012209	-0.006497
456	2.334875	0.005000	9.541159	1.350860	1.805040	0.492511	-0.176171	-0.309971	-0.000700	-0.012916	0.014050
457	2.339875	0.005000	9.492344	1.334160	1.943938	0.492288	-0.176618	-0.309722	0.004722	-0.013666	0.006209
458	2.344875	0.005000	9.535320	1.373400	1.871904	0.492064	-0.177064	-0.309472	0.002055	-0.019558	0.008341
459	2.349875	0.005000	9.496080	1.373400	1.962000	0.491841	-0.177511	-0.309223	0.005640	-0.012487	0.014151
460	2.354875	0.005000	9.470430	1.380195	1.994445	0.491618	-0.177957	-0.308974	0.003921	-0.003438	0.003554
461	2.359875	0.005000	9.578939	1.260059	2.036101	0.491395	-0.178404	-0.308725	0.013540	-0.008362	0.012659
462	2.364875	0.005000	9.531372	1.336134	1.999266	0.491172	-0.178850	-0.308475	0.009598	-0.005332	0.002206
463	2.369875	0.005000	9.495641	1.334599	1.884397	0.490948	-0.179297	-0.308226	0.010693	-0.014646	0.013065
464	2.374875	0.005000	9.389751	1.255680	1.807888	0.490725	-0.179743	-0.307977	-0.001695	-0.014316	0.010424
465	2.379875	0.005000	9.422865	1.255680	1.810305	0.490502	-0.180190	-0.307728	0.007703	-0.017081	0.006216
466	2.384875	0.005000	9.551558	1.318825	1.907425	0.490279	-0.180636	-0.307478	0.010129	-0.019653	0.015467
467	2.389875	0.005000	9.545394	1.344234	1.854354	0.490056	-0.181083	-0.307229	0.008747	-0.010801	-0.000338
468	2.394875	0.005000	9.483592	1.344873	1.910272	0.489832	-0.181529	-0.306980	0.009618	-0.010996	0.016574
469	2.399875	0.005000	9.559372	1.421505	1.811363	0.489609	-0.181976	-0.306731	0.001101	-0.007054	0.012219
470	2.404875	0.005000	9.521872	1.408525	1.805040	0.489967	-0.181675	-0.307038	0.014549	-0.012079	0.001527
471	2.409875	0.005000	9.496080	1.354113	1.804374	0.490525	-0.181117	-0.307536	0.007983	-0.012546	0.003730
472	2.414875	0.005000	9.613800	1.216440	1.849696	0.491082	-0.180560	-0.308034	0.001059	-0.011606	-0.003019
473	2.419875	0.005000	9.613800	1.260006	1.794844	0.491640	-0.180002	-0.308532	0.005034	-0.015133	0.016122
474	2.424875	0.005000	9.589506	1.322013	1.847079	0.492197	-0.179445	-0.309030	0.007327	-0.009941	0.006981
475	2.429875	0.005000	9.564803	1.304677	1.814797	0.492755	-0.178887	-0.309528	0.001332	-0.022205	0.003074
476	2.434875	0.005000	9.503077	1.366403	1.915763	0.493312	-0.178330	-0.310026	-0.009490	-0.013134	0.007977
477	2.439875	0.005000	9.539911	1.251089	1.913577	0.493870	-0.177772	-0.310524	-0.002664	-0.004652	0.000802
478	2.444875	0.005000	9.496080	1.253506	1.879172	0.494427	-0.177215	-0.311022	-0.002138	-0.009390	0.009645
479	2.449875	0.005000	9.574106	1.372492	1.844053	0.494985	-0.176657	-0.311520	-0.007217	-0.016003	0.019271
480	2.454875	0.005000	9.530025	1.302863	1.815631	0.495543	-0.176099	-0.312018	0.005104	-0.008049	0.014138
481	2.459875	0.005000	9.491028	1.368348	1.810092	0.496100	-0.175542	-0.312516	0.005263	-0.000469	0.006145
482	2.464875	0.005000	9.598863	1.373400	1.812508	0.496658	-0.174984	-0.313014	0.009916	-0.007940	-0.002995
483	2.469875	0.005000	9.692280	1.344035	1.805300	0.496975	-0.174787	-0.313333	0.003705	-0.008875	0.007479
484	2.474875	0.005000	9.586839	1.294920	1.949721	0.496863	-0.175234	-0.313333	0.008686	-0.009505	-0.008161
485	2.479875	0.005000	9.599108	1.280228	2.001240	0.496752	-0.175680	-0.313333	0.007488	-0.011916	0.006115
486	2.484875	0.005000	9.535320	1.277554	1.900886	0.496640	-0.176127	-0.313333	0.004942	-0.011451	0.003432
487	2.489875	0.005000	9.535320	1.333918	1.824781	0.496528	-0.176573	-0.313333	-0.000616	-0.007138	0.005622
488	2.494875	0.005000	9.608778	1.429749	1.810062	0.496417	-0.177020	-0.313333	-0.000331	-0.000191	0.008482
489	2.499875	0.005000	9.589294	1.397906	1.829546	0.496305	-0.177466	-0.313333	-0.000602	-0.005085	0.003377
490	2.504875	0.005000	9.432152	1.387952	1.883520	0.496193	-0.177912	-0.313333	0.010549	-0.009514	0.009587
491	2.509875	0.005000	9.476070	1.383015	1.922760	0.496082	-0.178359	-0.313333	0.000539	0.005875	0.000836
492	2.514875	0.005000	9.584967	1.270097	1.929968	0.495970	-0.178805	-0.313333	0.020387	-0.002907	-0.002143
493	2.519875	0.005000	9.471216	1.299712	1.844280	0.495858	-0.179252	-0.313333	0.005171	-0.003433	0.005694
494	2.524875	0.005000	9.456840	1.294920	1.920373	0.495747	-0.179698	-0.313333	0.006052	-0.004016	0.006556
495	2.529875	0.005000	9.496050	1.373339	1.883520	0.495635	-0.180145	-0.313333	0.003242	-0.002088	0.018784
496	2.534875	0.005000	9.611395	1.334160	1.841875	0.495524	-0.180591	-0.313333	0.006079	-0.001770	0.008716
497	2.539875	0.005000	9.466431	1.442289	1.883520	0.495412	-0.180267	-0.313333	0.009761	-0.010594	0.005092
498	2.544875	0.005000	9.520806	1.419897	1.851537	0.495300	-0.179932	-0.313333	0.002555	-0.015130	0.000484
499	2.549875	0.005000	9.544992	1.324488	1.942655	0.495189	-0.179597	-0.313333	0.002243	-0.007562	0.006338
500	2.554875	0.005000	9.468920	1.322080	1.910680	0.495077	-0.179262	-0.313333	-0.000245	-0.016359	0.009354
501	2.559875	0.005000	9.456840	1.334160	1.858773	0.494966	-0.178927	-0.313333	-0.002569	-0.012303	0.000595
502	2.564875	0.005000	9.496080	1.278018	1.855747	0.494854	-0.178592	-0.313333	0.003360	-0.008623	0.016196
503	2.569875	0.005000	9.555254	1.451880	1.942694	0.494743	-0.178258	-0.313333	-0.002539	0.007040	0.010691
504	2.574875	0.005000	9.574560	1.360678	1.848879	0.494631	-0.177923	-0.313333	-0.006022	-0.012042	0.014762
505	2.579875	0.005000	9.505459	1.349091	1.810592	0.494519	-0.177588	-0.313333	-0.000714	0.000832	0.006198
506	2.584875	0.005000	9.483524	1.398511	1.922760	0.494408	-0.177253	-0.313333	-0.000956	-0.005369	-0.000326
507	2.589875	0.005000	9.437931	1.510029	1.991075	0.494296	-0.176918	-0.313333	0.006833	-0.003988	0.011786
508	2.594875	0.005000	9.464250	1.476300	1.812450	0.494185	-0.176583	-0.313333	0.007949	-0.004075	0.011574
509	2.599875	0.005000	9.461844	1.436867	1.893529	0.494073	-0.176248	-0.313333	0.012801	-0.009998	0.007830
510	2.604875	0.005000	9.456840	1.328985	1.927935	0.493893	-0.176256	-0.313409	0.003993	-0.000166	0.003102
511	2.609875	0.005000	9.495896	1.295104	1.962000	0.493670	-0.176479	-0.313534	0.009977	-0.014225	0.006167
512	2.614875	0.005000	9.456840	1.223066	1.924969	0.493447	-0.176702	-0.313659	0.000747	-0.009068	0.007039
513	2.619875	0.005000	9.530681	1.364122	1.883520	0.493224	-0.176925	-0.313783	0.002439	-0.012672	-0.000834
514	2.624875	0.005000	9.535320	1.301975	1.869410	0.493001	-0.177148	-0.313908	0.001769	-0.011654	0.005951
515	2.629875	0.005000	9.535320	1.334160	1.933615	0.492778	-0.177371	-0.314032	-0.001227	-0.003203	-0.002544
516	2.634875	0.005000	9.535320	1.307113	1.895713	0.492554	-0.177595	-0.314157	-0.000372	-0.010385	0.005737
517	2.639875	0.005000	9.628383	1.334160	1.844280	0.492331	-0.177818	-0.314282	0.009429	-0.002198	0.012821
518	2.644875	0.005000	9.535320	1.373400	1.866562	0.492108	-0.178041	-0.314406	0.023904	-0.013073	0.005234
519	2.649875	0.005000	9.515972	1.334160	1.863628	0.491885	-0.178264	-0.314531	0.008165	-0.007507	0.003765
520	2.654875	0.005000	9.535320	1.294920	1.827025	0.491662	-0.178487	-0.314655	0.001952	-0.007635	-0.004210
521	2.659875	0.005000	9.574560	1.358555	1.819885	0.491439	-0.178710	-0.314780	0.010089	-0.013866	0.010237
522	2.664875	0.005000	9.560205	1.410727	1.803127	0.491216	-0.178933	-0.314905	0.005574	-0.008438	-0.001260
523	2.669875	0.005000	9.564652	1.392823	1.912852	0.491097	-0.179104	-0.314942	-0.003889	-0.010286	-0.000595
524	2.674875	0.005000	9.574560	1.309987	1.883520	0.491320	-0.179104	-0.314692	0.000916	-0.007614	0.000546
525	2.679875	0.005000	9.574560	1.373400	1.927903	0.491544	-0.179104	-0.314443	-0.001036	-0.007211	-0.002745
526	2.684875	0.005000	9.490543	1.415408	1.883520	0.491767	-0.179104	-0.314194	0.003050	-0.009886	0.014686
527	2.689875	0.005000	9.418356	1.373022	1.845036	0.491990	-0.179104	-0.313945	0.004855	-0.007615	0.001504
528	2.694875	0.005000	9.569629	1.297386	1.849211	0.492213	-0.179104	-0.313696	0.008297	-0.014763	0.011352
529	2.699875	0.005000	9.560038	1.329319	1.873839	0.492436	-0.179104	-0.313447	0.009088	-0.007611	0.006505
530	2.704875	0.005000	9.528089	1.294920	1.929991	0.492659	-0.179104	-0.313198	0.002805	-0.006134	0.008517
531	2.709875	0.005000	9.554532	1.304526	1.913154	0.492882	-0.179104	-0.312949	0.002629	-0.011289	0.006426
532	2.714875	0.005000	9.532068	1.318912	1.856276	0.493105	-0.179104	-0.312699	0.004748	-0.006733	-0.002868
533	2.719875	0.005000	9.520775	1.255680	1.908215	0.493328	-0.179104	-0.312450	0.004598	-0.017763	0.003076
534	2.724875	0.005000	9.412274	1.311877	1.900477	0.493552	-0.179104	-0.312201	-0.000603	-0.013149	0.007149
535	2.729875	0.005000	9.378360	1.255680	2.001240	0.493775	-0.179104	-0.311952	0.012995	-0.009928	0.012143
536	2.734875	0.005000	9.535320	1.360254	1.909614	0.493998	-0.179104	-0.311703	0.014114	-0.011907	0.009726
537	2.739875	0.005000	9.520270	1.300830	1.928670	0.494030	-0.179104	-0.311667	0.019403	-0.018595	0.006683
538	2.744875	0.005000	9.549277	1.464521	1.870879	0.494030	-0.179104	-0.311667	0.007151	-0.018969	0.011207
539	2.749875	0.005000	9.448282	1.392186	1.902306	0.494030	-0.179104	-0.311667	0.005085	-0.012221	0.010295
540	2.754875	0.005000	9.456840	1.334160	1.875696	0.494030	-0.179104	-0.311667	0.006626	-0.011511	0.007164
541	2.759875	0.005000	9.428310	1.310985	1.810395	0.494030	-0.179104	-0.311667	-0.000664	-0.013305	0.006257
542	2.764875	0.005000	9.574560	1.367470	1.959035	0.494030	-0.179104	-0.311667	0.009322	-0.014772	0.005911
543	2.769875	0.005000	9.458020	1.334160	1.921580	0.494030	-0.179104	-0.311667	0.003026	-0.020147	0.001578
544	2.774875	0.005000	9.460482	1.334160	1.919118	0.494030	-0.179104	-0.311667	-0.001503	-0.007473	0.011053
545	2.779875	0.005000	9.491854	1.259906	1.922760	0.494030	-0.179104	-0.311667	0.001351	-0.013894	0.003099
546	2.784875	0.005000	9.522036	1.255680	1.922760	0.494030	-0.179104	-0.311667	0.003157	-0.004699	0.000916
547	2.789875	0.005000	9.565151	1.324751	1.952591	0.494030	-0.179104	-0.311667	0.003435	-0.007497	0.001598
548	2.794875	0.005000	9.496080	1.322376	1.922760	0.494030	-0.179104	-0.311667	-0.000967	-0.009109	0.005879
549	2.799875	0.005000	9.467732	1.384292	1.947826	0.494030	-0.179104	-0.311667	-0.003038	-0.015136	-0.004590
550	2.804875	0.005000	9.450698	1.396091	1.877378	0.493924	-0.178998	-0.311786	-0.016278	-0.013190	0.010919
551	2.809875	0.005000	9.456840	1.314999	1.962000	0.493700	-0.178774	-0.312035	-0.004496	-0.008822	0.009437
552	2.814875	0.005000	9.452936	1.287112	1.861948	0.493477	-0.178551	-0.312284	0.003380	-0.006768	0.011448
553	2.819875	0.005000	9.480822	1.373400	1.829022	0.493254	-0.178328	-0.312534	-0.003353	-0.007898	0.012895
554	2.824875	0.005000	9.496080	1.373400	1.948450	0.493031	-0.178105	-0.312783	0.000721	-0.015304	0.003971
555	2.829875	0.005000	9.469787	1.391765	1.862645	0.492807	-0.177881	-0.313032	0.003810	-0.014337	0.002155
556	2.834875	0.005000	9.527393	1.286993	1.765800	0.492584	-0.177658	-0.313281	0.000096	-0.012564	0.005525
557	2.839875	0.005000	9.546423	1.306023	1.776903	0.492361	-0.177435	-0.313531	0.006543	-0.009618	0.001330
558	2.844875	0.005000	9.571398	1.373400	1.768962	0.492138	-0.177212	-0.313780	0.008611	-0.004694	0.001549
559	2.849875	0.005000	9.418387	1.294133	1.805827	0.491915	-0.176989	-0.314029	0.013287	-0.010147	0.001070
560	2.854875	0.005000	9.531205	1.330045	1.918645	0.491691	-0.176765	-0.314278	0.015649	-0.013197	0.008561
561	2.859875	0.005000	9.561263	1.368968	1.892385	0.491468	-0.176542	-0.314527	0.010701	-0.001355	0.010406
562	2.864875	0.005000	9.574560	1.412640	1.922760	0.491245	-0.176319	-0.314777	0.007683	-0.005704	0.017114
563	2.869875	0.005000	9.574560	1.403443	1.980395	0.491022	-0.176200	-0.314857	0.001029	-0.001520	0.006890
564	2.874875	0.005000	9.519255	1.373400	1.895107	0.490799	-0.176981	-0.313487	0.012908	-0.008504	0.010255
565	2.879875	0.005000	9.532673	1.415287	1.962000	0.490576	-0.177762	-0.312117	-0.000715	-0.009374	0.000193
566	2.884875	0.005000	9.558016	1.406488	1.850432	0.490352	-0.178543	-0.310746	0.001543	-0.009052	-0.000789
567	2.889875	0.005000	9.594846	1.313874	1.842948	0.490129	-0.179324	-0.309376	0.002525	-0.008089	0.004131
568	2.894875	0.005000	9.520934	1.352035	1.837301	0.489906	-0.180105	-0.308006	0.006544	-0.006326	0.010414
569	2.899875	0.005000	9.550783	1.349623	1.907297	0.489683	-0.180886	-0.306636	0.020961	-0.011896	0.013045
570	2.904875	0.005000	9.483026	1.464934	1.857334	0.489460	-0.181667	-0.305265	0.008492	-0.008304	0.001738
571	2.909875	0.005000	9.506721	1.344801	1.951359	0.489237	-0.182448	-0.303895	0.009629	-0.005462	0.004943
572	2.914875	0.005000	9.591027	1.325926	1.914526	0.489014	-0.183229	-0.302525	0.000570	0.003387	0.006334
573	2.919875	0.005000	9.568812	1.317913	1.883520	0.488791	-0.184010	-0.301154	0.000824	-0.002557	-0.003355
574	2.924875	0.005000	9.607053	1.337533	1.876773	0.488568	-0.184791	-0.299784	0.006762	-0.009913	0.008427
575	2.929875	0.005000	9.574560	1.335143	1.768750	0.488344	-0.185571	-0.298414	0.003182	-0.006250	0.000630
576	2.934875	0.005000	9.536729	1.373400	2.072677	0.488121	-0.186352	-0.297044	0.009486	-0.012828	0.006507
577	2.939875	0.005000	9.531494	1.369574	1.820344	0.488464	-0.186001	-0.297390	0.003681	-0.005498	0.004539
578	2.944875	0.005000	9.613800	1.373400	1.916529	0.489022	-0.185220	-0.298386	-0.002894	-0.010085	0.001734
579	2.949875	0.005000	9.613800	1.382401	1.910522	0.489580	-0.184439	-0.299383	-0.003940	-0.010025	0.005300
580	2.954875	0.005000	9.563184	1.362024	1.849393	0.490138	-0.183658	-0.300379	-0.004001	-0.006520	0.001683
581	2.959875	0.005000	9.639274	1.502828	1.869754	0.490695	-0.182877	-0.301376	0.004622	-0.012840	0.013524
582	2.964875	0.005000	9.567601	1.451880	1.945859	0.491253	-0.182096	-0.302373	0.010844	-0.003147	0.005285
583	2.969875	0.005000	9.477549	1.414818	1.943469	0.491811	-0.181315	-0.303369	0.005841	-0.006590	0.007570
584	2.974875	0.005000	9.498652	1.451880	1.922760	0.492369	-0.180534	-0.304366	-0.001556	-0.005091	0.021599
585	2.979875	0.005000	9.566663	1.373400	1.938432	0.492926	-0.179753	-0.305362	0.007314	0.000401	0.005159
586	2.984875	0.005000	9.561301	1.360677	1.883520	0.493484	-0.178972	-0.306359	0.008495	-0.005990	0.014681
587	2.989875	0.005000	9.557021	1.284069	1.911909	0.494042	-0.178191	-0.307355	0.011187	-0.003165	-0.002555
588	2.994875	0.005000	9.661375	1.255680	1.813375	0.494600	-0.177410	-0.308352	0.009533	-0.007042	0.006229
589	2.999875	0.005000	9.692280	1.328200	1.889480	0.495157	-0.176629	-0.309349	0.002167	-0.008082	0.003290
590	3.004875	0.005000	9.653040	1.334160	1.883520	0.494710	-0.176931	-0.309223	-0.001292	-0.010196	0.009120
591	3.009875	0.005000	9.572170	1.255680	1.884715	0.492368	-0.179273	-0.306981	0.014541	-0.006362	0.014024
592	3.014875	0.005000	9.496080	1.217649	1.808667	0.490025	-0.181616	-0.304739	0.004310	-0.002498	0.003682
593	3.019875	0.005000	9.499693	1.362560	1.922760	0.487682	-0.183959	-0.302496	0.016256	-0.020839	0.004208
594	3.024875	0.005000	9.529290	1.340190	1.934820	0.485340	-0.186302	-0.300254	0.012278	-0.008331	0.012583
595	3.029875	0.005000	9.526516	1.273288	1.922760	0.482997	-0.188644	-0.298012	0.007958	-0.013180	-0.000282
596	3.034875	0.005000	9.602621	1.362221	1.894699	0.480654	-0.190987	-0.295769	0.001288	-0.010771	0.012023
597	3.039875	0.005000	9.600246	1.296342	1.936314	0.478312	-0.193330	-0.293527	0.007458	-0.004934	0.003356
598	3.044875	0.005000	9.519376	1.396696	1.899464	0.475969	-0.195673	-0.291285	0.001530	-0.013167	0.015823
599	3.049875	0.005000	9.517001	1.391719	1.781517	0.473626	-0.198016	-0.289042	0.002904	-0.007239	0.001563
600	3.054875	0.005000	9.537498	1.352691	1.883520	0.471283	-0.200358	-0.286800	0.006290	-0.013654	-0.000999
601	3.059875	0.005000	9.519164	1.294920	1.890448	0.468941	-0.202701	-0.284558	-0.001686	-0.008534	0.000324
602	3.064875	0.005000	9.431068	1.359932	1.909292	0.466598	-0.205044	-0.282315	-0.001424	-0.011456	0.004490
603	3.069875	0.005000	9.478948	1.294920	1.855334	0.464255	-0.207387	-0.280073	0.012014	-0.010793	0.014558
604	3.074875	0.005000	9.504727	1.255680	1.931407	0.465799	-0.205843	-0.281447	0.011833	-0.002500	0.006007
605	3.079875	0.005000	9.463071	1.327929	1.935222	0.467473	-0.204169	-0.282942	0.012804	-0.011969	0.013980
606	3.084875	0.005000	9.499906	1.330334	1.934238	0.469147	-0.202495	-0.284438	0.005498	-0.008153	0.015242
607	3.089875	0.005000	9.573151	1.373400	1.884929	0.470821	-0.200821	-0.285934	0.006063	-0.018999	0.006147
608	3.094875	0.005000	9.535320	1.373400	1.807990	0.472495	-0.199147	-0.287429	0.014325	-0.017453	0.010727
609	3.099875	0.005000	9.528494	1.298333	1.844280	0.474169	-0.197473	-0.288925	0.007253	-0.007149	0.001056
610	3.104875	0.005000	9.546956	1.261498	1.838462	0.475843	-0.195799	-0.290420	0.004445	-0.010335	0.003382
611	3.109875	0.005000	9.526728	1.373400	1.931352	0.477518	-0.194124	-0.291916	0.002107	-0.004108	0.007886
612	3.114875	0.005000	9.546302	1.356125	1.922760	0.479192	-0.192450	-0.293411	0.007305	-0.011626	0.002476
613	3.119875	0.005000	9.587085	1.386757	1.910235	0.480866	-0.190776	-0.294907	0.003360	-0.011809	0.009510
614	3.124875	0.005000	9.496080	1.365398	1.883520	0.482540	-0.189102	-0.296403	0.008678	-0.006612	0.000338
615	3.129875	0.005000	9.613800	1.334160	1.765800	0.484214	-0.187428	-0.297898	0.010858	-0.013084	0.003796
616	3.134875	0.005000	9.593055	1.373400	1.899764	0.485888	-0.185754	-0.299394	0.003240	-0.006306	-0.000425
617	3.139875	0.005000	9.535320	1.373400	1.890591	0.486368	-0.185009	-0.300222	-0.002222	-0.003287	0.001535
618	3.144875	0.005000	9.600128	1.334160	1.830608	0.486033	-0.184897	-0.300596	0.011194	0.002046	0.001805
619	3.149875	0.005000	9.524186	1.266814	1.816174	0.485699	-0.184785	-0.300970	0.007330	-0.006323	0.003146
620	3.154875	0.005000	9.557073	1.342904	1.853024	0.485364	-0.184674	-0.301343	0.001547	-0.007917	0.019153
621	3.159875	0.005000	9.496080	1.288551	1.844280	0.485029	-0.184562	-0.301717	0.011292	-0.010237	-0.005646
622	3.164875	0.005000	9.484145	1.251702	1.887498	0.484695	-0.184451	-0.302091	0.009992	-0.014497	-0.000766
623	3.169875	0.005000	9.459137	1.298365	1.960852	0.484360	-0.184339	-0.302465	0.006041	-0.005360	0.003199
624	3.174875	0.005000	9.535320	1.450640	1.922760	0.484026	-0.184227	-0.302838	0.001418	-0.004761	0.003270
625	3.179875	0.005000	9.581821	1.483859	1.851541	0.483691	-0.184116	-0.303212	0.001412	-0.009759	0.005690
626	3.184875	0.005000	9.607794	1.312937	1.823057	0.483356	-0.184004	-0.303586	-0.000671	-0.010091	0.004033
627	3.189875	0.005000	9.644644	1.381796	1.905969	0.483022	-0.183893	-0.303959	0.002461	-0.014066	0.005874
628	3.194875	0.005000	9.556861	1.462651	1.894291	0.482687	-0.183781	-0.304333	0.003281	-0.004918	0.006277
629	3.199875	0.005000	9.548481	1.347321	1.752881	0.482352	-0.183670	-0.304707	-0.002660	0.002847	0.007133
630	3.204875	0.005000	9.558836	1.365607	1.828556	0.482234	-0.183606	-0.305000	-0.017759	-0.010741	0.012437
631	3.209875	0.005000	9.532351	1.334160	1.922760	0.482904	-0.183718	-0.305000	0.001445	-0.002328	0.002204
632	3.214875	0.005000	9.535320	1.373400	1.960147	0.483573	-0.183829	-0.305000	0.004888	-0.009020	0.013510
633	3.219875	0.005000	9.479796	1.396356	1.929433	0.484242	-0.183941	-0.305000	-0.000906	-0.011605	0.001538
634	3.224875	0.005000	9.498453	1.410267	1.899764	0.484912	-0.184052	-0.305000	0.012258	-0.007654	0.006568
635	3.229875	0.005000	9.519015	1.361933	1.966838	0.485581	-0.184164	-0.305000	0.005121	-0.002553	0.002653
636	3.234875	0.005000	9.535320	1.403580	1.913700	0.486250	-0.184276	-0.305000	0.007572	-0.011772	0.004685
637	3.239875	0.005000	9.574560	1.255680	1.785496	0.486920	-0.184387	-0.305000	0.006227	-0.008503	0.000089
638	3.244875	0.005000	9.566081	1.224919	1.879281	0.487589	-0.184499	-0.305000	0.002922	-0.005571	-0.000451
639	3.249875	0.005000	9.535320	1.335960	1.846080	0.488258	-0.184610	-0.305000	0.002832	-0.005165	0.002999
640	3.254875	0.005000	9.535320	1.373400	1.844862	0.488928	-0.184722	-0.305000	0.000816	-0.005477	0.002188
641	3.259875	0.005000	9.502079	1.300919	1.925760	0.489597	-0.184834	-0.305000	0.005966	-0.007256	0.002468
642	3.264875	0.005000	9.496080	1.334160	1.945787	0.490266	-0.184945	-0.305000	0.009333	-0.001127	0.003468
643	3.269875	0.005000	9.566376	1.435512	1.852464	0.490936	-0.185057	-0.305000	0.007497	-0.005567	-0.005761
644	3.274875	0.005000	9.674188	1.344734	1.765800	0.491232	-0.184608	-0.305000	0.008237	-0.011130	0.000259
645	3.279875	0.005000	9.443498	1.347502	1.883520	0.491455	-0.184050	-0.305000	0.001105	-0.005850	-0.000328
646	3.284875	0.005000	9.354459	1.380177	1.859619	0.491678	-0.183493	-0.305000	0.008846	-0.012504	0.005183
647	3.289875	0.005000	9.460224	1.373400	1.965384	0.491901	-0.182935	-0.305000	-0.001652	-0.006771	-0.002520
648	3.294875	0.005000	9.474302	1.353061	1.983778	0.492124	-0.182377	-0.305000	-0.002365	-0.009162	-0.004857
649	3.299875	0.005000	9.512569	1.373400	1.827791	0.492347	-0.181819	-0.305000	0.003072	-0.008096	0.003342
650	3.304875	0.005000	9.524240	1.373400	1.805040	0.492570	-0.181261	-0.305000	0.004381	-0.004214	0.006178
651	3.309875	0.005000	9.574560	1.334160	1.781986	0.492794	-0.180703	-0.305000	0.002068	-0.014769	0.014112
652	3.314875	0.005000	9.484296	1.294920	1.784104	0.493017	-0.180146	-0.305000	0.000757	-0.003647	0.004933
653	3.319875	0.005000	9.653040	1.412640	1.929537	0.493240	-0.179588	-0.305000	0.005584	-0.010090	-0.004281
654	3.324875	0.005000	9.570173	1.417027	1.957613	0.493463	-0.179030	-0.305000	0.005249	-0.010559	0.004631
655	3.329875	0.005000	9.619836	1.332148	1.918736	0.493686	-0.178472	-0.305000	0.004863	-0.003757	0.001527
656	3.334875	0.005000	9.731520	1.411492	1.883137	0.493909	-0.177914	-0.305000	0.005241	-0.004394	0.012947
657	3.339875	0.005000	9.501653	1.331374	1.962000	0.493979	-0.177765	-0.305399	0.001637	0.000959	0.005226
658	3.344875	0.005000	9.496080	1.378997	1.945209	0.493867	-0.178100	-0.306271	0.011859	0.000265	0.001083
659	3.349875	0.005000	9.566573	1.381387	1.954013	0.493756	-0.178435	-0.307143	0.009463	0.007577	0.004799
660	3.354875	0.005000	9.593076	1.423002	1.972362	0.493644	-0.178769	-0.308016	0.005905	-0.009237	-0.002515
661	3.359875	0.005000	9.574560	1.334160	1.922760	0.493533	-0.179104	-0.308888	0.009360	-0.010972	0.010469
662	3.364875	0.005000	9.605180	1.397330	1.883520	0.493421	-0.179439	-0.309760	0.008728	-0.006961	0.003259
663	3.369875	0.005000	9.574560	1.312891	2.047075	0.493309	-0.179774	-0.310632	0.011345	-0.014167	-0.001556
664	3.374875	0.005000	9.517924	1.335642	2.002722	0.493198	-0.180108	-0.311504	0.002443	-0.001339	-0.000858
665	3.379875	0.005000	9.529088	1.327928	1.945496	0.493086	-0.180443	-0.312376	0.003384	-0.008206	0.001059
666	3.384875	0.005000	9.496080	1.345761	1.922760	0.492975	-0.180778	-0.313248	0.006046	-0.010543	0.003117
667	3.389875	0.005000	9.574560	1.294920	1.939188	0.492863	-0.181112	-0.314120	0.000683	-0.010669	-0.002628
668	3.394875	0.005000	9.496080	1.355402	1.922760	0.492751	-0.181447	-0.314992	0.000370	-0.010029	0.008807
669	3.399875	0.005000	9.496080	1.373400	1.844280	0.492640	-0.181782	-0.315864	-0.004777	-0.004035	0.003839
670	3.404875	0.005000	9.570430	1.334160	1.848410	0.492546	-0.182090	-0.316608	-0.000355	-0.005773	0.013692
671	3.409875	0.005000	9.496080	1.410900	1.878301	0.492657	-0.182090	-0.315860	0.003404	-0.008568	0.013581
672	3.414875	0.005000	9.418886	1.334803	1.881591	0.492769	-0.182090	-0.315112	0.002806	-0.006370	0.013147
673	3.419875	0.005000	9.529227	1.304060	1.762753	0.492881	-0.182090	-0.314365	0.002736	-0.005865	0.013968
674	3.424875	0.005000	9.602873	1.407176	1.878056	0.492992	-0.182090	-0.313617	0.001722	0.000645	-0.001720
675	3.429875	0.005000	9.519581	1.334160	2.032611	0.493104	-0.182090	-0.312869	0.010347	-0.015468	0.002917
676	3.434875	0.005000	9.524701	1.373400	1.940761	0.493216	-0.182090	-0.312121	0.002218	-0.005004	0.010614
677	3.439875	0.005000	9.561339	1.373400	1.948991	0.493327	-0.182090	-0.311373	0.007259	-0.007030	0.008383
678	3.444875	0.005000	9.519936	1.349544	1.914289	0.493439	-0.182090	-0.310626	0.009195	-0.003743	0.010690
679	3.449875	0.005000	9.553094	1.355626	1.840589	0.493551	-0.182090	-0.309878	0.015078	-0.001204	0.003201
680	3.454875	0.005000	9.497139	1.412640	1.863371	0.493662	-0.182090	-0.309130	0.009582	0.000448	0.008502
681	3.459875	0.005000	9.440140	1.418479	1.821740	0.493774	-0.182090	-0.308382	0.011836	0.001568	0.001109
682	3.464875	0.005000	9.496080	1.402051	1.858605	0.493886	-0.182090	-0.307634	0.007589	-0.008952	0.006639
683	3.469875	0.005000	9.371136	1.361784	1.895136	0.493997	-0.182090	-0.306887	0.008019	-0.011818	0.009006
684	3.474875	0.005000	9.447639	1.274083	1.823443	0.494030	-0.181775	-0.306931	0.022732	-0.006895	0.001084
685	3.479875	0.005000	9.535320	1.340955	1.922760	0.494030	-0.181329	-0.307305	0.017468	-0.013991	0.006799
686	3.484875	0.005000	9.535320	1.408261	1.996861	0.494030	-0.180882	-0.307678	0.010358	-0.009444	0.015642
687	3.489875	0.005000	9.458814	1.373400	1.881546	0.494030	-0.180436	-0.308052	0.004136	0.000052	0.016993
688	3.494875	0.005000	9.496080	1.412201	1.844280	0.494030	-0.179990	-0.308426	-0.002790	-0.005091	0.006149
689	3.499875	0.005000	9.532472	1.415488	1.810735	0.494030	-0.179543	-0.308800	0.008572	-0.000305	0.006434
690	3.504875	0.005000	9.506609	1.339425	1.872991	0.494030	-0.179097	-0.309173	0.010358	-0.006065	-0.002628
691	3.509875	0.005000	9.583130	1.397305	1.922760	0.494030	-0.178651	-0.309547	0.002139	-0.006266	0.000614
692	3.514875	0.005000	9.574560	1.355005	1.972423	0.494030	-0.178204	-0.309921	0.009889	-0.013684	0.012552
693	3.519875	0.005000	9.535320	1.268478	1.935558	0.494030	-0.177758	-0.310294	0.001544	-0.009173	0.005777
694	3.524875	0.005000	9.487215	1.240492	1.835415	0.494030	-0.177312	-0.310668	0.014365	-0.006562	0.010962
695	3.529875	0.005000	9.496080	1.377515	1.826717	0.494030	-0.176866	-0.311042	0.006923	-0.014559	0.002574
696	3.534875	0.005000	9.593614	1.430561	1.982186	0.494030	-0.176419	-0.311416	0.004786	-0.008297	0.007626
697	3.539875	0.005000	9.603113	1.435238	1.906118	0.493957	-0.176265	-0.311585	-0.004696	-0.013815	0.014648
698	3.544875	0.005000	9.431833	1.387633	1.922760	0.493734	-0.176712	-0.311336	0.012879	-0.003443	0.003736
699	3.549875	0.005000	9.468659	1.412640	1.907159	0.493511	-0.177158	-0.311087	0.006395	-0.005319	0.009342
700	3.554875	0.005000	9.544732	1.433056	1.913348	0.493287	-0.177605	-0.310837	0.006369	-0.002775	0.000878
701	3.559875	0.005000	9.535320	1.341073	1.890433	0.493064	-0.178051	-0.310588	0.004720	0.001490	0.005702
702	3.564875	0.005000	9.496080	1.486582	1.927298	0.492841	-0.178498	-0.310339	0.004706	-0.006453	0.013529
703	3.569875	0.005000	9.498228	1.488972	1.999092	0.492618	-0.178944	-0.310090	0.008648	-0.008501	0.001437
704	3.574875	0.005000	9.612408	1.413336	1.962000	0.492394	-0.179391	-0.309840	0.009315	-0.014966	0.011300
705	3.579875	0.005000	9.493009	1.376471	1.886591	0.492171	-0.179837	-0.309591	-0.000884	-0.011818	0.001621
706	3.584875	0.005000	9.636657	1.378861	1.815962	0.491948	-0.180284	-0.309342	0.009905	-0.012032	0.011050
707	3.589875	0.005000	9.574560	1.373400	1.907088	0.491725	-0.180730	-0.309092	0.003716	-0.005255	-0.002392
708	3.594875	0.005000	9.514868	1.276132	1.962000	0.491502	-0.181177	-0.308843	0.001943	-0.011722	0.002198
709	3.599875	0.005000	9.521587	1.308653	1.868807	0.491278	-0.181623	-0.308594	0.007072	-0.008614	0.005015
710	3.604875	0.005000	9.544246	1.343086	1.898677	0.491055	-0.182070	-0.308344	0.012571	-0.004773	-0.000535
711	3.609875	0.005000	9.617902	1.386868	1.844280	0.491258	-0.181877	-0.308333	0.007983	-0.006599	0.003956
712	3.614875	0.005000	9.575280	1.314900	1.844280	0.491481	-0.181654	-0.308333	0.001657	-0.006472	0.007704
713	3.619875	0.005000	9.479425	1.367470	1.838350	0.491704	-0.181430	-0.308333	0.003116	-0.007107	0.011850
714	3.624875	0.005000	9.510345	1.409085	1.858545	0.491928	-0.181207	-0.308333	0.002138	-0.015357	0.003686
715	3.629875	0.005000	9.629260	1.294920	1.856170	0.492151	-0.180984	-0.308333	-0.001554	-0.009663	-0.001054
716	3.634875	0.005000	9.467580	1.382900	1.845520	0.492374	-0.180760	-0.308333	0.007367	-0.009773	0.006835
717	3.639875	0.005000	9.431850	1.394775	1.733685	0.492597	-0.180537	-0.308333	-0.011181	-0.005697	0.002792
718	3.644875	0.005000	9.504742	1.486789	1.835618	0.492821	-0.180314	-0.308333	-0.002919	-0.011653	0.011688
719	3.649875	0.005000	9.572646	1.371486	1.769628	0.493044	-0.180091	-0.308333	0.002718	-0.003929	0.009591
720	3.654875	0.005000	9.457808	1.256648	1.844280	0.493267	-0.179867	-0.308333	-0.006938	-0.008397	-0.003870
721	3.659875	0.005000	9.459714	1.297794	1.844280	0.493490	-0.179644	-0.308333	0.000647	-0.004625	0.011038
722	3.664875	0.005000	9.383673	1.373400	1.820978	0.493713	-0.179421	-0.308333	0.002847	0.001958	0.011598
723	3.669875	0.005000	9.535320	1.334160	1.836551	0.493937	-0.179197	-0.308333	-0.005278	-0.012949	0.001976
724	3.674875	0.005000	9.583394	1.284785	1.903791	0.493770	-0.179299	-0.308116	-0.008831	0.003944	0.001073
725	3.679875	0.005000	9.469389	1.348301	1.949451	0.493324	-0.179633	-0.307742	0.004847	-0.008678	0.008153
726	3.684875	0.005000	9.472088	1.364656	1.883520	0.492878	-0.179968	-0.307368	0.006677	-0.009204	0.017120
727	3.689875	0.005000	9.456840	1.334160	1.791410	0.492432	-0.180303	-0.306994	0.002844	-0.006925	0.001887
728	3.694875	0.005000	9.534533	1.335733	1.845067	0.491986	-0.180638	-0.306621	0.003067	-0.007735	0.006850
729	3.699875	0.005000	9.479228	1.351012	1.805040	0.491539	-0.180972	-0.306247	0.005511	-0.011177	0.012173
730	3.704875	0.005000	9.491890	1.323873	1.858757	0.491093	-0.181307	-0.305873	0.005629	-0.009399	0.012291
731	3.709875	0.005000	9.429369	1.330227	1.816809	0.490647	-0.181642	-0.305500	0.001769	-0.003788	0.008017
732	3.714875	0.005000	9.505435	1.294920	1.922760	0.490201	-0.181976	-0.305126	-0.000948	-0.007232	0.001687
733	3.719875	0.005000	9.489132	1.334160	1.876572	0.489754	-0.182311	-0.304752	0.003653	-0.007312	0.003348
734	3.724875	0.005000	9.530788	1.334160	1.922760	0.489308	-0.182646	-0.304378	-0.004990	0.000646	-0.005440
735	3.729875	0.005000	9.572433	1.447625	2.034098	0.488862	-0.182980	-0.304005	0.007741	-0.007459	-0.003179
736	3.734875	0.005000	9.574273	1.451305	1.844855	0.488416	-0.183315	-0.303631	0.000006	-0.009749	-0.002175
737	3.739875	0.005000	9.616495	1.415335	1.886215	0.488196	-0.183491	-0.303485	-0.012579	-0.010486	-0.002876
738	3.744875	0.005000	9.545543	1.373400	1.854503	0.488865	-0.183045	-0.304232	0.004104	-0.004762	0.012785
739	3.749875	0.005000	9.542837	1.373400	1.844280	0.489535	-0.182599	-0.304980	0.003878	0.002362	0.002403
740	3.754875	0.005000	9.525877	1.285477	1.805040	0.490205	-0.182152	-0.305728	0.003997	-0.006353	0.013685
741	3.759875	0.005000	9.574560	1.334160	1.883520	0.490874	-0.181706	-0.306476	-0.001566	-0.004545	0.004162
742	3.764875	0.005000	9.613800	1.349196	1.844280	0.491544	-0.181259	-0.307224	0.004342	-0.001313	0.007868
743	3.769875	0.005000	9.574560	1.334160	1.857320	0.492214	-0.180813	-0.307971	0.006803	-0.009718	0.005468
744	3.774875	0.005000	9.575286	1.255680	1.923123	0.492883	-0.180366	-0.308719	-0.006520	-0.005843	0.002829
745	3.779875	0.005000	9.512869	1.317371	1.861069	0.493553	-0.179920	-0.309467	0.005495	-0.007073	0.016094
746	3.784875	0.005000	9.560184	1.270056	1.848169	0.494223	-0.179474	-0.310215	0.006979	0.000775	0.002020
747	3.789875	0.005000	9.535320	1.400667	1.950027	0.494892	-0.179027	-0.310963	0.007174	-0.006229	0.001581
748	3.794875	0.005000	9.496080	1.382855	1.943091	0.495562	-0.178581	-0.311710	0.000530	-0.000297	0.017774
749	3.799875	0.005000	9.542384	1.334160	1.904713	0.496232	-0.178134	-0.312458	0.001842	-0.003978	0.001261
750	3.804875	0.005000	9.609111	1.338849	1.996551	0.496901	-0.177688	-0.313206	0.004347	-0.014661	0.011582
751	3.809875	0.005000	9.461439	1.410341	1.957401	0.496737	-0.178168	-0.313230	-0.005858	-0.015473	0.000248
752	3.814875	0.005000	9.574015	1.334705	1.844825	0.496402	-0.178837	-0.313105	0.006074	-0.010874	0.000576
753	3.819875	0.005000	9.647201	1.297840	1.922760	0.496068	-0.179506	-0.312981	0.003208	-0.012866	0.006110
754	3.824875	0.005000	9.545939	1.412640	1.888830	0.495733	-0.180176	-0.312856	0.001264	-0.014473	0.008419
755	3.829875	0.005000	9.479894	1.294920	1.844280	0.495398	-0.180845	-0.312732	-0.000049	-0.003176	0.013024
756	3.834875	0.005000	9.574560	1.363325	2.010256	0.495064	-0.181514	-0.312607	-0.005820	-0.008975	0.002362
757	3.839875	0.005000	9.587010	1.346610	1.999349	0.494729	-0.182184	-0.312483	-0.000421	-0.015704	0.009489
758	3.844875	0.005000	9.535320	1.294920	1.928560	0.494394	-0.182853	-0.312358	-0.004258	-0.009850	-0.002934
759	3.849875	0.005000	9.500474	1.373400	1.879126	0.494060	-0.183522	-0.312233	0.005298	-0.011267	-0.000945
760	3.854875	0.005000	9.476674	1.393234	1.864114	0.493725	-0.184192	-0.312109	0.006552	-0.005645	0.008902
761	3.859875	0.005000	9.518326	1.407389	2.018234	0.493390	-0.184861	-0.311984	0.011086	-0.007287	0.006308
762	3.864875	0.005000	9.471425	1.358815	1.932830	0.493055	-0.185530	-0.311860	0.007625	-0.011591	0.007367
763	3.869875	0.005000	9.535320	1.334160	1.934786	0.492721	-0.186200	-0.311735	0.001071	0.000834	0.012363
764	3.874875	0.005000	9.505731	1.383051	1.952349	0.492487	-0.186165	-0.311442	-0.002006	-0.009912	0.003859
765	3.879875	0.005000	9.488819	1.373400	1.826823	0.492375	-0.185272	-0.310944	0.013103	-0.009298	0.005617
766	3.884875	0.005000	9.451954	1.334160	1.854052	0.492264	-0.184380	-0.310446	0.007636	-0.011860	0.014643
767	3.889875	0.005000	9.456840	1.260702	1.925271	0.492152	-0.183487	-0.309947	0.005435	-0.014234	0.007830
768	3.894875	0.005000	9.495747	1.334160	1.884186	0.492041	-0.182595	-0.309449	0.012679	-0.008443	0.000760
769	3.899875	0.005000	9.605631	1.331437	1.922760	0.491929	-0.181702	-0.308951	0.012322	-0.006599	0.018929
770	3.904875	0.005000	9.540418	1.339258	1.932956	0.491818	-0.180810	-0.308452	0.002809	-0.006175	0.001700
771	3.909875	0.005000	9.567072	1.373400	1.883520	0.491706	-0.179917	-0.307954	0.005572	-0.012200	0.010299
772	3.914875	0.005000	9.505943	1.461743	1.922760	0.491595	-0.179025	-0.307456	0.005588	-0.006280	0.010163
773	3.919875	0.005000	9.537371	1.464276	1.858727	0.491483	-0.178132	-0.306957	0.000022	-0.005987	-0.006128
774	3.924875	0.005000	9.462015	1.485945	1.932390	0.491372	-0.177240	-0.306459	0.005083	-0.009722	0.005027
775	3.929875	0.005000	9.557343	1.346572	2.035674	0.491260	-0.176347	-0.305961	0.013412	-0.006534	0.007910
776	3.934875	0.005000	9.496080	1.314782	2.001724	0.491148	-0.175455	-0.305462	0.010412	-0.013860	0.014592
777	3.939875	0.005000	9.513083	1.368166	1.917526	0.491069	-0.174675	-0.305018	0.011050	0.002421	0.008147
778	3.944875	0.005000	9.510693	1.441866	2.030466	0.491404	-0.175345	-0.305267	0.014212	-0.008010	0.000902
779	3.949875	0.005000	9.510844	1.361162	1.934998	0.491738	-0.176014	-0.305516	0.004711	-0.012535	0.012346
780	3.954875	0.005000	9.535320	1.324656	1.844280	0.492073	-0.176683	-0.305765	0.004512	-0.007925	0.006527
781	3.959875	0.005000	9.549497	1.319983	1.890609	0.492408	-0.177353	-0.306014	0.009060	-0.004513	0.007886
782	3.964875	0.005000	9.496080	1.225806	1.878837	0.492742	-0.178022	-0.306264	0.000706	-0.012963	-0.001632
783	3.969875	0.005000	9.574560	1.294920	1.959761	0.493077	-0.178691	-0.306513	-0.003258	-0.011645	-0.002218
784	3.974875	0.005000	9.496356	1.373124	1.883658	0.493412	-0.179361	-0.306762	0.005451	-0.006791	0.009657
785	3.979875	0.005000	9.493524	1.375956	1.846836	0.493746	-0.180030	-0.307011	-0.000649	-0.007114	0.001018
786	3.984875	0.005000	9.540279	1.481203	1.917801	0.494081	-0.180699	-0.307260	0.001687	-0.018909	0.012729
787	3.989875	0.005000	9.559070	1.349650	1.852025	0.494415	-0.181369	-0.307509	-0.004116	-0.017512	-0.000698
788	3.994875	0.005000	9.516320	1.344280	1.943000	0.494750	-0.182038	-0.307758	0.004300	-0.019269	0.017266
789	3.999875	0.005000	9.508590	1.348380	1.844280	0.495085	-0.182707	-0.308007	0.000336	-0.005131	0.008003
790	4.004875	0.005000	9.559495	1.334160	1.835170	0.495419	-0.183377	-0.308257	0.001405	-0.009029	-0.003441
791	4.009875	0.005000	9.552797	1.355923	1.900997	0.494517	-0.183427	-0.306606	-0.000521	-0.010837	0.005075
792	4.014875	0.005000	9.535320	1.393824	1.804504	0.493066	-0.183204	-0.304114	0.007333	-0.000007	-0.002960
793	4.019875	0.005000	9.540676	1.300276	1.962000	0.491616	-0.182981	-0.301623	0.010458	-0.008910	-0.000674
794	4.024875	0.005000	9.510436	1.216440	1.819396	0.490166	-0.182758	-0.299131	0.005794	-0.000498	-0.007585
795	4.029875	0.005000	9.523339	1.267661	1.883520	0.488716	-0.182535	-0.296640	0.011643	-0.002691	-0.009705
796	4.034875	0.005000	9.604209	1.334160	1.893111	0.487265	-0.182312	-0.294149	0.014355	-0.001898	0.008422
797	4.039875	0.005000	9.488864	1.334160	1.915544	0.485815	-0.182089	-0.291657	0.008833	-0.013900	0.005557
798	4.044875	0.005000	9.608974	1.343811	1.927586	0.484365	-0.181866	-0.289166	0.012813	-0.008085	0.003094
799	4.049875	0.005000	9.611794	1.412640	1.879509	0.482914	-0.181642	-0.286674	0.010149	-0.001029	-0.001103
800	4.054875	0.005000	9.574560	1.373793	1.843887	0.481464	-0.181419	-0.284183	0.023217	-0.011938	0.008418
801	4.059875	0.005000	9.462407	1.264030	1.774150	0.480014	-0.181196	-0.281691	0.006812	-0.001677	0.007936
802	4.064875	0.005000	9.496080	1.363083	1.888678	0.478564	-0.180973	-0.279200	0.014289	-0.012321	0.002815
803	4.069875	0.005000	9.464477	1.389730	1.907486	0.477113	-0.180750	-0.276708	0.008374	-0.010115	0.006030
804	4.074875	0.005000	9.583670	1.363357	2.040480	0.476435	-0.180737	-0.275548	-0.012197	-0.006275	0.002252
805	4.079875	0.005000	9.520974	1.400193	2.028033	0.477439	-0.181184	-0.277292	0.008258	-0.004664	0.005029
806	4.084875	0.005000	9.505599	1.382919	2.016100	0.478443	-0.181630	-0.279036	0.004222	-0.010898	-0.001668
807	4.089875	0.005000	9.535320	1.400070	1.905490	0.479447	-0.182076	-0.280780	-0.000915	-0.013135	0.003973
808	4.094875	0.005000	9.496080	1.393307	1.864187	0.480451	-0.182522	-0.282524	-0.002502	-0.016878	0.011675
809	4.099875	0.005000	9.462195	1.334160	1.838925	0.481455	-0.182968	-0.284268	-0.005265	-0.005603	0.002021
810	4.104875	0.005000	9.574560	1.334160	1.873415	0.482459	-0.183415	-0.286012	-0.007019	-0.012558	0.009184
811	4.109875	0.005000	9.483903	1.373400	1.925468	0.483463	-0.183861	-0.287756	-0.004163	-0.009152	-0.001291
812	4.114875	0.005000	9.496050	1.402838	1.873718	0.484467	-0.184307	-0.289500	-0.004649	-0.013609	0.008314
813	4.119875	0.005000	9.584151	1.397815	1.873929	0.485471	-0.184753	-0.291244	0.000046	-0.004763	0.009639
814	4.124875	0.005000	9.486005	1.294920	1.967037	0.486475	-0.185200	-0.292988	0.010064	-0.016742	0.001202
815	4.129875	0.005000	9.491642	1.375619	1.918322	0.487479	-0.185646	-0.294732	0.004896	0.000343	0.016828
816	4.134875	0.005000	9.417600	1.373597	1.805237	0.488483	-0.186092	-0.296476	0.010783	-0.006961	0.004155
817	4.139875	0.005000	9.459412	1.297492	1.917617	0.489487	-0.186538	-0.298220	0.014095	-0.008050	0.010681
818	4.144875	0.005000	9.422562	1.299882	1.854203	0.489343	-0.185941	-0.298916	0.015050	0.003755	0.008873
819	4.149875	0.005000	9.520647	1.287583	1.908087	0.489120	-0.185272	-0.299539	0.014126	0.001250	0.005435
820	4.154875	0.005000	9.564719	1.324319	1.922760	0.488897	-0.184602	-0.300162	0.012523	-0.011405	0.006481
821	4.159875	0.005000	9.640792	1.478872	1.883520	0.488674	-0.183933	-0.300784	0.008888	-0.012499	0.007037
822	4.164875	0.005000	9.574560	1.348821	1.780461	0.488451	-0.183264	-0.301407	0.005502	-0.009976	0.003362
823	4.169875	0.005000	9.552391	1.373400	1.849378	0.488228	-0.182594	-0.302030	-0.006114	-0.008711	0.001368
824	4.174875	0.005000	9.594271	1.392929	1.903231	0.488005	-0.181925	-0.302653	0.018932	-0.018342	0.013870
825	4.179875	0.005000	9.513234	1.473966	1.866366	0.487781	-0.181255	-0.303276	0.007480	-0.007725	0.017745
826	4.184875	0.005000	9.559796	1.334160	1.967052	0.487558	-0.180586	-0.303899	0.005082	-0.006054	0.005983
827	4.189875	0.005000	9.494008	1.321771	1.910371	0.487335	-0.179917	-0.304522	-0.006302	-0.022553	0.014556
828	4.194875	0.005000	9.584559	1.353402	1.765800	0.487112	-0.179247	-0.305145	-0.003236	-0.007132	-0.004293
829	4.199875	0.005000	9.621042	1.262922	1.930002	0.486889	-0.178578	-0.305768	-0.001186	-0.007600	0.004181
830	4.204875	0.005000	9.569724	1.255680	1.917924	0.486666	-0.177909	-0.306391	0.001270	-0.010554	0.015827
831	4.209875	0.005000	9.456840	1.260460	1.807430	0.486691	-0.177985	-0.306528	0.000080	-0.003745	0.005166
832	4.214875	0.005000	9.496065	1.412640	1.844341	0.486914	-0.178654	-0.306279	0.003328	-0.002170	0.005772
833	4.219875	0.005000	9.493677	1.375803	1.927566	0.487138	-0.179324	-0.306030	0.004244	-0.008763	0.002728
834	4.224875	0.005000	9.574560	1.373400	1.917953	0.487361	-0.179994	-0.305780	0.003982	-0.013260	0.010194
835	4.229875	0.005000	9.520132	1.287326	1.836686	0.487584	-0.180663	-0.305531	0.008535	-0.009411	0.011851
836	4.234875	0.005000	9.564576	1.431912	1.971288	0.487807	-0.181333	-0.305282	0.007490	-0.007110	0.005819
837	4.239875	0.005000	9.533157	1.439521	1.962000	0.488031	-0.182003	-0.305032	0.007372	-0.010505	0.008473
838	4.244875	0.005000	9.481331	1.442138	1.976749	0.488254	-0.182672	-0.304783	0.012977	-0.004297	0.009027
839	4.249875	0.005000	9.569982	1.351491	1.974753	0.488477	-0.183342	-0.304534	0.006142	-0.006406	0.014573
840	4.254875	0.005000	9.672782	1.353902	1.785542	0.488700	-0.184012	-0.304284	-0.000372	0.004995	0.008442
841	4.259875	0.005000	9.596714	1.351246	1.866434	0.488923	-0.184681	-0.304035	0.003971	-0.012002	0.000009
842	4.264875	0.005000	9.535320	1.348667	1.863068	0.489147	-0.185351	-0.303786	0.005157	-0.009576	0.007937
843	4.269875	0.005000	9.550296	1.373400	1.967688	0.489370	-0.186020	-0.303536	0.014211	-0.010508	0.002172
844	4.274875	0.005000	9.574560	1.402898	1.854022	0.489614	-0.186423	-0.303425	0.007791	-0.011059	0.006063
845	4.279875	0.005000	9.599066	1.451880	1.829546	0.489948	-0.185643	-0.303923	0.009528	-0.006608	0.001862
846	4.284875	0.005000	9.539896	1.461032	1.765800	0.490283	-0.184862	-0.304421	0.009363	-0.005733	0.008973
847	4.289875	0.005000	9.537479	1.377717	1.924919	0.490618	-0.184081	-0.304920	0.008259	0.002318	0.001824
848	4.294875	0.005000	9.496564	1.334886	1.884004	0.490952	-0.183300	-0.305418	0.012146	-0.007055	0.006919
849	4.299875	0.005000	9.571928	1.370768	1.878256	0.491287	-0.182519	-0.305916	0.005538	-0.011341	0.007290
850	4.304875	0.005000	9.574560	1.299988	1.878452	0.491622	-0.181738	-0.306415	0.010422	-0.012701	0.015687
851	4.309875	0.005000	9.535320	1.358432	1.836796	0.491956	-0.180957	-0.306913	-0.003004	-0.002517	-0.003519
852	4.314875	0.005000	9.623690	1.324591	1.854170	0.492291	-0.180176	-0.307411	0.001219	-0.000302	-0.013743
853	4.319875	0.005000	9.654432	1.293528	1.817656	0.492626	-0.179395	-0.307909	0.008245	-0.012568	0.011956
854	4.324875	0.005000	9.550326	1.279914	1.922760	0.492961	-0.178614	-0.308408	0.001386	-0.009815	0.009499
855	4.329875	0.005000	9.552701	1.316779	1.940141	0.493295	-0.177833	-0.308906	0.001709	-0.008367	0.000105
856	4.334875	0.005000	9.495777	1.471651	1.864051	0.493630	-0.177052	-0.309404	0.007499	-0.006314	0.004725
857	4.339875	0.005000	9.557466	1.451880	1.832239	0.493965	-0.176271	-0.309903	0.001221	-0.002981	-0.000116
858	4.344875	0.005000	9.496080	1.437176	1.780504	0.494030	-0.175939	-0.310000	0.014417	-0.008083	0.006638
859	4.349875	0.005000	9.493826	1.427223	1.883520	0.494030	-0.175716	-0.310000	0.005919	-0.004598	0.012944
860	4.354875	0.005000	9.486141	1.334160	1.843766	0.494030	-0.175493	-0.310000	0.004015	-0.004674	0.010948
861	4.359875	0.005000	9.574560	1.398279	1.805040	0.494030	-0.175270	-0.310000	0.002878	-0.005164	0.008311
862	4.364875	0.005000	9.461617	1.387730	1.917983	0.494030	-0.175046	-0.310000	-0.007897	-0.008316	0.012698
863	4.369875	0.005000	9.456840	1.378144	1.807412	0.494030	-0.174823	-0.310000	0.004610	-0.014096	0.008639
864	4.374875	0.005000	9.456840	1.373491	1.883475	0.494030	-0.174600	-0.310000	0.002983	-0.008411	-0.003384
865	4.379875	0.005000	9.415150	1.334160	1.849179	0.494030	-0.174377	-0.310000	0.003442	-0.011935	0.003709
866	4.384875	0.005000	9.456840	1.294920	1.809907	0.494030	-0.174154	-0.310000	0.007610	-0.005905	0.011759
867	4.389875	0.005000	9.417600	1.334160	1.812312	0.494030	-0.173930	-0.310000	0.005175	-0.009237	0.004529
868	4.394875	0.005000	9.573683	1.275739	1.883520	0.494030	-0.173707	-0.310000	0.007204	-0.012992	0.008761
869	4.399875	0.005000	9.442439	1.294920	1.924742	0.494030	-0.173484	-0.310000	0.009674	-0.007251	0.003906
870	4.404875	0.005000	9.584211	1.260823	1.893171	0.494030	-0.173261	-0.310000	0.003557	-0.004820	0.007225
871	4.409875	0.005000	9.591745	1.316975	1.890963	0.493982	-0.173423	-0.310000	-0.005724	-0.001117	-0.002318
872	4.414875	0.005000	9.653392	1.314364	1.843928	0.493870	-0.174093	-0.310000	0.003738	-0.010343	0.005564
873	4.419875	0.005000	9.535320	1.356366	1.939794	0.493759	-0.174762	-0.310000	0.003776	-0.008774	0.009761
874	4.424875	0.005000	9.500179	1.398194	1.908314	0.493647	-0.175431	-0.310000	-0.000488	-0.010721	0.000030
875	4.429875	0.005000	9.520223	1.451880	1.974072	0.493535	-0.176101	-0.310000	0.000701	-0.010781	0.013327
876	4.434875	0.005000	9.593923	1.324479	1.873839	0.493424	-0.176770	-0.310000	0.005563	-0.007451	0.001930
877	4.439875	0.005000	9.599187	1.326854	1.819653	0.493312	-0.177440	-0.310000	0.010530	-0.010465	0.008603
878	4.444875	0.005000	9.466673	1.343993	1.859029	0.493201	-0.178109	-0.310000	0.003268	-0.001789	0.006692
879	4.449875	0.005000	9.461035	1.257777	2.029993	0.493089	-0.178779	-0.310000	-0.001795	-0.001394	0.002558
880	4.454875	0.005000	9.535320	1.294920	1.844280	0.492977	-0.179448	-0.310000	0.012745	-0.012062	0.014744
881	4.459875	0.005000	9.571882	1.409962	1.922760	0.492866	-0.180117	-0.310000	-0.003582	-0.006550	0.008167
882	4.464875	0.005000	9.613800	1.329092	1.922760	0.492754	-0.180787	-0.310000	0.004481	-0.005796	0.007036
883	4.469875	0.005000	9.550385	1.319095	1.812573	0.492643	-0.181456	-0.310000	0.001794	-0.008606	0.003054
884	4.474875	0.005000	9.555215	1.295471	1.853677	0.492507	-0.182090	-0.310007	0.015445	-0.009746	0.006386
885	4.479875	0.005000	9.469195	1.307275	1.924934	0.491950	-0.182090	-0.310131	0.010259	-0.004707	0.001962
886	4.484875	0.005000	9.550089	1.343863	1.976769	0.491392	-0.182090	-0.310256	0.007541	-0.001554	0.003449
887	4.489875	0.005000	9.451956	1.407756	1.895814	0.490835	-0.182090	-0.310380	0.008816	-0.007707	0.002749
888	4.494875	0.005000	9.417600	1.353811	1.883459	0.490277	-0.182090	-0.310505	-0.000698	-0.002291	-0.001745
889	4.499875	0.005000	9.378360	1.395607	1.861313	0.489720	-0.182090	-0.310629	0.002014	-0.010333	0.003691
890	4.504875	0.005000	9.471498	1.255680	1.893443	0.489162	-0.182090	-0.310754	-0.001800	-0.002169	0.002805
891	4.509875	0.005000	9.523052	1.334160	1.947296	0.488605	-0.182090	-0.310878	0.000696	-0.004099	0.000536
892	4.514875	0.005000	9.505973	1.412640	1.932653	0.488047	-0.182090	-0.311003	0.000305	-0.000220	0.012535
893	4.519875	0.005000	9.518589	1.380903	1.836777	0.487490	-0.182090	-0.311128	0.004321	-0.002744	0.000331
894	4.524875	0.005000	9.604369	1.334160	1.819187	0.486932	-0.182090	-0.311252	0.008469	-0.003371	0.010079
895	4.529875	0.005000	9.569938	1.371089	1.964311	0.486375	-0.182090	-0.311377	0.001933	0.001427	0.004479
896	4.534875	0.005000	9.535214	1.295026	1.962106	0.485817	-0.182090	-0.311501	0.007025	-0.005872	0.010252
897	4.539875	0.005000	9.574560	1.294920	2.006202	0.485260	-0.182090	-0.311626	0.009787	-0.004947	0.007146
898	4.544875	0.005000	9.657968	1.407712	1.898304	0.485448	-0.182090	-0.311500	0.013339	-0.006337	-0.005326
899	4.549875	0.005000	9.527986	1.373400	1.844280	0.486005	-0.182090	-0.311251	-0.002076	-0.009059	0.008490
900	4.554875	0.005000	9.564823	1.412640	1.903285	0.486563	-0.182090	-0.311002	-0.004627	-0.003444	0.006772
901	4.559875	0.005000	9.694126	1.414486	2.015550	0.487121	-0.182090	-0.310753	0.000301	-0.003037	0.008920
902	4.564875	0.005000	9.677425	1.412640	1.928085	0.487679	-0.182090	-0.310504	0.010582	-0.009216	0.003162
903	4.569875	0.005000	9.613800	1.378180	1.939990	0.488236	-0.182090	-0.310255	0.004633	-0.009292	0.011050
904	4.574875	0.005000	9.574101	1.392790	1.903370	0.488794	-0.182090	-0.310005	0.004141	-0.006698	0.018841
905	4.579875	0.005000	9.579842	1.395661	1.922760	0.489352	-0.182090	-0.309756	-0.002226	0.004440	0.003883
906	4.584875	0.005000	9.535320	1.373400	1.908190	0.489910	-0.182090	-0.309507	0.005439	-0.008951	0.004590
907	4.589875	0.005000	9.629018	1.400629	1.910749	0.490467	-0.182090	-0.309258	0.001345	-0.008550	0.004867
908	4.594875	0.005000	9.535320	1.462212	1.873884	0.491025	-0.182090	-0.309009	0.009206	-0.022901	0.013726
909	4.599875	0.005000	9.503326	1.358908	1.826778	0.491583	-0.182090	-0.308759	0.009305	-0.009442	0.009204
910	4.604875	0.005000	9.496080	1.294920	2.025867	0.492141	-0.182090	-0.308510	0.005650	-0.006110	0.006724
911	4.609875	0.005000	9.498131	1.373400	1.922760	0.492666	-0.181993	-0.308405	-0.000533	-0.011346	0.005712
912	4.614875	0.005000	9.535320	1.412277	1.961637	0.493112	-0.181658	-0.308654	0.004728	-0.003501	0.001586
913	4.619875	0.005000	9.428552	1.339636	1.849756	0.493559	-0.181324	-0.308903	0.014856	-0.019464	0.003260
914	4.624875	0.005000	9.490892	1.412640	1.883520	0.494005	-0.180989	-0.309153	0.012087	-0.009442	-0.002353
915	4.629875	0.005000	9.527726	1.373400	1.891114	0.494451	-0.180654	-0.309402	-0.000237	-0.009417	0.002031
916	4.634875	0.005000	9.398378	1.373400	1.825058	0.494897	-0.180320	-0.309651	0.001776	-0.004132	0.014156
917	4.639875	0.005000	9.471247	1.427047	1.897927	0.495343	-0.179985	-0.309900	0.009428	-0.006827	-0.002033
918	4.644875	0.005000	9.466420	1.339409	1.883520	0.495790	-0.179650	-0.310149	-0.002712	-0.010151	0.012577
919	4.649875	0.005000	9.574560	1.320919	1.962000	0.496236	-0.179316	-0.310399	-0.000718	-0.008375	0.010767
920	4.654875	0.005000	9.653040	1.354037	1.884034	0.496682	-0.178981	-0.310648	0.007110	-0.009605	-0.002528
921	4.659875	0.005000	9.596812	1.356412	1.883520	0.497128	-0.178646	-0.310897	0.004859	-0.007625	0.005894
922	4.664875	0.005000	9.520722	1.363356	1.893564	0.497575	-0.178311	-0.311146	-0.000364	-0.008988	0.001430
923	4.669875	0.005000	9.468736	1.334160	1.953656	0.498021	-0.177977	-0.311395	0.005163	-0.011501	0.003464
924	4.674875	0.005000	9.546094	1.304409	1.913271	0.498467	-0.177642	-0.311645	-0.004644	-0.004191	-0.004465
925	4.679875	0.005000	9.463913	1.334160	1.897667	0.498101	-0.177815	-0.311440	0.006066	-0.018014	0.002167
926	4.684875	0.005000	9.431603	1.265016	1.952664	0.497654	-0.178038	-0.311191	0.000113	-0.009463	0.012241
927	4.689875	0.005000	9.539821	1.292669	1.842029	0.497208	-0.178262	-0.310941	-0.000902	-0.011175	0.003149
928	4.694875	0.005000	9.496534	1.294769	1.805040	0.496761	-0.178485	-0.310692	0.002604	-0.016606	0.009773
929	4.699875	0.005000	9.571989	1.294920	1.844280	0.496315	-0.178708	-0.310443	0.013131	-0.016664	0.008571
930	4.704875	0.005000	9.564608	1.471217	1.957024	0.495868	-0.178931	-0.310193	0.009488	-0.007364	0.002711
931	4.709875	0.005000	9.424992	1.420032	1.883520	0.495422	-0.179154	-0.309944	0.000986	-0.001813	0.010651
932	4.714875	0.005000	9.564410	1.383550	1.834130	0.494976	-0.179378	-0.309695	0.011647	-0.008437	0.010141
933	4.719875	0.005000	9.574560	1.334160	1.908571	0.494529	-0.179601	-0.309446	0.001647	-0.006012	0.012700
934	4.724875	0.005000	9.544729	1.309835	1.844280	0.494083	-0.179824	-0.309196	-0.000559	-0.001027	0.007471
935	4.729875	0.005000	9.569901	1.334160	1.905470	0.493636	-0.180047	-0.308947	0.011512	-0.008188	0.004425
936	4.734875	0.005000	9.535320	1.412640	1.903201	0.493190	-0.180271	-0.308698	0.000399	-0.006834	0.013468
937	4.739875	0.005000	9.491209	1.334160	1.883520	0.492744	-0.180494	-0.308448	0.004220	-0.008422	0.004171
938	4.744875	0.005000	9.559750	1.363779	1.809472	0.492777	-0.180657	-0.308467	0.014975	-0.009045	0.001859
939	4.749875	0.005000	9.508499	1.427041	1.829879	0.493223	-0.180768	-0.308716	0.009417	-0.004519	0.009608
940	4.754875	0.005000	9.525276	1.334160	1.912716	0.493669	-0.180880	-0.308965	0.013644	-0.005794	0.013392
941	4.759875	0.005000	9.496080	1.302205	1.748414	0.494115	-0.180992	-0.309214	0.002157	-0.002701	-0.002005
942	4.764875	0.005000	9.569691	1.417509	1.878651	0.494561	-0.181103	-0.309463	0.004733	-0.003384	0.004490
943	4.769875	0.005000	9.574560	1.412640	1.881056	0.495007	-0.181215	-0.309712	-0.000285	-0.011219	0.005660
944	4.774875	0.005000	9.535366	1.334206	1.961954	0.495453	-0.181326	-0.309961	0.003355	-0.007898	-0.002191
945	4.779875	0.005000	9.537650	1.410310	1.922760	0.495899	-0.181438	-0.310210	0.006348	-0.006173	-0.001375
946	4.784875	0.005000	9.505519	1.451880	1.878800	0.496345	-0.181549	-0.310460	0.002789	0.000800	-0.000319
947	4.789875	0.005000	9.528225	1.451880	1.954905	0.496791	-0.181661	-0.310709	0.007445	-0.003856	0.006986
948	4.794875	0.005000	9.455539	1.323374	1.902490	0.497237	-0.181772	-0.310958	0.007013	0.000803	0.003786
949	4.799875	0.005000	9.468700	1.306780	2.001240	0.497683	-0.181884	-0.311207	0.008275	-0.009684	0.010358
950	4.804875	0.005000	9.481830	1.294920	1.922760	0.498129	-0.181995	-0.311456	0.008524	-0.005684	0.016746
951	4.809875	0.005000	9.518695	1.412640	1.877530	0.498388	-0.181988	-0.311629	-0.005605	-0.009148	0.011545
952	4.814875	0.005000	9.496080	1.372635	1.962000	0.497607	-0.181319	-0.311380	0.004377	-0.013439	0.012327
953	4.819875	0.005000	9.517729	1.298977	1.944409	0.496826	-0.180649	-0.311131	0.005996	-0.005675	-0.003664
954	4.824875	0.005000	9.574560	1.310102	1.892396	0.496045	-0.179980	-0.310881	-0.000841	-0.014620	0.005482
955	4.829875	0.005000	9.639337	1.359697	1.883520	0.495265	-0.179310	-0.310632	-0.002420	-0.010082	-0.002387
956	4.834875	0.005000	9.574560	1.402399	1.875003	0.494484	-0.178641	-0.310383	0.000411	-0.017915	-0.003696
957	4.839875	0.005000	9.551052	1.404774	1.875654	0.493703	-0.177971	-0.310134	-0.003227	-0.009336	0.006202
958	4.844875	0.005000	9.580036	1.345112	1.995764	0.492922	-0.177302	-0.309885	-0.001814	-0.013516	0.006316
959	4.849875	0.005000	9.610699	1.484918	1.922760	0.492141	-0.176633	-0.309635	-0.002199	-0.014263	0.010599
960	4.854875	0.005000	9.573849	1.332027	1.922760	0.491360	-0.175963	-0.309386	0.000875	-0.007256	0.011977
961	4.859875	0.005000	9.572876	1.329108	1.922760	0.490579	-0.175294	-0.309137	-0.003811	-0.009754	0.009813
962	4.864875	0.005000	9.535320	1.478815	1.914557	0.489799	-0.174624	-0.308888	0.003033	-0.005640	0.008546
963	4.869875	0.005000	9.613800	1.308716	1.955102	0.489018	-0.173955	-0.308639	0.005126	-0.007982	0.006136
964	4.874875	0.005000	9.523899	1.283499	2.021934	0.488237	-0.173286	-0.308389	0.000816	-0.012724	0.010463
965	4.879875	0.005000	9.480166	1.310834	1.911097	0.488319	-0.173997	-0.308237	-0.004444	-0.014520	0.007777
966	4.884875	0.005000	9.484916	1.373400	1.973164	0.488654	-0.175114	-0.308112	0.006532	-0.008199	0.008683
967	4.889875	0.005000	9.434028	1.389828	1.972044	0.488989	-0.176230	-0.307987	0.005628	-0.011388	0.000676
968	4.894875	0.005000	9.397163	1.313723	1.842646	0.489323	-0.177346	-0.307863	0.011317	-0.004293	-0.000887
969	4.899875	0.005000	9.470996	1.330518	1.808682	0.489658	-0.178462	-0.307738	0.012379	-0.009234	0.007894
970	4.904875	0.005000	9.526853	1.279533	1.835813	0.489993	-0.179578	-0.307614	0.009139	-0.008104	0.011000
971	4.909875	0.005000	9.587538	1.294920	1.883214	0.490328	-0.180694	-0.307489	0.007125	-0.005320	0.010590
972	4.914875	0.005000	9.553432	1.412640	1.954452	0.490662	-0.181810	-0.307365	0.006589	-0.012091	0.001257
973	4.919875	0.005000	9.543383	1.334160	1.914697	0.490997	-0.182927	-0.307240	0.005341	-0.006794	-0.000319
974	4.924875	0.005000	9.703156	1.283575	1.922760	0.491332	-0.184043	-0.307115	0.005667	-0.007042	0.008595
975	4.929875	0.005000	9.613800	1.379995	1.997942	0.491667	-0.185159	-0.306991	-0.001329	-0.009307	-0.001106
976	4.934875	0.005000	9.614723	1.410794	1.960154	0.492002	-0.186275	-0.306866	0.005377	-0.004887	0.012529
977	4.939875	0.005000	9.577529	1.409671	1.883520	0.492336	-0.187391	-0.306742	-0.005691	-0.010666	0.010318
978	4.944875	0.005000	9.570249	1.342783	2.036169	0.491866	-0.188328	-0.305668	0.002154	-0.009386	0.007175
979	4.949875	0.005000	9.587932	1.405954	1.929446	0.490193	-0.188998	-0.303177	0.000273	-0.008741	0.006770
980	4.954875	0.005000	9.447764	1.352313	1.835204	0.488520	-0.189667	-0.300685	0.005515	-0.006546	0.000546
981	4.959875	0.005000	9.496080	1.227891	1.922760	0.486846	-0.190336	-0.298194	0.008188	-0.007909	0.002840
982	4.964875	0.005000	9.509921	1.269521	1.962000	0.485173	-0.191006	-0.295702	0.006922	-0.003318	-0.002111
983	4.969875	0.005000	9.505489	1.271896	1.915953	0.483499	-0.191675	-0.293211	0.012579	-0.009213	0.015066
984	4.974875	0.005000	9.514904	1.335752	1.864696	0.481826	-0.192344	-0.290719	0.014439	-0.009014	0.014820
985	4.979875	0.005000	9.492850	1.370170	1.937534	0.480153	-0.193014	-0.288228	0.007456	-0.002471	0.011633
986	4.984875	0.005000	9.496080	1.412640	1.891570	0.478479	-0.193683	-0.285736	0.006480	-0.011242	0.010999
987	4.989875	0.005000	9.561684	1.386582	1.922454	0.476806	-0.194352	-0.283245	0.001256	-0.007330	0.001957
988	4.994875	0.005000	9.581478	1.334160	1.837362	0.475133	-0.195022	-0.280753	0.006626	-0.008986	0.009057
989	4.999875	0.005000	9.512799	1.334160	1.860999	0.473459	-0.195691	-0.278262	-0.002846	-0.005449	0.005963
990	5.004875	0.005000	9.507987	1.367447	1.950093	0.471786	-0.196360	-0.275770	0.012500	-0.008211	0.006105
991	5.009875	0.005000	9.524837	1.330666	1.922760	0.470149	-0.197010	-0.273338	0.007569	-0.004657	0.000226
992	5.014875	0.005000	9.419839	1.256799	1.922760	0.470149	-0.196787	-0.273588	-0.007764	-0.008307	0.006408
993	5.019875	0.005000	9.458111	1.370859	1.846821	0.470149	-0.196564	-0.273837	0.004056	-0.003830	0.016726
994	5.024875	0.005000	9.531632	1.451880	1.847968	0.470149	-0.196341	-0.274086	0.000473	-0.007468	-0.001108
995	5.029875	0.005000	9.535320	1.438901	1.857259	0.470149	-0.196118	-0.274335	0.003573	-0.011299	0.014597
996	5.034875	0.005000	9.574560	1.351889	1.887302	0.470149	-0.195895	-0.274584	0.001949	-0.002162	0.006172
997	5.039875	0.005000	9.630531	1.373400	1.872265	0.470149	-0.195671	-0.274834	0.006788	-0.008190	-0.001355
998	5.044875	0.005000	9.589838	1.335809	1.793059	0.470149	-0.195448	-0.275083	-0.003462	-0.013120	0.009873
999	5.049875	0.005000	9.574560	1.294920	1.945980	0.470149	-0.195225	-0.275332	0.009565	-0.007734	0.002305
1000	5.054875	0.005000	9.634423	1.354783	1.864903	0.470149	-0.195002	-0.275581	0.005371	-0.012470	0.010564
1001	5.059875	0.005000	9.595588	1.313132	1.841464	0.470149	-0.194779	-0.275830	-0.001793	-0.004847	0.004738
1002	5.064875	0.005000	9.613800	1.358120	1.899320	0.470149	-0.194556	-0.276080	0.001354	-0.015820	0.005871
1003	5.069875	0.005000	9.587327	1.399873	1.962000	0.470149	-0.194333	-0.276329	-0.003909	-0.003070	0.006223
1004	5.074875	0.005000	9.574560	1.401794	1.894366	0.470149	-0.194110	-0.276578	0.003088	-0.008371	-0.000128
1005	5.079875	0.005000	9.426071	1.303391	1.875049	0.470866	-0.193671	-0.278029	0.000661	-0.012248	0.007367
1006	5.084875	0.005000	9.477837	1.346322	1.838199	0.471982	-0.193114	-0.280146	-0.003986	-0.007327	0.000235
1007	5.089875	0.005000	9.385772	1.377106	1.879814	0.473098	-0.192556	-0.282264	0.005858	-0.020745	0.007291
1008	5.094875	0.005000	9.497825	1.451008	1.922760	0.474213	-0.191998	-0.284382	0.003113	-0.005487	0.007426
1009	5.099875	0.005000	9.499136	1.412640	1.998184	0.475329	-0.191440	-0.286500	0.005507	-0.007432	0.010166
1010	5.104875	0.005000	9.496080	1.271291	1.852086	0.476444	-0.190882	-0.288617	0.012156	-0.011954	0.016585
1011	5.109875	0.005000	9.489787	1.210147	1.889813	0.477560	-0.190324	-0.290735	0.003791	-0.001231	0.003881
1012	5.114875	0.005000	9.448172	1.294920	1.905424	0.478676	-0.189767	-0.292853	0.007490	-0.002072	0.017024
1013	5.119875	0.005000	9.496080	1.440837	1.922760	0.479791	-0.189209	-0.294970	0.001829	-0.001970	0.006119
1014	5.124875	0.005000	9.482647	1.411581	1.806099	0.480907	-0.188651	-0.297088	0.004089	-0.011752	0.011884
1015	5.129875	0.005000	9.582184	1.389208	1.851904	0.482023	-0.188093	-0.299206	0.009985	-0.005781	0.004319
1016	5.134875	0.005000	9.576978	1.431051	1.825869	0.483138	-0.187535	-0.301324	0.006057	-0.011467	0.000642
1017	5.139875	0.005000	9.576964	1.354982	1.825862	0.484254	-0.186978	-0.303441	-0.003868	-0.017530	0.015178
1018	5.144875	0.005000	9.527726	1.310743	1.836051	0.485281	-0.186449	-0.304967	0.012643	-0.002555	0.006628
1019	5.149875	0.005000	9.562186	1.347593	1.883520	0.486062	-0.186003	-0.304843	0.006559	-0.009912	0.006142
1020	5.154875	0.005000	9.563502	1.384458	1.866396	0.486843	-0.185557	-0.304718	-0.002612	-0.014036	0.009694
1021	5.159875	0.005000	9.474176	1.364732	1.931428	0.487624	-0.185111	-0.304593	0.012553	-0.014389	0.004874
1022	5.164875	0.005000	9.508666	1.301213	1.994947	0.488405	-0.184664	-0.304469	0.007811	-0.010328	-0.011368
1023	5.169875	0.005000	9.456840	1.337649	1.965489	0.489185	-0.184218	-0.304344	0.011417	-0.007716	-0.003812
1024	5.174875	0.005000	9.458983	1.333088	2.038337	0.489966	-0.183772	-0.304220	0.008752	-0.012656	0.016949
1025	5.179875	0.005000	9.497396	1.256996	1.962000	0.490747	-0.183326	-0.304095	-0.004227	-0.010954	0.010543
1026	5.184875	0.005000	9.539070	1.397642	1.958250	0.491528	-0.182879	-0.303970	0.007974	-0.010086	0.001545
1027	5.189875	0.005000	9.529165	1.340315	1.949691	0.492309	-0.182433	-0.303846	-0.000868	-0.008289	0.000098
1028	5.194875	0.005000	9.535320	1.317019	2.031910	0.493090	-0.181987	-0.303721	-0.001024	-0.007826	0.005398
1029	5.199875	0.005000	9.563583	1.334160	1.905475	0.493871	-0.181541	-0.303597	0.011709	-0.010623	0.005147
1030	5.204875	0.005000	9.586420	1.385260	1.832420	0.494651	-0.181094	-0.303472	0.003483	-0.009853	0.011560
1031	5.209875	0.005000	9.512160	1.389480	1.869361	0.495432	-0.180648	-0.303347	0.010383	-0.021786	0.007805
1032	5.214875	0.005000	9.553775	1.255680	1.862735	0.495423	-0.180301	-0.303774	-0.004094	-0.007482	-0.001620
1033	5.219875	0.005000	9.574560	1.313330	1.901930	0.495312	-0.179966	-0.304273	0.000380	-0.011480	-0.000303
1034	5.224875	0.005000	9.496080	1.380601	1.892339	0.495200	-0.179631	-0.304771	0.007765	-0.009346	0.020250
1035	5.229875	0.005000	9.548655	1.242345	1.857615	0.495089	-0.179296	-0.305270	0.002857	-0.003339	-0.001131
1036	5.234875	0.005000	9.642113	1.384327	1.879051	0.494977	-0.178961	-0.305769	0.010308	-0.011204	0.000804
1037	5.239875	0.005000	9.487568	1.317135	1.897223	0.494865	-0.178626	-0.306267	0.004691	-0.009904	0.001593
1038	5.244875	0.005000	9.535320	1.388497	1.844280	0.494754	-0.178291	-0.306766	0.004009	-0.007236	0.002377
1039	5.249875	0.005000	9.488789	1.223731	1.851571	0.494642	-0.177957	-0.307264	0.005994	-0.008010	0.005293
1040	5.254875	0.005000	9.536591	1.294920	1.922760	0.494531	-0.177622	-0.307763	0.008484	-0.007087	0.000673
1041	5.259875	0.005000	9.536453	1.371135	1.884653	0.494419	-0.177287	-0.308261	0.007126	-0.006420	0.008041
1042	5.264875	0.005000	9.613800	1.294920	1.879983	0.494308	-0.176952	-0.308760	-0.002591	-0.002442	0.006184
1043	5.269875	0.005000	9.547997	1.268357	1.949323	0.494196	-0.176617	-0.309258	0.008407	-0.003850	-0.002391
1044	5.274875	0.005000	9.644312	1.264408	1.735288	0.494084	-0.176282	-0.309757	0.003940	-0.004673	0.005559
1045	5.279875	0.005000	9.613800	1.334160	1.793937	0.493858	-0.175948	-0.309936	0.011247	-0.011994	0.003859
1046	5.284875	0.005000	9.613800	1.424893	1.844280	0.493524	-0.175613	-0.309812	0.008044	-0.015346	0.001925
1047	5.289875	0.005000	9.644099	1.389460	1.969119	0.493189	-0.175278	-0.309687	-0.005087	-0.009673	0.008867
1048	5.294875	0.005000	9.708457	1.509592	2.001240	0.492854	-0.174944	-0.309562	0.005880	-0.007776	0.014827
1049	5.299875	0.005000	9.592917	1.391757	1.862637	0.492520	-0.174609	-0.309438	0.008728	-0.002463	0.004417
1050	5.304875	0.005000	9.566512	1.436117	1.875805	0.492185	-0.174274	-0.309313	0.009326	-0.006607	0.007523
1051	5.309875	0.005000	9.496080	1.360012	1.922760	0.491850	-0.173940	-0.309189	0.003150	-0.008355	0.004822
1052	5.314875	0.005000	9.535320	1.340408	1.894517	0.491516	-0.173605	-0.309064	0.005018	-0.001527	0.014306
1053	5.319875	0.005000	9.560077	1.247428	1.875268	0.491181	-0.173271	-0.308939	0.009084	-0.003096	0.014560
1054	5.324875	0.005000	9.613800	1.283228	1.844280	0.490846	-0.172936	-0.308815	0.005595	0.006867	0.002464
1055	5.329875	0.005000	9.499509	1.223299	1.876661	0.490511	-0.172601	-0.308690	-0.004128	-0.014215	0.010632
1056	5.334875	0.005000	9.612775	1.372375	1.845305	0.490177	-0.172267	-0.308566	0.006290	-0.002501	0.007331
1057	5.339875	0.005000	9.612423	1.296297	1.959247	0.489842	-0.171932	-0.308441	0.005669	-0.009458	0.000054
1058	5.344875	0.005000	9.613800	1.291168	1.922760	0.489537	-0.171702	-0.308333	0.008415	-0.012735	0.017290
1059	5.349875	0.005000	9.586987	1.334160	1.995026	0.489426	-0.172148	-0.308333	0.007969	-0.011956	0.007765
1060	5.354875	0.005000	9.574560	1.395401	1.970620	0.489314	-0.172594	-0.308333	0.015729	-0.003875	0.009533
1061	5.359875	0.005000	9.563526	1.294920	1.950966	0.489203	-0.173040	-0.308333	0.001143	-0.006356	0.007196
1062	5.364875	0.005000	9.562821	1.320409	1.948249	0.489091	-0.173486	-0.308333	0.005608	-0.015122	0.005796
1063	5.369875	0.005000	9.535320	1.465858	1.945874	0.488980	-0.173933	-0.308333	0.007203	-0.012293	0.007858
1064	5.374875	0.005000	9.493871	1.449671	1.922760	0.488868	-0.174379	-0.308333	0.006609	-0.003832	0.000473
1065	5.379875	0.005000	9.514429	1.375941	1.925301	0.488756	-0.174825	-0.308333	0.003019	-0.006305	0.012436
1066	5.384875	0.005000	9.496080	1.389359	1.836958	0.488645	-0.175271	-0.308333	-0.004276	-0.005968	0.002629
1067	5.389875	0.005000	9.547392	1.386984	1.871448	0.488533	-0.175718	-0.308333	0.004649	-0.008023	0.010154
1068	5.394875	0.005000	9.552828	1.384266	1.955358	0.488422	-0.176164	-0.308333	0.002469	-0.004913	0.010866
1069	5.399875	0.005000	9.543771	1.373400	1.992789	0.488310	-0.176610	-0.308333	0.002832	-0.011948	0.005902
1070	5.404875	0.005000	9.625895	1.412640	1.955952	0.488199	-0.177056	-0.308333	-0.002515	-0.021310	0.014733
1071	5.409875	0.005000	9.767118	1.373400	1.890805	0.488087	-0.177502	-0.308333	0.002726	-0.005213	0.002781
1072	5.414875	0.005000	9.650620	1.373400	1.883520	0.488313	-0.177949	-0.308615	0.000835	-0.000397	-0.006756
1073	5.419875	0.005000	9.536499	1.373400	1.959642	0.488647	-0.178395	-0.308989	0.009100	-0.003358	0.001031
1074	5.424875	0.005000	9.535320	1.405447	1.740946	0.488982	-0.178841	-0.309362	0.013156	-0.013373	0.006962
1075	5.429875	0.005000	9.595795	1.418642	1.865515	0.489316	-0.179287	-0.309736	0.014958	-0.009832	0.012803
1076	5.434875	0.005000	9.631348	1.443106	1.913986	0.489651	-0.179734	-0.310110	0.013134	-0.006936	0.003325
1077	5.439875	0.005000	9.585724	1.412640	1.973164	0.489986	-0.180180	-0.310484	0.012851	-0.008247	0.009875
1078	5.444875	0.005000	9.418977	1.412640	1.869981	0.490320	-0.180626	-0.310857	0.012901	0.000073	0.008778
1079	5.449875	0.005000	9.519391	1.444498	1.851662	0.490655	-0.181072	-0.311231	0.008031	-0.003822	0.010434
1080	5.454875	0.005000	9.475365	1.352685	1.864995	0.490990	-0.181518	-0.311605	0.003760	-0.007118	0.008556
1081	5.459875	0.005000	9.514384	1.258312	1.865216	0.491324	-0.181965	-0.311978	0.001023	-0.014514	0.009932
1082	5.464875	0.005000	9.551212	1.255680	1.868608	0.491659	-0.182411	-0.312352	-0.000324	-0.013948	0.015855
1083	5.469875	0.005000	9.444566	1.282646	1.988966	0.491993	-0.182857	-0.312726	0.007563	-0.005843	0.003784
1084	5.474875	0.005000	9.591661	1.334160	1.962000	0.492328	-0.183303	-0.313100	0.004193	-0.018522	0.017978
1085	5.479875	0.005000	9.465502	1.242427	1.931422	0.492537	-0.183456	-0.313099	0.005115	-0.008321	0.003513
1086	5.484875	0.005000	9.580732	1.406468	1.982724	0.492537	-0.183122	-0.312476	0.001372	-0.010336	0.007704
1087	5.489875	0.005000	9.602409	1.444286	1.848077	0.492537	-0.182787	-0.311853	-0.001315	-0.011407	0.010111
1088	5.494875	0.005000	9.536742	1.411218	1.767222	0.492537	-0.182452	-0.311231	0.004478	-0.004197	0.001348
1089	5.499875	0.005000	9.498039	1.449921	1.766779	0.492537	-0.182117	-0.310608	0.002392	-0.013280	0.011021
1090	5.504875	0.005000	9.649228	1.451880	1.918948	0.492537	-0.181783	-0.309985	-0.004042	-0.010398	0.009550
1091	5.509875	0.005000	9.502267	1.352721	1.883520	0.492537	-0.181448	-0.309362	0.001653	-0.006350	0.010711
1092	5.514875	0.005000	9.465417	1.334160	1.936269	0.492537	-0.181113	-0.308739	0.007102	-0.011070	0.013169
1093	5.519875	0.005000	9.463224	1.373400	1.972952	0.492537	-0.180779	-0.308116	0.011823	-0.005130	0.008948
1094	5.524875	0.005000	9.444597	1.399142	1.975498	0.492537	-0.180444	-0.307493	0.015621	-0.014484	0.012784
1095	5.529875	0.005000	9.480173	1.475213	1.805040	0.492537	-0.180109	-0.306871	0.003859	-0.001015	0.004575
1096	5.534875	0.005000	9.558117	1.414758	1.864959	0.492537	-0.179774	-0.306248	0.006703	-0.005686	0.004639
1097	5.539875	0.005000	9.556271	1.315871	1.941049	0.492537	-0.179440	-0.305625	0.001808	-0.006325	-0.002724
1098	5.544875	0.005000	9.567148	1.294920	1.875019	0.492537	-0.179105	-0.305002	0.007994	-0.010500	0.008928
1099	5.549875	0.005000	9.601607	1.281396	1.791516	0.492648	-0.179215	-0.305497	0.004106	-0.011899	0.013825
1100	5.554875	0.005000	9.624949	1.238738	1.776949	0.492760	-0.179327	-0.305996	-0.001378	-0.003456	-0.002503
1101	5.559875	0.005000	9.504839	1.351677	1.870556	0.492872	-0.179439	-0.306494	0.000876	-0.009485	0.011715
1102	5.564875	0.005000	9.613800	1.340146	1.950027	0.492983	-0.179550	-0.306993	0.012459	-0.001285	0.000229
1103	5.569875	0.005000	9.542482	1.405478	1.908435	0.493095	-0.179662	-0.307491	0.005814	-0.009268	-0.003465
1104	5.574875	0.005000	9.534156	1.296084	1.809694	0.493207	-0.179774	-0.307990	0.002693	-0.008148	0.006853
1105	5.579875	0.005000	9.458065	1.334160	1.962000	0.493318	-0.179885	-0.308488	0.002143	-0.006921	0.002889
