# FOX Logger (IMU file)
# (c) INRIA 2011-2014
# File created from file sensbiotk output
#
# File format:
# id	t	dt	ax	ay	az	mx	my	mz	gx	gy	gz
#
# Units:
#	Time: s
#	Acceleration: m.s^-2
#	Magneto: gauss
#	Gyrometer: rad/s
#
1	0.056488	0.056488	7.125524	-0.124648	-6.310712	0.026866	-0.174627	-0.618333	0.045219	0.023181	0.003454
2	0.061488	0.005000	7.141680	-0.156960	-6.317640	0.028231	-0.173944	-0.620366	0.055058	0.023052	-0.002636
3	0.066488	0.005000	7.112908	-0.049708	-6.278400	0.029597	-0.173262	-0.622399	0.059970	0.024129	0.003107
4	0.071488	0.005000	7.180920	-0.172208	-6.246784	0.030962	-0.172579	-0.624432	0.051038	0.022341	0.007011
5	0.076488	0.005000	7.204413	-0.274680	-6.307142	0.032328	-0.171896	-0.626465	0.056737	0.019411	-0.005381
6	0.081488	0.005000	7.102440	-0.272275	-6.356880	0.033693	-0.171213	-0.628499	0.058292	0.015684	0.006538
7	0.086488	0.005000	7.141241	-0.235440	-6.395681	0.035059	-0.170531	-0.630532	0.043105	0.022778	-0.000813
8	0.091488	0.005000	7.177637	-0.271397	-6.324205	0.036424	-0.169848	-0.632565	0.048217	0.013316	0.003544
9	0.096488	0.005000	7.214033	-0.274680	-6.317640	0.037790	-0.169165	-0.634598	0.039185	0.017833	-0.001651
10	0.101488	0.005000	7.180920	-0.274680	-6.338939	0.039155	-0.168482	-0.636631	0.050001	0.011779	0.004768
11	0.106488	0.005000	7.236679	-0.168321	-6.289761	0.040521	-0.167800	-0.638664	0.037845	0.010996	0.003191
12	0.111488	0.005000	7.180920	-0.192827	-6.317640	0.041886	-0.167117	-0.640697	0.049928	0.009452	-0.002782
13	0.116488	0.005000	7.141680	-0.196200	-6.278400	0.043252	-0.166434	-0.642730	0.047652	0.013336	0.005948
14	0.121488	0.005000	7.160483	-0.234895	-6.181117	0.044617	-0.165751	-0.644763	0.027813	0.020391	0.002203
15	0.126488	0.005000	7.119143	-0.268847	-6.295103	0.045078	-0.165069	-0.644326	0.049741	0.009580	0.008802
16	0.131488	0.005000	7.127551	-0.378271	-6.278400	0.045419	-0.164386	-0.643564	0.043230	0.012321	0.007611
17	0.136488	0.005000	7.125010	-0.319305	-6.233775	0.045760	-0.163703	-0.642802	0.037283	0.007749	0.006302
18	0.141488	0.005000	7.211719	-0.274680	-6.435360	0.046102	-0.163020	-0.642039	0.034332	0.012010	0.007575
19	0.146488	0.005000	7.214563	-0.274680	-6.306446	0.046443	-0.162337	-0.641277	0.027156	0.015013	0.010032
20	0.151488	0.005000	7.102440	-0.193447	-6.244666	0.046785	-0.161655	-0.640514	0.034050	0.011736	0.013271
21	0.156488	0.005000	7.180738	-0.235258	-6.239342	0.047126	-0.160972	-0.639752	0.040050	0.018123	0.004358
22	0.161488	0.005000	7.141680	-0.311410	-6.351860	0.047467	-0.160289	-0.638990	0.027749	0.012320	0.003323
23	0.166488	0.005000	7.107765	-0.235440	-6.199920	0.047809	-0.159606	-0.638227	0.024820	0.013898	0.019472
24	0.171488	0.005000	7.141680	-0.266511	-6.216257	0.048150	-0.158923	-0.637465	0.022723	0.013270	0.008133
25	0.176488	0.005000	7.124465	-0.246453	-6.267387	0.048492	-0.158241	-0.636702	0.029550	0.016799	0.010452
26	0.181488	0.005000	7.155537	-0.286207	-6.266873	0.048833	-0.157558	-0.635940	0.025351	0.021075	0.005192
27	0.186488	0.005000	7.180920	-0.257980	-6.244999	0.049174	-0.156875	-0.635178	0.026953	0.019030	0.021130
28	0.191488	0.005000	7.220160	-0.157588	-6.297706	0.047770	-0.158636	-0.634123	0.048574	0.020259	0.009279
29	0.196488	0.005000	7.185519	-0.196200	-6.282999	0.045836	-0.161140	-0.632979	0.040955	0.017454	0.010587
30	0.201488	0.005000	7.166443	-0.235440	-6.268113	0.043901	-0.163643	-0.631836	0.038132	0.017503	0.013393
31	0.206488	0.005000	7.153313	-0.216516	-6.294374	0.041967	-0.166146	-0.630692	0.031673	0.011779	0.009349
32	0.211488	0.005000	7.141680	-0.165749	-6.239160	0.040032	-0.168650	-0.629548	0.038032	0.017334	0.014681
33	0.216488	0.005000	7.147625	-0.235440	-6.278400	0.038098	-0.171153	-0.628405	0.032858	0.018512	0.011661
34	0.221488	0.005000	7.180920	-0.239010	-6.274830	0.036164	-0.173657	-0.627261	0.030719	0.016433	0.015698
35	0.226488	0.005000	7.181646	-0.158412	-6.200646	0.034229	-0.176160	-0.626118	0.035836	0.022020	0.007773
36	0.231488	0.005000	7.108793	-0.198318	-6.239160	0.032295	-0.178664	-0.624974	0.036334	0.016728	0.006401
37	0.236488	0.005000	7.215198	-0.122682	-6.273438	0.030360	-0.181167	-0.623830	0.037061	0.013030	0.021117
38	0.241488	0.005000	7.188726	-0.180589	-6.223549	0.028426	-0.183670	-0.622687	0.036451	0.019010	0.016904
39	0.246488	0.005000	7.191235	-0.117720	-6.228845	0.026491	-0.186174	-0.621543	0.045404	0.019757	0.019635
40	0.251488	0.005000	7.115480	-0.156960	-6.252442	0.024557	-0.188677	-0.620400	0.042457	0.011787	0.017412
41	0.256488	0.005000	7.094967	-0.266269	-6.388647	0.024473	-0.188590	-0.620331	0.051484	0.016969	0.013612
42	0.261488	0.005000	6.986505	-0.252382	-6.375607	0.025384	-0.187110	-0.620839	0.046761	0.017865	0.015960
43	0.266488	0.005000	7.077607	-0.196200	-6.278400	0.026294	-0.185631	-0.621347	0.039467	0.015637	0.011516
44	0.271488	0.005000	7.126386	-0.202841	-6.302346	0.027204	-0.184152	-0.621856	0.050589	0.017161	0.013995
45	0.276488	0.005000	7.061309	-0.183750	-6.292741	0.028114	-0.182672	-0.622364	0.042043	0.018858	0.007259
46	0.281488	0.005000	7.092017	-0.127326	-6.219948	0.029025	-0.181193	-0.622872	0.061483	0.009248	0.010648
47	0.286488	0.005000	7.102440	-0.189438	-6.155249	0.029935	-0.179714	-0.623380	0.049901	0.015276	0.019127
48	0.291488	0.005000	7.111184	-0.235440	-6.247904	0.030845	-0.178235	-0.623889	0.044608	0.015515	0.010436
49	0.296488	0.005000	7.100912	-0.196200	-6.278400	0.031756	-0.176755	-0.624397	0.049921	0.017239	0.020779
50	0.301488	0.005000	7.101124	-0.158276	-6.202552	0.032666	-0.175276	-0.624905	0.044239	0.008153	0.012453
51	0.306488	0.005000	7.137520	-0.243760	-6.255800	0.033576	-0.173797	-0.625414	0.046508	0.007194	0.010323
52	0.311488	0.005000	7.134676	-0.131728	-6.310636	0.034487	-0.172317	-0.625922	0.057884	0.011823	0.017608
53	0.316488	0.005000	7.081958	-0.186821	-6.356880	0.035397	-0.170838	-0.626430	0.058131	0.011969	0.004884
54	0.321488	0.005000	7.102440	-0.183977	-6.251383	0.035943	-0.169784	-0.627210	0.052593	0.014596	0.019665
55	0.326488	0.005000	7.141680	-0.220373	-6.254227	0.036170	-0.169102	-0.628227	0.055318	0.015586	0.002863
56	0.331488	0.005000	7.159591	-0.196200	-6.199920	0.036398	-0.168419	-0.629243	0.055804	0.016930	0.010644
57	0.336488	0.005000	7.162218	-0.177498	-6.164353	0.036625	-0.167736	-0.630260	0.049868	0.017304	0.011082
58	0.341488	0.005000	7.157775	-0.156960	-6.255255	0.036853	-0.167053	-0.631276	0.046386	0.009636	0.020179
59	0.346488	0.005000	7.180406	-0.143709	-6.212657	0.037080	-0.166371	-0.632293	0.040245	0.017747	0.020294
60	0.351488	0.005000	7.123255	-0.206608	-6.163070	0.037308	-0.165688	-0.633309	0.052721	0.015110	0.009404
61	0.356488	0.005000	7.180920	-0.243004	-6.239160	0.037536	-0.165005	-0.634326	0.042225	0.018599	0.008534
62	0.361488	0.005000	7.180920	-0.191423	-6.209474	0.037763	-0.164322	-0.635342	0.043651	0.024532	0.012598
63	0.366488	0.005000	7.100095	-0.191511	-6.315295	0.037991	-0.163640	-0.636359	0.054923	0.027077	0.012883
64	0.371488	0.005000	7.063200	-0.117720	-6.317141	0.038218	-0.162957	-0.637375	0.051876	0.014658	0.020145
65	0.376488	0.005000	7.177577	-0.156960	-6.242503	0.038446	-0.162274	-0.638392	0.059115	0.013641	0.007025
66	0.381488	0.005000	7.259400	-0.229253	-6.272213	0.038674	-0.161591	-0.639408	0.056328	0.010827	0.012133
67	0.386488	0.005000	7.238222	-0.313920	-6.308609	0.038901	-0.161194	-0.639947	0.022711	0.019165	0.006017
68	0.391488	0.005000	7.164768	-0.196200	-6.266856	0.039129	-0.161194	-0.639820	0.058313	0.021448	0.012482
69	0.396488	0.005000	7.166670	-0.156960	-6.278400	0.039356	-0.161194	-0.639693	0.060676	0.024935	0.012483
70	0.401488	0.005000	7.175868	-0.156960	-6.182826	0.039583	-0.161194	-0.639566	0.054133	0.018258	0.014799
71	0.406488	0.005000	7.063200	-0.176262	-6.259733	0.039811	-0.161194	-0.639439	0.050756	0.018976	0.012875
72	0.411488	0.005000	7.085982	-0.196200	-6.206243	0.040038	-0.161194	-0.639312	0.048955	0.010780	0.000069
73	0.416488	0.005000	7.143761	-0.156960	-6.174454	0.040266	-0.161194	-0.639185	0.053491	0.013560	-0.003285
74	0.421488	0.005000	7.208936	-0.145736	-6.199920	0.040493	-0.161194	-0.639058	0.056929	0.021556	0.001942
75	0.426488	0.005000	7.180920	-0.056001	-6.177441	0.040721	-0.161194	-0.638931	0.064883	0.020452	-0.004560
76	0.431488	0.005000	7.287567	-0.156960	-6.278400	0.040948	-0.161194	-0.638804	0.051687	0.017290	0.003697
77	0.436488	0.005000	7.220160	-0.238602	-6.196758	0.041176	-0.161194	-0.638677	0.060723	0.020406	0.004925
78	0.441488	0.005000	7.259718	-0.235440	-6.200873	0.041403	-0.161194	-0.638550	0.062289	0.014326	0.010247
79	0.446488	0.005000	7.225212	-0.125299	-6.207499	0.041631	-0.161194	-0.638423	0.062684	0.015624	0.003854
80	0.451488	0.005000	7.152420	-0.240810	-6.306900	0.041892	-0.161328	-0.638521	0.054880	0.016157	0.009284
81	0.456488	0.005000	7.063200	-0.204051	-6.239160	0.042233	-0.161784	-0.639156	0.063163	0.026709	-0.002955
82	0.461488	0.005000	7.045168	-0.185596	-6.189316	0.042575	-0.162239	-0.639791	0.055505	0.012829	0.003242
83	0.466488	0.005000	7.114784	-0.091928	-6.148336	0.042916	-0.162694	-0.640427	0.040685	0.019378	0.007569
84	0.471488	0.005000	7.118732	-0.111064	-6.262108	0.043257	-0.163149	-0.641062	0.042761	0.018706	0.006161
85	0.476488	0.005000	7.181888	-0.155992	-6.316672	0.043599	-0.163604	-0.641698	0.049280	0.012800	-0.002511
86	0.481488	0.005000	7.141680	-0.196200	-6.278400	0.043940	-0.164059	-0.642333	0.040926	0.023457	0.000979
87	0.486488	0.005000	7.180920	-0.220555	-6.278400	0.044282	-0.164514	-0.642968	0.067684	0.020864	0.000561
88	0.491488	0.005000	7.205003	-0.169001	-6.157564	0.044623	-0.164970	-0.643604	0.058043	0.017406	0.002536
89	0.496488	0.005000	7.190117	-0.187003	-6.266752	0.044964	-0.165425	-0.644239	0.050091	0.013122	0.002298
90	0.501488	0.005000	7.233016	-0.229012	-6.291256	0.045306	-0.165880	-0.644874	0.042571	0.013612	0.010317
91	0.506488	0.005000	7.145643	-0.239403	-6.344990	0.045647	-0.166335	-0.645510	0.052337	0.011207	0.003975
92	0.511488	0.005000	7.183159	-0.233201	-6.165158	0.045989	-0.166790	-0.646145	0.054583	0.015416	0.011157
93	0.516488	0.005000	7.259400	-0.156960	-6.317640	0.046269	-0.167062	-0.646644	0.068237	0.013945	0.010890
94	0.521488	0.005000	7.224728	-0.196200	-6.322208	0.046269	-0.166493	-0.646517	0.058182	0.012656	0.002945
95	0.526488	0.005000	7.244575	-0.149548	-6.270988	0.046269	-0.165924	-0.646390	0.059161	0.014987	0.000398
96	0.531488	0.005000	7.141680	-0.215775	-6.307762	0.046269	-0.165355	-0.646263	0.046726	0.012612	0.006645
97	0.536488	0.005000	7.220160	-0.091111	-6.159334	0.046269	-0.164786	-0.646136	0.059681	0.004129	0.009814
98	0.541488	0.005000	7.204685	-0.141485	-6.223685	0.046269	-0.164217	-0.646009	0.058667	0.012083	0.004166
99	0.546488	0.005000	7.098900	-0.132030	-6.299790	0.046269	-0.163648	-0.645882	0.064478	0.010017	0.012847
100	0.551488	0.005000	7.100292	-0.175506	-6.239160	0.046269	-0.163079	-0.645755	0.056821	0.015680	0.002542
101	0.556488	0.005000	7.165218	-0.156960	-6.278400	0.046269	-0.162510	-0.645628	0.063604	0.011251	0.005595
102	0.561488	0.005000	7.154538	-0.170484	-6.291258	0.046269	-0.161942	-0.645500	0.065033	0.012066	0.010392
103	0.566488	0.005000	7.201183	-0.177223	-6.141703	0.046269	-0.161373	-0.645373	0.052321	0.023357	0.002212
104	0.571488	0.005000	7.251776	-0.172208	-6.215168	0.046269	-0.160804	-0.645246	0.050653	0.017603	0.009023
105	0.576488	0.005000	7.284299	-0.235440	-6.287960	0.046269	-0.160235	-0.645119	0.045689	0.020723	0.006440
106	0.581488	0.005000	7.222096	-0.233504	-6.239160	0.046269	-0.159694	-0.645000	0.063301	0.014494	0.010305
107	0.586488	0.005000	7.182735	-0.196200	-6.047498	0.046269	-0.159580	-0.645000	0.047907	0.009820	0.017346
108	0.591488	0.005000	7.259400	-0.125223	-6.199920	0.046269	-0.159466	-0.645000	0.048904	0.010114	0.007958
109	0.596488	0.005000	7.187047	-0.156960	-6.094453	0.046269	-0.159353	-0.645000	0.061973	0.011761	0.018975
110	0.601488	0.005000	7.241459	-0.217499	-6.199920	0.046269	-0.159239	-0.645000	0.045928	0.015626	0.007869
111	0.606488	0.005000	7.192734	-0.184386	-6.133254	0.046269	-0.159125	-0.645000	0.066095	0.001871	0.005186
112	0.611488	0.005000	7.146415	-0.220782	-6.214578	0.046269	-0.159011	-0.645000	0.054708	0.004716	0.009447
113	0.616488	0.005000	7.068343	-0.235440	-6.182872	0.046269	-0.158898	-0.645000	0.060541	0.012253	0.013744
114	0.621488	0.005000	7.140591	-0.176852	-6.141332	0.046269	-0.158784	-0.645000	0.056705	0.010891	0.021485
115	0.626488	0.005000	7.118944	-0.189968	-6.193688	0.046269	-0.158670	-0.645000	0.053339	0.006583	0.014012
116	0.631488	0.005000	7.102440	-0.220040	-6.264740	0.046269	-0.158556	-0.645000	0.047342	0.005956	0.018112
117	0.636488	0.005000	7.141680	-0.174568	-6.249976	0.046269	-0.158443	-0.645000	0.055107	0.010264	0.011764
118	0.641488	0.005000	7.172479	-0.156960	-6.356880	0.046269	-0.158329	-0.645000	0.068112	0.015462	0.015426
119	0.646488	0.005000	7.141680	-0.173751	-6.317640	0.046269	-0.158215	-0.645000	0.059736	0.011211	0.021030
120	0.651488	0.005000	7.186426	-0.162466	-6.275647	0.046484	-0.158101	-0.645000	0.052224	0.021927	0.007503
121	0.656488	0.005000	7.141952	-0.196291	-6.121712	0.046712	-0.157988	-0.645000	0.060052	0.008055	0.015120
122	0.661488	0.005000	7.177985	-0.196200	-6.199920	0.046939	-0.157874	-0.645000	0.049754	0.010433	0.016381
123	0.666488	0.005000	7.254075	-0.235440	-6.171330	0.047167	-0.157760	-0.645000	0.051750	0.007586	0.019845
124	0.671488	0.005000	7.197257	-0.266511	-6.144343	0.047395	-0.157646	-0.645000	0.051668	0.006481	0.021280
125	0.676488	0.005000	7.209147	-0.235440	-6.188907	0.047622	-0.157532	-0.645000	0.055947	0.000955	0.023880
126	0.681488	0.005000	7.192447	-0.221583	-6.213777	0.047850	-0.157418	-0.645000	0.052325	-0.002977	0.026743
127	0.686488	0.005000	7.119140	-0.167821	-6.278400	0.048077	-0.157305	-0.645000	0.050947	0.005982	0.021236
128	0.691488	0.005000	7.161845	-0.177125	-6.141605	0.048305	-0.157191	-0.645000	0.056307	0.010521	0.020402
129	0.696488	0.005000	7.180920	-0.213521	-6.156081	0.048532	-0.157077	-0.645000	0.044816	0.017567	0.025299
130	0.701488	0.005000	7.249113	-0.260203	-6.303163	0.048760	-0.156963	-0.645000	0.052624	0.007531	0.027255
131	0.706488	0.005000	7.169287	-0.172934	-6.250793	0.048988	-0.156849	-0.645000	0.043414	0.007622	0.018645
132	0.711488	0.005000	7.120018	-0.209073	-6.247949	0.049215	-0.156735	-0.645000	0.059949	0.011671	0.023512
133	0.716488	0.005000	7.232194	-0.162977	-6.199920	0.049254	-0.156810	-0.645000	0.060952	0.005306	0.019859
134	0.721488	0.005000	7.180920	-0.271110	-6.224880	0.049254	-0.156924	-0.645000	0.053065	0.009911	0.014629
135	0.726488	0.005000	7.218708	-0.236166	-6.162132	0.049254	-0.157038	-0.645000	0.058886	-0.003602	0.030004
136	0.731488	0.005000	7.141680	-0.311802	-6.202038	0.049254	-0.157152	-0.645000	0.054798	0.007831	0.022211
137	0.736488	0.005000	7.215198	-0.166883	-6.165642	0.049254	-0.157266	-0.645000	0.054845	0.005383	0.012941
138	0.741488	0.005000	7.180920	-0.164766	-6.192114	0.049254	-0.157380	-0.645000	0.054067	0.000327	0.022194
139	0.746488	0.005000	7.249085	-0.274680	-6.181310	0.049254	-0.157493	-0.645000	0.071560	0.004991	0.014145
140	0.751488	0.005000	7.193960	-0.287841	-6.239160	0.049254	-0.157607	-0.645000	0.081170	0.003042	0.034074
141	0.756488	0.005000	7.110851	-0.149487	-6.199920	0.049254	-0.157721	-0.645000	0.052454	0.010419	0.024300
142	0.761488	0.005000	7.122953	-0.175687	-6.196350	0.049254	-0.157835	-0.645000	0.051238	0.001960	0.030445
143	0.766488	0.005000	7.273807	-0.178318	-6.185513	0.049254	-0.157949	-0.645000	0.046117	0.009480	0.028723
144	0.771488	0.005000	7.244106	-0.124361	-6.152027	0.049254	-0.158062	-0.645000	0.060255	0.009940	0.027737
145	0.776488	0.005000	7.180920	-0.222990	-6.160680	0.049254	-0.158176	-0.645000	0.054780	0.006954	0.024651
146	0.781488	0.005000	7.102440	-0.127326	-6.170286	0.049092	-0.158777	-0.645000	0.073157	0.011414	0.014739
147	0.786488	0.005000	7.109202	-0.189438	-6.278400	0.048864	-0.159573	-0.645000	0.061681	0.009224	0.014278
148	0.791488	0.005000	7.129789	-0.200164	-6.168608	0.048637	-0.160369	-0.645000	0.065168	0.013655	0.018743
149	0.796488	0.005000	7.179392	-0.235440	-6.237632	0.048409	-0.161165	-0.645000	0.069342	0.014708	0.023555
150	0.801488	0.005000	7.179604	-0.159592	-6.161996	0.048182	-0.161961	-0.645000	0.052990	0.009966	0.031076
151	0.806488	0.005000	7.216000	-0.239600	-6.164840	0.047954	-0.162758	-0.645000	0.048400	0.013181	0.024833
152	0.811488	0.005000	7.259400	-0.267676	-6.082200	0.047727	-0.163554	-0.645000	0.050030	0.005791	0.026982
153	0.816488	0.005000	7.239856	-0.255136	-6.219464	0.047500	-0.164350	-0.645000	0.059483	0.011566	0.019305
154	0.821488	0.005000	7.193291	-0.235440	-6.135939	0.047272	-0.165146	-0.645000	0.065286	0.021304	0.018482
155	0.826488	0.005000	7.135720	-0.274680	-6.239160	0.047045	-0.165942	-0.645000	0.062132	0.020224	0.022916
156	0.831488	0.005000	7.141680	-0.153541	-6.224668	0.046817	-0.166738	-0.645000	0.054225	0.017949	0.024453
157	0.836488	0.005000	7.102440	-0.154691	-6.160680	0.046590	-0.167535	-0.645000	0.058125	0.022301	0.024098
158	0.841488	0.005000	7.071157	-0.196200	-6.317640	0.046362	-0.168331	-0.645000	0.062381	0.019636	0.010819
159	0.846488	0.005000	7.115238	-0.196200	-6.356880	0.046336	-0.168321	-0.644925	0.065393	0.018626	0.009816
160	0.851488	0.005000	7.190990	-0.216340	-6.278400	0.046450	-0.167752	-0.644798	0.046251	0.023122	0.014989
161	0.856488	0.005000	7.094876	-0.250567	-6.325204	0.046564	-0.167182	-0.644671	0.046456	0.017723	0.013744
162	0.861488	0.005000	7.067920	-0.348440	-6.317640	0.046678	-0.166613	-0.644543	0.051553	0.018435	0.017169
163	0.866488	0.005000	7.104316	-0.312044	-6.239160	0.046791	-0.166044	-0.644416	0.048011	0.024215	0.008093
164	0.871488	0.005000	7.103408	-0.198136	-6.200888	0.046905	-0.165475	-0.644289	0.045922	0.024199	0.012002
165	0.876488	0.005000	7.030646	-0.192857	-6.343508	0.047019	-0.164905	-0.644162	0.028886	0.027021	-0.000797
166	0.881488	0.005000	7.247026	-0.202387	-6.317640	0.047133	-0.164336	-0.644035	0.039855	0.029451	0.004665
167	0.886488	0.005000	7.159742	-0.256618	-6.296462	0.047247	-0.163767	-0.643908	0.036721	0.031483	0.009289
168	0.891488	0.005000	7.059585	-0.317535	-6.254650	0.047360	-0.163198	-0.643781	0.045605	0.033708	-0.000471
169	0.896488	0.005000	7.073002	-0.215835	-6.293119	0.047474	-0.162628	-0.643653	0.048348	0.024322	0.011217
170	0.901488	0.005000	7.097388	-0.235440	-6.222066	0.047588	-0.162059	-0.643526	0.039530	0.032230	0.002831
171	0.906488	0.005000	7.063835	-0.235440	-6.297702	0.047702	-0.161490	-0.643399	0.044309	0.023086	0.003900
172	0.911488	0.005000	7.102440	-0.196200	-6.193597	0.047597	-0.161085	-0.643577	0.037238	0.031705	0.001139
173	0.916488	0.005000	7.155294	-0.196200	-6.332858	0.047256	-0.160857	-0.644085	0.053105	0.034519	-0.004850
174	0.921488	0.005000	7.163221	-0.206971	-6.299941	0.046915	-0.160630	-0.644594	0.034690	0.028277	0.010120
175	0.926488	0.005000	7.133300	-0.297159	-6.239160	0.046573	-0.160402	-0.645102	0.043721	0.033209	0.007308
176	0.931488	0.005000	7.180920	-0.240977	-6.222550	0.046232	-0.160174	-0.645610	0.045307	0.026726	0.013236
177	0.936488	0.005000	7.212082	-0.240825	-6.202613	0.045891	-0.159947	-0.646118	0.032988	0.028377	0.000555
178	0.941488	0.005000	7.141529	-0.274831	-6.200071	0.045549	-0.159719	-0.646627	0.029351	0.029912	0.000278
179	0.946488	0.005000	7.141680	-0.271685	-6.236165	0.045208	-0.159492	-0.647135	0.042785	0.025530	-0.002623
180	0.951488	0.005000	7.169242	-0.241279	-6.205759	0.044867	-0.159264	-0.647643	0.040101	0.033019	-0.014797
181	0.956488	0.005000	7.172706	-0.313920	-6.239160	0.044525	-0.159037	-0.648152	0.035318	0.022330	-0.000845
182	0.961488	0.005000	7.226226	-0.285738	-6.317640	0.044184	-0.158809	-0.648660	0.027866	0.033035	-0.000113
183	0.966488	0.005000	7.234062	-0.274680	-6.264498	0.043843	-0.158581	-0.649168	0.041014	0.023692	0.007155
184	0.971488	0.005000	7.220160	-0.212946	-6.261654	0.043501	-0.158354	-0.649677	0.029432	0.035134	-0.003026
185	0.976488	0.005000	7.180859	-0.215790	-6.239039	0.043449	-0.158540	-0.649861	0.022228	0.028306	-0.001296
186	0.981488	0.005000	7.089900	-0.174220	-6.195200	0.043904	-0.159450	-0.649480	0.041022	0.022489	-0.004762
187	0.986488	0.005000	7.160105	-0.171376	-6.239160	0.044359	-0.160360	-0.649099	0.034163	0.028127	-0.012426
188	0.991488	0.005000	7.157775	-0.168532	-6.144585	0.044814	-0.161269	-0.648718	0.046567	0.023653	-0.007166
189	0.996488	0.005000	7.141680	-0.226712	-6.160680	0.045269	-0.162179	-0.648337	0.032642	0.029814	0.006495
190	1.001488	0.005000	7.114209	-0.235440	-6.199920	0.045724	-0.163089	-0.647956	0.054624	0.020817	-0.000659
191	1.006488	0.005000	7.102440	-0.268525	-6.272245	0.046179	-0.163999	-0.647575	0.052136	0.025586	0.002911
192	1.011488	0.005000	7.140349	-0.157626	-6.122771	0.046634	-0.164909	-0.647194	0.044000	0.029269	0.004760
193	1.016488	0.005000	7.137323	-0.270323	-6.311105	0.047089	-0.165819	-0.646813	0.044453	0.033699	0.008121
194	1.021488	0.005000	7.170876	-0.196200	-6.273378	0.047544	-0.166729	-0.646432	0.032169	0.027699	-0.006771
195	1.026488	0.005000	7.243668	-0.274680	-6.286266	0.047999	-0.167639	-0.646051	0.035594	0.023237	0.002479
196	1.031488	0.005000	7.162433	-0.245816	-6.296887	0.048454	-0.168549	-0.645670	0.028978	0.026904	0.006516
197	1.036488	0.005000	7.050100	-0.248540	-6.291500	0.048909	-0.169458	-0.645289	0.036609	0.035851	0.002120
198	1.041488	0.005000	7.086496	-0.196200	-6.333584	0.049172	-0.169875	-0.645000	0.062498	0.026591	-0.000016
199	1.046488	0.005000	7.201387	-0.196200	-6.317640	0.048830	-0.168737	-0.645000	0.049066	0.035911	-0.007025
200	1.051488	0.005000	7.198543	-0.139337	-6.352886	0.048489	-0.167599	-0.645000	0.061281	0.036959	0.007605
201	1.056488	0.005000	7.195699	-0.181421	-6.288081	0.048148	-0.166461	-0.645000	0.026204	0.039471	0.005213
202	1.061488	0.005000	7.102440	-0.129795	-6.239160	0.047806	-0.165323	-0.645000	0.045219	0.030343	0.002623
203	1.066488	0.005000	7.190465	-0.186655	-6.229615	0.047465	-0.164185	-0.645000	0.049029	0.036861	-0.001648
204	1.071488	0.005000	7.266101	-0.163661	-6.278400	0.047123	-0.163047	-0.645000	0.044696	0.042388	0.013982
205	1.076488	0.005000	7.251685	-0.196200	-6.133012	0.046782	-0.161910	-0.645000	0.040008	0.038671	0.017150
206	1.081488	0.005000	7.143707	-0.157974	-6.202961	0.046440	-0.160772	-0.645000	0.027771	0.039169	0.012820
207	1.086488	0.005000	7.220160	-0.196200	-6.392459	0.046099	-0.159634	-0.645000	0.037749	0.044525	0.013405
208	1.091488	0.005000	7.141680	-0.156960	-6.286811	0.045758	-0.158496	-0.645000	0.036196	0.042493	0.009602
209	1.096488	0.005000	7.141680	-0.156960	-6.310591	0.045416	-0.157358	-0.645000	0.047955	0.045067	0.002809
210	1.101488	0.005000	7.171027	-0.186307	-6.287960	0.045075	-0.156220	-0.645000	0.040026	0.046885	0.008122
211	1.106488	0.005000	7.220160	-0.209966	-6.226423	0.044790	-0.155267	-0.645016	0.037089	0.047090	0.009693
212	1.111488	0.005000	7.172288	-0.283312	-6.350207	0.044904	-0.155608	-0.645143	0.043486	0.044012	0.008277
213	1.116488	0.005000	7.138382	-0.256709	-6.296371	0.045018	-0.155949	-0.645270	0.030870	0.057635	0.008272
214	1.121488	0.005000	7.102440	-0.196200	-6.317640	0.045132	-0.156290	-0.645397	0.040553	0.051409	0.008924
215	1.126488	0.005000	7.118021	-0.172541	-6.231082	0.045245	-0.156632	-0.645524	0.029556	0.060852	0.000960
216	1.131488	0.005000	7.076658	-0.144069	-6.265509	0.045359	-0.156973	-0.645651	0.028552	0.060254	0.006497
217	1.136488	0.005000	7.149834	-0.156960	-6.210282	0.045473	-0.157314	-0.645778	0.027301	0.068421	-0.003154
218	1.141488	0.005000	7.102440	-0.173645	-6.214956	0.045587	-0.157656	-0.645905	0.036392	0.069364	-0.000163
219	1.146488	0.005000	7.093091	-0.200874	-6.234486	0.045701	-0.157997	-0.646033	0.048526	0.064319	0.003111
220	1.151488	0.005000	7.065052	-0.194348	-6.315788	0.045815	-0.158338	-0.646160	0.033554	0.065341	0.001217
221	1.156488	0.005000	7.141120	-0.118280	-6.394441	0.045928	-0.158680	-0.646287	0.033039	0.066664	-0.002594
222	1.161488	0.005000	7.177516	-0.192796	-6.206727	0.046042	-0.159021	-0.646414	0.031999	0.064051	0.000629
223	1.166488	0.005000	7.114935	-0.142710	-6.179423	0.046156	-0.159362	-0.646541	0.023008	0.074903	-0.002680
224	1.171488	0.005000	7.063200	-0.168926	-6.281274	0.046269	-0.159699	-0.646668	0.045048	0.073830	-0.001245
225	1.176488	0.005000	7.063200	-0.184265	-6.290335	0.046269	-0.159472	-0.646795	0.029986	0.073007	-0.000961
226	1.181488	0.005000	7.009181	-0.166641	-6.185141	0.046269	-0.159244	-0.646922	0.039181	0.067109	-0.006391
227	1.186488	0.005000	7.203006	-0.139806	-6.015943	0.046269	-0.159016	-0.647049	0.041414	0.077139	-0.002349
228	1.191488	0.005000	7.200918	-0.097722	-6.120684	0.046269	-0.158789	-0.647176	0.033054	0.078034	-0.002437
229	1.196488	0.005000	7.220160	-0.140562	-6.082200	0.046269	-0.158561	-0.647303	0.050594	0.069053	0.004701
230	1.201488	0.005000	7.286508	-0.092034	-6.056514	0.046269	-0.158334	-0.647430	0.040902	0.066769	-0.011165
231	1.206488	0.005000	7.377120	-0.096300	-6.092910	0.046269	-0.158106	-0.647557	0.049877	0.061413	-0.001607
232	1.211488	0.005000	7.306963	-0.117720	-6.090523	0.046269	-0.157879	-0.647684	0.046140	0.078642	-0.002402
233	1.216488	0.005000	7.377120	-0.156960	-6.183446	0.046269	-0.157651	-0.647811	0.048539	0.067627	-0.006233
234	1.221488	0.005000	7.345822	-0.156960	-6.045607	0.046269	-0.157423	-0.647938	0.049409	0.066977	-0.010076
235	1.226488	0.005000	7.377513	-0.156960	-6.160287	0.046269	-0.157196	-0.648065	0.047652	0.068826	-0.008691
236	1.231488	0.005000	7.304721	-0.190119	-6.088281	0.046269	-0.156968	-0.648192	0.052175	0.056963	-0.007929
237	1.236488	0.005000	7.253906	-0.123214	-6.149692	0.046269	-0.156741	-0.648319	0.051454	0.061925	-0.004683
238	1.241488	0.005000	7.267675	-0.179651	-6.107024	0.046066	-0.156412	-0.648560	0.035207	0.069391	-0.006098
239	1.246488	0.005000	7.220160	-0.128839	-5.997836	0.045838	-0.156070	-0.648814	0.039620	0.058032	0.001530
240	1.251488	0.005000	7.270715	-0.207515	-6.056922	0.045611	-0.155729	-0.649068	0.045610	0.053876	-0.007792
241	1.256488	0.005000	7.298640	-0.173766	-6.177486	0.045383	-0.155387	-0.649323	0.056670	0.050674	-0.003269
242	1.261488	0.005000	7.299517	-0.236317	-6.101381	0.045155	-0.155046	-0.649577	0.060881	0.054430	-0.011511
243	1.266488	0.005000	7.337880	-0.235440	-6.099415	0.044928	-0.154704	-0.649831	0.055656	0.049781	-0.003054
244	1.271488	0.005000	7.348378	-0.245938	-6.199920	0.044700	-0.154363	-0.650086	0.062265	0.061785	-0.016579
245	1.276488	0.005000	7.208633	-0.251626	-6.160680	0.044472	-0.154021	-0.650340	0.064350	0.055942	-0.010224
246	1.281488	0.005000	7.298640	-0.196200	-6.061234	0.044245	-0.153680	-0.650594	0.066641	0.063085	-0.010607
247	1.286488	0.005000	7.292347	-0.196200	-6.127733	0.044017	-0.153338	-0.650848	0.081466	0.063304	-0.019498
248	1.291488	0.005000	7.223609	-0.196200	-6.228813	0.043789	-0.152997	-0.651103	0.065719	0.057468	-0.019382
249	1.296488	0.005000	7.260005	-0.235440	-6.004325	0.043561	-0.152655	-0.651357	0.069776	0.054895	-0.016841
250	1.301488	0.005000	7.187636	-0.272441	-6.042960	0.043334	-0.152314	-0.651611	0.069284	0.049469	-0.021102
251	1.306488	0.005000	7.185534	-0.205428	-6.156066	0.043017	-0.152506	-0.651568	0.054415	0.059343	-0.032426
252	1.311488	0.005000	7.220160	-0.188742	-6.209329	0.042676	-0.152847	-0.651441	0.077185	0.064252	-0.036874
253	1.316488	0.005000	7.298640	-0.167262	-6.199920	0.042334	-0.153188	-0.651314	0.081330	0.061064	-0.027245
254	1.321488	0.005000	7.298640	-0.170106	-6.134586	0.041993	-0.153530	-0.651186	0.070099	0.066736	-0.035126
255	1.326488	0.005000	7.274936	-0.204369	-6.121440	0.041652	-0.153871	-0.651059	0.074609	0.062075	-0.032397
256	1.331488	0.005000	7.337880	-0.194149	-6.082200	0.041310	-0.154212	-0.650932	0.054963	0.065485	-0.034516
257	1.336488	0.005000	7.341087	-0.196200	-6.097010	0.040969	-0.154554	-0.650805	0.066271	0.063009	-0.023460
258	1.341488	0.005000	7.298640	-0.211373	-6.154402	0.040627	-0.154895	-0.650678	0.059341	0.063666	-0.018448
259	1.346488	0.005000	7.310969	-0.223111	-6.069871	0.040286	-0.155236	-0.650551	0.047890	0.064287	-0.031525
260	1.351488	0.005000	7.337880	-0.215533	-5.955101	0.039945	-0.155578	-0.650424	0.057945	0.055938	-0.039405
261	1.356488	0.005000	7.252290	-0.203310	-6.089310	0.039603	-0.155919	-0.650297	0.043499	0.067574	-0.039314
262	1.361488	0.005000	7.224426	-0.196200	-6.077934	0.039262	-0.156260	-0.650170	0.060747	0.062453	-0.038965
263	1.366488	0.005000	7.295796	-0.119142	-6.079356	0.038920	-0.156602	-0.650043	0.061086	0.061962	-0.031826
264	1.371488	0.005000	7.257978	-0.156960	-5.965902	0.038806	-0.156716	-0.650253	0.053575	0.061392	-0.021594
265	1.376488	0.005000	7.298640	-0.191934	-6.042960	0.038806	-0.156716	-0.650635	0.043982	0.058521	-0.031607
266	1.381488	0.005000	7.259400	-0.189090	-6.003720	0.038806	-0.156716	-0.651016	0.044062	0.065909	-0.045926
267	1.386488	0.005000	7.317973	-0.166914	-6.072246	0.038806	-0.156716	-0.651397	0.048576	0.064351	-0.029553
268	1.391488	0.005000	7.298640	-0.090809	-5.925240	0.038806	-0.156716	-0.651778	0.052641	0.066705	-0.034302
269	1.396488	0.005000	7.253122	-0.102547	-6.027787	0.038806	-0.156716	-0.652159	0.054474	0.068970	-0.043875
270	1.401488	0.005000	7.220160	-0.111306	-5.985703	0.038806	-0.156716	-0.652541	0.043188	0.064857	-0.034415
271	1.406488	0.005000	7.183401	-0.133619	-6.040479	0.038806	-0.156716	-0.652922	0.031527	0.070717	-0.037777
272	1.411488	0.005000	7.235696	-0.086649	-6.019256	0.038806	-0.156716	-0.653303	0.043469	0.073356	-0.038645
273	1.416488	0.005000	7.312497	-0.091172	-6.042960	0.038806	-0.156716	-0.653684	0.033466	0.074118	-0.032127
274	1.421488	0.005000	7.357576	-0.058936	-6.092048	0.038806	-0.156716	-0.654065	0.036772	0.067899	-0.031091
275	1.426488	0.005000	7.298640	-0.124724	-6.107432	0.038806	-0.156716	-0.654447	0.050601	0.067817	-0.031960
276	1.431488	0.005000	7.176306	-0.156960	-5.999106	0.038806	-0.156716	-0.654828	0.040623	0.073768	-0.038326
277	1.436488	0.005000	7.261170	-0.196200	-6.076890	0.038806	-0.156841	-0.655000	0.049221	0.070328	-0.035552
278	1.441488	0.005000	7.222308	-0.234366	-6.002646	0.038806	-0.157068	-0.655000	0.017963	0.080496	-0.028170
279	1.446488	0.005000	7.333962	-0.156960	-6.003720	0.038806	-0.157296	-0.655000	0.030756	0.078545	-0.023387
280	1.451488	0.005000	7.377120	-0.085242	-5.932002	0.038806	-0.157524	-0.655000	0.024964	0.072129	-0.017846
281	1.456488	0.005000	7.307777	-0.117720	-5.964480	0.038806	-0.157751	-0.655000	0.034688	0.065289	-0.018121
282	1.461488	0.005000	7.395696	-0.168941	-6.054941	0.038806	-0.157979	-0.655000	0.031966	0.065017	-0.016326
283	1.466488	0.005000	7.421594	-0.156960	-6.042960	0.038806	-0.158206	-0.655000	0.030742	0.075913	-0.021091
284	1.471488	0.005000	7.259400	-0.096149	-6.042960	0.038806	-0.158434	-0.655000	0.019261	0.075099	-0.014466
285	1.476488	0.005000	7.296855	-0.156960	-6.003720	0.038806	-0.158661	-0.655000	0.014956	0.073858	-0.015238
286	1.481488	0.005000	7.337880	-0.163525	-6.075635	0.038806	-0.158889	-0.655000	0.032789	0.074078	-0.016080
287	1.486488	0.005000	7.416360	-0.064987	-6.186427	0.038806	-0.159117	-0.655000	0.025174	0.069439	-0.004704
288	1.491488	0.005000	7.398419	-0.078480	-6.060901	0.038806	-0.159344	-0.655000	0.014374	0.079766	-0.008906
289	1.496488	0.005000	7.392731	-0.078480	-5.988109	0.038806	-0.159572	-0.655000	0.026245	0.074787	-0.003842
290	1.501488	0.005000	7.382082	-0.034278	-6.052883	0.038364	-0.159898	-0.654177	0.029502	0.072682	-0.007867
291	1.506488	0.005000	7.449247	-0.004236	-6.119322	0.037339	-0.160353	-0.652270	0.018204	0.062821	-0.001523
292	1.511488	0.005000	7.414908	-0.001452	-5.966658	0.036314	-0.160809	-0.650363	0.018633	0.071161	-0.005571
293	1.516488	0.005000	7.449323	-0.042379	-5.997443	0.035290	-0.161264	-0.648456	0.021855	0.064987	-0.003709
294	1.521488	0.005000	7.416360	0.033223	-5.958463	0.034265	-0.161719	-0.646549	0.027344	0.076132	-0.004767
295	1.526488	0.005000	7.503629	-0.060902	-5.964480	0.033240	-0.162175	-0.644642	0.007942	0.066589	-0.013132
296	1.531488	0.005000	7.349513	-0.062506	-6.098174	0.032216	-0.162630	-0.642735	0.016679	0.068298	0.000558
297	1.536488	0.005000	7.352357	-0.064003	-6.071913	0.031191	-0.163086	-0.640828	0.008838	0.074746	-0.003644
298	1.541488	0.005000	7.399039	-0.100399	-5.820242	0.030167	-0.163541	-0.638921	0.019932	0.068858	-0.001075
299	1.546488	0.005000	7.454511	-0.077391	-5.866925	0.029142	-0.163997	-0.637014	0.025996	0.069088	0.004359
300	1.551488	0.005000	7.383897	-0.124497	-5.957703	0.028117	-0.164452	-0.635107	0.035050	0.068804	-0.000858
301	1.556488	0.005000	7.298640	-0.131264	-5.884607	0.027093	-0.164908	-0.633201	0.034127	0.071209	0.001674
302	1.561488	0.005000	7.377120	-0.174175	-5.992707	0.026068	-0.165363	-0.631294	0.035067	0.062488	0.000303
303	1.566488	0.005000	7.337880	-0.148791	-5.972649	0.024970	-0.166075	-0.629918	0.049142	0.059468	-0.001349
304	1.571488	0.005000	7.303965	-0.112395	-5.969805	0.023719	-0.167326	-0.629664	0.036630	0.065226	-0.001491
305	1.576488	0.005000	7.423803	-0.080961	-5.996277	0.022467	-0.168578	-0.629410	0.041960	0.062992	-0.005230
306	1.581488	0.005000	7.417449	-0.117720	-5.886000	0.021215	-0.169830	-0.629156	0.039420	0.057328	0.000491
307	1.586488	0.005000	7.386741	-0.042447	-5.961273	0.019964	-0.171081	-0.628902	0.026078	0.054672	-0.004085
308	1.591488	0.005000	7.494840	-0.112057	-5.863748	0.018712	-0.172333	-0.628648	0.052249	0.055644	0.002734
309	1.596488	0.005000	7.494840	-0.056122	-5.894441	0.017460	-0.173585	-0.628394	0.030555	0.059073	-0.006843
310	1.601488	0.005000	7.388405	-0.134390	-5.869330	0.016209	-0.174836	-0.628140	0.042539	0.047124	-0.004232
311	1.606488	0.005000	7.416360	-0.067498	-5.886000	0.014957	-0.176088	-0.627885	0.042172	0.059865	0.009355
312	1.611488	0.005000	7.416360	-0.039240	-5.947777	0.013705	-0.177340	-0.627631	0.050472	0.053832	0.004542
313	1.616488	0.005000	7.396468	-0.000545	-6.004265	0.012453	-0.178592	-0.627377	0.039971	0.049713	0.007383
314	1.621488	0.005000	7.394168	-0.051145	-5.846760	0.011202	-0.179843	-0.627123	0.038884	0.045420	0.000450
315	1.626488	0.005000	7.412987	-0.106889	-5.846760	0.009950	-0.181095	-0.626869	0.046158	0.035649	0.012092
316	1.631488	0.005000	7.377120	-0.111518	-5.858121	0.008792	-0.182090	-0.626927	0.034016	0.041667	0.012028
317	1.636488	0.005000	7.402670	-0.039240	-5.863793	0.007995	-0.182090	-0.628198	0.037080	0.030395	0.007043
318	1.641488	0.005000	7.515700	-0.006127	-5.952227	0.007199	-0.182090	-0.629469	0.047700	0.040907	0.013555
319	1.646488	0.005000	7.419643	-0.003283	-5.895848	0.006402	-0.182090	-0.630739	0.044256	0.041857	0.015852
320	1.651488	0.005000	7.456039	-0.038801	-5.963603	0.005605	-0.182090	-0.632010	0.057453	0.027741	0.023818
321	1.656488	0.005000	7.421170	0.036835	-5.959670	0.004809	-0.182090	-0.633281	0.057682	0.037086	0.020035
322	1.661488	0.005000	7.494840	0.049738	-6.008969	0.004012	-0.182090	-0.634551	0.065861	0.027680	0.020744
323	1.666488	0.005000	7.517894	0.132681	-5.995627	0.003216	-0.182090	-0.635822	0.050264	0.035614	0.029196
324	1.671488	0.005000	7.398309	0.110264	-6.011176	0.002419	-0.182090	-0.637092	0.064067	0.027514	0.024731
325	1.676488	0.005000	7.285328	0.091096	-5.990408	0.001623	-0.182090	-0.638363	0.057646	0.026884	0.033333
326	1.681488	0.005000	7.282484	0.032312	-6.042960	0.000826	-0.182090	-0.639634	0.067982	0.031636	0.032646
327	1.686488	0.005000	7.280881	0.097480	-5.944240	0.000030	-0.182090	-0.640904	0.079128	0.042020	0.040612
328	1.691488	0.005000	7.390069	0.056636	-6.003720	-0.000767	-0.182090	-0.642175	0.063872	0.035075	0.037777
329	1.696488	0.005000	7.524285	0.088275	-5.959552	-0.001281	-0.181979	-0.643367	0.060438	0.034121	0.041906
330	1.701488	0.005000	7.509755	0.075727	-5.898162	0.001108	-0.180727	-0.643748	0.052199	0.039358	0.049185
331	1.706488	0.005000	7.485522	0.129005	-5.955162	0.003498	-0.179476	-0.644129	0.068714	0.035930	0.038911
332	1.711488	0.005000	7.442651	-0.026291	-5.886000	0.005888	-0.178224	-0.644510	0.078135	0.032233	0.045050
333	1.716488	0.005000	7.369859	0.142438	-6.007351	0.008277	-0.176972	-0.644892	0.078949	0.032465	0.042750
334	1.721488	0.005000	7.377120	0.000000	-6.002464	0.010667	-0.175721	-0.645273	0.078555	0.027023	0.034433
335	1.726488	0.005000	7.452423	-0.075303	-5.926828	0.013057	-0.174469	-0.645654	0.076961	0.026381	0.036195
336	1.731488	0.005000	7.529648	0.000000	-5.855625	0.015446	-0.173217	-0.646035	0.073040	0.031154	0.028850
337	1.736488	0.005000	7.406225	-0.007276	-5.996444	0.017836	-0.171965	-0.646416	0.076869	0.030873	0.029060
338	1.741488	0.005000	7.377120	0.048120	-5.925240	0.020226	-0.170714	-0.646798	0.091267	0.039020	0.034907
339	1.746488	0.005000	7.521585	-0.080235	-5.939490	0.022616	-0.169462	-0.647179	0.094025	0.035222	0.039662
340	1.751488	0.005000	7.557981	-0.078480	-5.971257	0.025005	-0.168210	-0.647560	0.079486	0.037342	0.025056
341	1.756488	0.005000	7.395303	0.002874	-5.846760	0.027395	-0.166959	-0.647941	0.090358	0.037333	0.029259
342	1.761488	0.005000	7.398147	0.114906	-5.831360	0.029785	-0.165707	-0.648322	0.077579	0.040877	0.020504
343	1.766488	0.005000	7.455600	0.056243	-5.744409	0.029962	-0.165229	-0.649075	0.099798	0.032816	0.017331
344	1.771488	0.005000	7.429339	-0.065198	-5.886303	0.030075	-0.164774	-0.649837	0.106204	0.045684	0.015994
345	1.776488	0.005000	7.485045	-0.107925	-5.886000	0.030189	-0.164318	-0.650600	0.083502	0.046001	0.008739
346	1.781488	0.005000	7.455600	-0.103137	-5.871417	0.030303	-0.163863	-0.651363	0.092899	0.048211	0.008221
347	1.786488	0.005000	7.577767	0.039240	-5.803073	0.030417	-0.163407	-0.652126	0.076909	0.053529	0.008728
348	1.791488	0.005000	7.607750	-0.116117	-5.809123	0.030531	-0.162952	-0.652888	0.088386	0.049051	0.004179
349	1.796488	0.005000	7.570839	-0.040480	-5.808760	0.030644	-0.162497	-0.653651	0.094992	0.046820	0.011477
350	1.801488	0.005000	7.640823	-0.071162	-5.732699	0.030758	-0.162041	-0.654414	0.083457	0.056064	0.010638
351	1.806488	0.005000	7.612560	-0.072021	-5.873081	0.030872	-0.161586	-0.655177	0.084260	0.047185	0.020237
352	1.811488	0.005000	7.534080	-0.097086	-5.915937	0.030986	-0.161130	-0.655939	0.093602	0.040898	0.006331
353	1.816488	0.005000	7.482693	-0.156960	-5.795373	0.031100	-0.160675	-0.656702	0.092826	0.034159	0.000803
354	1.821488	0.005000	7.494840	-0.211191	-5.831769	0.031213	-0.160219	-0.657465	0.082257	0.039140	0.007986
355	1.826488	0.005000	7.491270	-0.156960	-5.864595	0.031327	-0.159764	-0.658228	0.085564	0.027306	-0.000084
356	1.831488	0.005000	7.475825	-0.236650	-5.847970	0.031441	-0.159407	-0.657676	0.069599	0.022447	0.011658
357	1.836488	0.005000	7.494840	-0.219269	-5.925240	0.031555	-0.159066	-0.656914	0.067951	0.030198	-0.000451
358	1.841488	0.005000	7.520753	-0.116979	-5.846760	0.031669	-0.158724	-0.656151	0.069224	0.026496	0.005589
359	1.846488	0.005000	7.484357	-0.156960	-5.807520	0.031783	-0.158383	-0.655389	0.066931	0.026309	0.005025
360	1.851488	0.005000	7.337880	-0.235440	-5.783743	0.031896	-0.158042	-0.654626	0.070301	0.016664	0.004482
361	1.856488	0.005000	7.426889	-0.162224	-5.880736	0.032010	-0.157700	-0.653864	0.065014	0.018307	0.003807
362	1.861488	0.005000	7.455600	-0.078480	-5.802679	0.032124	-0.157359	-0.653102	0.076239	0.019058	0.007025
363	1.866488	0.005000	7.455600	-0.117296	-5.767856	0.032238	-0.157018	-0.652339	0.065460	0.019886	0.002379
364	1.871488	0.005000	7.534080	-0.153693	-5.882733	0.032352	-0.156676	-0.651577	0.061682	0.019469	0.001792
365	1.876488	0.005000	7.500951	-0.150849	-5.747374	0.032466	-0.156335	-0.650814	0.069333	0.020111	-0.006433
366	1.881488	0.005000	7.491421	-0.135631	-5.771699	0.032579	-0.155994	-0.650052	0.071248	0.016887	0.000697
367	1.886488	0.005000	7.360836	0.016284	-5.858238	0.032693	-0.155652	-0.649290	0.062114	0.017813	-0.002960
368	1.891488	0.005000	7.455600	-0.117720	-5.793331	0.032807	-0.155311	-0.648527	0.057347	0.013506	0.005691
369	1.896488	0.005000	7.399327	-0.117720	-5.841586	0.033091	-0.155648	-0.648807	0.059270	0.015150	0.010004
370	1.901488	0.005000	7.377120	-0.078480	-5.925754	0.033432	-0.156218	-0.649443	0.065541	0.012776	0.011587
371	1.906488	0.005000	7.399372	-0.033976	-5.858484	0.033774	-0.156787	-0.650078	0.066719	0.027508	0.006239
372	1.911488	0.005000	7.480696	-0.131864	-5.911096	0.034115	-0.157356	-0.650714	0.066454	0.021270	0.005988
373	1.916488	0.005000	7.466900	-0.140320	-5.975780	0.034456	-0.157925	-0.651350	0.059352	0.021614	0.008735
374	1.921488	0.005000	7.447144	-0.165416	-5.964480	0.034798	-0.158495	-0.651985	0.079773	0.023136	0.005205
375	1.926488	0.005000	7.455600	-0.190588	-5.958868	0.035139	-0.159064	-0.652621	0.090801	0.028370	0.007850
376	1.931488	0.005000	7.570518	-0.156960	-5.888802	0.035481	-0.159633	-0.653257	0.058577	0.027184	0.020186
377	1.936488	0.005000	7.572927	-0.118113	-5.807913	0.035822	-0.160202	-0.653892	0.068178	0.029289	0.023458
378	1.941488	0.005000	7.460501	-0.046592	-5.809971	0.036164	-0.160771	-0.654528	0.072258	0.027414	0.015678
379	1.946488	0.005000	7.484251	-0.151665	-5.807520	0.036505	-0.161341	-0.655164	0.069446	0.027258	0.008172
380	1.951488	0.005000	7.463738	-0.204338	-5.925240	0.036847	-0.161910	-0.655799	0.074474	0.025516	0.023898
381	1.956488	0.005000	7.455600	-0.128702	-5.953498	0.037188	-0.162479	-0.656435	0.063791	0.032201	0.024282
382	1.961488	0.005000	7.482345	-0.026745	-5.833388	0.037024	-0.162543	-0.656909	0.083078	0.019280	0.022352
383	1.966488	0.005000	7.406951	-0.039240	-5.862976	0.036569	-0.162315	-0.657290	0.073321	0.025104	0.023094
384	1.971488	0.005000	7.475780	-0.117720	-5.787340	0.036114	-0.162087	-0.657671	0.085471	0.018563	0.032839
385	1.976488	0.005000	7.669136	-0.117720	-5.807520	0.035659	-0.161860	-0.658052	0.057705	0.019029	0.026789
386	1.981488	0.005000	7.597893	-0.156960	-5.886000	0.035204	-0.161632	-0.658433	0.070559	0.016227	0.027540
387	1.986488	0.005000	7.546197	-0.015006	-5.768280	0.034749	-0.161405	-0.658814	0.081189	0.005720	0.036070
388	1.991488	0.005000	7.612560	-0.097026	-5.786826	0.034294	-0.161177	-0.659195	0.051508	0.016738	0.033216
389	1.996488	0.005000	7.645371	-0.150531	-5.898858	0.033840	-0.160950	-0.659576	0.060895	-0.000019	0.030032
390	2.001488	0.005000	7.573320	-0.110550	-5.814690	0.033385	-0.160722	-0.659957	0.063759	0.009889	0.030429
391	2.006488	0.005000	7.533330	-0.156960	-5.921490	0.032930	-0.160495	-0.660338	0.068591	0.003826	0.031685
392	2.011488	0.005000	7.607613	-0.194551	-5.766631	0.032475	-0.160267	-0.660719	0.070035	0.003088	0.034855
393	2.016488	0.005000	7.547558	-0.226454	-5.842267	0.032020	-0.160039	-0.661100	0.072500	0.002968	0.030946
394	2.021488	0.005000	7.494840	-0.196200	-5.878663	0.031565	-0.159812	-0.661481	0.064092	-0.004508	0.035482
395	2.026488	0.005000	7.513719	-0.196200	-5.886000	0.031401	-0.159526	-0.661667	0.098297	-0.001814	0.032875
396	2.031488	0.005000	7.534080	-0.248631	-5.794329	0.031515	-0.159185	-0.661667	0.078652	-0.003684	0.034248
397	2.036488	0.005000	7.525639	-0.266239	-5.752880	0.031629	-0.158843	-0.661667	0.067471	-0.003109	0.038313
398	2.041488	0.005000	7.573320	-0.217197	-5.810273	0.031743	-0.158502	-0.661667	0.067252	-0.007074	0.029258
399	2.046488	0.005000	7.497775	-0.175113	-5.786433	0.031857	-0.158161	-0.661667	0.074280	-0.013775	0.037370
400	2.051488	0.005000	7.407737	-0.220131	-5.807520	0.031970	-0.157819	-0.661667	0.074888	-0.006727	0.025229
401	2.056488	0.005000	7.443135	-0.222975	-5.861070	0.032084	-0.157478	-0.661667	0.069156	-0.017547	0.027853
402	2.061488	0.005000	7.503856	-0.235440	-5.827669	0.032198	-0.157137	-0.661667	0.069258	-0.010017	0.021990
403	2.066488	0.005000	7.448369	-0.235440	-5.910778	0.032312	-0.156795	-0.661667	0.073015	-0.015577	0.023357
404	2.071488	0.005000	7.416360	-0.353160	-5.994946	0.032426	-0.156454	-0.661667	0.055951	-0.007476	0.031225
405	2.076488	0.005000	7.419476	-0.312362	-5.768280	0.032540	-0.156113	-0.661667	0.064746	-0.013108	0.026763
406	2.081488	0.005000	7.418043	-0.274680	-5.729882	0.032653	-0.155771	-0.661667	0.067669	-0.009493	0.025029
407	2.086488	0.005000	7.420036	-0.278356	-5.914212	0.032767	-0.155430	-0.661667	0.057443	-0.007696	0.023921
408	2.091488	0.005000	7.481800	-0.255121	-5.859800	0.032881	-0.155314	-0.661315	0.053364	-0.001835	0.029103
409	2.096488	0.005000	7.494840	-0.226076	-5.915876	0.032995	-0.155542	-0.660425	0.060246	0.009400	0.029681
410	2.101488	0.005000	7.534080	-0.223701	-5.901763	0.033109	-0.155769	-0.659536	0.063310	-0.006169	0.022777
411	2.106488	0.005000	7.573320	-0.235440	-5.900583	0.033222	-0.155997	-0.658646	0.061062	-0.013006	0.031078
412	2.111488	0.005000	7.433787	-0.235440	-5.868573	0.033336	-0.156224	-0.657757	0.051020	-0.003364	0.034518
413	2.116488	0.005000	7.356850	-0.254410	-5.925240	0.033450	-0.156452	-0.656867	0.059532	-0.022102	0.033654
414	2.121488	0.005000	7.400046	-0.219126	-5.908926	0.033564	-0.156680	-0.655978	0.043909	-0.016710	0.024686
415	2.126488	0.005000	7.430096	-0.182464	-5.964480	0.033677	-0.156907	-0.655088	0.068912	-0.017024	0.020079
416	2.131488	0.005000	7.416360	-0.235440	-5.868543	0.033791	-0.157135	-0.654199	0.055874	-0.015775	0.027106
417	2.136488	0.005000	7.393215	-0.204248	-5.995672	0.033905	-0.157362	-0.653309	0.056411	-0.015773	0.028076
418	2.141488	0.005000	7.405952	-0.274680	-6.003720	0.034019	-0.157590	-0.652420	0.070505	-0.021834	0.017017
419	2.146488	0.005000	7.340268	-0.269903	-5.962092	0.034132	-0.157817	-0.651530	0.057300	-0.016716	0.026089
420	2.151488	0.005000	7.337895	-0.235425	-5.886015	0.034246	-0.158045	-0.650641	0.071448	-0.020062	0.027491
421	2.156488	0.005000	7.413501	-0.238299	-5.961621	0.034233	-0.158177	-0.650178	0.046942	-0.010111	0.028958
422	2.161488	0.005000	7.422063	-0.313920	-5.998017	0.033891	-0.158063	-0.650813	0.057720	-0.012259	0.025485
423	2.166488	0.005000	7.324281	-0.313920	-5.973027	0.033550	-0.157950	-0.651448	0.061217	-0.020054	0.028798
424	2.171488	0.005000	7.337880	-0.235440	-6.003720	0.033209	-0.157836	-0.652084	0.057171	-0.010726	0.027102
425	2.176488	0.005000	7.366349	-0.260445	-5.978715	0.032867	-0.157722	-0.652719	0.078352	-0.018416	0.030363
426	2.181488	0.005000	7.410370	-0.229450	-6.036970	0.032526	-0.157608	-0.653354	0.078056	-0.005439	0.024773
427	2.186488	0.005000	7.435829	-0.196503	-5.905771	0.032185	-0.157494	-0.653989	0.075695	-0.008221	0.013752
428	2.191488	0.005000	7.399433	-0.235440	-5.942167	0.031843	-0.157380	-0.654625	0.064977	-0.015342	0.023405
429	2.196488	0.005000	7.337880	-0.235440	-5.871917	0.031502	-0.157267	-0.655260	0.063761	-0.010949	0.021360
430	2.201488	0.005000	7.315401	-0.302680	-5.897240	0.031161	-0.157153	-0.655895	0.071455	-0.011528	0.029287
431	2.206488	0.005000	7.337880	-0.274680	-5.786009	0.030819	-0.157039	-0.656531	0.066570	-0.012602	0.021080
432	2.211488	0.005000	7.259400	-0.196200	-5.840739	0.030478	-0.156925	-0.657166	0.068713	-0.011808	0.019109
433	2.216488	0.005000	7.334703	-0.232263	-5.813873	0.030137	-0.156811	-0.657801	0.049885	-0.013399	0.021222
434	2.221488	0.005000	7.377120	-0.157297	-5.924567	0.029962	-0.156679	-0.658374	0.065314	-0.011014	0.023948
435	2.226488	0.005000	7.339937	-0.196200	-5.921125	0.030645	-0.156451	-0.658629	0.065366	-0.004703	0.020502
436	2.231488	0.005000	7.308442	-0.196200	-5.925240	0.031328	-0.156224	-0.658883	0.067312	-0.001971	0.016412
437	2.236488	0.005000	7.369375	-0.164705	-5.854505	0.032010	-0.155996	-0.659137	0.062524	-0.005103	0.024389
438	2.241488	0.005000	7.405771	-0.167549	-5.904062	0.032693	-0.155769	-0.659391	0.065179	-0.008070	0.022724
439	2.246488	0.005000	7.429324	-0.196200	-5.925240	0.033376	-0.155541	-0.659645	0.064477	-0.010784	0.026188
440	2.251488	0.005000	7.400552	-0.172768	-5.995536	0.034059	-0.155313	-0.659900	0.057284	-0.012526	0.017410
441	2.256488	0.005000	7.453664	-0.158896	-5.925240	0.034741	-0.155086	-0.660154	0.069767	-0.009653	0.017680
442	2.261488	0.005000	7.437856	-0.270928	-5.846760	0.035424	-0.154858	-0.660408	0.064531	-0.012956	0.022900
443	2.266488	0.005000	7.367681	-0.229979	-5.837321	0.036107	-0.154631	-0.660662	0.056739	-0.007427	0.016903
444	2.271488	0.005000	7.402171	-0.262155	-5.989531	0.036790	-0.154403	-0.660916	0.069393	-0.011918	0.025387
445	2.276488	0.005000	7.396483	-0.235440	-5.993524	0.037472	-0.154176	-0.661170	0.056758	-0.007832	0.019006
446	2.281488	0.005000	7.414575	-0.228602	-5.932078	0.038155	-0.153948	-0.661425	0.064555	-0.011548	0.019853
447	2.286488	0.005000	7.298640	-0.152966	-5.968474	0.038774	-0.153742	-0.661661	0.081831	-0.011617	0.023528
448	2.291488	0.005000	7.378270	-0.159259	-6.040661	0.038091	-0.153969	-0.661534	0.083818	-0.012293	0.022067
449	2.296488	0.005000	7.453906	-0.235440	-6.002026	0.037408	-0.154197	-0.661407	0.067796	-0.018227	0.023878
450	2.301488	0.005000	7.372988	-0.313920	-5.894264	0.036725	-0.154425	-0.661280	0.057274	-0.012990	0.022318
451	2.306488	0.005000	7.416360	-0.235440	-5.853688	0.036042	-0.154652	-0.661152	0.073849	-0.015762	0.019787
452	2.311488	0.005000	7.406437	-0.304148	-5.866304	0.035359	-0.154880	-0.661025	0.070468	-0.014618	0.029147
453	2.316488	0.005000	7.456992	-0.301304	-5.846760	0.034676	-0.155108	-0.660898	0.066306	-0.011955	0.018400
454	2.321488	0.005000	7.384260	-0.196200	-5.941880	0.033993	-0.155335	-0.660771	0.064082	-0.015137	0.015196
455	2.326488	0.005000	7.277451	-0.178149	-6.085339	0.033310	-0.155563	-0.660644	0.068225	-0.018551	0.018519
456	2.331488	0.005000	7.261518	-0.177639	-5.987277	0.032627	-0.155791	-0.660517	0.073919	-0.015909	0.020003
457	2.336488	0.005000	7.228072	-0.235440	-5.948763	0.031944	-0.156018	-0.660390	0.070286	-0.012087	0.019325
458	2.341488	0.005000	7.351373	-0.248313	-5.833267	0.031261	-0.156246	-0.660262	0.072840	-0.017487	0.010108
459	2.346488	0.005000	7.327733	-0.206347	-5.915093	0.030578	-0.156474	-0.660135	0.074359	-0.016759	0.026513
460	2.351488	0.005000	7.244122	-0.164599	-5.839121	0.029895	-0.156701	-0.660008	0.056812	-0.016328	0.027596
461	2.356488	0.005000	7.220160	-0.240235	-6.042960	0.030490	-0.156610	-0.660000	0.055222	-0.015621	0.017961
462	2.361488	0.005000	7.186845	-0.272705	-6.009645	0.031172	-0.156496	-0.660000	0.060777	-0.014773	0.016911
463	2.366488	0.005000	7.376273	-0.235440	-6.160256	0.031855	-0.156382	-0.660000	0.053578	-0.009049	0.018905
464	2.371488	0.005000	7.377120	-0.199467	-6.085467	0.032537	-0.156268	-0.660000	0.058477	-0.007441	0.022852
465	2.376488	0.005000	7.292529	-0.129943	-6.036849	0.033220	-0.156155	-0.660000	0.069312	-0.005575	0.024839
466	2.381488	0.005000	7.329279	-0.196200	-6.056397	0.033902	-0.156041	-0.660000	0.071100	-0.010730	0.021787
467	2.386488	0.005000	7.349225	-0.218891	-5.987171	0.034584	-0.155927	-0.660000	0.040003	0.000498	0.009427
468	2.391488	0.005000	7.273589	-0.224579	-6.071339	0.035267	-0.155814	-0.660000	0.067718	-0.008183	0.006355
469	2.396488	0.005000	7.332706	-0.262820	-6.126614	0.035949	-0.155700	-0.660000	0.063685	-0.007752	0.013019
470	2.401488	0.005000	7.298640	-0.333797	-6.063351	0.036632	-0.155586	-0.660000	0.050867	-0.000657	0.011971
471	2.406488	0.005000	7.337880	-0.274680	-5.896317	0.037314	-0.155473	-0.660000	0.060238	-0.008284	0.016866
472	2.411488	0.005000	7.377120	-0.274680	-6.003720	0.037997	-0.155359	-0.660000	0.048059	-0.005404	0.015577
473	2.416488	0.005000	7.377120	-0.207500	-5.925240	0.038679	-0.155245	-0.660000	0.052743	-0.011416	0.018267
474	2.421488	0.005000	7.329424	-0.196200	-5.933696	0.038806	-0.155224	-0.659897	0.046591	0.000047	0.007353
475	2.426488	0.005000	7.298640	-0.241052	-5.925240	0.038806	-0.155224	-0.659769	0.071076	-0.007266	0.000689
476	2.431488	0.005000	7.225697	-0.238208	-5.964480	0.038806	-0.155224	-0.659642	0.062809	-0.003348	0.011845
477	2.436488	0.005000	7.259476	-0.196351	-5.925316	0.038806	-0.155224	-0.659515	0.061386	-0.007043	0.013575
478	2.441488	0.005000	7.337880	-0.199120	-5.958641	0.038806	-0.155224	-0.659388	0.068125	-0.002613	0.003237
479	2.446488	0.005000	7.348597	-0.201559	-5.925240	0.038806	-0.155224	-0.659261	0.065292	-0.011450	0.002394
480	2.451488	0.005000	7.462286	-0.219163	-6.018545	0.038806	-0.155224	-0.659134	0.055498	0.004954	0.000611
481	2.456488	0.005000	7.399085	-0.274680	-5.986445	0.038806	-0.155224	-0.659007	0.061181	0.001282	0.010973
482	2.461488	0.005000	7.324054	-0.210026	-6.042960	0.038806	-0.155224	-0.658880	0.054367	-0.004305	-0.000850
483	2.466488	0.005000	7.321210	-0.167731	-6.009620	0.038806	-0.155224	-0.658753	0.058328	-0.015935	0.003406
484	2.471488	0.005000	7.360299	-0.275799	-6.003720	0.038806	-0.155224	-0.658626	0.038253	-0.004915	-0.002595
485	2.476488	0.005000	7.381688	-0.240008	-6.077632	0.038806	-0.155224	-0.658499	0.061558	-0.008707	0.008631
486	2.481488	0.005000	7.337880	-0.156960	-6.003720	0.038806	-0.155224	-0.658371	0.059253	-0.006113	-0.003264
487	2.486488	0.005000	7.349528	-0.247088	-5.976128	0.038489	-0.155383	-0.658333	0.063447	-0.015608	0.002841
488	2.491488	0.005000	7.329076	-0.235440	-6.051764	0.038034	-0.155610	-0.658333	0.058020	-0.007022	0.009462
489	2.496488	0.005000	7.271464	-0.274680	-6.136551	0.037579	-0.155838	-0.658333	0.057135	-0.007458	0.003111
490	2.501488	0.005000	7.330710	-0.271095	-5.925240	0.037124	-0.156065	-0.658333	0.063953	-0.006890	0.003261
491	2.506488	0.005000	7.340104	-0.235440	-5.963739	0.036669	-0.156292	-0.658333	0.060812	-0.000165	0.000975
492	2.511488	0.005000	7.418463	-0.309715	-5.850965	0.036214	-0.156520	-0.658333	0.058303	-0.004188	-0.010907
493	2.516488	0.005000	7.352720	-0.274680	-5.988880	0.035759	-0.156747	-0.658333	0.038517	-0.000855	-0.002882
494	2.521488	0.005000	7.354852	-0.267257	-5.981452	0.035304	-0.156975	-0.658333	0.045095	-0.007950	-0.008103
495	2.526488	0.005000	7.426541	-0.235440	-6.072019	0.034849	-0.157202	-0.658333	0.057719	-0.009094	0.009125
496	2.531488	0.005000	7.233185	-0.248465	-6.042960	0.034394	-0.157430	-0.658333	0.046025	-0.002921	-0.004372
497	2.536488	0.005000	7.314508	-0.298052	-6.199920	0.033939	-0.157657	-0.658333	0.049030	-0.010966	0.008858
498	2.541488	0.005000	7.340192	-0.253904	-6.059112	0.033484	-0.157885	-0.658333	0.038417	0.000195	0.008491
499	2.546488	0.005000	7.325597	-0.235440	-5.997851	0.033030	-0.158112	-0.658333	0.048295	-0.007650	0.007733
500	2.551488	0.005000	7.274709	-0.204823	-6.027651	0.032836	-0.158078	-0.658333	0.059136	0.001077	0.011784
501	2.556488	0.005000	7.339726	-0.196200	-6.030495	0.032836	-0.157851	-0.658333	0.054953	0.001387	0.009821
502	2.561488	0.005000	7.357122	-0.205821	-5.984478	0.032836	-0.157623	-0.658333	0.066938	0.000538	0.015305
503	2.566488	0.005000	7.402806	-0.235440	-5.957703	0.032836	-0.157396	-0.658333	0.039272	0.006947	0.013041
504	2.571488	0.005000	7.259400	-0.309941	-6.042960	0.032836	-0.157168	-0.658333	0.049246	-0.001243	0.010120
505	2.576488	0.005000	7.417918	-0.197758	-6.002162	0.032836	-0.156940	-0.658333	0.040329	0.003360	0.006193
506	2.581488	0.005000	7.379692	-0.235440	-5.964480	0.032836	-0.156713	-0.658333	0.061860	-0.000230	0.012091
507	2.586488	0.005000	7.263530	-0.239570	-5.925240	0.032836	-0.156485	-0.658333	0.054120	0.003282	0.010501
508	2.591488	0.005000	7.266374	-0.138641	-5.892974	0.032836	-0.156258	-0.658333	0.047997	0.003491	0.011432
509	2.596488	0.005000	7.328062	-0.098085	-5.964480	0.032836	-0.156030	-0.658333	0.044565	0.002381	0.009225
510	2.601488	0.005000	7.404152	-0.198817	-5.991512	0.032836	-0.155802	-0.658333	0.055018	0.006542	0.009567
511	2.606488	0.005000	7.446463	-0.289732	-5.979532	0.032836	-0.155575	-0.658333	0.065537	0.008342	0.004257
512	2.611488	0.005000	7.380569	-0.256785	-6.060855	0.032836	-0.155347	-0.658333	0.059665	0.004790	0.012317
513	2.616488	0.005000	7.337880	-0.253941	-5.966719	0.032940	-0.155172	-0.658333	0.042578	0.012168	0.015562
514	2.621488	0.005000	7.345807	-0.243367	-5.925240	0.033168	-0.155058	-0.658333	0.042653	0.008263	0.015528
515	2.626488	0.005000	7.337880	-0.170242	-5.951198	0.033395	-0.154944	-0.658333	0.037134	0.012673	0.009774
516	2.631488	0.005000	7.309078	-0.196200	-6.035033	0.033623	-0.154830	-0.658333	0.051648	0.001435	0.016520
517	2.636488	0.005000	7.361932	-0.188606	-6.020178	0.033851	-0.154717	-0.658333	0.061727	0.008522	0.007274
518	2.641488	0.005000	7.421110	-0.196200	-5.895500	0.034078	-0.154603	-0.658333	0.047395	0.003162	0.011058
519	2.646488	0.005000	7.373308	-0.198106	-6.041054	0.034306	-0.154489	-0.658333	0.051665	0.005965	0.015130
520	2.651488	0.005000	7.336942	-0.312044	-6.042022	0.034533	-0.154375	-0.658333	0.041149	0.011692	0.023397
521	2.656488	0.005000	7.347864	-0.274680	-6.013704	0.034761	-0.154261	-0.658333	0.053476	0.012735	0.020532
522	2.661488	0.005000	7.344052	-0.196200	-6.042960	0.034988	-0.154147	-0.658333	0.057062	0.013724	0.022243
523	2.666488	0.005000	7.407344	-0.295888	-6.003720	0.035216	-0.154034	-0.658333	0.047344	0.005805	0.016035
524	2.671488	0.005000	7.443740	-0.247300	-5.870479	0.035444	-0.153920	-0.658333	0.051663	0.000782	0.022701
525	2.676488	0.005000	7.466371	-0.181965	-5.925240	0.035671	-0.153806	-0.658333	0.038887	0.007323	0.015966
526	2.681488	0.005000	7.450517	-0.191117	-5.903079	0.035821	-0.153809	-0.658376	0.037889	0.005803	0.011168
527	2.686488	0.005000	7.338485	-0.274075	-5.925240	0.035821	-0.154036	-0.658503	0.043575	0.004683	0.011759
528	2.691488	0.005000	7.282166	-0.287266	-6.003720	0.035821	-0.154264	-0.658630	0.052131	0.009187	0.014807
529	2.696488	0.005000	7.404379	-0.223459	-6.003720	0.035821	-0.154491	-0.658758	0.044507	0.009491	0.017404
530	2.701488	0.005000	7.399599	-0.246680	-6.054200	0.035821	-0.154719	-0.658885	0.057385	0.008465	0.017352
531	2.706488	0.005000	7.377120	-0.235440	-6.034564	0.035821	-0.154946	-0.659012	0.055252	0.008662	0.013267
532	2.711488	0.005000	7.366017	-0.263577	-6.048512	0.035821	-0.155174	-0.659139	0.040013	0.010488	0.009248
533	2.716488	0.005000	7.220160	-0.162376	-5.998304	0.035821	-0.155401	-0.659266	0.046479	0.001850	0.010834
534	2.721488	0.005000	7.416693	-0.236438	-6.042294	0.035821	-0.155629	-0.659393	0.038219	0.010261	0.018916
535	2.726488	0.005000	7.345413	-0.279702	-6.001209	0.035821	-0.155856	-0.659520	0.045045	0.007905	0.006646
536	2.731488	0.005000	7.343235	-0.201555	-6.003720	0.035821	-0.156083	-0.659647	0.048533	0.005826	0.009306
537	2.736488	0.005000	7.329681	-0.196200	-5.918796	0.035821	-0.156311	-0.659774	0.043030	0.010931	0.008459
538	2.741488	0.005000	7.309683	-0.224397	-6.014763	0.035821	-0.156538	-0.659901	0.052237	0.013337	0.019272
539	2.746488	0.005000	7.312220	-0.221860	-6.056540	0.035846	-0.156541	-0.659972	0.064104	0.016647	0.008272
540	2.751488	0.005000	7.282378	-0.202916	-6.059222	0.035960	-0.155745	-0.659845	0.060917	0.011928	0.006704
541	2.756488	0.005000	7.318774	-0.254546	-6.083229	0.036073	-0.154949	-0.659718	0.048096	0.013469	0.013054
542	2.761488	0.005000	7.293981	-0.235440	-5.981770	0.036187	-0.154153	-0.659591	0.057083	0.010079	0.002658
543	2.766488	0.005000	7.387467	-0.249886	-6.032613	0.036301	-0.153357	-0.659464	0.052875	0.018697	0.014066
544	2.771488	0.005000	7.294615	-0.274680	-6.160680	0.036414	-0.152561	-0.659337	0.050145	0.026549	0.003434
545	2.776488	0.005000	7.389777	-0.213922	-5.955619	0.036528	-0.151765	-0.659210	0.060823	0.022033	0.009268
546	2.781488	0.005000	7.272137	-0.202569	-5.964480	0.036642	-0.150969	-0.659083	0.049468	0.012280	0.006054
547	2.786488	0.005000	7.288066	-0.196200	-6.039435	0.036755	-0.150173	-0.658956	0.056448	0.009855	-0.000757
548	2.791488	0.005000	7.222202	-0.313239	-5.963799	0.036869	-0.149377	-0.658829	0.050639	0.012680	0.011663
549	2.796488	0.005000	7.375405	-0.237155	-6.075341	0.036983	-0.148580	-0.658702	0.036602	0.010843	0.002835
550	2.801488	0.005000	7.372582	-0.200738	-6.073124	0.037097	-0.147784	-0.658575	0.044589	0.012093	0.004336
551	2.806488	0.005000	7.416360	-0.242822	-6.003720	0.037210	-0.146988	-0.658448	0.038651	0.013265	0.004038
552	2.811488	0.005000	7.435148	-0.206426	-6.024172	0.037346	-0.146368	-0.658308	0.044610	0.011029	0.007062
553	2.816488	0.005000	7.364050	-0.156960	-5.925240	0.037688	-0.147393	-0.658054	0.054110	0.026793	0.002529
554	2.821488	0.005000	7.322239	-0.259039	-6.003720	0.038029	-0.148417	-0.657800	0.059388	0.025668	0.000923
555	2.826488	0.005000	7.337880	-0.196200	-5.985416	0.038371	-0.149442	-0.657546	0.045494	0.014482	0.010200
556	2.831488	0.005000	7.383231	-0.156960	-5.931351	0.038712	-0.150466	-0.657292	0.039959	0.017233	-0.000253
557	2.836488	0.005000	7.361872	-0.180952	-5.879495	0.039054	-0.151491	-0.657037	0.044458	0.012952	-0.003310
558	2.841488	0.005000	7.364566	-0.144406	-5.873446	0.039395	-0.152515	-0.656783	0.036666	0.027116	-0.006565
559	2.846488	0.005000	7.387149	-0.187048	-5.856789	0.039737	-0.153540	-0.656529	0.047985	0.020359	-0.003788
560	2.851488	0.005000	7.487655	-0.242625	-5.964480	0.040079	-0.154564	-0.656275	0.046064	0.018414	0.010095
561	2.856488	0.005000	7.381462	-0.226757	-5.964480	0.040420	-0.155589	-0.656020	0.042912	0.021618	-0.002815
562	2.861488	0.005000	7.375605	-0.235440	-5.964480	0.040762	-0.156613	-0.655766	0.042311	0.019124	0.003399
563	2.866488	0.005000	7.337880	-0.312135	-6.041175	0.041103	-0.157638	-0.655512	0.049476	0.018337	0.014458
564	2.871488	0.005000	7.491104	-0.235440	-5.897209	0.041445	-0.158663	-0.655258	0.051309	0.007640	0.012830
565	2.876488	0.005000	7.501420	-0.196200	-5.957900	0.041786	-0.159687	-0.655003	0.044510	0.015060	0.015829
566	2.881488	0.005000	7.366153	-0.186776	-5.992753	0.041006	-0.160374	-0.654749	0.033090	0.007846	0.014628
567	2.886488	0.005000	7.323176	-0.208468	-5.925240	0.040209	-0.161057	-0.654495	0.051014	0.010996	0.024065
568	2.891488	0.005000	7.259400	-0.220797	-5.871357	0.039413	-0.161739	-0.654241	0.036117	0.012581	0.014421
569	2.896488	0.005000	7.316127	-0.257193	-5.990499	0.038617	-0.162422	-0.653987	0.047127	0.008170	0.025490
570	2.901488	0.005000	7.339302	-0.194778	-5.906331	0.037821	-0.163104	-0.653734	0.050545	0.012061	0.012009
571	2.906488	0.005000	7.298640	-0.235440	-5.855715	0.037025	-0.163787	-0.653480	0.045021	0.006720	0.014905
572	2.911488	0.005000	7.363739	-0.208678	-5.964480	0.036229	-0.164469	-0.653226	0.043580	0.008400	0.014011
573	2.916488	0.005000	7.377120	-0.178652	-6.036259	0.035432	-0.165152	-0.652972	0.040739	0.017211	0.012073
574	2.921488	0.005000	7.322647	-0.172965	-6.034958	0.034636	-0.165834	-0.652718	0.055179	0.017819	0.014286
575	2.926488	0.005000	7.416360	-0.269522	-5.920082	0.033840	-0.166517	-0.652464	0.044936	0.019355	0.006203
576	2.931488	0.005000	7.340194	-0.270051	-5.892943	0.033044	-0.167199	-0.652210	0.043661	0.014433	-0.002193
577	2.936488	0.005000	7.415831	-0.312332	-5.965009	0.032248	-0.167882	-0.651956	0.039225	0.015775	0.008376
578	2.941488	0.005000	7.416360	-0.281427	-5.993600	0.031451	-0.168564	-0.651702	0.041988	0.008317	0.001338
579	2.946488	0.005000	7.343643	-0.241203	-6.087963	0.030459	-0.169836	-0.650460	0.054596	0.000302	0.008075
580	2.951488	0.005000	7.307247	-0.296705	-5.951062	0.029435	-0.171201	-0.649063	0.043406	0.011214	0.005062
581	2.956488	0.005000	7.382006	-0.223989	-6.003720	0.028411	-0.172566	-0.647666	0.042659	0.006745	0.014203
582	2.961488	0.005000	7.352175	-0.235440	-6.018015	0.027388	-0.173930	-0.646269	0.042147	0.012542	0.007330
583	2.966488	0.005000	7.399221	-0.247617	-5.986581	0.026364	-0.175295	-0.644872	0.042797	0.004997	0.009627
584	2.971488	0.005000	7.455860	-0.235440	-5.944470	0.025340	-0.176660	-0.643474	0.054236	0.010167	0.011083
585	2.976488	0.005000	7.382596	-0.269204	-6.032008	0.024317	-0.178025	-0.642077	0.050574	0.017791	0.007012
586	2.981488	0.005000	7.365956	-0.288718	-5.989682	0.023293	-0.179390	-0.640680	0.057641	0.010690	0.022805
587	2.986488	0.005000	7.377120	-0.274680	-6.048618	0.022270	-0.180755	-0.639283	0.042682	0.015261	0.000078
588	2.991488	0.005000	7.307088	-0.204648	-5.956032	0.021246	-0.182119	-0.637886	0.052261	0.016833	0.006010
589	2.996488	0.005000	7.337880	-0.241400	-5.991800	0.020222	-0.183484	-0.636489	0.046183	0.008404	0.000980
590	3.001488	0.005000	7.377120	-0.193084	-5.964480	0.019199	-0.184849	-0.635092	0.043938	0.008025	0.015103
591	3.006488	0.005000	7.338152	-0.195928	-5.964208	0.018175	-0.186214	-0.633695	0.052565	0.009719	0.017846
592	3.011488	0.005000	7.340452	-0.156960	-5.888572	0.018247	-0.185302	-0.633804	0.050418	0.022720	0.010575
593	3.016488	0.005000	7.416360	-0.235440	-5.953649	0.018703	-0.183595	-0.634439	0.054763	0.017262	0.011826
594	3.021488	0.005000	7.345671	-0.211781	-5.956689	0.019158	-0.181888	-0.635075	0.048910	0.020930	0.008708
595	3.026488	0.005000	7.348514	-0.196200	-6.003720	0.019613	-0.180181	-0.635710	0.042256	0.014205	0.009831
596	3.031488	0.005000	7.402882	-0.196200	-5.964480	0.020068	-0.178474	-0.636346	0.042761	0.013928	0.017705
597	3.036488	0.005000	7.485113	-0.235440	-5.964480	0.020524	-0.176768	-0.636981	0.038318	0.018382	0.014550
598	3.041488	0.005000	7.377120	-0.255514	-6.002812	0.020979	-0.175061	-0.637616	0.057144	0.011331	0.011912
599	3.046488	0.005000	7.359689	-0.235440	-5.964480	0.021434	-0.173354	-0.638252	0.044067	0.016767	0.016831
600	3.051488	0.005000	7.337880	-0.142120	-6.003720	0.021889	-0.171647	-0.638887	0.053410	0.013439	0.013189
601	3.056488	0.005000	7.298640	-0.102472	-5.976476	0.022345	-0.169940	-0.639522	0.044550	0.011588	0.010083
602	3.061488	0.005000	7.337880	-0.147808	-5.886000	0.022800	-0.168233	-0.640158	0.047654	0.014504	0.012069
603	3.066488	0.005000	7.410052	-0.196200	-6.016336	0.023255	-0.166526	-0.640793	0.052202	0.013574	0.013630
604	3.071488	0.005000	7.341344	-0.271216	-6.000256	0.023710	-0.164819	-0.641429	0.047869	0.019177	0.006313
605	3.076488	0.005000	7.379298	-0.312831	-5.965569	0.024379	-0.164250	-0.641667	0.033155	0.012394	0.014969
606	3.081488	0.005000	7.343144	-0.237195	-6.041205	0.025175	-0.164364	-0.641667	0.049681	0.017840	0.015781
607	3.086488	0.005000	7.342479	-0.235440	-5.943635	0.025972	-0.164478	-0.641667	0.054843	0.008149	0.013928
608	3.091488	0.005000	7.392005	-0.274680	-6.011163	0.026768	-0.164592	-0.641667	0.058927	0.008488	0.014007
609	3.096488	0.005000	7.358453	-0.196200	-6.051340	0.027565	-0.164705	-0.641667	0.064935	0.013622	0.009435
610	3.101488	0.005000	7.429339	-0.222310	-6.017002	0.028361	-0.164819	-0.641667	0.050143	0.008627	0.014704
611	3.106488	0.005000	7.471105	-0.259175	-5.964480	0.029157	-0.164933	-0.641667	0.057967	0.014028	0.001784
612	3.111488	0.005000	7.377120	-0.232899	-5.982829	0.029954	-0.165047	-0.641667	0.065286	0.008572	0.007668
613	3.116488	0.005000	7.401460	-0.253487	-6.042960	0.030750	-0.165161	-0.641667	0.051110	0.008785	0.006862
614	3.121488	0.005000	7.409991	-0.274680	-6.058163	0.031547	-0.165275	-0.641667	0.053045	0.015458	0.001086
615	3.126488	0.005000	7.416360	-0.313920	-6.067678	0.032343	-0.165388	-0.641667	0.058503	0.011606	0.006111
616	3.131488	0.005000	7.318627	-0.304294	-6.082200	0.033140	-0.165502	-0.641667	0.053713	0.021440	0.007907
617	3.136488	0.005000	7.245150	-0.253305	-5.889615	0.033936	-0.165616	-0.641667	0.053708	0.020101	0.006233
618	3.141488	0.005000	7.337880	-0.244002	-5.824644	0.034386	-0.165094	-0.642312	0.038687	0.005993	0.003810
619	3.146488	0.005000	7.416360	-0.312483	-6.042960	0.034500	-0.163957	-0.643582	0.065518	0.010690	0.001238
620	3.151488	0.005000	7.492026	-0.199014	-5.891627	0.034613	-0.162819	-0.644853	0.049378	0.015631	0.004935
621	3.156488	0.005000	7.416360	-0.226939	-5.846760	0.034727	-0.161682	-0.646123	0.054801	0.017587	0.007400
622	3.161488	0.005000	7.311891	-0.222189	-5.957854	0.034841	-0.160544	-0.647393	0.066467	0.026228	0.000214
623	3.166488	0.005000	7.446130	-0.225970	-5.995612	0.034955	-0.159407	-0.648663	0.047695	0.013338	0.009984
624	3.171488	0.005000	7.401747	-0.235440	-5.974494	0.035068	-0.158269	-0.649933	0.045284	0.017448	0.008102
625	3.176488	0.005000	7.416360	-0.211357	-5.988563	0.035182	-0.157132	-0.651203	0.036227	0.013877	0.013745
626	3.181488	0.005000	7.395121	-0.160197	-5.940004	0.035296	-0.155994	-0.652473	0.044714	0.010095	0.011601
627	3.186488	0.005000	7.400416	-0.156960	-5.906845	0.035410	-0.154857	-0.653743	0.057920	0.009476	0.013946
628	3.191488	0.005000	7.337880	-0.204974	-5.918009	0.035524	-0.153720	-0.655013	0.056632	0.015633	0.008185
629	3.196488	0.005000	7.468761	-0.235440	-6.003720	0.035637	-0.152582	-0.656283	0.049593	0.003971	0.011812
630	3.201488	0.005000	7.416360	-0.284997	-5.896317	0.035751	-0.151445	-0.657553	0.053196	0.005084	0.003271
631	3.206488	0.005000	7.393941	-0.345687	-5.807520	0.035909	-0.150878	-0.658333	0.088778	0.011016	0.002606
632	3.211488	0.005000	7.303269	-0.274680	-5.890629	0.036136	-0.151219	-0.658333	0.059873	0.013239	0.006350
633	3.216488	0.005000	7.337880	-0.233186	-5.925240	0.036364	-0.151561	-0.658333	0.053599	0.010079	0.006249
634	3.221488	0.005000	7.376530	-0.118900	-6.002540	0.036592	-0.151902	-0.658333	0.054943	0.013296	0.015119
635	3.226488	0.005000	7.409492	-0.081914	-5.817822	0.036819	-0.152243	-0.658333	0.055828	0.019307	0.003557
636	3.231488	0.005000	7.383398	-0.222884	-5.984887	0.037047	-0.152585	-0.658333	0.054859	0.009870	0.001078
637	3.236488	0.005000	7.428235	-0.145085	-5.952605	0.037274	-0.152926	-0.658333	0.049878	0.019250	0.002930
638	3.241488	0.005000	7.295297	-0.144994	-6.003720	0.037502	-0.153268	-0.658333	0.059124	0.009477	0.005017
639	3.246488	0.005000	7.337880	-0.156960	-6.028436	0.037729	-0.153609	-0.658333	0.059432	0.008425	-0.001297
640	3.251488	0.005000	7.337880	-0.174160	-5.986520	0.037957	-0.153950	-0.658333	0.063522	0.008691	0.003646
641	3.256488	0.005000	7.356252	-0.254644	-6.042960	0.038185	-0.154292	-0.658333	0.060518	0.018025	0.004149
642	3.261488	0.005000	7.377120	-0.163465	-5.941608	0.038412	-0.154633	-0.658333	0.037702	0.013914	0.011216
643	3.266488	0.005000	7.377120	-0.170484	-5.938764	0.038640	-0.154975	-0.658333	0.057667	0.011997	0.007110
644	3.271488	0.005000	7.298640	-0.257707	-5.964480	0.038653	-0.155101	-0.658265	0.042910	0.022187	0.006209
645	3.276488	0.005000	7.337880	-0.227150	-6.012010	0.038084	-0.154646	-0.658010	0.051998	0.028335	0.005125
646	3.281488	0.005000	7.304086	-0.151514	-6.065863	0.037515	-0.154191	-0.657756	0.044556	0.012911	0.014321
647	3.286488	0.005000	7.455600	-0.162164	-5.920036	0.036946	-0.153736	-0.657502	0.041805	0.019469	0.007400
648	3.291488	0.005000	7.338606	-0.274438	-5.924756	0.036377	-0.153281	-0.657248	0.045316	0.005213	0.008084
649	3.296488	0.005000	7.452983	-0.196200	-6.079583	0.035808	-0.152826	-0.656994	0.049291	0.009493	0.008897
650	3.301488	0.005000	7.416360	-0.190739	-6.059343	0.035239	-0.152371	-0.656740	0.047665	0.011999	0.007945
651	3.306488	0.005000	7.385425	-0.196200	-5.972785	0.034670	-0.151915	-0.656486	0.049963	0.009054	0.007636
652	3.311488	0.005000	7.365971	-0.224291	-5.992571	0.034101	-0.151460	-0.656232	0.032040	0.008349	0.002342
653	3.316488	0.005000	7.402821	-0.248979	-6.056499	0.033532	-0.151005	-0.655978	0.049957	0.005465	0.004836
654	3.321488	0.005000	7.377120	-0.228966	-6.075726	0.032963	-0.150550	-0.655724	0.051070	0.005737	0.011754
655	3.326488	0.005000	7.377120	-0.196987	-6.003720	0.032394	-0.150095	-0.655469	0.057489	0.013335	0.011334
656	3.331488	0.005000	7.372219	-0.179031	-5.920339	0.031825	-0.149640	-0.655215	0.049966	0.011468	0.009928
657	3.336488	0.005000	7.499983	-0.250234	-6.018514	0.031413	-0.149324	-0.655058	0.053223	0.006766	-0.006688
658	3.341488	0.005000	7.482889	-0.250779	-5.964480	0.031867	-0.149778	-0.655439	0.058327	0.013315	0.015295
659	3.346488	0.005000	7.368013	-0.166067	-5.925240	0.032322	-0.150233	-0.655820	0.055420	0.024302	0.003059
660	3.351488	0.005000	7.292377	-0.156960	-5.964480	0.032777	-0.150688	-0.656201	0.069924	0.005739	0.000044
661	3.356488	0.005000	7.452181	-0.192781	-6.039541	0.033232	-0.151143	-0.656582	0.066541	0.011018	0.008858
662	3.361488	0.005000	7.377702	-0.196200	-5.963898	0.033687	-0.151598	-0.656963	0.066628	0.008676	0.003925
663	3.366488	0.005000	7.378935	-0.271049	-6.000089	0.034142	-0.152053	-0.657344	0.062755	0.010628	0.007599
664	3.371488	0.005000	7.411701	-0.387741	-5.964480	0.034597	-0.152508	-0.657725	0.064479	0.017486	0.004871
665	3.376488	0.005000	7.494840	-0.282183	-5.861766	0.035052	-0.152963	-0.658106	0.064388	0.001501	0.004445
666	3.381488	0.005000	7.416360	-0.274680	-5.944485	0.035507	-0.153418	-0.658487	0.056810	0.012016	0.006542
667	3.386488	0.005000	7.482118	-0.288476	-5.898722	0.035962	-0.153873	-0.658868	0.052155	0.009445	-0.000991
668	3.391488	0.005000	7.486732	-0.313920	-5.894108	0.036417	-0.154328	-0.659249	0.053721	0.011171	0.001767
669	3.396488	0.005000	7.455600	-0.256270	-5.865170	0.036872	-0.154783	-0.659630	0.072505	0.009918	0.002210
670	3.401488	0.005000	7.434346	-0.256694	-5.939959	0.037316	-0.155217	-0.659996	0.072644	0.018549	0.004237
671	3.406488	0.005000	7.425315	-0.289822	-6.067058	0.037430	-0.154990	-0.659869	0.056751	0.014383	0.004199
672	3.411488	0.005000	7.364678	-0.247882	-6.069758	0.037544	-0.154762	-0.659742	0.055156	0.006970	0.004543
673	3.416488	0.005000	7.347788	-0.274680	-5.993812	0.037658	-0.154535	-0.659615	0.056977	0.009981	-0.001223
674	3.421488	0.005000	7.344944	-0.256633	-6.089264	0.037772	-0.154307	-0.659488	0.046494	0.019409	0.004900
675	3.426488	0.005000	7.337880	-0.322391	-6.104498	0.037885	-0.154080	-0.659361	0.058162	0.012984	0.013309
676	3.431488	0.005000	7.342055	-0.391008	-6.040177	0.037999	-0.153852	-0.659234	0.044205	0.007154	0.006978
677	3.436488	0.005000	7.417812	-0.164221	-6.040056	0.038113	-0.153625	-0.659107	0.053851	0.006811	0.008448
678	3.441488	0.005000	7.451758	-0.235440	-5.929082	0.038227	-0.153397	-0.658980	0.050937	0.014194	0.000835
679	3.446488	0.005000	7.442228	-0.235440	-5.872628	0.038340	-0.153170	-0.658853	0.063991	0.010548	0.004536
680	3.451488	0.005000	7.308170	-0.244970	-5.846760	0.038454	-0.152942	-0.658726	0.049409	0.011272	0.012262
681	3.456488	0.005000	7.416360	-0.235440	-5.873626	0.038568	-0.152715	-0.658599	0.059872	0.001537	0.002755
682	3.461488	0.005000	7.377120	-0.298702	-5.907632	0.038682	-0.152487	-0.658472	0.063470	0.010482	-0.001348
683	3.466488	0.005000	7.401414	-0.277796	-5.871054	0.038796	-0.152260	-0.658345	0.048254	0.016063	0.002356
684	3.471488	0.005000	7.416360	-0.332723	-5.925240	0.038393	-0.152239	-0.657872	0.041222	0.013591	0.006049
685	3.476488	0.005000	7.502162	-0.360482	-5.964480	0.037938	-0.152239	-0.657363	0.054971	0.003630	0.001023
686	3.481488	0.005000	7.390235	-0.183085	-6.016729	0.037483	-0.152239	-0.656855	0.059998	0.011340	0.002616
687	3.486488	0.005000	7.387391	-0.216743	-5.935511	0.037027	-0.152239	-0.656347	0.065444	0.013291	0.009488
688	3.491488	0.005000	7.408933	-0.188773	-5.893427	0.036572	-0.152239	-0.655839	0.042513	0.015087	0.006461
689	3.496488	0.005000	7.347047	-0.196200	-5.999136	0.036117	-0.152239	-0.655331	0.053402	0.006877	0.010142
690	3.501488	0.005000	7.416360	-0.159153	-5.962287	0.035662	-0.152239	-0.654822	0.051031	0.005075	0.004512
691	3.506488	0.005000	7.300591	-0.234790	-6.079598	0.035207	-0.152239	-0.654314	0.052018	0.008033	0.003835
692	3.511488	0.005000	7.298640	-0.271186	-5.928734	0.034752	-0.152239	-0.653806	0.046173	0.003265	-0.002902
693	3.516488	0.005000	7.370782	-0.313920	-6.056847	0.034296	-0.152239	-0.653298	0.049283	0.004761	0.000835
694	3.521488	0.005000	7.319516	-0.265498	-5.973662	0.033841	-0.152239	-0.652790	0.056752	0.009703	0.009374
695	3.526488	0.005000	7.353068	-0.223414	-5.949292	0.033386	-0.152239	-0.652281	0.052775	0.010977	0.013442
696	3.531488	0.005000	7.337880	-0.260105	-6.013809	0.032931	-0.152239	-0.651773	0.042688	-0.000211	0.010004
697	3.536488	0.005000	7.394365	-0.213445	-5.998970	0.032926	-0.152239	-0.652371	0.028561	0.014891	0.011680
698	3.541488	0.005000	7.378058	-0.177049	-6.002782	0.033040	-0.152239	-0.653260	0.062169	0.015483	0.001409
699	3.546488	0.005000	7.360813	-0.156960	-6.033279	0.033154	-0.152239	-0.654150	0.060288	0.006186	0.008113
700	3.551488	0.005000	7.363657	-0.261217	-5.977943	0.033267	-0.152239	-0.655039	0.056703	0.012961	0.007769
701	3.556488	0.005000	7.319879	-0.264061	-5.993101	0.033381	-0.152239	-0.655928	0.053708	0.007252	0.009249
702	3.561488	0.005000	7.353613	-0.235440	-5.886000	0.033495	-0.152239	-0.656818	0.050577	0.017528	0.015244
703	3.566488	0.005000	7.377120	-0.201585	-5.919855	0.033609	-0.152239	-0.657707	0.049822	0.015416	0.007942
704	3.571488	0.005000	7.337880	-0.235440	-5.961939	0.033722	-0.152239	-0.658597	0.046248	0.009957	0.015815
705	3.576488	0.005000	7.493630	-0.274377	-5.886303	0.033836	-0.152239	-0.659486	0.048905	0.014896	0.017816
706	3.581488	0.005000	7.347319	-0.271534	-5.961334	0.033950	-0.152239	-0.660375	0.055634	0.011518	0.012785
707	3.586488	0.005000	7.371599	-0.235440	-6.031917	0.034064	-0.152239	-0.661265	0.048611	0.015255	0.012270
708	3.591488	0.005000	7.307005	-0.196200	-6.090565	0.034177	-0.152239	-0.662154	0.049107	0.008055	0.008422
709	3.596488	0.005000	7.337880	-0.184991	-6.054169	0.034291	-0.152239	-0.663044	0.047777	0.015019	0.009825
710	3.601488	0.005000	7.388254	-0.171013	-5.939293	0.034405	-0.152469	-0.663162	0.070498	0.001753	0.013632
711	3.606488	0.005000	7.409976	-0.173388	-5.925240	0.034519	-0.152811	-0.662907	0.049560	0.006828	0.016145
712	3.611488	0.005000	7.377120	-0.216168	-5.965176	0.034632	-0.153152	-0.662653	0.043285	0.003833	0.017856
713	3.616488	0.005000	7.359996	-0.235440	-5.952348	0.034746	-0.153493	-0.662399	0.057792	0.003808	0.009468
714	3.621488	0.005000	7.402080	-0.239040	-6.042960	0.034860	-0.153835	-0.662145	0.043535	0.008564	0.009194
715	3.626488	0.005000	7.377120	-0.325356	-6.015156	0.034974	-0.154176	-0.661891	0.048121	0.006857	0.010105
716	3.631488	0.005000	7.381589	-0.322613	-5.973173	0.035088	-0.154517	-0.661637	0.040656	0.007039	0.023482
717	3.636488	0.005000	7.265602	-0.353160	-5.898404	0.035202	-0.154859	-0.661383	0.046229	0.003680	0.009650
718	3.641488	0.005000	7.295282	-0.242156	-5.964480	0.035315	-0.155200	-0.661129	0.048517	0.005094	0.014863
719	3.646488	0.005000	7.417389	-0.312891	-6.042960	0.035429	-0.155541	-0.660875	0.042438	0.014433	0.011307
720	3.651488	0.005000	7.531750	-0.346171	-6.079870	0.035543	-0.155883	-0.660620	0.041650	0.006809	0.014445
721	3.656488	0.005000	7.450426	-0.303573	-6.077026	0.035657	-0.156224	-0.660366	0.047346	0.011077	0.011822
722	3.661488	0.005000	7.330332	-0.313920	-5.901097	0.035771	-0.156565	-0.660112	0.036667	0.015758	0.015637
723	3.666488	0.005000	7.366728	-0.285072	-6.022175	0.035757	-0.156716	-0.660071	0.047492	0.010599	0.018904
724	3.671488	0.005000	7.429127	-0.287916	-5.964480	0.035644	-0.156716	-0.660198	0.038871	0.007353	0.013424
725	3.676488	0.005000	7.337880	-0.313920	-5.934241	0.035530	-0.156716	-0.660325	0.050579	0.006106	0.009413
726	3.681488	0.005000	7.377120	-0.392400	-5.887392	0.035416	-0.156716	-0.660452	0.050454	0.005877	0.012106
727	3.686488	0.005000	7.302936	-0.313920	-6.056136	0.035302	-0.156716	-0.660579	0.056801	0.002483	0.013028
728	3.691488	0.005000	7.381764	-0.299292	-5.852100	0.035189	-0.156716	-0.660706	0.042735	0.017279	0.013600
729	3.696488	0.005000	7.443362	-0.223202	-5.937478	0.035075	-0.156716	-0.660833	0.052238	0.008420	0.011128
730	3.701488	0.005000	7.377120	-0.235440	-5.983268	0.034961	-0.156716	-0.660960	0.044169	0.002214	0.021007
731	3.706488	0.005000	7.285540	-0.196200	-5.977580	0.034847	-0.156716	-0.661087	0.044850	0.005069	0.003514
732	3.711488	0.005000	7.294934	-0.239146	-6.003720	0.034734	-0.156716	-0.661214	0.047572	0.007568	0.002339
733	3.716488	0.005000	7.337880	-0.273807	-6.041215	0.034620	-0.156716	-0.661341	0.029236	0.008247	0.009610
734	3.721488	0.005000	7.262425	-0.235440	-5.964480	0.034506	-0.156716	-0.661468	0.052428	0.014050	0.010669
735	3.726488	0.005000	7.228873	-0.235440	-6.008077	0.034392	-0.156716	-0.661595	0.060712	0.006034	0.011116
736	3.731488	0.005000	7.305841	-0.242641	-5.986082	0.034278	-0.156666	-0.661612	0.028546	0.019548	0.006423
737	3.736488	0.005000	7.346987	-0.147853	-6.062111	0.034165	-0.156553	-0.661485	0.043380	0.016001	0.010757
738	3.741488	0.005000	7.350768	-0.209663	-6.003720	0.034051	-0.156439	-0.661358	0.042039	0.014582	0.003018
739	3.746488	0.005000	7.275132	-0.258948	-5.925240	0.033937	-0.156325	-0.661231	0.043768	0.017235	0.003685
740	3.751488	0.005000	7.277976	-0.274680	-6.003720	0.033824	-0.156212	-0.661104	0.037166	0.019864	0.011907
741	3.756488	0.005000	7.374427	-0.256406	-5.904274	0.033710	-0.156098	-0.660976	0.032791	0.011625	0.007192
742	3.761488	0.005000	7.377120	-0.274680	-5.986959	0.033596	-0.155984	-0.660849	0.053261	0.015797	0.014046
743	3.766488	0.005000	7.325294	-0.249508	-6.028892	0.033483	-0.155871	-0.660722	0.037235	0.007424	0.016144
744	3.771488	0.005000	7.445740	-0.176680	-6.003720	0.033369	-0.155757	-0.660595	0.053866	0.012781	0.006294
745	3.776488	0.005000	7.401626	-0.259946	-6.028226	0.033255	-0.155643	-0.660468	0.037745	0.011223	0.012346
746	3.781488	0.005000	7.342403	-0.196200	-5.964480	0.033141	-0.155529	-0.660341	0.047535	0.017087	0.006473
747	3.786488	0.005000	7.413002	-0.233761	-5.926919	0.033028	-0.155416	-0.660214	0.041528	0.010154	0.016692
748	3.791488	0.005000	7.376416	-0.273271	-5.964480	0.032914	-0.155302	-0.660087	0.044383	0.012635	0.004517
749	3.796488	0.005000	7.344960	-0.274680	-6.053579	0.032836	-0.155188	-0.659960	0.054467	0.007890	0.012779
750	3.801488	0.005000	7.482073	-0.261913	-5.970864	0.032836	-0.155075	-0.659833	0.044562	0.022018	0.011761
751	3.806488	0.005000	7.494840	-0.244668	-6.123770	0.032836	-0.154961	-0.659706	0.048423	0.011677	0.003089
752	3.811488	0.005000	7.389192	-0.274680	-6.055032	0.032836	-0.154847	-0.659579	0.040608	0.017363	0.008935
753	3.816488	0.005000	7.430822	-0.235440	-6.018182	0.032836	-0.154733	-0.659452	0.055887	0.018190	0.016173
754	3.821488	0.005000	7.407102	-0.230811	-5.959851	0.032836	-0.154620	-0.659325	0.047455	0.015697	0.009630
755	3.826488	0.005000	7.338939	-0.216349	-5.926299	0.032836	-0.154506	-0.659198	0.036453	0.023414	0.000613
756	3.831488	0.005000	7.370373	-0.173207	-5.934740	0.032836	-0.154392	-0.659071	0.049426	0.014076	0.008814
757	3.836488	0.005000	7.429925	-0.209765	-5.950915	0.032836	-0.154278	-0.658944	0.052231	0.023520	0.005499
758	3.841488	0.005000	7.326852	-0.207228	-5.890871	0.032836	-0.154164	-0.658817	0.065470	0.014301	-0.002246
759	3.846488	0.005000	7.408176	-0.196200	-6.057649	0.032836	-0.154051	-0.658690	0.056900	0.016015	0.006927
760	3.851488	0.005000	7.298640	-0.162300	-5.975160	0.032836	-0.153937	-0.658563	0.053420	0.026677	0.005638
761	3.856488	0.005000	7.291152	-0.235440	-6.079704	0.032836	-0.153823	-0.658436	0.051857	0.018044	0.011339
762	3.861488	0.005000	7.377120	-0.157172	-6.042960	0.032879	-0.153709	-0.658381	0.060790	0.023378	0.001824
763	3.866488	0.005000	7.450124	-0.235440	-6.115964	0.033107	-0.153596	-0.658636	0.047452	0.024074	0.001880
764	3.871488	0.005000	7.343462	-0.241022	-5.958732	0.033335	-0.153482	-0.658890	0.053418	0.022755	0.005437
765	3.876488	0.005000	7.337880	-0.173812	-5.925240	0.033562	-0.153368	-0.659144	0.056464	0.016819	0.000037
766	3.881488	0.005000	7.270670	-0.145690	-5.846760	0.033790	-0.153254	-0.659399	0.064636	0.013661	0.007439
767	3.886488	0.005000	7.390930	-0.235440	-5.936860	0.034018	-0.153140	-0.659653	0.043225	0.025119	-0.002895
768	3.891488	0.005000	7.366894	-0.258191	-6.009983	0.034246	-0.153026	-0.659907	0.056000	0.016852	-0.003191
769	3.896488	0.005000	7.357213	-0.216107	-6.102107	0.034473	-0.152913	-0.660162	0.058792	0.020530	-0.001894
770	3.901488	0.005000	7.399296	-0.330984	-6.121440	0.034701	-0.152799	-0.660416	0.046985	0.018799	-0.005308
771	3.906488	0.005000	7.352100	-0.274680	-6.003720	0.034929	-0.152685	-0.660670	0.054417	0.018119	0.003590
772	3.911488	0.005000	7.287131	-0.251662	-5.980702	0.035156	-0.152571	-0.660925	0.059848	0.015832	0.007196
773	3.916488	0.005000	7.364837	-0.196200	-6.051946	0.035384	-0.152457	-0.661179	0.060841	0.017513	0.000487
774	3.921488	0.005000	7.482557	-0.229298	-6.030677	0.035612	-0.152344	-0.661433	0.049076	0.029002	0.001286
775	3.926488	0.005000	7.380418	-0.274680	-5.886000	0.035830	-0.152294	-0.661647	0.059101	0.016326	0.000657
776	3.931488	0.005000	7.416814	-0.313920	-5.808881	0.035944	-0.152976	-0.661393	0.051607	0.032035	0.006646
777	3.936488	0.005000	7.492450	-0.240220	-5.888390	0.036058	-0.153659	-0.661138	0.043778	0.030678	-0.002955
778	3.941488	0.005000	7.348322	-0.347939	-5.930461	0.036171	-0.154341	-0.660884	0.055619	0.028802	-0.001314
779	3.946488	0.005000	7.298640	-0.243503	-5.784406	0.036285	-0.155024	-0.660630	0.060370	0.027268	-0.005144
780	3.951488	0.005000	7.298640	-0.295830	-5.875425	0.036399	-0.155706	-0.660376	0.052417	0.017719	-0.001345
781	3.956488	0.005000	7.376470	-0.248737	-5.925240	0.036512	-0.156388	-0.660122	0.045792	0.024557	-0.004478
782	3.961488	0.005000	7.330921	-0.196200	-5.902141	0.036626	-0.157071	-0.659868	0.040439	0.020032	-0.001463
783	3.966488	0.005000	7.258129	-0.177215	-5.906255	0.036740	-0.157753	-0.659614	0.048341	0.024288	0.003283
784	3.971488	0.005000	7.316051	-0.174371	-5.916406	0.036853	-0.158436	-0.659360	0.041557	0.037284	-0.001391
785	3.976488	0.005000	7.362376	-0.220696	-5.925240	0.036967	-0.159118	-0.659106	0.056756	0.030576	-0.003141
786	3.981488	0.005000	7.298640	-0.247633	-6.018575	0.037081	-0.159800	-0.658852	0.036439	0.037469	-0.010180
787	3.986488	0.005000	7.337880	-0.207394	-6.074697	0.037195	-0.160483	-0.658598	0.049969	0.021686	-0.004256
788	3.991488	0.005000	7.416360	-0.124225	-5.997215	0.037308	-0.161165	-0.658344	0.050328	0.026981	-0.000162
789	3.996488	0.005000	7.491136	-0.239144	-5.964480	0.037313	-0.160431	-0.658455	0.059351	0.018467	-0.005451
790	4.001488	0.005000	7.378391	-0.235440	-6.001179	0.037313	-0.159634	-0.658582	0.033159	0.026732	0.001985
791	4.006488	0.005000	7.303360	-0.160106	-5.962907	0.037313	-0.158838	-0.658709	0.047221	0.034393	-0.004019
792	4.011488	0.005000	7.407526	-0.231023	-5.894834	0.037313	-0.158041	-0.658836	0.051529	0.036696	0.007093
793	4.016488	0.005000	7.430882	-0.164221	-5.932501	0.037313	-0.157245	-0.658963	0.038640	0.028405	0.003894
794	4.021488	0.005000	7.318850	-0.206305	-5.973405	0.037313	-0.156448	-0.659090	0.044697	0.025044	-0.002943
795	4.026488	0.005000	7.403411	-0.222491	-5.964480	0.037313	-0.155652	-0.659217	0.052288	0.030165	-0.000137
796	4.031488	0.005000	7.337880	-0.133513	-5.901793	0.037313	-0.154855	-0.659344	0.038488	0.033547	-0.003714
797	4.036488	0.005000	7.401097	-0.196200	-5.988457	0.037313	-0.154059	-0.659471	0.047535	0.024435	0.004602
798	4.041488	0.005000	7.337880	-0.175188	-6.021948	0.037313	-0.153262	-0.659599	0.046731	0.023244	0.002138
799	4.046488	0.005000	7.400976	-0.235440	-6.036047	0.037313	-0.152465	-0.659726	0.055453	0.022043	-0.002846
800	4.051488	0.005000	7.362961	-0.197819	-5.912700	0.037313	-0.151669	-0.659853	0.046334	0.025515	0.001308
801	4.056488	0.005000	7.416360	-0.127870	-5.856910	0.037313	-0.150872	-0.659980	0.043662	0.025513	-0.000494
802	4.061488	0.005000	7.440987	-0.235440	-5.893306	0.036930	-0.150842	-0.660000	0.053872	0.029750	0.007150
803	4.066488	0.005000	7.346805	-0.235440	-5.894925	0.036475	-0.150956	-0.660000	0.040501	0.030858	0.002652
804	4.071488	0.005000	7.493221	-0.235440	-5.967717	0.036020	-0.151069	-0.660000	0.053225	0.028639	0.003907
805	4.076488	0.005000	7.417585	-0.273455	-6.004945	0.035565	-0.151183	-0.660000	0.049731	0.027707	0.001735
806	4.081488	0.005000	7.486702	-0.161029	-5.842691	0.035109	-0.151297	-0.660000	0.051738	0.029005	0.000347
807	4.086488	0.005000	7.416360	-0.235440	-6.017183	0.034654	-0.151411	-0.660000	0.053396	0.021880	0.010052
808	4.091488	0.005000	7.485552	-0.166248	-5.971681	0.034199	-0.151525	-0.660000	0.046674	0.017266	0.009516
809	4.096488	0.005000	7.440624	-0.235440	-5.819652	0.033744	-0.151639	-0.660000	0.057288	0.021692	0.008496
810	4.101488	0.005000	7.422048	-0.274680	-5.816808	0.033289	-0.151752	-0.660000	0.046851	0.028220	0.008562
811	4.106488	0.005000	7.512660	-0.231840	-5.925240	0.032834	-0.151866	-0.660000	0.047408	0.025002	0.013577
812	4.111488	0.005000	7.474645	-0.197350	-5.906195	0.032379	-0.151980	-0.660000	0.052374	0.029924	0.010286
813	4.116488	0.005000	7.439399	-0.196200	-5.971318	0.031923	-0.152094	-0.660000	0.052601	0.020078	0.010998
814	4.121488	0.005000	7.481483	-0.235440	-5.977837	0.031468	-0.152208	-0.660000	0.051188	0.015566	0.013042
815	4.126488	0.005000	7.434573	-0.253653	-6.003720	0.031261	-0.152239	-0.660092	0.044416	0.026712	0.006210
816	4.131488	0.005000	7.361781	-0.172299	-5.956811	0.031147	-0.152239	-0.660219	0.073055	0.017412	0.006055
817	4.136488	0.005000	7.274046	-0.264916	-5.949834	0.031033	-0.152239	-0.660346	0.055494	0.029442	0.007739
818	4.141488	0.005000	7.264271	-0.235440	-5.888435	0.030920	-0.152239	-0.660473	0.056350	0.021705	0.007381
819	4.146488	0.005000	7.376712	-0.313103	-5.886408	0.030806	-0.152239	-0.660600	0.036843	0.023151	0.002937
820	4.151488	0.005000	7.485083	-0.196200	-5.928492	0.030692	-0.152239	-0.660727	0.043276	0.026345	-0.003726
821	4.156488	0.005000	7.494840	-0.235440	-5.964480	0.030578	-0.152239	-0.660854	0.053408	0.024452	-0.000102
822	4.161488	0.005000	7.416360	-0.196200	-5.894574	0.030465	-0.152239	-0.660981	0.051474	0.025602	-0.008768
823	4.166488	0.005000	7.427675	-0.196200	-5.925240	0.030351	-0.152239	-0.661108	0.048229	0.029351	-0.010784
824	4.171488	0.005000	7.441441	-0.196200	-5.911081	0.030237	-0.152239	-0.661235	0.040043	0.022185	0.008588
825	4.176488	0.005000	7.500074	-0.196200	-5.986717	0.030124	-0.152239	-0.661362	0.043555	0.020961	-0.005968
826	4.181488	0.005000	7.436661	-0.215593	-5.945087	0.030010	-0.152239	-0.661489	0.052014	0.020454	-0.005101
827	4.186488	0.005000	7.422502	-0.196200	-5.873717	0.029896	-0.152239	-0.661616	0.049460	0.026434	-0.007600
828	4.191488	0.005000	7.348802	-0.131879	-5.914318	0.030125	-0.152650	-0.661361	0.049765	0.018023	-0.004493
829	4.196488	0.005000	7.365805	-0.258070	-6.015035	0.030580	-0.153332	-0.660853	0.049458	0.029691	-0.005602
830	4.201488	0.005000	7.320938	-0.266209	-6.034489	0.031035	-0.154015	-0.660345	0.062715	0.017204	0.003489
831	4.206488	0.005000	7.410733	-0.241067	-5.964480	0.031490	-0.154697	-0.659837	0.051657	0.013342	0.000495
832	4.211488	0.005000	7.421994	-0.269046	-6.000903	0.031945	-0.155380	-0.659329	0.060112	0.018182	-0.004007
833	4.216488	0.005000	7.415952	-0.117312	-6.081792	0.032400	-0.156062	-0.658821	0.055921	0.016807	-0.001516
834	4.221488	0.005000	7.303511	-0.188894	-6.006155	0.032855	-0.156744	-0.658313	0.048829	0.022245	-0.008910
835	4.226488	0.005000	7.439762	-0.162239	-5.953921	0.033310	-0.157427	-0.657805	0.055212	0.019504	-0.007870
836	4.231488	0.005000	7.362250	-0.258433	-5.910370	0.033765	-0.158109	-0.657297	0.063016	0.024681	-0.003096
837	4.236488	0.005000	7.270036	-0.217473	-5.878669	0.034219	-0.158792	-0.656788	0.054071	0.024203	-0.014956
838	4.241488	0.005000	7.403003	-0.209557	-5.886000	0.034674	-0.159474	-0.656280	0.074927	0.017858	-0.006234
839	4.246488	0.005000	7.534080	-0.228602	-5.862961	0.035129	-0.160157	-0.655772	0.058570	0.030380	-0.007643
840	4.251488	0.005000	7.455600	-0.156960	-5.864655	0.035584	-0.160839	-0.655264	0.051007	0.023826	0.004272
841	4.256488	0.005000	7.438249	-0.139609	-5.890538	0.035275	-0.161576	-0.654512	0.074042	0.018536	0.003322
842	4.261488	0.005000	7.464888	-0.059904	-5.807520	0.034137	-0.162373	-0.653496	0.060311	0.021669	-0.003235
843	4.266488	0.005000	7.482708	-0.235440	-5.910264	0.032999	-0.163169	-0.652479	0.052661	0.022760	-0.006176
844	4.271488	0.005000	7.485552	-0.265392	-5.846760	0.031861	-0.163966	-0.651463	0.056143	0.025883	-0.005897
845	4.276488	0.005000	7.455600	-0.183312	-5.925240	0.030724	-0.164762	-0.650446	0.060185	0.033552	0.000588
846	4.281488	0.005000	7.416360	-0.196200	-5.893201	0.029586	-0.165559	-0.649430	0.061762	0.026131	-0.004412
847	4.286488	0.005000	7.417126	-0.117720	-5.888297	0.028448	-0.166355	-0.648413	0.060227	0.021021	0.000853
848	4.291488	0.005000	7.342736	-0.080099	-6.003720	0.027310	-0.167152	-0.647397	0.052229	0.020030	0.002051
849	4.296488	0.005000	7.425285	-0.117720	-5.973405	0.026172	-0.167949	-0.646380	0.061549	0.018578	-0.003230
850	4.301488	0.005000	7.622574	-0.220827	-5.989107	0.025034	-0.168745	-0.645364	0.054487	0.019625	0.004371
851	4.306488	0.005000	7.564531	-0.264530	-5.925240	0.023896	-0.169542	-0.644347	0.056599	0.024764	0.004605
852	4.311488	0.005000	7.494840	-0.274680	-6.043217	0.022758	-0.170338	-0.643331	0.055169	0.028862	0.003551
853	4.316488	0.005000	7.493282	-0.220056	-5.925240	0.021621	-0.171135	-0.642314	0.060038	0.023999	0.000833
854	4.321488	0.005000	7.473828	-0.177972	-5.804737	0.020855	-0.171559	-0.641759	0.066558	0.017984	-0.002891
855	4.326488	0.005000	7.356048	-0.178032	-5.907072	0.020741	-0.171332	-0.642014	0.059515	0.017812	0.008061
856	4.331488	0.005000	7.447008	-0.274680	-5.964480	0.020627	-0.171104	-0.642268	0.057705	0.018161	0.001973
857	4.336488	0.005000	7.494840	-0.274680	-5.977822	0.020513	-0.170876	-0.642522	0.049113	0.018099	-0.001331
858	4.341488	0.005000	7.445495	-0.235440	-5.886000	0.020399	-0.170649	-0.642776	0.054323	0.021719	0.002098
859	4.346488	0.005000	7.502101	-0.260158	-5.964480	0.020285	-0.170421	-0.643030	0.064826	0.009674	0.000086
860	4.351488	0.005000	7.464434	-0.152543	-5.920823	0.020171	-0.170193	-0.643285	0.057162	0.020741	0.011016
861	4.356488	0.005000	7.455600	-0.199346	-5.926813	0.020057	-0.169966	-0.643539	0.051577	0.017915	0.008192
862	4.361488	0.005000	7.455600	-0.198741	-5.850572	0.019944	-0.169738	-0.643793	0.051152	0.017986	0.007135
863	4.366488	0.005000	7.373005	-0.148731	-5.776509	0.019830	-0.169510	-0.644047	0.045098	0.018831	0.000358
864	4.371488	0.005000	7.305221	-0.222278	-5.859922	0.019716	-0.169282	-0.644302	0.048616	0.011793	0.010564
865	4.376488	0.005000	7.416360	-0.274680	-5.895349	0.019602	-0.169055	-0.644556	0.057393	0.020769	0.011242
866	4.381488	0.005000	7.443407	-0.223247	-5.913047	0.019488	-0.168827	-0.644810	0.047874	0.018383	0.009025
867	4.386488	0.005000	7.446433	-0.259644	-5.958611	0.019547	-0.168427	-0.645225	0.054451	0.022540	0.011401
868	4.391488	0.005000	7.534080	-0.335280	-6.003720	0.020116	-0.167517	-0.646114	0.061939	0.015954	-0.003873
869	4.396488	0.005000	7.436615	-0.334175	-5.945495	0.020684	-0.166607	-0.647003	0.056781	0.010703	0.005382
870	4.401488	0.005000	7.377120	-0.212341	-5.846760	0.021253	-0.165697	-0.647892	0.053836	0.031279	0.002133
871	4.406488	0.005000	7.442303	-0.274680	-5.846760	0.021822	-0.164787	-0.648781	0.061921	0.016034	0.008632
872	4.411488	0.005000	7.445147	-0.245893	-5.828426	0.022390	-0.163877	-0.649670	0.046891	0.013123	0.008165
873	4.416488	0.005000	7.487231	-0.337942	-5.964480	0.022959	-0.162967	-0.650559	0.031904	0.008310	0.015059
874	4.421488	0.005000	7.485310	-0.196200	-5.959715	0.023528	-0.162057	-0.651448	0.042358	0.015128	0.013878
875	4.426488	0.005000	7.457544	-0.200087	-5.927184	0.024097	-0.161147	-0.652338	0.060188	0.014355	0.020482
876	4.431488	0.005000	7.456069	-0.235909	-6.003251	0.024665	-0.160237	-0.653227	0.054327	0.003544	0.018902
877	4.436488	0.005000	7.337880	-0.192887	-5.886000	0.025234	-0.159327	-0.654116	0.050630	0.015494	0.009127
878	4.441488	0.005000	7.527923	-0.163117	-5.801363	0.025803	-0.158417	-0.655005	0.051492	0.018250	0.010127
879	4.446488	0.005000	7.450900	-0.196200	-5.877365	0.026371	-0.157507	-0.655894	0.042951	0.019832	0.021465
880	4.451488	0.005000	7.489727	-0.089856	-5.913864	0.026866	-0.156716	-0.656700	0.037579	0.009405	0.011595
881	4.456488	0.005000	7.466401	-0.156960	-5.939460	0.026866	-0.156716	-0.656954	0.039505	0.012998	0.009523
882	4.461488	0.005000	7.450487	-0.218376	-6.003720	0.026866	-0.156716	-0.657208	0.029816	0.012451	0.010516
883	4.466488	0.005000	7.494265	-0.176867	-5.945147	0.026866	-0.156716	-0.657462	0.042941	-0.000831	0.025671
884	4.471488	0.005000	7.438642	-0.196200	-5.925240	0.026866	-0.156716	-0.657717	0.040039	0.017466	0.013358
885	4.476488	0.005000	7.469714	-0.207213	-5.978594	0.026866	-0.156716	-0.657971	0.045776	0.018867	0.006043
886	4.481488	0.005000	7.517380	-0.235440	-5.953210	0.026866	-0.156716	-0.658225	0.048345	0.016120	0.015914
887	4.486488	0.005000	7.517228	-0.235440	-5.877574	0.026866	-0.156716	-0.658479	0.050075	0.020348	0.012897
888	4.491488	0.005000	7.427524	-0.151378	-5.914076	0.026866	-0.156716	-0.658733	0.058715	0.014876	0.021416
889	4.496488	0.005000	7.491648	-0.075288	-5.922048	0.026866	-0.156716	-0.658987	0.040755	0.021917	0.014099
890	4.501488	0.005000	7.533732	-0.040632	-5.886000	0.026866	-0.156716	-0.659241	0.058267	0.013994	0.017560
891	4.506488	0.005000	7.458096	-0.159456	-5.886000	0.026866	-0.156716	-0.659495	0.037924	0.010637	0.020746
892	4.511488	0.005000	7.455600	-0.128400	-5.948460	0.026866	-0.156716	-0.659749	0.022511	0.014328	0.017556
893	4.516488	0.005000	7.494840	-0.235440	-5.918735	0.026872	-0.156713	-0.659998	0.043505	0.010491	0.016003
894	4.521488	0.005000	7.444913	-0.206887	-5.778967	0.027328	-0.156485	-0.659871	0.046548	0.017741	0.015445
895	4.526488	0.005000	7.508243	-0.170363	-5.898435	0.027783	-0.156258	-0.659744	0.058060	0.010292	0.015216
896	4.531488	0.005000	7.432607	-0.219193	-5.886000	0.028238	-0.156030	-0.659617	0.050955	0.014490	0.016410
897	4.536488	0.005000	7.397269	-0.215291	-5.963421	0.028693	-0.155803	-0.659490	0.044621	0.005442	0.005961
898	4.541488	0.005000	7.411731	-0.235440	-5.886000	0.029148	-0.155575	-0.659363	0.045379	0.014090	0.013609
899	4.546488	0.005000	7.430991	-0.206178	-5.881348	0.029603	-0.155347	-0.659236	0.044789	0.016070	0.005754
900	4.551488	0.005000	7.452575	-0.250537	-5.831663	0.030058	-0.155120	-0.659109	0.054510	0.010417	0.018540
901	4.556488	0.005000	7.437145	-0.175415	-5.964480	0.030514	-0.154892	-0.658981	0.052938	0.021750	0.011020
902	4.561488	0.005000	7.429127	-0.196200	-5.912473	0.030969	-0.154665	-0.658854	0.047300	0.005622	0.011198
903	4.566488	0.005000	7.491300	-0.231900	-5.989561	0.031424	-0.154437	-0.658727	0.033510	0.006099	0.014085
904	4.571488	0.005000	7.456765	-0.158125	-5.846760	0.031879	-0.154209	-0.658600	0.043747	0.006550	0.007351
905	4.576488	0.005000	7.494840	-0.271322	-5.809199	0.032334	-0.153982	-0.658473	0.057105	0.011330	0.010404
906	4.581488	0.005000	7.425406	-0.166006	-5.846760	0.032789	-0.153754	-0.658346	0.044687	0.017535	0.014610
907	4.586488	0.005000	7.470334	-0.196200	-5.736407	0.032938	-0.153731	-0.658675	0.072785	0.009335	0.010680
908	4.591488	0.005000	7.426571	-0.196200	-5.865578	0.033052	-0.153731	-0.659056	0.042409	0.013038	0.013410
909	4.596488	0.005000	7.507970	-0.170015	-5.951425	0.033166	-0.153731	-0.659437	0.034822	-0.005302	0.013727
910	4.601488	0.005000	7.455600	-0.196200	-5.862386	0.033279	-0.153731	-0.659819	0.044391	-0.002214	0.016894
911	4.606488	0.005000	7.536742	-0.214489	-5.849422	0.033393	-0.153731	-0.660200	0.042045	0.002234	0.002329
912	4.611488	0.005000	7.515973	-0.235440	-5.904107	0.033507	-0.153731	-0.660581	0.053832	0.005802	0.014049
913	4.616488	0.005000	7.470863	-0.204913	-5.768280	0.033621	-0.153731	-0.660962	0.050634	0.015140	0.012554
914	4.621488	0.005000	7.558928	-0.210592	-5.739497	0.033734	-0.153731	-0.661344	0.047741	0.011797	0.017127
915	4.626488	0.005000	7.514021	-0.245908	-5.777871	0.033848	-0.153731	-0.661725	0.030493	0.012258	0.021013
916	4.631488	0.005000	7.573320	-0.203026	-5.839934	0.033962	-0.153731	-0.662106	0.033775	0.017175	0.009745
917	4.636488	0.005000	7.481770	-0.270323	-5.890357	0.034076	-0.153731	-0.662487	0.055704	0.013458	0.006749
918	4.641488	0.005000	7.339393	-0.156960	-5.851298	0.034189	-0.153731	-0.662868	0.052088	0.007083	0.016317
919	4.646488	0.005000	7.377120	-0.270686	-5.926571	0.034303	-0.153731	-0.663250	0.049199	0.005260	0.017369
920	4.651488	0.005000	7.403835	-0.239615	-5.811695	0.034328	-0.154175	-0.663333	0.059775	0.013252	0.013012
921	4.656488	0.005000	7.488211	-0.242069	-5.781539	0.034328	-0.154744	-0.663333	0.051698	0.011348	0.014238
922	4.661488	0.005000	7.543474	-0.185142	-5.777674	0.034328	-0.155313	-0.663333	0.036262	0.003173	0.014966
923	4.666488	0.005000	7.480076	-0.196200	-5.873762	0.034328	-0.155882	-0.663333	0.037961	0.010481	0.014050
924	4.671488	0.005000	7.422366	-0.141878	-5.870918	0.034328	-0.156451	-0.663333	0.052935	0.002011	0.016014
925	4.676488	0.005000	7.458988	-0.174886	-5.810908	0.034328	-0.157020	-0.663333	0.066518	0.007852	0.013595
926	4.681488	0.005000	7.513526	-0.177514	-5.904686	0.034328	-0.157589	-0.663333	0.056629	0.005150	0.014580
927	4.686488	0.005000	7.423440	-0.212280	-5.964480	0.034328	-0.158158	-0.663333	0.048707	-0.004316	0.014179
928	4.691488	0.005000	7.416360	-0.222673	-5.951244	0.034328	-0.158727	-0.663333	0.058462	0.009468	0.002132
929	4.696488	0.005000	7.505232	-0.245832	-5.914848	0.034328	-0.159296	-0.663333	0.053242	0.004162	0.010435
930	4.701488	0.005000	7.384668	-0.156960	-5.925240	0.034328	-0.159865	-0.663333	0.053124	0.009968	-0.007374
931	4.706488	0.005000	7.504249	-0.053354	-5.826338	0.034328	-0.160434	-0.663333	0.050135	0.007995	0.006037
932	4.711488	0.005000	7.496723	-0.198083	-5.923357	0.034328	-0.161003	-0.663333	0.041728	0.006205	-0.001692
933	4.716488	0.005000	7.495354	-0.235440	-5.924726	0.034252	-0.160892	-0.663417	0.039839	0.002308	0.002199
934	4.721488	0.005000	7.573320	-0.202916	-5.961122	0.034139	-0.160436	-0.663545	0.066249	0.010694	0.007163
935	4.726488	0.005000	7.468004	-0.268478	-6.063594	0.034025	-0.159981	-0.663672	0.063676	0.004581	0.008421
936	4.731488	0.005000	7.386166	-0.214292	-5.985628	0.033911	-0.159526	-0.663799	0.068349	0.006559	0.001387
937	4.736488	0.005000	7.455600	-0.262790	-5.964480	0.033797	-0.159071	-0.663926	0.057182	0.006414	0.015039
938	4.741488	0.005000	7.455600	-0.235440	-5.875654	0.033684	-0.158616	-0.664053	0.072968	-0.002003	0.007800
939	4.746488	0.005000	7.468333	-0.252764	-5.934423	0.033570	-0.158161	-0.664180	0.061832	0.010537	0.010195
940	4.751488	0.005000	7.474176	-0.216168	-5.985840	0.033456	-0.157705	-0.664307	0.072615	0.006960	0.002613
941	4.756488	0.005000	7.563276	-0.251868	-5.863188	0.033342	-0.157250	-0.664434	0.070860	0.006916	0.005338
942	4.761488	0.005000	7.455600	-0.235440	-5.925240	0.033229	-0.156795	-0.664561	0.064773	0.007843	0.010831
943	4.766488	0.005000	7.416360	-0.213959	-5.829001	0.033115	-0.156340	-0.664688	0.066443	0.010401	0.004496
944	4.771488	0.005000	7.511571	-0.266315	-5.925240	0.033001	-0.155885	-0.664815	0.056772	0.005932	0.001169
945	4.776488	0.005000	7.517516	-0.269159	-5.914197	0.032887	-0.155430	-0.664943	0.054669	0.011323	-0.000435
946	4.781488	0.005000	7.340558	-0.156960	-5.810198	0.032711	-0.155099	-0.664930	0.058228	0.005078	0.002253
947	4.786488	0.005000	7.416194	-0.196034	-5.807686	0.032484	-0.154872	-0.664803	0.049573	0.002106	-0.003822
948	4.791488	0.005000	7.453059	-0.196200	-5.846760	0.032256	-0.154644	-0.664676	0.058486	-0.000881	0.007612
949	4.796488	0.005000	7.534080	-0.235440	-5.903699	0.032028	-0.154416	-0.664549	0.038581	0.004904	0.007843
950	4.801488	0.005000	7.509392	-0.235440	-5.925240	0.031800	-0.154188	-0.664422	0.064450	0.003352	0.005195
951	4.806488	0.005000	7.472694	-0.263607	-5.914167	0.031573	-0.153961	-0.664295	0.053635	0.006387	0.003646
952	4.811488	0.005000	7.455600	-0.235440	-5.858759	0.031345	-0.153733	-0.664167	0.055131	0.003116	0.004513
953	4.816488	0.005000	7.344506	-0.274680	-5.997094	0.031117	-0.153505	-0.664040	0.054558	0.014013	0.008087
954	4.821488	0.005000	7.476627	-0.196200	-5.864973	0.030890	-0.153278	-0.663913	0.051843	0.013065	0.009071
955	4.826488	0.005000	7.499590	-0.152210	-5.947235	0.030662	-0.153050	-0.663786	0.055900	0.009566	0.012389
956	4.831488	0.005000	7.465689	-0.186111	-5.896089	0.030434	-0.152822	-0.663659	0.047194	0.003768	0.013143
957	4.836488	0.005000	7.588508	-0.274680	-5.846760	0.030207	-0.152595	-0.663532	0.047177	0.000291	0.004945
958	4.841488	0.005000	7.564138	-0.235440	-5.906876	0.029979	-0.152367	-0.663404	0.057365	-0.000690	0.013306
959	4.846488	0.005000	7.455600	-0.235440	-5.774618	0.029851	-0.152388	-0.663333	0.046572	0.003736	0.007333
960	4.851488	0.005000	7.534080	-0.306849	-5.893071	0.029851	-0.152730	-0.663333	0.047314	0.002010	0.000591
961	4.856488	0.005000	7.455600	-0.158064	-5.884896	0.029851	-0.153071	-0.663333	0.048820	0.007312	0.008560
962	4.861488	0.005000	7.493100	-0.196200	-5.846760	0.029851	-0.153412	-0.663333	0.056445	0.006440	0.013723
963	4.866488	0.005000	7.598809	-0.230856	-5.881416	0.029851	-0.153753	-0.663333	0.042356	0.006460	0.014138
964	4.871488	0.005000	7.668758	-0.228013	-5.886000	0.029851	-0.154094	-0.663333	0.057433	0.009392	0.007459
965	4.876488	0.005000	7.573320	-0.206121	-5.817441	0.029851	-0.154435	-0.663333	0.066034	-0.001076	0.006554
966	4.881488	0.005000	7.560674	-0.262034	-5.846760	0.029851	-0.154777	-0.663333	0.048031	0.012750	0.015502
967	4.886488	0.005000	7.541311	-0.227181	-5.887029	0.029851	-0.155118	-0.663333	0.042817	0.010247	0.015743
968	4.891488	0.005000	7.515746	-0.156960	-5.883428	0.029851	-0.155459	-0.663333	0.035827	0.005663	0.015477
969	4.896488	0.005000	7.471180	-0.211780	-5.786553	0.029851	-0.155800	-0.663333	0.067379	-0.004526	0.012648
970	4.901488	0.005000	7.502736	-0.274680	-5.815416	0.029851	-0.156141	-0.663333	0.044521	0.004728	0.014521
971	4.906488	0.005000	7.454844	-0.235440	-5.741868	0.029851	-0.156482	-0.663333	0.051204	0.008012	-0.004559
972	4.911488	0.005000	7.426344	-0.264696	-5.816808	0.029959	-0.156644	-0.663333	0.069671	-0.002459	-0.003650
973	4.916488	0.005000	7.366440	-0.249720	-5.861040	0.030300	-0.156417	-0.663333	0.050848	0.012988	-0.006918
974	4.921488	0.005000	7.481952	-0.244032	-5.955888	0.030641	-0.156189	-0.663333	0.067860	0.000849	0.004142
975	4.926488	0.005000	7.381477	-0.235440	-5.958671	0.030983	-0.155962	-0.663333	0.053195	0.004662	-0.001873
976	4.931488	0.005000	7.532688	-0.235440	-5.921065	0.031324	-0.155734	-0.663333	0.052979	0.008162	-0.003925
977	4.936488	0.005000	7.529844	-0.274680	-5.881764	0.031665	-0.155506	-0.663333	0.060756	0.001222	0.010200
978	4.941488	0.005000	7.501531	-0.202891	-5.951099	0.032007	-0.155279	-0.663333	0.066221	0.006532	-0.005812
979	4.946488	0.005000	7.584196	-0.254349	-5.914364	0.032348	-0.155051	-0.663333	0.065838	0.002455	-0.011505
980	4.951488	0.005000	7.494840	-0.235440	-6.018363	0.032689	-0.154824	-0.663333	0.035538	0.011685	0.001892
981	4.956488	0.005000	7.527893	-0.235440	-6.027818	0.033031	-0.154596	-0.663333	0.057098	0.010070	0.000496
982	4.961488	0.005000	7.455600	-0.235440	-5.960698	0.033372	-0.154368	-0.663333	0.061273	0.013091	0.000087
983	4.966488	0.005000	7.435239	-0.236922	-5.925240	0.033713	-0.154141	-0.663333	0.053845	0.006262	0.005748
984	4.971488	0.005000	7.448430	-0.244305	-5.862795	0.034055	-0.153913	-0.663333	0.069410	0.004473	-0.000555
985	4.976488	0.005000	7.520889	-0.326778	-5.833569	0.034305	-0.153731	-0.663308	0.044983	0.010670	-0.004218
986	4.981488	0.005000	7.505308	-0.253744	-5.904304	0.034192	-0.153731	-0.663181	0.042298	0.001586	0.001080
987	4.986488	0.005000	7.518166	-0.196200	-5.893957	0.034078	-0.153731	-0.663054	0.037829	0.001479	-0.003418
988	4.991488	0.005000	7.387346	-0.117720	-5.886000	0.033964	-0.153731	-0.662927	0.048378	0.004100	-0.003381
989	4.996488	0.005000	7.453331	-0.239978	-5.886000	0.033851	-0.153731	-0.662800	0.056159	0.008364	-0.001554
990	5.001488	0.005000	7.455025	-0.236590	-5.924665	0.033737	-0.153731	-0.662673	0.051905	0.007801	0.000898
991	5.006488	0.005000	7.386076	-0.280651	-5.883015	0.033623	-0.153731	-0.662546	0.061697	0.000292	0.004741
992	5.011488	0.005000	7.449806	-0.313920	-5.919446	0.033510	-0.153731	-0.662419	0.057646	0.001709	0.008277
993	5.016488	0.005000	7.477565	-0.222113	-5.929929	0.033396	-0.153731	-0.662292	0.072185	0.003015	0.000387
994	5.021488	0.005000	7.460395	-0.235440	-5.902277	0.033282	-0.153731	-0.662165	0.056916	0.001016	-0.002457
995	5.026488	0.005000	7.441566	-0.260646	-5.874828	0.033168	-0.153731	-0.662038	0.067201	0.003028	-0.005384
996	5.031488	0.005000	7.388027	-0.229631	-5.931049	0.033055	-0.153731	-0.661911	0.047335	-0.000446	0.000859
997	5.036488	0.005000	7.396558	-0.255121	-5.964480	0.032941	-0.153731	-0.661784	0.044701	0.002258	-0.003214
998	5.041488	0.005000	7.371553	-0.201767	-5.908403	0.032853	-0.153740	-0.661696	0.054612	0.008158	-0.002956
999	5.046488	0.005000	7.522825	-0.235440	-5.835505	0.033081	-0.153854	-0.662077	0.052485	0.002600	-0.003547
1000	5.051488	0.005000	7.483691	-0.296978	-6.003720	0.033309	-0.153967	-0.662459	0.043591	0.008823	-0.002749
1001	5.056488	0.005000	7.503614	-0.353160	-5.894774	0.033536	-0.154081	-0.662840	0.058820	0.007767	-0.004357
1002	5.061488	0.005000	7.449670	-0.307990	-5.913380	0.033764	-0.154195	-0.663222	0.053415	0.008098	-0.007837
1003	5.066488	0.005000	7.455600	-0.199286	-5.810606	0.033992	-0.154309	-0.663603	0.052930	-0.002933	0.005550
1004	5.071488	0.005000	7.377120	-0.274680	-5.768038	0.034219	-0.154423	-0.663984	0.060654	0.008437	0.005072
1005	5.076488	0.005000	7.377120	-0.274680	-5.802316	0.034447	-0.154537	-0.664366	0.051136	0.005261	0.001359
1006	5.081488	0.005000	7.372070	-0.230390	-5.880950	0.034675	-0.154651	-0.664747	0.035040	0.016811	0.010411
1007	5.086488	0.005000	7.447764	-0.204036	-5.956644	0.034902	-0.154765	-0.665128	0.046426	0.003024	0.003670
1008	5.091488	0.005000	7.398480	-0.196200	-5.964480	0.035130	-0.154878	-0.665510	0.053037	0.005892	0.008001
1009	5.096488	0.005000	7.455600	-0.184007	-5.887331	0.035358	-0.154992	-0.665891	0.033211	0.016073	0.004128
1010	5.101488	0.005000	7.455600	-0.235440	-5.807520	0.035586	-0.155106	-0.666273	0.050518	0.003543	0.009916
1011	5.106488	0.005000	7.436388	-0.176172	-5.749885	0.035813	-0.155220	-0.666654	0.034861	0.008645	0.011861
1012	5.111488	0.005000	7.377120	-0.213853	-5.846760	0.035601	-0.154894	-0.666299	0.043411	0.006671	0.004581
1013	5.116488	0.005000	7.401550	-0.269491	-5.886000	0.035374	-0.154553	-0.665918	0.044027	0.008902	0.013614
1014	5.121488	0.005000	7.413017	-0.168926	-5.949171	0.035146	-0.154211	-0.665536	0.037745	0.006223	0.009953
1015	5.126488	0.005000	7.425482	-0.253683	-5.985477	0.034918	-0.153870	-0.665155	0.050017	0.007107	-0.001020
1016	5.131488	0.005000	7.468156	-0.229162	-5.780836	0.034691	-0.153529	-0.664774	0.053055	0.008801	0.000727
1017	5.136488	0.005000	7.491406	-0.163828	-5.785449	0.034463	-0.153187	-0.664393	0.056200	0.004165	0.001305
1018	5.141488	0.005000	7.416360	-0.273621	-5.923122	0.034236	-0.152846	-0.664012	0.045093	0.013871	0.016599
1019	5.146488	0.005000	7.416360	-0.272895	-5.809305	0.034008	-0.152504	-0.663630	0.051771	0.004245	0.013011
1020	5.151488	0.005000	7.460229	-0.274680	-5.703687	0.033781	-0.152163	-0.663249	0.063709	0.005771	0.017968
1021	5.156488	0.005000	7.455600	-0.211146	-5.807520	0.033553	-0.151822	-0.662868	0.046938	0.016286	0.010012
1022	5.161488	0.005000	7.445283	-0.225123	-5.904606	0.033325	-0.151480	-0.662487	0.048760	0.011899	0.003189
1023	5.166488	0.005000	7.442681	-0.209361	-5.886000	0.033098	-0.151139	-0.662106	0.038745	0.013435	0.004724
1024	5.171488	0.005000	7.479289	-0.125858	-5.901551	0.032870	-0.150797	-0.661724	0.048661	0.009064	0.011099
1025	5.176488	0.005000	7.534080	-0.217045	-5.904395	0.032836	-0.150843	-0.661775	0.057361	0.003670	0.008371
1026	5.181488	0.005000	7.377120	-0.217439	-5.943241	0.032836	-0.150957	-0.661902	0.041386	0.009774	0.001832
1027	5.186488	0.005000	7.461832	-0.156960	-5.931472	0.032836	-0.151070	-0.662029	0.047988	0.005927	0.010672
1028	5.191488	0.005000	7.497139	-0.181587	-5.991406	0.032836	-0.151184	-0.662156	0.038469	0.014669	0.002066
1029	5.196488	0.005000	7.436661	-0.235440	-5.964480	0.032836	-0.151298	-0.662283	0.032896	0.014732	0.004613
1030	5.201488	0.005000	7.351131	-0.248691	-6.042960	0.032836	-0.151412	-0.662410	0.034624	0.011852	0.011399
1031	5.206488	0.005000	7.459851	-0.278931	-6.003720	0.032836	-0.151526	-0.662537	0.051158	0.014773	-0.003617
1032	5.211488	0.005000	7.452786	-0.312513	-5.850980	0.032836	-0.151639	-0.662664	0.044393	0.009436	0.007632
1033	5.216488	0.005000	7.414923	-0.274680	-5.851071	0.032836	-0.151753	-0.662791	0.057086	0.007971	-0.005341
1034	5.221488	0.005000	7.420641	-0.231159	-5.842479	0.032836	-0.151867	-0.662918	0.051405	0.010804	-0.003941
1035	5.226488	0.005000	7.480590	-0.196200	-5.807520	0.032836	-0.151981	-0.663045	0.049839	0.015966	0.002831
1036	5.231488	0.005000	7.416360	-0.225814	-5.846760	0.032836	-0.152095	-0.663172	0.048794	0.015752	0.001318
1037	5.236488	0.005000	7.455600	-0.235440	-5.861282	0.032836	-0.152209	-0.663299	0.058942	0.005751	0.006912
1038	5.241488	0.005000	7.461969	-0.220237	-5.949277	0.032753	-0.152823	-0.663054	0.073670	0.007846	-0.000935
1039	5.246488	0.005000	7.377120	-0.235440	-5.982527	0.032639	-0.153619	-0.662672	0.055432	0.005520	-0.000550
1040	5.251488	0.005000	7.358771	-0.217091	-5.967021	0.032525	-0.154416	-0.662291	0.042833	0.003997	0.005049
1041	5.256488	0.005000	7.416360	-0.172465	-5.869542	0.032411	-0.155213	-0.661910	0.051225	0.003018	0.002236
1042	5.261488	0.005000	7.442785	-0.117720	-5.925240	0.032297	-0.156009	-0.661529	0.034741	0.005109	0.005336
1043	5.266488	0.005000	7.455600	-0.187820	-5.993433	0.032183	-0.156806	-0.661148	0.053587	0.005745	0.005163
1044	5.271488	0.005000	7.330437	-0.227997	-5.957037	0.032070	-0.157602	-0.660766	0.048540	0.003785	0.009336
1045	5.276488	0.005000	7.298640	-0.166157	-5.925240	0.031956	-0.158399	-0.660385	0.049516	0.014509	0.013352
1046	5.281488	0.005000	7.421686	-0.271129	-5.964480	0.031842	-0.159195	-0.660004	0.052541	0.014030	0.000540
1047	5.286488	0.005000	7.456871	-0.157595	-5.887271	0.031728	-0.159992	-0.659623	0.047616	0.014721	-0.001976
1048	5.291488	0.005000	7.426798	-0.228481	-5.974918	0.031614	-0.160788	-0.659242	0.048481	0.008307	-0.009229
1049	5.296488	0.005000	7.494840	-0.169606	-5.904970	0.031500	-0.161585	-0.658860	0.059207	0.002233	0.002628
1050	5.301488	0.005000	7.464767	-0.244607	-5.895167	0.031387	-0.162381	-0.658479	0.045747	0.011093	-0.002957
1051	5.306488	0.005000	7.400483	-0.196200	-5.886000	0.031343	-0.162406	-0.658725	0.044403	0.009320	0.003728
1052	5.311488	0.005000	7.391506	-0.274680	-5.857228	0.031343	-0.161951	-0.659360	0.053059	0.004402	-0.003177
1053	5.316488	0.005000	7.389570	-0.257450	-5.890780	0.031343	-0.161496	-0.659995	0.060198	-0.007526	-0.003980
1054	5.321488	0.005000	7.456508	-0.196200	-5.924332	0.031343	-0.161041	-0.660631	0.049669	0.002310	0.007669
1055	5.326488	0.005000	7.449005	-0.189605	-5.941562	0.031343	-0.160585	-0.661266	0.050282	0.007368	0.007814
1056	5.331488	0.005000	7.508318	-0.248918	-5.912957	0.031343	-0.160130	-0.661902	0.054672	0.005823	0.015111
1057	5.336488	0.005000	7.444837	-0.196200	-5.864474	0.031343	-0.159675	-0.662537	0.050795	0.000743	0.006746
1058	5.341488	0.005000	7.455600	-0.196200	-5.824039	0.031343	-0.159220	-0.663172	0.056159	-0.001349	0.011785
1059	5.346488	0.005000	7.427191	-0.156960	-6.003720	0.031343	-0.158765	-0.663808	0.047704	0.002032	0.009383
1060	5.351488	0.005000	7.573320	-0.235440	-5.959337	0.031343	-0.158309	-0.664443	0.045407	0.000379	-0.001615
1061	5.356488	0.005000	7.495385	-0.157505	-5.886000	0.031343	-0.157854	-0.665079	0.049353	-0.002627	0.005085
1062	5.361488	0.005000	7.452484	-0.229208	-5.994371	0.031343	-0.157399	-0.665714	0.056499	0.005064	0.005437
1063	5.366488	0.005000	7.517368	-0.235440	-6.031819	0.031343	-0.156944	-0.666349	0.067812	0.003769	0.015890
1064	5.371488	0.005000	7.385470	-0.151121	-5.925240	0.031514	-0.156830	-0.666349	0.055822	0.009613	0.014303
1065	5.376488	0.005000	7.422018	-0.156960	-5.807520	0.031855	-0.157057	-0.665714	0.061292	-0.001370	0.003153
1066	5.381488	0.005000	7.441562	-0.196200	-5.886000	0.032196	-0.157285	-0.665079	0.047447	0.002881	0.002996
1067	5.386488	0.005000	7.433242	-0.173842	-5.902882	0.032537	-0.157512	-0.664444	0.040666	0.005204	-0.000936
1068	5.391488	0.005000	7.397058	-0.235440	-5.807732	0.032879	-0.157740	-0.663809	0.051188	0.007222	-0.001580
1069	5.396488	0.005000	7.371220	-0.258010	-5.818291	0.033220	-0.157967	-0.663174	0.056809	0.015490	0.000326
1070	5.401488	0.005000	7.441774	-0.235440	-5.936827	0.033561	-0.158195	-0.662539	0.056835	0.016012	-0.000243
1071	5.406488	0.005000	7.432697	-0.179863	-5.818971	0.033902	-0.158422	-0.661904	0.047291	0.010260	-0.004948
1072	5.411488	0.005000	7.399145	-0.196200	-5.838153	0.034244	-0.158649	-0.661269	0.045755	0.005001	-0.003396
1073	5.416488	0.005000	7.394410	-0.151197	-5.958717	0.034585	-0.158877	-0.660634	0.038802	0.003622	0.000147
1074	5.421488	0.005000	7.413440	-0.190361	-5.922320	0.034926	-0.159104	-0.659999	0.048794	0.000995	0.000861
1075	5.426488	0.005000	7.377347	-0.157036	-5.846987	0.035267	-0.159332	-0.659363	0.064901	0.008111	0.008578
1076	5.431488	0.005000	7.457942	-0.159302	-5.816886	0.035609	-0.159559	-0.658728	0.054672	0.006608	0.004070
1077	5.436488	0.005000	7.494840	-0.156960	-5.914923	0.035821	-0.159572	-0.658381	0.061873	0.000870	0.003014
1078	5.441488	0.005000	7.432365	-0.211433	-5.933242	0.035821	-0.159231	-0.658508	0.046517	0.008791	-0.005030
1079	5.446488	0.005000	7.444754	-0.150259	-5.768280	0.035821	-0.158890	-0.658635	0.044707	0.010358	0.003919
1080	5.451488	0.005000	7.441910	-0.131410	-5.833070	0.035821	-0.158548	-0.658762	0.053440	0.013941	0.014920
1081	5.456488	0.005000	7.354139	-0.094739	-5.869741	0.035821	-0.158207	-0.658889	0.044878	0.015419	0.001229
1082	5.461488	0.005000	7.379964	-0.117720	-5.904909	0.035821	-0.157866	-0.659016	0.063352	0.011415	0.009494
1083	5.466488	0.005000	7.490574	-0.156960	-6.060447	0.035821	-0.157524	-0.659144	0.046562	0.009647	0.015136
1084	5.471488	0.005000	7.377120	-0.260037	-6.057603	0.035821	-0.157183	-0.659271	0.051336	0.007804	0.002460
1085	5.476488	0.005000	7.428159	-0.196200	-5.925240	0.035821	-0.156842	-0.659398	0.053616	0.007636	0.002833
1086	5.481488	0.005000	7.455600	-0.226016	-5.925240	0.035821	-0.156500	-0.659525	0.040653	0.014956	0.008939
1087	5.486488	0.005000	7.377120	-0.124300	-5.964480	0.035821	-0.156159	-0.659652	0.054392	0.005820	0.011595
1088	5.491488	0.005000	7.451864	-0.188727	-5.928976	0.035821	-0.155818	-0.659779	0.038733	0.011903	0.008791
1089	5.496488	0.005000	7.457385	-0.156067	-5.887785	0.035821	-0.155476	-0.659906	0.054181	0.009219	0.008457
1090	5.501488	0.005000	7.459503	-0.155009	-5.964480	0.035791	-0.155254	-0.660133	0.045380	0.005464	0.009477
1091	5.506488	0.005000	7.568525	-0.309125	-5.787461	0.035678	-0.155367	-0.660641	0.046852	0.004120	0.008755
1092	5.511488	0.005000	7.430731	-0.267495	-5.878815	0.035564	-0.155481	-0.661149	0.043391	0.004031	0.002934
1093	5.516488	0.005000	7.347909	-0.245469	-5.886000	0.035450	-0.155595	-0.661657	0.040234	0.011157	0.007800
1094	5.521488	0.005000	7.389993	-0.235440	-5.938733	0.035336	-0.155708	-0.662165	0.050439	0.012606	0.006594
1095	5.526488	0.005000	7.400643	-0.211917	-5.940957	0.035222	-0.155822	-0.662673	0.052180	0.008139	0.007601
