# FOX Logger (IMU file)
# (c) INRIA 2011-2014
# File created from file sensbiotk output
#
# File format:
# id	t	dt	ax	ay	az	mx	my	mz	gx	gy	gz
#
# Units:
#	Time: s
#	Acceleration: m.s^-2
#	Magneto: gauss
#	Gyrometer: rad/s
#
1	0.059753	0.059753	9.182160	-0.333548	1.805025	-0.746269	-0.305970	-0.330000	-0.007860	-0.012495	0.008696
2	0.064753	0.005000	9.242972	-0.370828	1.848184	-0.746490	-0.306632	-0.329753	-0.014364	-0.005647	0.013454
3	0.069753	0.005000	9.221400	-0.337902	1.835557	-0.746711	-0.307295	-0.329507	-0.012673	-0.006256	0.010003
4	0.074753	0.005000	9.234561	-0.300517	1.765800	-0.746931	-0.307957	-0.329260	-0.009577	-0.006642	0.004315
5	0.079753	0.005000	9.232301	-0.268143	1.794139	-0.747152	-0.308620	-0.329014	-0.006765	-0.004842	-0.005192
6	0.084753	0.005000	9.235149	-0.313920	1.796543	-0.747373	-0.309282	-0.328767	-0.006393	-0.018799	0.001761
7	0.089753	0.005000	9.234349	-0.359634	1.831331	-0.747594	-0.309944	-0.328521	-0.011221	-0.010585	-0.001167
8	0.094753	0.005000	9.221400	-0.423441	1.722461	-0.747815	-0.310607	-0.328274	-0.013071	-0.015258	0.003697
9	0.099753	0.005000	9.294690	-0.274680	1.726560	-0.748035	-0.311269	-0.328028	-0.014457	-0.008669	0.002310
10	0.104753	0.005000	9.143586	-0.236106	1.765134	-0.748256	-0.311931	-0.327781	-0.006579	-0.012297	-0.009212
11	0.109753	0.005000	9.103680	-0.238058	1.768418	-0.748477	-0.312594	-0.327535	-0.006200	-0.008284	0.002729
12	0.114753	0.005000	9.103680	-0.274680	1.800005	-0.748698	-0.313256	-0.327288	-0.012290	-0.010109	-0.010879
13	0.119753	0.005000	9.284999	-0.299039	1.717083	-0.748919	-0.313919	-0.327042	-0.008727	-0.020507	0.011757
14	0.124753	0.005000	9.230785	-0.284065	1.668550	-0.749139	-0.314581	-0.326795	-0.012645	-0.006749	-0.004173
15	0.129753	0.005000	9.244999	-0.290321	1.754000	-0.749413	-0.314713	-0.326608	-0.021998	-0.000609	-0.003973
16	0.134753	0.005000	9.128882	-0.327958	1.819078	-0.749745	-0.314271	-0.326484	-0.009442	-0.011743	0.007463
17	0.139753	0.005000	9.251423	-0.304703	1.694256	-0.750076	-0.313829	-0.326361	-0.009032	-0.004236	-0.006498
18	0.144753	0.005000	9.318444	-0.332484	1.710108	-0.750407	-0.313387	-0.326238	-0.008770	-0.014569	0.000506
19	0.149753	0.005000	9.223609	-0.316129	1.765800	-0.750738	-0.312946	-0.326114	-0.013279	-0.014487	0.011752
20	0.154753	0.005000	9.191882	-0.330241	1.693919	-0.751070	-0.312504	-0.325991	-0.015661	-0.020141	0.002311
21	0.159753	0.005000	9.182160	-0.196200	1.754394	-0.751401	-0.312062	-0.325868	-0.014868	-0.001813	0.004669
22	0.164753	0.005000	9.154749	-0.310168	1.691072	-0.751732	-0.311620	-0.325744	-0.017262	-0.000853	-0.003817
23	0.169753	0.005000	9.133355	-0.373270	1.638515	-0.752064	-0.311178	-0.325621	-0.015037	-0.002704	0.011696
24	0.174753	0.005000	9.135770	-0.328220	1.687320	-0.752395	-0.310737	-0.325497	-0.018825	0.004418	0.000215
25	0.179753	0.005000	9.098537	-0.353160	1.653223	-0.752726	-0.310295	-0.325374	-0.007041	-0.008250	-0.002772
26	0.184753	0.005000	9.114883	-0.311119	1.723759	-0.753058	-0.309853	-0.325251	-0.020175	0.001354	0.010322
27	0.189753	0.005000	9.299114	-0.274680	1.844280	-0.753389	-0.309411	-0.325127	-0.013759	-0.008901	0.001559
28	0.194753	0.005000	9.221400	-0.274680	1.807037	-0.753720	-0.308969	-0.325004	-0.014729	-0.000090	0.003903
29	0.199753	0.005000	9.225365	-0.317885	1.840315	-0.752876	-0.308314	-0.326432	-0.023600	-0.006778	-0.003706
30	0.204753	0.005000	9.103680	-0.359468	1.778416	-0.751993	-0.307651	-0.327912	-0.005192	-0.018869	0.005449
31	0.209753	0.005000	9.196424	-0.291331	1.765800	-0.751109	-0.306989	-0.329392	-0.012788	-0.003540	-0.003681
32	0.214753	0.005000	9.221400	-0.324652	1.698052	-0.750225	-0.306326	-0.330872	-0.004107	-0.011465	-0.004762
33	0.219753	0.005000	9.234394	-0.287931	1.621834	-0.749342	-0.305663	-0.332352	-0.009722	-0.007612	0.002536
34	0.224753	0.005000	9.142920	-0.313920	1.717500	-0.748458	-0.305000	-0.333832	-0.014307	-0.008999	0.001295
35	0.229753	0.005000	9.103680	-0.353160	1.748300	-0.747575	-0.304338	-0.335312	-0.007874	-0.008858	0.004652
36	0.234753	0.005000	9.201644	-0.255105	1.863855	-0.746691	-0.303675	-0.336792	-0.020511	0.004071	-0.003433
37	0.239753	0.005000	9.243248	-0.313920	1.848735	-0.745808	-0.303012	-0.338272	-0.009744	-0.008046	-0.003073
38	0.244753	0.005000	9.260640	-0.383126	1.705869	-0.744924	-0.302350	-0.339752	-0.012887	-0.000444	-0.005862
39	0.249753	0.005000	9.103680	-0.326808	1.661543	-0.744040	-0.301687	-0.341232	-0.009426	0.005223	-0.012480
40	0.254753	0.005000	9.171535	-0.353160	1.737185	-0.743157	-0.301024	-0.342712	-0.016944	-0.005697	0.006638
41	0.259753	0.005000	9.095462	-0.282898	1.842428	-0.742273	-0.300362	-0.344192	-0.018785	-0.003504	-0.010141
42	0.264753	0.005000	9.142920	-0.386198	1.720358	-0.741741	-0.300000	-0.344832	-0.003360	-0.004575	0.006427
43	0.269753	0.005000	9.150636	-0.313920	1.648080	-0.741630	-0.300000	-0.344462	-0.012050	0.001402	0.004490
44	0.274753	0.005000	9.141466	-0.315374	1.768708	-0.741520	-0.300000	-0.344092	-0.007257	0.000007	-0.004040
45	0.279753	0.005000	9.064930	-0.275660	1.883030	-0.741409	-0.300000	-0.343721	-0.014045	-0.001932	0.004892
46	0.284753	0.005000	9.142920	-0.350286	1.802166	-0.741299	-0.300000	-0.343351	-0.015664	0.003294	-0.004451
47	0.289753	0.005000	9.103680	-0.274680	1.913057	-0.741189	-0.300000	-0.342981	-0.011036	-0.007371	0.006885
48	0.294753	0.005000	9.167646	-0.306663	1.922760	-0.741078	-0.300000	-0.342611	-0.015731	0.001477	-0.004435
49	0.299753	0.005000	9.094120	-0.362720	1.853840	-0.740968	-0.300000	-0.342241	-0.013270	-0.002307	0.004174
50	0.304753	0.005000	9.103680	-0.329950	1.800615	-0.740857	-0.300000	-0.341870	-0.004821	0.002156	0.006830
51	0.309753	0.005000	9.193363	-0.299901	1.779819	-0.740747	-0.300000	-0.341500	-0.010137	-0.006860	-0.009153
52	0.314753	0.005000	9.260640	-0.330152	1.742792	-0.740636	-0.300000	-0.341130	-0.011148	-0.007107	0.006378
53	0.319753	0.005000	9.221400	-0.374028	1.765800	-0.740526	-0.300000	-0.340760	-0.008434	-0.002136	-0.002504
54	0.324753	0.005000	9.145246	-0.355486	1.786583	-0.740415	-0.300000	-0.340390	-0.006639	-0.011866	0.011603
55	0.329753	0.005000	9.182160	-0.307706	1.720346	-0.740305	-0.300000	-0.340020	-0.006740	-0.012406	0.014481
56	0.334753	0.005000	9.210361	-0.328021	1.776839	-0.740299	-0.300105	-0.340234	-0.024775	-0.016418	0.008937
57	0.339753	0.005000	9.237255	-0.353160	1.687320	-0.740299	-0.300215	-0.340480	-0.007894	-0.005115	0.009962
58	0.344753	0.005000	9.192492	-0.353160	1.794708	-0.740299	-0.300326	-0.340727	-0.016391	-0.002224	0.001967
59	0.349753	0.005000	9.160159	-0.242774	1.741227	-0.740299	-0.300436	-0.340974	-0.007403	-0.019195	0.003703
60	0.354753	0.005000	9.147848	-0.348232	1.721632	-0.740299	-0.300547	-0.341220	-0.011213	0.005379	0.000659
61	0.359753	0.005000	9.176260	-0.319820	1.720660	-0.740299	-0.300657	-0.341467	-0.005412	-0.009711	-0.004388
62	0.364753	0.005000	9.221400	-0.353160	1.805606	-0.740299	-0.300768	-0.341714	-0.010700	-0.006702	0.002497
63	0.369753	0.005000	9.221400	-0.278311	1.919129	-0.740299	-0.300878	-0.341960	-0.011071	-0.004898	-0.000983
64	0.374753	0.005000	9.256858	-0.310138	1.808822	-0.740299	-0.300989	-0.342207	-0.009451	-0.010526	0.010859
65	0.379753	0.005000	9.299880	-0.280865	1.699691	-0.740299	-0.301099	-0.342453	-0.011107	-0.003814	-0.001960
66	0.384753	0.005000	9.190661	-0.243941	1.726560	-0.740299	-0.301209	-0.342700	-0.002354	-0.010732	0.001169
67	0.389753	0.005000	9.229006	-0.353160	1.815585	-0.740299	-0.301320	-0.342947	-0.016477	0.005926	0.007080
68	0.394753	0.005000	9.221400	-0.326872	1.582170	-0.740299	-0.301430	-0.343193	-0.008604	0.003407	-0.003685
69	0.399753	0.005000	9.134055	-0.353160	1.750612	-0.740251	-0.301589	-0.343172	-0.002652	-0.002453	-0.001162
70	0.404753	0.005000	9.081749	-0.296611	1.805040	-0.740141	-0.301810	-0.342803	-0.016992	-0.000439	-0.001554
71	0.409753	0.005000	9.240920	-0.313920	1.863800	-0.740030	-0.302030	-0.342433	-0.005913	-0.003169	0.012754
72	0.414753	0.005000	9.226420	-0.313920	1.787930	-0.739920	-0.302251	-0.342063	-0.012256	0.005463	-0.002878
73	0.419753	0.005000	9.142920	-0.362418	1.790049	-0.739809	-0.302472	-0.341693	-0.016021	-0.006891	0.006654
74	0.424753	0.005000	9.207667	-0.261927	1.685360	-0.739699	-0.302693	-0.341323	-0.017541	-0.000339	0.010154
75	0.429753	0.005000	9.211054	-0.264334	1.854626	-0.739588	-0.302914	-0.340953	-0.010423	-0.001139	0.004426
76	0.434753	0.005000	9.198770	-0.313920	1.866910	-0.739478	-0.303134	-0.340584	-0.014587	-0.014038	0.021813
77	0.439753	0.005000	9.194133	-0.313920	1.811026	-0.739368	-0.303355	-0.340214	-0.028408	0.007641	0.004551
78	0.444753	0.005000	9.292718	-0.274680	1.922760	-0.739257	-0.303576	-0.339844	-0.017218	-0.006430	0.011638
79	0.449753	0.005000	9.182160	-0.236604	1.960836	-0.739147	-0.303797	-0.339474	-0.016403	-0.004728	0.009136
80	0.454753	0.005000	9.143686	-0.313154	1.845811	-0.739036	-0.304018	-0.339104	-0.009571	-0.012929	0.009776
81	0.459753	0.005000	9.110047	-0.349977	1.877153	-0.738926	-0.304238	-0.338734	-0.013274	-0.009076	0.012777
82	0.464753	0.005000	9.114723	-0.459837	1.877999	-0.738815	-0.304459	-0.338365	-0.026216	-0.007754	-0.003113
83	0.469753	0.005000	9.191270	-0.368225	1.883520	-0.739008	-0.304276	-0.338784	-0.020088	-0.017247	-0.004444
84	0.474753	0.005000	9.182160	-0.323868	1.854228	-0.739229	-0.304055	-0.339278	-0.021414	0.003965	0.001405
85	0.479753	0.005000	9.103680	-0.367985	1.792832	-0.739450	-0.303834	-0.339771	-0.004378	-0.011112	-0.002082
86	0.484753	0.005000	9.117980	-0.381759	1.712260	-0.739671	-0.303613	-0.340264	-0.008588	-0.008473	0.001132
87	0.489753	0.005000	9.165641	-0.415121	1.772002	-0.739892	-0.303392	-0.340758	-0.019073	-0.003666	-0.010147
88	0.494753	0.005000	9.144848	-0.412984	1.827552	-0.740113	-0.303171	-0.341251	-0.019374	-0.010340	0.011990
89	0.499753	0.005000	9.100786	-0.295747	1.829000	-0.740333	-0.302951	-0.341745	-0.018024	-0.006856	-0.009212
90	0.504753	0.005000	9.221400	-0.274680	1.812210	-0.740554	-0.302730	-0.342238	-0.016645	-0.021648	0.005421
91	0.509753	0.005000	9.258421	-0.274680	1.726560	-0.740775	-0.302509	-0.342731	-0.013744	-0.009680	-0.000765
92	0.514753	0.005000	9.182160	-0.330348	1.732944	-0.740996	-0.302288	-0.343225	-0.007425	-0.013678	-0.008209
93	0.519753	0.005000	9.212401	-0.283679	1.696319	-0.741217	-0.302067	-0.343718	-0.001855	-0.002704	0.001109
94	0.524753	0.005000	9.142920	-0.360218	1.708494	-0.741438	-0.301846	-0.344211	-0.012760	-0.015136	-0.007126
95	0.529753	0.005000	9.212095	-0.348508	1.800388	-0.741659	-0.301625	-0.344705	-0.011225	-0.011965	0.002421
96	0.534753	0.005000	9.179451	-0.355869	1.920051	-0.741702	-0.301449	-0.345000	-0.014682	-0.002643	-0.004539
97	0.539753	0.005000	9.142629	-0.392400	1.805040	-0.741481	-0.301338	-0.345000	-0.012153	-0.013145	0.007160
98	0.544753	0.005000	9.141267	-0.392400	1.767453	-0.741260	-0.301228	-0.345000	-0.022087	-0.012480	0.006100
99	0.549753	0.005000	9.186217	-0.286852	1.722503	-0.741040	-0.301117	-0.345000	-0.013416	-0.009660	-0.008951
100	0.554753	0.005000	9.208453	-0.274680	1.765800	-0.740819	-0.301007	-0.345000	-0.007491	-0.022245	0.011303
101	0.559753	0.005000	9.112454	-0.226666	1.817959	-0.740598	-0.300896	-0.345000	-0.017715	-0.002749	-0.001833
102	0.564753	0.005000	9.171336	-0.246264	1.833456	-0.740377	-0.300786	-0.345000	-0.005816	-0.018554	0.006652
103	0.569753	0.005000	9.247876	-0.365924	1.805040	-0.740156	-0.300675	-0.345000	-0.009272	-0.004875	-0.001063
104	0.574753	0.005000	9.142920	-0.368620	1.718240	-0.739935	-0.300565	-0.345000	-0.014665	-0.014427	-0.006047
105	0.579753	0.005000	9.260640	-0.353160	1.830746	-0.739714	-0.300454	-0.345000	-0.014701	-0.015619	0.009373
106	0.584753	0.005000	9.201397	-0.352395	1.843515	-0.739493	-0.300344	-0.345000	-0.008414	-0.006752	0.003770
107	0.589753	0.005000	9.238494	-0.392400	1.883520	-0.739272	-0.300233	-0.345000	-0.018841	-0.007292	-0.004696
108	0.594753	0.005000	9.128039	-0.313920	1.775277	-0.739052	-0.300123	-0.345000	-0.015135	-0.007806	-0.001390
109	0.599753	0.005000	9.103680	-0.338876	1.780084	-0.738831	-0.300012	-0.345000	-0.016178	-0.012533	-0.004694
110	0.604753	0.005000	9.085255	-0.371585	1.739358	-0.738806	-0.300392	-0.345110	-0.005674	-0.007575	0.004017
111	0.609753	0.005000	9.111807	-0.415387	1.875393	-0.738806	-0.300834	-0.345233	-0.019916	-0.010529	-0.008454
112	0.614753	0.005000	9.137209	-0.313920	1.720849	-0.738806	-0.301276	-0.345356	-0.012731	-0.003749	0.000485
113	0.619753	0.005000	9.182160	-0.349439	1.623725	-0.738806	-0.301718	-0.345480	-0.014232	0.006033	0.003007
114	0.624753	0.005000	9.144282	-0.391038	1.690044	-0.738806	-0.302160	-0.345603	-0.010348	-0.009016	-0.001829
115	0.629753	0.005000	9.258552	-0.314964	1.765800	-0.738806	-0.302601	-0.345726	-0.011094	-0.002136	0.003160
116	0.634753	0.005000	9.139920	-0.313920	1.732559	-0.738806	-0.303043	-0.345850	-0.020431	-0.007232	-0.002979
117	0.639753	0.005000	9.226804	-0.313920	1.642676	-0.738806	-0.303485	-0.345973	-0.019460	-0.000510	0.006000
118	0.644753	0.005000	9.133076	-0.338462	1.765800	-0.738806	-0.303927	-0.346096	-0.012499	0.003716	-0.005447
119	0.649753	0.005000	9.182160	-0.304156	1.726560	-0.738806	-0.304369	-0.346220	-0.007710	-0.013984	0.004796
120	0.654753	0.005000	9.209374	-0.353160	1.702508	-0.738806	-0.304810	-0.346343	-0.021895	-0.002917	0.004750
121	0.659753	0.005000	9.196276	-0.313920	1.712444	-0.738806	-0.305252	-0.346467	-0.007710	-0.009728	0.015962
122	0.664753	0.005000	9.159449	-0.280863	1.743089	-0.738806	-0.305694	-0.346590	-0.016953	-0.003929	-0.001273
123	0.669753	0.005000	9.144283	-0.411339	1.748224	-0.738847	-0.305804	-0.346667	-0.008577	0.003421	-0.007171
124	0.674753	0.005000	9.161073	-0.335007	1.765800	-0.738958	-0.305362	-0.346667	-0.013796	-0.006847	0.007836
125	0.679753	0.005000	9.142920	-0.376447	1.789087	-0.739068	-0.304921	-0.346667	-0.027093	0.008430	0.000607
126	0.684753	0.005000	9.168616	-0.339616	1.661624	-0.739179	-0.304479	-0.346667	-0.010791	-0.008405	0.002714
127	0.689753	0.005000	9.232866	-0.325386	1.816506	-0.739289	-0.304037	-0.346667	-0.014649	-0.010180	0.012694
128	0.694753	0.005000	9.154602	-0.304734	1.795854	-0.739400	-0.303595	-0.346667	-0.015816	-0.007660	0.002955
129	0.699753	0.005000	9.031980	-0.267900	1.759020	-0.739510	-0.303153	-0.346667	-0.010890	-0.011988	0.006225
130	0.704753	0.005000	9.103680	-0.313920	1.745681	-0.739621	-0.302712	-0.346667	-0.020707	-0.002443	-0.008844
131	0.709753	0.005000	9.216562	-0.316339	1.878682	-0.739731	-0.302270	-0.346667	-0.010358	-0.012543	0.011142
132	0.714753	0.005000	9.182129	-0.313920	1.883505	-0.739842	-0.301828	-0.346667	-0.013150	-0.004760	0.000044
133	0.719753	0.005000	9.103680	-0.351231	1.769658	-0.739952	-0.301386	-0.346667	-0.009903	-0.012437	0.003219
134	0.724753	0.005000	9.177814	-0.388054	1.839934	-0.740063	-0.300945	-0.346667	-0.016656	-0.003509	0.012977
135	0.729753	0.005000	9.175870	-0.280970	1.772090	-0.740173	-0.300503	-0.346667	-0.011744	-0.001491	0.007185
136	0.734753	0.005000	9.234551	-0.235440	1.892216	-0.740284	-0.300061	-0.346667	-0.010134	-0.010780	0.001404
137	0.739753	0.005000	9.182160	-0.246422	1.805040	-0.740585	-0.300000	-0.346667	-0.008414	-0.002553	-0.000329
138	0.744753	0.005000	9.129876	-0.287831	1.831129	-0.740916	-0.300000	-0.346667	-0.010713	-0.008468	0.004581
139	0.749753	0.005000	9.175028	-0.368617	1.828823	-0.741247	-0.300000	-0.346667	-0.023202	-0.004288	0.005804
140	0.754753	0.005000	9.178227	-0.374747	1.822693	-0.741579	-0.300000	-0.346667	-0.011249	-0.007190	-0.001676
141	0.759753	0.005000	9.044629	-0.333731	1.745989	-0.741910	-0.300000	-0.346667	-0.005138	-0.009847	0.011231
142	0.764753	0.005000	9.159938	-0.252458	1.782818	-0.742241	-0.300000	-0.346667	-0.011841	0.006915	-0.005212
143	0.769753	0.005000	9.197060	-0.250340	1.717121	-0.742572	-0.300000	-0.346667	-0.003813	-0.008881	0.003507
144	0.774753	0.005000	9.262349	-0.274680	1.698121	-0.742904	-0.300000	-0.346667	-0.006773	-0.008313	-0.005496
145	0.779753	0.005000	9.074694	-0.274680	1.755546	-0.743235	-0.300000	-0.346667	-0.015272	-0.014259	-0.004810
146	0.784753	0.005000	9.213561	-0.306081	1.742238	-0.743566	-0.300000	-0.346667	-0.012758	-0.008254	0.008545
147	0.789753	0.005000	9.182160	-0.202024	1.799216	-0.743898	-0.300000	-0.346667	-0.011677	-0.003470	0.000987
148	0.794753	0.005000	9.182160	-0.278169	1.805040	-0.744229	-0.300000	-0.346667	-0.006240	-0.010993	0.003057
149	0.799753	0.005000	9.180017	-0.273608	1.766872	-0.744560	-0.300000	-0.346667	-0.026129	-0.000331	-0.001523
150	0.804753	0.005000	9.180415	-0.273808	1.766672	-0.744660	-0.299961	-0.346667	-0.017523	-0.006796	-0.001794
151	0.809753	0.005000	9.188713	-0.346607	1.805040	-0.744329	-0.299851	-0.346667	-0.008629	-0.005223	-0.008456
152	0.814753	0.005000	9.109307	-0.381145	1.760173	-0.743998	-0.299741	-0.346667	-0.010800	-0.008378	-0.002695
153	0.819753	0.005000	9.245391	-0.392400	1.797416	-0.743667	-0.299630	-0.346667	-0.006104	-0.004748	0.003841
154	0.824753	0.005000	9.250600	-0.363200	1.815080	-0.743336	-0.299520	-0.346667	-0.015678	-0.000654	-0.001635
155	0.829753	0.005000	9.236043	-0.380102	1.792742	-0.743005	-0.299409	-0.346667	-0.007462	-0.015024	0.006225
156	0.834753	0.005000	9.211537	-0.328609	1.790351	-0.742674	-0.299299	-0.346667	-0.015087	-0.008288	-0.001356
157	0.839753	0.005000	9.182160	-0.330724	1.782604	-0.742342	-0.299188	-0.346667	-0.006554	-0.009228	-0.002256
158	0.844753	0.005000	9.142109	-0.333946	1.865117	-0.742011	-0.299078	-0.346667	-0.013136	-0.008994	0.003618
159	0.849753	0.005000	9.256630	-0.410015	1.848290	-0.741680	-0.298968	-0.346667	-0.017354	-0.011038	-0.001762
160	0.854753	0.005000	9.244968	-0.337488	1.773697	-0.741349	-0.298857	-0.346667	-0.006112	-0.014055	0.008852
161	0.859753	0.005000	9.194883	-0.300661	1.805576	-0.741018	-0.298747	-0.346667	-0.008477	-0.004366	0.002075
162	0.864753	0.005000	9.182160	-0.263501	1.760097	-0.740687	-0.298636	-0.346667	-0.008670	-0.012440	-0.000653
163	0.869753	0.005000	9.251733	-0.226533	1.817559	-0.740355	-0.298526	-0.346667	-0.023727	-0.011180	0.000336
164	0.874753	0.005000	9.103680	-0.274680	1.798548	-0.740391	-0.298874	-0.346258	-0.010087	-0.016979	-0.006485
165	0.879753	0.005000	9.103680	-0.318413	1.835294	-0.740501	-0.299315	-0.345764	-0.008003	-0.015570	0.000629
166	0.884753	0.005000	9.142920	-0.318205	1.805040	-0.740611	-0.299757	-0.345271	-0.018292	-0.006036	-0.005649
167	0.889753	0.005000	9.103952	-0.392400	1.727105	-0.740722	-0.300199	-0.344778	-0.004712	-0.018941	0.002439
168	0.894753	0.005000	9.214786	-0.390195	1.761391	-0.740832	-0.300641	-0.344284	-0.010819	-0.004045	0.003134
169	0.899753	0.005000	9.147542	-0.353160	1.735804	-0.740943	-0.301083	-0.343791	-0.015997	-0.006459	-0.002574
170	0.904753	0.005000	9.142920	-0.320863	1.784210	-0.741053	-0.301525	-0.343297	-0.006637	-0.014355	0.001496
171	0.909753	0.005000	9.121624	-0.313920	1.696292	-0.741163	-0.301967	-0.342804	-0.003785	-0.002574	-0.011149
172	0.914753	0.005000	9.053054	-0.369627	1.754414	-0.741274	-0.302408	-0.342311	0.001761	-0.008786	-0.007612
173	0.919753	0.005000	9.221400	-0.341509	1.805040	-0.741384	-0.302850	-0.341817	-0.006886	-0.003066	-0.001886
174	0.924753	0.005000	9.198180	-0.290700	1.742580	-0.741495	-0.303292	-0.341324	-0.013148	-0.012098	-0.002458
175	0.929753	0.005000	9.164009	-0.274680	1.672108	-0.741605	-0.303734	-0.340831	-0.011102	-0.008568	0.006751
176	0.934753	0.005000	9.163482	-0.332598	1.786362	-0.741716	-0.304176	-0.340337	-0.014394	-0.003380	-0.001034
177	0.939753	0.005000	9.165626	-0.313920	1.805040	-0.742211	-0.304863	-0.339453	-0.015847	-0.002629	0.000964
178	0.944753	0.005000	9.157245	-0.363751	1.829955	-0.743536	-0.306078	-0.337726	-0.011559	-0.001113	0.004795
179	0.949753	0.005000	9.260640	-0.341249	1.671903	-0.744862	-0.307294	-0.335999	-0.008902	-0.017454	0.002044
180	0.954753	0.005000	9.152768	-0.313920	1.706864	-0.746188	-0.308509	-0.334271	-0.005436	-0.001022	0.012648
181	0.959753	0.005000	9.118801	-0.384840	1.719000	-0.747514	-0.309725	-0.332544	-0.001729	-0.001012	0.003364
182	0.964753	0.005000	9.299880	-0.348016	1.810184	-0.748840	-0.310940	-0.330816	-0.007791	-0.003236	0.011069
183	0.969753	0.005000	9.221400	-0.307567	1.880343	-0.750166	-0.312156	-0.329089	-0.017812	-0.009353	0.004537
184	0.974753	0.005000	9.335935	-0.274680	1.767392	-0.751492	-0.313371	-0.327361	-0.006796	-0.007857	0.008194
185	0.979753	0.005000	9.182160	-0.237028	1.844280	-0.752818	-0.314587	-0.325634	-0.018778	-0.002761	-0.007135
186	0.984753	0.005000	9.224952	-0.310368	1.733664	-0.754144	-0.315802	-0.323906	-0.014976	-0.011876	0.004066
187	0.989753	0.005000	9.209463	-0.280649	1.726560	-0.755470	-0.317018	-0.322179	-0.005249	-0.007328	0.011849
188	0.994753	0.005000	9.151195	-0.235440	1.757525	-0.756796	-0.318233	-0.320451	-0.005978	-0.008527	0.002288
189	0.999753	0.005000	9.083042	-0.245759	1.726560	-0.758122	-0.319449	-0.318724	-0.016501	-0.009144	0.010547
190	1.004753	0.005000	9.077173	-0.222707	1.725519	-0.759448	-0.320664	-0.316997	-0.018800	-0.003471	-0.005379
191	1.009753	0.005000	9.136735	-0.274680	1.741702	-0.758807	-0.320449	-0.317865	-0.000862	-0.002344	0.008841
192	1.014753	0.005000	9.238751	-0.296569	1.704671	-0.757703	-0.319897	-0.319345	-0.010957	0.003683	0.001675
193	1.019753	0.005000	9.240653	-0.294422	1.785787	-0.756598	-0.319345	-0.320825	-0.011027	0.001676	-0.002107
194	1.024753	0.005000	9.199491	-0.353160	1.809618	-0.755494	-0.318792	-0.322305	-0.005979	-0.004913	0.002899
195	1.029753	0.005000	9.251806	-0.337957	1.853114	-0.754389	-0.318240	-0.323785	-0.006080	-0.004836	-0.001290
196	1.034753	0.005000	9.247662	-0.339876	1.804734	-0.753285	-0.317688	-0.325265	-0.003645	-0.010560	0.001705
197	1.039753	0.005000	9.192735	-0.381825	1.844280	-0.752180	-0.317135	-0.326745	-0.010214	-0.002959	-0.000220
198	1.044753	0.005000	9.151452	-0.313920	1.805040	-0.751076	-0.316583	-0.328225	-0.001316	-0.011987	0.002067
199	1.049753	0.005000	9.188376	-0.320136	1.772016	-0.749971	-0.316031	-0.329705	-0.009093	-0.004659	-0.004894
200	1.054753	0.005000	9.331499	-0.384779	1.805040	-0.748867	-0.315479	-0.331185	-0.005031	-0.004510	-0.006210
201	1.059753	0.005000	9.176623	-0.353160	1.769491	-0.747763	-0.314926	-0.332665	-0.014104	-0.012400	0.002077
202	1.064753	0.005000	9.180507	-0.314471	1.766902	-0.746658	-0.314374	-0.334145	-0.022461	-0.009122	-0.003369
203	1.069753	0.005000	9.142920	-0.353160	1.847235	-0.745554	-0.313822	-0.335625	-0.024913	-0.006112	0.012612
204	1.074753	0.005000	9.148230	-0.313920	1.820969	-0.744743	-0.313139	-0.336886	-0.024746	-0.010240	0.004247
205	1.079753	0.005000	9.142920	-0.367791	1.780431	-0.744633	-0.312145	-0.337626	-0.013608	-0.006686	0.003393
206	1.084753	0.005000	9.211678	-0.323642	1.834558	-0.744522	-0.311151	-0.338366	-0.007835	-0.010267	0.003135
207	1.089753	0.005000	9.194156	-0.353160	1.765800	-0.744412	-0.310157	-0.339106	-0.016988	-0.011643	-0.005828
208	1.094753	0.005000	9.246560	-0.274680	1.768800	-0.744302	-0.309162	-0.339846	-0.007698	-0.009754	0.005844
209	1.099753	0.005000	9.277129	-0.336671	1.732822	-0.744191	-0.308168	-0.340586	-0.012886	0.001948	0.006686
210	1.104753	0.005000	9.277446	-0.272804	1.765800	-0.744081	-0.307174	-0.341326	-0.014823	-0.003821	0.002410
211	1.109753	0.005000	9.205453	-0.293076	1.784196	-0.743970	-0.306180	-0.342066	-0.015734	0.002875	0.000939
212	1.114753	0.005000	9.188876	-0.281396	1.765800	-0.743860	-0.305186	-0.342806	-0.014142	-0.001009	-0.008308
213	1.119753	0.005000	9.154386	-0.274680	1.841860	-0.743750	-0.304192	-0.343546	-0.002933	-0.010648	0.004464
214	1.124753	0.005000	9.193796	-0.286316	1.828311	-0.743639	-0.303198	-0.344286	-0.008139	-0.000297	-0.010456
215	1.129753	0.005000	9.191388	-0.313920	1.805040	-0.743529	-0.302204	-0.345026	-0.000181	-0.015627	0.005897
216	1.134753	0.005000	9.253439	-0.289081	1.780201	-0.743418	-0.301210	-0.345766	-0.011160	-0.005509	0.004030
217	1.139753	0.005000	9.285274	-0.397269	1.765800	-0.743308	-0.300216	-0.346506	-0.005857	-0.005255	0.000611
218	1.144753	0.005000	9.184624	-0.392400	1.873664	-0.742938	-0.300086	-0.346570	-0.003478	-0.005443	0.006821
219	1.149753	0.005000	9.182674	-0.352131	1.688349	-0.742496	-0.300197	-0.346447	-0.010584	0.003491	-0.007144
220	1.154753	0.005000	9.221400	-0.274680	1.765800	-0.742054	-0.300307	-0.346324	-0.016064	-0.012391	0.006646
221	1.159753	0.005000	9.182160	-0.418888	1.730811	-0.741613	-0.300418	-0.346200	-0.015694	-0.003976	0.000681
222	1.164753	0.005000	9.149167	-0.398647	1.805040	-0.741171	-0.300528	-0.346077	-0.010024	-0.012228	-0.000127
223	1.169753	0.005000	9.165036	-0.361722	1.805040	-0.740729	-0.300639	-0.345954	-0.009561	-0.007537	0.000540
224	1.174753	0.005000	9.249703	-0.381463	1.826914	-0.740287	-0.300749	-0.345830	-0.010228	-0.010037	0.002898
225	1.179753	0.005000	9.155934	-0.366174	1.792026	-0.739845	-0.300860	-0.345707	-0.007028	-0.014454	0.011703
226	1.184753	0.005000	9.040617	-0.283085	1.711143	-0.739403	-0.300970	-0.345584	-0.023853	0.000367	0.004364
227	1.189753	0.005000	9.064440	-0.331543	1.704943	-0.738961	-0.301081	-0.345460	-0.012547	-0.016672	-0.006313
228	1.194753	0.005000	9.103986	-0.274680	1.804734	-0.738519	-0.301191	-0.345337	-0.017388	-0.004603	0.001705
229	1.199753	0.005000	9.103680	-0.313920	1.822096	-0.738078	-0.301302	-0.345213	-0.022431	-0.008589	0.001706
230	1.204753	0.005000	9.127809	-0.338049	1.805040	-0.737636	-0.301412	-0.345090	-0.009406	-0.012617	0.010374
231	1.209753	0.005000	9.142920	-0.327755	1.831578	-0.737313	-0.301463	-0.345033	-0.014598	-0.006253	-0.003402
232	1.214753	0.005000	9.132286	-0.324554	1.783771	-0.737313	-0.301353	-0.345157	-0.018112	-0.007853	0.009662
233	1.219753	0.005000	9.173816	-0.322264	1.701528	-0.737313	-0.301242	-0.345280	-0.006557	0.007546	0.005003
234	1.224753	0.005000	9.176222	-0.347222	1.654018	-0.737313	-0.301132	-0.345403	-0.004143	-0.005844	-0.007105
235	1.229753	0.005000	9.225348	-0.239388	1.691268	-0.737313	-0.301021	-0.345527	0.001959	-0.005857	0.014545
236	1.234753	0.005000	9.142920	-0.274680	1.806617	-0.737313	-0.300911	-0.345650	-0.005390	-0.004994	0.001156
237	1.239753	0.005000	9.220665	-0.313553	1.727662	-0.737313	-0.300800	-0.345773	-0.000130	-0.001246	0.006602
238	1.244753	0.005000	9.260640	-0.238211	1.642538	-0.737313	-0.300690	-0.345897	-0.001458	0.000495	-0.001919
239	1.249753	0.005000	9.270896	-0.230312	1.750416	-0.737313	-0.300579	-0.346020	0.007308	0.001609	-0.001614
240	1.254753	0.005000	9.260640	-0.306788	1.623104	-0.737313	-0.300469	-0.346144	0.007932	0.002464	0.005480
241	1.259753	0.005000	9.201229	-0.373331	1.697956	-0.737313	-0.300358	-0.346267	0.007323	0.002490	-0.000856
242	1.264753	0.005000	9.221400	-0.353160	1.726560	-0.737313	-0.300248	-0.346390	0.003669	-0.002486	0.011061
243	1.269753	0.005000	9.145339	-0.313920	1.777267	-0.737313	-0.300137	-0.346514	-0.008411	0.005918	0.002652
244	1.274753	0.005000	9.133263	-0.369459	1.834623	-0.737313	-0.300027	-0.346637	-0.010996	-0.001444	0.003432
245	1.279753	0.005000	9.165944	-0.355429	1.844280	-0.737564	-0.299916	-0.346760	-0.021724	0.003202	-0.007809
246	1.284753	0.005000	9.122044	-0.376547	1.786676	-0.737895	-0.299806	-0.346884	-0.016996	0.005627	0.003678
247	1.289753	0.005000	9.205223	-0.336983	1.781977	-0.738226	-0.299695	-0.347007	-0.024972	0.008564	0.004957
248	1.294753	0.005000	9.182160	-0.315972	1.795379	-0.738558	-0.299585	-0.347130	-0.022065	0.005643	0.005229
249	1.299753	0.005000	9.260640	-0.404078	1.938644	-0.738889	-0.299474	-0.347253	-0.026773	-0.003526	0.008046
250	1.304753	0.005000	9.122504	-0.461468	1.823864	-0.739221	-0.299364	-0.347377	-0.038685	0.013819	0.010320
251	1.309753	0.005000	9.285886	-0.346163	1.772797	-0.739552	-0.299253	-0.347500	-0.035963	0.001335	0.008290
252	1.314753	0.005000	9.182160	-0.269628	1.736665	-0.739883	-0.299143	-0.347623	-0.037343	0.002941	0.007893
253	1.319753	0.005000	9.182160	-0.274680	1.805040	-0.740215	-0.299033	-0.347747	-0.023363	0.019290	0.000408
254	1.324753	0.005000	9.260410	-0.235670	1.844280	-0.740546	-0.298922	-0.347870	-0.013496	-0.003064	0.015379
255	1.329753	0.005000	9.108822	-0.237154	1.844280	-0.740878	-0.298812	-0.347993	-0.016994	0.003166	0.006970
256	1.334753	0.005000	9.178043	-0.344926	1.769917	-0.741209	-0.298701	-0.348116	-0.007010	-0.005329	0.016504
257	1.339753	0.005000	9.175716	-0.346716	1.909872	-0.741540	-0.298591	-0.348240	-0.015336	0.000322	0.009516
258	1.344753	0.005000	9.134453	-0.367000	1.891987	-0.741737	-0.298426	-0.348273	0.006685	-0.004471	0.002087
259	1.349753	0.005000	9.227996	-0.374923	1.787563	-0.741516	-0.298095	-0.348026	-0.000627	0.001993	0.003038
260	1.354753	0.005000	9.156050	-0.287810	1.831150	-0.741295	-0.297764	-0.347780	-0.006475	-0.008678	0.007669
261	1.359753	0.005000	9.190933	-0.298686	1.835507	-0.741075	-0.297432	-0.347533	-0.003292	-0.004158	0.016612
262	1.364753	0.005000	9.164514	-0.313920	1.765800	-0.740854	-0.297101	-0.347286	0.003634	0.001705	0.004403
263	1.369753	0.005000	9.123497	-0.431640	1.864097	-0.740633	-0.296770	-0.347040	0.015057	-0.008478	0.005878
264	1.374753	0.005000	9.142920	-0.335921	1.753322	-0.740412	-0.296439	-0.346793	-0.000627	-0.010746	0.011489
265	1.379753	0.005000	9.196990	-0.367990	1.814620	-0.740191	-0.296107	-0.346546	0.004005	-0.000899	-0.005489
266	1.384753	0.005000	9.207634	-0.340423	1.805040	-0.739970	-0.295776	-0.346300	0.001080	-0.005431	0.006166
267	1.389753	0.005000	9.203104	-0.342688	1.716088	-0.739749	-0.295445	-0.346053	-0.012489	0.000181	-0.004507
268	1.394753	0.005000	9.252575	-0.266615	1.703451	-0.739528	-0.295113	-0.345806	-0.014508	-0.014248	0.000305
269	1.399753	0.005000	9.232699	-0.319569	1.877871	-0.739307	-0.294782	-0.345560	-0.010854	-0.003807	0.000507
270	1.404753	0.005000	9.221400	-0.274680	1.762124	-0.739086	-0.294451	-0.345313	-0.008286	-0.004978	0.007439
271	1.409753	0.005000	9.259339	-0.315221	1.691224	-0.738866	-0.294119	-0.345067	-0.014373	-0.006425	0.004258
272	1.414753	0.005000	9.183249	-0.353160	1.728738	-0.738887	-0.294514	-0.344910	-0.025719	-0.004088	-0.001863
273	1.419753	0.005000	9.292921	-0.317399	1.769279	-0.738997	-0.295177	-0.344787	-0.022360	-0.017654	0.011686
274	1.424753	0.005000	9.226864	-0.313920	1.815967	-0.739108	-0.295839	-0.344663	-0.022755	-0.003703	0.000060
275	1.429753	0.005000	9.229269	-0.313920	1.875651	-0.739218	-0.296502	-0.344540	-0.025800	-0.022714	0.004999
276	1.434753	0.005000	9.182160	-0.402565	1.775965	-0.739329	-0.297165	-0.344416	-0.013724	-0.005103	-0.000961
277	1.439753	0.005000	9.088896	-0.392400	1.790256	-0.739439	-0.297827	-0.344293	-0.016918	-0.009083	-0.006819
278	1.444753	0.005000	9.079077	-0.382433	1.805040	-0.739550	-0.298490	-0.344170	-0.012817	-0.011901	0.004570
279	1.449753	0.005000	9.159969	-0.387258	1.922760	-0.739660	-0.299153	-0.344046	-0.022751	-0.010614	0.003665
280	1.454753	0.005000	9.221400	-0.274680	1.805040	-0.739771	-0.299815	-0.343923	-0.014900	-0.018698	-0.003083
281	1.459753	0.005000	9.107247	-0.271113	1.844280	-0.739881	-0.300478	-0.343800	-0.017847	-0.012746	0.000134
282	1.464753	0.005000	9.182160	-0.259253	1.844280	-0.739992	-0.301141	-0.343676	-0.021165	-0.012910	-0.002295
283	1.469753	0.005000	9.090353	-0.274680	1.726560	-0.740102	-0.301803	-0.343553	-0.015755	-0.009672	-0.001057
284	1.474753	0.005000	9.092611	-0.241472	1.743661	-0.740212	-0.302466	-0.343430	-0.015071	-0.005687	-0.007358
285	1.479753	0.005000	9.094649	-0.214262	1.844280	-0.740323	-0.303033	-0.343306	0.007016	-0.017359	0.001989
286	1.484753	0.005000	9.182160	-0.281401	1.818482	-0.740433	-0.303254	-0.343183	-0.005266	-0.012659	0.002928
287	1.489753	0.005000	9.138604	-0.274680	1.800724	-0.740544	-0.303475	-0.343060	-0.002889	-0.013459	0.003431
288	1.494753	0.005000	9.106025	-0.316265	1.805040	-0.740654	-0.303696	-0.342936	-0.005560	-0.015727	-0.006644
289	1.499753	0.005000	9.182114	-0.274772	1.687458	-0.740765	-0.303917	-0.342813	0.002364	-0.012854	0.001585
290	1.504753	0.005000	9.253379	-0.313920	1.881100	-0.740875	-0.304138	-0.342690	0.004111	-0.013454	-0.001173
291	1.509753	0.005000	9.202158	-0.362781	1.878710	-0.740986	-0.304359	-0.342566	-0.007666	0.004902	-0.009363
292	1.514753	0.005000	9.207779	-0.346350	1.779421	-0.741096	-0.304580	-0.342443	-0.004997	-0.011920	-0.002326
293	1.519753	0.005000	9.232990	-0.353160	1.717343	-0.741207	-0.304801	-0.342320	-0.010216	-0.013423	-0.002295
294	1.524753	0.005000	9.243722	-0.409318	1.850037	-0.741317	-0.305022	-0.342196	-0.018839	-0.008152	-0.007004
295	1.529753	0.005000	9.195735	-0.445215	1.712985	-0.741428	-0.305243	-0.342073	-0.017081	-0.016810	-0.003494
296	1.534753	0.005000	9.110952	-0.345888	1.749816	-0.741538	-0.305464	-0.341949	-0.021909	-0.013616	-0.001875
297	1.539753	0.005000	9.103680	-0.235440	1.762416	-0.741648	-0.305685	-0.341826	-0.016494	-0.018787	0.007021
298	1.544753	0.005000	9.180721	-0.255779	1.648080	-0.741759	-0.305906	-0.341703	-0.015882	-0.012236	-0.008390
299	1.549753	0.005000	9.238161	-0.274680	1.664841	-0.742026	-0.306127	-0.341930	-0.022688	-0.014420	-0.003402
300	1.554753	0.005000	9.324734	-0.289066	1.691238	-0.742358	-0.306348	-0.342300	-0.022297	-0.005538	-0.003026
301	1.559753	0.005000	9.142920	-0.274680	1.832139	-0.742689	-0.306569	-0.342670	-0.016818	-0.000708	-0.012538
302	1.564753	0.005000	9.163069	-0.274680	1.736635	-0.743020	-0.306789	-0.343040	-0.003654	-0.021644	0.012135
303	1.569753	0.005000	9.229190	-0.243230	1.797250	-0.743352	-0.307010	-0.343410	-0.007594	-0.004385	-0.002898
304	1.574753	0.005000	9.142920	-0.269306	1.878146	-0.743683	-0.307231	-0.343780	-0.005087	-0.018369	-0.002146
305	1.579753	0.005000	9.214623	-0.274680	1.765800	-0.744014	-0.307452	-0.344150	-0.001705	-0.013087	-0.002362
306	1.584753	0.005000	9.257564	-0.274680	1.729636	-0.744346	-0.307673	-0.344520	-0.005976	-0.016015	-0.012496
307	1.589753	0.005000	9.142920	-0.236817	1.730690	-0.744677	-0.307894	-0.344890	0.002112	-0.016462	-0.000445
308	1.594753	0.005000	9.178824	-0.238776	1.798367	-0.745009	-0.308115	-0.345260	-0.009551	-0.000163	-0.007956
309	1.599753	0.005000	9.182160	-0.286163	1.738043	-0.745340	-0.308336	-0.345630	0.000356	-0.007652	-0.002803
310	1.604753	0.005000	9.096691	-0.345097	1.679257	-0.745671	-0.308557	-0.346000	-0.004401	0.003237	-0.000095
311	1.609753	0.005000	9.132819	-0.255642	1.755699	-0.746003	-0.308778	-0.346370	-0.001436	-0.006442	0.004067
312	1.614753	0.005000	9.142920	-0.313920	1.778308	-0.746226	-0.308781	-0.346740	-0.000127	-0.007178	0.002814
313	1.619753	0.005000	9.182160	-0.353160	1.765800	-0.746005	-0.307898	-0.347110	-0.013134	0.002205	0.002141
314	1.624753	0.005000	9.210070	-0.308393	1.844280	-0.745784	-0.307014	-0.347480	-0.003101	-0.005217	0.007492
315	1.629753	0.005000	9.221400	-0.275830	1.764650	-0.745563	-0.306131	-0.347850	-0.003788	0.011173	0.006758
316	1.634753	0.005000	9.260640	-0.374372	1.808223	-0.745342	-0.305247	-0.348220	-0.014593	-0.007084	0.003371
317	1.639753	0.005000	9.142920	-0.392400	1.781416	-0.745121	-0.304363	-0.348590	-0.019447	0.011049	0.008606
318	1.644753	0.005000	9.169937	-0.353160	1.778023	-0.744900	-0.303480	-0.348960	-0.017964	0.002016	0.007067
319	1.649753	0.005000	9.092546	-0.375427	1.855414	-0.744679	-0.302596	-0.349330	-0.019991	-0.010267	0.005393
320	1.654753	0.005000	9.082139	-0.401249	1.796191	-0.744458	-0.301713	-0.349700	-0.023888	-0.000069	0.001418
321	1.659753	0.005000	9.130034	-0.353160	1.792154	-0.744237	-0.300829	-0.350070	-0.023698	-0.000049	0.019119
322	1.664753	0.005000	9.177713	-0.353160	1.696215	-0.744017	-0.299945	-0.350440	-0.018445	0.010173	0.016623
323	1.669753	0.005000	9.105762	-0.313920	1.763718	-0.743796	-0.299062	-0.350810	-0.023689	-0.005194	0.014319
324	1.674753	0.005000	9.103998	-0.313920	1.726560	-0.743575	-0.298178	-0.351180	-0.026877	-0.000027	0.014103
325	1.679753	0.005000	9.105946	-0.429374	1.915962	-0.743354	-0.297295	-0.351550	-0.017436	0.002626	-0.001664
326	1.684753	0.005000	9.069069	-0.353160	1.966629	-0.743208	-0.297242	-0.351161	-0.019354	-0.000310	0.006906
327	1.689753	0.005000	9.071444	-0.346156	1.851284	-0.743098	-0.297573	-0.350421	-0.021596	0.003270	0.004761
328	1.694753	0.005000	9.155061	-0.322953	1.853313	-0.742988	-0.297904	-0.349681	-0.023721	-0.003458	0.006013
329	1.699753	0.005000	9.209963	-0.235440	1.805040	-0.742877	-0.298236	-0.348941	-0.010953	0.004020	0.010723
330	1.704753	0.005000	9.142920	-0.286540	1.687320	-0.742767	-0.298567	-0.348201	-0.012841	-0.009816	0.002808
331	1.709753	0.005000	9.197954	-0.313920	1.734212	-0.742656	-0.298898	-0.347461	-0.001434	-0.006062	0.007978
332	1.714753	0.005000	9.142920	-0.313920	1.765800	-0.742546	-0.299230	-0.346721	-0.003019	-0.001062	0.005273
333	1.719753	0.005000	9.183673	-0.353160	1.900871	-0.742435	-0.299561	-0.345981	-0.006091	-0.004473	0.009612
334	1.724753	0.005000	9.176283	-0.409082	1.805040	-0.742325	-0.299893	-0.345241	-0.009295	0.000101	0.006010
335	1.729753	0.005000	9.289178	-0.324622	1.869251	-0.742214	-0.300224	-0.344501	0.000775	-0.015625	0.006775
336	1.734753	0.005000	9.221400	-0.313920	1.805040	-0.742104	-0.300555	-0.343761	-0.003825	-0.003330	0.005027
337	1.739753	0.005000	9.211483	-0.353160	1.804611	-0.741993	-0.300887	-0.343021	-0.001334	-0.002009	-0.002520
338	1.744753	0.005000	9.096178	-0.338156	1.687320	-0.741883	-0.301218	-0.342281	0.000074	-0.005214	0.004656
339	1.749753	0.005000	9.148016	-0.353160	1.663369	-0.742036	-0.301832	-0.341289	-0.011101	-0.001317	-0.008533
340	1.754753	0.005000	9.142920	-0.425408	1.798808	-0.743471	-0.303819	-0.339070	-0.005035	-0.012851	0.008015
341	1.759753	0.005000	9.144390	-0.351690	1.768005	-0.744906	-0.305806	-0.336851	-0.010079	-0.003141	0.017928
342	1.764753	0.005000	9.221400	-0.274680	1.845929	-0.746341	-0.307793	-0.334632	-0.005971	-0.010679	-0.000117
343	1.769753	0.005000	9.157373	-0.313920	1.776640	-0.747776	-0.309780	-0.332413	-0.009032	-0.013789	0.013483
344	1.774753	0.005000	9.176215	-0.313920	1.787205	-0.749212	-0.311767	-0.330194	-0.015443	0.001929	-0.002889
345	1.779753	0.005000	9.197516	-0.266719	1.773761	-0.750647	-0.313754	-0.327975	-0.017770	-0.012838	0.006025
346	1.784753	0.005000	9.134809	-0.285056	1.844280	-0.752082	-0.315742	-0.325756	-0.019968	0.001542	0.003060
347	1.789753	0.005000	9.103680	-0.353160	1.791062	-0.753517	-0.317729	-0.323537	-0.018751	-0.005082	-0.009562
348	1.794753	0.005000	9.142920	-0.338432	1.780528	-0.754952	-0.319716	-0.321318	-0.013370	0.002344	0.006742
349	1.799753	0.005000	9.069399	-0.308961	1.726560	-0.756388	-0.321703	-0.319099	-0.020334	-0.005790	-0.001762
350	1.804753	0.005000	9.123507	-0.294507	1.863969	-0.757823	-0.323690	-0.316880	-0.008017	-0.004483	0.008079
351	1.809753	0.005000	9.221400	-0.335628	1.826748	-0.759258	-0.325677	-0.314660	-0.016949	-0.003017	-0.002508
352	1.814753	0.005000	9.142920	-0.377065	1.759036	-0.760693	-0.327664	-0.312441	-0.008935	-0.011437	-0.004054
353	1.819753	0.005000	9.090758	-0.274680	1.857202	-0.760475	-0.327136	-0.313112	-0.018462	-0.000108	0.006860
354	1.824753	0.005000	9.203852	-0.274680	1.905212	-0.759371	-0.325258	-0.315332	-0.019090	-0.006918	0.004035
355	1.829753	0.005000	9.291310	-0.257539	1.852850	-0.758266	-0.323380	-0.317552	-0.011848	-0.021168	0.012957
356	1.834753	0.005000	9.227555	-0.235440	1.865056	-0.757162	-0.321503	-0.319772	-0.011667	-0.006264	-0.002194
357	1.839753	0.005000	9.217650	-0.242939	1.915261	-0.756057	-0.319625	-0.321992	-0.004586	-0.013989	-0.000676
358	1.844753	0.005000	9.257070	-0.315705	1.769370	-0.754953	-0.317747	-0.324213	-0.016188	-0.006953	0.001344
359	1.849753	0.005000	9.143517	-0.314517	1.805637	-0.753848	-0.315870	-0.326433	-0.013860	-0.014365	0.000212
360	1.854753	0.005000	9.182160	-0.356140	1.913820	-0.752744	-0.313992	-0.328653	-0.002712	-0.011711	0.011025
361	1.859753	0.005000	9.103680	-0.240399	1.868644	-0.751639	-0.312114	-0.330873	-0.009374	-0.004271	-0.004276
362	1.864753	0.005000	9.135556	-0.274680	1.819768	-0.750535	-0.310237	-0.333093	-0.005373	-0.014549	0.004944
363	1.869753	0.005000	9.133141	-0.313920	1.765800	-0.749430	-0.308359	-0.335313	-0.016525	-0.003408	-0.006721
364	1.874753	0.005000	9.182160	-0.301879	1.817081	-0.748326	-0.306482	-0.337533	-0.006895	-0.009055	0.007119
365	1.879753	0.005000	9.179006	-0.367291	1.779931	-0.747221	-0.304604	-0.339753	-0.017393	-0.007236	0.007311
366	1.884753	0.005000	9.153312	-0.313920	1.844280	-0.746193	-0.302909	-0.341735	-0.015454	-0.009078	-0.003686
367	1.889753	0.005000	9.183492	-0.334206	1.825326	-0.745641	-0.302357	-0.342228	-0.018658	-0.015589	0.003412
368	1.894753	0.005000	9.164038	-0.295798	1.792908	-0.745088	-0.301804	-0.342722	-0.016130	-0.002704	-0.008996
369	1.899753	0.005000	9.189537	-0.329852	1.664012	-0.744536	-0.301252	-0.343215	-0.007879	-0.017092	0.002886
370	1.904753	0.005000	9.117199	-0.353160	1.660282	-0.743984	-0.300700	-0.343708	-0.012455	-0.012846	-0.000017
371	1.909753	0.005000	9.260640	-0.285791	1.788022	-0.743432	-0.300148	-0.344201	-0.017715	-0.018103	0.000724
372	1.914753	0.005000	9.242518	-0.383339	1.817096	-0.742879	-0.299595	-0.344695	-0.010305	-0.008606	0.005556
373	1.919753	0.005000	9.168656	-0.313920	1.765800	-0.742327	-0.299043	-0.345188	-0.008733	-0.003816	-0.000043
374	1.924753	0.005000	9.094984	-0.283376	1.809388	-0.741775	-0.298491	-0.345681	-0.005563	-0.012959	0.013129
375	1.929753	0.005000	9.182160	-0.353160	1.805040	-0.741222	-0.297938	-0.346175	-0.010624	-0.002104	-0.001161
376	1.934753	0.005000	9.182160	-0.353160	1.726560	-0.740670	-0.297386	-0.346668	-0.008162	-0.015360	-0.001554
377	1.939753	0.005000	9.145310	-0.350770	1.763410	-0.740118	-0.296834	-0.347161	-0.007381	-0.007891	0.007738
378	1.944753	0.005000	9.112403	-0.353160	1.800678	-0.739566	-0.296282	-0.347655	-0.010603	-0.009918	-0.000696
379	1.949753	0.005000	9.175393	-0.392400	1.876753	-0.739013	-0.295729	-0.348148	-0.010660	-0.018305	0.010043
380	1.954753	0.005000	9.164007	-0.401476	1.865367	-0.739496	-0.296212	-0.347408	-0.010385	-0.008779	-0.003649
381	1.959753	0.005000	9.131469	-0.482331	1.827943	-0.740601	-0.297317	-0.345927	-0.003998	-0.018909	-0.001852
382	1.964753	0.005000	9.130748	-0.392400	1.792868	-0.741706	-0.298422	-0.344447	-0.017147	0.001515	0.007202
383	1.969753	0.005000	9.189506	-0.408347	1.726560	-0.742811	-0.299527	-0.342966	-0.010496	-0.010413	0.000722
384	1.974753	0.005000	9.200051	-0.313920	1.687320	-0.743916	-0.300632	-0.341485	-0.012963	-0.008317	0.005107
385	1.979753	0.005000	9.163221	-0.274680	1.803677	-0.745021	-0.301738	-0.340005	-0.012351	0.001084	-0.002585
386	1.984753	0.005000	9.188343	-0.330449	1.854626	-0.746126	-0.302843	-0.338524	-0.005756	-0.009876	0.008122
387	1.989753	0.005000	9.235816	-0.317929	1.815448	-0.747231	-0.303948	-0.337043	-0.013389	-0.005303	-0.005448
388	1.994753	0.005000	9.245743	-0.340988	1.807765	-0.748336	-0.305053	-0.335562	-0.012541	-0.008552	-0.003701
389	1.999753	0.005000	9.280344	-0.313920	1.795272	-0.749441	-0.306158	-0.334082	-0.008171	-0.008719	0.005548
390	2.004753	0.005000	9.229130	-0.384670	1.805630	-0.750546	-0.307263	-0.332601	-0.014877	-0.008161	-0.005323
391	2.009753	0.005000	9.098262	-0.342325	1.692738	-0.751651	-0.308368	-0.331120	-0.008215	-0.005772	-0.000916
392	2.014753	0.005000	9.182160	-0.277681	1.796038	-0.752756	-0.309473	-0.329640	-0.008808	0.005403	-0.005892
393	2.019753	0.005000	9.221997	-0.274083	1.649274	-0.753614	-0.310370	-0.328435	-0.027607	-0.007143	0.009546
394	2.024753	0.005000	9.222747	-0.311225	1.764453	-0.752620	-0.309707	-0.329298	-0.013165	0.004898	-0.001067
395	2.029753	0.005000	9.146685	-0.353160	1.765800	-0.751626	-0.309045	-0.330161	-0.010613	-0.009845	-0.006827
396	2.034753	0.005000	9.242351	-0.295631	1.771896	-0.750632	-0.308382	-0.331025	-0.006057	-0.007237	0.009561
397	2.039753	0.005000	9.112166	-0.313920	1.726560	-0.749638	-0.307719	-0.331888	-0.007636	0.003466	-0.006766
398	2.044753	0.005000	9.074969	-0.353160	1.844280	-0.748644	-0.307057	-0.332751	-0.014354	-0.004277	0.001984
399	2.049753	0.005000	9.116617	-0.326857	1.805040	-0.747650	-0.306394	-0.333615	-0.017476	0.006284	-0.007349
400	2.054753	0.005000	9.182160	-0.344265	1.702493	-0.746656	-0.305731	-0.334478	-0.007551	0.000831	-0.001242
401	2.059753	0.005000	9.081734	-0.353160	1.787746	-0.745662	-0.305069	-0.335342	-0.006723	-0.003990	-0.001017
402	2.064753	0.005000	9.103680	-0.313920	1.805040	-0.744668	-0.304406	-0.336205	-0.011348	-0.010504	-0.004535
403	2.069753	0.005000	9.099202	-0.353160	1.879042	-0.743674	-0.303743	-0.337068	-0.012812	-0.011848	0.010079
404	2.074753	0.005000	9.079446	-0.328926	1.868514	-0.742680	-0.303081	-0.337932	-0.025348	-0.001569	0.000144
405	2.079753	0.005000	9.142017	-0.326699	1.831501	-0.741686	-0.302418	-0.338795	-0.007549	-0.010690	0.005123
406	2.084753	0.005000	9.142920	-0.332430	1.815405	-0.740692	-0.301755	-0.339658	-0.013025	-0.004049	0.000985
407	2.089753	0.005000	9.221400	-0.313920	1.796720	-0.740165	-0.301426	-0.339776	-0.015861	-0.012649	0.001151
408	2.094753	0.005000	9.194050	-0.331755	1.765800	-0.739944	-0.301316	-0.339406	-0.011405	-0.009798	0.001471
409	2.099753	0.005000	9.217802	-0.392400	1.808638	-0.739723	-0.301205	-0.339036	-0.007135	-0.008524	-0.004356
410	2.104753	0.005000	9.220206	-0.353160	1.917985	-0.739502	-0.301095	-0.338666	-0.007788	-0.011225	-0.000718
411	2.109753	0.005000	9.220650	-0.276180	1.765800	-0.739281	-0.300984	-0.338296	-0.017715	-0.006007	-0.007418
412	2.114753	0.005000	9.218232	-0.274680	1.883520	-0.739060	-0.300874	-0.337925	-0.008559	-0.022697	-0.005147
413	2.119753	0.005000	9.142920	-0.347654	1.849786	-0.738839	-0.300763	-0.337555	-0.020304	-0.012151	0.007250
414	2.124753	0.005000	9.213504	-0.313920	1.781593	-0.738618	-0.300652	-0.337185	-0.017202	-0.014066	0.002611
415	2.129753	0.005000	9.152852	-0.313920	1.863655	-0.738397	-0.300542	-0.336815	-0.018745	-0.014639	-0.004407
416	2.134753	0.005000	9.145140	-0.340820	1.856620	-0.738176	-0.300431	-0.336445	-0.033779	-0.012267	-0.004730
417	2.139753	0.005000	9.157503	-0.367743	1.805040	-0.737955	-0.300321	-0.336074	-0.019253	-0.024672	-0.002452
418	2.144753	0.005000	9.126223	-0.369857	1.749103	-0.737734	-0.300210	-0.335704	-0.011601	-0.014385	-0.006535
419	2.149753	0.005000	9.202293	-0.333027	1.825173	-0.737513	-0.300100	-0.335334	-0.007795	-0.013215	-0.013536
420	2.154753	0.005000	9.242654	-0.292666	1.826294	-0.737324	-0.300054	-0.334928	-0.012460	-0.015653	-0.001906
421	2.159753	0.005000	9.253092	-0.329516	1.883520	-0.737434	-0.300606	-0.334188	-0.011301	-0.014410	-0.006839
422	2.164753	0.005000	9.182160	-0.300544	1.805040	-0.737545	-0.301158	-0.333448	-0.004321	-0.020845	-0.002707
423	2.169753	0.005000	9.114642	-0.235440	1.698282	-0.737655	-0.301711	-0.332708	-0.009968	-0.011091	-0.000294
424	2.174753	0.005000	9.221400	-0.274680	1.726560	-0.737766	-0.302263	-0.331968	-0.008937	-0.018592	-0.010483
425	2.179753	0.005000	9.254029	-0.353160	1.746394	-0.737876	-0.302815	-0.331228	-0.009292	-0.017809	-0.001732
426	2.184753	0.005000	9.177965	-0.313920	1.879325	-0.737987	-0.303367	-0.330488	-0.013498	-0.016064	-0.015670
427	2.189753	0.005000	9.148292	-0.315711	1.878148	-0.738097	-0.303920	-0.329748	-0.001192	-0.018901	-0.002328
428	2.194753	0.005000	9.338814	-0.353160	1.765800	-0.738208	-0.304472	-0.329008	-0.011141	-0.012017	-0.009148
429	2.199753	0.005000	9.182160	-0.282393	1.799898	-0.738318	-0.305024	-0.328268	-0.009905	-0.022893	-0.015255
430	2.204753	0.005000	9.245713	-0.274680	1.731536	-0.738429	-0.305577	-0.327528	-0.019835	-0.017693	-0.002052
431	2.209753	0.005000	9.214094	-0.345854	1.630759	-0.738539	-0.306129	-0.326788	-0.011941	-0.010407	-0.011247
432	2.214753	0.005000	9.281209	-0.323256	1.747129	-0.738650	-0.306681	-0.326048	-0.006835	-0.021759	-0.000202
433	2.219753	0.005000	9.284126	-0.353160	1.687320	-0.738760	-0.307233	-0.325308	-0.012540	-0.010950	-0.012557
434	2.224753	0.005000	9.196307	-0.260533	1.701467	-0.739000	-0.307334	-0.325793	-0.013552	-0.015799	0.004799
435	2.229753	0.005000	9.035063	-0.212568	1.697183	-0.739331	-0.307113	-0.327149	-0.012912	-0.011501	-0.002645
436	2.234753	0.005000	9.027434	-0.235440	1.671052	-0.739662	-0.306892	-0.328506	-0.009005	-0.015276	-0.004895
437	2.239753	0.005000	9.082766	-0.316507	1.650667	-0.739994	-0.306671	-0.329863	-0.021149	-0.009104	0.000536
438	2.244753	0.005000	9.135513	-0.353160	1.663996	-0.740325	-0.306450	-0.331219	-0.014293	-0.005310	-0.009295
439	2.249753	0.005000	9.209782	-0.353160	1.661891	-0.740656	-0.306229	-0.332576	-0.011158	-0.016151	-0.006340
440	2.254753	0.005000	9.249219	-0.274680	1.703718	-0.740988	-0.306009	-0.333933	-0.014250	-0.005608	-0.008782
441	2.259753	0.005000	9.103680	-0.187048	1.675536	-0.741319	-0.305788	-0.335289	-0.001900	-0.020265	-0.005000
442	2.264753	0.005000	9.077913	-0.209673	1.719824	-0.741651	-0.305567	-0.336646	-0.008265	-0.000359	0.013275
443	2.269753	0.005000	9.103680	-0.279472	1.726560	-0.741982	-0.305346	-0.338003	-0.000957	0.001438	-0.005969
444	2.274753	0.005000	9.145307	-0.390013	1.733722	-0.742313	-0.305125	-0.339359	-0.003880	-0.007211	0.003923
445	2.279753	0.005000	9.182160	-0.313950	1.844280	-0.742645	-0.304904	-0.340716	-0.012980	-0.003797	0.006195
446	2.284753	0.005000	9.180186	-0.315894	1.767774	-0.742976	-0.304683	-0.342073	0.000000	-0.012548	0.009634
447	2.289753	0.005000	9.169024	-0.274680	1.761421	-0.743260	-0.304447	-0.343342	-0.006108	0.004849	-0.000458
448	2.294753	0.005000	9.142920	-0.222007	1.830847	-0.742929	-0.304005	-0.343465	-0.007722	0.000277	-0.000849
449	2.299753	0.005000	9.203946	-0.292134	1.805040	-0.742598	-0.303563	-0.343588	-0.011500	-0.007490	0.002982
450	2.304753	0.005000	9.238357	-0.274680	1.603024	-0.742266	-0.303121	-0.343712	-0.012762	0.000214	0.002648
451	2.309753	0.005000	9.182175	-0.287750	1.634995	-0.741935	-0.302679	-0.343835	-0.001531	0.000062	0.005676
452	2.314753	0.005000	9.103680	-0.353160	1.702814	-0.741604	-0.302237	-0.343959	-0.008062	0.008222	-0.000730
453	2.319753	0.005000	9.142920	-0.374701	1.765800	-0.741272	-0.301795	-0.344082	-0.015005	-0.000563	0.005881
454	2.324753	0.005000	9.123530	-0.353160	1.785190	-0.740941	-0.301354	-0.344205	-0.011516	-0.006766	0.004944
455	2.329753	0.005000	9.176878	-0.235440	1.793343	-0.740609	-0.300912	-0.344329	-0.007026	0.000901	-0.004532
456	2.334753	0.005000	9.236255	-0.328775	1.726560	-0.740278	-0.300470	-0.344452	-0.018118	0.002443	0.010346
457	2.339753	0.005000	9.246652	-0.353160	1.739186	-0.739947	-0.300028	-0.344575	-0.016606	-0.000807	0.007075
458	2.344753	0.005000	9.260640	-0.274680	1.745376	-0.739615	-0.299586	-0.344699	-0.009495	-0.009947	0.003049
459	2.349753	0.005000	9.103680	-0.329530	1.844280	-0.739284	-0.299144	-0.344822	-0.009476	0.006179	-0.002080
460	2.354753	0.005000	9.148714	-0.319714	1.810834	-0.738953	-0.298702	-0.344945	-0.011362	-0.002559	-0.002569
461	2.359753	0.005000	9.142920	-0.320810	1.915870	-0.738744	-0.298630	-0.345000	-0.003234	-0.001075	0.000376
462	2.364753	0.005000	9.179038	-0.391359	1.842199	-0.738634	-0.298851	-0.345000	-0.007294	0.002432	0.004142
463	2.369753	0.005000	9.141113	-0.353160	1.765800	-0.738523	-0.299072	-0.345000	-0.010750	-0.004508	0.001763
464	2.374753	0.005000	9.218093	-0.317227	1.883520	-0.738413	-0.299294	-0.345000	-0.009630	0.002972	-0.003058
465	2.379753	0.005000	9.182160	-0.319644	1.883520	-0.738302	-0.299515	-0.345000	-0.012839	-0.012713	0.000368
466	2.384753	0.005000	9.158985	-0.329985	1.844280	-0.738192	-0.299736	-0.345000	-0.009679	-0.000936	0.008284
467	2.389753	0.005000	9.142920	-0.303846	1.844280	-0.738081	-0.299957	-0.345000	-0.010134	0.000525	0.001971
468	2.394753	0.005000	9.221400	-0.326408	1.885295	-0.737971	-0.300178	-0.345000	-0.010412	-0.005599	0.003236
469	2.399753	0.005000	9.163267	-0.289577	1.834834	-0.737860	-0.300399	-0.345000	-0.012241	0.002244	-0.016998
470	2.404753	0.005000	9.165051	-0.336051	1.805040	-0.737750	-0.300620	-0.345000	-0.004169	-0.009782	0.001262
471	2.409753	0.005000	9.142185	-0.333173	1.844280	-0.737639	-0.300841	-0.345000	-0.007414	-0.001222	0.003529
472	2.414753	0.005000	9.103680	-0.335584	1.901096	-0.737528	-0.301062	-0.345000	-0.008155	-0.004291	0.004276
473	2.419753	0.005000	9.182160	-0.313920	1.812135	-0.737418	-0.301283	-0.345000	0.002749	-0.007985	0.006765
474	2.424753	0.005000	9.142920	-0.313920	1.896590	-0.737319	-0.301482	-0.345012	-0.010609	-0.001646	0.004875
475	2.429753	0.005000	9.192969	-0.228627	1.951191	-0.737429	-0.301261	-0.345259	-0.007711	-0.012120	0.002959
476	2.434753	0.005000	9.142920	-0.344758	1.774202	-0.737539	-0.301040	-0.345506	-0.003989	-0.013313	0.000474
477	2.439753	0.005000	9.115653	-0.319906	1.738533	-0.737650	-0.300819	-0.345752	-0.004263	-0.012757	-0.003912
478	2.444753	0.005000	9.138926	-0.353160	1.765800	-0.737760	-0.300598	-0.345999	-0.006860	-0.006482	-0.002641
479	2.449753	0.005000	9.106956	-0.315558	1.693873	-0.737871	-0.300377	-0.346245	-0.013818	-0.004162	-0.002559
480	2.454753	0.005000	9.182160	-0.314676	1.728829	-0.737981	-0.300157	-0.346492	-0.009787	-0.006223	0.004995
481	2.459753	0.005000	9.148340	-0.316630	1.763090	-0.738092	-0.299936	-0.346738	-0.017350	0.005443	-0.000771
482	2.464753	0.005000	9.284499	-0.308793	1.839153	-0.738202	-0.299715	-0.346985	-0.011109	-0.016734	-0.009640
483	2.469753	0.005000	9.221400	-0.321453	1.765800	-0.738313	-0.299494	-0.347231	-0.019416	-0.013992	-0.004070
484	2.474753	0.005000	9.260640	-0.235440	1.814873	-0.738423	-0.299273	-0.347478	-0.017807	-0.011271	-0.001619
485	2.479753	0.005000	9.299880	-0.290137	1.832389	-0.738533	-0.299052	-0.347724	-0.014883	-0.017879	0.006726
486	2.484753	0.005000	9.132279	-0.353160	1.805040	-0.738644	-0.298831	-0.347971	-0.019592	-0.004441	0.000326
487	2.489753	0.005000	9.159439	-0.291199	1.895924	-0.738754	-0.298611	-0.348217	-0.010022	-0.011011	0.002970
488	2.494753	0.005000	9.301332	-0.332814	1.842828	-0.738923	-0.298624	-0.348267	-0.007917	-0.004862	0.004249
489	2.499753	0.005000	9.221400	-0.350266	1.820320	-0.739144	-0.298845	-0.348144	-0.014553	-0.013424	0.000090
490	2.504753	0.005000	9.166397	-0.470880	1.875807	-0.739365	-0.299066	-0.348021	-0.022319	-0.009376	0.008085
491	2.509753	0.005000	9.195820	-0.392400	1.740220	-0.739586	-0.299287	-0.347898	-0.008993	0.002664	-0.004669
492	2.514753	0.005000	9.170754	-0.420234	1.726560	-0.739807	-0.299508	-0.347774	-0.010458	-0.012820	0.016764
493	2.519753	0.005000	9.160918	-0.362159	1.717561	-0.740028	-0.299729	-0.347651	-0.012153	-0.013233	-0.003685
494	2.524753	0.005000	9.182160	-0.367107	1.737905	-0.740249	-0.299950	-0.347528	-0.007969	-0.015641	0.005522
495	2.529753	0.005000	9.073745	-0.426988	1.731212	-0.740470	-0.300171	-0.347404	-0.004833	-0.000663	0.001690
496	2.534753	0.005000	9.105915	-0.320626	1.768035	-0.740691	-0.300392	-0.347281	-0.012672	-0.012141	-0.008698
497	2.539753	0.005000	9.142920	-0.392400	1.765225	-0.740911	-0.300613	-0.347158	-0.005407	-0.008940	0.006199
498	2.544753	0.005000	9.142920	-0.355273	1.835829	-0.741132	-0.300834	-0.347035	-0.012238	-0.009231	-0.002610
499	2.549753	0.005000	9.186638	-0.362115	1.844280	-0.741353	-0.301055	-0.346911	-0.006414	-0.006266	0.002175
500	2.554753	0.005000	9.129575	-0.353160	1.877046	-0.741574	-0.301276	-0.346788	-0.010887	0.000559	-0.008557
501	2.559753	0.005000	9.212520	-0.431640	1.696200	-0.741797	-0.301517	-0.346618	-0.013400	-0.003141	0.001096
502	2.564753	0.005000	9.142920	-0.325084	1.698484	-0.742128	-0.302842	-0.343904	-0.002454	-0.004389	0.001190
503	2.569753	0.005000	9.221400	-0.392400	1.635918	-0.742460	-0.304168	-0.341191	-0.014469	-0.005475	-0.006186
504	2.574753	0.005000	9.276287	-0.305974	1.820932	-0.742791	-0.305493	-0.338477	-0.010910	-0.001628	0.006081
505	2.579753	0.005000	9.296758	-0.256621	1.886642	-0.743123	-0.306819	-0.335764	-0.014474	0.009354	-0.011340
506	2.584753	0.005000	9.142920	-0.293695	1.825265	-0.743454	-0.308144	-0.333051	-0.007000	-0.007427	0.005791
507	2.589753	0.005000	9.159746	-0.369986	1.788214	-0.743785	-0.309469	-0.330337	-0.013568	0.016045	-0.002245
508	2.594753	0.005000	9.250233	-0.309910	1.740977	-0.744117	-0.310795	-0.327624	-0.009889	-0.001230	-0.003291
509	2.599753	0.005000	9.221400	-0.380071	1.765800	-0.744448	-0.312120	-0.324910	-0.006988	-0.008965	0.006827
510	2.604753	0.005000	9.240500	-0.322949	1.775870	-0.744779	-0.313445	-0.322197	-0.005074	-0.007933	-0.005576
511	2.609753	0.005000	9.135265	-0.243095	1.758145	-0.745111	-0.314771	-0.319483	-0.002229	-0.015045	-0.000912
512	2.614753	0.005000	9.109391	-0.263259	1.732271	-0.745442	-0.316096	-0.316770	-0.006032	-0.005475	-0.002527
513	2.619753	0.005000	9.031811	-0.199506	1.811651	-0.745774	-0.317422	-0.314057	-0.012255	-0.014614	0.001337
514	2.624753	0.005000	9.143808	-0.276456	1.846056	-0.746105	-0.318747	-0.311343	-0.003674	-0.007517	0.005112
515	2.629753	0.005000	9.143976	-0.314976	1.960944	-0.746381	-0.318901	-0.310561	0.011063	-0.005185	-0.000201
516	2.634753	0.005000	9.182160	-0.310460	1.815420	-0.746601	-0.317907	-0.311671	-0.008048	-0.003941	0.000046
517	2.639753	0.005000	9.176351	-0.319729	1.759991	-0.746822	-0.316913	-0.312781	-0.010996	-0.000192	-0.003632
518	2.644753	0.005000	9.150740	-0.345340	1.899299	-0.747043	-0.315919	-0.313891	-0.010121	-0.015485	0.006048
519	2.649753	0.005000	9.192387	-0.371946	1.902306	-0.747264	-0.314925	-0.315001	-0.011705	0.000553	0.005843
520	2.654753	0.005000	9.274890	-0.326415	1.751550	-0.747485	-0.313931	-0.316111	0.000278	0.004989	0.000119
521	2.659753	0.005000	9.215845	-0.343090	1.652595	-0.747706	-0.312937	-0.317221	-0.003604	-0.009597	0.006351
522	2.664753	0.005000	9.142920	-0.313920	1.731811	-0.747927	-0.311943	-0.318331	-0.009468	-0.000333	-0.000148
523	2.669753	0.005000	9.181731	-0.372566	1.805469	-0.748148	-0.310948	-0.319441	-0.009207	-0.007239	0.002893
524	2.674753	0.005000	9.139047	-0.392400	1.726560	-0.748369	-0.309954	-0.320551	-0.001601	0.000850	0.005993
525	2.679753	0.005000	9.221400	-0.392400	1.781288	-0.748590	-0.308960	-0.321661	-0.009138	-0.010662	0.004335
526	2.684753	0.005000	9.142935	-0.392400	1.765800	-0.748810	-0.307966	-0.322771	-0.017984	-0.002950	0.009725
527	2.689753	0.005000	9.243395	-0.342163	1.754803	-0.749031	-0.306972	-0.323881	-0.020422	-0.002924	-0.000124
528	2.694753	0.005000	9.260640	-0.313920	1.774523	-0.749252	-0.305978	-0.324991	-0.018080	-0.022744	0.006512
529	2.699753	0.005000	9.168757	-0.418237	1.811741	-0.748597	-0.305970	-0.326223	-0.020902	-0.011490	0.000822
530	2.704753	0.005000	9.138557	-0.313920	1.726560	-0.747934	-0.305970	-0.327457	-0.014103	-0.015594	0.020265
531	2.709753	0.005000	9.142920	-0.239358	1.799163	-0.747271	-0.305970	-0.328690	-0.015754	-0.008831	0.006665
532	2.714753	0.005000	9.181706	-0.391492	1.687320	-0.746609	-0.305970	-0.329923	-0.006185	-0.008956	0.006259
533	2.719753	0.005000	9.103680	-0.313920	1.768203	-0.745946	-0.305970	-0.331157	-0.017378	-0.011467	0.006092
534	2.724753	0.005000	9.069190	-0.348410	1.805040	-0.745283	-0.305970	-0.332390	-0.019008	-0.005643	-0.001527
535	2.729753	0.005000	9.175020	-0.281820	1.758660	-0.744621	-0.305970	-0.333624	-0.012139	-0.005798	0.008664
536	2.734753	0.005000	9.281546	-0.295586	1.735727	-0.743958	-0.305970	-0.334857	-0.015617	-0.005283	-0.001176
537	2.739753	0.005000	9.182160	-0.341586	1.675746	-0.743295	-0.305970	-0.336090	-0.012228	-0.006081	-0.000970
538	2.744753	0.005000	9.274466	-0.417814	1.698907	-0.742633	-0.305970	-0.337324	-0.013000	-0.005947	0.012041
539	2.749753	0.005000	9.228795	-0.306525	1.758405	-0.741970	-0.305970	-0.338557	-0.013681	0.003941	-0.000585
540	2.754753	0.005000	9.260640	-0.313920	1.825946	-0.741307	-0.305970	-0.339791	-0.019430	-0.007601	0.015671
541	2.759753	0.005000	9.122423	-0.274680	1.902263	-0.740645	-0.305970	-0.341024	-0.024986	0.002951	0.002919
542	2.764753	0.005000	9.132509	-0.258130	1.873109	-0.740352	-0.305864	-0.341785	-0.017875	-0.020663	0.007031
543	2.769753	0.005000	9.106863	-0.313920	1.826956	-0.740462	-0.305643	-0.342032	-0.016493	-0.010068	0.016482
544	2.774753	0.005000	9.158047	-0.325976	1.750673	-0.740573	-0.305422	-0.342279	-0.011853	-0.001923	0.006278
545	2.779753	0.005000	9.182160	-0.392400	1.746126	-0.740683	-0.305201	-0.342525	-0.003067	-0.011108	0.016714
546	2.784753	0.005000	9.196913	-0.338407	1.805040	-0.740794	-0.304980	-0.342772	-0.006683	-0.005505	0.007621
547	2.789753	0.005000	9.074361	-0.284601	1.795119	-0.740904	-0.304759	-0.343019	-0.007535	-0.014269	0.010297
548	2.794753	0.005000	9.103680	-0.392400	1.765800	-0.741015	-0.304538	-0.343266	-0.009923	-0.000366	-0.003484
549	2.799753	0.005000	9.103680	-0.353160	1.727172	-0.741125	-0.304317	-0.343512	-0.011287	-0.007480	0.002457
550	2.804753	0.005000	9.141135	-0.278250	1.840710	-0.741236	-0.304096	-0.343759	-0.015851	-0.002047	0.006808
551	2.809753	0.005000	9.249391	-0.313920	1.777049	-0.741346	-0.303875	-0.344006	-0.018655	-0.004715	-0.006967
552	2.814753	0.005000	9.221400	-0.307765	1.705784	-0.741456	-0.303654	-0.344253	-0.004875	-0.013788	0.008799
553	2.819753	0.005000	9.252541	-0.313920	1.734659	-0.741567	-0.303433	-0.344499	-0.004126	-0.008061	0.006128
554	2.824753	0.005000	9.132417	-0.303417	1.726560	-0.741677	-0.303212	-0.344746	-0.007770	-0.019291	0.009016
555	2.829753	0.005000	9.130003	-0.366077	1.673914	-0.741788	-0.302991	-0.344993	-0.004858	-0.014378	0.001302
556	2.834753	0.005000	9.133965	-0.313920	1.663222	-0.741791	-0.303200	-0.344760	-0.007276	-0.008320	0.004273
557	2.839753	0.005000	9.103680	-0.335890	1.626110	-0.741791	-0.303421	-0.344514	-0.003002	-0.009401	0.007240
558	2.844753	0.005000	9.280321	-0.353160	1.726560	-0.741791	-0.303641	-0.344267	-0.011039	-0.007606	-0.004796
559	2.849753	0.005000	9.164749	-0.392400	1.822451	-0.741791	-0.303862	-0.344020	-0.004750	-0.017241	0.008222
560	2.854753	0.005000	9.221400	-0.416437	1.883520	-0.741791	-0.304083	-0.343774	-0.017344	-0.006129	0.009537
561	2.859753	0.005000	9.130126	-0.353160	1.753006	-0.741791	-0.304304	-0.343527	-0.003781	-0.015272	-0.001623
562	2.864753	0.005000	9.171435	-0.353160	1.776525	-0.741791	-0.304525	-0.343280	-0.014699	-0.007145	0.013618
563	2.869753	0.005000	9.274572	-0.313920	1.844280	-0.741791	-0.304746	-0.343034	-0.017243	0.001085	-0.006245
564	2.874753	0.005000	9.182160	-0.319950	1.838250	-0.741791	-0.304967	-0.342787	-0.010834	-0.010577	-0.000900
565	2.879753	0.005000	9.146533	-0.349547	1.844280	-0.741791	-0.305188	-0.342541	-0.014608	0.000408	-0.006463
566	2.884753	0.005000	9.223049	-0.277978	1.880222	-0.741791	-0.305409	-0.342294	-0.010481	-0.000900	-0.006928
567	2.889753	0.005000	9.145125	-0.391665	1.728030	-0.741791	-0.305629	-0.342047	-0.016490	-0.002591	0.004868
568	2.894753	0.005000	9.139818	-0.317022	1.605738	-0.741791	-0.305850	-0.341801	-0.014379	-0.001877	-0.006310
569	2.899753	0.005000	9.153086	-0.319003	1.755634	-0.741842	-0.305666	-0.341554	-0.003916	-0.012296	0.017305
570	2.904753	0.005000	9.142920	-0.345661	1.836781	-0.741952	-0.305004	-0.341307	-0.016984	-0.006144	-0.005318
571	2.909753	0.005000	9.191947	-0.362947	1.903185	-0.742063	-0.304341	-0.341060	-0.007939	-0.010745	0.009506
572	2.914753	0.005000	9.170310	-0.325770	1.899060	-0.742173	-0.303678	-0.340814	-0.025682	-0.004249	0.005138
573	2.919753	0.005000	9.182160	-0.285393	1.805040	-0.742284	-0.303015	-0.340567	-0.014416	-0.001702	0.000829
574	2.924753	0.005000	9.142920	-0.336686	1.749326	-0.742394	-0.302353	-0.340320	-0.021093	-0.007750	0.002201
575	2.929753	0.005000	9.219394	-0.334543	1.745177	-0.742505	-0.301690	-0.340074	-0.022753	0.000098	-0.013420
576	2.934753	0.005000	9.179344	-0.295708	1.784012	-0.742615	-0.301027	-0.339827	-0.009655	-0.005644	0.000858
577	2.939753	0.005000	9.110760	-0.281760	1.821120	-0.742726	-0.300365	-0.339580	-0.012303	0.005240	-0.002300
578	2.944753	0.005000	9.168470	-0.288370	1.842450	-0.742836	-0.299702	-0.339333	-0.007237	-0.011461	-0.007091
579	2.949753	0.005000	9.182160	-0.336815	1.754352	-0.742946	-0.299039	-0.339087	-0.010548	-0.005951	0.003864
580	2.954753	0.005000	9.034233	-0.431640	1.844280	-0.743057	-0.298377	-0.338840	-0.015109	-0.005025	-0.007025
581	2.959753	0.005000	9.175156	-0.346156	1.812044	-0.743167	-0.297714	-0.338593	0.002817	-0.013266	0.009814
582	2.964753	0.005000	9.108365	-0.313920	1.800355	-0.743278	-0.297051	-0.338347	-0.020514	-0.018342	0.002687
583	2.969753	0.005000	9.177599	-0.316200	1.842000	-0.743180	-0.297328	-0.338683	-0.005485	-0.014578	0.004707
584	2.974753	0.005000	9.181888	-0.314056	1.844144	-0.743069	-0.297660	-0.339053	-0.017028	-0.002044	-0.004300
585	2.979753	0.005000	9.332876	-0.237521	1.883520	-0.742959	-0.297991	-0.339423	-0.013572	-0.011256	-0.001663
586	2.984753	0.005000	9.260640	-0.235440	1.809526	-0.742848	-0.298322	-0.339793	-0.008858	-0.003361	0.002749
587	2.989753	0.005000	9.188982	-0.274680	1.707787	-0.742738	-0.298654	-0.340163	-0.005436	0.004058	-0.003731
588	2.994753	0.005000	9.094834	-0.274680	1.783492	-0.742627	-0.298985	-0.340533	-0.008699	-0.007443	0.009742
589	2.999753	0.005000	9.120414	-0.274680	1.855533	-0.742517	-0.299316	-0.340903	-0.018235	0.003054	-0.003854
590	3.004753	0.005000	9.130697	-0.223217	1.832057	-0.742406	-0.299648	-0.341273	-0.015454	-0.006684	-0.003200
591	3.009753	0.005000	9.166550	-0.227849	1.702930	-0.742296	-0.299979	-0.341643	-0.010904	0.009592	0.005753
592	3.014753	0.005000	9.245820	-0.295900	1.765800	-0.742185	-0.300311	-0.342013	-0.014077	-0.009001	-0.007649
593	3.019753	0.005000	9.202355	-0.334115	1.765800	-0.742075	-0.300642	-0.342383	-0.021542	-0.001464	0.011633
594	3.024753	0.005000	9.165295	-0.297055	1.827415	-0.741964	-0.300973	-0.342753	-0.013435	0.005799	-0.002136
595	3.029753	0.005000	9.078893	-0.274680	1.741013	-0.741854	-0.301305	-0.343123	-0.019246	-0.010222	0.004744
596	3.034753	0.005000	9.078962	-0.247799	1.672798	-0.741743	-0.301445	-0.343333	-0.013793	-0.003683	0.003629
597	3.039753	0.005000	9.144099	-0.264575	1.765800	-0.741633	-0.301335	-0.343333	-0.009019	-0.003881	-0.004362
598	3.044753	0.005000	9.182160	-0.360858	1.788894	-0.741522	-0.301224	-0.343333	-0.005495	-0.003312	0.003753
599	3.049753	0.005000	9.176878	-0.319202	1.726560	-0.741412	-0.301114	-0.343333	-0.010592	-0.002507	0.000201
600	3.054753	0.005000	9.244151	-0.313920	1.690618	-0.741302	-0.301003	-0.343333	-0.009759	-0.003708	0.009062
601	3.059753	0.005000	8.988761	-0.237307	1.765800	-0.741191	-0.300893	-0.343333	-0.019245	0.006279	0.000571
602	3.064753	0.005000	9.179225	-0.313920	1.803573	-0.741081	-0.300782	-0.343333	-0.010789	-0.010794	-0.005281
603	3.069753	0.005000	9.264068	-0.281536	1.801612	-0.740970	-0.300672	-0.343333	-0.016777	-0.009530	0.005899
604	3.074753	0.005000	9.260640	-0.274680	1.759967	-0.740860	-0.300561	-0.343333	-0.010831	0.002802	0.000571
605	3.079753	0.005000	9.314659	-0.227286	1.813194	-0.740750	-0.300451	-0.343333	-0.009128	-0.001943	0.009890
606	3.084753	0.005000	9.270833	-0.245633	1.881990	-0.740639	-0.300340	-0.343333	-0.022220	0.002006	0.002925
607	3.089753	0.005000	9.207361	-0.327959	1.765800	-0.740529	-0.300230	-0.343333	-0.013237	-0.002241	0.010166
608	3.094753	0.005000	9.216121	-0.299080	1.765800	-0.740418	-0.300119	-0.343333	-0.015607	-0.001585	0.007835
609	3.099753	0.005000	9.277597	-0.313920	1.709603	-0.740308	-0.300009	-0.343333	-0.009134	0.000402	0.005405
610	3.104753	0.005000	9.142920	-0.333793	1.726560	-0.740299	-0.300102	-0.343446	-0.010414	-0.003167	0.007330
611	3.109753	0.005000	9.103680	-0.331634	1.669606	-0.740299	-0.300212	-0.343570	-0.011508	-0.006948	0.000130
612	3.114753	0.005000	9.158445	-0.353160	1.726560	-0.740299	-0.300322	-0.343693	-0.006980	-0.010209	0.000407
613	3.119753	0.005000	9.156036	-0.287796	1.857396	-0.740299	-0.300433	-0.343816	-0.005817	-0.003979	-0.003320
614	3.124753	0.005000	9.199314	-0.324963	1.833237	-0.740299	-0.300543	-0.343940	-0.009473	-0.016662	0.003868
615	3.129753	0.005000	9.169192	-0.322677	1.813797	-0.740299	-0.300654	-0.344063	-0.018322	-0.008651	0.007430
616	3.134753	0.005000	9.182160	-0.386049	1.837929	-0.740299	-0.300764	-0.344187	-0.009963	-0.001802	-0.001270
617	3.139753	0.005000	9.112393	-0.388043	1.839923	-0.740299	-0.300875	-0.344310	-0.003108	-0.011287	0.010146
618	3.144753	0.005000	9.182160	-0.315910	1.720589	-0.740299	-0.300985	-0.344433	-0.007762	0.000269	-0.006649
619	3.149753	0.005000	9.220992	-0.353160	1.802998	-0.740299	-0.301096	-0.344557	-0.008836	-0.011264	-0.000011
620	3.154753	0.005000	9.145278	-0.353160	1.954927	-0.740299	-0.301206	-0.344680	-0.003550	0.000344	-0.003303
621	3.159753	0.005000	9.147695	-0.244990	1.770575	-0.740299	-0.301317	-0.344803	-0.006442	-0.001555	-0.002304
622	3.164753	0.005000	9.228495	-0.274680	1.733655	-0.740299	-0.301427	-0.344927	-0.007169	-0.008017	0.004055
623	3.169753	0.005000	9.161170	-0.274680	1.786790	-0.740254	-0.301493	-0.344800	-0.010781	-0.000544	0.000019
624	3.174753	0.005000	9.170621	-0.353160	1.777339	-0.740144	-0.301493	-0.344307	-0.008168	-0.009513	0.003349
625	3.179753	0.005000	9.182160	-0.364838	1.805040	-0.740033	-0.301493	-0.343813	-0.015789	-0.005089	-0.006193
626	3.184753	0.005000	9.056984	-0.376508	1.734996	-0.739923	-0.301493	-0.343320	-0.013420	-0.012962	-0.006013
627	3.189753	0.005000	9.145569	-0.334864	1.747504	-0.739812	-0.301493	-0.342826	-0.005389	-0.003683	0.003045
628	3.194753	0.005000	9.144614	-0.274680	1.649774	-0.739702	-0.301493	-0.342333	-0.003429	-0.005918	-0.003758
629	3.199753	0.005000	9.114209	-0.375810	1.726560	-0.739591	-0.301493	-0.341840	-0.012998	-0.007830	0.012875
630	3.204753	0.005000	9.106972	-0.328097	1.726560	-0.739481	-0.301493	-0.341346	-0.015137	-0.002169	-0.005742
631	3.209753	0.005000	9.182160	-0.328987	1.735667	-0.739370	-0.301493	-0.340853	-0.012990	-0.012178	0.001865
632	3.214753	0.005000	9.182160	-0.264916	1.854105	-0.739260	-0.301493	-0.340360	-0.015831	0.001179	0.011794
633	3.219753	0.005000	9.142920	-0.384990	1.844280	-0.739149	-0.301493	-0.339866	-0.011951	-0.006880	0.003002
634	3.224753	0.005000	9.187560	-0.313920	1.833479	-0.739039	-0.301493	-0.339373	-0.008226	-0.013437	0.008032
635	3.229753	0.005000	9.215349	-0.274680	1.802015	-0.738928	-0.301493	-0.338879	-0.017404	0.008494	-0.009701
636	3.234753	0.005000	9.298594	-0.274680	1.687320	-0.738818	-0.301493	-0.338386	-0.008061	-0.009992	0.001691
637	3.239753	0.005000	9.221400	-0.349681	1.724820	-0.739003	-0.301591	-0.338993	-0.016095	-0.007021	0.000333
638	3.244753	0.005000	9.370950	-0.282090	1.730265	-0.739224	-0.301702	-0.339733	-0.006034	-0.011360	-0.003066
639	3.249753	0.005000	9.115782	-0.313920	1.798989	-0.739445	-0.301812	-0.340472	-0.012284	-0.001276	0.008608
640	3.254753	0.005000	9.142920	-0.361225	1.805040	-0.739665	-0.301923	-0.341212	-0.015864	0.000962	-0.000391
641	3.259753	0.005000	9.150744	-0.342688	1.823336	-0.739886	-0.302033	-0.341952	-0.017815	-0.011078	0.009184
642	3.264753	0.005000	9.155796	-0.392400	1.766412	-0.740107	-0.302143	-0.342692	-0.019738	-0.006423	-0.000694
643	3.269753	0.005000	9.158032	-0.353160	1.756784	-0.740328	-0.302254	-0.343431	-0.011405	-0.018532	0.000093
644	3.274753	0.005000	9.204167	-0.313920	1.814590	-0.740549	-0.302364	-0.344171	-0.014978	-0.008631	0.011041
645	3.279753	0.005000	9.201757	-0.353160	1.805086	-0.740769	-0.302474	-0.344911	-0.014433	-0.002266	0.006665
646	3.284753	0.005000	9.239053	-0.335507	1.887455	-0.740990	-0.302585	-0.345650	-0.007398	-0.007771	0.003868
647	3.289753	0.005000	9.142920	-0.313920	1.696074	-0.741211	-0.302695	-0.346390	-0.009210	-0.009713	-0.004152
648	3.294753	0.005000	9.169014	-0.287826	1.674174	-0.741432	-0.302805	-0.347130	-0.008575	-0.013771	0.009246
649	3.299753	0.005000	9.164431	-0.324675	1.805040	-0.741653	-0.302916	-0.347869	-0.011181	-0.017381	0.002461
650	3.304753	0.005000	9.243683	-0.291637	1.743517	-0.741791	-0.302903	-0.348241	-0.003103	-0.017715	-0.001783
651	3.309753	0.005000	9.169241	-0.274680	1.733019	-0.741791	-0.302682	-0.347994	-0.007988	-0.004317	0.000988
652	3.314753	0.005000	9.091325	-0.313920	1.800922	-0.741791	-0.302461	-0.347748	-0.011901	0.005476	-0.007409
653	3.319753	0.005000	9.105394	-0.353160	1.883520	-0.741791	-0.302240	-0.347501	-0.004276	-0.006516	0.003258
654	3.324753	0.005000	9.103910	-0.353160	1.805499	-0.741791	-0.302019	-0.347254	-0.017810	0.004815	-0.004546
655	3.329753	0.005000	9.145537	-0.238057	1.880903	-0.741791	-0.301798	-0.347008	-0.006889	-0.014957	-0.012998
656	3.334753	0.005000	9.108258	-0.265525	1.774955	-0.741791	-0.301577	-0.346761	-0.015185	-0.015513	0.005717
657	3.339753	0.005000	9.135926	-0.274680	1.858268	-0.741791	-0.301356	-0.346514	-0.017738	-0.006124	-0.003322
658	3.344753	0.005000	9.152208	-0.313920	1.705896	-0.741791	-0.301135	-0.346268	-0.020603	-0.024208	0.015523
659	3.349753	0.005000	9.137715	-0.297370	1.670770	-0.741791	-0.300915	-0.346021	-0.010770	-0.014807	-0.005395
660	3.354753	0.005000	9.209677	-0.249198	1.750006	-0.741791	-0.300694	-0.345774	-0.012014	-0.009568	-0.006349
661	3.359753	0.005000	9.166186	-0.274680	1.765800	-0.741791	-0.300473	-0.345528	-0.010537	-0.007331	0.004185
662	3.364753	0.005000	9.145936	-0.356176	1.805040	-0.741791	-0.300252	-0.345281	-0.010653	-0.006361	-0.000117
663	3.369753	0.005000	9.083157	-0.411117	1.704231	-0.741791	-0.300031	-0.345035	-0.007836	-0.010125	0.003314
664	3.374753	0.005000	9.192658	-0.375821	1.782379	-0.741601	-0.300000	-0.345000	-0.011396	-0.016164	-0.006248
665	3.379753	0.005000	9.221400	-0.313920	1.780161	-0.741380	-0.300000	-0.345000	-0.010339	-0.017863	0.008736
666	3.384753	0.005000	9.139538	-0.301967	1.789705	-0.741159	-0.300000	-0.345000	-0.014659	-0.007422	-0.005646
667	3.389753	0.005000	9.221400	-0.313920	1.697213	-0.740938	-0.300000	-0.345000	-0.007060	-0.017138	0.002239
668	3.394753	0.005000	9.236588	-0.274680	1.734154	-0.740717	-0.300000	-0.345000	-0.022576	-0.006045	0.001902
669	3.399753	0.005000	9.294692	-0.274680	1.697696	-0.740497	-0.300000	-0.345000	-0.010098	-0.007424	-0.010105
670	3.404753	0.005000	9.251019	-0.235440	1.700148	-0.740276	-0.300000	-0.345000	-0.003716	-0.013406	0.012604
671	3.409753	0.005000	9.144603	-0.313920	1.878470	-0.740055	-0.300000	-0.345000	-0.015031	-0.009042	0.013067
672	3.414753	0.005000	9.221400	-0.276238	1.685762	-0.739834	-0.300000	-0.345000	-0.007098	-0.013112	-0.001768
673	3.419753	0.005000	9.221400	-0.274680	1.794480	-0.739613	-0.300000	-0.345000	-0.013515	-0.001223	0.001530
674	3.424753	0.005000	9.215475	-0.374625	1.726560	-0.739392	-0.300000	-0.345000	-0.008553	-0.005700	-0.003361
675	3.429753	0.005000	9.190404	-0.454391	1.749311	-0.739171	-0.300000	-0.345000	-0.011478	-0.002841	0.000213
676	3.434753	0.005000	9.171876	-0.334489	1.736844	-0.738950	-0.300000	-0.345000	-0.016076	0.001242	-0.004276
677	3.439753	0.005000	9.208708	-0.301228	1.634224	-0.739304	-0.300383	-0.344230	-0.005879	-0.007686	0.007898
678	3.444753	0.005000	9.167229	-0.289611	1.638701	-0.740739	-0.301487	-0.342011	-0.007544	-0.010366	0.005500
679	3.449753	0.005000	9.148062	-0.296871	1.631031	-0.742174	-0.302591	-0.339792	-0.009826	-0.014885	0.007863
680	3.454753	0.005000	9.162701	-0.313920	1.667861	-0.743609	-0.303695	-0.337573	-0.010213	-0.007072	0.002912
681	3.459753	0.005000	9.221400	-0.353160	1.744183	-0.745045	-0.304799	-0.335354	-0.017141	-0.007021	0.002474
682	3.464753	0.005000	9.190547	-0.376973	1.781227	-0.746480	-0.305903	-0.333135	-0.007060	-0.009440	0.014915
683	3.469753	0.005000	9.156133	-0.287694	1.752786	-0.747915	-0.307007	-0.330916	-0.017506	0.005406	0.002644
684	3.474753	0.005000	9.114286	-0.274680	1.787012	-0.749350	-0.308111	-0.328697	-0.010883	-0.009206	0.009945
685	3.479753	0.005000	9.103680	-0.244002	1.892082	-0.750785	-0.309215	-0.326478	-0.017289	-0.002196	-0.002506
686	3.484753	0.005000	9.167958	-0.307661	1.772059	-0.752221	-0.310319	-0.324259	-0.009565	-0.010039	0.009473
687	3.489753	0.005000	9.217557	-0.278523	1.769643	-0.753656	-0.311423	-0.322040	-0.010385	-0.007266	0.004974
688	3.494753	0.005000	9.184058	-0.351262	1.803142	-0.755091	-0.312527	-0.319821	-0.015100	-0.009499	-0.002407
689	3.499753	0.005000	9.221400	-0.352661	1.765800	-0.756526	-0.313631	-0.317602	-0.012577	-0.010582	0.004668
690	3.504753	0.005000	9.221400	-0.316370	1.729010	-0.757962	-0.314735	-0.315383	-0.012547	0.001727	0.001733
691	3.509753	0.005000	9.265507	-0.348293	1.765800	-0.757203	-0.314559	-0.315511	-0.002922	-0.012975	-0.000133
692	3.514753	0.005000	9.196531	-0.321105	1.869149	-0.755988	-0.314117	-0.316128	-0.015286	-0.012447	-0.000090
693	3.519753	0.005000	9.191377	-0.293113	1.735777	-0.754772	-0.313675	-0.316744	-0.015832	-0.004520	-0.007119
694	3.524753	0.005000	9.115311	-0.353160	1.687320	-0.753557	-0.313233	-0.317361	-0.004448	-0.005272	0.006877
695	3.529753	0.005000	9.103680	-0.327792	1.749553	-0.752341	-0.312791	-0.317978	-0.015955	0.000859	0.004040
696	3.534753	0.005000	9.195593	-0.336898	1.860542	-0.751126	-0.312349	-0.318595	-0.015362	-0.012030	0.004576
697	3.539753	0.005000	9.161316	-0.311471	1.763351	-0.749910	-0.311907	-0.319212	-0.010655	0.008533	0.007859
698	3.544753	0.005000	9.198220	-0.295487	1.726560	-0.748695	-0.311465	-0.319829	-0.010470	-0.001715	-0.001157
699	3.549753	0.005000	9.182160	-0.235440	1.749508	-0.747479	-0.311023	-0.320446	-0.009798	-0.005356	0.006367
700	3.554753	0.005000	9.207315	-0.274680	1.765800	-0.746264	-0.310581	-0.321063	-0.010462	0.001504	0.002541
701	3.559753	0.005000	9.209723	-0.341483	1.781686	-0.745048	-0.310139	-0.321680	-0.007389	-0.013907	-0.000209
702	3.564753	0.005000	9.162918	-0.353160	1.726560	-0.743833	-0.309697	-0.322297	-0.001130	0.000448	-0.005221
703	3.569753	0.005000	9.125635	-0.338523	1.655398	-0.742617	-0.309255	-0.322914	0.002951	-0.000648	0.001974
704	3.574753	0.005000	9.157658	-0.318833	1.721647	-0.741933	-0.309167	-0.322780	-0.000049	-0.010649	0.006811
705	3.579753	0.005000	9.152902	-0.313920	1.721569	-0.742374	-0.309830	-0.321053	-0.012719	-0.003250	-0.000435
706	3.584753	0.005000	9.299880	-0.274680	1.686231	-0.742816	-0.310493	-0.319326	-0.007765	-0.017201	0.005607
707	3.589753	0.005000	9.337267	-0.274680	1.758390	-0.743258	-0.311155	-0.317600	-0.007985	-0.005919	-0.002408
708	3.594753	0.005000	9.225620	-0.239660	1.735001	-0.743700	-0.311818	-0.315873	-0.006792	-0.007585	-0.000175
709	3.599753	0.005000	9.188374	-0.307706	1.726560	-0.744142	-0.312481	-0.314146	-0.017202	-0.000627	-0.001482
710	3.604753	0.005000	9.243401	-0.283300	1.765800	-0.744583	-0.313143	-0.312420	-0.010144	-0.005104	0.001133
711	3.609753	0.005000	9.232307	-0.320440	1.844280	-0.745025	-0.313806	-0.310693	-0.005645	-0.006277	0.010268
712	3.614753	0.005000	9.260946	-0.326898	1.804734	-0.745467	-0.314469	-0.308966	-0.007723	0.002852	-0.005824
713	3.619753	0.005000	9.221400	-0.329307	1.851200	-0.745909	-0.315131	-0.307240	-0.003913	-0.012714	0.001150
714	3.624753	0.005000	9.203807	-0.313920	1.769854	-0.746350	-0.315794	-0.305513	-0.012837	-0.002932	-0.003881
715	3.629753	0.005000	9.221400	-0.353160	1.824545	-0.746792	-0.316457	-0.303786	-0.012249	-0.005675	-0.001912
716	3.634753	0.005000	9.165065	-0.313920	1.849330	-0.747234	-0.317120	-0.302060	-0.015357	0.001587	0.000775
717	3.639753	0.005000	9.227088	-0.353160	1.814328	-0.747676	-0.317782	-0.300333	-0.017410	0.001662	-0.007925
718	3.644753	0.005000	9.208662	-0.339396	1.765800	-0.747850	-0.316929	-0.302390	-0.013272	-0.005213	0.003234
719	3.649753	0.005000	9.103680	-0.382070	1.813289	-0.747961	-0.315713	-0.305352	-0.013374	0.006231	-0.006338
720	3.654753	0.005000	9.173870	-0.235440	1.805040	-0.748071	-0.314498	-0.308313	-0.015635	-0.017991	0.006794
721	3.659753	0.005000	9.070411	-0.319891	1.765800	-0.748182	-0.313283	-0.311275	-0.012290	-0.004810	0.009682
722	3.664753	0.005000	9.068006	-0.428074	1.701584	-0.748292	-0.312067	-0.314236	-0.018426	-0.000297	-0.004636
723	3.669753	0.005000	9.104828	-0.315068	1.922760	-0.748403	-0.310852	-0.317198	-0.017539	-0.010905	0.005968
724	3.674753	0.005000	9.219808	-0.353160	1.884316	-0.748513	-0.309636	-0.320159	-0.023266	-0.012197	-0.000963
725	3.679753	0.005000	9.185360	-0.317120	1.765800	-0.748624	-0.308421	-0.323120	-0.016090	-0.016731	0.006833
726	3.684753	0.005000	9.294328	-0.386848	1.838728	-0.748735	-0.307205	-0.326082	-0.022397	-0.007033	-0.000986
727	3.689753	0.005000	9.260640	-0.392400	1.836720	-0.748845	-0.305990	-0.329043	-0.013310	-0.016057	0.000799
728	3.694753	0.005000	9.162854	-0.392400	1.766428	-0.748956	-0.304774	-0.332005	-0.011396	-0.012670	0.007646
729	3.699753	0.005000	9.182160	-0.286918	1.724034	-0.749066	-0.303559	-0.334966	-0.010423	-0.009457	-0.001015
730	3.704753	0.005000	9.132310	-0.328235	1.776410	-0.749177	-0.302344	-0.337928	-0.007516	-0.014648	0.007021
731	3.709753	0.005000	9.103680	-0.336432	1.777370	-0.749121	-0.301360	-0.340185	-0.013703	0.004045	-0.003962
732	3.714753	0.005000	9.162058	-0.293818	1.823213	-0.748680	-0.300918	-0.340802	-0.007216	-0.012765	-0.000749
733	3.719753	0.005000	9.121621	-0.331861	1.687320	-0.748238	-0.300477	-0.341418	-0.010996	-0.006433	-0.004558
734	3.724753	0.005000	9.064440	-0.329668	1.781548	-0.747796	-0.300035	-0.342035	-0.007375	-0.005608	-0.005819
735	3.729753	0.005000	9.195495	-0.353160	1.883520	-0.747354	-0.299593	-0.342652	-0.012112	-0.012649	0.010393
736	3.734753	0.005000	9.170905	-0.325175	1.799564	-0.746912	-0.299151	-0.343268	-0.017274	-0.004518	-0.004176
737	3.739753	0.005000	9.182160	-0.313920	1.944033	-0.746471	-0.298709	-0.343885	-0.016150	-0.008391	0.009515
738	3.744753	0.005000	9.175592	-0.385832	1.844280	-0.746029	-0.298267	-0.344502	-0.016916	-0.014115	0.001305
739	3.749753	0.005000	9.133783	-0.318488	1.865246	-0.745587	-0.297825	-0.345118	-0.009019	-0.011511	-0.002582
740	3.754753	0.005000	9.147358	-0.396838	1.800602	-0.745145	-0.297384	-0.345735	-0.010675	-0.004455	0.005399
741	3.759753	0.005000	9.260443	-0.392793	1.687517	-0.744703	-0.296942	-0.346352	-0.012624	-0.004653	-0.008775
742	3.764753	0.005000	9.070868	-0.316063	1.839995	-0.744262	-0.296500	-0.346968	-0.008203	-0.006545	0.003535
743	3.769753	0.005000	9.177613	-0.348613	1.830639	-0.743820	-0.296058	-0.347585	-0.024113	0.000906	-0.004276
744	3.774753	0.005000	9.311588	-0.288446	1.765800	-0.743378	-0.295616	-0.348202	-0.015543	-0.005110	-0.000063
745	3.779753	0.005000	9.169606	-0.296130	1.826490	-0.743110	-0.296130	-0.348042	-0.011856	-0.006235	0.014879
746	3.784753	0.005000	9.114990	-0.274680	1.760489	-0.742889	-0.296904	-0.347672	-0.009383	-0.006798	-0.013056
747	3.789753	0.005000	9.090126	-0.196200	1.805040	-0.742668	-0.297677	-0.347302	-0.003421	-0.011812	0.000683
748	3.794753	0.005000	9.095933	-0.251102	1.773715	-0.742447	-0.298450	-0.346932	-0.015539	-0.007688	-0.016142
749	3.799753	0.005000	9.221400	-0.335086	1.741543	-0.742227	-0.299223	-0.346562	-0.014565	-0.015165	0.009904
750	3.804753	0.005000	9.144160	-0.274680	1.707560	-0.742006	-0.299996	-0.346192	-0.018182	-0.003866	0.000830
751	3.809753	0.005000	9.131682	-0.235440	1.866709	-0.741785	-0.300770	-0.345822	-0.017470	0.000998	0.003112
752	3.814753	0.005000	9.250203	-0.249841	1.751399	-0.741564	-0.301543	-0.345452	-0.010380	0.003829	0.007156
753	3.819753	0.005000	9.236013	-0.247754	1.660394	-0.741343	-0.302316	-0.345082	-0.004276	-0.003432	-0.008147
754	3.824753	0.005000	9.182160	-0.313920	1.784953	-0.741122	-0.303089	-0.344712	-0.003966	-0.020960	0.000685
755	3.829753	0.005000	9.252638	-0.353160	1.687320	-0.740901	-0.303862	-0.344342	-0.008125	-0.009683	-0.005891
756	3.834753	0.005000	9.266333	-0.347467	1.726560	-0.740680	-0.304635	-0.343972	-0.010593	-0.019787	0.009561
757	3.839753	0.005000	9.254087	-0.277956	1.808316	-0.740459	-0.305409	-0.343602	-0.011878	0.003533	0.008590
758	3.844753	0.005000	9.297248	-0.313920	1.841648	-0.740269	-0.305879	-0.343367	-0.024542	-0.006060	0.009601
759	3.849753	0.005000	9.221400	-0.390257	1.727632	-0.740158	-0.305548	-0.343490	-0.013922	0.001801	0.007832
760	3.854753	0.005000	9.224834	-0.281548	1.765800	-0.740048	-0.305217	-0.343613	-0.017367	0.002831	-0.004376
761	3.859753	0.005000	9.215980	-0.207040	1.687320	-0.739937	-0.304885	-0.343737	-0.004178	-0.007166	0.004161
762	3.864753	0.005000	9.150756	-0.306084	1.797204	-0.739827	-0.304554	-0.343860	-0.008031	-0.009432	0.005120
763	3.869753	0.005000	9.230280	-0.343040	1.745560	-0.739716	-0.304223	-0.343984	-0.008987	-0.009289	0.000737
764	3.874753	0.005000	9.155107	-0.301733	1.832093	-0.739606	-0.303891	-0.344107	-0.010829	-0.001833	0.011357
765	3.879753	0.005000	9.236000	-0.289280	1.790440	-0.739495	-0.303560	-0.344230	-0.015167	-0.004807	0.004559
766	3.884753	0.005000	9.238206	-0.381221	1.732187	-0.739385	-0.303229	-0.344354	-0.018989	-0.010825	0.006161
767	3.889753	0.005000	9.161874	-0.392400	1.846944	-0.739274	-0.302898	-0.344477	-0.014029	-0.000352	-0.008587
768	3.894753	0.005000	9.185649	-0.335285	1.844280	-0.739164	-0.302566	-0.344600	-0.006817	-0.008139	-0.002961
769	3.899753	0.005000	9.229145	-0.313920	1.844280	-0.739053	-0.302235	-0.344724	-0.006309	0.000423	0.000381
770	3.904753	0.005000	9.196349	-0.288037	1.791683	-0.738943	-0.301904	-0.344847	-0.009444	-0.001433	-0.006861
771	3.909753	0.005000	9.188067	-0.359067	1.776911	-0.738832	-0.301572	-0.344970	-0.004147	-0.004312	0.009774
772	3.914753	0.005000	9.121072	-0.331312	1.748408	-0.739058	-0.301913	-0.344719	-0.015524	-0.006262	0.002595
773	3.919753	0.005000	9.233633	-0.385648	1.700824	-0.739389	-0.302465	-0.344349	-0.006073	-0.011571	0.007931
774	3.924753	0.005000	9.116724	-0.348812	1.726560	-0.739721	-0.303017	-0.343979	-0.010086	-0.002532	0.001826
775	3.929753	0.005000	9.221400	-0.313920	1.615965	-0.740052	-0.303570	-0.343609	-0.005845	-0.012023	0.003665
776	3.934753	0.005000	9.221400	-0.392400	1.726560	-0.740384	-0.304122	-0.343239	-0.010909	-0.008769	0.009759
777	3.939753	0.005000	9.253470	-0.392400	1.765800	-0.740715	-0.304674	-0.342869	-0.021471	0.000744	0.002057
778	3.944753	0.005000	9.221400	-0.313920	1.735283	-0.741046	-0.305226	-0.342499	-0.018301	-0.007563	0.003310
779	3.949753	0.005000	9.221400	-0.392400	1.661614	-0.741378	-0.305778	-0.342129	-0.015864	0.003404	-0.000986
780	3.954753	0.005000	9.221400	-0.304844	1.657156	-0.741709	-0.306331	-0.341759	-0.011954	-0.004879	-0.000885
781	3.959753	0.005000	9.154046	-0.313920	1.833154	-0.742040	-0.306883	-0.341388	-0.008917	-0.013988	-0.001280
782	3.964753	0.005000	9.221400	-0.353160	1.830746	-0.742372	-0.307435	-0.341018	-0.010649	-0.002446	-0.009391
783	3.969753	0.005000	9.134637	-0.376921	1.820519	-0.742703	-0.307987	-0.340648	-0.010274	-0.015833	0.006180
784	3.974753	0.005000	9.125029	-0.413749	1.808499	-0.743035	-0.308539	-0.340278	-0.011902	0.004034	0.005298
785	3.979753	0.005000	9.279821	-0.371464	1.825099	-0.743229	-0.308764	-0.340153	-0.003870	-0.011920	0.001619
786	3.984753	0.005000	9.204406	-0.370154	1.765800	-0.743008	-0.307991	-0.340769	-0.006978	0.001781	0.008412
787	3.989753	0.005000	9.260640	-0.323990	1.711975	-0.742788	-0.307217	-0.341386	-0.006755	-0.004495	-0.000647
788	3.994753	0.005000	9.221400	-0.313920	1.702217	-0.742567	-0.306444	-0.342003	-0.008070	-0.005396	0.005831
789	3.999753	0.005000	9.182160	-0.313920	1.716440	-0.742346	-0.305671	-0.342619	-0.007722	-0.005459	-0.012655
790	4.004753	0.005000	9.221400	-0.321744	1.836456	-0.742125	-0.304898	-0.343236	-0.008784	-0.015110	0.009216
791	4.009753	0.005000	9.289045	-0.313920	1.737395	-0.741904	-0.304125	-0.343852	-0.013549	-0.005536	-0.001943
792	4.014753	0.005000	9.251638	-0.356161	1.771802	-0.741683	-0.303352	-0.344469	-0.010701	-0.013128	0.002937
793	4.019753	0.005000	9.221400	-0.391356	1.920672	-0.741462	-0.302578	-0.345086	-0.016036	-0.002668	0.009923
794	4.024753	0.005000	9.297185	-0.315267	1.692709	-0.741241	-0.301805	-0.345702	-0.013902	0.002769	-0.001279
795	4.029753	0.005000	9.189603	-0.353160	1.793876	-0.741020	-0.301032	-0.346319	-0.004669	-0.007187	0.004401
796	4.034753	0.005000	9.103680	-0.313920	1.648080	-0.740800	-0.300259	-0.346936	-0.011879	0.000611	-0.009896
797	4.039753	0.005000	9.157817	-0.235440	1.780697	-0.740579	-0.299486	-0.347552	-0.011623	-0.007997	0.006609
798	4.044753	0.005000	9.221400	-0.313920	1.697728	-0.740358	-0.298713	-0.348169	-0.017356	-0.005493	0.009109
799	4.049753	0.005000	9.182160	-0.326393	1.765800	-0.740299	-0.298345	-0.347790	-0.013171	-0.009535	0.008342
800	4.054753	0.005000	9.245759	-0.353160	1.805040	-0.740299	-0.298124	-0.347050	-0.014187	-0.004827	0.004941
801	4.059753	0.005000	9.299880	-0.308868	1.753759	-0.740299	-0.297903	-0.346310	-0.020948	-0.002824	-0.005351
802	4.064753	0.005000	9.221400	-0.234675	1.785803	-0.740299	-0.297682	-0.345570	-0.004753	-0.011867	0.004557
803	4.069753	0.005000	9.221400	-0.231383	1.809097	-0.740299	-0.297461	-0.344830	-0.004154	-0.001973	-0.005730
804	4.074753	0.005000	9.197635	-0.266390	1.812225	-0.740299	-0.297240	-0.344090	0.000287	-0.011198	0.001853
805	4.079753	0.005000	9.129677	-0.366403	1.739803	-0.740299	-0.297019	-0.343350	-0.014446	-0.001131	0.005795
806	4.084753	0.005000	9.025200	-0.420476	1.872356	-0.740299	-0.296799	-0.342609	-0.016730	-0.005578	-0.000138
807	4.089753	0.005000	9.103680	-0.374617	1.817605	-0.740299	-0.296578	-0.341869	-0.013865	-0.007857	0.014624
808	4.094753	0.005000	9.103680	-0.353160	1.798564	-0.740299	-0.296357	-0.341129	-0.020239	0.007677	-0.006349
809	4.099753	0.005000	9.177682	-0.318398	1.909327	-0.740299	-0.296136	-0.340389	-0.012736	-0.011060	0.001272
810	4.104753	0.005000	9.223527	-0.318175	1.765800	-0.740299	-0.295915	-0.339649	-0.007681	-0.008392	0.001163
811	4.109753	0.005000	9.143782	-0.470305	1.843705	-0.740299	-0.295694	-0.338909	-0.017843	-0.010079	-0.002992
812	4.114753	0.005000	9.182160	-0.316154	1.846514	-0.740250	-0.295595	-0.338442	-0.011439	-0.005757	0.008544
813	4.119753	0.005000	9.152198	-0.427001	1.825724	-0.740029	-0.295927	-0.338936	-0.018021	-0.002333	0.004773
814	4.124753	0.005000	9.228374	-0.320894	1.765800	-0.739808	-0.296258	-0.339429	-0.009204	-0.007260	0.013981
815	4.129753	0.005000	9.142920	-0.283679	1.717561	-0.739587	-0.296589	-0.339922	-0.016085	0.006655	0.007095
816	4.134753	0.005000	9.103680	-0.330620	1.754530	-0.739366	-0.296921	-0.340416	-0.016680	0.000020	0.000803
817	4.139753	0.005000	9.168810	-0.379050	1.792501	-0.739145	-0.297252	-0.340909	-0.021417	-0.005392	0.007654
818	4.144753	0.005000	9.150652	-0.345428	1.852012	-0.738924	-0.297584	-0.341402	-0.013378	-0.006116	-0.004146
819	4.149753	0.005000	9.203234	-0.377142	1.744726	-0.738703	-0.297915	-0.341896	-0.008310	-0.008981	0.006835
820	4.154753	0.005000	9.163251	-0.334251	1.765800	-0.738482	-0.298246	-0.342389	-0.018109	-0.005428	-0.004772
821	4.159753	0.005000	9.198879	-0.257961	1.821759	-0.738261	-0.298578	-0.342882	-0.002927	0.001011	0.012905
822	4.164753	0.005000	9.192781	-0.249749	1.790731	-0.738040	-0.298909	-0.343376	-0.010192	0.009510	-0.001085
823	4.169753	0.005000	9.233623	-0.259886	1.699543	-0.737819	-0.299240	-0.343869	-0.016530	-0.000290	-0.015932
824	4.174753	0.005000	9.172775	-0.294583	1.716608	-0.737598	-0.299572	-0.344363	-0.014354	-0.015379	0.004276
825	4.179753	0.005000	9.339120	-0.313920	1.719015	-0.737378	-0.299903	-0.344856	-0.009680	-0.012117	-0.002369
826	4.184753	0.005000	9.316974	-0.392400	1.765800	-0.737626	-0.300391	-0.344039	-0.012987	-0.012777	0.003232
827	4.189753	0.005000	9.178975	-0.392400	1.768985	-0.738068	-0.300943	-0.342683	-0.016116	0.004122	-0.003961
828	4.194753	0.005000	9.220619	-0.353160	1.845061	-0.738510	-0.301496	-0.341326	-0.014023	-0.002718	0.002776
829	4.199753	0.005000	9.106007	-0.391236	1.769291	-0.738951	-0.302048	-0.339969	-0.011966	0.001801	0.005030
830	4.204753	0.005000	9.257059	-0.360322	1.730141	-0.739393	-0.302600	-0.338613	-0.012314	0.003046	-0.000587
831	4.209753	0.005000	9.148835	-0.386485	1.787296	-0.739835	-0.303152	-0.337256	-0.010000	-0.004883	0.008851
832	4.214753	0.005000	9.268571	-0.376952	1.695251	-0.740277	-0.303705	-0.335899	-0.009364	-0.003615	0.006159
833	4.219753	0.005000	9.221400	-0.363494	1.794706	-0.740719	-0.304257	-0.334543	-0.010582	-0.016053	0.012664
834	4.224753	0.005000	9.206718	-0.326199	1.687320	-0.741161	-0.304809	-0.333186	-0.011296	-0.008705	0.000946
835	4.229753	0.005000	9.260640	-0.363016	1.751108	-0.741603	-0.305361	-0.331829	-0.022388	0.002326	0.003971
836	4.234753	0.005000	9.232851	-0.319366	1.760354	-0.742044	-0.305914	-0.330473	-0.008909	-0.011336	0.008677
837	4.239753	0.005000	9.182160	-0.353160	1.844280	-0.742486	-0.306466	-0.329116	-0.016776	-0.000163	-0.012805
838	4.244753	0.005000	9.203368	-0.335128	1.847457	-0.742928	-0.307018	-0.327759	-0.010692	-0.016743	0.000627
839	4.249753	0.005000	9.166320	-0.329760	1.860120	-0.743542	-0.307549	-0.326331	-0.014594	-0.005105	0.005884
840	4.254753	0.005000	9.142920	-0.313920	1.882479	-0.744868	-0.307991	-0.324604	-0.009312	-0.009363	-0.001442
841	4.259753	0.005000	9.075785	-0.341815	1.860829	-0.746193	-0.308433	-0.322877	-0.018706	-0.005845	0.006555
842	4.264753	0.005000	9.142920	-0.344085	1.717485	-0.747518	-0.308874	-0.321150	-0.016570	-0.011382	-0.008708
843	4.269753	0.005000	9.221400	-0.281729	1.712461	-0.748844	-0.309316	-0.319424	-0.004063	-0.010202	-0.001831
844	4.274753	0.005000	9.216684	-0.353160	1.710898	-0.750169	-0.309758	-0.317697	-0.008863	0.005741	-0.004744
845	4.279753	0.005000	9.219089	-0.309298	1.768111	-0.751494	-0.310200	-0.315970	-0.012451	-0.008047	-0.002345
846	4.284753	0.005000	9.104406	-0.275406	1.726560	-0.752820	-0.310642	-0.314243	-0.014194	-0.008324	0.009714
847	4.289753	0.005000	9.182160	-0.315956	1.763764	-0.754145	-0.311083	-0.312517	-0.019314	-0.001839	0.001928
848	4.294753	0.005000	9.295478	-0.383596	1.809442	-0.755471	-0.311525	-0.310790	-0.006347	-0.006142	0.011421
849	4.299753	0.005000	9.227797	-0.359557	1.700114	-0.756796	-0.311967	-0.309063	-0.019078	0.001533	-0.003635
850	4.304753	0.005000	9.230203	-0.283483	1.682543	-0.758121	-0.312409	-0.307336	-0.008412	-0.012781	0.001739
851	4.309753	0.005000	9.221400	-0.274680	1.776888	-0.759447	-0.312851	-0.305610	-0.013744	-0.001936	0.004175
852	4.314753	0.005000	9.103925	-0.313920	1.804795	-0.760772	-0.313292	-0.303883	-0.012483	-0.004296	-0.001817
853	4.319753	0.005000	9.103680	-0.290250	1.789470	-0.760290	-0.312680	-0.304931	-0.015973	-0.005503	0.003977
854	4.324753	0.005000	9.142920	-0.296146	1.787266	-0.758964	-0.311575	-0.307275	-0.013153	-0.001391	0.002577
855	4.329753	0.005000	9.122771	-0.274680	1.766859	-0.757638	-0.310470	-0.309620	-0.014859	-0.014233	0.008873
856	4.334753	0.005000	9.165258	-0.297018	1.805040	-0.756312	-0.309365	-0.311964	-0.019404	-0.002689	-0.002299
857	4.339753	0.005000	9.221400	-0.313920	1.825548	-0.754986	-0.308260	-0.314309	-0.015851	-0.008632	0.009654
858	4.344753	0.005000	9.103680	-0.379996	1.805040	-0.753660	-0.307155	-0.316653	-0.017503	-0.001987	0.001471
859	4.349753	0.005000	9.172025	-0.382265	1.834145	-0.752334	-0.306050	-0.318998	-0.013616	-0.002974	0.002168
860	4.354753	0.005000	9.174431	-0.250897	1.710506	-0.751009	-0.304945	-0.321342	-0.011397	-0.008028	0.018489
861	4.359753	0.005000	9.119618	-0.347847	1.726560	-0.749683	-0.303839	-0.323687	-0.009019	-0.001044	-0.001014
862	4.364753	0.005000	9.218018	-0.281444	1.697467	-0.748357	-0.302734	-0.326031	-0.011153	-0.020699	0.011184
863	4.369753	0.005000	9.182160	-0.274680	1.842351	-0.747031	-0.301629	-0.328376	-0.010300	-0.008544	0.004466
864	4.374753	0.005000	9.067378	-0.274680	1.765800	-0.745705	-0.300524	-0.330720	-0.013201	-0.019630	-0.002578
865	4.379753	0.005000	9.103680	-0.313920	1.805040	-0.744379	-0.299419	-0.333064	-0.023150	-0.008334	0.007149
866	4.384753	0.005000	9.137187	-0.353160	1.850013	-0.743323	-0.298526	-0.335107	-0.015711	-0.000172	-0.002761
867	4.389753	0.005000	9.174416	-0.345416	1.844280	-0.743543	-0.298637	-0.335724	-0.004763	-0.012950	0.002872
868	4.394753	0.005000	9.182160	-0.294981	1.912609	-0.743764	-0.298747	-0.336340	-0.008701	-0.001818	-0.001059
869	4.399753	0.005000	9.142920	-0.353160	1.895939	-0.743985	-0.298858	-0.336957	-0.010006	-0.020284	0.008484
870	4.404753	0.005000	9.260640	-0.338652	1.780308	-0.744206	-0.298968	-0.337573	-0.003562	-0.006598	0.007176
871	4.409753	0.005000	9.142920	-0.370078	1.821958	-0.744426	-0.299078	-0.338189	-0.012302	-0.016030	-0.003459
872	4.414753	0.005000	9.240506	-0.333026	1.784906	-0.744647	-0.299189	-0.338806	-0.010665	-0.018929	0.010037
873	4.419753	0.005000	9.218094	-0.331887	1.808346	-0.744868	-0.299299	-0.339422	-0.017812	-0.008086	-0.001726
874	4.424753	0.005000	9.158475	-0.313920	1.781355	-0.745089	-0.299410	-0.340039	-0.010567	-0.011915	-0.003974
875	4.429753	0.005000	9.078051	-0.313920	1.765800	-0.745310	-0.299520	-0.340655	-0.008164	-0.003079	0.006397
876	4.434753	0.005000	9.075647	-0.392400	1.715353	-0.745530	-0.299631	-0.341271	-0.001894	0.000213	0.000452
877	4.439753	0.005000	9.190960	-0.305120	1.726560	-0.745751	-0.299741	-0.341888	-0.005171	-0.003442	0.003241
878	4.444753	0.005000	9.286326	-0.327474	1.733337	-0.745972	-0.299851	-0.342504	-0.005532	-0.007775	-0.007600
879	4.449753	0.005000	9.234720	-0.344280	1.774680	-0.746193	-0.299962	-0.343120	-0.009308	-0.018468	0.003121
880	4.454753	0.005000	9.184195	-0.313920	1.842245	-0.746052	-0.300072	-0.342767	-0.004313	-0.010350	0.005231
881	4.459753	0.005000	9.182069	-0.392400	1.765618	-0.745721	-0.300183	-0.341904	0.003334	-0.006871	0.003737
882	4.464753	0.005000	9.179834	-0.392400	1.687320	-0.745389	-0.300293	-0.341041	-0.009923	-0.003188	0.004518
883	4.469753	0.005000	9.182160	-0.348486	1.726560	-0.745058	-0.300404	-0.340177	-0.012150	-0.000678	-0.008536
884	4.474753	0.005000	9.200207	-0.392400	1.816022	-0.744726	-0.300514	-0.339314	-0.014405	-0.016782	0.004489
885	4.479753	0.005000	9.191251	-0.274680	1.802163	-0.744395	-0.300625	-0.338451	-0.021099	0.002029	-0.001899
886	4.484753	0.005000	9.154418	-0.313920	1.832782	-0.744064	-0.300735	-0.337588	-0.027770	-0.013387	0.005608
887	4.489753	0.005000	9.209661	-0.313920	1.871781	-0.743732	-0.300846	-0.336724	-0.015467	-0.001845	0.012792
888	4.494753	0.005000	9.158775	-0.313920	1.891845	-0.743401	-0.300956	-0.335861	-0.014171	-0.006903	0.000835
889	4.499753	0.005000	9.163895	-0.292945	1.799620	-0.743069	-0.301067	-0.334998	-0.015681	-0.008871	0.003977
890	4.504753	0.005000	9.200963	-0.254243	1.803406	-0.742738	-0.301177	-0.334134	-0.016867	0.003194	-0.003661
891	4.509753	0.005000	9.165533	-0.241426	1.788413	-0.742407	-0.301288	-0.333271	-0.009316	-0.001844	-0.002288
892	4.514753	0.005000	9.167942	-0.260462	1.765800	-0.742075	-0.301398	-0.332408	-0.017631	-0.007170	-0.007980
893	4.519753	0.005000	9.194292	-0.208332	1.726560	-0.741775	-0.301493	-0.331842	-0.012335	-0.006198	0.003021
894	4.524753	0.005000	9.231260	-0.313920	1.795180	-0.741665	-0.301493	-0.333075	-0.011849	-0.005022	0.003530
895	4.529753	0.005000	9.221400	-0.267227	1.954547	-0.741555	-0.301493	-0.334309	-0.017135	-0.008613	-0.012022
896	4.534753	0.005000	9.249621	-0.201710	1.799530	-0.741444	-0.301493	-0.335542	-0.004905	-0.012873	0.007064
897	4.539753	0.005000	9.106773	-0.238533	1.690413	-0.741334	-0.301493	-0.336775	-0.017633	-0.005981	-0.001919
898	4.544753	0.005000	9.142920	-0.312785	1.729964	-0.741223	-0.301493	-0.338009	-0.003803	-0.008755	0.010113
899	4.549753	0.005000	9.104935	-0.198711	1.882265	-0.741113	-0.301493	-0.339242	-0.011674	-0.003014	0.004022
900	4.554753	0.005000	9.214139	-0.271049	1.915499	-0.741002	-0.301493	-0.340475	-0.008909	-0.009353	0.002570
901	4.559753	0.005000	9.109297	-0.280297	1.799423	-0.740892	-0.301493	-0.341709	-0.003781	-0.009346	0.009890
902	4.564753	0.005000	9.142920	-0.274680	1.726560	-0.740782	-0.301493	-0.342942	-0.015713	-0.009274	0.002439
903	4.569753	0.005000	9.211083	-0.313920	1.658397	-0.740671	-0.301493	-0.344175	-0.004473	-0.018239	0.010749
904	4.574753	0.005000	9.248259	-0.340779	1.716276	-0.740561	-0.301493	-0.345409	-0.010996	-0.005146	0.000056
905	4.579753	0.005000	9.142920	-0.402061	1.711770	-0.740450	-0.301493	-0.346642	-0.006120	-0.007265	-0.009621
906	4.584753	0.005000	9.081633	-0.353160	1.721707	-0.740340	-0.301493	-0.347875	-0.008563	-0.008350	0.001623
907	4.589753	0.005000	9.124026	-0.333298	1.785662	-0.740160	-0.301493	-0.348100	-0.012255	-0.004690	-0.000586
908	4.594753	0.005000	9.121372	-0.274680	1.787348	-0.739939	-0.301493	-0.347730	-0.011350	-0.009252	0.003338
909	4.599753	0.005000	9.182160	-0.313920	1.805040	-0.739718	-0.301493	-0.347360	-0.019096	0.010106	-0.004900
910	4.604753	0.005000	9.182160	-0.327255	1.699890	-0.739497	-0.301493	-0.346990	-0.016179	-0.013411	0.000370
911	4.609753	0.005000	9.164774	-0.364087	1.648080	-0.739276	-0.301493	-0.346620	-0.012168	-0.007092	0.002702
912	4.614753	0.005000	9.212416	-0.344176	1.696304	-0.739055	-0.301493	-0.346250	-0.002245	-0.007121	-0.011800
913	4.619753	0.005000	9.103680	-0.287816	1.752664	-0.738834	-0.301493	-0.345880	-0.009900	-0.016620	-0.001612
914	4.624753	0.005000	9.078145	-0.392400	1.652648	-0.738613	-0.301493	-0.345510	-0.016095	-0.003376	-0.006355
915	4.629753	0.005000	9.179941	-0.350941	1.726560	-0.738392	-0.301493	-0.345140	-0.010214	0.002012	0.007624
916	4.634753	0.005000	9.181963	-0.274877	1.726560	-0.738171	-0.301493	-0.344770	-0.012887	0.000071	-0.000041
917	4.639753	0.005000	9.221400	-0.353160	1.798612	-0.737950	-0.301493	-0.344400	-0.012970	-0.001631	-0.002770
918	4.644753	0.005000	9.108227	-0.313920	1.795946	-0.737729	-0.301493	-0.344030	-0.018104	0.003776	0.007082
919	4.649753	0.005000	9.182160	-0.281563	1.747209	-0.737508	-0.301493	-0.343660	-0.015259	-0.001430	-0.001598
920	4.654753	0.005000	9.103680	-0.335370	1.735455	-0.737364	-0.301506	-0.343347	-0.012980	-0.001236	-0.004509
921	4.659753	0.005000	9.198780	-0.274680	1.754490	-0.737806	-0.301616	-0.343471	-0.023745	-0.004021	-0.007169
922	4.664753	0.005000	9.168606	-0.326052	1.806462	-0.738248	-0.301727	-0.343594	-0.016001	-0.019975	0.009219
923	4.669753	0.005000	9.135005	-0.274680	1.812955	-0.738690	-0.301837	-0.343717	-0.021782	-0.004304	0.004706
924	4.674753	0.005000	9.149103	-0.292754	1.783874	-0.739132	-0.301947	-0.343841	-0.009190	-0.007012	-0.006324
925	4.679753	0.005000	9.241640	-0.313920	1.901279	-0.739573	-0.302058	-0.343964	-0.015448	-0.008700	0.006180
926	4.684753	0.005000	9.215781	-0.414829	1.889139	-0.740015	-0.302168	-0.344087	-0.019552	-0.000396	-0.003622
927	4.689753	0.005000	9.334294	-0.323783	1.844280	-0.740457	-0.302279	-0.344211	-0.014803	-0.008905	0.001235
928	4.694753	0.005000	9.287422	-0.326378	1.767667	-0.740899	-0.302389	-0.344334	-0.013264	-0.013014	0.000502
929	4.699753	0.005000	9.201313	-0.333073	1.765800	-0.741341	-0.302499	-0.344458	-0.018453	-0.013626	-0.003459
930	4.704753	0.005000	9.198165	-0.243442	1.789807	-0.741783	-0.302610	-0.344581	-0.013228	-0.008887	0.002326
931	4.709753	0.005000	9.232786	-0.252520	1.793654	-0.742225	-0.302720	-0.344704	-0.009747	-0.008503	-0.006038
932	4.714753	0.005000	9.260640	-0.349454	1.691026	-0.742666	-0.302831	-0.344828	-0.000916	-0.009855	0.006995
933	4.719753	0.005000	9.183492	-0.313920	1.767132	-0.743108	-0.302941	-0.344951	-0.014454	-0.009381	0.001800
934	4.724753	0.005000	9.221400	-0.313920	1.843683	-0.743417	-0.302852	-0.345149	-0.004195	-0.019857	0.006464
935	4.729753	0.005000	9.073485	-0.277695	1.768815	-0.743638	-0.302631	-0.345395	-0.010562	-0.004659	0.000656
936	4.734753	0.005000	9.210560	-0.274680	1.765800	-0.743859	-0.302410	-0.345642	-0.008009	-0.009587	-0.009519
937	4.739753	0.005000	9.189524	-0.321284	1.773164	-0.744080	-0.302189	-0.345889	-0.006109	-0.003277	0.005806
938	4.744753	0.005000	9.211621	-0.382621	1.795261	-0.744301	-0.301968	-0.346135	-0.005249	0.002015	-0.000107
939	4.749753	0.005000	9.206243	-0.329077	1.805040	-0.744522	-0.301747	-0.346382	-0.003336	-0.009251	0.002642
940	4.754753	0.005000	9.157051	-0.302943	1.743845	-0.744742	-0.301527	-0.346628	-0.009932	-0.009465	-0.007180
941	4.759753	0.005000	9.087136	-0.274680	1.732712	-0.744963	-0.301306	-0.346875	-0.009911	-0.011287	-0.003310
942	4.764753	0.005000	9.122167	-0.274680	1.784287	-0.745184	-0.301085	-0.347122	-0.013502	-0.012483	-0.002297
943	4.769753	0.005000	9.046098	-0.274680	1.763243	-0.745405	-0.300864	-0.347368	-0.020820	-0.007737	-0.001510
944	4.774753	0.005000	9.025200	-0.274680	1.726560	-0.745626	-0.300643	-0.347615	-0.016592	-0.012429	0.002226
945	4.779753	0.005000	9.129094	-0.260854	1.701146	-0.745847	-0.300422	-0.347862	-0.021564	0.003718	-0.009783
946	4.784753	0.005000	9.103680	-0.274680	1.659654	-0.746068	-0.300201	-0.348108	-0.005247	-0.013126	-0.004869
947	4.789753	0.005000	9.172645	-0.235440	1.775315	-0.746249	-0.300020	-0.348322	-0.013148	0.003000	0.002990
948	4.794753	0.005000	9.189386	-0.242666	1.773026	-0.746028	-0.300241	-0.348199	-0.011565	-0.001870	0.001539
949	4.799753	0.005000	9.138099	-0.235440	1.849101	-0.745808	-0.300461	-0.348075	-0.006346	-0.009440	0.010476
950	4.804753	0.005000	9.148608	-0.356004	1.841436	-0.745587	-0.300682	-0.347952	-0.021073	-0.009009	-0.008757
951	4.809753	0.005000	9.260181	-0.313461	1.726560	-0.745366	-0.300903	-0.347829	-0.010244	-0.016609	0.005242
952	4.814753	0.005000	9.184081	-0.274680	1.689241	-0.745145	-0.301124	-0.347706	-0.010439	0.000276	0.003096
953	4.819753	0.005000	9.178271	-0.270791	1.832614	-0.744924	-0.301345	-0.347582	-0.007572	-0.012956	-0.006281
954	4.824753	0.005000	9.221400	-0.274680	1.811345	-0.744703	-0.301566	-0.347459	-0.009673	-0.015177	0.010015
955	4.829753	0.005000	9.198658	-0.297422	1.724555	-0.744482	-0.301787	-0.347336	-0.015808	-0.011762	0.001437
956	4.834753	0.005000	9.135648	-0.295992	1.697976	-0.744261	-0.302008	-0.347212	-0.009580	-0.019699	0.002643
957	4.839753	0.005000	9.142951	-0.326990	1.818140	-0.744040	-0.302229	-0.347089	-0.009859	0.001944	0.002430
958	4.844753	0.005000	9.176360	-0.407413	1.805040	-0.743819	-0.302450	-0.346966	-0.006738	-0.012161	0.004750
959	4.849753	0.005000	9.142920	-0.370583	1.687320	-0.743599	-0.302670	-0.346843	-0.016169	0.001669	0.000756
960	4.854753	0.005000	9.182160	-0.353130	1.726590	-0.743378	-0.302891	-0.346719	-0.013572	-0.004634	0.001859
961	4.859753	0.005000	9.182160	-0.287220	1.861540	-0.743220	-0.302858	-0.346880	-0.009054	0.001631	0.022782
962	4.864753	0.005000	9.197210	-0.338110	1.838370	-0.743110	-0.302637	-0.347250	-0.019048	0.001935	0.000793
963	4.869753	0.005000	9.221400	-0.340514	1.910114	-0.743000	-0.302416	-0.347620	-0.009302	-0.012828	0.004384
964	4.874753	0.005000	9.289306	-0.256588	1.794466	-0.742889	-0.302195	-0.347990	-0.015187	-0.006398	-0.001881
965	4.879753	0.005000	9.134625	-0.305625	1.858635	-0.742779	-0.301975	-0.348359	-0.014917	-0.008164	-0.002369
966	4.884753	0.005000	9.142920	-0.235440	1.726560	-0.742668	-0.301754	-0.348729	-0.010212	-0.011166	0.007176
967	4.889753	0.005000	9.150695	-0.239328	1.722672	-0.742558	-0.301533	-0.349099	-0.001909	0.001106	-0.001712
968	4.894753	0.005000	9.182160	-0.273150	1.801979	-0.742447	-0.301312	-0.349469	-0.005585	-0.008068	-0.002859
969	4.899753	0.005000	9.143797	-0.273803	1.764923	-0.742337	-0.301091	-0.349839	-0.015429	0.003039	-0.006861
970	4.904753	0.005000	9.182160	-0.311089	1.771463	-0.742226	-0.300871	-0.350209	-0.007887	-0.007197	-0.002937
971	4.909753	0.005000	9.182160	-0.279854	1.878346	-0.742116	-0.300650	-0.350578	-0.007207	-0.008826	0.005554
972	4.914753	0.005000	9.135740	-0.267500	1.844280	-0.742006	-0.300429	-0.350948	-0.013927	-0.017137	-0.002606
973	4.919753	0.005000	9.182160	-0.304324	1.834684	-0.741895	-0.300208	-0.351318	-0.011677	-0.007562	0.008516
974	4.924753	0.005000	9.209540	-0.313920	1.883520	-0.741778	-0.299994	-0.351618	-0.013624	0.011257	-0.008329
975	4.929753	0.005000	9.246692	-0.339212	1.886123	-0.741557	-0.299883	-0.350754	-0.018248	-0.011215	0.004715
976	4.934753	0.005000	9.227920	-0.353160	1.877000	-0.741336	-0.299773	-0.349890	-0.019548	0.001128	-0.005912
977	4.939753	0.005000	9.103680	-0.334614	1.823586	-0.741115	-0.299662	-0.349027	-0.019219	-0.001507	0.002904
978	4.944753	0.005000	9.142920	-0.293213	1.860640	-0.740894	-0.299552	-0.348163	-0.012475	-0.004586	-0.003187
979	4.949753	0.005000	9.175163	-0.337038	1.906638	-0.740673	-0.299441	-0.347299	-0.017361	0.013155	-0.005521
980	4.954753	0.005000	9.210176	-0.327928	1.805040	-0.740452	-0.299331	-0.346435	-0.004439	-0.004222	0.008314
981	4.959753	0.005000	9.170391	-0.290382	1.844280	-0.740231	-0.299220	-0.345572	-0.009117	0.001453	-0.004430
982	4.964753	0.005000	9.221400	-0.284035	1.844280	-0.740010	-0.299109	-0.344708	-0.012817	-0.012926	-0.001457
983	4.969753	0.005000	9.221400	-0.332316	1.844280	-0.739789	-0.298999	-0.343844	-0.011600	-0.008240	0.009311
984	4.974753	0.005000	9.108627	-0.206093	1.760853	-0.739568	-0.298888	-0.342980	-0.015448	-0.002878	0.000262
985	4.979753	0.005000	9.221400	-0.277267	1.723973	-0.739347	-0.298778	-0.342116	-0.002116	-0.002485	0.000494
986	4.984753	0.005000	9.143287	-0.313736	1.765984	-0.739126	-0.298667	-0.341253	-0.011290	0.003833	0.000369
987	4.989753	0.005000	9.221400	-0.274680	1.842519	-0.738905	-0.298557	-0.340389	-0.004882	-0.007748	0.010415
988	4.994753	0.005000	9.120392	-0.309742	1.844280	-0.738927	-0.298993	-0.339864	-0.002492	-0.005614	-0.002567
989	4.999753	0.005000	9.182160	-0.287689	1.850785	-0.739148	-0.299876	-0.339618	-0.010389	-0.011986	-0.004855
990	5.004753	0.005000	9.142920	-0.243968	1.827224	-0.739369	-0.300760	-0.339371	-0.013632	-0.005821	0.008754
991	5.009753	0.005000	9.114623	-0.263737	1.765800	-0.739590	-0.301644	-0.339124	-0.014749	-0.005287	0.003234
992	5.014753	0.005000	9.195018	-0.274680	1.791849	-0.739811	-0.302527	-0.338878	-0.004648	-0.005399	0.005184
993	5.019753	0.005000	9.245351	-0.298631	1.772427	-0.740032	-0.303411	-0.338631	-0.013010	0.002354	0.007938
994	5.024753	0.005000	9.242941	-0.388557	1.822739	-0.740253	-0.304295	-0.338385	-0.009073	-0.010528	0.005857
995	5.029753	0.005000	9.201523	-0.313920	1.765800	-0.740474	-0.305178	-0.338138	-0.012458	-0.007114	0.010318
996	5.034753	0.005000	9.265507	-0.358027	1.809907	-0.740695	-0.306062	-0.337891	-0.006791	-0.011876	-0.006378
997	5.039753	0.005000	9.221400	-0.274680	1.780574	-0.740916	-0.306946	-0.337645	-0.011746	-0.016964	0.005586
998	5.044753	0.005000	9.196047	-0.326597	1.699997	-0.741136	-0.307829	-0.337398	-0.014612	0.001127	-0.004877
999	5.049753	0.005000	9.210978	-0.303498	1.823436	-0.741357	-0.308713	-0.337151	-0.010244	-0.013360	0.003793
1000	5.054753	0.005000	9.072820	-0.322300	1.656460	-0.741578	-0.309597	-0.336905	-0.010148	-0.000935	0.006037
1001	5.059753	0.005000	9.103680	-0.268617	1.792914	-0.741807	-0.310440	-0.336672	-0.010370	0.005410	0.007632
1002	5.064753	0.005000	9.142920	-0.317578	1.805040	-0.742249	-0.310219	-0.336795	-0.009830	-0.001728	0.008026
1003	5.069753	0.005000	9.142920	-0.313920	1.876743	-0.742691	-0.309998	-0.336918	-0.014830	-0.007742	0.005027
1004	5.074753	0.005000	9.181456	-0.352456	1.803632	-0.743133	-0.309777	-0.337041	-0.005550	-0.017968	0.012294
1005	5.079753	0.005000	9.106751	-0.316991	1.805040	-0.743574	-0.309556	-0.337165	-0.016672	-0.002738	-0.000400
1006	5.084753	0.005000	9.167003	-0.284785	1.736665	-0.744016	-0.309335	-0.337288	-0.018750	-0.013621	0.002304
1007	5.089753	0.005000	9.199032	-0.313920	1.726560	-0.744458	-0.309115	-0.337411	-0.014122	-0.003821	0.005252
1008	5.094753	0.005000	9.211774	-0.323791	1.795169	-0.744900	-0.308894	-0.337535	-0.014577	0.000277	-0.003377
1009	5.099753	0.005000	9.236376	-0.392400	1.792908	-0.745341	-0.308673	-0.337658	-0.005449	-0.011649	0.012256
1010	5.104753	0.005000	9.157143	-0.367383	1.751577	-0.745783	-0.308452	-0.337781	-0.007484	-0.004811	-0.000388
1011	5.109753	0.005000	9.159556	-0.369796	1.709924	-0.746225	-0.308231	-0.337904	-0.002201	-0.011589	-0.002467
1012	5.114753	0.005000	9.163114	-0.371058	1.844280	-0.746667	-0.308010	-0.338028	-0.011118	-0.009019	0.000956
1013	5.119753	0.005000	9.161170	-0.410650	1.844280	-0.747109	-0.307789	-0.338151	-0.011311	-0.007316	-0.010140
1014	5.124753	0.005000	9.142920	-0.399960	1.789200	-0.747550	-0.307568	-0.338274	-0.008063	-0.013737	0.000938
1015	5.129753	0.005000	9.142920	-0.341391	1.844280	-0.748223	-0.307405	-0.337365	-0.010823	-0.008327	0.001012
1016	5.134753	0.005000	9.115025	-0.369709	1.816385	-0.749107	-0.307295	-0.335515	-0.008749	-0.017134	0.001094
1017	5.139753	0.005000	9.161071	-0.332071	1.744711	-0.749991	-0.307184	-0.333665	-0.010873	-0.010667	0.005716
1018	5.144753	0.005000	9.175500	-0.418320	1.811700	-0.750874	-0.307074	-0.331815	-0.003783	-0.012791	-0.000889
1019	5.149753	0.005000	9.212082	-0.240099	1.848939	-0.751758	-0.306963	-0.329965	-0.013646	-0.006595	0.008658
1020	5.154753	0.005000	9.258329	-0.279302	1.913516	-0.752641	-0.306853	-0.328114	-0.013531	-0.002965	-0.002187
1021	5.159753	0.005000	9.221400	-0.392294	1.844068	-0.753525	-0.306742	-0.326264	-0.009099	-0.010321	0.003266
1022	5.164753	0.005000	9.221400	-0.388327	1.767836	-0.754409	-0.306632	-0.324414	-0.021423	-0.006211	0.003827
1023	5.169753	0.005000	9.221400	-0.318374	1.682866	-0.755292	-0.306521	-0.322564	-0.010944	-0.009992	0.000794
1024	5.174753	0.005000	9.202737	-0.332583	1.772659	-0.756176	-0.306411	-0.320714	-0.014014	-0.001196	-0.003732
1025	5.179753	0.005000	9.134117	-0.374793	1.696123	-0.757059	-0.306300	-0.318864	-0.005920	0.005541	-0.006741
1026	5.184753	0.005000	9.142920	-0.325138	1.726560	-0.757943	-0.306190	-0.317014	-0.010245	0.001565	0.005342
1027	5.189753	0.005000	9.155234	-0.339697	1.765800	-0.758826	-0.306079	-0.315164	-0.018067	0.007115	0.003034
1028	5.194753	0.005000	9.229499	-0.361259	1.765800	-0.759689	-0.305968	-0.313357	-0.010678	-0.010698	0.002979
1029	5.199753	0.005000	9.203418	-0.353160	1.705302	-0.758474	-0.305747	-0.315700	-0.008933	-0.002265	0.002798
1030	5.204753	0.005000	9.260640	-0.294829	1.746709	-0.757259	-0.305526	-0.318044	-0.011747	-0.001368	0.000465
1031	5.209753	0.005000	9.238302	-0.274680	1.765800	-0.756044	-0.305305	-0.320387	-0.015051	-0.005411	-0.001178
1032	5.214753	0.005000	9.103680	-0.210693	1.809279	-0.754829	-0.305084	-0.322731	-0.015599	0.004485	-0.010884
1033	5.219753	0.005000	9.155324	-0.340756	1.831876	-0.753614	-0.304863	-0.325074	-0.007643	-0.011766	0.005959
1034	5.224753	0.005000	9.161889	-0.293649	1.813874	-0.752399	-0.304642	-0.327417	-0.013572	-0.002901	-0.001828
1035	5.229753	0.005000	9.197617	-0.321649	1.718831	-0.751184	-0.304421	-0.329761	-0.012075	-0.014324	0.003579
1036	5.234753	0.005000	9.187473	-0.308607	1.658705	-0.749970	-0.304201	-0.332104	-0.013328	-0.015159	0.006718
1037	5.239753	0.005000	9.214714	-0.278023	1.687320	-0.748755	-0.303980	-0.334448	-0.019673	-0.001680	-0.006104
1038	5.244753	0.005000	9.220435	-0.313920	1.804075	-0.747540	-0.303759	-0.336791	-0.008975	-0.013316	0.001094
1039	5.249753	0.005000	9.106524	-0.276102	1.690164	-0.746325	-0.303538	-0.339134	-0.006284	-0.011070	-0.003722
1040	5.254753	0.005000	9.182160	-0.274680	1.844280	-0.745110	-0.303317	-0.341478	-0.009163	-0.012824	0.011236
1041	5.259753	0.005000	9.142920	-0.302319	1.850080	-0.743895	-0.303096	-0.343821	-0.010261	0.003574	0.008987
1042	5.264753	0.005000	9.111788	-0.361268	1.813148	-0.743339	-0.302875	-0.345061	-0.016841	0.000462	0.002002
1043	5.269753	0.005000	9.201099	-0.274680	1.892308	-0.743449	-0.302654	-0.345185	-0.011539	-0.010266	0.005973
1044	5.274753	0.005000	9.219854	-0.301355	1.830170	-0.743560	-0.302433	-0.345308	-0.012096	-0.009435	-0.005014
1045	5.279753	0.005000	9.236194	-0.289474	1.780594	-0.743670	-0.302213	-0.345431	-0.011926	-0.009618	-0.001974
1046	5.284753	0.005000	9.176756	-0.297002	1.799636	-0.743781	-0.301992	-0.345555	-0.006183	-0.001336	-0.015456
1047	5.289753	0.005000	9.162249	-0.333249	1.726560	-0.743891	-0.301771	-0.345678	-0.004916	-0.008738	-0.005791
1048	5.294753	0.005000	9.182160	-0.313920	1.648080	-0.744001	-0.301550	-0.345801	-0.001886	-0.011858	0.006159
1049	5.299753	0.005000	9.260640	-0.259125	1.662931	-0.744112	-0.301329	-0.345925	-0.004558	-0.008873	-0.008832
1050	5.304753	0.005000	9.247693	-0.327066	1.818186	-0.744222	-0.301108	-0.346048	-0.011678	-0.005128	0.003078
1051	5.309753	0.005000	9.171087	-0.336066	1.771821	-0.744333	-0.300887	-0.346172	-0.017764	-0.000681	-0.007637
1052	5.314753	0.005000	9.190960	-0.344360	1.835480	-0.744443	-0.300666	-0.346295	-0.010402	-0.004503	0.008046
1053	5.319753	0.005000	9.247871	-0.313920	1.844280	-0.744553	-0.300445	-0.346418	-0.012407	-0.006492	0.007199
1054	5.324753	0.005000	9.252682	-0.388421	1.718602	-0.744664	-0.300224	-0.346542	-0.017340	-0.009030	0.003836
1055	5.329753	0.005000	9.148956	-0.313920	1.763788	-0.744774	-0.300004	-0.346665	-0.016448	0.002533	0.013633
1056	5.334753	0.005000	9.144068	-0.352777	1.726560	-0.744233	-0.299891	-0.346788	-0.017344	-0.000859	0.000437
1057	5.339753	0.005000	9.294374	-0.238193	1.796781	-0.743680	-0.299781	-0.346912	-0.014396	-0.013042	0.005620
1058	5.344753	0.005000	9.230862	-0.309189	1.770531	-0.743128	-0.299670	-0.347035	-0.022074	0.003000	0.000552
1059	5.349753	0.005000	9.228547	-0.274680	1.851427	-0.742576	-0.299560	-0.347158	-0.018767	-0.006584	-0.004185
1060	5.354753	0.005000	9.182160	-0.274680	1.823919	-0.742024	-0.299449	-0.347281	-0.010811	-0.003638	0.002228
1061	5.359753	0.005000	9.299880	-0.258436	1.872022	-0.741471	-0.299339	-0.347405	-0.013645	-0.007147	-0.006686
1062	5.364753	0.005000	9.313792	-0.224023	1.740472	-0.740919	-0.299228	-0.347528	-0.010079	-0.012342	0.006951
1063	5.369753	0.005000	9.230537	-0.235440	1.694309	-0.740367	-0.299118	-0.347651	-0.013081	0.004098	-0.006425
1064	5.374753	0.005000	9.221400	-0.295655	1.729270	-0.739814	-0.299007	-0.347775	-0.006887	-0.008685	0.000219
1065	5.379753	0.005000	9.281316	-0.332484	1.860732	-0.739262	-0.298897	-0.347898	-0.017169	-0.005242	0.002684
1066	5.384753	0.005000	9.221400	-0.330348	1.827852	-0.738710	-0.298786	-0.348021	-0.017671	-0.002449	0.001241
1067	5.389753	0.005000	9.246422	-0.367378	1.826650	-0.738158	-0.298676	-0.348144	-0.016493	-0.000963	0.001551
1068	5.394753	0.005000	9.170356	-0.353160	1.761972	-0.737605	-0.298565	-0.348268	-0.015571	0.010669	-0.009497
1069	5.399753	0.005000	9.290138	-0.294436	1.873506	-0.737625	-0.298663	-0.348333	-0.010103	-0.001679	0.003057
1070	5.404753	0.005000	9.230827	-0.321373	1.890973	-0.738288	-0.298994	-0.348333	-0.013598	0.000828	0.004554
1071	5.409753	0.005000	9.163068	-0.274680	1.878483	-0.738950	-0.299326	-0.348333	-0.011437	-0.011109	0.002126
1072	5.414753	0.005000	9.299880	-0.350104	1.774967	-0.739613	-0.299657	-0.348333	-0.017410	-0.006885	-0.000276
1073	5.419753	0.005000	9.259263	-0.353849	1.803663	-0.740276	-0.299988	-0.348333	-0.013512	0.003444	-0.003839
1074	5.424753	0.005000	9.182160	-0.279808	1.726560	-0.740939	-0.300320	-0.348333	-0.009176	-0.013648	-0.002483
1075	5.429753	0.005000	9.139247	-0.317593	1.726560	-0.741601	-0.300651	-0.348333	-0.016654	-0.008118	0.002041
1076	5.434753	0.005000	9.215322	-0.313920	1.765800	-0.742264	-0.300983	-0.348333	-0.011598	-0.009756	0.006279
1077	5.439753	0.005000	9.142920	-0.291471	1.827489	-0.742927	-0.301314	-0.348333	-0.020913	0.006552	-0.003042
