# FOX Logger (IMU file)
# (c) INRIA 2011-2014
# File created from file sensbiotk output
#
# File format:
# id	t	dt	ax	ay	az	mx	my	mz	gx	gy	gz
#
# Units:
#	Time: s
#\Acceleration: m.s^-2
#\Magneto: gauss
#\Gyrometer: rad/s
#
1	0.030151	0.030151	-0.271912	-0.277448	-9.336352	0.634328	-0.258209	-0.538333	0.077867	0.014832	0.006511
2	0.035151	0.005000	-0.196276	-0.274756	-9.378209	0.633987	-0.257754	-0.537571	0.071020	0.020604	0.004249
3	0.040151	0.005000	-0.117720	-0.235440	-9.417600	0.633646	-0.257299	-0.536809	0.071360	0.015497	0.004758
4	0.045151	0.005000	-0.151650	-0.206819	-9.383670	0.633304	-0.256844	-0.536047	0.074831	0.012497	0.012225
5	0.050151	0.005000	-0.055547	-0.219133	-9.378360	0.632963	-0.256389	-0.535285	0.073521	0.019190	-0.003831
6	0.055151	0.005000	-0.117720	-0.263683	-9.367363	0.632622	-0.255934	-0.534523	0.065612	0.004023	0.005884
7	0.060151	0.005000	-0.208695	-0.235440	-9.416723	0.632281	-0.255479	-0.533761	0.060362	0.011459	-0.003812
8	0.065151	0.005000	-0.281487	-0.235440	-9.401384	0.631940	-0.255024	-0.532999	0.050081	0.019888	0.012001
9	0.070151	0.005000	-0.235440	-0.196200	-9.357944	0.631599	-0.254569	-0.532237	0.056955	0.012930	0.012560
10	0.075151	0.005000	-0.196200	-0.196200	-9.342781	0.631257	-0.254115	-0.531475	0.045952	0.005289	0.013437
11	0.080151	0.005000	-0.181254	-0.211146	-9.329771	0.630916	-0.253660	-0.530713	0.031896	0.005003	0.018370
12	0.085151	0.005000	-0.078480	-0.235440	-9.390931	0.630575	-0.253205	-0.529951	0.032881	0.007012	0.001276
13	0.090151	0.005000	-0.117720	-0.196200	-9.476626	0.630234	-0.252750	-0.529188	0.030070	0.003581	0.013559
14	0.095151	0.005000	-0.156960	-0.156960	-9.417600	0.629893	-0.252295	-0.528426	0.027397	0.004134	0.014891
15	0.100151	0.005000	-0.235440	-0.235440	-9.378360	0.630051	-0.252638	-0.529113	0.048332	0.015360	0.008721
16	0.105151	0.005000	-0.310621	-0.315570	-9.301530	0.630278	-0.253094	-0.530003	0.044425	0.007450	0.021618
17	0.110151	0.005000	-0.197380	-0.238980	-9.377180	0.630506	-0.253549	-0.530892	0.042227	0.016962	0.015844
18	0.115151	0.005000	-0.231416	-0.239464	-9.295856	0.630733	-0.254004	-0.531782	0.035569	0.005571	0.023911
19	0.120151	0.005000	-0.136962	-0.156960	-9.293466	0.630961	-0.254459	-0.532671	0.030044	0.013763	0.010790
20	0.125151	0.005000	-0.117720	-0.166218	-9.279156	0.631189	-0.254914	-0.533561	0.033785	0.014306	0.008996
21	0.130151	0.005000	-0.129822	-0.144858	-9.366258	0.631416	-0.255369	-0.534450	0.027985	0.004817	0.017330
22	0.135151	0.005000	-0.117720	-0.181723	-9.328833	0.631644	-0.255824	-0.535340	0.038710	0.008321	0.017547
23	0.140151	0.005000	-0.196200	-0.218119	-9.299880	0.631871	-0.256280	-0.536229	0.022524	0.004553	0.022879
24	0.145151	0.005000	-0.156960	-0.274680	-9.397435	0.632099	-0.256735	-0.537119	0.024487	0.014278	0.007759
25	0.150151	0.005000	-0.179515	-0.212885	-9.361675	0.632326	-0.257190	-0.538008	0.008371	0.009482	0.015112
26	0.155151	0.005000	-0.196200	-0.260839	-9.378360	0.632554	-0.257645	-0.538898	0.007460	0.009574	0.018197
27	0.160151	0.005000	-0.117720	-0.174205	-9.406603	0.632782	-0.258100	-0.539787	0.005874	0.014298	0.010740
28	0.165151	0.005000	-0.134224	-0.101216	-9.417600	0.632490	-0.257949	-0.539903	0.020787	0.008840	0.016170
29	0.170151	0.005000	-0.229661	0.033461	-9.417600	0.632034	-0.257608	-0.539776	0.018791	0.016223	0.013561
30	0.175151	0.005000	-0.156960	0.027501	-9.456840	0.631579	-0.257266	-0.539649	0.056331	0.008418	0.013218
31	0.180151	0.005000	-0.117812	-0.117904	-9.456565	0.631124	-0.256925	-0.539522	0.054015	0.010804	-0.000468
32	0.185151	0.005000	-0.193901	-0.233141	-9.302179	0.630669	-0.256584	-0.539395	0.054100	0.017210	0.003506
33	0.190151	0.005000	-0.264393	-0.230297	-9.378360	0.630214	-0.256242	-0.539268	0.038275	0.009935	0.016777
34	0.195151	0.005000	-0.243049	-0.180982	-9.370751	0.629759	-0.255901	-0.539141	0.037923	0.015503	0.004837
35	0.200151	0.005000	-0.128082	-0.128082	-9.289518	0.629304	-0.255559	-0.539014	0.051346	0.014574	0.013223
36	0.205151	0.005000	-0.156960	-0.195822	-9.417222	0.628848	-0.255218	-0.538887	0.062869	0.012260	-0.000151
37	0.210151	0.005000	-0.196200	-0.196200	-9.386408	0.628393	-0.254877	-0.538759	0.060337	0.006593	0.008760
38	0.215151	0.005000	-0.175400	-0.117720	-9.417600	0.627938	-0.254535	-0.538632	0.056055	0.012829	0.001401
39	0.220151	0.005000	-0.178027	-0.099547	-9.438667	0.627483	-0.254194	-0.538505	0.051778	0.013886	0.007918
40	0.225151	0.005000	-0.173116	-0.219284	-9.339120	0.627028	-0.253852	-0.538378	0.053137	0.009464	-0.003321
41	0.230151	0.005000	-0.117720	-0.261943	-9.365623	0.627086	-0.253804	-0.538251	0.031459	0.000382	0.005600
42	0.235151	0.005000	-0.177654	-0.274680	-9.378360	0.627427	-0.253918	-0.538124	0.022101	0.012944	0.013583
43	0.240151	0.005000	-0.156960	-0.306417	-9.307383	0.627768	-0.254032	-0.537997	0.023873	0.012766	0.011041
44	0.245151	0.005000	-0.196200	-0.191541	-9.299880	0.628109	-0.254146	-0.537870	-0.018346	0.016712	0.002986
45	0.250151	0.005000	-0.233156	-0.122288	-9.336836	0.628451	-0.254259	-0.537743	-0.040379	0.016175	0.007961
46	0.255151	0.005000	-0.157520	-0.157520	-9.261200	0.628792	-0.254373	-0.537616	-0.051747	0.019156	0.001800
47	0.260151	0.005000	-0.271276	-0.075076	-9.368149	0.629133	-0.254487	-0.537489	-0.032272	0.009518	0.017290
48	0.265151	0.005000	-0.241219	-0.139624	-9.378360	0.629474	-0.254601	-0.537362	-0.007796	0.011950	0.010117
49	0.270151	0.005000	-0.104348	-0.235440	-9.448217	0.629815	-0.254715	-0.537236	0.003822	0.006293	0.010802
50	0.275151	0.005000	-0.089946	-0.196200	-9.378360	0.630156	-0.254828	-0.537109	0.015743	0.015622	0.003604
51	0.280151	0.005000	-0.182343	-0.120050	-9.431457	0.630498	-0.254942	-0.536982	0.022825	0.010424	0.007767
52	0.285151	0.005000	-0.229601	-0.045079	-9.378360	0.630839	-0.255056	-0.536855	0.028754	0.006442	0.012537
53	0.290151	0.005000	-0.215506	-0.098414	-9.318558	0.631180	-0.255170	-0.536728	0.023139	0.010052	0.011707
54	0.295151	0.005000	-0.135041	-0.065758	-9.277961	0.631580	-0.255283	-0.536468	0.029455	0.007379	0.013559
55	0.300151	0.005000	-0.117720	-0.039240	-9.275117	0.632035	-0.255397	-0.536087	0.063315	0.014793	0.007809
56	0.305151	0.005000	-0.141893	-0.117720	-9.299880	0.632490	-0.255511	-0.535707	0.083414	0.011876	0.008832
57	0.310151	0.005000	-0.226197	-0.203174	-9.230643	0.632944	-0.255624	-0.535326	0.059671	0.011066	0.001033
58	0.315151	0.005000	-0.202676	-0.248775	-9.339120	0.633399	-0.255738	-0.534945	0.051603	0.013587	0.011079
59	0.320151	0.005000	-0.196200	-0.196200	-9.405528	0.633854	-0.255852	-0.534564	0.046249	0.012359	0.018188
60	0.325151	0.005000	-0.234260	-0.195020	-9.340300	0.634309	-0.255965	-0.534183	0.041515	0.015495	0.012389
61	0.330151	0.005000	-0.196200	-0.194976	-9.226297	0.634763	-0.256079	-0.533802	0.043035	0.014146	0.014535
62	0.335151	0.005000	-0.200254	-0.156960	-9.331012	0.635218	-0.256192	-0.533421	0.045008	0.009739	0.014310
63	0.340151	0.005000	-0.156960	-0.267782	-9.378360	0.635673	-0.256306	-0.533041	0.015706	0.016936	0.010736
64	0.345151	0.005000	-0.117720	-0.106635	-9.290495	0.636128	-0.256420	-0.532660	0.006633	0.005893	0.008541
65	0.350151	0.005000	-0.171966	-0.129837	-9.327003	0.636582	-0.256533	-0.532279	-0.016131	0.007262	0.000372
66	0.355151	0.005000	-0.229798	-0.147642	-9.411958	0.637037	-0.256647	-0.531898	-0.012128	0.006777	0.014733
67	0.360151	0.005000	-0.217886	0.000000	-9.456840	0.637000	-0.256850	-0.531717	0.009686	0.012798	0.010288
68	0.365151	0.005000	-0.216613	-0.080065	-9.400358	0.636204	-0.257191	-0.531844	0.017744	0.008563	0.005269
69	0.370151	0.005000	-0.164705	-0.117720	-9.433347	0.635408	-0.257533	-0.531971	0.029435	0.007740	0.006074
70	0.375151	0.005000	-0.091534	-0.183146	-9.404546	0.634612	-0.257874	-0.532098	0.027394	0.013027	0.001113
71	0.380151	0.005000	-0.156960	-0.196200	-9.496080	0.633816	-0.258215	-0.532225	0.024833	0.009853	0.015112
72	0.385151	0.005000	-0.180675	-0.133245	-9.449078	0.633019	-0.258556	-0.532352	0.031816	0.012345	-0.004292
73	0.390151	0.005000	-0.099658	-0.180316	-9.451545	0.632223	-0.258898	-0.532479	0.024186	0.008430	0.011363
74	0.395151	0.005000	-0.196200	-0.196200	-9.334219	0.631427	-0.259239	-0.532606	0.014052	0.018902	0.006618
75	0.400151	0.005000	-0.117871	-0.235364	-9.221400	0.630631	-0.259580	-0.532733	0.016536	0.013803	0.002712
76	0.405151	0.005000	-0.196200	-0.050313	-9.257872	0.629835	-0.259921	-0.532860	0.013896	0.006051	0.004318
77	0.410151	0.005000	-0.235440	-0.112108	-9.299880	0.629039	-0.260263	-0.532986	0.010989	0.010309	0.014159
78	0.415151	0.005000	-0.258488	-0.117720	-9.463696	0.628243	-0.260604	-0.533113	-0.002575	0.006241	0.021581
79	0.420151	0.005000	-0.274680	-0.146114	-9.467686	0.627447	-0.260945	-0.533240	0.003770	0.008439	0.009049
80	0.425151	0.005000	-0.288370	-0.158790	-9.364670	0.626989	-0.261194	-0.533367	0.004290	0.007524	0.009256
81	0.430151	0.005000	-0.290745	-0.156960	-9.323055	0.627444	-0.261194	-0.533494	0.014915	0.013429	0.008795
82	0.435151	0.005000	-0.175869	-0.177291	-9.398691	0.627899	-0.261194	-0.533622	0.017275	0.011255	0.003127
83	0.440151	0.005000	-0.178713	-0.139473	-9.356607	0.628355	-0.261194	-0.533749	0.016608	0.006269	0.005343
84	0.445151	0.005000	-0.132817	-0.102623	-9.339120	0.628810	-0.261194	-0.533876	0.006213	0.011184	0.014679
85	0.450151	0.005000	-0.193719	-0.132454	-9.363626	0.629265	-0.261194	-0.534003	0.013312	0.019726	0.010354
86	0.455151	0.005000	-0.265157	-0.028569	-9.378360	0.629720	-0.261194	-0.534130	0.015655	0.015458	0.011813
87	0.460151	0.005000	-0.189166	-0.092548	-9.410566	0.630175	-0.261194	-0.534257	0.029584	0.023784	0.019750
88	0.465151	0.005000	-0.270490	-0.117720	-9.312451	0.630630	-0.261194	-0.534384	0.020067	0.016816	0.013412
89	0.470151	0.005000	-0.236786	-0.115027	-9.416254	0.631086	-0.261194	-0.534511	0.029672	0.012620	0.006673
90	0.475151	0.005000	-0.198312	-0.153792	-9.378360	0.631541	-0.261194	-0.534638	0.037110	0.008246	0.009850
91	0.480151	0.005000	-0.200088	-0.235440	-9.378360	0.631996	-0.261194	-0.534765	0.016218	0.005495	0.006203
92	0.485151	0.005000	-0.235440	-0.235440	-9.345852	0.632451	-0.261194	-0.534893	-0.000905	0.001374	0.014766
93	0.490151	0.005000	-0.176111	-0.107207	-9.348696	0.632818	-0.261264	-0.534922	-0.023284	0.007420	0.008834
94	0.495151	0.005000	-0.196200	-0.145009	-9.393699	0.632705	-0.261719	-0.534414	-0.026208	0.008662	0.008149
95	0.500151	0.005000	-0.220646	-0.044383	-9.407949	0.632591	-0.262174	-0.533906	-0.017672	0.016231	0.004123
96	0.505151	0.005000	-0.196200	-0.034771	-9.339120	0.632477	-0.262629	-0.533397	-0.012415	0.015566	-0.007186
97	0.510151	0.005000	-0.098508	0.059268	-9.378360	0.632363	-0.263084	-0.532889	0.026777	0.013403	0.010188
98	0.515151	0.005000	-0.228935	0.013009	-9.355488	0.632250	-0.263539	-0.532381	0.037821	0.007523	0.004264
99	0.520151	0.005000	-0.170953	-0.103727	-9.299880	0.632136	-0.263994	-0.531873	0.029278	0.013480	0.007946
100	0.525151	0.005000	-0.246589	-0.095422	-9.356062	0.632022	-0.264449	-0.531365	0.043873	0.010590	0.000209
101	0.530151	0.005000	-0.165362	-0.064446	-9.386762	0.631908	-0.264904	-0.530857	0.050076	0.017847	0.005434
102	0.535151	0.005000	-0.235440	-0.045155	-9.423515	0.631794	-0.265359	-0.530349	0.049186	0.004357	0.009826
103	0.540151	0.005000	-0.123862	-0.156960	-9.378360	0.631681	-0.265814	-0.529841	0.042933	0.007663	0.004084
104	0.545151	0.005000	-0.235440	-0.157450	-9.378605	0.631567	-0.266268	-0.529333	0.033872	0.007252	0.008429
105	0.550151	0.005000	-0.235440	-0.272532	-9.491784	0.631453	-0.266723	-0.528825	0.025561	0.008445	0.005281
106	0.555151	0.005000	-0.225456	-0.235440	-9.373368	0.631350	-0.267164	-0.528345	0.016870	0.009451	0.003575
107	0.560151	0.005000	-0.235440	-0.156960	-9.410144	0.631578	-0.267164	-0.528726	-0.002492	0.010278	0.010742
108	0.565151	0.005000	-0.225229	-0.156960	-9.436418	0.631805	-0.267164	-0.529107	-0.013649	0.013413	0.009987
109	0.570151	0.005000	-0.222385	-0.104665	-9.404545	0.632033	-0.267164	-0.529489	-0.003957	0.011845	0.014847
110	0.575151	0.005000	-0.196200	0.023795	-9.424695	0.632261	-0.267164	-0.529870	0.007530	0.010265	0.003108
111	0.580151	0.005000	-0.175249	-0.020951	-9.417600	0.632488	-0.267164	-0.530251	0.028807	0.013322	0.013199
112	0.585151	0.005000	-0.199225	-0.117720	-9.378360	0.632716	-0.267164	-0.530632	0.027963	0.013439	0.007517
113	0.590151	0.005000	-0.156960	-0.101988	-9.370585	0.632943	-0.267164	-0.531013	0.036569	0.010814	-0.001750
114	0.595151	0.005000	-0.183312	-0.066166	-9.260640	0.633171	-0.267164	-0.531395	0.036979	0.007016	0.003615
115	0.600151	0.005000	-0.196200	-0.088524	-9.329076	0.633398	-0.267164	-0.531776	0.020446	0.010939	0.014907
116	0.605151	0.005000	-0.188546	-0.141651	-9.346774	0.633626	-0.267164	-0.532157	0.001377	0.010193	0.016607
117	0.610151	0.005000	-0.156960	-0.112910	-9.383170	0.633854	-0.267164	-0.532538	0.007220	0.006140	0.003422
118	0.615151	0.005000	-0.121701	-0.080470	-9.376370	0.634081	-0.267164	-0.532919	0.006970	0.008413	0.002664
119	0.620151	0.005000	-0.196200	-0.078888	-9.339120	0.634309	-0.267164	-0.533301	0.016008	0.006517	0.016799
120	0.625151	0.005000	-0.199452	-0.003252	-9.417600	0.634016	-0.266644	-0.532636	0.008187	0.007637	0.005688
121	0.630151	0.005000	-0.224023	-0.011417	-9.266348	0.633675	-0.266075	-0.531874	0.002475	0.009532	0.007114
122	0.635151	0.005000	-0.291653	0.022267	-9.339120	0.633333	-0.265506	-0.531111	0.008231	0.008906	0.012748
123	0.640151	0.005000	-0.117720	0.095059	-9.311210	0.632992	-0.264937	-0.530349	0.031145	0.010491	0.018610
124	0.645151	0.005000	-0.143089	0.000000	-9.286009	0.632651	-0.264369	-0.529587	0.038941	0.006005	0.016583
125	0.650151	0.005000	-0.156960	-0.134269	-9.407192	0.632310	-0.263800	-0.528825	0.037645	0.001914	0.006756
126	0.655151	0.005000	-0.235440	-0.078480	-9.377906	0.631969	-0.263231	-0.528063	0.018228	0.012366	0.020069
127	0.660151	0.005000	-0.122046	0.021783	-9.334794	0.631628	-0.262663	-0.527301	0.020706	0.020520	0.007443
128	0.665151	0.005000	-0.156960	0.024627	-9.378360	0.631286	-0.262094	-0.526539	0.033703	0.007962	0.018141
129	0.670151	0.005000	-0.172662	0.039240	-9.417600	0.630945	-0.261525	-0.525777	0.053743	0.011181	0.011716
130	0.675151	0.005000	-0.156960	-0.087513	-9.447807	0.630604	-0.260956	-0.525015	0.077349	0.011809	0.010775
131	0.680151	0.005000	-0.189650	-0.026140	-9.378360	0.630263	-0.260388	-0.524253	0.077051	0.009471	0.004361
132	0.685151	0.005000	-0.121426	0.042946	-9.303586	0.629922	-0.259819	-0.523491	0.077124	0.017971	0.003667
133	0.690151	0.005000	-0.157833	0.115102	-9.339120	0.629671	-0.259791	-0.523132	0.065668	0.016823	0.020217
134	0.695151	0.005000	-0.233927	0.000000	-9.376847	0.629443	-0.259905	-0.522878	0.084150	0.007941	0.013652
135	0.700151	0.005000	-0.196200	-0.043597	-9.347833	0.629216	-0.260019	-0.522624	0.100211	0.009381	-0.002864
136	0.705151	0.005000	-0.221039	-0.110519	-9.410399	0.628988	-0.260132	-0.522370	0.092050	0.010542	0.007670
137	0.710151	0.005000	-0.186609	-0.156960	-9.348711	0.628761	-0.260246	-0.522116	0.088858	0.008665	0.008903
138	0.715151	0.005000	-0.221069	-0.169395	-9.312315	0.628533	-0.260360	-0.521862	0.075640	0.008484	0.012347
139	0.720151	0.005000	-0.196200	-0.117720	-9.402611	0.628306	-0.260474	-0.521608	0.066385	0.018964	0.000996
140	0.725151	0.005000	-0.217787	-0.043173	-9.356773	0.628078	-0.260588	-0.521354	0.067845	0.017095	0.015754
141	0.730151	0.005000	-0.237195	0.000000	-9.318623	0.627851	-0.260701	-0.521100	0.079867	0.013078	0.007737
142	0.735151	0.005000	-0.164403	-0.047696	-9.378360	0.627623	-0.260815	-0.520846	0.108965	0.007724	0.005600
143	0.740151	0.005000	-0.196200	-0.117720	-9.339120	0.627396	-0.260929	-0.520592	0.106739	0.009231	0.014455
144	0.745151	0.005000	-0.196200	-0.156960	-9.271305	0.627169	-0.261043	-0.520338	0.093100	0.010051	0.003118
145	0.750151	0.005000	-0.164875	-0.125635	-9.221400	0.626941	-0.261156	-0.520084	0.082562	0.013566	0.018281
146	0.755151	0.005000	-0.106828	-0.162406	-9.266086	0.626485	-0.261727	-0.519320	0.082291	0.017424	-0.000127
147	0.760151	0.005000	-0.081082	-0.196200	-9.336518	0.625917	-0.262523	-0.518304	0.074328	0.014357	0.003628
148	0.765151	0.005000	-0.117720	-0.040208	-9.299880	0.625348	-0.263319	-0.517288	0.055038	0.010754	0.009532
149	0.770151	0.005000	-0.081112	-0.041872	-9.299880	0.624780	-0.264115	-0.516273	0.059166	0.009993	0.014355
150	0.775151	0.005000	-0.117720	-0.146008	-9.339120	0.624211	-0.264910	-0.515257	0.059865	0.013665	0.006428
151	0.780151	0.005000	-0.266829	-0.125571	-9.260640	0.623643	-0.265706	-0.514242	0.063424	0.009245	0.008522
152	0.785151	0.005000	-0.235440	-0.096330	-9.317730	0.623074	-0.266502	-0.513226	0.051986	0.014406	0.010576
153	0.790151	0.005000	-0.221901	-0.156960	-9.325581	0.622506	-0.267298	-0.512211	0.059354	0.011641	0.014982
154	0.795151	0.005000	-0.251369	-0.196200	-9.362431	0.621938	-0.268094	-0.511195	0.068122	0.019936	0.004592
155	0.800151	0.005000	-0.233746	-0.116026	-9.417600	0.621369	-0.268890	-0.510179	0.054733	0.012894	0.010017
156	0.805151	0.005000	-0.170590	-0.096103	-9.356743	0.620801	-0.269685	-0.509164	0.051727	0.019970	0.009768
157	0.810151	0.005000	-0.235440	-0.054488	-9.315128	0.620232	-0.270481	-0.508148	0.054799	0.013882	0.022187
158	0.815151	0.005000	-0.142529	-0.066076	-9.390764	0.619664	-0.271277	-0.507133	0.066523	0.015015	0.002961
159	0.820151	0.005000	-0.166520	-0.097601	-9.516199	0.619403	-0.271580	-0.507493	0.071759	0.010840	0.008187
160	0.825151	0.005000	-0.267510	-0.103379	-9.378360	0.619403	-0.271467	-0.509017	0.067898	0.009905	0.000297
161	0.830151	0.005000	-0.231112	-0.082808	-9.382688	0.619403	-0.271353	-0.510542	0.081768	0.019099	-0.000962
162	0.835151	0.005000	-0.276195	-0.039240	-9.379875	0.619403	-0.271239	-0.512067	0.083780	0.013688	0.012607
163	0.840151	0.005000	-0.275573	-0.039240	-9.302558	0.619403	-0.271125	-0.513592	0.090301	0.018834	0.006024
164	0.845151	0.005000	-0.274680	0.000000	-9.374624	0.619403	-0.271011	-0.515117	0.085617	0.016339	0.012767
165	0.850151	0.005000	-0.097036	-0.117720	-9.345305	0.619403	-0.270897	-0.516641	0.089249	0.013442	-0.002542
166	0.855151	0.005000	-0.196200	-0.117720	-9.378360	0.619403	-0.270784	-0.518166	0.069595	0.018797	0.012285
167	0.860151	0.005000	-0.168759	-0.133362	-9.366561	0.619403	-0.270670	-0.519691	0.076119	0.013386	0.001448
168	0.865151	0.005000	-0.171149	-0.210389	-9.339120	0.619403	-0.270556	-0.521216	0.083582	0.012091	-0.001391
169	0.870151	0.005000	-0.208060	-0.122894	-9.378360	0.619403	-0.270442	-0.522741	0.066738	0.009723	0.002945
170	0.875151	0.005000	-0.196154	-0.176557	-9.339074	0.619403	-0.270328	-0.524265	0.068884	0.014684	0.004959
171	0.880151	0.005000	-0.235440	-0.190936	-9.412336	0.619403	-0.270214	-0.525790	0.076695	0.014795	0.012146
172	0.885151	0.005000	-0.210344	-0.328064	-9.470984	0.619741	-0.269811	-0.526775	0.084467	0.012748	0.004350
173	0.890151	0.005000	-0.247194	-0.309942	-9.484326	0.620538	-0.269014	-0.527029	0.065039	0.013649	0.007144
174	0.895151	0.005000	-0.174780	-0.283590	-9.408690	0.621334	-0.268218	-0.527283	0.043494	0.009339	0.010962
175	0.900151	0.005000	-0.196200	-0.295722	-9.378360	0.622130	-0.267422	-0.527537	0.027179	0.020476	0.003643
176	0.905151	0.005000	-0.192509	-0.089553	-9.303571	0.622926	-0.266626	-0.527791	0.028212	0.016394	0.010076
177	0.910151	0.005000	-0.195353	-0.077633	-9.417600	0.623722	-0.265830	-0.528045	0.019923	0.012907	0.008168
178	0.915151	0.005000	-0.081602	-0.039240	-9.379921	0.624518	-0.265034	-0.528299	0.027141	0.015691	0.014518
179	0.920151	0.005000	-0.117720	-0.117720	-9.373973	0.625315	-0.264237	-0.528553	0.021863	0.000884	0.020384
180	0.925151	0.005000	-0.149729	-0.149729	-9.285418	0.626111	-0.263441	-0.528807	0.018653	0.010211	0.015708
181	0.930151	0.005000	-0.097692	-0.186594	-9.221400	0.626907	-0.262645	-0.529061	0.017788	0.009190	0.024344
182	0.935151	0.005000	-0.183750	-0.103379	-9.326670	0.627703	-0.261849	-0.529315	-0.007027	0.013351	0.006864
183	0.940151	0.005000	-0.211213	-0.039240	-9.309093	0.628499	-0.261053	-0.529569	0.022089	0.021837	0.011557
184	0.945151	0.005000	-0.135404	-0.035367	-9.439156	0.629296	-0.260256	-0.529823	0.035880	0.017601	0.009582
185	0.950151	0.005000	-0.136432	0.076665	-9.417600	0.629713	-0.259804	-0.530115	0.049192	0.017104	0.010097
186	0.955151	0.005000	-0.267561	0.085599	-9.449721	0.629258	-0.260146	-0.530497	0.059644	0.006010	0.003364
187	0.960151	0.005000	-0.209693	-0.052733	-9.469093	0.628803	-0.260487	-0.530878	0.072400	0.013941	0.000912
188	0.965151	0.005000	-0.206850	-0.156960	-9.428250	0.628347	-0.260829	-0.531259	0.080823	0.006594	0.007619
189	0.970151	0.005000	-0.204100	-0.164860	-9.417600	0.627892	-0.261171	-0.531641	0.087398	0.008616	0.008713
190	0.975151	0.005000	-0.128581	-0.156960	-9.389221	0.627436	-0.261512	-0.532022	0.088703	0.016543	0.005087
191	0.980151	0.005000	-0.156960	-0.141439	-9.456840	0.626981	-0.261854	-0.532404	0.099272	0.005250	0.008442
192	0.985151	0.005000	-0.156960	0.000000	-9.417797	0.626526	-0.262195	-0.532785	0.099057	0.003595	-0.001930
193	0.990151	0.005000	-0.193553	0.000000	-9.310469	0.626070	-0.262537	-0.533166	0.126793	0.005230	0.011491
194	0.995151	0.005000	-0.235440	0.000000	-9.368194	0.625615	-0.262878	-0.533548	0.125039	0.013329	0.005075
195	1.000151	0.005000	-0.164826	-0.164826	-9.378360	0.625160	-0.263220	-0.533929	0.127890	0.013657	0.006305
196	1.005151	0.005000	-0.206910	-0.185490	-9.378360	0.624704	-0.263561	-0.534310	0.126320	0.013491	0.010487
197	1.010151	0.005000	-0.170060	-0.078480	-9.365320	0.624249	-0.263903	-0.534692	0.128258	0.011649	0.002045
198	1.015151	0.005000	-0.258736	-0.141016	-9.378360	0.623947	-0.264179	-0.535024	0.125458	0.005557	0.009892
199	1.020151	0.005000	-0.156960	-0.313920	-9.299880	0.624288	-0.264179	-0.535151	0.098201	0.004256	0.007675
200	1.025151	0.005000	-0.253517	-0.356246	-9.378360	0.624629	-0.264179	-0.535279	0.087141	0.008824	0.012494
201	1.030151	0.005000	-0.259447	-0.329153	-9.354353	0.624971	-0.264179	-0.535406	0.066525	0.017625	0.003130
202	1.035151	0.005000	-0.156960	-0.222597	-9.352674	0.625312	-0.264179	-0.535533	0.050431	0.018304	0.009647
203	1.040151	0.005000	-0.234684	-0.382401	-9.045198	0.625653	-0.264179	-0.535660	0.042633	0.010385	0.006720
204	1.045151	0.005000	-0.021725	-0.385158	-9.392843	0.625995	-0.264179	-0.535787	-0.001766	0.020669	0.013333
205	1.050151	0.005000	-0.166520	-0.024899	-9.491300	0.626336	-0.264179	-0.535914	-0.025049	0.014744	0.015907
206	1.055151	0.005000	-0.117720	-0.033431	-9.382233	0.626677	-0.264179	-0.536041	0.017184	0.006744	0.014327
207	1.060151	0.005000	-0.194385	0.040148	-9.418508	0.627018	-0.264179	-0.536168	0.061372	0.014896	0.007850
208	1.065151	0.005000	-0.121018	-0.183009	-9.378360	0.627360	-0.264179	-0.536295	0.076287	0.012262	0.015046
209	1.070151	0.005000	-0.190058	-0.235440	-9.332978	0.627701	-0.264179	-0.536422	0.066880	0.015547	0.004333
210	1.075151	0.005000	-0.213439	-0.143579	-9.369740	0.628042	-0.264179	-0.536550	0.055162	0.010079	0.005632
211	1.080151	0.005000	-0.212719	-0.117720	-9.322601	0.628367	-0.264119	-0.536677	0.047329	0.013796	0.011171
212	1.085151	0.005000	-0.235440	-0.078480	-9.324916	0.628480	-0.263323	-0.536804	0.046481	0.010503	0.019164
213	1.090151	0.005000	-0.196200	-0.016595	-9.316475	0.628594	-0.262526	-0.536931	0.063034	0.007328	0.008788
214	1.095151	0.005000	-0.176762	-0.176762	-9.221400	0.628708	-0.261730	-0.537057	0.078142	0.017348	-0.002241
215	1.100151	0.005000	-0.218277	-0.179037	-9.221400	0.628822	-0.260934	-0.537184	0.070017	0.017691	0.017787
216	1.105151	0.005000	-0.196200	-0.200708	-9.260640	0.628935	-0.260138	-0.537311	0.046353	0.020107	0.008883
217	1.110151	0.005000	-0.196200	-0.172723	-9.405861	0.629049	-0.259342	-0.537438	0.028988	0.012702	0.010848
218	1.115151	0.005000	-0.156960	-0.147596	-9.426964	0.629163	-0.258546	-0.537565	-0.005027	0.011144	0.002245
219	1.120151	0.005000	-0.209240	-0.124240	-9.489560	0.629277	-0.257749	-0.537692	0.009951	0.003665	0.020620
220	1.125151	0.005000	-0.160636	-0.117720	-9.374684	0.629391	-0.256953	-0.537819	0.021145	0.008191	0.016708
221	1.130151	0.005000	-0.234598	-0.080163	-9.340803	0.629504	-0.256157	-0.537946	0.042071	0.018853	0.014836
222	1.135151	0.005000	-0.196200	-0.194642	-9.455282	0.629618	-0.255361	-0.538073	0.035788	0.007845	0.017000
223	1.140151	0.005000	-0.191798	-0.270278	-9.417600	0.629732	-0.254565	-0.538200	0.037554	0.011612	0.011412
224	1.145151	0.005000	-0.156960	-0.242299	-9.385219	0.629846	-0.253768	-0.538327	0.024608	0.016189	0.012122
225	1.150151	0.005000	-0.048977	-0.166697	-9.447103	0.630176	-0.254924	-0.537606	0.015180	0.011098	0.008964
226	1.155151	0.005000	-0.132030	-0.156960	-9.469305	0.630518	-0.256176	-0.536844	0.029979	0.011600	0.002095
227	1.160151	0.005000	-0.196200	-0.078480	-9.339120	0.630859	-0.257427	-0.536082	0.031248	0.011296	0.011061
228	1.165151	0.005000	-0.153118	-0.139261	-9.339120	0.631200	-0.258679	-0.535319	0.035959	0.020205	0.011425
229	1.170151	0.005000	-0.156960	-0.214897	-9.320423	0.631542	-0.259931	-0.534557	0.037563	0.019986	0.012161
230	1.175151	0.005000	-0.212522	-0.235440	-9.237722	0.631883	-0.261182	-0.533794	0.027684	0.015112	0.010585
231	1.180151	0.005000	-0.274680	-0.156960	-9.443362	0.632224	-0.262434	-0.533032	0.023567	0.017087	0.007529
232	1.185151	0.005000	-0.246074	-0.188863	-9.360389	0.632566	-0.263686	-0.532270	0.023662	0.016749	0.008463
233	1.190151	0.005000	-0.266436	-0.181693	-9.347364	0.632907	-0.264938	-0.531507	0.014024	0.015272	0.008464
234	1.195151	0.005000	-0.269280	-0.224639	-9.412200	0.633248	-0.266189	-0.530745	0.004969	0.005184	0.012201
235	1.200151	0.005000	-0.198787	-0.041827	-9.375773	0.633590	-0.267441	-0.529982	0.016908	0.006903	0.002179
236	1.205151	0.005000	-0.235077	-0.157323	-9.339302	0.633931	-0.268693	-0.529220	0.013519	0.008238	0.012828
237	1.210151	0.005000	-0.120382	-0.125707	-9.341782	0.634272	-0.269944	-0.528458	0.008220	0.018021	0.008804
238	1.215151	0.005000	-0.162072	-0.112608	-9.378360	0.634233	-0.269197	-0.528865	0.026451	0.019664	0.015040
239	1.220151	0.005000	-0.164856	-0.164856	-9.386256	0.634119	-0.268059	-0.529500	0.037850	0.003646	0.018679
240	1.225151	0.005000	-0.156960	-0.196200	-9.399841	0.634005	-0.266921	-0.530135	0.048531	0.020362	0.009165
241	1.230151	0.005000	-0.209784	-0.209784	-9.351192	0.633892	-0.265783	-0.530771	0.027939	0.020259	0.012945
242	1.235151	0.005000	-0.179772	-0.173388	-9.378360	0.633778	-0.264645	-0.531406	0.028827	0.018833	0.003979
243	1.240151	0.005000	-0.138157	-0.058043	-9.320317	0.633664	-0.263508	-0.532042	0.011321	0.018516	0.006295
244	1.245151	0.005000	-0.174553	-0.060887	-9.435193	0.633550	-0.262370	-0.532677	0.025404	0.009667	0.009833
245	1.250151	0.005000	-0.201725	-0.108323	-9.402678	0.633437	-0.261232	-0.533312	-0.001296	0.013256	0.006477
246	1.255151	0.005000	-0.235440	-0.092972	-9.339120	0.633323	-0.260094	-0.533948	0.029433	0.008992	0.006956
247	1.260151	0.005000	-0.265150	0.009530	-9.368830	0.633209	-0.258956	-0.534583	0.043742	0.013112	-0.000155
248	1.265151	0.005000	-0.164100	0.007140	-9.403320	0.633095	-0.257818	-0.535218	0.057982	0.010723	0.006575
249	1.270151	0.005000	-0.222552	-0.087072	-9.404712	0.632982	-0.256680	-0.535854	0.061968	0.003975	0.000721
250	1.275151	0.005000	-0.079950	-0.196200	-9.262110	0.632868	-0.255542	-0.536489	0.067068	0.017810	-0.008277
251	1.280151	0.005000	-0.194354	-0.196200	-9.338197	0.632836	-0.255224	-0.536667	0.079706	0.006199	0.014214
252	1.285151	0.005000	-0.231673	-0.231673	-9.425133	0.632836	-0.255224	-0.536667	0.065896	0.010588	-0.009515
253	1.290151	0.005000	-0.130941	-0.163571	-9.352341	0.632836	-0.255224	-0.536667	0.050136	0.007036	0.011520
254	1.295151	0.005000	-0.138748	-0.126826	-9.426706	0.632836	-0.255224	-0.536667	0.043261	0.012967	-0.002658
255	1.300151	0.005000	-0.262835	-0.156960	-9.378360	0.632836	-0.255224	-0.536667	0.055385	0.012726	0.013440
256	1.305151	0.005000	-0.132409	-0.171649	-9.378360	0.632836	-0.255224	-0.536667	0.043765	0.017215	0.004214
257	1.310151	0.005000	-0.201313	-0.179136	-9.344233	0.632836	-0.255224	-0.536667	0.049481	0.007787	-0.005037
258	1.315151	0.005000	-0.137627	-0.156960	-9.417600	0.632836	-0.255224	-0.536667	0.024921	0.007383	0.002227
259	1.320151	0.005000	-0.173642	-0.078480	-9.411723	0.632836	-0.255224	-0.536667	0.038793	0.018326	-0.001629
260	1.325151	0.005000	-0.168325	-0.117720	-9.339120	0.632836	-0.255224	-0.536667	0.038811	0.026318	0.011877
261	1.330151	0.005000	-0.178562	-0.089281	-9.378360	0.632836	-0.255224	-0.536667	0.042265	0.019231	0.009236
262	1.335151	0.005000	-0.235440	-0.117720	-9.425557	0.632836	-0.255224	-0.536667	0.049000	0.022784	0.012748
263	1.340151	0.005000	-0.229873	-0.117720	-9.372793	0.632836	-0.255224	-0.536667	0.044604	0.008554	0.006101
264	1.345151	0.005000	-0.198923	-0.156960	-9.341843	0.632701	-0.255291	-0.536667	0.044846	0.004715	-0.001427
265	1.350151	0.005000	-0.196321	-0.117841	-9.456598	0.632474	-0.255405	-0.536667	0.043598	0.011422	0.020835
266	1.355151	0.005000	-0.117720	-0.151030	-9.420565	0.632247	-0.255519	-0.536667	0.062162	0.013162	0.004407
267	1.360151	0.005000	-0.214080	-0.201540	-9.378360	0.632019	-0.255632	-0.536667	0.063784	0.010917	0.010711
268	1.365151	0.005000	-0.274680	-0.171649	-9.409416	0.631792	-0.255746	-0.536667	0.033431	0.012258	0.005583
269	1.370151	0.005000	-0.246138	-0.214045	-9.428298	0.631564	-0.255860	-0.536667	0.025272	0.018623	0.007278
270	1.375151	0.005000	-0.170378	-0.197214	-9.508484	0.631337	-0.255973	-0.536667	0.030218	0.010037	0.014183
271	1.380151	0.005000	-0.196200	-0.101458	-9.496080	0.631109	-0.256087	-0.536667	0.033786	0.015090	0.011638
272	1.385151	0.005000	-0.196200	-0.177563	-9.436237	0.630882	-0.256201	-0.536667	0.031744	0.017275	0.013331
273	1.390151	0.005000	-0.235440	-0.099961	-9.399841	0.630654	-0.256315	-0.536667	0.039706	0.009176	0.002941
274	1.395151	0.005000	-0.244500	-0.132810	-9.378360	0.630427	-0.256428	-0.536667	0.032675	0.008851	0.016260
275	1.400151	0.005000	-0.235440	-0.196200	-9.376696	0.630199	-0.256542	-0.536667	0.059308	0.009841	0.002171
276	1.405151	0.005000	-0.206350	-0.088177	-9.319273	0.629972	-0.256656	-0.536667	0.044510	0.012620	0.001097
277	1.410151	0.005000	-0.171573	-0.071174	-9.371054	0.629798	-0.256983	-0.536429	0.017672	0.005164	0.008742
278	1.415151	0.005000	-0.235440	-0.078480	-9.413137	0.629684	-0.257552	-0.535920	0.039960	0.014779	0.003224
279	1.420151	0.005000	-0.271404	-0.081756	-9.417600	0.629570	-0.258121	-0.535411	0.071922	0.013361	0.013812
280	1.425151	0.005000	-0.157266	-0.156960	-9.417600	0.629456	-0.258691	-0.534903	0.084947	0.009132	0.009474
281	1.430151	0.005000	-0.196200	-0.156960	-9.303026	0.629342	-0.259260	-0.534394	0.064992	0.019051	0.004679
282	1.435151	0.005000	-0.168941	-0.190210	-9.345110	0.629228	-0.259829	-0.533886	0.069802	0.011698	0.009998
283	1.440151	0.005000	-0.187733	-0.086947	-9.347587	0.629114	-0.260398	-0.533377	0.055540	0.009872	-0.001881
284	1.445151	0.005000	-0.145751	-0.145751	-9.417600	0.629000	-0.260968	-0.532869	0.042437	0.008360	0.012624
285	1.450151	0.005000	-0.207334	-0.131773	-9.431653	0.628887	-0.261537	-0.532360	0.042241	0.009236	0.007102
286	1.455151	0.005000	-0.229087	-0.072127	-9.339120	0.628773	-0.262106	-0.531852	0.038166	0.010633	0.003908
287	1.460151	0.005000	-0.195534	-0.058527	-9.339120	0.628659	-0.262675	-0.531343	0.032781	0.016962	0.013235
288	1.465151	0.005000	-0.196200	-0.039240	-9.404893	0.628545	-0.263245	-0.530835	0.032112	0.013310	0.007983
289	1.470151	0.005000	-0.186428	-0.093214	-9.329348	0.628431	-0.263814	-0.530326	0.040288	0.011441	0.011325
290	1.475151	0.005000	-0.196200	-0.093940	-9.299880	0.628521	-0.263893	-0.530182	0.044421	0.016315	0.006878
291	1.480151	0.005000	-0.166460	-0.078480	-9.397360	0.628976	-0.263097	-0.530691	0.040742	0.007575	0.011057
292	1.485151	0.005000	-0.052552	-0.162920	-9.424256	0.629432	-0.262300	-0.531199	0.048696	0.005630	0.011012
293	1.490151	0.005000	-0.165522	0.026397	-9.378360	0.629887	-0.261504	-0.531707	0.054645	0.009736	0.012341
294	1.495151	0.005000	-0.196200	-0.155523	-9.340557	0.630342	-0.260707	-0.532215	0.057604	0.020172	0.007538
295	1.500151	0.005000	-0.196200	-0.155553	-9.454026	0.630797	-0.259911	-0.532724	0.058791	0.017828	0.000768
296	1.505151	0.005000	-0.270839	-0.082321	-9.413759	0.631252	-0.259114	-0.533232	0.071757	0.020784	0.008289
297	1.510151	0.005000	-0.202919	-0.039240	-9.482643	0.631707	-0.258317	-0.533740	0.075736	0.012598	0.003982
298	1.515151	0.005000	-0.175930	-0.089266	-9.447355	0.632162	-0.257521	-0.534249	0.066965	0.010696	0.006696
299	1.520151	0.005000	-0.220857	-0.183871	-9.322283	0.632618	-0.256724	-0.534757	0.055184	0.006075	0.011433
300	1.525151	0.005000	-0.147127	-0.196200	-9.363656	0.633073	-0.255928	-0.535265	0.054532	0.013799	0.010902
301	1.530151	0.005000	-0.121865	-0.135268	-9.378360	0.633528	-0.255131	-0.535774	0.059180	0.012916	0.016004
302	1.535151	0.005000	-0.235440	-0.176029	-9.298778	0.633983	-0.254335	-0.536282	0.056072	0.013081	0.005768
303	1.540151	0.005000	-0.140486	-0.101246	-9.339120	0.634245	-0.253759	-0.536667	0.071435	0.005833	0.010815
304	1.545151	0.005000	-0.131350	-0.168941	-9.313510	0.633904	-0.253872	-0.536667	0.065144	0.014245	0.009186
305	1.550151	0.005000	-0.263768	-0.139544	-9.356536	0.633563	-0.253986	-0.536667	0.059082	0.014537	0.012354
306	1.555151	0.005000	-0.313920	-0.218649	-9.378360	0.633222	-0.254100	-0.536667	0.052785	0.013717	0.020894
307	1.560151	0.005000	-0.190581	-0.196200	-9.355977	0.632881	-0.254214	-0.536667	0.060073	0.012942	0.003402
308	1.565151	0.005000	-0.199377	-0.042417	-9.351827	0.632540	-0.254327	-0.536667	0.042760	0.011301	0.018457
309	1.570151	0.005000	-0.235440	-0.118053	-9.378027	0.632198	-0.254441	-0.536667	0.041233	0.012299	0.001977
310	1.575151	0.005000	-0.198711	-0.156960	-9.375849	0.631857	-0.254555	-0.536667	0.053109	0.012108	0.016721
311	1.580151	0.005000	-0.152059	-0.117720	-9.348922	0.631516	-0.254669	-0.536667	0.056397	0.011173	0.011330
312	1.585151	0.005000	-0.235440	-0.164705	-9.346865	0.631175	-0.254783	-0.536667	0.064568	0.012860	0.009237
313	1.590151	0.005000	-0.156960	-0.107477	-9.328877	0.630834	-0.254896	-0.536667	0.061136	0.005938	0.006365
314	1.595151	0.005000	-0.143648	-0.209512	-9.417600	0.630493	-0.255010	-0.536667	0.066093	0.005974	0.007778
315	1.600151	0.005000	-0.203824	-0.203824	-9.441032	0.630151	-0.255124	-0.536667	0.057479	0.009526	0.015266
316	1.605151	0.005000	-0.235440	-0.253638	-9.396558	0.629837	-0.255278	-0.536652	0.049093	0.007757	0.018918
317	1.610151	0.005000	-0.156960	-0.178002	-9.299880	0.629724	-0.255733	-0.536525	0.061572	0.012870	0.008205
318	1.615151	0.005000	-0.181300	-0.181300	-9.393260	0.629610	-0.256188	-0.536398	0.055641	0.008751	0.006879
319	1.620151	0.005000	-0.103500	-0.156960	-9.365850	0.629496	-0.256643	-0.536271	0.050933	0.014141	-0.004057
320	1.625151	0.005000	-0.196200	-0.265014	-9.299880	0.629382	-0.257098	-0.536144	0.041916	0.014293	0.007912
321	1.630151	0.005000	-0.203105	-0.150055	-9.306785	0.629269	-0.257553	-0.536017	0.030385	0.019947	0.009059
322	1.635151	0.005000	-0.230993	-0.139170	-9.343567	0.629155	-0.258008	-0.535890	0.054917	0.018163	0.013164
323	1.640151	0.005000	-0.080083	-0.006414	-9.340723	0.629041	-0.258463	-0.535763	0.059240	0.016762	0.009763
324	1.645151	0.005000	-0.117720	-0.194960	-9.416360	0.628927	-0.258918	-0.535636	0.055319	0.010942	-0.002855
325	1.650151	0.005000	-0.188939	-0.149699	-9.488819	0.628813	-0.259373	-0.535509	0.059960	0.016715	0.011801
326	1.655151	0.005000	-0.156960	-0.163434	-9.437023	0.628700	-0.259828	-0.535381	0.059854	0.013885	0.004514
327	1.660151	0.005000	-0.235440	-0.156960	-9.435513	0.628586	-0.260283	-0.535254	0.052435	0.010319	0.022123
328	1.665151	0.005000	-0.180347	-0.011693	-9.496080	0.628472	-0.260738	-0.535127	0.051306	0.016943	0.010001
329	1.670151	0.005000	-0.196200	-0.156960	-9.456840	0.628358	-0.261193	-0.535000	0.063236	0.009645	0.001468
330	1.675151	0.005000	-0.134647	-0.168502	-9.316807	0.628585	-0.260853	-0.535000	0.065621	0.008422	0.015436
331	1.680151	0.005000	-0.176429	-0.156960	-9.397526	0.628813	-0.260512	-0.535000	0.062249	0.012216	0.008188
332	1.685151	0.005000	-0.117720	-0.179575	-9.400975	0.629040	-0.260170	-0.535000	0.047599	0.018700	0.016063
333	1.690151	0.005000	-0.117720	-0.156960	-9.339120	0.629268	-0.259829	-0.535000	0.052840	0.011879	0.006967
334	1.695151	0.005000	-0.129126	-0.117720	-9.288474	0.629496	-0.259487	-0.535000	0.048774	0.014824	0.002572
335	1.700151	0.005000	-0.244106	-0.165626	-9.365117	0.629723	-0.259146	-0.535000	0.053979	0.003065	0.016740
336	1.705151	0.005000	-0.262306	-0.123907	-9.384547	0.629951	-0.258804	-0.535000	0.058259	0.016791	0.012459
337	1.710151	0.005000	-0.160803	-0.117720	-9.342963	0.630179	-0.258463	-0.535000	0.052222	0.009660	0.009459
338	1.715151	0.005000	-0.116298	-0.120564	-9.378360	0.630406	-0.258121	-0.535000	0.057781	0.010724	-0.003431
339	1.720151	0.005000	-0.078480	-0.158382	-9.378360	0.630634	-0.257779	-0.535000	0.060942	0.016344	0.004885
340	1.725151	0.005000	-0.192343	-0.156960	-9.335263	0.630862	-0.257438	-0.535000	0.070122	0.008697	0.008600
341	1.730151	0.005000	-0.189544	-0.268024	-9.404288	0.631089	-0.257096	-0.535000	0.051640	0.008553	-0.002242
342	1.735151	0.005000	-0.186700	-0.116480	-9.447340	0.631317	-0.256755	-0.535000	0.040390	0.013131	0.018277
343	1.740151	0.005000	-0.278295	-0.039240	-9.444965	0.631242	-0.256817	-0.534662	0.028790	0.014621	0.021391
344	1.745151	0.005000	-0.210919	-0.063761	-9.324401	0.631128	-0.256931	-0.534281	0.061092	0.015018	0.023327
345	1.750151	0.005000	-0.231325	-0.121835	-9.335005	0.631015	-0.257044	-0.533900	0.057208	0.011599	0.002786
346	1.755151	0.005000	-0.097767	-0.196200	-9.358407	0.630901	-0.257158	-0.533519	0.069492	0.012987	0.002255
347	1.760151	0.005000	-0.196200	-0.156960	-9.417600	0.630787	-0.257272	-0.533138	0.057353	0.005862	0.006743
348	1.765151	0.005000	-0.106008	-0.198252	-9.405888	0.630674	-0.257386	-0.532757	0.052630	0.014432	0.009965
349	1.770151	0.005000	-0.156960	-0.156960	-9.417600	0.630560	-0.257500	-0.532376	0.056628	0.020861	0.013042
350	1.775151	0.005000	-0.187820	-0.156960	-9.400839	0.630446	-0.257613	-0.531995	0.051559	0.017198	0.004525
351	1.780151	0.005000	-0.111730	-0.123710	-9.345110	0.630333	-0.257727	-0.531614	0.047155	0.008054	0.014888
352	1.785151	0.005000	-0.114574	-0.156960	-9.378360	0.630219	-0.257841	-0.531233	0.046593	0.009261	0.006010
353	1.790151	0.005000	-0.156654	-0.195894	-9.378666	0.630105	-0.257955	-0.530852	0.047790	0.018397	0.013013
354	1.795151	0.005000	-0.192055	-0.268463	-9.417600	0.629992	-0.258068	-0.530471	0.048125	0.011096	0.006678
355	1.800151	0.005000	-0.230524	-0.196200	-9.466673	0.629878	-0.258182	-0.530090	0.045855	0.007497	0.001040
356	1.805151	0.005000	-0.211721	-0.188440	-9.480559	0.630112	-0.258122	-0.530485	0.046418	0.003956	0.014802
357	1.810151	0.005000	-0.069691	-0.186050	-9.339120	0.630453	-0.258008	-0.531120	0.051345	0.011429	0.018659
358	1.815151	0.005000	-0.157217	-0.248434	-9.365109	0.630794	-0.257895	-0.531755	0.057679	0.020797	0.006762
359	1.820151	0.005000	-0.227310	-0.243570	-9.347250	0.631135	-0.257781	-0.532390	0.070413	0.018620	0.012883
360	1.825151	0.005000	-0.156960	-0.232626	-9.299880	0.631476	-0.257667	-0.533025	0.046867	0.009476	0.000463
361	1.830151	0.005000	-0.156960	-0.274680	-9.357303	0.631818	-0.257553	-0.533660	0.048748	0.003338	0.015208
362	1.835151	0.005000	-0.219632	-0.149336	-9.362552	0.632159	-0.257439	-0.534295	0.047202	0.015588	0.006159
363	1.840151	0.005000	-0.209164	-0.169924	-9.365396	0.632500	-0.257326	-0.534930	0.054028	0.010024	0.009472
364	1.845151	0.005000	-0.274680	-0.206320	-9.378360	0.632841	-0.257212	-0.535565	0.053916	0.013553	0.003296
365	1.850151	0.005000	-0.211660	-0.173010	-9.276100	0.633182	-0.257098	-0.536200	0.063442	0.016272	0.005327
366	1.855151	0.005000	-0.240326	-0.171618	-9.383246	0.633523	-0.256984	-0.536835	0.055710	0.012338	0.009231
367	1.860151	0.005000	-0.231306	-0.159027	-9.304014	0.633865	-0.256871	-0.537470	0.059764	0.013784	0.005158
368	1.865151	0.005000	-0.273682	-0.196200	-9.378360	0.634206	-0.256757	-0.538105	0.044656	0.009521	0.011965
369	1.870151	0.005000	-0.271503	-0.156960	-9.378360	0.634255	-0.256497	-0.538252	0.026363	0.008279	0.012684
370	1.875151	0.005000	-0.235440	-0.111699	-9.339120	0.634141	-0.256156	-0.538124	0.033898	0.013177	0.011810
371	1.880151	0.005000	-0.151757	-0.117720	-9.400582	0.634028	-0.255814	-0.537997	0.031926	0.008847	0.014297
372	1.885151	0.005000	-0.134451	-0.117720	-9.417600	0.633914	-0.255473	-0.537870	0.039653	0.017216	0.015058
373	1.890151	0.005000	-0.182101	-0.182101	-9.417600	0.633800	-0.255132	-0.537743	0.062084	0.017539	0.012469
374	1.895151	0.005000	-0.218966	-0.196200	-9.339120	0.633686	-0.254790	-0.537616	0.048064	0.011819	0.001027
375	1.900151	0.005000	-0.235440	-0.196200	-9.358437	0.633573	-0.254449	-0.537489	0.039835	0.014836	0.004102
376	1.905151	0.005000	-0.196200	-0.162043	-9.299880	0.633459	-0.254108	-0.537362	0.022261	0.010197	0.004640
377	1.910151	0.005000	-0.196200	-0.068617	-9.334294	0.633345	-0.253766	-0.537235	0.032681	0.009179	0.003791
378	1.915151	0.005000	-0.117720	-0.141409	-9.362809	0.633231	-0.253425	-0.537108	0.048018	0.011100	0.016120
379	1.920151	0.005000	-0.126830	-0.187090	-9.417600	0.633118	-0.253084	-0.536981	0.056696	0.012786	-0.001005
380	1.925151	0.005000	-0.189574	-0.124346	-9.371734	0.633004	-0.252742	-0.536854	0.054065	0.011009	0.015854
381	1.930151	0.005000	-0.199982	-0.181073	-9.331556	0.632890	-0.252401	-0.536727	0.051293	0.016886	0.001842
382	1.935151	0.005000	-0.235440	-0.116771	-9.303675	0.632597	-0.252418	-0.536667	0.059669	0.009819	0.014768
383	1.940151	0.005000	-0.235440	-0.154056	-9.381264	0.632142	-0.252759	-0.536667	0.059109	0.017637	0.003745
384	1.945151	0.005000	-0.161256	-0.196200	-9.308472	0.631687	-0.253100	-0.536667	0.060028	0.011108	0.005820
385	1.950151	0.005000	-0.235440	-0.281432	-9.325616	0.631232	-0.253442	-0.536667	0.052329	0.013456	0.008636
386	1.955151	0.005000	-0.205715	-0.136750	-9.270155	0.630777	-0.253783	-0.536667	0.048666	0.015456	0.003486
387	1.960151	0.005000	-0.208244	-0.078480	-9.323969	0.630322	-0.254124	-0.536667	0.053677	0.016720	0.015521
388	1.965151	0.005000	-0.132454	-0.117720	-9.378360	0.629867	-0.254465	-0.536667	0.067170	0.011912	0.015111
389	1.970151	0.005000	-0.156960	-0.156960	-9.360782	0.629413	-0.254806	-0.536667	0.075482	0.016232	0.006921
390	1.975151	0.005000	-0.158563	-0.216622	-9.359542	0.628958	-0.255147	-0.536667	0.068001	0.010338	0.008041
391	1.980151	0.005000	-0.179772	-0.156960	-9.378360	0.628503	-0.255489	-0.536667	0.057383	0.009351	0.000514
392	1.985151	0.005000	-0.170709	-0.182451	-9.380366	0.628048	-0.255830	-0.536667	0.047737	0.013761	0.006482
393	1.990151	0.005000	-0.224231	-0.117720	-9.417600	0.627593	-0.256171	-0.536667	0.057535	0.012268	0.004517
394	1.995151	0.005000	-0.165423	-0.109257	-9.426063	0.627138	-0.256512	-0.536667	0.060126	0.018995	0.010672
395	2.000151	0.005000	-0.196200	-0.162935	-9.417600	0.627095	-0.256670	-0.536616	0.068621	0.008196	0.004971
396	2.005151	0.005000	-0.160091	-0.232309	-9.417600	0.627664	-0.256556	-0.536489	0.060578	0.017072	0.006369
397	2.010151	0.005000	-0.236196	-0.196200	-9.340633	0.628233	-0.256443	-0.536362	0.052807	0.006349	0.017785
398	2.015151	0.005000	-0.274680	-0.196200	-9.417600	0.628802	-0.256329	-0.536235	0.043835	0.011255	0.002722
399	2.020151	0.005000	-0.201131	-0.161891	-9.383291	0.629371	-0.256215	-0.536107	0.051967	0.011257	0.017674
400	2.025151	0.005000	-0.266905	-0.164735	-9.417600	0.629940	-0.256101	-0.535980	0.043083	0.009706	0.014241
401	2.030151	0.005000	-0.235440	-0.107555	-9.330376	0.630508	-0.255988	-0.535853	0.053817	0.008985	0.015272
402	2.035151	0.005000	-0.196200	-0.130941	-9.352129	0.631077	-0.255874	-0.535726	0.043704	0.008561	0.010651
403	2.040151	0.005000	-0.235440	-0.078480	-9.291560	0.631646	-0.255760	-0.535599	0.061206	0.008806	0.004982
404	2.045151	0.005000	-0.256452	-0.099492	-9.475068	0.632215	-0.255646	-0.535472	0.057869	0.010331	0.016133
405	2.050151	0.005000	-0.217272	-0.156960	-9.378360	0.632784	-0.255533	-0.535345	0.064686	0.008942	0.014606
406	2.055151	0.005000	-0.211703	-0.117720	-9.339120	0.633353	-0.255419	-0.535218	0.054552	0.012961	0.015831
407	2.060151	0.005000	-0.209572	-0.105225	-9.274012	0.633922	-0.255305	-0.535091	0.037228	0.007622	0.007706
408	2.065151	0.005000	-0.177140	0.010090	-9.309970	0.633775	-0.255679	-0.534564	0.046010	0.012964	-0.003861
409	2.070151	0.005000	-0.196200	-0.023145	-9.409885	0.631841	-0.257272	-0.533040	0.064734	0.012864	0.013080
410	2.075151	0.005000	-0.117720	-0.166702	-9.442227	0.629908	-0.258864	-0.531516	0.078833	0.007899	0.002604
411	2.080151	0.005000	-0.119771	-0.237491	-9.374258	0.627974	-0.260456	-0.529992	0.069491	0.012112	0.001337
412	2.085151	0.005000	-0.234714	-0.313557	-9.338757	0.626041	-0.262049	-0.528468	0.069143	0.004360	0.002525
413	2.090151	0.005000	-0.307506	-0.235440	-9.335913	0.624107	-0.263641	-0.526944	0.053236	0.011813	0.005812
414	2.095151	0.005000	-0.274680	-0.095428	-9.305529	0.622174	-0.265233	-0.525419	0.039706	0.002725	0.014950
415	2.100151	0.005000	-0.156960	-0.117720	-9.269066	0.620240	-0.266826	-0.523895	0.058144	0.011291	0.003912
416	2.105151	0.005000	-0.263410	-0.179500	-9.299880	0.618306	-0.268418	-0.522371	0.067260	0.009011	0.013831
417	2.110151	0.005000	-0.263060	-0.129340	-9.221400	0.616373	-0.270010	-0.520847	0.072011	0.005018	0.003002
418	2.115151	0.005000	-0.280943	-0.202463	-9.299880	0.614439	-0.271603	-0.519323	0.052125	0.011210	0.013842
419	2.120151	0.005000	-0.234865	-0.137053	-9.320362	0.612506	-0.273195	-0.517799	0.043821	0.013092	0.009065
420	2.125151	0.005000	-0.196200	-0.200914	-9.361097	0.610572	-0.274787	-0.516275	0.053035	0.017089	0.000416
421	2.130151	0.005000	-0.127613	-0.225547	-9.353793	0.609048	-0.276063	-0.515042	0.058880	0.013938	0.011659
422	2.135151	0.005000	-0.117720	-0.239192	-9.362779	0.609617	-0.275722	-0.515296	0.046595	0.010798	0.002907
423	2.140151	0.005000	-0.174931	-0.156960	-9.447854	0.610186	-0.275381	-0.515550	0.043198	0.016405	0.012594
424	2.145151	0.005000	-0.242051	-0.163571	-9.410989	0.610755	-0.275039	-0.515804	0.035819	0.016874	0.009920
425	2.150151	0.005000	-0.274680	-0.192433	-9.342887	0.611324	-0.274698	-0.516058	0.042767	0.018049	0.011958
426	2.155151	0.005000	-0.235440	-0.233594	-9.340966	0.611893	-0.274357	-0.516312	0.061510	0.017339	0.002232
427	2.160151	0.005000	-0.273195	-0.156960	-9.417600	0.612462	-0.274015	-0.516566	0.073577	0.018867	0.006790
428	2.165151	0.005000	-0.226817	-0.126343	-9.382671	0.613031	-0.273674	-0.516820	0.066818	0.007844	0.005029
429	2.170151	0.005000	-0.203355	-0.117720	-9.314190	0.613600	-0.273333	-0.517074	0.061034	0.017862	-0.001838
430	2.175151	0.005000	-0.235440	-0.176202	-9.299880	0.614169	-0.272991	-0.517329	0.067739	0.016706	0.006547
431	2.180151	0.005000	-0.169334	-0.247814	-9.287506	0.614738	-0.272650	-0.517583	0.056455	0.013715	0.016213
432	2.185151	0.005000	-0.132938	-0.235440	-9.378360	0.615307	-0.272309	-0.517837	0.050519	0.010465	0.014407
433	2.190151	0.005000	-0.178386	-0.274680	-9.399786	0.615876	-0.271967	-0.518091	0.055041	0.015556	0.013913
434	2.195151	0.005000	-0.214988	-0.235440	-9.378360	0.616439	-0.271605	-0.518393	0.055237	0.009314	-0.003181
435	2.200151	0.005000	-0.212144	-0.156960	-9.401656	0.616895	-0.270808	-0.519663	0.049030	0.011366	0.002990
436	2.205151	0.005000	-0.182941	-0.183477	-9.378360	0.617350	-0.270011	-0.520934	0.051736	0.008681	0.004570
437	2.210151	0.005000	-0.106995	-0.156960	-9.360570	0.617805	-0.269215	-0.522205	0.053248	0.008721	0.012890
438	2.215151	0.005000	-0.188319	-0.219677	-9.386241	0.618260	-0.268418	-0.523476	0.043408	0.009348	0.011344
439	2.220151	0.005000	-0.196200	-0.044731	-9.417600	0.618715	-0.267622	-0.524746	0.052266	0.011957	0.013751
440	2.225151	0.005000	-0.235440	-0.086422	-9.417600	0.619170	-0.266825	-0.526017	0.047245	0.004447	0.013813
441	2.230151	0.005000	-0.196397	-0.118113	-9.417600	0.619625	-0.266029	-0.527288	0.057238	0.010690	0.009652
442	2.235151	0.005000	-0.114679	-0.196200	-9.417600	0.620081	-0.265232	-0.528558	0.053823	0.014706	0.009712
443	2.240151	0.005000	-0.101473	-0.190784	-9.339120	0.620536	-0.264436	-0.529829	0.069355	0.010962	0.012591
444	2.245151	0.005000	-0.148701	-0.196200	-9.386619	0.620991	-0.263639	-0.531100	0.059917	0.007993	-0.000551
445	2.250151	0.005000	-0.185097	-0.196200	-9.417600	0.621446	-0.262842	-0.532370	0.069923	0.010112	0.012754
446	2.255151	0.005000	-0.170438	-0.221962	-9.378360	0.621901	-0.262046	-0.533641	0.042689	0.009531	0.012163
447	2.260151	0.005000	-0.196200	-0.339969	-9.378360	0.622356	-0.261249	-0.534912	0.066662	0.010560	0.024342
448	2.265151	0.005000	-0.255968	-0.115905	-9.378360	0.622600	-0.260876	-0.535000	0.057044	0.013621	0.010197
449	2.270151	0.005000	-0.235440	-0.139276	-9.317564	0.622827	-0.260535	-0.535000	0.054244	0.010160	0.004250
450	2.275151	0.005000	-0.181181	-0.171979	-9.387561	0.623055	-0.260193	-0.535000	0.043342	0.003175	0.019809
451	2.280151	0.005000	-0.196200	-0.158806	-9.299880	0.623283	-0.259852	-0.535000	0.048094	0.014496	0.003047
452	2.285151	0.005000	-0.245061	-0.156960	-9.309501	0.623510	-0.259511	-0.535000	0.040895	0.007527	0.009042
453	2.290151	0.005000	-0.156960	-0.196200	-9.356668	0.623738	-0.259169	-0.535000	0.024808	0.011811	0.012728
454	2.295151	0.005000	-0.196200	-0.156960	-9.308654	0.623965	-0.258828	-0.535000	0.037736	0.012449	0.010321
455	2.300151	0.005000	-0.194657	-0.080023	-9.378360	0.624193	-0.258486	-0.535000	0.041472	0.011476	0.007713
456	2.305151	0.005000	-0.081082	-0.193598	-9.340421	0.624420	-0.258145	-0.535000	0.054749	0.011117	0.010797
457	2.310151	0.005000	-0.199876	-0.160636	-9.453164	0.624648	-0.257804	-0.535000	0.047525	0.012641	0.009774
458	2.315151	0.005000	-0.156960	-0.268160	-9.437281	0.624876	-0.257462	-0.535000	0.056172	0.014794	0.005405
459	2.320151	0.005000	-0.156960	-0.186836	-9.456840	0.625103	-0.257121	-0.535000	0.053048	0.018527	0.011160
460	2.325151	0.005000	-0.235440	-0.168714	-9.445086	0.625331	-0.256779	-0.535000	0.062249	0.011252	0.004813
461	2.330151	0.005000	-0.196200	-0.210798	-9.471438	0.625651	-0.256253	-0.534690	0.067401	0.018061	0.007659
462	2.335151	0.005000	-0.174138	-0.223146	-9.400422	0.625992	-0.255684	-0.534309	0.054642	-0.000846	0.011942
463	2.340151	0.005000	-0.196200	-0.274680	-9.417600	0.626333	-0.255116	-0.533928	0.041562	0.010596	0.006014
464	2.345151	0.005000	-0.095059	-0.252019	-9.372279	0.626675	-0.254547	-0.533547	0.036860	0.008714	0.011854
465	2.350151	0.005000	-0.171149	-0.167821	-9.431789	0.627016	-0.253978	-0.533166	0.036347	0.008781	0.001451
466	2.355151	0.005000	-0.246785	-0.168305	-9.406255	0.627357	-0.253410	-0.532785	0.027536	0.009454	0.007603
467	2.360151	0.005000	-0.218437	-0.156960	-9.409099	0.627698	-0.252841	-0.532404	0.022242	0.012907	0.006853
468	2.365151	0.005000	-0.175340	-0.117720	-9.378360	0.628040	-0.252273	-0.532023	0.020607	0.017566	0.007175
469	2.370151	0.005000	-0.238723	-0.049088	-9.339120	0.628381	-0.251704	-0.531642	0.022074	0.014021	0.008719
470	2.375151	0.005000	-0.195756	-0.235440	-9.378360	0.628722	-0.251135	-0.531261	0.031174	0.019571	0.009871
471	2.380151	0.005000	-0.231537	-0.198151	-9.378360	0.629063	-0.250567	-0.530880	0.049128	0.010507	0.017079
472	2.385151	0.005000	-0.274680	-0.230645	-9.339120	0.629405	-0.249998	-0.530499	0.027164	0.013380	0.003994
473	2.390151	0.005000	-0.243079	-0.211478	-9.315158	0.629746	-0.249429	-0.530118	0.031508	0.011542	0.009083
474	2.395151	0.005000	-0.274680	-0.206214	-9.368346	0.629930	-0.249569	-0.530439	0.007578	0.009498	0.014030
475	2.400151	0.005000	-0.195534	-0.196200	-9.351978	0.630043	-0.250024	-0.531075	0.036062	0.016462	0.006636
476	2.405151	0.005000	-0.149124	-0.235440	-9.339120	0.630157	-0.250479	-0.531710	0.025983	0.012033	0.010996
477	2.410151	0.005000	-0.199286	-0.271594	-9.336034	0.630271	-0.250934	-0.532345	0.032763	0.017558	0.007086
478	2.415151	0.005000	-0.141243	-0.274680	-9.357439	0.630385	-0.251389	-0.532981	0.040137	0.014572	0.013723
479	2.420151	0.005000	-0.164145	-0.180725	-9.370070	0.630498	-0.251845	-0.533616	0.045369	0.012241	0.013502
480	2.425151	0.005000	-0.183421	-0.182518	-9.351899	0.630612	-0.252300	-0.534251	0.054040	0.011747	0.005504
481	2.430151	0.005000	-0.196200	-0.196200	-9.310121	0.630726	-0.252755	-0.534887	0.042243	0.009536	0.014667
482	2.435151	0.005000	-0.203687	-0.110233	-9.346607	0.630840	-0.253210	-0.535522	0.034159	0.012724	0.005563
483	2.440151	0.005000	-0.196200	-0.196200	-9.373338	0.630953	-0.253665	-0.536157	0.048881	0.013888	0.013888
484	2.445151	0.005000	-0.194022	-0.159138	-9.417600	0.631067	-0.254120	-0.536792	0.052322	0.015404	0.000651
485	2.450151	0.005000	-0.156960	-0.196200	-9.379026	0.631181	-0.254575	-0.537428	0.052229	0.009387	-0.000800
486	2.455151	0.005000	-0.121189	-0.228501	-9.339120	0.631295	-0.255031	-0.538063	0.044126	0.009716	0.005907
487	2.460151	0.005000	-0.072580	-0.135419	-9.445041	0.631408	-0.255159	-0.538260	0.041823	0.013339	0.009723
488	2.465151	0.005000	-0.148216	-0.108976	-9.378360	0.631522	-0.255045	-0.538133	0.040739	0.006127	0.015290
489	2.470151	0.005000	-0.291683	-0.213203	-9.316883	0.631636	-0.254931	-0.538006	0.051293	0.005401	0.002695
490	2.475151	0.005000	-0.274680	-0.170922	-9.378360	0.631750	-0.254817	-0.537879	0.055943	0.014138	0.015683
491	2.480151	0.005000	-0.229813	-0.134526	-9.456840	0.631864	-0.254703	-0.537752	0.059366	0.011948	-0.000848
492	2.485151	0.005000	-0.235440	-0.137937	-9.398179	0.631978	-0.254589	-0.537625	0.066997	0.006782	0.004760
493	2.490151	0.005000	-0.179000	-0.134920	-9.439640	0.632091	-0.254476	-0.537498	0.055478	0.009801	0.015827
494	2.495151	0.005000	-0.181844	-0.274680	-9.382187	0.632205	-0.254362	-0.537371	0.057539	0.011963	-0.002790
495	2.500151	0.005000	-0.184549	-0.247091	-9.456840	0.632319	-0.254248	-0.537244	0.043552	-0.002760	0.010016
496	2.505151	0.005000	-0.217166	-0.196200	-9.417600	0.632433	-0.254134	-0.537117	0.037408	0.011638	0.021572
497	2.510151	0.005000	-0.196200	-0.156960	-9.371993	0.632547	-0.254020	-0.536990	0.033533	0.020313	0.019718
498	2.515151	0.005000	-0.180589	-0.266874	-9.331314	0.632661	-0.253906	-0.536863	0.049102	0.017715	0.019040
499	2.520151	0.005000	-0.117720	-0.197259	-9.339120	0.632774	-0.253793	-0.536736	0.050839	0.023514	0.006768
500	2.525151	0.005000	-0.192630	-0.272895	-9.376575	0.632679	-0.253470	-0.536550	0.057520	0.007692	0.012643
501	2.530151	0.005000	-0.231280	-0.200360	-9.382520	0.632338	-0.252901	-0.536296	0.030481	0.009167	0.006974
502	2.535151	0.005000	-0.235440	-0.196200	-9.410596	0.631997	-0.252332	-0.536042	0.032698	0.010538	0.018025
503	2.540151	0.005000	-0.136705	-0.077209	-9.259369	0.631655	-0.251763	-0.535788	0.028243	0.009735	0.013075
504	2.545151	0.005000	-0.210994	-0.186549	-9.275434	0.631314	-0.251194	-0.535534	0.044368	0.008476	0.011503
505	2.550151	0.005000	-0.226333	-0.211267	-9.299880	0.630972	-0.250626	-0.535280	0.037618	0.008328	0.012821
506	2.555151	0.005000	-0.257019	-0.139299	-9.403857	0.630631	-0.250057	-0.535025	0.040948	0.017953	0.005498
507	2.560151	0.005000	-0.293619	-0.197561	-9.436539	0.630290	-0.249488	-0.534771	0.048465	0.014000	0.014103
508	2.565151	0.005000	-0.251535	-0.212295	-9.371311	0.629948	-0.248919	-0.534517	0.047235	0.017571	0.003050
509	2.570151	0.005000	-0.182480	-0.274680	-9.417600	0.629607	-0.248350	-0.534263	0.047356	0.009182	0.010033
510	2.575151	0.005000	-0.213687	-0.224564	-9.417600	0.629265	-0.247781	-0.534009	0.034814	0.015169	0.009211
511	2.580151	0.005000	-0.187714	-0.204686	-9.361387	0.628924	-0.247212	-0.533754	0.037263	0.009903	0.011101
512	2.585151	0.005000	-0.078480	-0.229798	-9.333478	0.628583	-0.246643	-0.533500	0.033043	0.007252	0.011535
513	2.590151	0.005000	-0.199032	-0.081312	-9.297048	0.628397	-0.246581	-0.533420	0.033405	0.012005	0.003945
514	2.595151	0.005000	-0.156113	-0.078904	-9.417176	0.628511	-0.247491	-0.533674	0.030324	0.009029	0.011565
515	2.600151	0.005000	-0.152119	-0.191359	-9.341540	0.628625	-0.248401	-0.533928	0.046702	0.009459	0.007725
516	2.605151	0.005000	-0.161827	-0.147227	-9.304747	0.628738	-0.249311	-0.534183	0.037479	0.010130	0.004064
517	2.610151	0.005000	-0.156960	-0.220131	-9.268294	0.628852	-0.250222	-0.534437	0.047986	0.010514	0.006360
518	2.615151	0.005000	-0.196200	-0.186049	-9.387148	0.628966	-0.251132	-0.534691	0.041427	0.011981	0.007039
519	2.620151	0.005000	-0.183327	-0.183327	-9.351993	0.629080	-0.252042	-0.534945	0.044486	0.009369	0.025330
520	2.625151	0.005000	-0.149154	-0.141243	-9.299880	0.629194	-0.252953	-0.535199	0.047432	0.009852	0.001593
521	2.630151	0.005000	-0.138641	-0.219723	-9.299880	0.629308	-0.253863	-0.535453	0.049978	0.006067	0.005247
522	2.635151	0.005000	-0.099431	-0.198862	-9.278929	0.629421	-0.254773	-0.535708	0.057874	0.008922	0.017852
523	2.640151	0.005000	-0.180568	-0.196200	-9.299880	0.629535	-0.255684	-0.535962	0.049586	0.012828	0.009934
524	2.645151	0.005000	-0.183130	-0.183130	-9.299880	0.629649	-0.256594	-0.536216	0.055264	0.001919	0.015864
525	2.650151	0.005000	-0.117720	-0.185974	-9.398812	0.629763	-0.257504	-0.536470	0.053066	0.010840	0.004210
526	2.655151	0.005000	-0.125556	-0.243276	-9.370524	0.629851	-0.258158	-0.536667	0.058727	0.013349	0.011691
527	2.660151	0.005000	-0.259704	-0.235440	-9.368376	0.629851	-0.257930	-0.536667	0.046148	0.010212	0.005737
528	2.665151	0.005000	-0.117720	-0.231144	-9.341268	0.629851	-0.257702	-0.536667	0.034177	0.009889	0.006367
529	2.670151	0.005000	-0.195741	-0.195970	-9.417370	0.629851	-0.257475	-0.536667	0.033917	0.015360	0.015282
530	2.675151	0.005000	-0.235440	-0.193129	-9.339120	0.629851	-0.257247	-0.536667	0.055122	0.015980	0.006093
531	2.680151	0.005000	-0.162406	-0.274680	-9.372914	0.629851	-0.257020	-0.536667	0.042070	0.011713	0.013172
532	2.685151	0.005000	-0.156960	-0.212779	-9.386650	0.629851	-0.256792	-0.536667	0.030024	0.022268	0.006374
533	2.690151	0.005000	-0.196200	-0.224306	-9.378360	0.629851	-0.256565	-0.536667	0.041206	0.014943	0.008875
534	2.695151	0.005000	-0.182676	-0.196200	-9.404076	0.629851	-0.256337	-0.536667	0.049744	0.010618	0.007966
535	2.700151	0.005000	-0.163465	-0.134088	-9.371855	0.629851	-0.256109	-0.536667	0.049990	0.014864	-0.004344
536	2.705151	0.005000	-0.196200	-0.156960	-9.456840	0.629851	-0.255882	-0.536667	0.055536	0.008783	0.007032
537	2.710151	0.005000	-0.139307	-0.156960	-9.460773	0.629851	-0.255654	-0.536667	0.059322	0.013450	-0.000118
538	2.715151	0.005000	-0.117720	-0.196200	-9.393170	0.629851	-0.255427	-0.536667	0.051319	0.019584	0.011410
539	2.720151	0.005000	-0.130139	-0.156960	-9.444421	0.629863	-0.255236	-0.536653	0.047704	0.008113	0.014027
540	2.725151	0.005000	-0.215351	-0.156960	-9.427176	0.629977	-0.255350	-0.536526	0.042849	0.008766	0.008659
541	2.730151	0.005000	-0.235440	-0.203401	-9.403199	0.630091	-0.255464	-0.536399	0.047730	0.011079	0.012937
542	2.735151	0.005000	-0.196200	-0.235440	-9.404530	0.630205	-0.255578	-0.536272	0.058756	0.013712	0.003552
543	2.740151	0.005000	-0.194670	-0.194670	-9.378360	0.630318	-0.255691	-0.536145	0.060781	0.005959	0.010338
544	2.745151	0.005000	-0.272048	-0.195323	-9.339997	0.630432	-0.255805	-0.536018	0.045283	0.015265	0.009805
545	2.750151	0.005000	-0.128884	-0.196200	-9.417600	0.630546	-0.255919	-0.535891	0.033626	0.010459	0.022630
546	2.755151	0.005000	-0.078480	-0.156960	-9.352250	0.630660	-0.256033	-0.535763	0.040322	0.009096	0.012128
547	2.760151	0.005000	-0.165900	-0.187260	-9.348060	0.630773	-0.256146	-0.535636	0.037325	0.011140	0.005422
548	2.765151	0.005000	-0.184416	-0.223656	-9.405816	0.630887	-0.256260	-0.535509	0.041532	0.009207	0.019579
549	2.770151	0.005000	-0.142620	-0.235440	-9.403260	0.631001	-0.256374	-0.535382	0.035169	0.013469	0.002177
550	2.775151	0.005000	-0.218422	-0.230236	-9.316898	0.631115	-0.256488	-0.535255	0.025987	0.007933	0.004443
551	2.780151	0.005000	-0.235924	-0.158412	-9.379328	0.631228	-0.256601	-0.535128	0.035175	0.009492	0.011050
552	2.785151	0.005000	-0.173963	-0.056243	-9.344354	0.631342	-0.256715	-0.535001	0.028798	0.005694	0.006515
553	2.790151	0.005000	-0.120957	-0.092639	-9.310802	0.631343	-0.256039	-0.535000	0.031755	0.012929	0.014450
554	2.795151	0.005000	-0.184885	-0.151665	-9.350435	0.631343	-0.255356	-0.535000	0.035558	0.008231	0.006447
555	2.800151	0.005000	-0.126645	-0.235440	-9.273105	0.631343	-0.254674	-0.535000	0.019952	0.008250	0.012044
556	2.805151	0.005000	-0.123801	-0.247602	-9.291046	0.631343	-0.253991	-0.535000	0.011752	0.014036	0.015408
557	2.810151	0.005000	-0.153684	-0.192924	-9.381636	0.631343	-0.253309	-0.535000	0.011602	0.010903	0.010017
558	2.815151	0.005000	-0.119445	-0.157822	-9.416738	0.631343	-0.252626	-0.535000	0.027916	0.009292	0.012143
559	2.820151	0.005000	-0.196200	-0.084425	-9.341102	0.631343	-0.251944	-0.535000	0.033625	0.011482	0.006947
560	2.825151	0.005000	-0.117720	-0.108901	-9.299880	0.631343	-0.251262	-0.535000	0.043719	0.009991	0.023442
561	2.830151	0.005000	-0.124921	-0.221039	-9.385561	0.631343	-0.250579	-0.535000	0.058338	0.014024	0.012254
562	2.835151	0.005000	-0.177049	-0.196200	-9.299880	0.631343	-0.249897	-0.535000	0.062521	0.019867	0.011845
563	2.840151	0.005000	-0.262245	-0.196200	-9.353491	0.631343	-0.249214	-0.535000	0.049719	0.017940	0.008644
564	2.845151	0.005000	-0.180922	-0.211478	-9.378360	0.631343	-0.248532	-0.535000	0.031887	0.012564	0.006385
565	2.850151	0.005000	-0.078480	-0.153965	-9.299880	0.631343	-0.247850	-0.535000	0.033331	0.006470	0.015644
566	2.855151	0.005000	-0.155205	-0.039240	-9.337365	0.631343	-0.248553	-0.534779	0.047282	0.017550	0.002404
567	2.860151	0.005000	-0.172859	-0.023341	-9.433499	0.631343	-0.249463	-0.534525	0.048937	0.003309	0.008925
568	2.865151	0.005000	-0.183977	-0.169183	-9.404091	0.631343	-0.250373	-0.534271	0.059064	0.012039	-0.000166
569	2.870151	0.005000	-0.285345	-0.156960	-9.485415	0.631343	-0.251282	-0.534017	0.055522	0.014284	0.013506
570	2.875151	0.005000	-0.306005	-0.196200	-9.409685	0.631343	-0.252192	-0.533763	0.046571	0.011356	0.018923
571	2.880151	0.005000	-0.224548	-0.162406	-9.417600	0.631343	-0.253102	-0.533509	0.045942	0.013377	0.011034
572	2.885151	0.005000	-0.086286	-0.190996	-9.530116	0.631343	-0.254012	-0.533255	0.036652	0.009774	0.015730
573	2.890151	0.005000	-0.156960	-0.196200	-9.339544	0.631343	-0.254922	-0.533001	0.047249	0.011465	0.009186
574	2.895151	0.005000	-0.193568	-0.159592	-9.454208	0.631343	-0.255832	-0.532747	0.048061	0.010266	0.011232
575	2.900151	0.005000	-0.229964	-0.224488	-9.339120	0.631343	-0.256742	-0.532493	0.040779	0.013439	0.007195
576	2.905151	0.005000	-0.102033	-0.204051	-9.417600	0.631343	-0.257652	-0.532239	0.020346	0.014464	0.006092
577	2.910151	0.005000	-0.117720	-0.178350	-9.438990	0.631343	-0.258562	-0.531985	0.029856	0.012684	0.004693
578	2.915151	0.005000	-0.170198	-0.130958	-9.391598	0.631343	-0.259472	-0.531731	0.038534	0.018737	0.007186
579	2.920151	0.005000	-0.235440	-0.141031	-9.315809	0.631173	-0.259531	-0.531952	0.057820	0.010308	0.013638
580	2.925151	0.005000	-0.175733	-0.197894	-9.357893	0.630945	-0.259303	-0.532333	0.030477	0.011337	0.009842
581	2.930151	0.005000	-0.178108	-0.217348	-9.453784	0.630718	-0.259076	-0.532714	0.037826	0.014528	0.014402
582	2.935151	0.005000	-0.211448	-0.172208	-9.411095	0.630490	-0.258848	-0.533096	0.028876	0.010950	0.011509
583	2.940151	0.005000	-0.261822	-0.117720	-9.378360	0.630263	-0.258621	-0.533477	0.022325	0.013501	0.006646
584	2.945151	0.005000	-0.245454	-0.137748	-9.417600	0.630035	-0.258393	-0.533858	0.021566	0.014846	0.014533
585	2.950151	0.005000	-0.274680	-0.235440	-9.426283	0.629807	-0.258165	-0.534239	0.032181	0.015733	-0.003225
586	2.955151	0.005000	-0.274680	-0.260294	-9.275026	0.629580	-0.257938	-0.534620	0.040083	0.012081	0.005595
587	2.960151	0.005000	-0.196200	-0.158911	-9.341071	0.629352	-0.257710	-0.535002	0.029148	0.008151	0.003797
588	2.965151	0.005000	-0.157853	-0.119505	-9.263318	0.629125	-0.257483	-0.535383	0.026027	0.007629	0.010034
589	2.970151	0.005000	-0.196200	-0.150425	-9.414333	0.628897	-0.257255	-0.535764	0.025952	0.007128	0.017864
590	2.975151	0.005000	-0.163071	-0.129943	-9.411489	0.628670	-0.257028	-0.536145	0.042052	0.011458	0.011918
591	2.980151	0.005000	-0.174162	-0.117720	-9.317082	0.628442	-0.256800	-0.536526	0.046986	0.012835	0.016468
592	2.985151	0.005000	-0.212749	-0.145615	-9.316429	0.628645	-0.256860	-0.536667	0.026950	0.012365	0.003456
593	2.990151	0.005000	-0.224579	-0.156960	-9.417600	0.629100	-0.257087	-0.536667	0.038039	0.008748	0.014411
594	2.995151	0.005000	-0.235440	-0.240614	-9.417600	0.629556	-0.257315	-0.536667	0.040205	0.011445	0.003453
595	3.000151	0.005000	-0.176792	-0.175945	-9.358528	0.630011	-0.257542	-0.536667	0.041594	0.012849	0.004977
596	3.005151	0.005000	-0.196200	-0.173948	-9.451576	0.630466	-0.257770	-0.536667	0.026235	0.015012	0.010650
597	3.010151	0.005000	-0.249584	-0.182056	-9.470984	0.630921	-0.257998	-0.536667	0.019266	0.015117	0.000465
598	3.015151	0.005000	-0.145206	-0.105966	-9.405846	0.631376	-0.258225	-0.536667	0.020744	0.012763	0.008513
599	3.020151	0.005000	-0.126630	-0.156960	-9.369450	0.631831	-0.258453	-0.536667	0.026328	0.010980	0.001599
600	3.025151	0.005000	-0.183921	-0.196200	-9.417600	0.632287	-0.258680	-0.536667	0.023359	0.018413	0.000902
601	3.030151	0.005000	-0.168033	-0.121411	-9.413909	0.632742	-0.258908	-0.536667	0.036412	0.008359	0.016666
602	3.035151	0.005000	-0.235440	-0.156960	-9.300727	0.633197	-0.259135	-0.536667	0.033587	0.012583	0.007140
603	3.040151	0.005000	-0.160954	-0.194203	-9.450850	0.633652	-0.259363	-0.536667	0.031804	0.012171	0.017962
604	3.045151	0.005000	-0.156960	-0.091641	-9.382747	0.634107	-0.259591	-0.536667	0.025671	0.010474	0.007645
605	3.050151	0.005000	-0.228209	-0.071249	-9.420686	0.634152	-0.259642	-0.536667	0.035955	0.014383	0.014975
606	3.055151	0.005000	-0.264605	-0.176051	-9.329045	0.633811	-0.259529	-0.536667	0.041738	0.011730	0.006071
607	3.060151	0.005000	-0.169410	-0.183750	-9.405150	0.633470	-0.259415	-0.536667	0.044580	0.012199	0.011338
608	3.065151	0.005000	-0.204853	-0.180906	-9.417600	0.633129	-0.259301	-0.536667	0.043551	0.017988	0.010119
609	3.070151	0.005000	-0.214338	-0.156960	-9.354293	0.632788	-0.259188	-0.536667	0.024982	0.007267	-0.002570
610	3.075151	0.005000	-0.254152	-0.177488	-9.299880	0.632447	-0.259074	-0.536667	0.037440	0.012909	0.007306
611	3.080151	0.005000	-0.258812	-0.180332	-9.331617	0.632105	-0.258960	-0.536667	0.044316	0.015120	0.007910
612	3.085151	0.005000	-0.261655	-0.183175	-9.299880	0.631764	-0.258847	-0.536667	0.036901	0.019788	0.015585
613	3.090151	0.005000	-0.246090	-0.071189	-9.321179	0.631423	-0.258733	-0.536667	0.038147	0.010847	0.014210
614	3.095151	0.005000	-0.227634	-0.204006	-9.386166	0.631082	-0.258619	-0.536667	0.041801	0.016644	0.002852
615	3.100151	0.005000	-0.117720	-0.123151	-9.339120	0.630741	-0.258505	-0.536667	0.037688	0.009906	0.009454
616	3.105151	0.005000	-0.196200	-0.159547	-9.380947	0.630400	-0.258392	-0.536667	0.031116	0.006521	0.015454
617	3.110151	0.005000	-0.235183	-0.118234	-9.378617	0.630058	-0.258278	-0.536667	0.038952	0.016291	0.007474
618	3.115151	0.005000	-0.156960	-0.041918	-9.381038	0.629851	-0.258075	-0.536468	0.041248	0.005321	0.001687
619	3.120151	0.005000	-0.235440	-0.078480	-9.372869	0.629851	-0.257734	-0.535960	0.016177	0.008504	0.000107
620	3.125151	0.005000	-0.165295	-0.218770	-9.417600	0.629851	-0.257393	-0.535452	0.032248	0.009935	0.017377
621	3.130151	0.005000	-0.235440	-0.185490	-9.349830	0.629851	-0.257051	-0.534944	0.021458	0.014694	0.002414
622	3.135151	0.005000	-0.235440	-0.182646	-9.352674	0.629851	-0.256710	-0.534435	0.049480	0.014231	0.015334
623	3.140151	0.005000	-0.180069	-0.117720	-9.417600	0.629851	-0.256369	-0.533927	0.044065	0.018909	0.003165
624	3.145151	0.005000	-0.192872	-0.177412	-9.357908	0.629851	-0.256028	-0.533419	0.038315	0.013793	0.003076
625	3.150151	0.005000	-0.153362	-0.231842	-9.378360	0.629851	-0.255686	-0.532911	0.025775	0.014781	0.015671
626	3.155151	0.005000	-0.187426	-0.235440	-9.339120	0.629851	-0.255345	-0.532403	0.034819	0.011277	0.010099
627	3.160151	0.005000	-0.183811	-0.144571	-9.363898	0.629851	-0.255004	-0.531895	0.019117	0.011403	0.020904
628	3.165151	0.005000	-0.244683	-0.098478	-9.603045	0.629851	-0.254663	-0.531387	0.034742	0.011361	0.011299
629	3.170151	0.005000	-0.203355	-0.024930	-9.346275	0.629851	-0.254321	-0.530879	0.048279	0.012161	0.009510
630	3.175151	0.005000	-0.161323	-0.008727	-9.356574	0.629851	-0.253980	-0.530371	0.042655	0.011057	0.009986
631	3.180151	0.005000	-0.045049	-0.084289	-9.496080	0.629851	-0.253731	-0.530137	0.048574	0.013435	0.000586
632	3.185151	0.005000	-0.233625	-0.272865	-9.381083	0.629851	-0.253731	-0.530645	0.032748	0.009612	0.018451
633	3.190151	0.005000	-0.199536	-0.232104	-9.270649	0.629851	-0.253731	-0.531154	0.040839	0.017311	0.009912
634	3.195151	0.005000	-0.163102	-0.235440	-9.293738	0.629851	-0.253731	-0.531662	0.033289	0.009462	0.017923
635	3.200151	0.005000	-0.165946	-0.026957	-9.378360	0.629851	-0.253731	-0.532170	0.014882	0.008543	0.012638
636	3.205151	0.005000	-0.162118	-0.039240	-9.339120	0.629851	-0.253731	-0.532679	0.015981	0.013736	0.009662
637	3.210151	0.005000	-0.171164	-0.089311	-9.392564	0.629851	-0.253731	-0.533187	0.039968	0.014413	0.017172
638	3.215151	0.005000	-0.179605	-0.061885	-9.417600	0.629851	-0.253731	-0.533695	0.034414	0.017636	-0.001293
639	3.220151	0.005000	-0.156960	-0.019802	-9.457203	0.629851	-0.253731	-0.534203	0.040391	0.011131	0.017981
640	3.225151	0.005000	-0.213363	0.000000	-9.378360	0.629851	-0.253731	-0.534712	0.034064	0.009630	0.002336
641	3.230151	0.005000	-0.235440	-0.093063	-9.353703	0.629851	-0.253731	-0.535220	0.038450	0.010160	0.005617
642	3.235151	0.005000	-0.184461	-0.011739	-9.248901	0.629851	-0.253731	-0.535728	0.046184	0.008141	0.018356
643	3.240151	0.005000	-0.147596	-0.078480	-9.299880	0.629851	-0.253731	-0.536237	0.046657	0.009641	0.009509
644	3.245151	0.005000	-0.124240	-0.111200	-9.293360	0.629834	-0.253853	-0.536589	0.036104	0.010163	0.012376
645	3.250151	0.005000	-0.231310	-0.086739	-9.351509	0.629720	-0.254649	-0.536081	0.031597	0.013450	0.005367
646	3.255151	0.005000	-0.155674	-0.116434	-9.493508	0.629606	-0.255445	-0.535573	0.054155	0.008763	0.017598
647	3.260151	0.005000	-0.155402	-0.116162	-9.342236	0.629492	-0.256242	-0.535065	0.063054	0.009843	0.003294
648	3.265151	0.005000	-0.235440	-0.153027	-9.335187	0.629378	-0.257038	-0.534557	0.062326	0.011864	0.014753
649	3.270151	0.005000	-0.163737	-0.150183	-9.332343	0.629265	-0.257834	-0.534049	0.043544	0.009642	0.015534
650	3.275151	0.005000	-0.166234	-0.235440	-9.318429	0.629151	-0.258630	-0.533541	0.054037	0.011098	0.009766
651	3.280151	0.005000	-0.156960	-0.141742	-9.351131	0.629037	-0.259426	-0.533033	0.042115	0.008448	0.012701
652	3.285151	0.005000	-0.132575	-0.078480	-9.378360	0.628923	-0.260222	-0.532525	0.045221	0.007840	0.000907
653	3.290151	0.005000	-0.196200	-0.039240	-9.422380	0.628810	-0.261019	-0.532017	0.028857	0.014525	0.008351
654	3.295151	0.005000	-0.137794	-0.098554	-9.417600	0.628696	-0.261815	-0.531509	0.031305	0.012103	0.012532
655	3.300151	0.005000	-0.173473	-0.049540	-9.322607	0.628582	-0.262611	-0.531001	0.031044	0.008271	0.007116
656	3.305151	0.005000	-0.196200	-0.221508	-9.274572	0.628468	-0.263407	-0.530493	0.027021	0.004333	0.016441
657	3.310151	0.005000	-0.156960	-0.196200	-9.378360	0.628361	-0.264165	-0.530012	0.025089	0.010961	0.005018
658	3.315151	0.005000	-0.126433	-0.039240	-9.408887	0.628475	-0.263710	-0.530393	0.020017	0.019466	0.014980
659	3.320151	0.005000	-0.229571	-0.084349	-9.378360	0.628589	-0.263255	-0.530774	0.042323	0.020715	0.006253
660	3.325151	0.005000	-0.120745	-0.120745	-9.342145	0.628703	-0.262800	-0.531155	0.039186	0.013353	0.008091
661	3.330151	0.005000	-0.234805	-0.078480	-9.417600	0.628817	-0.262345	-0.531536	0.021095	0.008217	0.014040
662	3.335151	0.005000	-0.270263	-0.041449	-9.417600	0.628930	-0.261890	-0.531917	0.028315	0.019349	0.011433
663	3.340151	0.005000	-0.269628	-0.107615	-9.383412	0.629044	-0.261435	-0.532298	0.023867	0.014024	0.020658
664	3.345151	0.005000	-0.196200	-0.117720	-9.346547	0.629158	-0.260980	-0.532679	0.026418	0.011604	0.006637
665	3.350151	0.005000	-0.167231	-0.078480	-9.291454	0.629272	-0.260526	-0.533060	0.040243	0.011489	0.010160
666	3.355151	0.005000	-0.210117	-0.065819	-9.326459	0.629385	-0.260071	-0.533441	0.041476	0.004886	0.016311
667	3.360151	0.005000	-0.196200	-0.070251	-9.393865	0.629499	-0.259616	-0.533822	0.054409	0.007718	0.008032
668	3.365151	0.005000	-0.214297	-0.096577	-9.420647	0.629613	-0.259161	-0.534203	0.046326	0.012795	0.015866
669	3.370151	0.005000	-0.175476	-0.136236	-9.362053	0.629727	-0.258706	-0.534584	0.047921	0.013492	0.007731
670	3.375151	0.005000	-0.117720	-0.125495	-9.291984	0.629841	-0.258251	-0.534965	0.032271	0.014320	0.022131
671	3.380151	0.005000	-0.131017	-0.196200	-9.469486	0.628714	-0.259036	-0.533384	0.025247	0.012559	0.005699
672	3.385151	0.005000	-0.196200	-0.156960	-9.417600	0.627463	-0.259946	-0.531606	0.014689	0.019825	0.011598
673	3.390151	0.005000	-0.156960	-0.102324	-9.370662	0.626211	-0.260856	-0.529827	0.028090	0.017987	0.010097
674	3.395151	0.005000	-0.235440	-0.117720	-9.378360	0.624959	-0.261767	-0.528048	0.016799	0.006305	0.008369
675	3.400151	0.005000	-0.311545	-0.041615	-9.341495	0.623707	-0.262677	-0.526269	0.015271	0.016542	0.011252
676	3.405151	0.005000	-0.119596	0.037833	-9.417131	0.622456	-0.263587	-0.524490	0.019106	0.014826	0.004022
677	3.410151	0.005000	-0.190512	0.039240	-9.426132	0.621204	-0.264498	-0.522711	0.028030	0.011513	0.005066
678	3.415151	0.005000	-0.241128	-0.005688	-9.456840	0.619952	-0.265408	-0.520932	0.032475	0.006104	0.008478
679	3.420151	0.005000	-0.196200	-0.016345	-9.496080	0.618701	-0.266318	-0.519153	0.022764	0.012971	0.005883
680	3.425151	0.005000	-0.167882	0.028318	-9.400204	0.617449	-0.267228	-0.517374	0.036882	0.008464	0.014104
681	3.430151	0.005000	-0.221674	0.039240	-9.378360	0.616197	-0.268139	-0.515596	0.047148	0.008434	0.014021
682	3.435151	0.005000	-0.173296	-0.055576	-9.378360	0.614946	-0.269049	-0.513817	0.051470	0.015723	0.017604
683	3.440151	0.005000	-0.196200	-0.117720	-9.534049	0.613694	-0.269959	-0.512038	0.042617	0.013179	0.003521
684	3.445151	0.005000	-0.169954	-0.078480	-9.439429	0.612983	-0.270509	-0.511667	0.034432	0.019974	0.016248
685	3.450151	0.005000	-0.187003	-0.156960	-9.456840	0.612414	-0.270964	-0.511667	0.012350	0.014379	0.012422
686	3.455151	0.005000	-0.208377	-0.198908	-9.366183	0.611845	-0.271419	-0.511667	0.019729	0.014823	0.000895
687	3.460151	0.005000	-0.205887	-0.098347	-9.437467	0.611277	-0.271874	-0.511667	0.031058	0.009173	0.019205
688	3.465151	0.005000	-0.168366	0.032281	-9.353037	0.610708	-0.272329	-0.511667	0.025827	0.013816	0.009226
689	3.470151	0.005000	-0.161123	-0.035077	-9.417600	0.610139	-0.272784	-0.511667	0.045120	0.022277	0.009127
690	3.475151	0.005000	-0.119445	-0.039240	-9.415875	0.609570	-0.273239	-0.511667	0.034576	0.014925	0.009184
691	3.480151	0.005000	-0.156960	-0.115481	-9.340239	0.609002	-0.273694	-0.511667	0.037242	0.003889	0.011280
692	3.485151	0.005000	-0.310383	-0.117720	-9.424673	0.608433	-0.274149	-0.511667	0.030661	0.006581	0.011714
693	3.490151	0.005000	-0.222763	-0.091157	-9.312557	0.607864	-0.274604	-0.511667	0.025352	0.016616	0.004369
694	3.495151	0.005000	-0.235440	-0.039240	-9.330289	0.607296	-0.275059	-0.511667	0.021817	0.017278	0.007745
695	3.500151	0.005000	-0.180105	-0.016095	-9.433695	0.606727	-0.275514	-0.511667	0.022385	0.019991	0.006941
696	3.505151	0.005000	-0.235440	-0.049648	-9.353536	0.606158	-0.275969	-0.511667	0.025518	0.005758	0.013059
697	3.510151	0.005000	-0.173751	-0.056031	-9.316671	0.606427	-0.276500	-0.512517	0.052197	0.016521	0.003394
698	3.515151	0.005000	-0.137355	-0.039240	-9.339120	0.607110	-0.277069	-0.513788	0.030952	0.016844	0.002336
699	3.520151	0.005000	-0.190887	-0.061516	-9.339120	0.607792	-0.277638	-0.515058	0.027533	0.008518	0.013944
700	3.525151	0.005000	-0.245908	-0.078480	-9.442454	0.608475	-0.278207	-0.516329	0.027230	0.013090	0.006267
701	3.530151	0.005000	-0.207742	-0.066938	-9.433756	0.609158	-0.278776	-0.517600	0.031810	0.014237	0.001949
702	3.535151	0.005000	-0.196200	-0.117720	-9.395960	0.609840	-0.279345	-0.518870	0.057886	0.015880	0.011034
703	3.540151	0.005000	-0.163268	-0.084788	-9.417600	0.610523	-0.279914	-0.520141	0.059149	0.016774	0.011825
704	3.545151	0.005000	-0.160424	-0.081944	-9.378360	0.611206	-0.280483	-0.521412	0.041010	0.007932	0.017551
705	3.550151	0.005000	-0.079569	-0.195111	-9.416511	0.611889	-0.281052	-0.522682	0.020065	0.009794	0.001956
706	3.555151	0.005000	-0.155205	-0.119475	-9.340875	0.612571	-0.281621	-0.523953	0.033458	0.009844	0.012090
707	3.560151	0.005000	-0.235440	-0.013796	-9.413001	0.613254	-0.282189	-0.525223	0.033380	0.013769	0.005897
708	3.565151	0.005000	-0.292954	-0.071491	-9.449851	0.613937	-0.282758	-0.526494	0.032857	0.001927	0.008489
709	3.570151	0.005000	-0.245273	-0.127553	-9.456749	0.614620	-0.283327	-0.527765	0.043393	0.007701	0.010646
710	3.575151	0.005000	-0.154786	-0.144605	-9.469195	0.615302	-0.282576	-0.528403	0.057376	0.011166	0.009957
711	3.580151	0.005000	-0.156960	-0.181148	-9.402548	0.615985	-0.280756	-0.528530	0.039682	0.008642	0.008441
712	3.585151	0.005000	-0.174855	-0.178305	-9.381809	0.616667	-0.278937	-0.528657	0.034685	0.008301	-0.003530
713	3.590151	0.005000	-0.136437	-0.018717	-9.361449	0.617350	-0.277117	-0.528784	0.035841	0.009737	0.003169
714	3.595151	0.005000	-0.212310	0.062370	-9.346139	0.618032	-0.275297	-0.528911	0.031737	0.014289	0.007044
715	3.600151	0.005000	-0.235440	0.013267	-9.299880	0.618715	-0.273477	-0.529038	0.039835	0.015111	0.003634
716	3.605151	0.005000	-0.214343	-0.018143	-9.388909	0.619397	-0.271657	-0.529165	0.043881	0.009160	0.017611
717	3.610151	0.005000	-0.156960	-0.078480	-9.417600	0.620080	-0.269837	-0.529292	0.047875	0.015499	0.003748
718	3.615151	0.005000	-0.190996	-0.044444	-9.339120	0.620762	-0.268017	-0.529419	0.046127	0.015782	-0.001402
719	3.620151	0.005000	-0.041600	-0.041600	-9.343840	0.621445	-0.266198	-0.529547	0.047647	0.008829	0.002559
720	3.625151	0.005000	-0.156899	-0.196108	-9.417600	0.622127	-0.264378	-0.529674	0.054667	0.014049	0.000307
721	3.630151	0.005000	-0.235440	-0.047863	-9.339120	0.622810	-0.262558	-0.529801	0.057740	0.013028	0.002257
722	3.635151	0.005000	-0.302484	-0.044958	-9.244272	0.623492	-0.260738	-0.529928	0.054631	0.016194	0.003778
723	3.640151	0.005000	-0.204762	-0.117720	-9.347682	0.624077	-0.259652	-0.530109	0.017771	0.015362	0.013699
724	3.645151	0.005000	-0.156960	-0.028303	-9.378360	0.624532	-0.259538	-0.530363	0.031970	0.012195	0.003443
725	3.650151	0.005000	-0.156960	-0.078480	-9.352901	0.624987	-0.259425	-0.530618	0.033794	0.009831	0.011034
726	3.655151	0.005000	-0.235440	-0.101095	-9.440215	0.625442	-0.259311	-0.530872	0.043576	0.014514	0.018233
727	3.660151	0.005000	-0.215200	0.039240	-9.378360	0.625897	-0.259197	-0.531126	0.043062	0.016249	0.013319
728	3.665151	0.005000	-0.287629	0.000000	-9.343567	0.626353	-0.259083	-0.531380	0.042360	0.011856	0.011910
729	3.670151	0.005000	-0.260128	-0.103168	-9.349255	0.626808	-0.258970	-0.531634	0.029864	0.013165	0.005641
730	3.675151	0.005000	-0.250355	-0.051402	-9.339120	0.627263	-0.258856	-0.531888	0.043662	0.013481	0.012521
731	3.680151	0.005000	-0.196200	-0.069162	-9.369042	0.627718	-0.258742	-0.532142	0.050970	0.018177	0.011424
732	3.685151	0.005000	-0.150407	-0.091586	-9.424153	0.628173	-0.258628	-0.532396	0.052269	0.022026	0.015450
733	3.690151	0.005000	-0.156960	-0.114046	-9.342794	0.628628	-0.258515	-0.532650	0.051074	0.011274	0.013848
734	3.695151	0.005000	-0.153193	-0.036729	-9.417600	0.629083	-0.258401	-0.532904	0.030664	0.022001	0.011167
735	3.700151	0.005000	-0.114543	0.114543	-9.417600	0.629539	-0.258287	-0.533159	0.044155	0.012391	0.016626
736	3.705151	0.005000	-0.117720	0.007957	-9.355034	0.629815	-0.258352	-0.533333	0.050680	0.012388	0.005597
737	3.710151	0.005000	-0.156960	-0.078480	-9.378360	0.629701	-0.258807	-0.533333	0.062771	0.013094	0.013896
738	3.715151	0.005000	-0.275255	-0.078480	-9.368694	0.629588	-0.259262	-0.533333	0.068842	0.014634	0.006528
739	3.720151	0.005000	-0.262639	-0.144919	-9.366319	0.629474	-0.259717	-0.533333	0.053944	0.006797	-0.001600
740	3.725151	0.005000	-0.205670	-0.117720	-9.378360	0.629360	-0.260172	-0.533333	0.046556	0.011083	0.009950
741	3.730151	0.005000	-0.274680	-0.095957	-9.360883	0.629246	-0.260628	-0.533333	0.029980	0.015299	0.007485
742	3.735151	0.005000	-0.254561	-0.158957	-9.340118	0.629132	-0.261083	-0.533333	0.038911	0.014151	0.012023
743	3.740151	0.005000	-0.173237	0.048831	-9.316157	0.629019	-0.261538	-0.533333	0.058464	0.002022	-0.004624
744	3.745151	0.005000	-0.246876	-0.053142	-9.339120	0.628905	-0.261993	-0.533333	0.065442	0.004129	0.003529
745	3.750151	0.005000	-0.235440	-0.196200	-9.310938	0.628791	-0.262448	-0.533333	0.048911	0.011893	0.014595
746	3.755151	0.005000	-0.156960	-0.062052	-9.384744	0.628677	-0.262903	-0.533333	0.041561	0.012927	0.014446
747	3.760151	0.005000	-0.229616	-0.045064	-9.417600	0.628563	-0.263358	-0.533333	0.027122	0.008970	0.014450
748	3.765151	0.005000	-0.126660	-0.117720	-9.381340	0.628449	-0.263814	-0.533333	0.049885	0.015248	0.003327
749	3.770151	0.005000	-0.196062	-0.117582	-9.339533	0.628380	-0.263999	-0.533333	0.062281	0.012098	0.008115
750	3.775151	0.005000	-0.193961	-0.115481	-9.382838	0.628494	-0.263089	-0.533333	0.056527	0.009284	0.013227
751	3.780151	0.005000	-0.196200	-0.156960	-9.383443	0.628608	-0.262179	-0.533333	0.059785	0.011634	0.004998
752	3.785151	0.005000	-0.132841	-0.196200	-9.385920	0.628722	-0.261269	-0.533333	0.050184	0.010221	0.009889
753	3.790151	0.005000	-0.185883	-0.156960	-9.388677	0.628836	-0.260358	-0.533333	0.025485	0.015079	0.003861
754	3.795151	0.005000	-0.130881	-0.065319	-9.352281	0.628950	-0.259448	-0.533333	0.022542	0.011562	0.014589
755	3.800151	0.005000	-0.125513	-0.094204	-9.346913	0.629063	-0.258538	-0.533333	0.026784	0.007966	0.004917
756	3.805151	0.005000	-0.154479	0.023341	-9.415119	0.629177	-0.257627	-0.533333	0.039334	0.008810	0.007671
757	3.810151	0.005000	-0.096497	-0.018017	-9.357137	0.629291	-0.256717	-0.533333	0.054112	0.012332	0.015535
758	3.815151	0.005000	-0.181027	-0.024067	-9.393533	0.629405	-0.255807	-0.533333	0.058179	0.009315	0.000309
759	3.820151	0.005000	-0.235440	-0.012798	-9.339120	0.629519	-0.254896	-0.533333	0.070854	0.011902	0.006612
760	3.825151	0.005000	-0.196200	-0.039240	-9.368981	0.629633	-0.253986	-0.533333	0.077171	0.019345	-0.006697
761	3.830151	0.005000	-0.203310	-0.014220	-9.496080	0.629746	-0.253076	-0.533333	0.076392	0.016163	0.011180
762	3.835151	0.005000	-0.235440	-0.147521	-9.339120	0.629851	-0.252276	-0.533364	0.068186	0.009267	0.005857
763	3.840151	0.005000	-0.235440	-0.115844	-9.380236	0.629851	-0.252731	-0.533745	0.046483	0.006119	0.002878
764	3.845151	0.005000	-0.196705	-0.078480	-9.378865	0.629851	-0.253186	-0.534126	0.055609	0.013449	0.013849
765	3.850151	0.005000	-0.153617	0.035897	-9.375017	0.629851	-0.253641	-0.534507	0.073489	0.019417	0.006256
766	3.855151	0.005000	-0.223066	0.000000	-9.326746	0.629851	-0.254096	-0.534888	0.078131	0.021825	0.004403
767	3.860151	0.005000	-0.213555	-0.109043	-9.356475	0.629851	-0.254550	-0.535269	0.079590	0.013467	-0.001278
768	3.865151	0.005000	-0.168381	-0.129141	-9.366939	0.629851	-0.255005	-0.535650	0.088798	0.016757	0.005361
769	3.870151	0.005000	-0.224730	-0.067770	-9.364095	0.629851	-0.255460	-0.536031	0.083383	0.001853	0.014116
770	3.875151	0.005000	-0.218800	-0.134360	-9.417600	0.629851	-0.255915	-0.536412	0.075637	0.007130	0.006185
771	3.880151	0.005000	-0.215956	-0.176716	-9.515564	0.629851	-0.256370	-0.536793	0.086869	0.007046	0.019095
772	3.885151	0.005000	-0.196200	-0.173872	-9.479168	0.629851	-0.256825	-0.537174	0.079007	0.007634	0.002953
773	3.890151	0.005000	-0.106617	-0.106617	-9.299880	0.629851	-0.257280	-0.537555	0.091768	0.011424	0.006024
774	3.895151	0.005000	-0.184522	-0.145282	-9.283996	0.629851	-0.257735	-0.537936	0.075235	0.012879	0.007397
775	3.900151	0.005000	-0.135389	0.021571	-9.247903	0.629851	-0.258190	-0.538317	0.080685	0.005879	0.010344
776	3.905151	0.005000	-0.178229	-0.039240	-9.339120	0.629851	-0.258427	-0.537724	0.071057	0.011513	0.013354
777	3.910151	0.005000	-0.085711	0.032009	-9.289034	0.629851	-0.258655	-0.537089	0.089319	0.012084	0.009163
778	3.915151	0.005000	-0.196971	-0.116949	-9.300651	0.629851	-0.258882	-0.536454	0.073975	0.006715	0.009163
779	3.920151	0.005000	-0.235440	-0.041312	-9.376288	0.629851	-0.259110	-0.535818	0.053057	0.009937	0.004107
780	3.925151	0.005000	-0.269764	-0.107887	-9.344036	0.629851	-0.259337	-0.535183	0.059428	0.017302	-0.001579
781	3.930151	0.005000	-0.409721	-0.181587	-9.250626	0.629851	-0.259565	-0.534548	0.051601	0.003625	0.009831
782	3.935151	0.005000	-0.050752	-0.382250	-9.362764	0.629851	-0.259793	-0.533912	0.060243	0.013780	0.003025
783	3.940151	0.005000	-0.158170	-0.234230	-9.627686	0.629851	-0.260020	-0.533277	0.026131	0.012828	0.008769
784	3.945151	0.005000	-0.242308	-0.102351	-9.376726	0.629851	-0.260248	-0.532642	-0.003173	0.008978	0.006710
785	3.950151	0.005000	-0.096693	-0.989441	-9.088280	0.629851	-0.260475	-0.532006	-0.005191	0.017699	0.013340
786	3.955151	0.005000	-0.198634	-0.847311	-9.239803	0.629851	-0.260703	-0.531371	-0.111613	0.021564	0.028773
787	3.960151	0.005000	-0.219632	-0.508441	-9.409416	0.629851	-0.260930	-0.530736	-0.245053	0.023568	0.031836
788	3.965151	0.005000	-0.156960	0.274332	-9.352432	0.629851	-0.261158	-0.530101	-0.320308	0.013212	0.025195
789	3.970151	0.005000	-0.107481	0.737036	-9.359597	0.629947	-0.261098	-0.530321	-0.232403	0.018084	0.011410
790	3.975151	0.005000	-0.125450	0.847820	-9.496080	0.630061	-0.260984	-0.530702	-0.080594	0.009879	0.029338
791	3.980151	0.005000	-0.171618	0.647536	-9.496080	0.630174	-0.260871	-0.531083	0.035124	0.023447	0.009378
792	3.985151	0.005000	-0.311409	0.259613	-9.417600	0.630288	-0.260757	-0.531464	0.123888	0.007486	0.015740
793	3.990151	0.005000	-0.196866	-0.116389	-9.300878	0.630402	-0.260643	-0.531846	0.166012	0.009033	0.001053
794	3.995151	0.005000	-0.235440	-0.386047	-9.263817	0.630515	-0.260529	-0.532227	0.130096	0.007496	-0.003348
795	4.000151	0.005000	-0.201767	-0.353160	-9.255073	0.630629	-0.260415	-0.532608	0.064909	0.009657	0.012200
796	4.005151	0.005000	-0.196200	-0.190603	-9.238221	0.630743	-0.260301	-0.532989	0.006777	0.012774	0.006752
797	4.010151	0.005000	-0.185284	-0.039240	-9.306372	0.630857	-0.260188	-0.533370	-0.021999	0.012770	0.014993
798	4.015151	0.005000	-0.170590	-0.039240	-9.417600	0.630970	-0.260074	-0.533752	-0.023641	0.004660	0.016544
799	4.020151	0.005000	-0.179726	-0.016474	-9.423893	0.631084	-0.259960	-0.534133	0.003027	0.012458	0.006886
800	4.025151	0.005000	-0.195129	-0.020156	-9.358204	0.631198	-0.259846	-0.534514	0.015728	0.013140	0.012480
801	4.030151	0.005000	-0.100188	-0.030058	-9.299880	0.631312	-0.259732	-0.534895	0.011145	0.015848	0.010249
802	4.035151	0.005000	-0.132409	0.014689	-9.324431	0.631261	-0.259454	-0.535184	0.022297	0.027171	0.010086
803	4.040151	0.005000	-0.220176	0.015264	-9.245376	0.631147	-0.259112	-0.535438	0.005027	0.017268	0.007591
804	4.045151	0.005000	-0.216501	-0.086588	-9.202461	0.631033	-0.258771	-0.535692	0.031982	0.020159	0.015592
805	4.050151	0.005000	-0.045866	-0.373037	-9.077177	0.630919	-0.258430	-0.535946	0.043159	0.024402	0.018437
806	4.055151	0.005000	-0.196200	-0.592382	-8.838923	0.630806	-0.258089	-0.536200	0.107176	0.035185	0.022617
807	4.060151	0.005000	-0.271897	-0.873022	-10.093030	0.630692	-0.257748	-0.536454	0.185331	0.042836	0.048883
808	4.065151	0.005000	-0.233988	-1.402475	-10.017818	0.630578	-0.257407	-0.536708	0.166745	0.030991	0.057096
809	4.070151	0.005000	-0.379512	-1.787855	-9.028921	0.630465	-0.257065	-0.536962	0.177250	0.011856	0.075357
810	4.075151	0.005000	-0.503449	-1.387529	-9.037756	0.630351	-0.256724	-0.537216	0.170286	0.033279	0.102543
811	4.080151	0.005000	-0.372190	-0.180785	-9.497260	0.630237	-0.256383	-0.537470	0.121730	0.046909	0.103647
812	4.085151	0.005000	-0.235440	1.332617	-9.653040	0.630124	-0.256042	-0.537724	0.086359	0.028990	0.101013
813	4.090151	0.005000	-0.299186	2.128732	-9.599066	0.630010	-0.255701	-0.537978	0.143031	0.029131	0.073935
814	4.095151	0.005000	-0.248933	1.810365	-9.639547	0.629896	-0.255360	-0.538232	0.424540	0.023161	0.066301
815	4.100151	0.005000	-0.293498	1.495930	-9.711098	0.629920	-0.252960	-0.541627	0.905318	0.029760	0.059626
816	4.105151	0.005000	-0.375972	1.701025	-9.663084	0.630033	-0.249205	-0.547090	1.412793	0.036090	0.071958
817	4.110151	0.005000	-0.313920	1.658639	-10.006200	0.630147	-0.245450	-0.552554	1.896871	0.047334	0.059411
818	4.115151	0.005000	-0.392400	1.159017	-10.298639	0.630261	-0.241695	-0.558018	2.260339	0.052116	0.049446
819	4.120151	0.005000	-0.367304	0.633619	-10.138064	0.630375	-0.237940	-0.563482	2.479166	0.046212	0.047892
820	4.125151	0.005000	-0.257526	0.241551	-10.145416	0.630488	-0.234185	-0.568946	2.683585	0.052673	0.028367
821	4.130151	0.005000	-0.428931	0.092024	-10.684115	0.630602	-0.230430	-0.574410	2.887005	0.056430	0.014932
822	4.135151	0.005000	-0.509545	0.236877	-11.027015	0.630716	-0.226675	-0.579873	3.070166	0.065243	0.016579
823	4.140151	0.005000	-0.431640	0.505007	-11.398388	0.630830	-0.222920	-0.585337	3.340445	0.089077	0.002665
824	4.145151	0.005000	-0.723958	0.234003	-12.021115	0.630943	-0.219165	-0.590801	3.828656	0.117507	-0.012582
825	4.150151	0.005000	-1.161354	0.439402	-12.752893	0.631057	-0.215410	-0.596265	4.582590	0.139318	-0.031684
826	4.155151	0.005000	-1.509121	0.849423	-12.638517	0.631171	-0.211654	-0.601729	5.397715	0.143859	-0.034707
827	4.160151	0.005000	-1.436117	1.349923	-12.404106	0.631285	-0.207899	-0.607193	6.348891	0.155097	-0.073428
828	4.165151	0.005000	-1.632227	0.393973	-13.078054	0.630735	-0.204035	-0.626295	7.416645	0.171707	-0.099715
829	4.170151	0.005000	-1.408949	-0.459565	-12.689526	0.629484	-0.200056	-0.659809	8.469261	0.168750	-0.128636
830	4.175151	0.005000	-1.031858	-1.464980	-12.556800	0.628234	-0.196077	-0.693324	9.397035	0.153699	-0.167397
831	4.180151	0.005000	-0.832632	-2.749810	-12.732805	0.626983	-0.192098	-0.726839	9.975117	0.129185	-0.192967
832	4.185151	0.005000	-0.617938	-3.592006	-12.312820	0.625733	-0.188119	-0.760353	10.003529	0.076111	-0.224399
833	4.190151	0.005000	-0.136780	-4.248010	-11.227133	0.624482	-0.184140	-0.793868	10.003529	0.027003	-0.264164
834	4.195151	0.005000	0.053732	-4.216182	-9.718813	0.623232	-0.180161	-0.827383	10.003529	-0.041857	-0.298845
835	4.200151	0.005000	0.313920	-3.632356	-8.154893	0.621981	-0.176182	-0.860897	10.003529	-0.095597	-0.345574
836	4.205151	0.005000	0.276238	-4.435678	-5.779762	0.620731	-0.172203	-0.894412	10.003529	-0.159168	-0.388308
837	4.210151	0.005000	0.162103	-5.232444	-2.261731	0.619480	-0.168224	-0.927926	10.003529	-0.209611	-0.457546
838	4.215151	0.005000	-0.976901	-5.762078	1.210283	0.618229	-0.164245	-0.961441	10.003529	-0.273391	-0.502520
839	4.220151	0.005000	-1.104079	-19.214739	2.775216	0.616979	-0.160266	-0.994956	10.003529	-0.605020	-1.263438
840	4.225151	0.005000	-4.130789	-27.774961	1.137718	0.615728	-0.156287	-1.028470	10.003529	-0.154974	-0.811336
841	4.230151	0.005000	-0.308323	-12.658697	0.837776	0.615169	-0.155114	-1.054315	10.003529	-0.205926	-0.567989
842	4.235151	0.005000	1.556989	-21.930263	-4.548657	0.615852	-0.158981	-1.066380	9.033883	0.234245	-0.486043
843	4.240151	0.005000	2.272532	-24.499011	1.510029	0.616534	-0.162848	-1.078446	8.210135	0.049113	-0.342093
844	4.245151	0.005000	1.824100	-25.473113	3.407678	0.617217	-0.166715	-1.090512	6.777358	-0.054152	-0.300415
845	4.250151	0.005000	0.606753	-21.324278	-2.120155	0.617899	-0.170582	-1.102577	4.837590	-0.256645	-0.280543
846	4.255151	0.005000	0.264953	-18.852309	-1.208060	0.618581	-0.174450	-1.114643	3.518551	-0.110987	-0.230195
847	4.260151	0.005000	0.929512	-16.161889	1.157618	0.619264	-0.178317	-1.126709	2.577703	-0.064010	-0.190956
848	4.265151	0.005000	1.936435	-11.498984	1.740174	0.619946	-0.182184	-1.138774	2.014393	-0.031121	-0.205476
849	4.270151	0.005000	1.686745	-10.464555	1.256830	0.620629	-0.186051	-1.150840	2.387867	-0.075072	-0.253571
850	4.275151	0.005000	1.418903	-9.777355	2.121592	0.621311	-0.189918	-1.162906	3.054297	-0.041217	-0.280580
851	4.280151	0.005000	0.704505	-9.969229	0.937676	0.621994	-0.193785	-1.174971	3.573878	-0.074119	-0.275350
852	4.285151	0.005000	0.254561	-10.273710	0.514900	0.622676	-0.197652	-1.187037	3.844893	-0.064084	-0.240858
853	4.290151	0.005000	-0.107252	-10.471846	0.290382	0.623359	-0.201520	-1.199103	3.837351	-0.085247	-0.186961
854	4.295151	0.005000	-0.117720	-10.374578	0.250658	0.624095	-0.205067	-1.209647	3.695896	-0.075442	-0.123874
855	4.300151	0.005000	-0.127836	-10.125144	0.382284	0.625006	-0.207571	-1.215241	3.521586	-0.096590	-0.065900
856	4.305151	0.005000	0.027819	-9.638064	0.536517	0.625916	-0.210076	-1.220835	3.394302	-0.085987	-0.020480
857	4.310151	0.005000	0.379572	-9.077268	0.651862	0.626827	-0.212580	-1.226428	3.363245	-0.087239	0.012348
858	4.315151	0.005000	0.936163	-8.481437	0.724382	0.627738	-0.215085	-1.232022	3.335727	-0.094789	0.047386
859	4.320151	0.005000	1.326445	-7.745710	0.706320	0.628649	-0.217589	-1.237615	3.297277	-0.092852	0.053856
860	4.325151	0.005000	1.624330	-7.181949	0.682570	0.629559	-0.220094	-1.243209	3.294481	-0.092191	0.060821
861	4.330151	0.005000	1.700360	-6.932440	0.510120	0.630470	-0.222598	-1.248803	3.324152	-0.086861	0.068947
862	4.335151	0.005000	1.528575	-7.032431	0.491393	0.631381	-0.225103	-1.254396	3.323653	-0.076695	0.100645
863	4.340151	0.005000	1.102180	-6.618286	0.261406	0.632292	-0.227607	-1.259990	3.245869	-0.058104	0.142763
864	4.345151	0.005000	0.440656	-5.688741	0.000000	0.633202	-0.230112	-1.265583	3.081533	-0.050317	0.194903
865	4.350151	0.005000	-0.165734	-5.282046	-0.089447	0.634113	-0.232616	-1.271177	2.889969	-0.034431	0.239491
866	4.355151	0.005000	-0.352510	-4.791183	-0.081732	0.635024	-0.235121	-1.276770	2.721512	-0.030887	0.282156
867	4.360151	0.005000	-0.932532	-4.527981	-0.268528	0.635892	-0.238007	-1.282537	2.560072	-0.037951	0.361886
868	4.365151	0.005000	-1.147778	-4.300698	-0.211902	0.636461	-0.243581	-1.289523	2.471190	-0.045349	0.415890
869	4.370151	0.005000	-0.710722	-4.399206	-0.257223	0.637029	-0.249154	-1.296508	2.421742	-0.056205	0.477767
870	4.375151	0.005000	0.034823	-3.833660	-0.122894	0.637598	-0.254727	-1.303494	2.385278	-0.072968	0.505380
871	4.380151	0.005000	0.415091	-3.702507	0.292167	0.638167	-0.260301	-1.310479	2.413038	-0.091493	0.549084
872	4.385151	0.005000	0.487671	-3.806462	1.267177	0.638735	-0.265874	-1.317465	2.554742	-0.107548	0.576912
873	4.390151	0.005000	0.080295	-4.025383	1.319532	0.639304	-0.271447	-1.324450	3.031096	-0.112914	0.608928
874	4.395151	0.005000	0.092821	-3.057831	1.993571	0.639873	-0.277020	-1.331436	3.679006	-0.162340	0.661157
875	4.400151	0.005000	-0.068012	-1.330242	2.564925	0.640442	-0.282594	-1.338421	4.853376	-0.285285	0.744895
876	4.405151	0.005000	-0.848343	-1.150173	3.881500	0.641010	-0.288167	-1.345407	5.847221	-0.409259	0.802969
877	4.410151	0.005000	-0.374096	0.244592	3.578736	0.641579	-0.293740	-1.352392	7.131431	-0.077257	0.543153
878	4.415151	0.005000	-0.133120	0.527652	5.258901	0.642148	-0.299314	-1.359377	8.681131	-0.389015	0.593417
879	4.420151	0.005000	0.392400	0.799498	4.606451	0.642717	-0.304887	-1.366363	9.298255	-0.237539	0.497713
880	4.425151	0.005000	1.254591	0.419659	3.994856	0.643283	-0.310465	-1.373340	9.607233	-0.247229	0.406611
881	4.430151	0.005000	1.928660	-0.524793	3.652830	0.643056	-0.318089	-1.376389	9.693775	-0.230459	0.377337
882	4.435151	0.005000	2.937613	-0.401980	3.453120	0.642828	-0.325713	-1.379439	9.546783	-0.218315	0.305608
883	4.440151	0.005000	2.793029	-2.231295	2.539315	0.642601	-0.333337	-1.382488	8.962275	-0.218888	0.143147
884	4.445151	0.005000	2.383989	-3.011375	2.236680	0.642373	-0.340960	-1.385538	8.105408	-0.214738	0.085297
885	4.450151	0.005000	1.918412	-3.602073	1.825403	0.642146	-0.348584	-1.388588	7.140789	-0.207368	0.060577
886	4.455151	0.005000	1.321801	-4.289519	1.551326	0.641918	-0.356208	-1.391637	6.183706	-0.181768	0.062856
887	4.460151	0.005000	0.856382	-5.103999	1.234335	0.641690	-0.363832	-1.394687	5.254621	-0.164563	0.064078
888	4.465151	0.005000	0.474492	-5.785191	1.401805	0.641463	-0.371456	-1.397736	4.350948	-0.132668	0.091523
889	4.470151	0.005000	0.124739	-6.176790	1.514250	0.641235	-0.379080	-1.400786	3.441369	-0.104124	0.040376
890	4.475151	0.005000	0.012707	-5.871054	1.386667	0.641008	-0.386704	-1.403835	2.510333	-0.091685	0.111129
891	4.480151	0.005000	-0.150395	-5.073003	1.521556	0.640780	-0.394328	-1.406885	1.688268	-0.082170	0.214236
892	4.485151	0.005000	-0.520164	-4.489455	1.919765	0.640553	-0.401952	-1.409935	1.081971	-0.066935	0.235487
893	4.490151	0.005000	-0.654282	-3.924424	3.300093	0.640325	-0.409576	-1.412984	0.707665	-0.060662	0.272701
894	4.495151	0.005000	-0.927843	-4.574501	2.085347	0.639795	-0.413671	-1.413895	0.740025	-0.058212	0.298132
895	4.500151	0.005000	-1.412519	-4.591685	2.197410	0.639227	-0.417311	-1.414531	0.904210	-0.085266	0.257299
896	4.505151	0.005000	-2.177321	-4.255165	4.189059	0.638658	-0.420951	-1.415166	1.104272	-0.126063	0.251120
897	4.510151	0.005000	-2.472120	-3.856018	5.100943	0.638089	-0.424590	-1.415801	1.490798	-0.147086	0.318733
898	4.515151	0.005000	-2.308292	-3.767040	5.836216	0.637520	-0.428230	-1.416436	1.945694	-0.151759	0.312947
899	4.520151	0.005000	-1.853296	-3.372719	6.324069	0.636952	-0.431870	-1.417071	2.438782	-0.151707	0.294665
900	4.525151	0.005000	-1.166017	-2.775568	6.592320	0.636383	-0.435509	-1.417706	2.911023	-0.152893	0.264176
901	4.530151	0.005000	-0.443167	-2.012767	6.740052	0.635814	-0.439149	-1.418341	3.348473	-0.153168	0.222676
902	4.535151	0.005000	-0.034098	-1.308541	6.907954	0.635246	-0.442789	-1.418976	3.763697	-0.144687	0.171851
903	4.540151	0.005000	0.360391	-0.934529	7.102440	0.634677	-0.446428	-1.419611	3.981459	-0.144516	0.126129
904	4.545151	0.005000	0.751339	-0.622061	7.235166	0.634108	-0.450068	-1.420246	3.943910	-0.129215	0.056665
905	4.550151	0.005000	0.983312	-0.436264	7.220160	0.633539	-0.453707	-1.420882	3.629729	-0.122206	0.016962
906	4.555151	0.005000	0.981000	-0.323707	7.328002	0.632971	-0.457347	-1.421517	3.129401	-0.115411	-0.031636
907	4.560151	0.005000	0.849231	-0.399425	7.615468	0.632489	-0.458991	-1.421182	2.512048	-0.106889	-0.028816
908	4.565151	0.005000	0.683554	-0.466327	8.076073	0.632033	-0.460015	-1.420547	1.836441	-0.113540	-0.029471
909	4.570151	0.005000	0.339485	-0.472589	8.689134	0.631578	-0.461039	-1.419911	1.197731	-0.121365	-0.025532
910	4.575151	0.005000	-0.265604	-0.510120	9.407389	0.631123	-0.462063	-1.419276	0.650179	-0.123024	-0.019067
911	4.580151	0.005000	-0.874444	-0.470880	9.799471	0.630668	-0.463087	-1.418641	0.339955	-0.104216	-0.027183
912	4.585151	0.005000	-1.570719	-0.660727	10.203519	0.630213	-0.464111	-1.418005	0.278260	-0.078810	-0.037263
913	4.590151	0.005000	-1.826588	-0.919079	10.480937	0.629758	-0.465135	-1.417370	0.301159	-0.052852	-0.059404
914	4.595151	0.005000	-1.694430	-1.949626	10.594800	0.629303	-0.466159	-1.416734	0.268128	-0.034105	-0.079448
915	4.600151	0.005000	-1.519983	-3.552839	10.569991	0.628847	-0.467184	-1.416099	0.190455	-0.029081	-0.088113
916	4.605151	0.005000	-1.328533	-5.252760	10.297611	0.628392	-0.468208	-1.415464	0.075149	-0.035964	-0.099393
917	4.610151	0.005000	-1.000771	-6.337048	9.712051	0.627937	-0.469232	-1.414828	-0.000842	-0.057055	-0.062218
918	4.615151	0.005000	-0.880026	-6.648306	9.669287	0.627482	-0.470256	-1.414193	-0.065305	-0.089441	-0.030231
919	4.620151	0.005000	-0.784800	-6.496822	10.623633	0.627027	-0.471280	-1.413558	-0.237358	-0.094976	-0.011169
920	4.625151	0.005000	-0.754969	-5.881795	11.764694	0.626130	-0.472819	-1.412594	-0.546335	-0.093756	0.009157
921	4.630151	0.005000	-0.427541	-4.622590	12.312692	0.624992	-0.474640	-1.411450	-0.812772	-0.046003	-0.005938
922	4.635151	0.005000	-0.072586	-3.015417	12.140822	0.623854	-0.476460	-1.410306	-0.851202	-0.027208	0.026042
923	4.640151	0.005000	0.013796	-1.632136	11.896618	0.622716	-0.478281	-1.409163	-0.612840	-0.005411	0.032862
924	4.645151	0.005000	0.196200	-0.580129	12.205455	0.621578	-0.480102	-1.408019	-0.145768	-0.006801	0.061168
925	4.650151	0.005000	0.158766	0.447403	12.358794	0.620440	-0.481922	-1.406876	0.467538	-0.018461	0.059424
926	4.655151	0.005000	0.152331	0.775542	12.074454	0.619302	-0.483743	-1.405732	1.144728	-0.022680	0.043499
927	4.660151	0.005000	0.125193	0.909993	11.385197	0.618164	-0.485564	-1.404588	1.747612	-0.028730	0.032669
928	4.665151	0.005000	0.274680	0.510423	10.928567	0.617026	-0.487384	-1.403445	2.283438	-0.028920	-0.005909
929	4.670151	0.005000	0.141939	-0.121214	10.764452	0.615889	-0.489205	-1.402301	2.691189	-0.045471	-0.016994
930	4.675151	0.005000	0.015249	-1.111933	10.736511	0.614751	-0.491025	-1.401157	2.881791	-0.062632	-0.061742
931	4.680151	0.005000	0.017911	-2.060993	10.751760	0.613613	-0.492846	-1.400014	2.845826	-0.069674	-0.077588
932	4.685151	0.005000	-0.230902	-2.853175	10.922667	0.612475	-0.494667	-1.398870	2.646220	-0.099417	-0.099410
933	4.690151	0.005000	-0.415545	-3.487308	11.476172	0.612181	-0.496125	-1.397996	2.326704	-0.125641	-0.137608
934	4.695151	0.005000	-0.444377	-4.056514	11.917252	0.612636	-0.497262	-1.397361	1.995606	-0.140423	-0.149919
935	4.700151	0.005000	-0.400040	-4.654280	12.470680	0.613091	-0.498400	-1.396726	1.651520	-0.148852	-0.149733
936	4.705151	0.005000	-0.179212	-4.574092	12.556800	0.613546	-0.499537	-1.396091	1.374654	-0.143514	-0.154423
937	4.710151	0.005000	0.177715	-3.995022	12.488697	0.614001	-0.500675	-1.395456	1.226510	-0.141508	-0.139676
938	4.715151	0.005000	0.700118	-5.993887	15.078462	0.614456	-0.501812	-1.394821	1.223149	-0.139252	-0.136891
939	4.720151	0.005000	-1.130018	-29.326530	21.022762	0.614911	-0.502950	-1.394186	-1.587913	0.331488	-0.010924
940	4.725151	0.005000	-0.203189	-13.595783	6.411474	0.615366	-0.504087	-1.393551	-2.516939	-0.049894	0.448727
941	4.730151	0.005000	-8.054154	1.412579	12.565997	0.615821	-0.505224	-1.392916	1.915479	0.441107	0.696411
942	4.735151	0.005000	-6.688015	2.383626	34.783582	0.616276	-0.506362	-1.392281	3.247325	0.829603	0.602170
943	4.740151	0.005000	-2.314343	3.532538	21.914496	0.616731	-0.507499	-1.391646	2.006211	0.790222	0.540642
944	4.745151	0.005000	-0.433213	-0.923698	15.391610	0.617186	-0.508637	-1.391011	0.490265	0.246604	-0.010406
945	4.750151	0.005000	-1.411672	-1.730009	11.794146	0.617640	-0.509774	-1.390376	-0.006763	0.241901	-0.210690
946	4.755151	0.005000	-1.159501	-3.889177	11.248326	0.617029	-0.511097	-1.388861	-0.164240	0.137222	-0.249008
947	4.760151	0.005000	-1.162980	-0.770505	9.331904	0.614867	-0.512690	-1.386065	0.507457	0.140950	0.132372
948	4.765151	0.005000	-0.413593	0.935134	15.355017	0.612705	-0.514283	-1.383270	-0.101829	0.062075	0.274755
949	4.770151	0.005000	-0.365449	2.116159	11.535045	0.610543	-0.515876	-1.380474	0.588866	0.359998	0.191263
950	4.775151	0.005000	0.876017	1.057362	24.860945	0.608381	-0.517469	-1.377679	1.615762	-0.249025	0.201524
951	4.780151	0.005000	2.068329	0.858802	9.890719	0.606219	-0.519063	-1.374883	-0.059731	-0.025117	0.172002
952	4.785151	0.005000	2.869058	-2.061567	12.256494	0.604057	-0.520656	-1.372088	0.948328	0.026844	0.129397
953	4.790151	0.005000	1.912595	-0.281729	7.789579	0.601895	-0.522249	-1.369292	0.497984	-0.075060	-0.112606
954	4.795151	0.005000	1.877772	-1.244335	11.884274	0.599733	-0.523842	-1.366496	0.713578	0.052418	0.044433
955	4.800151	0.005000	0.902673	-0.196353	8.886911	0.597571	-0.525435	-1.363701	0.234968	-0.025723	0.019466
956	4.805151	0.005000	0.646053	-1.604332	10.047316	0.595408	-0.527028	-1.360905	0.366738	0.000245	0.036485
957	4.810151	0.005000	0.094536	-1.537488	10.182167	0.593246	-0.528621	-1.358110	0.417078	0.011601	0.009189
958	4.815151	0.005000	-0.365235	-1.325773	9.875395	0.591084	-0.530214	-1.355314	0.188294	-0.000481	0.001279
959	4.820151	0.005000	-0.553459	-1.584243	10.322465	0.589585	-0.531475	-1.353481	0.124548	-0.000782	-0.017764
960	4.825151	0.005000	-0.409690	-1.345445	9.457460	0.589699	-0.531930	-1.353989	0.041301	0.010996	-0.002319
961	4.830151	0.005000	-0.276737	-1.312997	9.746511	0.589813	-0.532385	-1.354497	0.012915	0.009432	-0.035030
962	4.835151	0.005000	-0.201979	-0.948144	9.127399	0.589926	-0.532840	-1.355005	0.040631	0.023277	-0.021759
963	4.840151	0.005000	0.236075	-1.515959	10.529178	0.590040	-0.533295	-1.355513	0.139789	0.048248	-0.004673
964	4.845151	0.005000	0.605771	-2.093096	11.036296	0.590154	-0.533750	-1.356021	-0.096762	0.007485	-0.028376
965	4.850151	0.005000	0.461017	-1.523311	9.159409	0.590268	-0.534205	-1.356529	-0.061928	0.025292	0.020930
966	4.855151	0.005000	0.681663	-1.877832	11.028225	0.590382	-0.534660	-1.357037	-0.092981	0.025658	-0.030391
967	4.860151	0.005000	0.184431	-1.198802	8.641165	0.590495	-0.535115	-1.357545	-0.134362	0.016436	-0.018167
968	4.865151	0.005000	0.388860	-2.840922	11.029102	0.590609	-0.535570	-1.358053	0.015599	0.015829	-0.020371
969	4.870151	0.005000	0.230932	-1.220948	8.336912	0.590723	-0.536025	-1.358561	-0.027172	0.024164	-0.018519
970	4.875151	0.005000	0.499924	-2.405379	10.828697	0.590837	-0.536480	-1.359070	0.179451	0.014160	-0.010185
971	4.880151	0.005000	0.431640	-1.325749	9.269051	0.590950	-0.536935	-1.359578	0.225953	0.008659	-0.008549
972	4.885151	0.005000	0.289187	-1.933092	9.770760	0.591256	-0.537236	-1.360193	0.427296	0.017191	-0.024914
973	4.890151	0.005000	0.222264	-2.248706	9.652753	0.592508	-0.536781	-1.361336	0.439513	0.009198	-0.022907
974	4.895151	0.005000	0.227302	-2.432880	10.052852	0.593759	-0.536326	-1.362480	0.533901	0.015654	-0.031964
975	4.900151	0.005000	0.156960	-2.234229	9.763408	0.595011	-0.535871	-1.363624	0.528553	0.009645	-0.026166
976	4.905151	0.005000	0.063716	-2.043717	9.635039	0.596263	-0.535416	-1.364767	0.599290	0.010126	-0.025676
977	4.910151	0.005000	-0.015335	-1.883520	9.543890	0.597515	-0.534960	-1.365911	0.687710	0.005427	-0.024169
978	4.915151	0.005000	-0.221735	-1.935527	9.768884	0.598766	-0.534505	-1.367054	0.731299	0.005100	-0.044464
979	4.920151	0.005000	-0.373007	-2.118960	10.173537	0.600018	-0.534050	-1.368198	0.798452	0.020110	-0.029654
980	4.925151	0.005000	-0.681410	-2.397391	10.377105	0.601270	-0.533595	-1.369342	0.827918	0.024585	-0.021786
981	4.930151	0.005000	-0.882098	-2.756209	10.271471	0.602521	-0.533140	-1.370485	0.802896	0.033455	-0.017576
982	4.935151	0.005000	-0.981000	-2.903760	10.200539	0.603773	-0.532685	-1.371629	0.741797	0.037358	0.011032
983	4.940151	0.005000	-0.981000	-2.748943	10.085751	0.605025	-0.532230	-1.372772	0.618832	0.036756	0.020065
984	4.945151	0.005000	-0.641333	-2.453120	10.088053	0.606277	-0.531774	-1.373916	0.468556	0.039926	0.033629
985	4.950151	0.005000	-0.260309	-1.999304	10.136355	0.607487	-0.531343	-1.375000	0.372812	0.043108	0.042948
986	4.955151	0.005000	0.030544	-1.421122	9.979897	0.607942	-0.531343	-1.375000	0.251258	0.047647	0.057699
987	4.960151	0.005000	0.278626	-0.914210	9.700098	0.608397	-0.531343	-1.375000	0.149002	0.039504	0.071155
988	4.965151	0.005000	0.453000	-0.385320	9.663720	0.608852	-0.531343	-1.375000	0.145130	0.038302	0.067134
989	4.970151	0.005000	0.476407	0.134301	9.552177	0.609307	-0.531343	-1.375000	0.183982	0.034305	0.067999
990	4.975151	0.005000	0.647581	0.490863	9.495838	0.609761	-0.531343	-1.375000	0.278421	0.008379	0.058269
991	4.980151	0.005000	0.723217	0.453983	9.445389	0.610216	-0.531343	-1.375000	0.471215	-0.000409	0.027184
992	4.985151	0.005000	0.638066	0.301077	9.192386	0.610671	-0.531343	-1.375000	0.636664	-0.011622	0.011382
993	4.990151	0.005000	0.486794	-0.164372	9.166246	0.611126	-0.531343	-1.375000	0.788931	-0.016177	-0.020626
994	4.995151	0.005000	0.353160	-0.642155	9.173234	0.611581	-0.531343	-1.375000	0.822251	-0.028143	-0.037102
995	5.000151	0.005000	0.346716	-1.118053	9.162253	0.612036	-0.531343	-1.375000	0.699331	-0.020660	-0.056294
996	5.005151	0.005000	0.149759	-1.462681	9.307081	0.612491	-0.531343	-1.375000	0.501430	-0.019805	-0.049838
997	5.010151	0.005000	-0.196965	-1.450350	9.418365	0.612946	-0.531343	-1.375000	0.255571	-0.016752	-0.054459
998	5.015151	0.005000	-0.385865	-1.298187	9.494446	0.613401	-0.531343	-1.375000	0.027244	-0.014187	-0.050283
999	5.020151	0.005000	-0.470880	-0.994433	9.570082	0.613433	-0.531978	-1.374882	-0.110696	-0.021323	-0.065489
1000	5.025151	0.005000	-0.510120	-0.664448	9.699602	0.613433	-0.532661	-1.374755	-0.107929	-0.013508	-0.068052
1001	5.030151	0.005000	-0.461066	-0.588600	9.859039	0.613433	-0.533343	-1.374628	0.032540	-0.009147	-0.064221
1002	5.035151	0.005000	-0.629459	-0.839818	10.257418	0.613433	-0.534026	-1.374501	0.201083	-0.021633	-0.080914
1003	5.040151	0.005000	-0.682464	-1.202614	10.564031	0.613433	-0.534709	-1.374373	0.367239	-0.023836	-0.090302
1004	5.045151	0.005000	-0.645614	-1.741324	10.733986	0.613433	-0.535392	-1.374246	0.478411	-0.034576	-0.084325
1005	5.050151	0.005000	-0.665083	-2.230690	10.890098	0.613433	-0.536075	-1.374119	0.575270	-0.030072	-0.086317
1006	5.055151	0.005000	-0.722098	-2.590248	10.720205	0.613433	-0.536757	-1.373992	0.595131	-0.030102	-0.067071
1007	5.060151	0.005000	-0.745560	-2.760203	10.542157	0.613433	-0.537440	-1.373865	0.573889	-0.026146	-0.077903
1008	5.065151	0.005000	-0.784800	-2.586845	10.231081	0.613433	-0.538123	-1.373738	0.492061	-0.028267	-0.058406
1009	5.070151	0.005000	-0.636220	-2.261156	10.069250	0.613433	-0.538806	-1.373611	0.368280	-0.023528	-0.056312
1010	5.075151	0.005000	-0.297946	-1.723202	9.715546	0.613433	-0.539489	-1.373484	0.270357	-0.023213	-0.042909
1011	5.080151	0.005000	-0.073518	-1.086316	9.319273	0.613433	-0.540171	-1.373357	0.189535	-0.020909	-0.029196
1012	5.085151	0.005000	0.038877	-0.669258	8.791938	0.613433	-0.539837	-1.373126	0.142404	-0.014338	-0.030561
1013	5.090151	0.005000	0.148647	-0.400713	8.904709	0.613433	-0.539268	-1.372872	0.152119	-0.004584	-0.010997
1014	5.095151	0.005000	0.336414	-0.353160	9.053276	0.613433	-0.538699	-1.372618	0.185834	-0.000672	-0.016161
1015	5.100151	0.005000	0.493268	-0.243866	9.204548	0.613433	-0.538130	-1.372364	0.232108	0.002372	-0.004402
1016	5.105151	0.005000	0.459949	-0.455463	9.339120	0.613433	-0.537562	-1.372110	0.281906	-0.002751	-0.004645
1017	5.110151	0.005000	0.394094	-0.677336	9.494386	0.613433	-0.536993	-1.371857	0.291171	0.014805	-0.000247
1018	5.115151	0.005000	0.330142	-0.902520	9.558338	0.613433	-0.536424	-1.371603	0.291919	0.020199	0.012563
1019	5.120151	0.005000	0.273198	-1.079841	9.514959	0.613433	-0.535856	-1.371349	0.265325	0.039551	0.022129
1020	5.125151	0.005000	0.047651	-1.159683	9.609595	0.613433	-0.535287	-1.371095	0.215025	0.047173	0.033173
1021	5.130151	0.005000	-0.117720	-1.221753	9.673204	0.613433	-0.534718	-1.370841	0.122832	0.058727	0.036568
1022	5.135151	0.005000	0.161649	-1.824373	11.089127	0.613433	-0.534149	-1.370587	0.012412	0.069567	0.045605
1023	5.140151	0.005000	-0.087935	-1.464178	9.343809	0.613433	-0.533581	-1.370333	0.023319	0.075562	0.060088
1024	5.145151	0.005000	-0.203264	-1.156007	10.699934	0.613433	-0.533012	-1.370079	0.118195	0.061038	0.050756
1025	5.150151	0.005000	-0.222779	-1.107161	10.275404	0.613040	-0.533307	-1.369649	0.035390	0.055606	0.062607
1026	5.155151	0.005000	-0.070221	-1.292167	10.243017	0.612472	-0.533990	-1.369141	-0.042039	0.046023	0.027843
1027	5.160151	0.005000	0.195190	-1.063522	10.433798	0.611903	-0.534672	-1.368633	-0.043792	0.030110	0.023458
1028	5.165151	0.005000	0.235440	-0.800169	10.056967	0.611334	-0.535355	-1.368125	-0.008623	0.014392	0.020334
1029	5.170151	0.005000	0.235440	-0.817354	10.143101	0.610765	-0.536037	-1.367617	0.008314	0.003773	0.012566
1030	5.175151	0.005000	0.235440	-0.733868	10.057132	0.610197	-0.536719	-1.367109	0.028416	0.001026	0.006247
1031	5.180151	0.005000	0.235440	-0.718240	10.057360	0.609628	-0.537402	-1.366601	0.104830	0.006993	0.001369
1032	5.185151	0.005000	0.210964	-0.578888	9.893532	0.609059	-0.538084	-1.366093	0.182719	0.000786	0.004346
1033	5.190151	0.005000	0.218094	-0.680721	9.853787	0.608491	-0.538767	-1.365585	0.281246	-0.002385	0.005164
1034	5.195151	0.005000	0.118446	-0.903246	9.732246	0.607922	-0.539449	-1.365077	0.347379	0.004232	0.012844
1035	5.200151	0.005000	0.117720	-0.964587	9.826413	0.607353	-0.540131	-1.364569	0.398355	-0.000402	0.015809
1036	5.205151	0.005000	0.142937	-0.863280	9.681086	0.606784	-0.540814	-1.364061	0.442353	0.013470	0.022838
1037	5.210151	0.005000	0.268977	-0.868983	9.899659	0.606216	-0.541496	-1.363552	0.471294	0.020186	0.024386
1038	5.215151	0.005000	0.361596	-0.681012	9.801564	0.606422	-0.541726	-1.363550	0.452049	0.024666	0.015905
1039	5.220151	0.005000	0.392400	-0.757480	9.861160	0.607219	-0.541613	-1.363931	0.416354	0.010022	0.007592
1040	5.225151	0.005000	0.428524	-0.938644	9.849240	0.608016	-0.541499	-1.364312	0.370835	0.016059	0.006315
1041	5.230151	0.005000	0.431640	-1.019968	9.849785	0.608812	-0.541385	-1.364693	0.317342	0.031093	0.002964
1042	5.235151	0.005000	0.431640	-1.277779	10.261597	0.609609	-0.541271	-1.365074	0.257801	0.031986	0.009786
1043	5.240151	0.005000	0.049163	-0.883581	9.852417	0.610405	-0.541158	-1.365456	0.152760	0.013662	-0.011443
1044	5.245151	0.005000	-0.039452	-0.989229	9.536167	0.611202	-0.541044	-1.365837	0.211465	0.010744	-0.009109
1045	5.250151	0.005000	-0.107420	-1.259598	10.334338	0.611998	-0.540930	-1.366218	0.218120	0.014885	-0.014478
1046	5.255151	0.005000	-0.170137	-0.902811	9.404423	0.612795	-0.540816	-1.366599	0.087500	0.008784	-0.014477
1047	5.260151	0.005000	-0.258812	-1.020240	10.412744	0.613591	-0.540703	-1.366980	0.078989	0.011757	0.002684
1048	5.265151	0.005000	-0.274680	-0.741929	9.563668	0.614388	-0.540589	-1.367362	0.013622	0.014040	-0.000311
1049	5.270151	0.005000	-0.295767	-0.775996	10.003810	0.615185	-0.540475	-1.367743	0.063728	0.015723	-0.005534
1050	5.275151	0.005000	-0.353160	-0.919765	10.057935	0.615981	-0.540361	-1.368124	0.105580	0.011352	-0.006820
1051	5.280151	0.005000	-0.367179	-0.769373	9.779147	0.616212	-0.540659	-1.368333	0.114208	0.011805	-0.009451
1052	5.285151	0.005000	-0.323995	-0.863280	10.150967	0.615757	-0.541455	-1.368333	0.100563	0.012935	-0.010579
1053	5.290151	0.005000	-0.313920	-0.870511	9.657185	0.615302	-0.542252	-1.368333	0.065626	0.013872	-0.011582
1054	5.295151	0.005000	-0.296372	-0.828427	10.298186	0.614847	-0.543048	-1.368333	0.063223	0.007942	0.000151
1055	5.300151	0.005000	-0.115708	-0.780776	9.729508	0.614392	-0.543845	-1.368333	0.042430	0.012962	-0.004574
1056	5.305151	0.005000	-0.040072	-0.667912	10.114768	0.613937	-0.544641	-1.368333	0.050192	0.014567	-0.004076
1057	5.310151	0.005000	0.071128	-0.556712	9.889675	0.613482	-0.545438	-1.368333	0.041966	0.008981	-0.003456
1058	5.315151	0.005000	0.045306	-0.476946	9.891324	0.613026	-0.546234	-1.368333	0.065251	0.014591	-0.004793
1059	5.320151	0.005000	0.108810	-0.536850	9.963360	0.612571	-0.547031	-1.368333	0.076193	0.011306	0.000813
1060	5.325151	0.005000	0.145206	-0.580825	9.825732	0.612116	-0.547827	-1.368333	0.095011	0.009798	-0.014494
1061	5.330151	0.005000	0.131849	-0.784800	9.984235	0.611661	-0.548624	-1.368333	0.108923	0.009644	0.006817
1062	5.335151	0.005000	0.016973	-0.834629	9.832267	0.611206	-0.549420	-1.368333	0.112987	0.005693	-0.003080
1063	5.340151	0.005000	-0.098131	-0.823979	9.927720	0.610751	-0.550216	-1.368333	0.131954	0.012440	0.003616
1064	5.345151	0.005000	-0.134753	-0.701146	9.878133	0.610486	-0.550593	-1.368077	0.130804	0.004324	0.000366
1065	5.350151	0.005000	-0.053429	-0.759749	9.952771	0.610600	-0.550138	-1.367315	0.161769	0.007441	0.003737
1066	5.355151	0.005000	-0.106237	-0.812557	9.876997	0.610714	-0.549683	-1.366553	0.175978	0.014564	-0.006800
1067	5.360151	0.005000	-0.135661	-0.815070	9.931078	0.610827	-0.549228	-1.365790	0.174067	0.015675	-0.021095
1068	5.365151	0.005000	-0.235440	-0.803395	9.828595	0.610941	-0.548773	-1.365028	0.165544	0.016401	-0.021778
1069	5.370151	0.005000	-0.270944	-0.820304	9.892216	0.611055	-0.548318	-1.364265	0.169453	0.010558	-0.007071
1070	5.375151	0.005000	-0.312135	-0.862387	10.119457	0.611169	-0.547863	-1.363503	0.181891	0.011892	-0.021026
1071	5.380151	0.005000	-0.197700	-0.710821	9.889980	0.611282	-0.547407	-1.362741	0.210526	0.011896	-0.022003
1072	5.385151	0.005000	-0.161286	-0.706320	9.997547	0.611396	-0.546952	-1.361978	0.230032	0.013534	-0.015677
1073	5.390151	0.005000	-0.117720	-0.726667	9.941285	0.611510	-0.546497	-1.361216	0.251187	0.018195	-0.010875
1074	5.395151	0.005000	-0.058331	-0.764651	9.868331	0.611624	-0.546042	-1.360454	0.257713	0.010030	-0.018326
1075	5.400151	0.005000	0.068163	-0.718709	9.954571	0.611737	-0.545587	-1.359691	0.275361	0.011301	-0.009190
1076	5.405151	0.005000	0.078480	-0.779183	9.976296	0.611851	-0.545132	-1.358929	0.290395	0.004444	-0.005225
1077	5.410151	0.005000	0.100097	-0.710314	9.949337	0.611990	-0.544875	-1.358416	0.299714	0.009468	-0.012601
1078	5.415151	0.005000	0.155266	-0.882053	9.984039	0.612217	-0.545331	-1.358798	0.321239	0.005796	-0.002997
1079	5.420151	0.005000	0.147835	-0.854155	9.983082	0.612445	-0.545786	-1.359179	0.337393	0.009604	-0.011361
1080	5.425151	0.005000	0.090612	-0.706320	9.915588	0.612672	-0.546241	-1.359560	0.335753	0.002410	-0.007245
1081	5.430151	0.005000	-0.089190	-0.645660	9.963360	0.612900	-0.546696	-1.359941	0.309817	0.009460	-0.001206
1082	5.435151	0.005000	-0.078480	-0.611200	9.857560	0.613128	-0.547151	-1.360322	0.278542	0.015334	0.000448
1083	5.440151	0.005000	0.044716	-0.510120	9.922244	0.613355	-0.547606	-1.360704	0.269367	0.006885	0.012184
1084	5.445151	0.005000	0.000000	-0.515448	9.776088	0.613583	-0.548062	-1.361085	0.263697	0.011125	0.001359
1085	5.450151	0.005000	-0.116949	-0.549617	9.966960	0.613810	-0.548517	-1.361466	0.276894	0.009978	0.014297
1086	5.455151	0.005000	-0.109960	-0.515294	9.893654	0.614038	-0.548972	-1.361847	0.261364	0.007025	0.010682
1087	5.460151	0.005000	0.024135	-0.510120	9.922685	0.614266	-0.549427	-1.362228	0.244695	0.008922	0.006494
1088	5.465151	0.005000	0.054882	-0.478701	9.762803	0.614493	-0.549882	-1.362610	0.225813	0.011014	0.007599
1089	5.470151	0.005000	-0.017911	-0.460215	9.895726	0.614721	-0.550337	-1.362991	0.203447	0.012932	0.005902
1090	5.475151	0.005000	0.013197	-0.444837	9.928072	0.614937	-0.550734	-1.363320	0.196693	0.005883	0.019974
1091	5.480151	0.005000	-0.039240	-0.447799	9.934641	0.615050	-0.550621	-1.363193	0.188003	0.004365	0.010916
1092	5.485151	0.005000	0.076695	-0.431640	9.903637	0.615164	-0.550507	-1.363066	0.173720	0.007485	0.022977
1093	5.490151	0.005000	0.014386	-0.453005	10.052847	0.615278	-0.550393	-1.362939	0.155665	0.004209	0.002137
1094	5.495151	0.005000	0.078480	-0.401083	10.078085	0.615392	-0.550280	-1.362812	0.135123	0.007330	0.013955
1095	5.500151	0.005000	-0.026805	-0.378029	9.954525	0.615505	-0.550166	-1.362685	0.112719	0.008245	0.007338
1096	5.505151	0.005000	-0.039240	-0.412227	9.967373	0.615619	-0.550052	-1.362558	0.116413	0.012888	0.001231
1097	5.510151	0.005000	-0.064049	-0.438856	9.881264	0.615733	-0.549939	-1.362431	0.114896	0.014218	0.011597
1098	5.515151	0.005000	0.000000	-0.479726	9.858086	0.615847	-0.549825	-1.362304	0.104775	0.013982	0.006278
