# FOX Logger (IMU file)
# (c) INRIA 2011-2014
# File created from file sensbiotk output
#
# File format:
# id	t	dt	ax	ay	az	mx	my	mz	gx	gy	gz
#
# Units:
#	Time: s
#	Acceleration: m.s^-2
#	Magneto: gauss
#	Gyrometer: rad/s
#
1	0.021423	0.021423	-1.020720	-1.137960	-9.829860	-0.343284	0.028358	-0.260000	-0.016931	0.008326	-0.015148
2	0.026423	0.005000	-0.881637	-1.198083	-9.812525	-0.343510	0.028019	-0.258991	-0.022357	0.009084	-0.020455
3	0.031423	0.005000	-0.941760	-1.216440	-9.888480	-0.343736	0.027681	-0.257983	-0.011246	0.013460	-0.028465
4	0.036423	0.005000	-1.081927	-1.261334	-9.888480	-0.343961	0.027342	-0.256974	-0.007843	0.008926	-0.013351
5	0.041423	0.005000	-0.957530	-1.232210	-9.865010	-0.344187	0.027003	-0.255966	-0.006969	0.019259	-0.014017
6	0.046423	0.005000	-0.902520	-1.303735	-9.864453	-0.344413	0.026665	-0.254957	0.004689	0.012781	-0.018900
7	0.051423	0.005000	-0.991860	-1.202250	-9.899340	-0.344639	0.026326	-0.253949	0.016311	0.017225	-0.006389
8	0.056423	0.005000	-0.941481	-1.190373	-9.848961	-0.344865	0.025987	-0.252940	0.001042	0.019961	-0.016547
9	0.061423	0.005000	-0.968693	-1.204133	-9.783067	-0.345090	0.025649	-0.251932	0.002801	0.016110	-0.005029
10	0.066423	0.005000	-0.976569	-1.114754	-9.782363	-0.345316	0.025310	-0.250923	-0.015285	0.015930	-0.007826
11	0.071423	0.005000	-1.009659	-1.130462	-9.899061	-0.345542	0.024972	-0.249915	-0.012973	0.008721	-0.017099
12	0.076423	0.005000	-0.961113	-1.294920	-9.918043	-0.345768	0.024633	-0.248906	-0.007413	0.017369	-0.002971
13	0.081423	0.005000	-0.884488	-1.294920	-9.888480	-0.345993	0.024294	-0.247898	-0.030365	0.019120	-0.011787
14	0.086423	0.005000	-0.887261	-1.232427	-9.864499	-0.346219	0.023956	-0.246889	-0.037230	0.020704	-0.017857
15	0.091423	0.005000	-0.973942	-1.269795	-9.835125	-0.345917	0.023969	-0.246765	-0.046476	0.013858	-0.003724
16	0.096423	0.005000	-0.896091	-1.249251	-9.796476	-0.345465	0.024082	-0.246891	-0.039144	0.016210	-0.003087
17	0.101423	0.005000	-0.964780	-1.200220	-9.849240	-0.345014	0.024195	-0.247017	-0.042079	0.026962	-0.011995
18	0.106423	0.005000	-0.872153	-1.137960	-9.835930	-0.344562	0.024308	-0.247143	-0.032681	0.016912	-0.002998
19	0.111423	0.005000	-1.004928	-1.137960	-9.884652	-0.344111	0.024420	-0.247269	-0.030777	0.017624	-0.003817
20	0.116423	0.005000	-0.829679	-1.182839	-9.891299	-0.343659	0.024533	-0.247395	-0.029124	0.015203	-0.017104
21	0.121423	0.005000	-0.938166	-1.180794	-9.922329	-0.343207	0.024646	-0.247521	0.002448	0.009308	-0.000821
22	0.126423	0.005000	-0.941760	-1.179679	-9.849240	-0.342756	0.024759	-0.247647	-0.008024	0.015547	-0.018116
23	0.131423	0.005000	-0.980566	-1.295137	-9.810434	-0.342304	0.024872	-0.247773	-0.000587	0.003420	-0.014653
24	0.136423	0.005000	-0.902520	-1.295726	-9.850046	-0.341853	0.024985	-0.247899	-0.005652	0.017261	-0.005838
25	0.141423	0.005000	-0.979636	-1.294920	-9.889844	-0.341401	0.025098	-0.248025	-0.002818	0.014114	-0.018937
26	0.146423	0.005000	-0.944130	-1.177200	-9.964590	-0.340949	0.025210	-0.248151	0.012921	0.009772	-0.009329
27	0.151423	0.005000	-1.049302	-1.209655	-9.856025	-0.340498	0.025323	-0.248278	-0.000070	0.018115	-0.015530
28	0.156423	0.005000	-0.902520	-1.216440	-9.849240	-0.340173	0.025563	-0.248756	-0.003078	0.016115	-0.016921
29	0.161423	0.005000	-0.873195	-1.285005	-9.849240	-0.339947	0.025901	-0.249513	-0.009220	0.024760	-0.014954
30	0.166423	0.005000	-0.902520	-1.183180	-9.849240	-0.339721	0.026240	-0.250269	-0.014868	0.023711	-0.016041
31	0.171423	0.005000	-0.941760	-1.170198	-9.945954	-0.339495	0.026579	-0.251026	-0.014327	0.014136	-0.004801
32	0.176423	0.005000	-1.044204	-1.153236	-9.864516	-0.339269	0.026917	-0.251782	-0.016707	0.015315	-0.018705
33	0.181423	0.005000	-1.028807	-1.107287	-9.823540	-0.339043	0.027256	-0.252538	-0.014169	0.006284	-0.012150
34	0.186423	0.005000	-0.990589	-1.177200	-9.839651	-0.338817	0.027595	-0.253295	-0.012395	0.018492	-0.020298
35	0.191423	0.005000	-0.952029	-1.185634	-9.936154	-0.338592	0.027934	-0.254051	-0.011422	0.012513	-0.013474
36	0.196423	0.005000	-1.009071	-1.227609	-9.961228	-0.338366	0.028272	-0.254808	-0.009073	0.011972	-0.011136
37	0.201423	0.005000	-0.914701	-1.150141	-9.900661	-0.338140	0.028611	-0.255564	0.007494	0.011389	-0.016523
38	0.206423	0.005000	-0.993842	-1.202885	-9.797158	-0.337914	0.028950	-0.256320	0.007429	0.006739	-0.012355
39	0.211423	0.005000	-1.022269	-1.334160	-9.770760	-0.337688	0.029288	-0.257077	0.010731	0.014280	-0.019991
40	0.216423	0.005000	-0.966221	-1.285238	-9.819682	-0.337462	0.029627	-0.257833	0.014542	0.015256	-0.009929
41	0.221423	0.005000	-0.973363	-1.271481	-9.849240	-0.337466	0.029851	-0.258290	0.018340	0.021173	-0.011897
42	0.226423	0.005000	-0.981000	-1.272504	-9.776352	-0.337918	0.029851	-0.258164	0.012744	0.028246	-0.020719
43	0.231423	0.005000	-1.042114	-1.220948	-9.831874	-0.338370	0.029851	-0.258038	0.006369	0.019097	-0.010398
44	0.236423	0.005000	-0.879205	-1.352548	-9.844314	-0.338821	0.029851	-0.257912	-0.012065	0.022774	-0.020682
45	0.241423	0.005000	-0.882445	-1.294920	-9.751595	-0.339273	0.029851	-0.257786	-0.008659	0.013862	-0.009950
46	0.246423	0.005000	-0.902520	-1.256346	-9.849906	-0.339724	0.029851	-0.257660	-0.021528	0.020088	-0.007456
47	0.251423	0.005000	-0.865991	-1.237416	-9.849240	-0.340176	0.029851	-0.257534	-0.018220	0.023652	-0.011996
48	0.256423	0.005000	-0.898708	-1.120246	-9.849240	-0.340628	0.029851	-0.257408	-0.018936	0.021228	-0.017562
49	0.261423	0.005000	-0.896680	-1.216440	-9.770760	-0.341079	0.029851	-0.257282	-0.021641	0.010797	-0.017630
50	0.266423	0.005000	-0.941760	-1.161523	-9.935512	-0.341531	0.029851	-0.257156	-0.015817	0.016033	-0.017150
51	0.271423	0.005000	-0.966345	-1.152615	-9.834585	-0.341983	0.029851	-0.257030	-0.007675	0.020078	-0.025966
52	0.276423	0.005000	-0.952805	-1.202343	-9.902577	-0.342434	0.029851	-0.256904	-0.011230	0.016703	-0.017278
53	0.281423	0.005000	-0.902505	-1.216440	-9.888480	-0.342886	0.029851	-0.256778	-0.013223	0.024031	-0.019853
54	0.286423	0.005000	-0.890318	-1.228642	-9.912883	-0.343284	0.029824	-0.256577	-0.005606	0.018901	-0.021705
55	0.291423	0.005000	-0.941760	-1.244170	-9.939230	-0.343284	0.029598	-0.255821	-0.005349	0.011694	-0.011297
56	0.296423	0.005000	-0.970512	-1.177200	-9.974737	-0.343284	0.029373	-0.255064	-0.008000	0.021450	-0.020060
57	0.301423	0.005000	-0.960925	-1.197275	-9.849240	-0.343284	0.029147	-0.254308	0.003727	0.011664	-0.011585
58	0.306423	0.005000	-0.981000	-1.107643	-9.731520	-0.343284	0.028921	-0.253551	-0.012376	0.008858	-0.011255
59	0.311423	0.005000	-0.941760	-1.271481	-9.857404	-0.343284	0.028695	-0.252795	-0.011998	0.008997	-0.020689
60	0.316423	0.005000	-0.863280	-1.255680	-9.881517	-0.343284	0.028469	-0.252038	-0.002977	0.017351	-0.009313
61	0.321423	0.005000	-0.941760	-1.268352	-9.842904	-0.343284	0.028244	-0.251282	-0.004523	0.016624	-0.018311
62	0.326423	0.005000	-0.975686	-1.182514	-9.893794	-0.343284	0.028018	-0.250526	0.002257	0.005210	-0.011371
63	0.331423	0.005000	-0.981000	-1.251389	-9.927720	-0.343284	0.027792	-0.249769	0.005698	0.008500	-0.007931
64	0.336423	0.005000	-0.984733	-1.322960	-9.810000	-0.343284	0.027566	-0.249013	0.001158	0.015252	-0.015120
65	0.341423	0.005000	-0.944471	-1.289498	-9.888480	-0.343284	0.027340	-0.248256	-0.004471	0.014559	-0.015120
66	0.346423	0.005000	-0.902520	-1.100424	-9.847536	-0.343284	0.027115	-0.247500	0.004362	0.010891	-0.012209
67	0.351423	0.005000	-0.981690	-1.215060	-9.927030	-0.343284	0.026889	-0.246744	-0.009088	0.014599	-0.012774
68	0.356423	0.005000	-1.020364	-1.255928	-9.966960	-0.342980	0.027272	-0.247347	-0.009082	0.022642	-0.006679
69	0.361423	0.005000	-1.021139	-1.257477	-9.851936	-0.342641	0.027723	-0.248103	-0.016893	0.012026	-0.003735
70	0.366423	0.005000	-0.945602	-1.220282	-9.815763	-0.342303	0.028174	-0.248859	-0.022838	0.029571	-0.019215
71	0.371423	0.005000	-0.981000	-1.324307	-9.844314	-0.341964	0.028626	-0.249615	-0.023606	0.015561	-0.004670
72	0.376423	0.005000	-0.873737	-1.291434	-9.770760	-0.341625	0.029077	-0.250371	-0.017703	0.020452	-0.008709
73	0.381423	0.005000	-0.902520	-1.220948	-9.840224	-0.341287	0.029529	-0.251127	-0.022460	0.022860	-0.019147
74	0.386423	0.005000	-0.946810	-1.211390	-9.854290	-0.340948	0.029980	-0.251883	-0.024605	0.012016	-0.010882
75	0.391423	0.005000	-0.981000	-1.243535	-9.843167	-0.340610	0.030431	-0.252639	-0.028411	0.027299	-0.019873
76	0.396423	0.005000	-0.902520	-1.287825	-9.849240	-0.340271	0.030883	-0.253395	-0.022905	0.017089	-0.006307
77	0.401423	0.005000	-0.949413	-1.248027	-9.873174	-0.339933	0.031334	-0.254151	-0.018937	0.010584	-0.002390
78	0.406423	0.005000	-0.950420	-1.294920	-9.927720	-0.339594	0.031785	-0.254907	-0.022644	0.010778	-0.010644
79	0.411423	0.005000	-1.059480	-1.284727	-9.878798	-0.339255	0.032237	-0.255663	-0.018347	0.011258	0.001343
80	0.416423	0.005000	-0.933240	-1.216440	-9.731520	-0.338917	0.032688	-0.256419	-0.018548	0.019817	-0.011048
81	0.421423	0.005000	-1.025693	-1.205178	-9.837978	-0.339034	0.032608	-0.256328	-0.005443	0.012495	-0.009024
82	0.426423	0.005000	-0.941760	-1.108619	-9.824670	-0.339373	0.032269	-0.255824	-0.010981	0.018655	-0.008898
83	0.431423	0.005000	-0.941760	-1.058721	-9.835654	-0.339711	0.031931	-0.255319	-0.009160	0.003370	-0.012658
84	0.436423	0.005000	-0.877129	-1.163351	-9.860781	-0.340050	0.031592	-0.254815	-0.008943	0.014043	-0.011884
85	0.441423	0.005000	-0.848710	-1.196240	-9.927720	-0.340389	0.031253	-0.254311	-0.012055	0.015127	-0.019816
86	0.446423	0.005000	-0.926346	-1.185612	-9.919308	-0.340727	0.030915	-0.253806	-0.003848	0.008913	-0.014792
87	0.451423	0.005000	-0.970931	-1.278484	-9.842873	-0.341066	0.030576	-0.253302	-0.005876	0.014701	-0.020019
88	0.456423	0.005000	-0.959219	-1.277461	-9.910261	-0.341405	0.030237	-0.252798	-0.004779	0.012057	-0.013177
89	0.461423	0.005000	-0.902520	-1.216440	-9.930958	-0.341744	0.029898	-0.252293	-0.006809	0.020858	-0.004851
90	0.466423	0.005000	-0.922736	-1.215247	-9.968153	-0.342082	0.029560	-0.251789	-0.023279	0.020594	-0.027784
91	0.471423	0.005000	-0.941760	-1.255680	-9.986154	-0.342421	0.029221	-0.251285	-0.017017	0.011461	-0.002123
92	0.476423	0.005000	-1.018273	-1.274316	-9.948324	-0.342760	0.028882	-0.250780	-0.027407	0.019534	-0.017898
93	0.481423	0.005000	-0.928158	-1.277306	-9.888480	-0.343099	0.028543	-0.250276	-0.022640	0.009965	-0.011250
94	0.486423	0.005000	-0.958557	-1.233237	-9.826797	-0.343386	0.028511	-0.250228	-0.025069	0.014096	-0.013050
95	0.491423	0.005000	-0.934618	-1.223582	-9.927720	-0.343612	0.028850	-0.250732	-0.018970	0.012036	-0.023368
96	0.496423	0.005000	-0.917547	-1.186386	-9.927720	-0.343838	0.029189	-0.251237	-0.015093	0.012228	-0.022360
97	0.501423	0.005000	-0.927756	-1.165969	-9.885707	-0.344064	0.029527	-0.251741	-0.015132	0.014752	-0.009180
98	0.506423	0.005000	-0.915982	-1.202978	-9.875018	-0.344289	0.029866	-0.252245	-0.011668	0.007486	-0.005437
99	0.511423	0.005000	-0.966639	-1.268120	-9.861680	-0.344515	0.030205	-0.252750	-0.011874	0.012286	-0.016188
100	0.516423	0.005000	-1.103708	-1.361983	-9.877063	-0.344741	0.030544	-0.253254	-0.006871	0.016591	-0.009847
101	0.521423	0.005000	-0.999193	-1.273873	-9.846386	-0.344967	0.030882	-0.253758	-0.012753	0.015797	-0.013543
102	0.526423	0.005000	-0.961465	-1.167347	-9.770760	-0.345192	0.031221	-0.254263	-0.000756	0.008365	-0.017039
103	0.531423	0.005000	-1.015329	-1.246850	-9.801170	-0.345418	0.031560	-0.254767	0.000113	0.014211	-0.007262
104	0.536423	0.005000	-0.831941	-1.200904	-9.802099	-0.345644	0.031898	-0.255271	-0.005208	0.019037	-0.017002
105	0.541423	0.005000	-0.949010	-1.123460	-9.827490	-0.345870	0.032237	-0.255775	0.008489	0.007044	-0.021921
106	0.546423	0.005000	-1.119270	-1.195890	-9.861700	-0.346096	0.032576	-0.256280	-0.004376	0.018386	-0.017270
107	0.551423	0.005000	-1.025461	-1.245239	-9.810000	-0.346138	0.032862	-0.256491	-0.008352	0.012622	-0.017176
108	0.556423	0.005000	-1.015991	-1.216440	-9.818497	-0.345574	0.032975	-0.255735	-0.000826	0.014810	-0.009592
109	0.561423	0.005000	-0.834962	-1.180841	-9.820922	-0.345009	0.033088	-0.254979	-0.016524	0.022356	-0.018755
110	0.566423	0.005000	-0.941760	-1.179818	-9.844004	-0.344445	0.033201	-0.254223	-0.015850	0.009508	-0.014393
111	0.571423	0.005000	-1.023431	-1.177200	-9.852431	-0.343881	0.033313	-0.253467	-0.018547	0.018878	-0.015708
112	0.576423	0.005000	-1.057373	-1.334160	-9.965907	-0.343317	0.033426	-0.252711	-0.022082	0.013258	-0.015949
113	0.581423	0.005000	-0.941791	-1.216347	-9.809969	-0.342752	0.033539	-0.251955	-0.019191	0.012162	-0.002800
114	0.586423	0.005000	-1.019249	-1.098720	-9.923754	-0.342188	0.033652	-0.251199	-0.027947	0.014341	-0.015748
115	0.591423	0.005000	-1.020240	-1.254127	-9.927720	-0.341624	0.033765	-0.250443	-0.024387	0.011326	-0.002866
116	0.596423	0.005000	-0.983556	-1.221552	-10.040328	-0.341060	0.033877	-0.249687	-0.016362	0.007348	-0.007104
117	0.601423	0.005000	-0.977421	-1.209283	-9.892059	-0.340495	0.033990	-0.248931	-0.018937	0.017698	-0.011697
118	0.606423	0.005000	-1.024841	-1.281117	-9.902283	-0.339931	0.034103	-0.248175	-0.013158	0.016488	-0.009176
119	0.611423	0.005000	-1.020240	-1.294920	-9.888480	-0.339367	0.034216	-0.247419	-0.023021	0.008473	-0.005058
120	0.616423	0.005000	-1.059480	-1.216440	-9.861571	-0.338809	0.034323	-0.246663	-0.015416	0.007575	-0.009008
121	0.621423	0.005000	-0.995376	-1.223628	-9.920532	-0.339260	0.033419	-0.245906	-0.012410	0.015972	-0.006995
122	0.626423	0.005000	-1.004563	-1.177200	-9.786437	-0.339712	0.032516	-0.245149	-0.010335	0.001247	-0.000751
123	0.631423	0.005000	-1.050712	-1.238144	-9.892647	-0.340164	0.031612	-0.244392	-0.014350	0.021451	-0.015801
124	0.636423	0.005000	-1.000690	-1.294920	-9.898395	-0.340616	0.030708	-0.243636	-0.004208	0.005445	-0.010249
125	0.641423	0.005000	-1.009783	-1.195527	-9.820457	-0.341068	0.029805	-0.242879	-0.003116	0.013582	-0.006824
126	0.646423	0.005000	-0.947941	-1.227795	-9.810000	-0.341519	0.028901	-0.242122	-0.014611	0.009491	-0.022764
127	0.651423	0.005000	-0.995485	-1.177200	-9.783138	-0.341971	0.027998	-0.241365	-0.007196	0.005932	-0.009109
128	0.656423	0.005000	-0.994080	-1.360320	-9.901560	-0.342423	0.027094	-0.240609	-0.016464	0.016307	-0.014272
129	0.661423	0.005000	-1.045538	-1.359458	-9.888480	-0.342875	0.026191	-0.239852	-0.021707	0.014679	-0.002070
130	0.666423	0.005000	-0.932450	-1.270645	-9.897790	-0.343326	0.025287	-0.239095	-0.019548	0.015896	-0.004517
131	0.671423	0.005000	-0.941760	-1.193187	-9.888480	-0.343778	0.024383	-0.238338	-0.031086	0.018691	-0.017401
132	0.676423	0.005000	-0.896339	-1.177200	-9.888480	-0.344230	0.023480	-0.237581	-0.028006	0.009464	-0.008512
133	0.681423	0.005000	-0.819904	-1.159648	-9.984512	-0.344682	0.022576	-0.236825	-0.026696	0.022979	-0.009038
134	0.686423	0.005000	-0.881854	-1.158626	-9.904963	-0.345223	0.022299	-0.236567	-0.040122	0.023192	-0.008733
135	0.691423	0.005000	-0.882404	-1.216440	-9.987076	-0.345787	0.022186	-0.236441	-0.037640	0.024104	-0.009566
136	0.696423	0.005000	-0.961899	-1.118859	-9.908619	-0.346352	0.022073	-0.236315	-0.034171	0.020275	-0.002774
137	0.701423	0.005000	-0.881359	-1.159121	-9.846157	-0.346916	0.021960	-0.236189	-0.037410	0.021972	-0.012789
138	0.706423	0.005000	-0.824040	-1.177200	-9.988679	-0.347481	0.021847	-0.236063	-0.028915	0.020593	-0.024180
139	0.711423	0.005000	-0.879778	-1.144203	-9.960717	-0.348045	0.021734	-0.235937	-0.019296	0.014128	-0.008849
140	0.716423	0.005000	-0.926284	-1.130772	-10.013388	-0.348610	0.021622	-0.235811	-0.014390	0.014155	-0.014849
141	0.721423	0.005000	-0.941760	-1.201807	-9.952327	-0.349174	0.021509	-0.235685	0.004575	-0.002633	-0.006118
142	0.726423	0.005000	-0.888609	-1.177200	-9.939137	-0.349739	0.021396	-0.235558	0.001653	0.021241	-0.010233
143	0.731423	0.005000	-0.928871	-1.255680	-9.901369	-0.350304	0.021283	-0.235432	0.007778	0.017220	-0.022643
144	0.736423	0.005000	-0.875146	-1.243814	-9.915854	-0.350868	0.021170	-0.235306	0.011821	0.011749	-0.005581
145	0.741423	0.005000	-0.913844	-1.115311	-9.837916	-0.351433	0.021057	-0.235180	-0.003663	0.017872	-0.011920
146	0.746423	0.005000	-1.009938	-1.059480	-9.909084	-0.351997	0.020944	-0.235054	-0.000119	0.016539	-0.014771
147	0.751423	0.005000	-0.932366	-1.156749	-9.908931	-0.351916	0.020961	-0.235288	0.000335	0.011954	-0.006104
148	0.756423	0.005000	-0.915548	-1.216440	-9.866714	-0.351352	0.021073	-0.235793	-0.017347	0.011582	-0.007957
149	0.761423	0.005000	-0.925664	-1.224155	-9.888480	-0.350787	0.021186	-0.236297	-0.021035	0.014604	0.002123
150	0.766423	0.005000	-1.124575	-1.281535	-9.895172	-0.350222	0.021299	-0.236802	-0.021642	0.014176	-0.012433
151	0.771423	0.005000	-0.947895	-1.216440	-9.987796	-0.349657	0.021412	-0.237306	-0.027368	0.012213	-0.010021
152	0.776423	0.005000	-0.941760	-1.108948	-9.922606	-0.349092	0.021525	-0.237811	-0.026132	0.007304	-0.013758
153	0.781423	0.005000	-1.016135	-1.181305	-9.896691	-0.348528	0.021638	-0.238316	-0.023375	0.012162	-0.015720
154	0.786423	0.005000	-0.981000	-1.177200	-9.885360	-0.347963	0.021751	-0.238820	-0.017538	0.022939	-0.013665
155	0.791423	0.005000	-0.941760	-1.253155	-9.851765	-0.347398	0.021864	-0.239325	-0.007973	0.017490	-0.019928
156	0.796423	0.005000	-1.020240	-1.214937	-9.850743	-0.346833	0.021977	-0.239829	-0.008199	0.009742	-0.020382
157	0.801423	0.005000	-1.098240	-1.098720	-9.850200	-0.346268	0.022090	-0.240334	-0.001222	0.024484	-0.024670
158	0.806423	0.005000	-0.982084	-1.098720	-9.850324	-0.345704	0.022203	-0.240838	0.007973	0.010537	-0.016218
159	0.811423	0.005000	-0.941760	-1.136876	-9.926636	-0.345139	0.022315	-0.241343	0.014661	0.015585	-0.023076
160	0.816423	0.005000	-1.057373	-1.098720	-9.851347	-0.344695	0.022630	-0.241892	0.011713	0.011227	-0.019082
161	0.821423	0.005000	-0.984129	-1.170941	-9.849240	-0.344470	0.023307	-0.242523	0.017504	0.017269	-0.015389
162	0.826423	0.005000	-0.937608	-1.228895	-9.805848	-0.344244	0.023985	-0.243153	0.008099	0.024035	-0.018291
163	0.831423	0.005000	-0.981000	-1.221134	-9.888480	-0.344018	0.024662	-0.243783	0.011910	0.020461	-0.010163
164	0.836423	0.005000	-0.941760	-1.177200	-9.782193	-0.343792	0.025340	-0.244414	0.002532	0.027380	-0.018993
165	0.841423	0.005000	-0.993285	-1.183939	-9.835762	-0.343566	0.026017	-0.245044	-0.002014	0.023412	-0.023752
166	0.846423	0.005000	-0.988281	-1.184481	-9.849240	-0.343341	0.026694	-0.245674	0.000502	0.011155	-0.009824
167	0.851423	0.005000	-0.919127	-1.239073	-9.865847	-0.343115	0.027372	-0.246305	-0.008071	0.016980	-0.007744
168	0.856423	0.005000	-0.953022	-1.266942	-9.888480	-0.342889	0.028049	-0.246935	-0.001961	0.011876	-0.005571
169	0.861423	0.005000	-0.970998	-1.177200	-9.889248	-0.342663	0.028726	-0.247565	-0.014966	0.025001	-0.015860
170	0.866423	0.005000	-0.970105	-1.166305	-9.764205	-0.342437	0.029404	-0.248196	-0.010847	0.021200	-0.014964
171	0.871423	0.005000	-0.941760	-1.110633	-9.825414	-0.342212	0.030081	-0.248826	-0.020459	0.027794	-0.018059
172	0.876423	0.005000	-0.956059	-1.179028	-9.927720	-0.341986	0.030759	-0.249456	-0.006182	0.028471	-0.011981
173	0.881423	0.005000	-0.876773	-1.124467	-9.861494	-0.341745	0.031297	-0.249965	-0.004273	0.023935	-0.025265
174	0.886423	0.005000	-0.941760	-1.048658	-9.924332	-0.341406	0.030958	-0.249713	-0.004374	0.033183	-0.025366
175	0.891423	0.005000	-0.981000	-1.074538	-9.873422	-0.341067	0.030619	-0.249461	0.010053	0.023680	-0.020621
176	0.896423	0.005000	-0.988080	-1.082640	-9.865320	-0.340728	0.030281	-0.249209	0.010856	0.026237	-0.017499
177	0.901423	0.005000	-1.003344	-1.137960	-9.893928	-0.340390	0.029942	-0.248957	0.016801	0.027817	-0.011846
178	0.906423	0.005000	-0.937810	-1.098720	-9.906125	-0.340051	0.029603	-0.248705	0.025739	0.026722	-0.011301
179	0.911423	0.005000	-1.022145	-1.158533	-9.927720	-0.339712	0.029265	-0.248453	0.031118	0.026118	-0.017170
180	0.916423	0.005000	-1.020379	-1.275509	-9.908309	-0.339373	0.028926	-0.248201	0.046120	0.013778	-0.012659
181	0.921423	0.005000	-1.060720	-1.059480	-9.791000	-0.339035	0.028587	-0.247948	0.043971	0.019657	-0.019907
182	0.926423	0.005000	-0.984269	-1.116706	-9.845971	-0.338696	0.028249	-0.247696	0.046836	0.012488	-0.022345
183	0.931423	0.005000	-1.037203	-1.076443	-9.910757	-0.338357	0.027910	-0.247444	0.048067	0.012140	-0.014621
184	0.936423	0.005000	-1.004108	-1.304075	-9.833108	-0.338019	0.027571	-0.247192	0.040565	0.020041	-0.017658
185	0.941423	0.005000	-0.926377	-1.279537	-9.840766	-0.337680	0.027233	-0.246940	0.030836	0.018559	-0.011795
186	0.946423	0.005000	-0.888159	-1.270041	-9.806158	-0.337341	0.026894	-0.246688	0.033159	0.029822	-0.013000
187	0.951423	0.005000	-0.876783	-1.294920	-9.731520	-0.337624	0.027591	-0.247707	0.022631	0.023508	-0.008358
188	0.956423	0.005000	-0.889724	-1.282124	-9.809148	-0.337962	0.028381	-0.248842	0.005686	0.028991	-0.019771
189	0.961423	0.005000	-0.945679	-1.283146	-9.837466	-0.338301	0.029171	-0.249977	-0.003752	0.025523	-0.009572
190	0.966423	0.005000	-0.941760	-1.255680	-9.799116	-0.338640	0.029961	-0.251111	-0.021083	0.035636	-0.022010
191	0.971423	0.005000	-0.882102	-1.236858	-9.712698	-0.338979	0.030752	-0.252246	-0.016391	0.033940	-0.016894
192	0.976423	0.005000	-0.950946	-1.168014	-9.855932	-0.339317	0.031542	-0.253381	-0.016074	0.025323	-0.007802
193	0.981423	0.005000	-0.910684	-1.191948	-10.045440	-0.339656	0.032332	-0.254515	-0.008875	0.027991	-0.025928
194	0.986423	0.005000	-0.949382	-1.160825	-9.959338	-0.339995	0.033122	-0.255650	0.001510	0.025337	-0.008068
195	0.991423	0.005000	-0.928561	-1.294920	-9.993001	-0.340333	0.033912	-0.256784	0.011491	0.033713	-0.011168
196	0.996423	0.005000	-0.896943	-1.328583	-9.821154	-0.340672	0.034703	-0.257919	0.008480	0.038566	-0.014711
197	1.001423	0.005000	-0.932651	-1.147069	-9.897589	-0.341011	0.035493	-0.259054	0.026025	0.030068	-0.005874
198	1.006423	0.005000	-0.816891	-1.177200	-9.959811	-0.341350	0.036283	-0.260188	0.034281	0.029059	-0.014961
199	1.011423	0.005000	-0.790780	-1.143940	-9.852230	-0.341688	0.037073	-0.261323	0.041539	0.011518	-0.008293
200	1.016423	0.005000	-0.902520	-1.257647	-9.886513	-0.341397	0.037156	-0.261403	0.045909	0.009017	-0.002635
201	1.021423	0.005000	-0.903930	-1.293510	-9.887070	-0.340833	0.036930	-0.261025	0.046754	0.006204	-0.009702
202	1.026423	0.005000	-0.941760	-1.333773	-9.888480	-0.340268	0.036704	-0.260647	0.042661	0.014448	-0.008418
203	1.031423	0.005000	-0.903155	-1.179105	-9.849875	-0.339703	0.036478	-0.260268	0.032497	0.020231	-0.001673
204	1.036423	0.005000	-0.902520	-1.329187	-9.806685	-0.339138	0.036252	-0.259890	0.022944	0.027498	-0.002638
205	1.041423	0.005000	-0.937360	-1.262279	-9.847040	-0.338574	0.036026	-0.259511	0.018156	0.017020	-0.008611
206	1.046423	0.005000	-0.905742	-1.373400	-9.927720	-0.338009	0.035800	-0.259133	0.011161	0.021133	0.001303
207	1.051423	0.005000	-0.933271	-1.329915	-9.892725	-0.337444	0.035574	-0.258755	-0.007381	0.017640	-0.006184
208	1.056423	0.005000	-0.936493	-1.339427	-9.956426	-0.336879	0.035348	-0.258376	-0.005976	0.010811	-0.003040
209	1.061423	0.005000	-1.020240	-1.306539	-9.866668	-0.336315	0.035123	-0.257998	-0.009462	0.027071	-0.001294
210	1.066423	0.005000	-0.934928	-1.445048	-9.867985	-0.335750	0.034897	-0.257620	-0.025817	0.022314	-0.017174
211	1.071423	0.005000	-0.902520	-1.334160	-9.896334	-0.335185	0.034671	-0.257241	-0.017475	0.024926	0.000677
212	1.076423	0.005000	-0.832540	-1.325660	-9.849240	-0.334620	0.034445	-0.256863	-0.025289	0.043800	-0.006292
213	1.081423	0.005000	-0.853861	-1.442461	-9.692280	-0.334274	0.034274	-0.256789	-0.030238	0.025130	0.000648
214	1.086423	0.005000	-0.941760	-1.344601	-9.799559	-0.334161	0.034161	-0.257041	-0.027217	0.026946	0.001457
215	1.091423	0.005000	-0.991999	-1.384399	-9.877481	-0.334048	0.034048	-0.257293	-0.032615	0.030306	-0.017759
216	1.096423	0.005000	-1.005021	-1.385411	-9.861251	-0.333935	0.033935	-0.257545	-0.028880	0.021864	0.000715
217	1.101423	0.005000	-0.889492	-1.255680	-9.888480	-0.333822	0.033822	-0.257797	-0.032508	0.030992	-0.013285
218	1.106423	0.005000	-0.877029	-1.320411	-9.849240	-0.333709	0.033709	-0.258049	-0.032207	0.023476	-0.010066
219	1.111423	0.005000	-0.931737	-1.270288	-9.824608	-0.333596	0.033596	-0.258301	-0.017757	0.020814	-0.008111
220	1.116423	0.005000	-0.871258	-1.106698	-9.951329	-0.333484	0.033484	-0.258553	-0.023733	0.036729	-0.016026
221	1.121423	0.005000	-0.840693	-1.222373	-9.944373	-0.333371	0.033371	-0.258806	-0.025384	0.033496	0.001968
222	1.126423	0.005000	-0.762756	-1.255680	-9.910524	-0.333258	0.033258	-0.259058	-0.019864	0.033213	-0.005848
223	1.131423	0.005000	-0.863280	-1.216440	-9.849240	-0.333145	0.033145	-0.259310	-0.016855	0.025630	-0.006644
224	1.136423	0.005000	-0.922520	-1.216440	-9.909239	-0.333032	0.033032	-0.259562	-0.015272	0.016298	-0.011353
225	1.141423	0.005000	-0.980184	-1.236468	-9.947748	-0.332919	0.032919	-0.259814	-0.017517	0.012294	-0.018921
226	1.146423	0.005000	-1.001805	-1.200375	-9.812370	-0.332895	0.032777	-0.259735	-0.004361	0.018326	-0.019713
227	1.151423	0.005000	-0.850283	-1.133545	-9.810000	-0.333121	0.032551	-0.258727	-0.009024	0.015075	-0.020339
228	1.156423	0.005000	-0.931830	-1.170740	-10.006200	-0.333347	0.032325	-0.257719	0.003967	0.015645	-0.011281
229	1.161423	0.005000	-0.981000	-1.232288	-9.911872	-0.333572	0.032100	-0.256711	0.002455	0.029548	-0.018496
230	1.166423	0.005000	-0.853691	-1.348985	-9.981785	-0.333798	0.031874	-0.255703	0.003054	0.015138	-0.019196
231	1.171423	0.005000	-0.902520	-1.308888	-9.899783	-0.334024	0.031648	-0.254695	-0.000215	0.019669	-0.016640
232	1.176423	0.005000	-0.889770	-1.281179	-9.823245	-0.334249	0.031423	-0.253687	-0.009782	0.016867	-0.020969
233	1.181423	0.005000	-0.917314	-1.240886	-9.834446	-0.334475	0.031197	-0.252679	-0.011208	0.014350	-0.012520
234	1.186423	0.005000	-0.953441	-1.294920	-9.888480	-0.334701	0.030971	-0.251671	-0.023674	0.027587	-0.022995
235	1.191423	0.005000	-0.941760	-1.380666	-9.888480	-0.334926	0.030746	-0.250663	-0.026288	0.025912	-0.016586
236	1.196423	0.005000	-0.971364	-1.334857	-9.888480	-0.335152	0.030520	-0.249655	-0.026481	0.023575	-0.026085
237	1.201423	0.005000	-0.981000	-1.238453	-9.779373	-0.335378	0.030294	-0.248647	-0.033806	0.031154	-0.029224
238	1.206423	0.005000	-0.941760	-1.137960	-9.850355	-0.335603	0.030069	-0.247639	-0.027418	0.029558	-0.015644
239	1.211423	0.005000	-0.877377	-1.152057	-9.999151	-0.335829	0.029875	-0.246699	-0.022179	0.022801	-0.028262
240	1.216423	0.005000	-0.947786	-1.216440	-9.906559	-0.336055	0.030553	-0.247581	-0.020088	0.022437	-0.024505
241	1.221423	0.005000	-1.054414	-1.279723	-9.898612	-0.336281	0.031230	-0.248464	-0.016894	0.022623	-0.023957
242	1.226423	0.005000	-1.015778	-1.246757	-9.884018	-0.336507	0.031908	-0.249346	-0.013870	0.011174	-0.024361
243	1.231423	0.005000	-0.902520	-1.213001	-9.856118	-0.336732	0.032585	-0.250229	-0.017163	0.021527	-0.019528
244	1.236423	0.005000	-0.904966	-1.253234	-9.927720	-0.336958	0.033262	-0.251111	-0.011694	0.013567	-0.024989
245	1.241423	0.005000	-0.979126	-1.216440	-9.925846	-0.337184	0.033940	-0.251993	0.007941	0.012519	-0.013743
246	1.246423	0.005000	-0.941760	-1.254828	-9.811704	-0.337410	0.034617	-0.252876	-0.002602	0.020270	-0.022804
247	1.251423	0.005000	-0.980830	-1.216440	-9.966619	-0.337635	0.035294	-0.253758	0.009479	0.001820	-0.015514
248	1.256423	0.005000	-0.980272	-1.175744	-9.850696	-0.337861	0.035972	-0.254641	0.002509	0.016870	-0.027834
249	1.261423	0.005000	-0.940009	-1.253929	-9.733271	-0.338087	0.036649	-0.255523	-0.003598	0.012067	-0.017898
250	1.266423	0.005000	-0.978679	-1.292599	-9.957675	-0.338313	0.037326	-0.256406	0.010987	0.011757	-0.005060
251	1.271423	0.005000	-1.016925	-1.216440	-9.937666	-0.338539	0.038004	-0.257288	0.008181	0.020549	-0.023387
252	1.276423	0.005000	-0.880630	-1.251342	-9.818675	-0.338764	0.038681	-0.258170	0.006555	0.015070	-0.013848
253	1.281423	0.005000	-0.858340	-1.142900	-9.873659	-0.338990	0.038714	-0.258333	0.001023	0.018528	-0.006293
254	1.286423	0.005000	-0.902520	-1.237973	-9.921818	-0.339216	0.038601	-0.258333	0.001189	0.019540	-0.014175
255	1.291423	0.005000	-0.752485	-1.223365	-9.906946	-0.339442	0.038488	-0.258333	-0.006735	0.023020	-0.011863
256	1.296423	0.005000	-0.831987	-1.365453	-9.951066	-0.339668	0.038375	-0.258333	-0.005067	0.012012	-0.016602
257	1.301423	0.005000	-0.893550	-1.382370	-9.867179	-0.339893	0.038262	-0.258333	-0.009448	0.016582	-0.006067
258	1.306423	0.005000	-0.982193	-1.313944	-9.888480	-0.340119	0.038149	-0.258333	-0.019766	0.023615	-0.014603
259	1.311423	0.005000	-0.991534	-1.216440	-9.856877	-0.340345	0.038036	-0.258333	-0.009229	0.011539	-0.006846
260	1.316423	0.005000	-0.969775	-1.216440	-9.899705	-0.340571	0.037923	-0.258333	-0.021758	0.014612	-0.020899
261	1.321423	0.005000	-0.929646	-1.267794	-9.794989	-0.340797	0.037810	-0.258333	-0.012129	0.011489	-0.006345
262	1.326423	0.005000	-0.902690	-1.347297	-9.953823	-0.341022	0.037697	-0.258333	-0.016221	0.018883	-0.009679
263	1.331423	0.005000	-1.006397	-1.308763	-9.941563	-0.341248	0.037585	-0.258333	-0.026616	0.016545	-0.019626
264	1.336423	0.005000	-0.941760	-1.304757	-9.937557	-0.341474	0.037472	-0.258333	-0.016758	0.009136	-0.009177
265	1.341423	0.005000	-0.902520	-1.334160	-9.912136	-0.341700	0.037359	-0.258333	-0.016098	0.019993	-0.019588
266	1.346423	0.005000	-0.886052	-1.311388	-9.855545	-0.341657	0.037313	-0.258333	-0.013065	0.013841	-0.013570
267	1.351423	0.005000	-0.959049	-1.277631	-9.849240	-0.341431	0.037313	-0.258333	-0.011856	0.014353	-0.008189
268	1.356423	0.005000	-0.923449	-1.216440	-9.872787	-0.341205	0.037313	-0.258333	-0.009696	0.023021	-0.026381
269	1.361423	0.005000	-0.940694	-1.316140	-9.908633	-0.340979	0.037313	-0.258333	-0.003061	0.012286	-0.012224
270	1.366423	0.005000	-0.843916	-1.354036	-9.869116	-0.340753	0.037313	-0.258333	-0.015141	0.017422	-0.021790
271	1.371423	0.005000	-0.902520	-1.294920	-10.006200	-0.340528	0.037313	-0.258333	-0.015654	0.017683	-0.016408
272	1.376423	0.005000	-0.902520	-1.303292	-9.884294	-0.340302	0.037313	-0.258333	-0.010333	0.017879	-0.013156
273	1.381423	0.005000	-0.840802	-1.272442	-9.894196	-0.340076	0.037313	-0.258333	-0.015948	0.021253	-0.018706
274	1.386423	0.005000	-0.847525	-1.208415	-9.825755	-0.339850	0.037313	-0.258333	-0.020392	0.024694	-0.012229
275	1.391423	0.005000	-0.814265	-1.206665	-9.849240	-0.339624	0.037313	-0.258333	-0.016803	0.023262	-0.012639
276	1.396423	0.005000	-0.891629	-1.216440	-9.899371	-0.339399	0.037313	-0.258333	-0.016768	0.013605	-0.000546
277	1.401423	0.005000	-0.967848	-1.150895	-9.941306	-0.339173	0.037313	-0.258333	-0.012670	0.013978	-0.015721
278	1.406423	0.005000	-0.938910	-1.213590	-10.048290	-0.338947	0.037313	-0.258333	-0.005803	0.003179	-0.012471
279	1.411423	0.005000	-0.890932	-1.271745	-9.900068	-0.338721	0.037186	-0.258380	-0.018089	0.003577	-0.011586
280	1.416423	0.005000	-0.802910	-1.227005	-9.988090	-0.338495	0.036847	-0.258506	-0.011059	0.007406	-0.019467
281	1.421423	0.005000	-0.833583	-1.294920	-9.937263	-0.338270	0.036509	-0.258633	-0.003506	-0.002142	-0.004618
282	1.426423	0.005000	-0.872281	-1.273681	-9.918719	-0.338044	0.036170	-0.258759	0.008453	0.018586	-0.027713
283	1.431423	0.005000	-0.847974	-1.334160	-9.872524	-0.337818	0.035831	-0.258885	-0.005170	0.015024	-0.008605
284	1.436423	0.005000	-0.948716	-1.426551	-9.777716	-0.337592	0.035493	-0.259011	-0.011465	0.017258	-0.005986
285	1.441423	0.005000	-0.935753	-1.412640	-9.849240	-0.337366	0.035154	-0.259137	-0.017382	0.021418	-0.021374
286	1.446423	0.005000	-0.936369	-1.271853	-9.899262	-0.337141	0.034815	-0.259263	-0.009264	0.008378	-0.015274
287	1.451423	0.005000	-0.867649	-1.369031	-9.958223	-0.336915	0.034477	-0.259389	-0.015646	0.006084	-0.025966
288	1.456423	0.005000	-0.934987	-1.380173	-9.839081	-0.336689	0.034138	-0.259515	-0.014385	0.000770	-0.008699
289	1.461423	0.005000	-0.981000	-1.412640	-9.734308	-0.336463	0.033799	-0.259641	-0.012586	0.001813	-0.010118
290	1.466423	0.005000	-1.055948	-1.448348	-9.772526	-0.336238	0.033461	-0.259767	-0.030199	0.002825	-0.008605
291	1.471423	0.005000	-1.017982	-1.295673	-9.812258	-0.336012	0.033122	-0.259893	-0.034795	0.010101	-0.009234
292	1.476423	0.005000	-0.902721	-1.334361	-9.888883	-0.335839	0.032871	-0.260020	-0.039154	0.010138	-0.008922
293	1.481423	0.005000	-0.903341	-1.334981	-9.928541	-0.335951	0.033097	-0.260146	-0.031522	0.010741	-0.004033
294	1.486423	0.005000	-0.825883	-1.446350	-9.884793	-0.336064	0.033323	-0.260272	-0.033171	0.024280	-0.025101
295	1.491423	0.005000	-0.860449	-1.222103	-9.846409	-0.336177	0.033548	-0.260398	-0.020575	0.018683	-0.009534
296	1.496423	0.005000	-0.974184	-1.291512	-9.780984	-0.336290	0.033774	-0.260524	-0.030519	0.016185	-0.008283
297	1.501423	0.005000	-0.863280	-1.255680	-9.687849	-0.336403	0.034000	-0.260650	-0.031048	0.007400	-0.012503
298	1.506423	0.005000	-0.857827	-1.227346	-9.883027	-0.336516	0.034226	-0.260776	-0.016952	0.009549	-0.008483
299	1.511423	0.005000	-0.896525	-1.243690	-9.966960	-0.336629	0.034452	-0.260902	-0.024742	0.016888	-0.024238
300	1.516423	0.005000	-0.824040	-1.334160	-9.913685	-0.336741	0.034677	-0.261028	-0.001727	0.005293	-0.009673
301	1.521423	0.005000	-0.784800	-1.286880	-9.958920	-0.336854	0.034903	-0.261154	-0.010516	0.014087	-0.013788
302	1.526423	0.005000	-0.776099	-1.255680	-9.975661	-0.336967	0.035129	-0.261281	-0.012995	0.011838	-0.020269
303	1.531423	0.005000	-0.745560	-1.255680	-9.898085	-0.337080	0.035355	-0.261407	-0.013333	0.019164	-0.012908
304	1.536423	0.005000	-0.824040	-1.294920	-9.917093	-0.337193	0.035581	-0.261533	-0.012307	0.022762	-0.016188
305	1.541423	0.005000	-0.890870	-1.177200	-9.849240	-0.337306	0.035806	-0.261659	-0.015578	0.011282	-0.015171
306	1.546423	0.005000	-0.902520	-1.282713	-9.954753	-0.337630	0.035610	-0.261313	-0.031699	0.017529	-0.029504
307	1.551423	0.005000	-0.850500	-1.268910	-9.927720	-0.337968	0.035384	-0.260935	-0.029404	-0.000949	-0.012118
308	1.556423	0.005000	-0.874016	-1.266416	-9.977696	-0.338307	0.035158	-0.260557	-0.034392	-0.001894	-0.014442
309	1.561423	0.005000	-0.926966	-1.255680	-9.952166	-0.338646	0.034933	-0.260179	-0.027615	0.003339	-0.007657
310	1.566423	0.005000	-0.934154	-1.279103	-9.912507	-0.338985	0.034707	-0.259801	-0.037367	0.007427	-0.017439
311	1.571423	0.005000	-0.908081	-1.272519	-9.888480	-0.339323	0.034481	-0.259422	-0.038142	0.014803	-0.011635
312	1.576423	0.005000	-0.919901	-1.233821	-9.997246	-0.339662	0.034255	-0.259044	-0.037788	0.007590	-0.005639
313	1.581423	0.005000	-0.860848	-1.177200	-9.906884	-0.340001	0.034029	-0.258666	-0.049013	0.012339	-0.010534
314	1.586423	0.005000	-0.981387	-1.177200	-9.986386	-0.340339	0.033804	-0.258288	-0.035992	0.006498	-0.007420
315	1.591423	0.005000	-1.000969	-1.118689	-9.907054	-0.340678	0.033578	-0.257909	-0.034849	0.006271	-0.006124
316	1.596423	0.005000	-0.923511	-1.116969	-9.888480	-0.341017	0.033352	-0.257531	-0.039182	0.007612	-0.020127
317	1.601423	0.005000	-0.924327	-1.207692	-9.871047	-0.341356	0.033126	-0.257153	-0.034000	0.000308	-0.007047
318	1.606423	0.005000	-0.902520	-1.294920	-9.871811	-0.341694	0.032900	-0.256775	-0.024611	0.019817	-0.011669
319	1.611423	0.005000	-0.941760	-1.200794	-9.841293	-0.342356	0.032190	-0.254865	-0.027724	0.010324	-0.013959
320	1.616423	0.005000	-0.917150	-1.206460	-9.785390	-0.343146	0.031287	-0.252343	-0.020838	0.007050	-0.001165
321	1.621423	0.005000	-0.902520	-1.216440	-9.913638	-0.343937	0.030384	-0.249822	-0.026182	0.006805	-0.013439
322	1.626423	0.005000	-0.915579	-1.321039	-9.901539	-0.344727	0.029481	-0.247300	-0.026735	0.004471	-0.002949
323	1.631423	0.005000	-0.965834	-1.306957	-9.994163	-0.345517	0.028578	-0.244779	-0.023462	0.000365	-0.010873
324	1.636423	0.005000	-1.003302	-1.294920	-9.927720	-0.346307	0.027675	-0.242257	-0.034401	-0.000724	-0.007074
325	1.641423	0.005000	-0.970528	-1.195495	-9.917248	-0.347098	0.026771	-0.239736	-0.030386	0.007667	-0.016978
326	1.646423	0.005000	-0.911970	-1.285470	-9.907380	-0.347888	0.025868	-0.237215	-0.039638	0.009426	-0.009231
327	1.651423	0.005000	-0.919584	-1.330741	-9.984024	-0.348678	0.024965	-0.234693	-0.050456	0.010936	-0.011355
328	1.656423	0.005000	-0.902520	-1.294920	-9.896179	-0.349469	0.024062	-0.232172	-0.040733	0.009860	-0.012727
329	1.661423	0.005000	-0.948623	-1.223303	-9.745245	-0.350259	0.023159	-0.229650	-0.034971	0.001966	-0.005755
330	1.666423	0.005000	-0.935850	-1.137960	-9.776670	-0.351049	0.022256	-0.227129	-0.040071	0.015272	-0.023429
331	1.671423	0.005000	-0.879128	-1.177200	-9.872632	-0.351840	0.021352	-0.224607	-0.041771	0.001993	-0.015213
332	1.676423	0.005000	-0.985276	-1.203613	-9.670143	-0.352239	0.020840	-0.223645	-0.029719	0.004610	-0.007801
333	1.681423	0.005000	-0.938507	-1.180453	-9.777266	-0.352239	0.020727	-0.224275	-0.029327	0.004374	-0.014284
334	1.686423	0.005000	-0.939064	-1.202962	-9.815391	-0.352239	0.020614	-0.224906	-0.024457	-0.000252	-0.014042
335	1.691423	0.005000	-0.905866	-1.102066	-9.963614	-0.352239	0.020501	-0.225536	-0.030900	0.003285	-0.010230
336	1.696423	0.005000	-0.941760	-1.139912	-9.889131	-0.352239	0.020388	-0.226166	-0.026094	-0.006510	-0.014757
337	1.701423	0.005000	-0.980628	-1.216812	-9.888852	-0.352239	0.020275	-0.226797	-0.014833	0.001761	-0.017689
338	1.706423	0.005000	-0.865130	-1.254755	-10.007125	-0.352239	0.020163	-0.227427	-0.022258	0.008394	-0.022058
339	1.711423	0.005000	-1.016367	-1.249871	-9.853113	-0.352239	0.020050	-0.228058	-0.009802	0.009330	-0.014909
340	1.716423	0.005000	-0.986918	-1.255680	-9.770760	-0.352239	0.019937	-0.228688	0.003003	0.014953	-0.018326
341	1.721423	0.005000	-0.941760	-1.284417	-9.724518	-0.352239	0.019824	-0.229318	-0.013323	0.011438	-0.015651
342	1.726423	0.005000	-1.050433	-1.107767	-9.844716	-0.352239	0.019711	-0.229949	-0.014682	0.018072	-0.009977
343	1.731423	0.005000	-0.947306	-1.216440	-9.854786	-0.352239	0.019598	-0.230579	-0.017719	0.014573	-0.011125
344	1.736423	0.005000	-0.863280	-1.309506	-9.855404	-0.352239	0.019485	-0.231210	-0.034694	0.022691	-0.015736
345	1.741423	0.005000	-0.902520	-1.373400	-9.874259	-0.352115	0.019558	-0.231978	-0.032443	0.014378	-0.014567
346	1.746423	0.005000	-0.902520	-1.224573	-9.888480	-0.351664	0.020122	-0.233113	-0.047260	0.016101	-0.001030
347	1.751423	0.005000	-0.915375	-1.246885	-9.918925	-0.351212	0.020687	-0.234248	-0.048455	0.018419	-0.025255
348	1.756423	0.005000	-0.912233	-1.216440	-9.789799	-0.350760	0.021251	-0.235382	-0.047702	0.002629	-0.011530
349	1.761423	0.005000	-0.852556	-1.187924	-9.909929	-0.350309	0.021816	-0.236517	-0.051869	0.014796	-0.014186
350	1.766423	0.005000	-0.953503	-1.204697	-9.978703	-0.349857	0.022380	-0.237651	-0.040395	0.014106	-0.027119
351	1.771423	0.005000	-0.981000	-1.017901	-9.966960	-0.349406	0.022945	-0.238786	-0.034615	0.006661	-0.018744
352	1.776423	0.005000	-0.876603	-1.059480	-10.032117	-0.348954	0.023510	-0.239921	-0.022932	0.014815	-0.026470
353	1.781423	0.005000	-0.902520	-1.056610	-9.902517	-0.348502	0.024074	-0.241055	-0.011890	-0.001983	-0.018158
354	1.786423	0.005000	-0.926873	-1.192087	-9.946651	-0.348051	0.024639	-0.242190	-0.000365	0.003101	-0.016523
355	1.791423	0.005000	-0.972511	-1.232350	-9.990290	-0.347599	0.025203	-0.243325	0.020090	0.004493	-0.015890
356	1.796423	0.005000	-0.964344	-1.222368	-9.882552	-0.347148	0.025768	-0.244459	0.026477	0.006782	-0.014483
357	1.801423	0.005000	-1.042006	-1.233914	-9.927720	-0.346696	0.026332	-0.245594	0.026994	-0.003060	-0.017979
358	1.806423	0.005000	-1.098720	-1.158703	-9.946217	-0.346232	0.026866	-0.246694	0.029093	-0.002310	-0.009914
359	1.811423	0.005000	-1.059279	-1.216440	-9.868759	-0.345555	0.026866	-0.247199	0.027294	0.001957	-0.027338
360	1.816423	0.005000	-1.000163	-1.137960	-9.848326	-0.344877	0.026866	-0.247703	0.012982	0.000762	-0.024962
361	1.821423	0.005000	-1.041324	-1.156116	-9.810000	-0.344200	0.026866	-0.248207	-0.003737	0.010465	-0.029434
362	1.826423	0.005000	-1.081586	-1.132987	-9.893453	-0.343522	0.026866	-0.248711	-0.011663	0.009662	-0.026821
363	1.831423	0.005000	-1.052849	-1.137960	-9.741193	-0.342845	0.026866	-0.249215	-0.029231	0.005062	-0.017397
364	1.836423	0.005000	-1.028373	-1.153513	-9.849240	-0.342168	0.026866	-0.249720	-0.055504	0.013259	-0.028015
365	1.841423	0.005000	-0.956291	-1.127782	-9.785291	-0.341490	0.026866	-0.250224	-0.053035	0.014599	-0.019890
366	1.846423	0.005000	-0.941760	-1.228328	-9.915832	-0.340813	0.026866	-0.250728	-0.057244	0.024949	-0.026316
367	1.851423	0.005000	-0.915486	-1.124994	-9.914413	-0.340135	0.026866	-0.251232	-0.050391	0.020097	-0.024616
368	1.856423	0.005000	-0.953704	-1.047536	-10.009608	-0.339458	0.026866	-0.251737	-0.033449	0.013837	-0.017623
369	1.861423	0.005000	-0.970078	-1.070402	-9.921245	-0.338780	0.026866	-0.252241	-0.026460	0.011959	-0.029241
370	1.866423	0.005000	-0.970621	-1.119479	-9.977339	-0.338103	0.026866	-0.252745	-0.004309	0.010990	-0.013632
371	1.871423	0.005000	-1.010883	-1.197726	-9.987486	-0.337425	0.026866	-0.253249	0.017351	0.008198	-0.024914
372	1.876423	0.005000	-1.020240	-1.146398	-9.980887	-0.338067	0.026772	-0.253754	0.031422	0.004294	-0.021451
373	1.881423	0.005000	-1.028032	-1.114304	-9.810000	-0.338970	0.026659	-0.254258	0.039951	0.003834	-0.025003
374	1.886423	0.005000	-0.974230	-1.119029	-9.862780	-0.339874	0.026546	-0.254763	0.046418	0.006520	-0.016029
375	1.891423	0.005000	-0.908336	-1.183016	-9.821632	-0.340778	0.026433	-0.255267	0.047767	0.006390	-0.014628
376	1.896423	0.005000	-0.941760	-1.271249	-9.961770	-0.341681	0.026320	-0.255772	0.042629	0.005525	-0.019090
377	1.901423	0.005000	-0.919189	-1.369233	-9.923553	-0.342585	0.026207	-0.256276	0.029403	0.007740	-0.008411
378	1.906423	0.005000	-0.938135	-1.252055	-9.810000	-0.343489	0.026094	-0.256781	0.004299	0.013787	-0.024654
379	1.911423	0.005000	-0.946965	-1.221645	-9.773363	-0.344392	0.025981	-0.257286	-0.006800	0.006804	-0.010750
380	1.916423	0.005000	-0.941760	-1.254100	-9.813160	-0.345296	0.025868	-0.257790	-0.024812	0.017024	-0.005076
381	1.921423	0.005000	-0.941760	-1.177200	-9.849240	-0.346199	0.025755	-0.258295	-0.039697	0.025594	-0.027271
382	1.926423	0.005000	-0.941775	-1.177215	-9.849240	-0.347103	0.025642	-0.258799	-0.043943	0.020213	-0.011461
383	1.931423	0.005000	-1.019233	-1.139974	-9.772774	-0.348007	0.025529	-0.259304	-0.051845	0.035093	-0.016027
384	1.936423	0.005000	-0.984098	-1.134862	-9.886931	-0.348910	0.025416	-0.259808	-0.043657	0.023376	-0.014886
385	1.941423	0.005000	-0.978428	-1.101292	-9.812572	-0.348554	0.025513	-0.259844	-0.029081	0.028592	-0.015959
386	1.946423	0.005000	-0.981000	-1.173606	-9.888480	-0.347425	0.025739	-0.259592	-0.025880	0.017202	-0.014807
387	1.951423	0.005000	-0.906721	-1.142161	-9.888480	-0.346296	0.025965	-0.259340	-0.003793	0.008040	-0.009624
388	1.956423	0.005000	-0.936586	-1.143134	-9.917372	-0.345167	0.026190	-0.259087	0.010055	0.013648	-0.009958
389	1.961423	0.005000	-0.954153	-1.183397	-9.973157	-0.344038	0.026416	-0.258835	0.025781	0.007106	-0.010175
390	1.966423	0.005000	-1.013420	-1.281281	-9.823639	-0.342909	0.026642	-0.258583	0.034573	0.017245	-0.019197
391	1.971423	0.005000	-0.988761	-1.184961	-9.919959	-0.341780	0.026868	-0.258331	0.038314	0.016216	-0.016243
392	1.976423	0.005000	-0.902520	-1.246896	-9.866807	-0.340651	0.027093	-0.258079	0.034972	0.017963	-0.023079
393	1.981423	0.005000	-0.932319	-1.324719	-9.927720	-0.339522	0.027319	-0.257827	0.031106	0.009394	-0.018985
394	1.986423	0.005000	-1.020240	-1.313463	-9.888480	-0.338393	0.027545	-0.257575	0.032155	0.016464	-0.016493
395	1.991423	0.005000	-0.975872	-1.362029	-9.821371	-0.337264	0.027771	-0.257323	0.013058	0.022087	-0.023257
396	1.996423	0.005000	-1.020240	-1.346553	-9.836847	-0.336135	0.027997	-0.257070	0.010858	0.005670	-0.008973
397	2.001423	0.005000	-0.968065	-1.334160	-9.796631	-0.335006	0.028222	-0.256818	-0.007289	0.019480	-0.008500
398	2.006423	0.005000	-0.955718	-1.280962	-9.913762	-0.334463	0.028493	-0.256717	-0.027422	0.018201	-0.021934
399	2.011423	0.005000	-0.981000	-1.246401	-9.854941	-0.334802	0.028832	-0.256843	-0.025260	0.007672	-0.003235
400	2.016423	0.005000	-0.973208	-1.294920	-9.833516	-0.335141	0.029171	-0.256970	-0.023980	0.020956	-0.016722
401	2.021423	0.005000	-0.919065	-1.288770	-9.855390	-0.335480	0.029510	-0.257096	-0.035560	0.015867	-0.012809
402	2.026423	0.005000	-0.845713	-1.294920	-9.888480	-0.335819	0.029849	-0.257222	-0.021991	0.022064	-0.013796
403	2.031423	0.005000	-0.905075	-1.318373	-9.865027	-0.336158	0.030188	-0.257348	-0.025392	0.018384	-0.011732
404	2.036423	0.005000	-0.902520	-1.393492	-9.966960	-0.336497	0.030527	-0.257474	-0.017199	0.010346	-0.011771
405	2.041423	0.005000	-0.901420	-1.355430	-9.964760	-0.336836	0.030866	-0.257600	-0.018294	0.014580	-0.016461
406	2.046423	0.005000	-0.902520	-1.316112	-9.988152	-0.337174	0.031204	-0.257726	-0.012112	0.012616	-0.009610
407	2.051423	0.005000	-0.880785	-1.238175	-9.892709	-0.337513	0.031543	-0.257852	-0.002225	0.015805	-0.011378
408	2.056423	0.005000	-0.941760	-1.249406	-9.849240	-0.337852	0.031882	-0.257978	-0.000928	0.004517	-0.010931
409	2.061423	0.005000	-0.965539	-1.263999	-9.825461	-0.338191	0.032221	-0.258104	0.000429	0.014242	-0.012580
410	2.066423	0.005000	-0.911923	-1.255680	-9.839837	-0.338530	0.032560	-0.258230	0.013944	0.008552	-0.015094
411	2.071423	0.005000	-0.969552	-1.269576	-9.874584	-0.338848	0.032836	-0.258240	0.010690	0.005344	-0.013536
412	2.076423	0.005000	-1.072973	-1.294920	-9.836367	-0.339074	0.032836	-0.257735	0.002221	0.009908	-0.019333
413	2.081423	0.005000	-0.969002	-1.349404	-9.861238	-0.339299	0.032836	-0.257231	-0.001130	-0.002766	-0.002525
414	2.086423	0.005000	-0.925138	-1.205131	-9.933034	-0.339525	0.032836	-0.256727	-0.009861	0.013256	-0.015900
415	2.091423	0.005000	-0.923093	-1.197773	-9.878194	-0.339751	0.032836	-0.256223	-0.018822	0.010793	-0.017323
416	2.096423	0.005000	-0.962250	-1.205325	-9.879105	-0.339977	0.032836	-0.255718	-0.032228	0.016437	-0.008033
417	2.101423	0.005000	-1.011534	-1.268801	-9.753348	-0.340203	0.032836	-0.255214	-0.038740	0.023155	-0.010170
418	2.106423	0.005000	-0.965626	-1.208753	-9.676100	-0.340428	0.032836	-0.254710	-0.035364	0.010774	-0.007027
419	2.111423	0.005000	-0.863280	-1.202926	-9.816757	-0.340654	0.032836	-0.254206	-0.039002	0.021405	-0.007228
420	2.116423	0.005000	-0.923403	-1.267918	-9.816119	-0.340880	0.032836	-0.253701	-0.040064	0.016650	-0.015804
421	2.121423	0.005000	-0.902520	-1.216440	-9.791147	-0.341106	0.032836	-0.253197	-0.021179	0.020275	-0.011017
422	2.126423	0.005000	-0.824040	-1.212366	-9.782983	-0.341332	0.032836	-0.252693	-0.020651	0.020977	-0.001569
423	2.131423	0.005000	-0.827572	-1.177200	-9.999136	-0.341557	0.032836	-0.252189	-0.018581	0.010410	-0.004894
424	2.136423	0.005000	-0.944270	-1.258190	-9.964450	-0.341783	0.032836	-0.251685	-0.006208	0.015676	0.002014
425	2.141423	0.005000	-0.867742	-1.294920	-10.001738	-0.341900	0.032727	-0.252032	-0.005653	0.017001	0.008301
426	2.146423	0.005000	-0.902055	-1.293991	-9.810000	-0.342013	0.032614	-0.252411	0.000843	0.024667	-0.012793
427	2.151423	0.005000	-0.979327	-1.255122	-9.848682	-0.342126	0.032501	-0.252789	-0.006796	0.019037	-0.003707
428	2.156423	0.005000	-0.979900	-1.217540	-9.928820	-0.342239	0.032388	-0.253167	-0.018697	0.018390	-0.004953
429	2.161423	0.005000	-0.941760	-1.214318	-9.814245	-0.342352	0.032275	-0.253546	-0.028481	0.022938	-0.011333
430	2.166423	0.005000	-0.984145	-1.252535	-9.918286	-0.342465	0.032162	-0.253924	-0.042729	0.017961	-0.008585
431	2.171423	0.005000	-0.875782	-1.173033	-9.822502	-0.342578	0.032049	-0.254303	-0.056164	0.022516	-0.021050
432	2.176423	0.005000	-1.015531	-1.133251	-9.888480	-0.342691	0.031936	-0.254681	-0.071277	0.009013	-0.001205
433	2.181423	0.005000	-0.947492	-1.227021	-9.838659	-0.342804	0.031823	-0.255059	-0.084430	0.022820	-0.013875
434	2.186423	0.005000	-1.020240	-1.158223	-9.784269	-0.342917	0.031710	-0.255438	-0.087806	0.029640	-0.017675
435	2.191423	0.005000	-0.949160	-1.169800	-9.724120	-0.343030	0.031597	-0.255816	-0.072141	0.026334	-0.004761
436	2.196423	0.005000	-0.840678	-1.154598	-9.804036	-0.343143	0.031484	-0.256194	-0.079820	0.026619	-0.033635
437	2.201423	0.005000	-0.904394	-0.949227	-9.720304	-0.343256	0.031371	-0.256573	-0.052017	0.015720	-0.024336
438	2.206423	0.005000	-1.029427	-0.981000	-9.878462	-0.343030	0.031513	-0.256856	-0.039138	0.014155	-0.021863
439	2.211423	0.005000	-0.948235	-1.059480	-9.995278	-0.342691	0.031738	-0.257109	-0.022190	0.020034	-0.032501
440	2.216423	0.005000	-0.863280	-1.035592	-9.927720	-0.342352	0.031964	-0.257361	0.006798	0.007539	-0.029339
441	2.221423	0.005000	-0.875766	-1.032726	-9.941988	-0.342013	0.032190	-0.257613	0.028773	0.013562	-0.031628
442	2.226423	0.005000	-0.941760	-1.045971	-10.018423	-0.341675	0.032416	-0.257865	0.039394	0.009475	-0.030994
443	2.231423	0.005000	-1.034771	-1.108898	-9.863771	-0.341336	0.032642	-0.258117	0.055030	0.003403	-0.035309
444	2.236423	0.005000	-0.965927	-1.083647	-9.888480	-0.340997	0.032867	-0.258369	0.065115	0.001605	-0.023343
445	2.241423	0.005000	-1.036336	-1.114816	-9.881431	-0.340658	0.033093	-0.258621	0.061411	0.017840	-0.033337
446	2.246423	0.005000	-0.936756	-1.115838	-9.753642	-0.340320	0.033319	-0.258873	0.047807	0.012981	-0.032687
447	2.251423	0.005000	-0.948723	-1.159321	-9.788639	-0.339981	0.033545	-0.259125	0.034552	0.018194	-0.030414
448	2.256423	0.005000	-1.001557	-1.117403	-9.869797	-0.339642	0.033771	-0.259378	0.013273	0.024770	-0.033825
449	2.261423	0.005000	-0.981170	-1.157495	-9.888310	-0.339304	0.033996	-0.259630	-0.009157	0.011696	-0.014598
450	2.266423	0.005000	-0.883543	-1.100006	-9.868217	-0.338965	0.034222	-0.259882	-0.024745	0.008932	-0.022126
451	2.271423	0.005000	-1.020240	-1.134629	-9.949005	-0.338926	0.034088	-0.259732	-0.042147	0.009919	-0.031477
452	2.276423	0.005000	-1.003308	-1.132584	-9.927720	-0.339152	0.033636	-0.259228	-0.039368	0.000743	-0.019304
453	2.281423	0.005000	-0.957867	-1.168119	-9.904587	-0.339378	0.033185	-0.258723	-0.045280	0.017353	-0.030795
454	2.286423	0.005000	-1.020240	-1.114088	-9.958455	-0.339604	0.032733	-0.258218	-0.041547	0.018846	-0.025323
455	2.291423	0.005000	-1.045135	-1.123615	-9.956410	-0.339830	0.032281	-0.257714	-0.016918	0.015389	-0.015971
456	2.296423	0.005000	-1.004268	-1.112523	-9.966960	-0.340055	0.031829	-0.257209	-0.004663	0.008722	-0.010038
457	2.301423	0.005000	-1.006561	-1.073159	-9.914041	-0.340281	0.031377	-0.256705	0.005561	0.006929	-0.005659
458	2.306423	0.005000	-1.059480	-1.043756	-9.955202	-0.340507	0.030926	-0.256200	0.021816	0.000471	-0.008580
459	2.311423	0.005000	-0.970131	-1.198937	-9.899349	-0.340733	0.030474	-0.255696	0.035077	0.003426	-0.007280
460	2.316423	0.005000	-0.941760	-1.167007	-9.907333	-0.340959	0.030022	-0.255191	0.042000	-0.003597	-0.007761
461	2.321423	0.005000	-1.050309	-1.274022	-9.749862	-0.341185	0.029570	-0.254687	0.049815	-0.006407	0.003945
462	2.326423	0.005000	-0.989246	-1.278428	-9.832748	-0.341411	0.029118	-0.254182	0.038902	0.011864	-0.013038
463	2.331423	0.005000	-0.981000	-1.287329	-9.873298	-0.341637	0.028667	-0.253678	0.032779	0.008184	-0.004018
464	2.336423	0.005000	-1.026811	-1.281778	-9.770760	-0.341719	0.028394	-0.253333	0.017541	0.009885	0.000190
465	2.341423	0.005000	-1.014679	-1.188323	-9.866234	-0.341494	0.028507	-0.253333	-0.002737	0.024166	-0.007367
466	2.346423	0.005000	-0.965989	-1.294920	-9.815004	-0.341268	0.028620	-0.253333	-0.025440	0.024248	0.005695
467	2.351423	0.005000	-0.945741	-1.330179	-9.915776	-0.341042	0.028733	-0.253333	-0.046698	0.029129	0.003119
468	2.356423	0.005000	-0.896602	-1.249762	-9.888480	-0.340816	0.028846	-0.253333	-0.050426	0.028063	-0.000821
469	2.361423	0.005000	-0.865697	-1.172367	-9.888480	-0.340590	0.028959	-0.253333	-0.068187	0.030296	0.003071
470	2.366423	0.005000	-0.902520	-1.217834	-9.965566	-0.340364	0.029072	-0.253333	-0.074182	0.031638	-0.008819
471	2.371423	0.005000	-0.863652	-1.255680	-9.928464	-0.340138	0.029185	-0.253333	-0.061833	0.017890	0.000744
472	2.376423	0.005000	-0.902520	-1.177545	-10.045267	-0.339912	0.029298	-0.253333	-0.055182	0.023111	-0.002750
473	2.381423	0.005000	-0.940567	-1.137960	-9.930106	-0.339686	0.029411	-0.253333	-0.050388	0.014504	-0.007697
474	2.386423	0.005000	-0.937329	-1.059480	-10.001769	-0.339460	0.029524	-0.253333	-0.037875	0.002184	-0.007814
475	2.391423	0.005000	-0.863280	-1.177200	-10.006200	-0.339235	0.029637	-0.253333	-0.003245	-0.002338	-0.004887
476	2.396423	0.005000	-0.906301	-1.244336	-9.963179	-0.339009	0.029750	-0.253333	0.015832	-0.000124	-0.001168
477	2.401423	0.005000	-1.020240	-1.299722	-9.858845	-0.338806	0.029863	-0.253333	0.031122	-0.004001	-0.014112
478	2.406423	0.005000	-0.953410	-1.300745	-9.810000	-0.338806	0.029975	-0.253333	0.036926	-0.009754	-0.005525
479	2.411423	0.005000	-0.968235	-1.301303	-9.842857	-0.338806	0.030088	-0.253333	0.040281	0.002227	-0.012774
480	2.416423	0.005000	-0.941760	-1.309730	-9.810000	-0.338806	0.030201	-0.253333	0.047461	-0.004468	-0.012714
481	2.421423	0.005000	-0.941760	-1.334160	-9.849240	-0.338806	0.030314	-0.253333	0.035466	0.003272	-0.014270
482	2.426423	0.005000	-0.932679	-1.364319	-9.770760	-0.338806	0.030427	-0.253333	0.011925	0.010385	-0.016888
483	2.431423	0.005000	-0.990992	-1.373400	-9.721528	-0.338806	0.030540	-0.253333	0.010339	0.008299	-0.017462
484	2.436423	0.005000	-0.974803	-1.395429	-9.753549	-0.338806	0.030653	-0.253333	-0.014422	0.016927	-0.021765
485	2.441423	0.005000	-0.874980	-1.239840	-9.825840	-0.338806	0.030765	-0.253333	-0.025364	0.009820	-0.011639
486	2.446423	0.005000	-0.875859	-1.282341	-9.770760	-0.338806	0.030878	-0.253333	-0.038557	0.020323	-0.008858
487	2.451423	0.005000	-0.876882	-1.230042	-9.900517	-0.338806	0.030991	-0.253333	-0.058785	0.016343	-0.016498
488	2.456423	0.005000	-0.941760	-1.305522	-9.884763	-0.338806	0.031104	-0.253333	-0.056927	0.016966	-0.009602
489	2.461423	0.005000	-0.948019	-1.334160	-9.936628	-0.338806	0.031217	-0.253333	-0.056570	0.017527	-0.023637
490	2.466423	0.005000	-0.964811	-1.327297	-9.895343	-0.338806	0.031330	-0.253333	-0.055350	0.003917	-0.016631
491	2.471423	0.005000	-0.902520	-1.328814	-9.950013	-0.338806	0.031443	-0.253556	-0.044742	0.007791	-0.027782
492	2.476423	0.005000	-0.881049	-1.230506	-9.970662	-0.338806	0.031556	-0.253808	-0.029713	-0.000854	-0.018232
493	2.481423	0.005000	-0.801909	-1.197657	-9.949851	-0.338806	0.031669	-0.254060	-0.020937	-0.003400	-0.023787
494	2.486423	0.005000	-0.882722	-1.255680	-9.888480	-0.338806	0.031781	-0.254312	-0.006216	-0.006167	-0.032505
495	2.491423	0.005000	-1.058008	-1.254208	-9.830356	-0.338806	0.031894	-0.254564	-0.001241	-0.006521	-0.025085
496	2.496423	0.005000	-1.005895	-1.294920	-9.827862	-0.338806	0.032007	-0.254817	0.005375	0.007114	-0.043602
497	2.501423	0.005000	-0.958599	-1.255680	-9.770760	-0.338806	0.032120	-0.255069	0.021324	-0.002744	-0.028072
498	2.506423	0.005000	-0.941760	-1.239383	-9.653040	-0.338806	0.032233	-0.255321	0.008233	0.008537	-0.021773
499	2.511423	0.005000	-1.020240	-1.177200	-9.740211	-0.338806	0.032346	-0.255573	0.010669	0.011277	-0.022963
500	2.516423	0.005000	-1.005811	-1.216440	-9.756331	-0.338806	0.032459	-0.255825	0.002982	0.008272	-0.013857
501	2.521423	0.005000	-0.981000	-1.137960	-9.796290	-0.338806	0.032572	-0.256077	-0.015851	0.026315	-0.029473
502	2.526423	0.005000	-0.889680	-1.162918	-9.757920	-0.338806	0.032685	-0.256330	-0.025587	0.024189	-0.018937
503	2.531423	0.005000	-0.890390	-1.192180	-9.822130	-0.338806	0.032798	-0.256582	-0.031275	0.017013	-0.020377
504	2.536423	0.005000	-0.874387	-1.216440	-9.916613	-0.339030	0.032911	-0.255999	-0.035999	0.014419	-0.019152
505	2.541423	0.005000	-0.921559	-1.156999	-9.918781	-0.339369	0.033024	-0.254991	-0.041679	0.021783	-0.018143
506	2.546423	0.005000	-0.941760	-1.186743	-9.977572	-0.339707	0.033136	-0.253983	-0.057693	0.021368	-0.031924
507	2.551423	0.005000	-0.981000	-1.286400	-9.997680	-0.340046	0.033249	-0.252975	-0.054516	0.008742	-0.016548
508	2.556423	0.005000	-0.934262	-1.184698	-10.052938	-0.340384	0.033362	-0.251967	-0.057048	0.009968	-0.021772
509	2.561423	0.005000	-0.902520	-1.137960	-9.985333	-0.340723	0.033475	-0.250959	-0.049140	-0.000107	-0.017475
510	2.566423	0.005000	-0.908453	-1.098720	-9.961027	-0.341062	0.033588	-0.249950	-0.036585	0.003303	-0.027649
511	2.571423	0.005000	-0.941760	-1.137960	-9.898423	-0.341400	0.033700	-0.248942	-0.030585	-0.003821	-0.024604
512	2.576423	0.005000	-0.941760	-1.137960	-9.844871	-0.341739	0.033813	-0.247934	-0.014466	-0.001551	-0.026209
513	2.581423	0.005000	-0.827386	-1.059480	-9.855932	-0.342077	0.033926	-0.246926	-0.021867	-0.003223	-0.018914
514	2.586423	0.005000	-0.907223	-1.135608	-9.849240	-0.342416	0.034039	-0.245918	0.003305	0.000712	-0.004280
515	2.591423	0.005000	-0.943526	-1.219972	-9.886714	-0.342754	0.034152	-0.244910	0.005345	0.007254	-0.010996
516	2.596423	0.005000	-0.981000	-1.217928	-9.812976	-0.343093	0.034264	-0.243902	-0.004745	0.005064	-0.008969
517	2.601423	0.005000	-0.903047	-1.139013	-10.044913	-0.343727	0.033639	-0.242563	-0.009710	0.003874	0.000511
518	2.606423	0.005000	-1.017777	-1.215619	-9.851703	-0.344743	0.032058	-0.240799	-0.033451	0.004629	-0.017558
519	2.611423	0.005000	-0.981000	-1.253837	-9.695967	-0.345759	0.030478	-0.239034	-0.040999	0.000440	-0.015547
520	2.616423	0.005000	-0.981000	-1.180066	-9.734386	-0.346775	0.028897	-0.237269	-0.049332	0.005407	-0.018767
521	2.621423	0.005000	-1.016832	-1.108944	-9.856056	-0.347791	0.027317	-0.235504	-0.074984	-0.000535	-0.014775
522	2.626423	0.005000	-1.055049	-1.029101	-9.892911	-0.348807	0.025736	-0.233739	-0.090743	0.005407	-0.015715
523	2.631423	0.005000	-1.087814	-1.104173	-10.039987	-0.349823	0.024156	-0.231974	-0.092815	0.005634	-0.005914
524	2.636423	0.005000	-1.053411	-1.104789	-9.973029	-0.350839	0.022575	-0.230209	-0.101404	0.009268	0.000362
525	2.641423	0.005000	-1.059480	-1.084685	-9.920702	-0.351855	0.020995	-0.228444	-0.099120	0.014515	-0.012365
526	2.646423	0.005000	-0.989040	-0.997080	-9.888480	-0.352871	0.019414	-0.226679	-0.079808	0.007622	-0.007767
527	2.651423	0.005000	-0.990063	-1.011177	-9.997137	-0.353887	0.017834	-0.224914	-0.065375	0.001244	-0.014449
528	2.656423	0.005000	-0.981000	-1.020240	-9.898204	-0.354903	0.016253	-0.223149	-0.025371	0.001635	-0.019986
529	2.661423	0.005000	-0.902520	-1.009613	-9.870494	-0.355919	0.014672	-0.221384	0.010805	0.004387	-0.015808
530	2.666423	0.005000	-0.957701	-0.996941	-9.939370	-0.356887	0.013506	-0.220054	0.042960	0.012441	-0.016976
531	2.671423	0.005000	-0.822816	-1.034136	-9.849240	-0.357677	0.013845	-0.220307	0.086249	-0.002620	-0.018123
532	2.676423	0.005000	-0.902520	-1.111500	-9.836010	-0.358468	0.014184	-0.220559	0.092566	0.007812	-0.023565
533	2.681423	0.005000	-0.941760	-1.177200	-9.913468	-0.359259	0.014523	-0.220811	0.103526	0.004803	-0.017927
534	2.686423	0.005000	-0.957019	-1.177200	-9.849240	-0.360049	0.014861	-0.221063	0.109802	0.010162	-0.021908
535	2.691423	0.005000	-0.935083	-1.177200	-9.849240	-0.360840	0.015200	-0.221316	0.074298	0.013920	-0.021835
536	2.696423	0.005000	-0.897362	-1.260838	-9.832199	-0.361631	0.015539	-0.221568	0.045875	0.001451	-0.025263
537	2.701423	0.005000	-0.963138	-1.309265	-9.810000	-0.362421	0.015878	-0.221820	0.004991	0.006047	-0.027929
538	2.706423	0.005000	-0.981000	-1.354516	-9.887008	-0.363212	0.016217	-0.222072	-0.039106	-0.004326	-0.019096
539	2.711423	0.005000	-1.078813	-1.412640	-9.829333	-0.364003	0.016555	-0.222324	-0.060880	0.010196	-0.018422
540	2.716423	0.005000	-1.079929	-1.276129	-9.885165	-0.364793	0.016894	-0.222577	-0.104207	0.010403	-0.025574
541	2.721423	0.005000	-1.038009	-1.263085	-9.952894	-0.365584	0.017233	-0.222829	-0.113718	0.006358	-0.020858
542	2.726423	0.005000	-1.003494	-1.177200	-9.966960	-0.366375	0.017572	-0.223081	-0.115759	0.020032	-0.022745
543	2.731423	0.005000	-0.981000	-1.121756	-9.934552	-0.367161	0.017910	-0.223335	-0.108469	0.026295	-0.023655
544	2.736423	0.005000	-0.996182	-1.083538	-9.840363	-0.365468	0.017910	-0.224722	-0.086826	0.008289	-0.028301
545	2.741423	0.005000	-1.034399	-1.059480	-9.952801	-0.363774	0.017910	-0.226109	-0.057242	0.014181	-0.025649
546	2.746423	0.005000	-1.020240	-1.059480	-9.914754	-0.362081	0.017910	-0.227496	-0.024626	0.017710	-0.015090
547	2.751423	0.005000	-0.929165	-1.058024	-9.954365	-0.360387	0.017910	-0.228882	0.027009	0.014123	-0.020891
548	2.756423	0.005000	-0.874852	-1.098720	-9.946341	-0.358694	0.017910	-0.230269	0.057511	0.003840	-0.015752
549	2.761423	0.005000	-0.902520	-1.187750	-10.034890	-0.357000	0.017910	-0.231656	0.071323	0.010720	-0.022677
550	2.766423	0.005000	-0.893256	-1.167208	-9.917728	-0.355307	0.017910	-0.233043	0.099260	-0.007019	-0.013433
551	2.771423	0.005000	-0.963054	-1.207467	-9.827946	-0.353614	0.017910	-0.234430	0.089828	-0.000182	-0.016609
552	2.776423	0.005000	-0.910483	-1.201088	-9.903832	-0.351920	0.017910	-0.235817	0.081871	-0.011763	-0.020693
553	2.781423	0.005000	-0.941760	-1.359353	-9.934743	-0.350227	0.017910	-0.237203	0.063185	-0.005387	-0.012223
554	2.786423	0.005000	-0.993765	-1.301303	-9.914955	-0.348533	0.017910	-0.238590	0.036207	-0.002138	-0.018483
555	2.791423	0.005000	-1.020240	-1.344880	-9.883120	-0.346840	0.017910	-0.239977	-0.000666	0.002605	-0.018601
556	2.796423	0.005000	-1.020240	-1.329822	-9.844902	-0.345146	0.017910	-0.241364	-0.046805	0.005336	-0.010746
557	2.801423	0.005000	-0.956942	-1.255680	-9.817591	-0.344246	0.018616	-0.242751	-0.076400	0.007646	-0.009206
558	2.806423	0.005000	-0.981000	-1.255680	-9.888480	-0.343569	0.019520	-0.244139	-0.092674	0.010093	0.001027
559	2.811423	0.005000	-0.900769	-1.335911	-9.776012	-0.342891	0.020423	-0.245526	-0.105676	0.014766	-0.004546
560	2.816423	0.005000	-1.059480	-1.254472	-9.925303	-0.342213	0.021327	-0.246913	-0.108212	0.012191	-0.002660
561	2.821423	0.005000	-0.981558	-1.138146	-9.810186	-0.341536	0.022231	-0.248301	-0.100492	0.016005	-0.008565
562	2.826423	0.005000	-1.137123	-1.177200	-9.810837	-0.340858	0.023134	-0.249688	-0.080392	0.013365	-0.009440
563	2.831423	0.005000	-0.982859	-1.137960	-9.849240	-0.340180	0.024038	-0.251075	-0.061314	0.024235	-0.008696
564	2.836423	0.005000	-0.978569	-1.174769	-9.849240	-0.339503	0.024942	-0.252463	-0.030544	0.009285	-0.012065
565	2.841423	0.005000	-0.984424	-1.137960	-9.838969	-0.338825	0.025845	-0.253850	0.007741	0.015076	-0.002476
566	2.846423	0.005000	-0.985446	-1.103166	-9.779652	-0.338147	0.026749	-0.255238	0.029491	0.016509	-0.021857
567	2.851423	0.005000	-0.975936	-1.064544	-9.726456	-0.337470	0.027653	-0.256625	0.046330	0.007633	-0.016891
568	2.856423	0.005000	-0.941760	-1.131934	-9.803974	-0.336792	0.028556	-0.258012	0.042456	0.016863	-0.022152
569	2.861423	0.005000	-0.973967	-1.273821	-9.985101	-0.336114	0.029460	-0.259400	0.050550	0.018626	-0.011810
570	2.866423	0.005000	-1.083356	-1.326478	-9.840727	-0.336269	0.029723	-0.259714	0.029907	0.018098	-0.009225
571	2.871423	0.005000	-1.037467	-1.334160	-9.823400	-0.337060	0.029497	-0.259210	-0.005431	0.027204	-0.022883
572	2.876423	0.005000	-0.951396	-1.255680	-9.977293	-0.337850	0.029271	-0.258705	-0.020447	0.015882	-0.010583
573	2.881423	0.005000	-0.962368	-1.148264	-9.890456	-0.338640	0.029046	-0.258201	-0.060125	0.015541	-0.022608
574	2.886423	0.005000	-0.992200	-1.081881	-9.938920	-0.339431	0.028820	-0.257697	-0.095540	0.018631	-0.023925
575	2.891423	0.005000	-1.062052	-1.089069	-9.939943	-0.340221	0.028594	-0.257192	-0.107388	0.021664	-0.024052
576	2.896423	0.005000	-0.994245	-1.072725	-9.810000	-0.341011	0.028368	-0.256688	-0.119834	0.016888	-0.028707
577	2.901423	0.005000	-0.978878	-1.047815	-9.992413	-0.341801	0.028142	-0.256184	-0.106871	0.004693	-0.025157
578	2.906423	0.005000	-1.069100	-1.074290	-9.864050	-0.342592	0.027917	-0.255679	-0.074274	0.016495	-0.038669
579	2.911423	0.005000	-1.036072	-1.004408	-9.888480	-0.343382	0.027691	-0.255175	-0.055727	0.010605	-0.027192
580	2.916423	0.005000	-0.964619	-0.951663	-9.921242	-0.344172	0.027465	-0.254671	-0.021033	0.014511	-0.025789
581	2.921423	0.005000	-0.959157	-0.924363	-9.932166	-0.344963	0.027239	-0.254167	0.027444	0.016932	-0.019506
582	2.926423	0.005000	-1.020240	-0.960179	-9.946139	-0.345753	0.027013	-0.253662	0.055225	0.020987	-0.019665
583	2.931423	0.005000	-0.999977	-1.081029	-9.827691	-0.346112	0.026944	-0.253421	0.092483	0.013171	-0.032728
584	2.936423	0.005000	-0.922520	-1.099479	-9.848481	-0.345660	0.027170	-0.253673	0.105349	0.006181	-0.031801
585	2.941423	0.005000	-0.920738	-1.080502	-9.888480	-0.345209	0.027396	-0.253925	0.120035	0.025502	-0.036085
586	2.946423	0.005000	-0.963324	-1.141848	-9.892368	-0.344757	0.027622	-0.254177	0.123830	0.012594	-0.025503
587	2.951423	0.005000	-0.991720	-1.098720	-9.849240	-0.344305	0.027848	-0.254430	0.097784	0.016859	-0.022340
588	2.956423	0.005000	-0.957585	-1.208206	-9.880889	-0.343853	0.028074	-0.254682	0.073161	0.024761	-0.026825
589	2.961423	0.005000	-0.990063	-1.310009	-9.773796	-0.343401	0.028300	-0.254934	0.047004	0.023842	-0.009154
590	2.966423	0.005000	-0.992107	-1.308986	-9.720413	-0.342950	0.028526	-0.255187	0.013030	0.023291	-0.028620
591	2.971423	0.005000	-0.955274	-1.373400	-9.823514	-0.342498	0.028752	-0.255439	-0.025535	0.013834	-0.013864
592	2.976423	0.005000	-1.020240	-1.335895	-9.810000	-0.342046	0.028977	-0.255691	-0.041859	0.016966	-0.008785
593	2.981423	0.005000	-1.036522	-1.267159	-9.821479	-0.341594	0.029203	-0.255944	-0.053914	0.015272	-0.010085
594	2.986423	0.005000	-0.981000	-1.127038	-9.916798	-0.341142	0.029429	-0.256196	-0.059266	0.017885	-0.013785
595	2.991423	0.005000	-0.902520	-1.216440	-9.868682	-0.340691	0.029655	-0.256448	-0.059817	0.016869	-0.017157
596	2.996423	0.005000	-0.941760	-1.225317	-9.854383	-0.340299	0.029806	-0.256600	-0.045690	0.013610	-0.012056
597	3.001423	0.005000	-0.902520	-1.208106	-9.911051	-0.340299	0.029467	-0.256096	-0.023509	0.015667	-0.013431
598	3.006423	0.005000	-0.831352	-1.145272	-9.824624	-0.340299	0.029129	-0.255591	-0.001457	0.004885	-0.006105
599	3.011423	0.005000	-0.791167	-1.183567	-9.849240	-0.340299	0.028790	-0.255087	0.024594	0.015861	-0.007376
600	3.016423	0.005000	-1.014493	-1.227935	-9.871238	-0.340299	0.028451	-0.254583	0.029172	0.014025	-0.009656
601	3.021423	0.005000	-0.971550	-1.329435	-9.810000	-0.340299	0.028112	-0.254078	0.048556	0.002530	-0.000755
602	3.026423	0.005000	-0.945507	-1.330413	-9.817494	-0.340299	0.027774	-0.253574	0.045669	0.017072	-0.019212
603	3.031423	0.005000	-0.944920	-1.340481	-9.891640	-0.340299	0.027435	-0.253070	0.035106	0.014121	-0.015742
604	3.036423	0.005000	-0.939622	-1.371262	-9.810000	-0.340299	0.027096	-0.252565	0.030372	0.008104	-0.017429
605	3.041423	0.005000	-0.939529	-1.331929	-9.807769	-0.340299	0.026757	-0.252061	0.009773	0.004073	-0.015272
606	3.046423	0.005000	-0.903078	-1.294362	-9.808327	-0.340299	0.026419	-0.251557	-0.002952	0.006447	-0.007456
607	3.051423	0.005000	-0.902985	-1.294455	-9.808606	-0.340299	0.026080	-0.251053	-0.021065	0.010021	-0.010168
608	3.056423	0.005000	-0.864767	-1.409666	-9.888480	-0.340299	0.025741	-0.250548	-0.041919	0.005780	-0.008839
609	3.061423	0.005000	-0.976891	-1.336215	-9.925665	-0.340299	0.025403	-0.250044	-0.045374	0.005173	-0.017011
610	3.066423	0.005000	-0.977948	-1.294920	-9.852292	-0.340093	0.025476	-0.249885	-0.051114	0.009988	-0.015417
611	3.071423	0.005000	-1.012091	-1.330086	-9.814074	-0.339867	0.025589	-0.249759	-0.059318	0.014129	-0.021271
612	3.076423	0.005000	-0.981000	-1.368726	-9.770760	-0.339641	0.025702	-0.249633	-0.046443	0.011105	-0.009915
613	3.081423	0.005000	-0.880197	-1.322882	-9.894119	-0.339415	0.025815	-0.249507	-0.030146	0.001040	-0.001380
614	3.086423	0.005000	-0.935099	-1.301581	-9.816661	-0.339189	0.025928	-0.249381	-0.021539	0.010951	-0.018462
615	3.091423	0.005000	-1.004872	-1.255680	-9.849240	-0.338963	0.026041	-0.249254	-0.011164	0.000314	-0.001833
616	3.096423	0.005000	-1.012014	-1.216440	-9.950508	-0.338738	0.026154	-0.249128	-0.006165	0.012213	-0.007861
617	3.101423	0.005000	-0.921017	-1.204945	-10.006200	-0.338512	0.026267	-0.249002	-0.001993	0.001314	-0.014133
618	3.106423	0.005000	-0.844582	-1.274378	-9.977231	-0.338286	0.026380	-0.248876	-0.000093	0.008186	-0.016368
619	3.111423	0.005000	-0.920103	-1.255680	-9.910137	-0.338060	0.026492	-0.248750	-0.007470	0.014550	-0.025143
620	3.116423	0.005000	-1.075018	-1.243829	-9.888480	-0.337834	0.026605	-0.248624	-0.005113	-0.001115	-0.010467
621	3.121423	0.005000	-0.941094	-1.242156	-9.835716	-0.337608	0.026718	-0.248498	-0.020360	0.005813	-0.011073
622	3.126423	0.005000	-0.967584	-1.177200	-9.823416	-0.337382	0.026831	-0.248372	-0.032983	0.009771	-0.018529
623	3.131423	0.005000	-1.045042	-1.245316	-9.863678	-0.337391	0.026944	-0.248857	-0.046016	0.008632	-0.015076
624	3.136423	0.005000	-0.972681	-1.231901	-9.902763	-0.337504	0.027057	-0.249613	-0.046014	0.012535	-0.027595
625	3.141423	0.005000	-1.036723	-1.193683	-9.754277	-0.337617	0.027170	-0.250370	-0.044897	0.011851	-0.007936
626	3.146423	0.005000	-1.071316	-1.120935	-9.775950	-0.337730	0.027283	-0.251126	-0.044288	0.017370	-0.033977
627	3.151423	0.005000	-1.038288	-1.119912	-9.755857	-0.337843	0.027396	-0.251883	-0.044657	0.008545	-0.019306
628	3.156423	0.005000	-0.998970	-1.139060	-9.870510	-0.337956	0.027508	-0.252639	-0.043025	0.023146	-0.012977
629	3.161423	0.005000	-1.000628	-1.118332	-9.927720	-0.338069	0.027621	-0.253395	-0.037640	0.005463	-0.013240
630	3.166423	0.005000	-1.022269	-1.100749	-9.962901	-0.338182	0.027734	-0.254152	-0.029648	0.010255	-0.016587
631	3.171423	0.005000	-1.077274	-1.020240	-9.945514	-0.338295	0.027847	-0.254908	-0.027455	0.016881	-0.026085
632	3.176423	0.005000	-1.177200	-1.076246	-9.933429	-0.338408	0.027960	-0.255665	-0.009833	-0.002058	-0.014516
633	3.181423	0.005000	-1.043462	-1.020240	-9.990182	-0.338521	0.028073	-0.256421	-0.015363	0.005000	-0.024692
634	3.186423	0.005000	-1.083544	-1.050591	-9.912544	-0.338633	0.028186	-0.257177	-0.006957	0.009195	-0.021980
635	3.191423	0.005000	-0.916958	-1.109084	-9.898844	-0.338746	0.028298	-0.257934	-0.004232	0.011854	-0.014298
636	3.196423	0.005000	-0.928344	-1.085304	-9.810000	-0.338806	0.028518	-0.258273	-0.004492	0.011771	-0.019008
637	3.201423	0.005000	-0.954307	-1.111267	-9.849240	-0.338806	0.028857	-0.258147	0.005374	-0.000013	-0.013452
638	3.206423	0.005000	-0.926222	-1.126109	-9.900331	-0.338806	0.029196	-0.258021	0.006575	0.014370	-0.010858
639	3.211423	0.005000	-1.020240	-1.177200	-9.831657	-0.338806	0.029535	-0.257895	0.007327	0.000014	-0.016494
640	3.216423	0.005000	-0.971072	-1.137960	-9.908335	-0.338806	0.029874	-0.257769	0.010649	0.018903	-0.019731
641	3.221423	0.005000	-0.951024	-1.188648	-9.879216	-0.338806	0.030212	-0.257643	0.003249	0.014771	-0.021353
642	3.226423	0.005000	-0.964517	-1.154443	-9.832757	-0.338806	0.030551	-0.257517	-0.004347	0.011376	-0.031544
643	3.231423	0.005000	-0.870499	-1.169981	-9.834802	-0.338806	0.030890	-0.257391	-0.001747	0.012132	-0.028237
644	3.236423	0.005000	-0.863280	-1.098720	-9.855917	-0.338806	0.031229	-0.257265	-0.005420	0.010966	-0.010710
645	3.241423	0.005000	-0.992309	-1.098720	-9.888480	-0.338806	0.031568	-0.257139	-0.017078	0.015808	-0.016056
646	3.246423	0.005000	-1.015608	-1.137960	-9.913824	-0.338806	0.031907	-0.257013	-0.012593	0.011643	-0.014974
647	3.251423	0.005000	-0.906594	-1.102794	-9.747817	-0.338806	0.032246	-0.256887	-0.021685	0.016160	-0.008220
648	3.256423	0.005000	-0.977948	-1.095668	-9.918565	-0.338806	0.032585	-0.256761	-0.010599	0.018150	-0.015141
649	3.261423	0.005000	-0.949978	-1.096665	-9.772815	-0.338777	0.032778	-0.256569	-0.002504	0.006641	-0.002912
650	3.266423	0.005000	-1.059480	-1.097233	-9.924746	-0.338664	0.032552	-0.256191	-0.001917	0.018698	-0.023616
651	3.271423	0.005000	-1.058086	-1.099649	-9.850634	-0.338551	0.032326	-0.255813	0.005617	0.014541	-0.009715
652	3.276423	0.005000	-0.941760	-1.138518	-10.005642	-0.338438	0.032100	-0.255435	0.015329	0.021082	-0.017424
653	3.281423	0.005000	-0.942860	-1.176100	-9.888480	-0.338325	0.031875	-0.255057	0.014718	0.018168	-0.022001
654	3.286423	0.005000	-1.131593	-1.175078	-9.925598	-0.338212	0.031649	-0.254678	0.022901	0.011145	-0.010023
655	3.291423	0.005000	-0.983698	-1.182595	-9.922325	-0.338099	0.031423	-0.254300	0.018512	0.015364	-0.014980
656	3.296423	0.005000	-0.977313	-1.216440	-9.849240	-0.337986	0.031197	-0.253922	0.014135	0.008487	-0.015542
657	3.301423	0.005000	-0.911939	-1.290211	-9.888480	-0.337873	0.030971	-0.253544	0.012573	0.014455	-0.023851
658	3.306423	0.005000	-0.981000	-1.182467	-9.927720	-0.337760	0.030746	-0.253165	0.006708	0.007959	-0.022570
659	3.311423	0.005000	-1.020240	-1.210150	-9.816290	-0.337648	0.030520	-0.252787	-0.004981	0.010208	-0.015285
660	3.316423	0.005000	-1.020240	-1.216440	-9.842324	-0.337535	0.030294	-0.252409	-0.008735	0.015166	-0.025815
661	3.321423	0.005000	-1.098720	-1.224294	-9.912012	-0.337422	0.030068	-0.252031	-0.007463	0.008526	-0.007025
662	3.326423	0.005000	-1.080967	-1.207563	-9.836630	-0.337309	0.029847	-0.251681	-0.020448	0.020600	-0.011169
663	3.331423	0.005000	-1.029776	-1.117791	-9.741056	-0.337196	0.029734	-0.252060	-0.020283	0.019910	-0.015748
664	3.336423	0.005000	-1.009799	-1.187641	-9.692280	-0.337083	0.029621	-0.252438	-0.015264	0.021829	-0.019313
665	3.341423	0.005000	-0.969536	-1.149424	-9.759296	-0.336970	0.029508	-0.252816	-0.021253	0.013001	-0.021300
666	3.346423	0.005000	-0.981000	-1.111206	-9.744006	-0.336857	0.029395	-0.253194	-0.010388	0.019428	0.000659
667	3.351423	0.005000	-1.007212	-1.124932	-9.862423	-0.336744	0.029282	-0.253572	-0.012233	0.024879	-0.032796
668	3.356423	0.005000	-1.031378	-1.112771	-9.824051	-0.336632	0.029169	-0.253951	-0.002968	0.025613	-0.020465
669	3.361423	0.005000	-1.059480	-1.074264	-9.834456	-0.336519	0.029056	-0.254329	0.002010	0.025865	-0.015015
670	3.366423	0.005000	-0.973022	-1.091067	-9.810000	-0.336406	0.028943	-0.254707	0.001852	0.020845	-0.013339
671	3.371423	0.005000	-1.020240	-1.121307	-9.832587	-0.336293	0.028830	-0.255085	0.000319	0.019749	-0.012564
672	3.376423	0.005000	-0.937337	-1.107565	-9.910311	-0.336180	0.028717	-0.255463	0.008009	0.020284	-0.013807
673	3.381423	0.005000	-0.959978	-1.198222	-9.915110	-0.336067	0.028604	-0.255842	0.008759	0.023288	-0.014336
674	3.386423	0.005000	-0.941760	-1.100238	-9.927720	-0.335954	0.028492	-0.256220	0.017587	0.030727	-0.021673
675	3.391423	0.005000	-0.882492	-1.157988	-9.909323	-0.335842	0.028379	-0.256598	0.019803	0.018311	-0.013727
676	3.396423	0.005000	-0.884085	-1.101090	-9.927720	-0.335821	0.028543	-0.256667	0.015664	0.018143	-0.023188
677	3.401423	0.005000	-0.959172	-1.116132	-9.849240	-0.335821	0.028769	-0.256667	0.011605	0.016500	-0.029011
678	3.406423	0.005000	-1.014186	-1.193793	-9.944313	-0.335821	0.028995	-0.256667	0.019371	0.011063	-0.018174
679	3.411423	0.005000	-0.988544	-1.310768	-9.865088	-0.335821	0.029220	-0.256667	0.018695	0.016170	-0.027199
680	3.416423	0.005000	-1.049891	-1.294920	-9.888480	-0.335821	0.029446	-0.256667	0.021180	-0.001833	-0.020045
681	3.421423	0.005000	-1.030945	-1.202172	-9.899185	-0.335821	0.029672	-0.256667	0.022016	0.011737	-0.022185
682	3.426423	0.005000	-0.955005	-1.151205	-9.770760	-0.335821	0.029898	-0.256667	0.028590	0.012927	-0.018708
683	3.431423	0.005000	-0.968777	-1.204217	-9.785554	-0.335821	0.030124	-0.256667	0.037630	-0.000631	-0.012074
684	3.436423	0.005000	-0.964461	-1.272219	-9.961771	-0.335821	0.030350	-0.256667	0.032427	0.000974	-0.019097
685	3.441423	0.005000	-0.963076	-1.227098	-9.966960	-0.335821	0.030576	-0.256667	0.035202	0.002335	-0.012988
686	3.446423	0.005000	-0.961729	-1.294223	-9.947689	-0.335821	0.030802	-0.256667	0.024731	0.006720	-0.007268
687	3.451423	0.005000	-0.920707	-1.355213	-9.985147	-0.335821	0.031028	-0.256667	0.022893	0.001970	-0.012866
688	3.456423	0.005000	-0.871351	-1.302991	-9.896551	-0.335821	0.031253	-0.256667	0.012786	0.009896	-0.016268
689	3.461423	0.005000	-0.916617	-1.366351	-9.874383	-0.336094	0.031411	-0.256515	0.012759	0.012512	-0.014700
690	3.466423	0.005000	-0.941760	-1.379906	-9.855746	-0.336545	0.031524	-0.256262	0.000600	0.013717	-0.003833
691	3.471423	0.005000	-0.936276	-1.362432	-9.759792	-0.336997	0.031637	-0.256010	-0.011677	0.009369	-0.016222
692	3.476423	0.005000	-0.906982	-1.334160	-9.727058	-0.337449	0.031750	-0.255758	-0.010965	0.005320	-0.008572
693	3.481423	0.005000	-0.945199	-1.416079	-9.774199	-0.337901	0.031863	-0.255505	-0.002811	0.017311	-0.012461
694	3.486423	0.005000	-0.981000	-1.367637	-9.807119	-0.338353	0.031976	-0.255253	0.001926	0.017511	-0.006021
695	3.491423	0.005000	-0.943634	-1.257554	-9.929594	-0.338804	0.032089	-0.255001	0.008451	0.017695	-0.004509
696	3.496423	0.005000	-1.059480	-1.372548	-10.043736	-0.339256	0.032202	-0.254749	0.000627	0.029504	-0.014361
697	3.501423	0.005000	-0.941760	-1.373106	-9.889069	-0.339708	0.032315	-0.254496	0.007011	0.016269	0.004577
698	3.506423	0.005000	-0.903248	-1.295648	-9.889936	-0.340160	0.032428	-0.254244	-0.003088	0.022042	-0.002546
699	3.511423	0.005000	-0.977499	-1.257431	-9.776012	-0.340612	0.032541	-0.253992	-0.009709	0.010313	-0.016302
700	3.516423	0.005000	-0.947306	-1.449107	-9.737066	-0.341063	0.032654	-0.253739	-0.013513	0.005963	0.002457
701	3.521423	0.005000	-1.010294	-1.308181	-9.842610	-0.341515	0.032767	-0.253487	-0.029533	0.013012	-0.004520
702	3.526423	0.005000	-1.020240	-1.286245	-9.810000	-0.341527	0.032572	-0.253431	-0.036334	0.012535	-0.006880
703	3.531423	0.005000	-1.093360	-1.373400	-9.747600	-0.340850	0.031895	-0.253683	-0.053692	0.021238	-0.012715
704	3.536423	0.005000	-1.059480	-1.479169	-9.731520	-0.340172	0.031217	-0.253936	-0.060795	0.012474	-0.006547
705	3.541423	0.005000	-1.084871	-1.341085	-9.867706	-0.339495	0.030540	-0.254188	-0.061392	0.024304	-0.009609
706	3.546423	0.005000	-0.996894	-1.271574	-9.778707	-0.338818	0.029863	-0.254440	-0.064000	0.019140	-0.004737
707	3.551423	0.005000	-1.020240	-1.325671	-9.810000	-0.338140	0.029185	-0.254692	-0.060545	0.022708	-0.002432
708	3.556423	0.005000	-1.049968	-1.196224	-9.878968	-0.337463	0.028508	-0.254944	-0.048965	0.020652	-0.009287
709	3.561423	0.005000	-1.002068	-1.187734	-9.909548	-0.336785	0.027830	-0.255197	-0.040586	0.011449	0.000028
710	3.566423	0.005000	-0.998056	-1.188292	-9.949904	-0.336108	0.027153	-0.255449	-0.033330	0.020049	-0.016544
711	3.571423	0.005000	-0.993114	-1.216440	-9.876366	-0.335431	0.026476	-0.255701	-0.021208	0.018208	-0.020405
712	3.576423	0.005000	-1.033206	-1.203474	-9.914754	-0.334753	0.025798	-0.255953	-0.020234	0.015501	-0.012751
713	3.581423	0.005000	-1.047926	-1.202597	-9.876926	-0.334076	0.025121	-0.256205	-0.027471	0.016493	-0.018380
714	3.586423	0.005000	-0.971163	-1.191901	-9.873779	-0.333399	0.024444	-0.256458	-0.017624	0.008794	-0.013007
715	3.591423	0.005000	-0.941760	-1.224232	-9.825724	-0.333219	0.023804	-0.256261	-0.015277	0.010031	-0.022186
716	3.596423	0.005000	-0.958228	-1.245517	-9.872012	-0.335478	0.023353	-0.253865	-0.008390	0.008696	-0.011858
717	3.601423	0.005000	-1.029566	-1.255680	-9.940346	-0.337737	0.022901	-0.251468	-0.009923	0.014713	-0.014886
718	3.606423	0.005000	-1.056862	-1.195511	-9.849240	-0.339996	0.022449	-0.249072	-0.018030	0.018898	-0.022422
719	3.611423	0.005000	-1.040627	-1.137960	-9.871160	-0.342255	0.021997	-0.246675	-0.029074	0.016824	-0.010147
720	3.616423	0.005000	-0.981000	-1.118596	-9.869116	-0.344514	0.021545	-0.244279	-0.020390	0.010269	-0.018757
721	3.621423	0.005000	-0.921082	-1.195762	-9.754315	-0.346773	0.021093	-0.241882	-0.023743	0.019704	-0.024700
722	3.626423	0.005000	-1.038024	-1.255680	-9.827784	-0.349032	0.020641	-0.239486	-0.024982	0.028614	-0.031135
723	3.631423	0.005000	-1.031285	-1.104436	-9.866002	-0.351291	0.020190	-0.237090	-0.026657	0.014579	-0.027684
724	3.636423	0.005000	-1.043725	-1.004485	-9.864995	-0.353550	0.019738	-0.234693	-0.022246	0.015782	-0.028548
725	3.641423	0.005000	-1.020240	-1.050634	-9.897326	-0.355809	0.019286	-0.232297	-0.028445	0.007343	-0.024719
726	3.646423	0.005000	-1.048589	-1.134676	-9.820891	-0.358068	0.018834	-0.229900	-0.013273	0.005405	-0.014263
727	3.651423	0.005000	-1.020240	-1.059480	-9.849457	-0.360327	0.018382	-0.227504	-0.021117	0.016007	-0.031343
728	3.656423	0.005000	-1.125350	-1.111330	-9.927720	-0.362586	0.017930	-0.225107	-0.007570	0.001555	-0.017117
729	3.661423	0.005000	-1.121895	-1.059480	-9.888480	-0.362256	0.018126	-0.226084	-0.001224	0.012908	-0.026242
730	3.666423	0.005000	-1.095176	-1.116568	-9.877784	-0.361804	0.018352	-0.227218	-0.007002	0.012416	-0.031234
731	3.671423	0.005000	-0.981000	-1.059480	-9.888480	-0.361352	0.018577	-0.228353	0.007445	0.015446	-0.017236
732	3.676423	0.005000	-0.981000	-1.098720	-9.909719	-0.360901	0.018803	-0.229488	0.007041	0.016056	-0.023812
733	3.681423	0.005000	-1.020240	-1.051406	-9.818074	-0.360449	0.019029	-0.230622	0.004914	0.006414	-0.019617
734	3.686423	0.005000	-1.012820	-1.240839	-9.856660	-0.359997	0.019255	-0.231757	0.019305	0.010475	-0.024303
735	3.691423	0.005000	-1.026641	-1.065881	-9.888480	-0.359546	0.019481	-0.232892	0.010549	0.009727	-0.023957
736	3.696423	0.005000	-1.116137	-1.104176	-9.832873	-0.359094	0.019707	-0.234026	-0.000179	0.017004	-0.011780
737	3.701423	0.005000	-1.025073	-1.108387	-9.741187	-0.358642	0.019933	-0.235161	0.003871	0.014848	-0.009408
738	3.706423	0.005000	-1.024051	-1.173389	-9.806189	-0.358191	0.020159	-0.236295	-0.009151	0.018134	-0.012523
739	3.711423	0.005000	-0.945029	-1.144497	-9.836165	-0.357739	0.020384	-0.237430	-0.018631	0.027567	-0.021406
740	3.716423	0.005000	-0.978754	-1.059480	-9.694526	-0.357287	0.020610	-0.238565	-0.004721	0.021291	-0.007343
741	3.721423	0.005000	-0.940521	-1.026435	-9.810000	-0.356836	0.020836	-0.239699	-0.027264	0.024409	-0.002829
742	3.726423	0.005000	-0.980318	-1.098038	-9.847195	-0.355969	0.021145	-0.240185	-0.028666	0.025030	-0.002048
743	3.731423	0.005000	-1.019558	-1.137278	-9.770419	-0.354953	0.021484	-0.240437	-0.026216	0.010905	-0.006227
744	3.736423	0.005000	-0.905247	-1.175837	-9.849240	-0.353937	0.021822	-0.240690	-0.028951	0.025453	-0.016450
745	3.741423	0.005000	-0.979079	-1.022161	-9.849240	-0.352921	0.022161	-0.240942	-0.012573	0.019031	-0.005309
746	3.746423	0.005000	-0.981000	-1.207610	-9.773703	-0.351905	0.022500	-0.241194	-0.006722	0.022727	-0.008860
747	3.751423	0.005000	-1.016711	-1.137960	-9.849240	-0.350889	0.022838	-0.241446	-0.003202	0.023671	-0.001069
748	3.756423	0.005000	-0.985508	-1.168184	-9.927720	-0.349873	0.023177	-0.241698	0.008606	0.018658	-0.006415
749	3.761423	0.005000	-0.947290	-1.171670	-9.865831	-0.348857	0.023515	-0.241950	0.004745	0.009696	-0.003059
750	3.766423	0.005000	-0.974927	-1.150105	-9.909502	-0.347841	0.023854	-0.242202	0.012603	0.013194	0.000446
751	3.771423	0.005000	-0.941760	-1.155915	-9.906435	-0.346825	0.024193	-0.242454	0.017492	0.014124	-0.004867
752	3.776423	0.005000	-1.004005	-1.106838	-9.943955	-0.345809	0.024531	-0.242706	0.014513	0.004413	-0.007940
753	3.781423	0.005000	-0.998320	-1.168540	-9.953699	-0.344793	0.024870	-0.242959	0.011633	0.014166	-0.005767
754	3.786423	0.005000	-0.872962	-1.275556	-9.957278	-0.343777	0.025209	-0.243211	0.006528	0.012007	-0.012757
755	3.791423	0.005000	-0.931055	-1.227145	-9.899185	-0.343109	0.025606	-0.243723	-0.011797	0.001191	0.002384
756	3.796423	0.005000	-1.048218	-1.300373	-9.871765	-0.342770	0.026058	-0.244480	-0.020787	0.023068	-0.004869
757	3.801423	0.005000	-1.044810	-1.319490	-9.795330	-0.342431	0.026510	-0.245237	-0.028023	0.011518	0.003640
758	3.806423	0.005000	-0.915788	-1.281652	-9.914734	-0.342092	0.026962	-0.245994	-0.048857	0.019166	-0.004588
759	3.811423	0.005000	-1.121802	-1.281071	-9.911562	-0.341753	0.027414	-0.246751	-0.053049	0.016953	-0.010882
760	3.816423	0.005000	-1.074352	-1.280048	-9.942592	-0.341414	0.027866	-0.247508	-0.061713	0.018611	0.002204
761	3.821423	0.005000	-0.988575	-1.216440	-9.841210	-0.341075	0.028318	-0.248265	-0.067110	0.018523	-0.000336
762	3.826423	0.005000	-0.902520	-1.170833	-9.888480	-0.340736	0.028770	-0.249023	-0.060162	0.021225	0.009236
763	3.831423	0.005000	-0.981000	-1.081261	-9.849240	-0.340397	0.029222	-0.249780	-0.045227	0.026962	-0.004377
764	3.836423	0.005000	-0.965567	-1.195424	-9.909496	-0.340058	0.029674	-0.250537	-0.034545	0.018894	0.004461
765	3.841423	0.005000	-1.020240	-1.197416	-9.927720	-0.339719	0.030126	-0.251294	-0.027144	0.030099	-0.007418
766	3.846423	0.005000	-0.981852	-1.215588	-9.829194	-0.339380	0.030578	-0.252051	-0.008018	0.013510	-0.018009
767	3.851423	0.005000	-0.964331	-1.218407	-9.851207	-0.339041	0.031030	-0.252808	0.003715	0.014745	-0.003298
768	3.856423	0.005000	-0.976988	-1.277306	-9.888480	-0.338633	0.031378	-0.253488	0.008674	0.026030	-0.028758
769	3.861423	0.005000	-0.964409	-1.350751	-9.905071	-0.338068	0.031491	-0.253992	0.017765	0.009441	-0.011453
770	3.866423	0.005000	-0.932852	-1.207532	-9.865289	-0.337504	0.031604	-0.254496	0.003490	0.017956	-0.014081
771	3.871423	0.005000	-0.956787	-1.113747	-9.873453	-0.336939	0.031716	-0.255001	-0.011933	0.010089	-0.016411
772	3.876423	0.005000	-0.941760	-1.202436	-9.877249	-0.336375	0.031829	-0.255505	-0.018965	0.011984	-0.021598
773	3.881423	0.005000	-1.020240	-1.229902	-9.914258	-0.335810	0.031942	-0.256009	-0.043068	0.014370	-0.028237
774	3.886423	0.005000	-1.034601	-1.177200	-9.851161	-0.335246	0.032055	-0.256514	-0.046079	0.012171	-0.010132
775	3.891423	0.005000	-1.031657	-1.205023	-9.899897	-0.334681	0.032168	-0.257018	-0.061072	0.017369	-0.019843
776	3.896423	0.005000	-1.009365	-1.198950	-9.916845	-0.334117	0.032281	-0.257522	-0.062726	0.018678	-0.012319
777	3.901423	0.005000	-0.990853	-1.353695	-9.800147	-0.333552	0.032394	-0.258026	-0.054313	0.017225	-0.019508
778	3.906423	0.005000	-1.011410	-1.168370	-9.927720	-0.332988	0.032507	-0.258531	-0.041873	0.016200	-0.012611
779	3.911423	0.005000	-0.997545	-1.177200	-9.818272	-0.332423	0.032620	-0.259035	-0.032900	0.018367	-0.014137
780	3.916423	0.005000	-0.949010	-1.152460	-9.778010	-0.331859	0.032733	-0.259539	-0.022390	0.018176	-0.025494
781	3.921423	0.005000	-0.875740	-1.183430	-9.909030	-0.331363	0.032856	-0.259924	-0.004463	0.014026	-0.025570
782	3.926423	0.005000	-0.975717	-1.137960	-9.927720	-0.331588	0.033081	-0.259041	0.008061	0.013550	-0.023559
783	3.931423	0.005000	-0.911846	-1.181863	-10.040777	-0.331814	0.033307	-0.258158	0.027612	0.017281	-0.027097
784	3.936423	0.005000	-1.095079	-1.220081	-9.966960	-0.332040	0.033533	-0.257275	0.028394	0.016569	-0.018316
785	3.941423	0.005000	-1.095622	-1.291822	-9.891578	-0.332266	0.033759	-0.256392	0.024086	0.022969	-0.021830
786	3.946423	0.005000	-1.053252	-1.214364	-9.960732	-0.332492	0.033985	-0.255509	0.033812	0.017299	-0.022342
787	3.951423	0.005000	-0.938561	-1.256746	-9.770760	-0.332718	0.034211	-0.254626	0.022210	0.014644	-0.020702
788	3.956423	0.005000	-0.942782	-1.176689	-9.771782	-0.332944	0.034437	-0.253743	0.016342	0.017509	-0.017034
789	3.961423	0.005000	-1.097698	-1.176689	-9.733054	-0.333170	0.034663	-0.252860	0.010340	0.014953	-0.020239
790	3.966423	0.005000	-1.098720	-1.214906	-9.846173	-0.333396	0.034889	-0.251977	-0.010051	0.011480	-0.022443
791	3.971423	0.005000	-0.985183	-1.177200	-9.772851	-0.333621	0.035114	-0.251094	-0.019962	0.032409	-0.027498
792	3.976423	0.005000	-1.017126	-1.177200	-9.879139	-0.333847	0.035340	-0.250211	-0.033876	0.029334	-0.032349
793	3.981423	0.005000	-0.945881	-1.212319	-9.958719	-0.334073	0.035566	-0.249329	-0.035058	0.018885	-0.015840
794	3.986423	0.005000	-1.020240	-1.181878	-9.897837	-0.334299	0.035792	-0.248446	-0.041776	0.030974	-0.009269
795	3.991423	0.005000	-0.992402	-1.093019	-9.894181	-0.335116	0.035722	-0.248993	-0.034649	0.019938	-0.009961
796	3.996423	0.005000	-0.981000	-1.144280	-9.915079	-0.336019	0.035610	-0.249749	-0.034787	0.019551	-0.009561
797	4.001423	0.005000	-1.052214	-1.044949	-9.849240	-0.336922	0.035497	-0.250506	-0.014694	0.018075	-0.021162
798	4.006423	0.005000	-0.997576	-1.059480	-9.840952	-0.337826	0.035384	-0.251262	-0.017640	0.006131	-0.001974
799	4.011423	0.005000	-1.059480	-1.111470	-9.910060	-0.338729	0.035271	-0.252019	-0.005740	0.020763	-0.010870
800	4.016423	0.005000	-0.990853	-1.108402	-9.888480	-0.339632	0.035158	-0.252775	0.012240	0.012173	-0.008330
801	4.021423	0.005000	-1.037730	-1.194690	-9.995325	-0.340535	0.035045	-0.253531	0.019617	0.010531	-0.004284
802	4.026423	0.005000	-0.925660	-1.126390	-9.817039	-0.341439	0.034932	-0.254288	0.024027	0.016697	-0.008094
803	4.031423	0.005000	-0.916850	-1.071935	-9.888480	-0.342342	0.034819	-0.255044	0.027737	0.011997	-0.001228
804	4.036423	0.005000	-0.955227	-1.124493	-9.901947	-0.343245	0.034706	-0.255801	0.029326	0.014634	-0.012778
805	4.041423	0.005000	-0.995020	-1.149160	-9.938920	-0.344148	0.034593	-0.256557	0.021785	0.006269	-0.004214
806	4.046423	0.005000	-1.044438	-1.246525	-9.997045	-0.345052	0.034480	-0.257313	0.017759	0.014705	-0.004104
807	4.051423	0.005000	-0.996778	-1.200662	-9.857333	-0.345955	0.034367	-0.258070	0.006472	0.010026	-0.014398
808	4.056423	0.005000	-1.026266	-1.278313	-9.803974	-0.345680	0.034328	-0.257757	-0.004174	0.021087	-0.011785
809	4.061423	0.005000	-0.981000	-1.173219	-9.784408	-0.344776	0.034328	-0.256874	-0.023242	0.026122	-0.020595
810	4.066423	0.005000	-0.944657	-1.198268	-9.812897	-0.343872	0.034328	-0.255992	-0.025167	0.020353	-0.009770
811	4.071423	0.005000	-0.942612	-1.176348	-9.828342	-0.342969	0.034328	-0.255109	-0.044795	0.019294	-0.018438
812	4.076423	0.005000	-0.922736	-1.214054	-9.829024	-0.342065	0.034328	-0.254226	-0.044518	0.007120	-0.006243
813	4.081423	0.005000	-0.902520	-1.161042	-9.946186	-0.341161	0.034328	-0.253343	-0.034523	0.015005	-0.002631
814	4.086423	0.005000	-0.863280	-1.142313	-10.006200	-0.340258	0.034328	-0.252460	-0.033878	0.016939	-0.014304
815	4.091423	0.005000	-0.902520	-1.227073	-9.917087	-0.339354	0.034328	-0.251577	-0.017362	0.006455	-0.006110
816	4.096423	0.005000	-0.941760	-1.161321	-9.810000	-0.338450	0.034328	-0.250694	-0.008477	0.025356	-0.021795
817	4.101423	0.005000	-0.941760	-1.177200	-9.873624	-0.337547	0.034328	-0.249812	0.010924	0.012873	-0.014210
818	4.106423	0.005000	-0.848966	-1.280606	-9.810000	-0.336643	0.034328	-0.248929	0.018764	0.016518	-0.006607
819	4.111423	0.005000	-0.994927	-1.255680	-9.810635	-0.335739	0.034328	-0.248046	0.020357	0.010284	-0.010791
820	4.116423	0.005000	-1.034941	-1.324323	-9.876211	-0.334836	0.034328	-0.247163	0.017333	0.009928	-0.010162
821	4.121423	0.005000	-1.025321	-1.334160	-9.837854	-0.334575	0.034279	-0.246833	0.026280	0.009861	-0.015906
822	4.126423	0.005000	-0.931055	-1.255680	-9.763634	-0.335140	0.034166	-0.247211	0.010887	0.006166	-0.009691
823	4.131423	0.005000	-0.941760	-1.226238	-9.849240	-0.335704	0.034053	-0.247589	-0.004831	0.017253	-0.021566
824	4.136423	0.005000	-0.929894	-1.273929	-9.830991	-0.336269	0.033940	-0.247967	-0.010407	0.014951	-0.014798
825	4.141423	0.005000	-1.020240	-1.239476	-9.857342	-0.336833	0.033827	-0.248346	-0.024675	0.015773	-0.009381
826	4.146423	0.005000	-1.037978	-1.216440	-9.913385	-0.337398	0.033714	-0.248724	-0.034479	0.017855	-0.030032
827	4.151423	0.005000	-0.981000	-1.144497	-9.875405	-0.337962	0.033601	-0.249102	-0.035069	0.013222	-0.006952
828	4.156423	0.005000	-1.020240	-1.154505	-9.697795	-0.338527	0.033489	-0.249480	-0.056574	0.013944	-0.024373
829	4.161423	0.005000	-0.981000	-1.246584	-9.853788	-0.339091	0.033376	-0.249858	-0.042408	0.020464	-0.014321
830	4.166423	0.005000	-0.973099	-1.130059	-9.880579	-0.339656	0.033263	-0.250237	-0.038449	0.017761	-0.016466
831	4.171423	0.005000	-0.902520	-1.135032	-9.858024	-0.340221	0.033150	-0.250615	-0.035558	0.021039	-0.024890
832	4.176423	0.005000	-0.979071	-1.218369	-10.082751	-0.340785	0.033037	-0.250993	-0.020930	0.016595	-0.012872
833	4.181423	0.005000	-0.976910	-1.178563	-9.926357	-0.341350	0.032924	-0.251371	-0.013140	0.021828	-0.017000
834	4.186423	0.005000	-0.941760	-1.215758	-9.848558	-0.341766	0.032811	-0.251749	-0.000220	0.013407	-0.010063
835	4.191423	0.005000	-0.941760	-1.215077	-9.886435	-0.341653	0.032698	-0.252128	0.007574	0.016510	-0.014652
836	4.196423	0.005000	-1.134242	-1.177200	-9.887241	-0.341541	0.032585	-0.252506	0.011672	0.012224	-0.016535
837	4.201423	0.005000	-1.020240	-1.107767	-9.999415	-0.341428	0.032472	-0.252885	0.001595	0.018736	-0.015011
838	4.206423	0.005000	-1.020240	-1.173916	-9.783897	-0.341315	0.032359	-0.253263	0.007438	0.013634	-0.016391
839	4.211423	0.005000	-0.953239	-1.291094	-9.813826	-0.341202	0.032246	-0.253641	0.010115	0.014096	-0.004007
840	4.216423	0.005000	-1.020240	-1.290071	-9.888480	-0.341089	0.032133	-0.254020	-0.011941	0.025236	-0.016242
841	4.221423	0.005000	-1.054022	-1.205524	-9.893938	-0.340976	0.032020	-0.254398	-0.008334	0.003284	-0.018193
842	4.226423	0.005000	-1.065893	-1.216440	-9.849240	-0.340863	0.031907	-0.254777	-0.014863	0.015902	-0.012517
843	4.231423	0.005000	-1.012804	-1.098720	-9.817436	-0.340750	0.031795	-0.255155	-0.026590	0.013205	-0.019818
844	4.236423	0.005000	-0.918674	-1.146037	-9.794991	-0.340637	0.031682	-0.255533	-0.026477	0.014947	-0.007784
845	4.241423	0.005000	-0.932759	-1.086482	-9.701281	-0.340524	0.031569	-0.255912	-0.034230	0.022230	-0.020486
846	4.246423	0.005000	-1.049457	-1.050309	-9.750714	-0.340411	0.031456	-0.256290	-0.034755	0.010793	-0.010255
847	4.251423	0.005000	-0.952341	-1.059480	-9.810000	-0.340298	0.031343	-0.256668	-0.024587	0.020502	-0.013363
848	4.256423	0.005000	-0.981000	-1.087117	-9.810000	-0.340072	0.031456	-0.256920	-0.023138	0.025619	-0.014144
849	4.261423	0.005000	-1.007614	-1.164574	-9.810000	-0.339846	0.031569	-0.257172	-0.019526	0.019656	-0.005813
850	4.266423	0.005000	-0.994168	-1.046576	-9.849240	-0.339620	0.031682	-0.257425	-0.012227	0.014050	-0.009169
851	4.271423	0.005000	-1.006050	-1.073670	-9.784950	-0.339394	0.031795	-0.257677	-0.005293	0.015272	-0.005900
852	4.276423	0.005000	-0.956675	-1.137960	-9.897890	-0.339168	0.031908	-0.257929	-0.011800	0.015742	-0.013989
853	4.281423	0.005000	-0.988730	-1.114475	-9.825755	-0.338942	0.032021	-0.258181	-0.009179	0.008589	-0.008339
854	4.286423	0.005000	-0.958537	-1.199663	-9.882795	-0.338716	0.032134	-0.258434	-0.010191	0.029638	-0.008384
855	4.291423	0.005000	-0.963665	-1.133390	-9.875715	-0.338490	0.032247	-0.258686	-0.020165	0.024093	-0.009754
856	4.296423	0.005000	-0.941760	-1.276578	-9.870138	-0.338264	0.032360	-0.258938	-0.011840	0.019583	-0.004354
857	4.301423	0.005000	-0.981000	-1.235804	-9.907844	-0.338038	0.032473	-0.259190	-0.017255	0.032079	-0.018596
858	4.306423	0.005000	-0.941760	-1.255076	-9.907798	-0.337812	0.032586	-0.259443	-0.009090	0.022921	0.000252
859	4.311423	0.005000	-0.962705	-1.198145	-9.883182	-0.337586	0.032699	-0.259695	-0.017945	0.027504	-0.006813
860	4.316423	0.005000	-1.037727	-1.041993	-9.949473	-0.337360	0.032812	-0.259947	-0.027056	0.025718	-0.020339
861	4.321423	0.005000	-1.020240	-1.076211	-9.855018	-0.337402	0.032747	-0.259801	-0.031737	0.015948	-0.011159
862	4.326423	0.005000	-1.004532	-1.137960	-9.857125	-0.337515	0.032634	-0.259549	-0.028468	0.014904	-0.016530
863	4.331423	0.005000	-1.011332	-1.170941	-9.936628	-0.337628	0.032521	-0.259296	-0.017385	0.011842	-0.004203
864	4.336423	0.005000	-1.034384	-1.177200	-9.899432	-0.337741	0.032408	-0.259044	-0.010436	0.018871	-0.013523
865	4.341423	0.005000	-0.981000	-1.294796	-9.796879	-0.337854	0.032295	-0.258792	-0.009882	0.013456	-0.003475
866	4.346423	0.005000	-0.852266	-1.202327	-9.875916	-0.337967	0.032182	-0.258540	-0.012677	0.026834	-0.011845
867	4.351423	0.005000	-0.768673	-1.248693	-9.934707	-0.338080	0.032069	-0.258287	0.002249	0.018050	-0.014908
868	4.356423	0.005000	-0.891986	-1.059480	-10.013837	-0.338193	0.031956	-0.258035	0.001510	0.020516	-0.010812
869	4.361423	0.005000	-0.981000	-1.059480	-9.879170	-0.338306	0.031843	-0.257783	-0.001543	0.019352	-0.018467
870	4.366423	0.005000	-0.989954	-1.207486	-9.879526	-0.338419	0.031730	-0.257531	0.001387	0.006587	-0.010517
871	4.371423	0.005000	-1.051548	-1.184713	-9.786623	-0.338532	0.031617	-0.257279	-0.000852	0.007892	-0.010834
872	4.376423	0.005000	-0.981000	-1.113499	-9.824779	-0.338645	0.031504	-0.257026	-0.001516	0.003924	-0.019697
873	4.381423	0.005000	-1.040379	-1.249313	-9.973327	-0.338758	0.031391	-0.256774	0.005178	0.000113	-0.005269
874	4.386423	0.005000	-0.957794	-1.216440	-9.933065	-0.338806	0.031278	-0.256449	-0.006869	0.009923	-0.014804
875	4.391423	0.005000	-0.951365	-1.182002	-9.918115	-0.338806	0.031165	-0.256071	-0.006670	0.015126	-0.006060
876	4.396423	0.005000	-0.988560	-1.255680	-9.935280	-0.338806	0.031052	-0.255693	-0.003271	0.019950	-0.013153
877	4.401423	0.005000	-1.132379	-1.143541	-9.913767	-0.338806	0.030939	-0.255315	-0.009229	0.022275	-0.006290
878	4.406423	0.005000	-1.059480	-1.218641	-9.851441	-0.338806	0.030827	-0.254936	-0.002344	0.020253	-0.012760
879	4.411423	0.005000	-0.981000	-1.179586	-9.887287	-0.338806	0.030714	-0.254558	-0.003077	0.014085	-0.005651
880	4.416423	0.005000	-1.059480	-1.216440	-9.888825	-0.338806	0.030601	-0.254180	-0.012387	0.012970	-0.011830
881	4.421423	0.005000	-1.059480	-1.294145	-9.928107	-0.338806	0.030488	-0.253802	-0.011958	0.013261	-0.020850
882	4.426423	0.005000	-0.982410	-1.331341	-9.850650	-0.338806	0.030375	-0.253424	-0.007069	0.005313	-0.012736
883	4.431423	0.005000	-0.941760	-1.184497	-9.849240	-0.338806	0.030262	-0.253045	-0.014717	0.016094	-0.006134
884	4.436423	0.005000	-1.016785	-1.291465	-9.777669	-0.338806	0.030149	-0.252667	-0.015420	0.018486	-0.013818
885	4.441423	0.005000	-1.059480	-1.282786	-9.880391	-0.338806	0.030037	-0.252289	-0.020574	0.018539	-0.008859
886	4.446423	0.005000	-1.015221	-1.108758	-9.820038	-0.338806	0.029924	-0.251911	-0.031289	0.018362	-0.026655
887	4.451423	0.005000	-1.020240	-1.137960	-9.882438	-0.338686	0.029731	-0.251846	-0.029786	0.013957	-0.010677
888	4.456423	0.005000	-0.987584	-1.098720	-9.966960	-0.338347	0.029392	-0.252351	-0.036146	0.029342	-0.018840
889	4.461423	0.005000	-0.981000	-1.232861	-9.888480	-0.338008	0.029053	-0.252855	-0.031374	0.017015	-0.015843
890	4.466423	0.005000	-1.020240	-1.177200	-9.879851	-0.337669	0.028714	-0.253360	-0.023138	0.021479	-0.010624
891	4.471423	0.005000	-1.020240	-1.107891	-9.867582	-0.337330	0.028375	-0.253864	-0.024890	0.023524	-0.009722
892	4.476423	0.005000	-0.941760	-1.137960	-9.820193	-0.336991	0.028036	-0.254369	-0.022526	0.016875	-0.002545
893	4.481423	0.005000	-1.109936	-1.222032	-9.793192	-0.336652	0.027697	-0.254873	-0.014039	0.034749	-0.022252
894	4.486423	0.005000	-1.004547	-1.204666	-9.821774	-0.336313	0.027358	-0.255377	-0.013697	0.016917	-0.010173
895	4.491423	0.005000	-0.928112	-1.098720	-9.967812	-0.335975	0.027020	-0.255882	-0.008146	0.021945	-0.019084
896	4.496423	0.005000	-0.890886	-1.124157	-9.888480	-0.335636	0.026681	-0.256386	-0.003145	0.014050	-0.015836
897	4.501423	0.005000	-1.109239	-1.137960	-9.838721	-0.335297	0.026342	-0.256891	-0.002786	0.021456	-0.012677
898	4.506423	0.005000	-1.035623	-1.114103	-9.857714	-0.334958	0.026003	-0.257395	-0.007413	0.022318	-0.014962
899	4.511423	0.005000	-0.981000	-1.147937	-9.960531	-0.334619	0.025664	-0.257900	-0.005440	0.013241	-0.005879
900	4.516423	0.005000	-0.958977	-1.098720	-9.849240	-0.334360	0.025437	-0.258262	-0.005636	0.027712	-0.016960
901	4.521423	0.005000	-0.920490	-1.134660	-9.849240	-0.334586	0.025888	-0.257758	-0.003152	0.029639	-0.006878
902	4.526423	0.005000	-0.883527	-1.215185	-9.847985	-0.334811	0.026340	-0.257253	-0.003865	0.023113	-0.010741
903	4.531423	0.005000	-0.960985	-1.117945	-9.830015	-0.335037	0.026792	-0.256749	-0.006779	0.014369	-0.022066
904	4.536423	0.005000	-0.941760	-1.177200	-9.787568	-0.335263	0.027243	-0.256245	-0.004143	0.007980	-0.006965
905	4.541423	0.005000	-1.059480	-1.155620	-9.892399	-0.335489	0.027695	-0.255741	-0.006055	0.025206	-0.019278
906	4.546423	0.005000	-0.986964	-1.143924	-9.899154	-0.335715	0.028146	-0.255236	-0.007161	0.013389	-0.013959
907	4.551423	0.005000	-0.964913	-1.011220	-9.865327	-0.335940	0.028598	-0.254732	0.002938	0.011797	-0.004575
908	4.556423	0.005000	-0.981000	-1.035313	-9.855220	-0.336166	0.029049	-0.254228	0.003692	0.018545	-0.016343
909	4.561423	0.005000	-0.888301	-1.191419	-9.888480	-0.336392	0.029501	-0.253724	0.015575	0.015733	-0.003890
910	4.566423	0.005000	-0.941760	-1.163707	-9.979214	-0.336618	0.029953	-0.253220	0.022896	0.008557	-0.009172
911	4.571423	0.005000	-0.991643	-1.162901	-9.888480	-0.336844	0.030404	-0.252715	0.022062	0.008668	-0.014880
912	4.576423	0.005000	-1.025135	-1.227888	-9.865584	-0.337069	0.030856	-0.252211	0.018592	0.025411	-0.013301
913	4.581423	0.005000	-0.834946	-1.262202	-9.927720	-0.337295	0.031307	-0.251707	0.017893	0.016327	-0.011479
914	4.586423	0.005000	-1.040007	-1.187084	-9.770760	-0.338561	0.029783	-0.249808	0.006353	0.018130	-0.006442
915	4.591423	0.005000	-1.041758	-1.207579	-9.849240	-0.339917	0.028088	-0.247790	0.009124	0.023664	-0.015491
916	4.596423	0.005000	-0.910839	-1.160562	-9.843276	-0.341272	0.026394	-0.245772	0.010079	0.020389	-0.003471
917	4.601423	0.005000	-0.902520	-1.113313	-9.913127	-0.342628	0.024700	-0.243754	-0.002546	0.017900	-0.008210
918	4.606423	0.005000	-0.948034	-1.197618	-9.816274	-0.343983	0.023006	-0.241736	-0.000654	0.008460	-0.005814
919	4.611423	0.005000	-0.986732	-1.132228	-9.894212	-0.345339	0.021311	-0.239718	-0.003456	0.021927	-0.008524
920	4.616423	0.005000	-0.981000	-1.181909	-9.858659	-0.346694	0.019617	-0.237700	-0.006024	0.024555	-0.014941
921	4.621423	0.005000	-0.941760	-1.283859	-9.920346	-0.348050	0.017923	-0.235682	0.015821	0.015820	-0.009346
922	4.626423	0.005000	-0.944456	-1.179896	-9.891176	-0.349405	0.016228	-0.233664	0.011603	0.023486	-0.024457
923	4.631423	0.005000	-0.937546	-1.140067	-9.812107	-0.350760	0.014534	-0.231646	0.018662	0.019161	-0.010265
924	4.636423	0.005000	-0.863280	-1.216440	-9.849240	-0.352116	0.012840	-0.229627	0.021223	0.011751	-0.012314
925	4.641423	0.005000	-1.020162	-1.255837	-9.731677	-0.353471	0.011146	-0.227609	0.024033	0.016198	-0.009813
926	4.646423	0.005000	-0.942240	-1.295400	-9.926279	-0.354827	0.009451	-0.225591	0.018629	0.011507	-0.006390
927	4.651423	0.005000	-0.902520	-1.219445	-9.932228	-0.355384	0.009274	-0.225802	0.016278	0.001434	-0.013235
928	4.656423	0.005000	-1.012665	-1.221490	-9.925195	-0.355609	0.009726	-0.226937	-0.004398	0.007199	-0.010733
929	4.661423	0.005000	-1.095653	-1.255680	-9.885413	-0.355835	0.010177	-0.228071	-0.011732	0.011316	-0.003308
930	4.666423	0.005000	-0.989180	-1.259770	-9.892570	-0.356061	0.010629	-0.229206	-0.011085	0.016168	-0.004089
931	4.671423	0.005000	-0.975888	-1.289808	-9.780984	-0.356287	0.011081	-0.230341	-0.022204	0.028968	-0.016693
932	4.676423	0.005000	-0.986724	-1.322711	-9.843516	-0.356513	0.011532	-0.231475	-0.028977	0.024051	-0.008072
933	4.681423	0.005000	-0.994354	-1.255680	-9.992846	-0.356738	0.011984	-0.232610	-0.028467	0.023328	-0.005582
934	4.686423	0.005000	-0.981000	-1.153359	-9.950818	-0.356964	0.012435	-0.233745	-0.036336	0.020974	-0.017178
935	4.691423	0.005000	-0.950017	-1.185457	-9.911206	-0.357190	0.012887	-0.234879	-0.015524	0.013541	-0.002363
936	4.696423	0.005000	-1.010972	-1.207172	-9.761492	-0.357416	0.013339	-0.236014	-0.016197	0.029813	-0.006844
937	4.701423	0.005000	-1.040119	-1.108659	-9.760821	-0.357642	0.013790	-0.237148	-0.011209	0.014389	-0.010601
938	4.706423	0.005000	-0.935052	-1.148804	-9.855948	-0.357867	0.014242	-0.238283	-0.005803	0.019623	-0.003416
939	4.711423	0.005000	-0.981000	-1.137960	-9.872973	-0.358093	0.014693	-0.239418	-0.004328	0.027842	-0.015507
940	4.716423	0.005000	-0.941760	-1.243118	-9.915158	-0.357659	0.015310	-0.240000	-0.012335	0.020485	-0.010194
941	4.721423	0.005000	-0.955191	-1.242249	-9.928773	-0.356530	0.016101	-0.240000	-0.020120	0.020944	-0.024079
942	4.726423	0.005000	-0.902520	-1.201986	-9.874026	-0.355400	0.016891	-0.240000	-0.024427	0.026878	-0.010200
943	4.731423	0.005000	-0.989288	-1.168912	-9.919432	-0.354271	0.017682	-0.240000	-0.016803	0.011966	-0.009619
944	4.736423	0.005000	-0.957778	-1.193218	-9.858055	-0.353141	0.018473	-0.240000	-0.020779	0.007937	-0.012821
945	4.741423	0.005000	-1.003199	-1.189082	-9.753719	-0.352012	0.019263	-0.240000	-0.033679	0.014993	-0.003752
946	4.746423	0.005000	-0.977886	-1.159137	-9.773874	-0.350882	0.020054	-0.240000	-0.025585	0.013596	-0.016529
947	4.751423	0.005000	-0.922916	-1.276076	-9.788052	-0.349753	0.020845	-0.240000	-0.021236	0.011069	-0.000844
948	4.756423	0.005000	-0.941745	-1.216440	-9.829597	-0.348623	0.021635	-0.240000	-0.020749	0.020484	-0.008953
949	4.761423	0.005000	-1.001650	-1.119370	-9.890540	-0.347494	0.022426	-0.240000	-0.011785	0.011733	-0.009007
950	4.766423	0.005000	-1.002462	-1.237902	-9.849240	-0.346365	0.023217	-0.240000	-0.009532	0.012239	-0.008647
951	4.771423	0.005000	-0.963990	-1.154970	-9.832230	-0.345235	0.024007	-0.240000	0.005693	0.020735	-0.019200
952	4.776423	0.005000	-0.973734	-1.255680	-9.825987	-0.344106	0.024798	-0.240000	0.023587	0.019819	0.001560
953	4.781423	0.005000	-1.083275	-1.294920	-9.864685	-0.343099	0.025496	-0.240344	0.008997	0.020298	-0.004629
954	4.786423	0.005000	-0.937732	-1.276470	-9.874057	-0.342422	0.025948	-0.241604	0.026214	0.019295	-0.002511
955	4.791423	0.005000	-0.877641	-1.164760	-9.771720	-0.341744	0.026399	-0.242865	0.018967	0.023029	0.000454
956	4.796423	0.005000	-0.941760	-1.202916	-9.862098	-0.341067	0.026851	-0.244126	0.020651	0.018256	-0.007298
957	4.801423	0.005000	-0.965431	-1.334160	-9.900316	-0.340390	0.027302	-0.245387	0.021117	0.015890	0.001471
958	4.806423	0.005000	-1.009427	-1.223241	-9.906094	-0.339712	0.027754	-0.246647	0.018051	0.026333	-0.010728
959	4.811423	0.005000	-0.881978	-1.216440	-9.898751	-0.339035	0.028206	-0.247908	-0.003865	0.024009	-0.009702
960	4.816423	0.005000	-0.881777	-1.285672	-9.939215	-0.338357	0.028657	-0.249169	-0.015257	0.020883	-0.000726
961	4.821423	0.005000	-0.989226	-1.216440	-9.849240	-0.337680	0.029109	-0.250429	-0.013402	0.016993	-0.006634
962	4.826423	0.005000	-1.012572	-1.224108	-9.912383	-0.337002	0.029560	-0.251690	-0.006979	0.022791	-0.002301
963	4.831423	0.005000	-0.902520	-1.320868	-9.927720	-0.336325	0.030012	-0.252951	-0.015274	0.020155	0.001988
964	4.836423	0.005000	-0.829663	-1.227687	-9.866110	-0.335647	0.030463	-0.254212	-0.013885	0.010645	0.004552
965	4.841423	0.005000	-0.789472	-1.147304	-9.918376	-0.334970	0.030915	-0.255472	-0.014052	0.024297	-0.010717
966	4.846423	0.005000	-0.902520	-1.291283	-9.888480	-0.334346	0.031325	-0.256634	-0.002169	0.009805	0.001682
967	4.851423	0.005000	-0.830113	-1.252644	-9.966960	-0.334685	0.030986	-0.256003	-0.011339	0.023796	0.009181
968	4.856423	0.005000	-0.981000	-1.218454	-9.925706	-0.335024	0.030648	-0.255373	-0.008041	0.014551	-0.013474
969	4.861423	0.005000	-0.938817	-1.294920	-10.043968	-0.335362	0.030309	-0.254742	-0.007113	0.009701	0.000085
970	4.866423	0.005000	-0.942209	-1.294021	-9.965612	-0.335701	0.029970	-0.254111	-0.008429	0.012110	-0.001177
971	4.871423	0.005000	-1.058334	-1.293774	-9.810573	-0.336040	0.029631	-0.253480	-0.001097	0.014327	-0.000097
972	4.876423	0.005000	-0.942889	-1.329643	-9.849240	-0.336379	0.029292	-0.252850	-0.007716	0.015432	-0.003407
973	4.881423	0.005000	-0.902520	-1.336298	-9.849240	-0.336718	0.028954	-0.252219	-0.014264	0.013929	-0.011969
974	4.886423	0.005000	-0.984160	-1.334160	-9.731520	-0.337057	0.028615	-0.251588	-0.015488	0.012469	-0.006207
975	4.891423	0.005000	-0.984763	-1.334160	-9.806237	-0.337396	0.028276	-0.250958	-0.019276	0.017477	-0.017982
976	4.896423	0.005000	-0.981000	-1.329420	-9.814740	-0.337735	0.027937	-0.250327	-0.020288	0.016493	-0.007714
977	4.901423	0.005000	-0.941760	-1.300667	-9.854987	-0.338073	0.027598	-0.249696	-0.031623	0.020598	-0.013336
978	4.906423	0.005000	-0.948065	-1.249375	-9.849240	-0.338412	0.027260	-0.249066	-0.030664	0.007526	-0.013964
979	4.911423	0.005000	-1.020240	-1.309575	-9.849240	-0.338751	0.026921	-0.248435	-0.045010	0.020632	-0.012747
980	4.916423	0.005000	-0.902520	-1.317460	-9.818350	-0.338806	0.027244	-0.248544	-0.030923	0.010984	-0.025961
981	4.921423	0.005000	-1.011238	-1.216440	-9.870475	-0.338806	0.027696	-0.248796	-0.037146	0.009990	-0.012360
982	4.926423	0.005000	-0.922349	-1.187115	-9.897976	-0.338806	0.028147	-0.249048	-0.039092	0.022297	-0.026266
983	4.931423	0.005000	-0.863280	-1.216440	-9.910354	-0.338806	0.028599	-0.249301	-0.025905	0.014174	-0.013687
984	4.936423	0.005000	-1.052803	-1.338962	-9.916241	-0.338806	0.029050	-0.249553	-0.027306	0.025336	-0.017669
985	4.941423	0.005000	-1.071982	-1.268182	-9.954458	-0.338806	0.029501	-0.249805	-0.030496	0.013405	-0.025306
986	4.946423	0.005000	-0.954976	-1.190416	-9.888480	-0.338806	0.029953	-0.250057	-0.016127	0.015019	-0.010924
987	4.951423	0.005000	-1.006158	-1.255680	-9.784842	-0.338806	0.030404	-0.250309	-0.028611	0.017722	-0.027147
988	4.956423	0.005000	-1.011189	-1.246629	-9.770760	-0.338806	0.030855	-0.250561	-0.033522	0.011644	-0.017176
989	4.961423	0.005000	-0.981000	-1.153794	-9.841668	-0.338806	0.031307	-0.250813	-0.028896	0.009913	-0.015788
990	4.966423	0.005000	-0.902520	-1.166433	-9.843338	-0.338806	0.031758	-0.251065	-0.035679	0.011527	-0.019605
991	4.971423	0.005000	-0.963309	-1.255680	-9.896195	-0.338806	0.032209	-0.251317	-0.028813	0.015034	-0.021392
992	4.976423	0.005000	-0.900199	-1.156419	-9.867699	-0.338806	0.032661	-0.251569	-0.025168	0.016070	-0.031303
993	4.981423	0.005000	-0.921776	-1.138688	-9.771488	-0.338806	0.032560	-0.251281	-0.024601	0.017384	-0.016281
994	4.986423	0.005000	-1.021557	-1.217757	-9.907442	-0.338806	0.032108	-0.250650	-0.028160	0.021497	-0.024148
995	4.991423	0.005000	-0.860879	-1.117139	-9.872462	-0.338806	0.031656	-0.250020	-0.012895	0.013164	-0.015635
996	4.996423	0.005000	-0.928809	-1.116117	-9.866637	-0.338806	0.031204	-0.249389	-0.020705	0.024951	-0.018099
997	5.001423	0.005000	-0.879851	-1.144058	-9.871909	-0.338806	0.030752	-0.248758	-0.015174	0.014814	-0.030089
998	5.006423	0.005000	-0.973394	-1.232257	-9.865057	-0.338806	0.030301	-0.248128	-0.014050	0.007760	-0.004910
999	5.011423	0.005000	-0.966200	-1.201640	-9.961799	-0.338806	0.029849	-0.247497	-0.010894	0.015782	-0.016189
1000	5.016423	0.005000	-0.966748	-1.123708	-9.949191	-0.338806	0.029397	-0.246866	-0.008046	0.014913	-0.013260
1001	5.021423	0.005000	-0.981000	-1.072260	-9.901710	-0.338806	0.028945	-0.246236	-0.008505	0.020008	-0.018604
1002	5.026423	0.005000	-0.953967	-1.189407	-9.837033	-0.338806	0.028493	-0.245605	-0.014505	0.012846	-0.018789
1003	5.031423	0.005000	-0.879190	-1.165535	-9.856660	-0.338806	0.028042	-0.244974	-0.013756	0.010116	-0.014486
1004	5.036423	0.005000	-0.902520	-1.098720	-9.949005	-0.338806	0.027590	-0.244343	-0.004968	0.008130	-0.014573
1005	5.041423	0.005000	-0.970900	-1.079681	-9.907519	-0.338806	0.027138	-0.243713	-0.010693	0.013513	-0.007085
1006	5.046423	0.005000	-1.059480	-1.068558	-9.858318	-0.338806	0.026866	-0.243584	-0.016495	0.020771	-0.018457
1007	5.051423	0.005000	-1.028392	-1.090568	-9.880328	-0.338806	0.026866	-0.244214	-0.009503	0.017611	-0.012327
1008	5.056423	0.005000	-1.059480	-1.154706	-9.873484	-0.338806	0.026866	-0.244845	-0.027384	0.024003	-0.010237
1009	5.061423	0.005000	-0.974525	-1.026715	-9.823338	-0.338806	0.026866	-0.245475	-0.017833	0.023637	-0.017956
1010	5.066423	0.005000	-1.047757	-1.014378	-9.843378	-0.338806	0.026866	-0.246105	-0.015448	0.020945	-0.003689
1011	5.071423	0.005000	-1.015329	-1.025151	-9.780582	-0.338806	0.026866	-0.246736	-0.014127	0.020037	-0.031383
1012	5.076423	0.005000	-0.969335	-1.181088	-9.927720	-0.338806	0.026866	-0.247366	0.000916	0.010755	-0.007940
1013	5.081423	0.005000	-0.981000	-1.219786	-9.963614	-0.338806	0.026866	-0.247997	-0.002464	0.014941	-0.009194
1014	5.086423	0.005000	-0.904844	-1.366429	-9.886156	-0.338806	0.026866	-0.248627	0.002302	0.016924	-0.009251
1015	5.091423	0.005000	-0.986298	-1.216440	-9.774292	-0.338806	0.026866	-0.249257	0.013053	0.020495	-0.007904
1016	5.096423	0.005000	-0.904008	-1.176456	-9.771504	-0.338806	0.026866	-0.249888	0.013737	0.018283	-0.014249
1017	5.101423	0.005000	-0.903047	-1.098983	-9.887953	-0.338806	0.026866	-0.250518	0.023385	0.016502	-0.010993
1018	5.106423	0.005000	-0.940098	-1.137960	-9.732351	-0.338806	0.026866	-0.251149	0.023093	0.018897	-0.013453
1019	5.111423	0.005000	-0.981000	-1.255680	-9.813687	-0.338786	0.026906	-0.251689	0.028299	0.014236	-0.009429
1020	5.116423	0.005000	-0.905386	-1.255680	-9.919122	-0.338673	0.027132	-0.251815	0.016803	0.016550	-0.007998
1021	5.121423	0.005000	-0.941760	-1.209539	-9.924270	-0.338560	0.027358	-0.251941	0.012922	0.009562	-0.010509
1022	5.126423	0.005000	-0.981000	-1.112012	-9.958099	-0.338447	0.027583	-0.252067	0.007814	0.013924	-0.008948
1023	5.131423	0.005000	-0.941760	-1.171747	-9.904839	-0.338334	0.027809	-0.252193	-0.011436	0.015911	-0.012329
1024	5.136423	0.005000	-0.968861	-1.177200	-9.822139	-0.338221	0.028035	-0.252319	-0.003947	0.013509	-0.005216
1025	5.141423	0.005000	-0.941760	-1.255680	-9.752573	-0.338108	0.028261	-0.252445	-0.013809	0.021441	-0.005470
1026	5.146423	0.005000	-0.989040	-1.271760	-9.818040	-0.337995	0.028487	-0.252572	-0.030178	0.012798	-0.008516
1027	5.151423	0.005000	-0.893922	-1.225038	-9.849240	-0.337882	0.028712	-0.252698	-0.030218	0.014826	-0.006645
1028	5.156423	0.005000	-0.912125	-1.166774	-9.839635	-0.337770	0.028938	-0.252824	-0.034138	0.021217	-0.017011
1029	5.161423	0.005000	-1.009956	-1.127676	-9.888480	-0.337657	0.029164	-0.252950	-0.027721	0.016787	-0.005162
1030	5.166423	0.005000	-0.913705	-1.205255	-9.776259	-0.337544	0.029390	-0.253076	-0.028337	0.016864	-0.021473
1031	5.171423	0.005000	-1.020240	-1.189407	-9.837033	-0.337431	0.029616	-0.253202	-0.024080	0.006702	-0.017451
1032	5.176423	0.005000	-0.993750	-1.230181	-9.901230	-0.337318	0.029841	-0.253328	-0.022797	0.031765	-0.014518
1033	5.181423	0.005000	-0.994772	-1.255680	-9.876784	-0.337421	0.030067	-0.253695	-0.007938	0.021607	-0.018498
1034	5.186423	0.005000	-0.892263	-1.270172	-9.942212	-0.337534	0.030293	-0.254073	0.000495	0.015266	-0.009062
1035	5.191423	0.005000	-0.941760	-1.358063	-9.888480	-0.337647	0.030519	-0.254452	-0.004442	0.023693	-0.025516
1036	5.196423	0.005000	-0.941760	-1.232799	-9.878643	-0.337760	0.030745	-0.254830	0.004485	0.010996	-0.017854
1037	5.201423	0.005000	-0.964083	-1.177200	-9.905397	-0.337873	0.030970	-0.255208	-0.005471	0.014724	-0.027525
1038	5.206423	0.005000	-0.941760	-1.173838	-9.949021	-0.337986	0.031196	-0.255586	-0.010853	0.015559	-0.025477
1039	5.211423	0.005000	-0.923050	-1.197730	-9.925901	-0.338099	0.031422	-0.255964	-0.013953	0.006573	-0.010641
1040	5.216423	0.005000	-1.020472	-1.196936	-9.849240	-0.338212	0.031648	-0.256343	-0.010313	0.014904	-0.020016
1041	5.221423	0.005000	-1.020240	-1.177200	-9.888480	-0.338325	0.031873	-0.256721	-0.021308	0.009273	-0.013841
1042	5.226423	0.005000	-1.002549	-1.137960	-9.866931	-0.338438	0.032099	-0.257099	-0.025438	0.014836	-0.019591
1043	5.231423	0.005000	-0.998149	-1.120811	-9.854182	-0.338550	0.032325	-0.257477	-0.031102	0.013746	-0.014832
1044	5.236423	0.005000	-1.052493	-1.130973	-9.810000	-0.338663	0.032551	-0.257855	-0.027759	0.012599	-0.021570
1045	5.241423	0.005000	-1.020240	-1.177200	-9.903584	-0.338776	0.032777	-0.258234	-0.023903	0.008530	-0.020800
1046	5.246423	0.005000	-1.015794	-1.158192	-9.917604	-0.338473	0.032836	-0.258054	-0.021509	0.003377	-0.024086
1047	5.251423	0.005000	-1.020240	-1.045940	-9.873562	-0.338021	0.032836	-0.257676	-0.020436	0.015715	-0.029738
1048	5.256423	0.005000	-1.046813	-1.059480	-9.954293	-0.337569	0.032836	-0.257297	0.003105	0.011083	-0.012621
1049	5.261423	0.005000	-1.098720	-1.071439	-9.915761	-0.337118	0.032836	-0.256919	-0.008068	0.023120	-0.016470
1050	5.266423	0.005000	-1.009303	-1.081354	-9.894909	-0.336666	0.032836	-0.256541	0.010262	0.020111	-0.008170
1051	5.271423	0.005000	-1.030289	-1.079578	-9.849240	-0.336214	0.032836	-0.256162	0.013820	0.010818	-0.004381
1052	5.276423	0.005000	-1.059480	-1.108092	-9.810000	-0.335762	0.032836	-0.255784	0.005354	0.010501	-0.015112
1053	5.281423	0.005000	-1.020240	-1.098720	-9.818350	-0.335310	0.032836	-0.255405	0.012643	0.000536	-0.013431
1054	5.286423	0.005000	-1.005403	-1.209022	-9.841822	-0.334859	0.032836	-0.255027	0.007355	0.016383	-0.016071
1055	5.291423	0.005000	-0.955331	-1.242109	-9.856025	-0.334407	0.032836	-0.254649	0.004554	0.014727	-0.014970
1056	5.296423	0.005000	-0.975237	-1.137960	-9.894243	-0.333955	0.032836	-0.254270	0.001548	0.019724	-0.015845
1057	5.301423	0.005000	-0.897299	-1.127519	-9.893701	-0.333503	0.032836	-0.253892	-0.003265	0.026816	-0.018418
1058	5.306423	0.005000	-0.981000	-1.111315	-9.915125	-0.333051	0.032836	-0.253513	-0.007009	0.024666	-0.002154
1059	5.311423	0.005000	-0.977824	-1.177200	-9.846064	-0.332954	0.032600	-0.253069	-0.009163	0.013484	-0.021285
1060	5.316423	0.005000	-0.941760	-1.251373	-9.849240	-0.333180	0.032148	-0.252565	-0.008693	0.008125	-0.007270
1061	5.321423	0.005000	-1.059480	-1.218036	-9.888480	-0.333406	0.031697	-0.252061	-0.006910	0.017040	-0.017694
1062	5.326423	0.005000	-1.137371	-1.255091	-10.006200	-0.333632	0.031245	-0.251557	-0.007851	0.007528	-0.019171
1063	5.331423	0.005000	-1.021108	-1.216440	-9.889781	-0.333857	0.030793	-0.251052	-0.005599	0.012165	-0.014384
1064	5.336423	0.005000	-0.941760	-1.179207	-9.887477	-0.334083	0.030342	-0.250548	0.001361	0.016854	-0.025434
1065	5.341423	0.005000	-0.941760	-1.137960	-9.888480	-0.334309	0.029890	-0.250044	0.010206	0.008408	-0.010534
1066	5.346423	0.005000	-0.902520	-1.177200	-9.973033	-0.334535	0.029439	-0.249540	0.005255	0.022185	-0.023654
1067	5.351423	0.005000	-0.941760	-1.223597	-9.820736	-0.334760	0.028987	-0.249035	0.012856	0.008368	-0.016554
1068	5.356423	0.005000	-1.024841	-1.064081	-9.810000	-0.334986	0.028535	-0.248531	0.027204	0.018016	-0.019372
1069	5.361423	0.005000	-1.008993	-1.171577	-9.882857	-0.335212	0.028084	-0.248027	0.020744	0.009432	-0.018378
1070	5.366423	0.005000	-1.007909	-1.210274	-9.789257	-0.335438	0.027632	-0.247523	0.028006	0.020325	-0.014964
1071	5.371423	0.005000	-1.052292	-1.248492	-9.856428	-0.335664	0.027181	-0.247018	0.020176	0.013451	-0.022890
1072	5.376423	0.005000	-1.036661	-1.278499	-9.832819	-0.335958	0.027003	-0.246934	0.018072	0.016014	-0.024305
