# FOX Logger (IMU file)
# (c) INRIA 2011-2014
# File created from file sensbiotk output
#
# File format:
# id	t	dt	ax	ay	az	mx	my	mz	gx	gy	gz
#
# Units:
#	Time: s
#	Acceleration: m.s^-2
#	Magneto: gauss
#	Gyrometer: rad/s
#
1	0.016022	0.016022	-0.109315	-0.549360	-9.496080	0.416418	-0.573134	-0.558333	0.059914	0.013461	0.005018
2	0.021022	0.005000	-0.185051	-0.644782	-9.456840	0.416532	-0.573589	-0.557444	0.057658	0.010863	0.010678
3	0.026022	0.005000	-0.156960	-0.524113	-9.431593	0.416645	-0.574044	-0.556555	0.066831	0.018083	0.005304
4	0.031022	0.005000	-0.128990	-0.661377	-9.383927	0.416759	-0.574499	-0.555666	0.075672	0.014871	0.002579
5	0.036022	0.005000	-0.058452	-0.627840	-9.319908	0.416873	-0.574954	-0.554777	0.073750	0.015752	0.008169
6	0.041022	0.005000	-0.073609	-0.593471	-9.456840	0.416986	-0.575409	-0.553888	0.064680	0.008502	0.009184
7	0.046022	0.005000	-0.092821	-0.549360	-9.442499	0.417100	-0.575864	-0.552999	0.062578	0.005282	0.020097
8	0.051022	0.005000	-0.106223	-0.600097	-9.507577	0.417214	-0.576319	-0.552110	0.041343	0.014050	0.005408
9	0.056022	0.005000	-0.126474	-0.636594	-9.478572	0.417328	-0.576774	-0.551221	0.047621	0.011780	0.000960
10	0.061022	0.005000	-0.229177	-0.588600	-9.430125	0.417441	-0.577228	-0.550332	0.038181	0.008461	0.001918
11	0.066022	0.005000	-0.124558	-0.513539	-9.453421	0.417555	-0.577683	-0.549443	0.030769	-0.000162	0.008076
12	0.071022	0.005000	-0.118295	-0.548785	-9.455690	0.417669	-0.578138	-0.548554	0.026044	0.004914	0.012108
13	0.076022	0.005000	-0.119542	-0.510120	-9.415778	0.417782	-0.578593	-0.547665	0.019821	0.001119	0.012523
14	0.081022	0.005000	-0.113076	-0.549360	-9.417600	0.417896	-0.579048	-0.546776	0.048156	-0.001905	0.011504
15	0.086022	0.005000	-0.046728	-0.446616	-9.385848	0.417710	-0.578805	-0.547224	0.049675	0.005882	0.016509
16	0.091022	0.005000	-0.107388	-0.549360	-9.396936	0.417483	-0.578463	-0.547860	0.059219	0.012817	0.011471
17	0.096022	0.005000	-0.104544	-0.470880	-9.483192	0.417255	-0.578122	-0.548495	0.057400	0.014871	0.009468
18	0.101022	0.005000	-0.094500	-0.517321	-9.433620	0.417028	-0.577781	-0.549130	0.069059	0.021504	0.006729
19	0.106022	0.005000	-0.078480	-0.546940	-9.436010	0.416800	-0.577439	-0.549766	0.076975	0.016913	0.020707
20	0.111022	0.005000	-0.174946	-0.531374	-9.399614	0.416572	-0.577098	-0.550401	0.073597	0.019877	0.008478
21	0.116022	0.005000	-0.102578	-0.573458	-9.423787	0.416345	-0.576757	-0.551036	0.079436	0.014403	0.010373
22	0.121022	0.005000	-0.026942	-0.561658	-9.378360	0.416117	-0.576415	-0.551672	0.077593	0.010365	0.008552
23	0.126022	0.005000	-0.087935	-0.480335	-9.437931	0.415890	-0.576074	-0.552307	0.081319	0.010051	-0.000740
24	0.131022	0.005000	-0.078480	-0.556440	-9.385440	0.415662	-0.575733	-0.552942	0.081999	0.015347	0.011935
25	0.136022	0.005000	-0.043476	-0.514356	-9.456840	0.415435	-0.575391	-0.553578	0.061245	0.018332	0.007560
26	0.141022	0.005000	-0.079872	-0.589992	-9.378360	0.415207	-0.575050	-0.554213	0.044592	0.007941	0.016291
27	0.146022	0.005000	-0.117720	-0.552264	-9.264997	0.414979	-0.574709	-0.554848	0.026733	0.010352	0.008938
28	0.151022	0.005000	0.031555	-0.513962	-9.421442	0.415012	-0.574714	-0.554903	0.014093	0.007593	0.009168
29	0.156022	0.005000	-0.051735	-0.503434	-9.378360	0.415125	-0.574827	-0.554776	0.015620	0.011375	0.018196
30	0.161022	0.005000	-0.177140	-0.510120	-9.437780	0.415239	-0.574941	-0.554649	0.019294	0.012427	0.014120
31	0.166022	0.005000	-0.142468	-0.497746	-9.417600	0.415353	-0.575055	-0.554522	0.027398	0.000519	0.015248
32	0.171022	0.005000	-0.102793	-0.485807	-9.447455	0.415467	-0.575168	-0.554395	0.021112	0.005225	0.007860
33	0.176022	0.005000	-0.156960	-0.466826	-9.439247	0.415580	-0.575282	-0.554268	0.050181	-0.002354	0.005498
34	0.181022	0.005000	-0.177644	-0.549360	-9.399044	0.415694	-0.575396	-0.554141	0.052778	0.016226	0.005359
35	0.186022	0.005000	-0.172919	-0.494161	-9.456840	0.415808	-0.575509	-0.554014	0.059143	0.011825	0.009676
36	0.191022	0.005000	-0.091595	-0.444755	-9.496080	0.415922	-0.575623	-0.553887	0.078095	0.006950	0.015652
37	0.196022	0.005000	-0.078480	-0.470880	-9.506476	0.416036	-0.575737	-0.553760	0.061344	0.014187	0.006229
38	0.201022	0.005000	-0.047136	-0.447433	-9.519527	0.416149	-0.575850	-0.553633	0.081943	0.007354	0.005803
39	0.206022	0.005000	-0.044292	-0.407557	-9.412548	0.416263	-0.575964	-0.553506	0.060565	0.008409	0.008838
40	0.211022	0.005000	-0.113303	-0.505703	-9.417600	0.416377	-0.576078	-0.553379	0.073534	0.007835	0.009468
41	0.216022	0.005000	-0.155054	-0.470245	-9.378995	0.416418	-0.576046	-0.553171	0.065677	0.013134	0.006380
42	0.221022	0.005000	-0.156960	-0.507059	-9.405357	0.416418	-0.575933	-0.552917	0.055576	0.011597	0.004041
43	0.226022	0.005000	-0.162829	-0.470880	-9.450971	0.416418	-0.575819	-0.552663	0.062308	0.019199	0.005716
44	0.231022	0.005000	-0.087193	-0.571173	-9.356547	0.416418	-0.575705	-0.552409	0.041986	0.015543	0.013279
45	0.236022	0.005000	-0.156960	-0.431640	-9.327563	0.416418	-0.575592	-0.552155	0.025654	0.009580	0.018904
46	0.241022	0.005000	-0.132121	-0.545397	-9.481679	0.416418	-0.575478	-0.551901	0.018923	0.009941	0.018415
47	0.246022	0.005000	-0.043990	-0.510120	-9.474085	0.416418	-0.575364	-0.551647	0.021170	0.012934	0.004993
48	0.251022	0.005000	-0.098100	-0.470880	-9.417600	0.416418	-0.575251	-0.551393	0.037746	0.005455	0.008111
49	0.256022	0.005000	-0.123408	-0.454104	-9.496080	0.416418	-0.575137	-0.551139	0.051552	0.011119	0.006777
50	0.261022	0.005000	-0.143028	-0.392400	-9.574560	0.416418	-0.575023	-0.550885	0.048327	0.005879	0.011301
51	0.266022	0.005000	-0.139896	-0.436753	-9.513144	0.416418	-0.574909	-0.550631	0.071041	0.011583	-0.000673
52	0.271022	0.005000	-0.178804	-0.510120	-9.448142	0.416418	-0.574796	-0.550377	0.075286	0.008528	0.002878
53	0.276022	0.005000	-0.111866	-0.476734	-9.462694	0.416418	-0.574682	-0.550123	0.074392	0.005565	0.012423
54	0.281022	0.005000	-0.153950	-0.473890	-9.453830	0.416359	-0.574568	-0.550066	0.061207	0.004835	0.005988
55	0.286022	0.005000	-0.078813	-0.510120	-9.378194	0.416246	-0.574455	-0.550193	0.074888	0.005001	0.007388
56	0.291022	0.005000	-0.119955	-0.510120	-9.376125	0.416132	-0.574341	-0.550320	0.062723	0.012949	0.007964
57	0.296022	0.005000	-0.156960	-0.544308	-9.417600	0.416018	-0.574227	-0.550447	0.051809	0.007002	-0.001414
58	0.301022	0.005000	-0.055033	-0.525913	-9.535320	0.415904	-0.574113	-0.550574	0.034945	0.007205	0.007442
59	0.306022	0.005000	-0.096239	-0.599340	-9.456840	0.415790	-0.573999	-0.550701	0.030870	0.008606	0.008995
60	0.311022	0.005000	-0.156960	-0.484464	-9.405528	0.415677	-0.573886	-0.550828	0.031083	0.000051	0.012552
61	0.316022	0.005000	-0.117720	-0.431640	-9.369677	0.415563	-0.573772	-0.550955	0.020728	0.010623	0.003516
62	0.321022	0.005000	-0.039240	-0.453665	-9.478865	0.415449	-0.573658	-0.551082	0.032696	-0.001025	0.011994
63	0.326022	0.005000	0.000000	-0.510120	-9.500164	0.415335	-0.573544	-0.551209	0.042146	0.012221	0.000617
64	0.331022	0.005000	-0.029468	-0.456146	-9.432334	0.415222	-0.573431	-0.551336	0.049626	0.012333	0.011228
65	0.336022	0.005000	-0.180740	-0.470880	-9.366470	0.415108	-0.573317	-0.551463	0.042266	0.016710	0.011035
66	0.341022	0.005000	-0.156960	-0.560055	-9.368845	0.414994	-0.573203	-0.551590	0.043089	0.007718	0.013587
67	0.346022	0.005000	-0.189529	-0.503449	-9.496080	0.415059	-0.573358	-0.551717	0.067291	0.016405	0.009267
68	0.351022	0.005000	-0.156960	-0.486189	-9.417600	0.415400	-0.573926	-0.551844	0.042553	0.019450	0.006364
69	0.356022	0.005000	-0.155965	-0.664096	-9.496080	0.415742	-0.574495	-0.551971	0.069698	0.008877	0.012126
70	0.361022	0.005000	-0.079887	-0.473694	-9.458247	0.416083	-0.575064	-0.552098	0.055649	0.010996	0.012168
71	0.366022	0.005000	-0.152724	-0.545124	-9.461076	0.416424	-0.575633	-0.552225	0.065076	0.013086	0.011001
72	0.371022	0.005000	-0.117720	-0.556440	-9.449760	0.416765	-0.576201	-0.552352	0.057295	0.007887	0.020231
73	0.376022	0.005000	-0.039240	-0.520043	-9.427523	0.417107	-0.576770	-0.552479	0.050892	0.005608	0.012282
74	0.381022	0.005000	-0.078480	-0.404714	-9.469154	0.417448	-0.577339	-0.552606	0.046768	0.005711	0.010079
75	0.386022	0.005000	-0.069555	-0.494963	-9.471997	0.417789	-0.577907	-0.552733	0.048055	0.006591	0.007876
76	0.391022	0.005000	-0.178199	-0.470880	-9.417600	0.418130	-0.578476	-0.552860	0.050850	-0.004660	0.014426
77	0.396022	0.005000	-0.117720	-0.544459	-9.435995	0.418472	-0.579045	-0.552987	0.041453	0.007999	0.015184
78	0.401022	0.005000	-0.031102	-0.533809	-9.417600	0.418813	-0.579614	-0.553113	0.041373	0.010518	0.002513
79	0.406022	0.005000	-0.182681	-0.497259	-9.391879	0.419154	-0.580182	-0.553240	0.050115	0.001417	0.008629
80	0.411022	0.005000	-0.225108	-0.470880	-9.425844	0.419372	-0.580566	-0.553299	0.044040	-0.002870	0.009178
81	0.416022	0.005000	-0.117720	-0.455904	-9.425088	0.419258	-0.580452	-0.553172	0.058028	0.004284	0.012427
82	0.421022	0.005000	-0.113076	-0.505476	-9.339120	0.419145	-0.580339	-0.553045	0.050578	0.009828	0.010512
83	0.426022	0.005000	-0.073972	-0.433894	-9.454586	0.419031	-0.580225	-0.552918	0.051221	0.004412	0.000678
84	0.431022	0.005000	-0.077300	-0.548180	-9.417600	0.418917	-0.580111	-0.552791	0.056760	0.005626	0.005790
85	0.436022	0.005000	-0.150092	-0.552794	-9.424468	0.418803	-0.579997	-0.552664	0.057468	0.008293	0.005313
86	0.441022	0.005000	-0.097313	-0.464602	-9.411322	0.418689	-0.579883	-0.552537	0.067835	0.009191	0.008496
87	0.446022	0.005000	-0.096723	-0.519242	-9.387482	0.418575	-0.579769	-0.552409	0.075696	0.013401	0.000636
88	0.451022	0.005000	-0.089977	-0.498623	-9.401353	0.418462	-0.579656	-0.552282	0.073070	0.010741	0.005016
89	0.456022	0.005000	-0.117720	-0.588600	-9.353461	0.418348	-0.579542	-0.552155	0.062922	0.007079	0.005618
90	0.461022	0.005000	-0.083351	-0.566545	-9.395545	0.418234	-0.579428	-0.552028	0.060425	0.013806	0.002693
91	0.466022	0.005000	-0.059268	-0.550177	-9.437628	0.418120	-0.579314	-0.551901	0.066623	0.013668	0.011144
92	0.471022	0.005000	-0.140401	-0.448199	-9.394919	0.418006	-0.579200	-0.551774	0.057519	0.008229	0.008520
93	0.476022	0.005000	-0.061810	-0.510120	-9.325142	0.417875	-0.578999	-0.551687	0.047749	0.000611	0.018155
94	0.481022	0.005000	-0.061507	-0.470880	-9.372521	0.417647	-0.578316	-0.551814	0.030414	0.009313	0.007899
95	0.486022	0.005000	-0.047530	-0.596890	-9.378360	0.417420	-0.577634	-0.551941	0.041381	0.002268	0.001184
96	0.491022	0.005000	-0.162406	-0.616948	-9.496080	0.417192	-0.576951	-0.552067	0.036070	0.004803	0.007080
97	0.496022	0.005000	-0.151693	-0.551993	-9.451573	0.416965	-0.576269	-0.552194	0.036422	0.004945	0.006368
98	0.501022	0.005000	-0.156506	-0.549587	-9.457067	0.416738	-0.575587	-0.552321	0.039977	0.000733	0.017258
99	0.506022	0.005000	-0.041857	-0.551977	-9.422834	0.416510	-0.574904	-0.552448	0.024531	0.004313	0.010987
100	0.511022	0.005000	-0.185278	-0.481802	-9.535320	0.416283	-0.574222	-0.552575	0.041880	0.013947	0.007549
101	0.516022	0.005000	-0.047545	-0.431640	-9.394970	0.416055	-0.573539	-0.552702	0.051406	0.013303	0.012468
102	0.521022	0.005000	-0.107025	-0.449490	-9.389055	0.415828	-0.572857	-0.552829	0.052273	0.008552	0.004759
103	0.526022	0.005000	-0.090642	-0.496581	-9.417600	0.415600	-0.572175	-0.552956	0.066469	0.003709	0.001611
104	0.531022	0.005000	-0.140592	-0.532992	-9.440472	0.415373	-0.571492	-0.553083	0.054366	0.017563	-0.003053
105	0.536022	0.005000	-0.156960	-0.490092	-9.436812	0.415145	-0.570810	-0.553210	0.062965	0.013406	0.003061
106	0.541022	0.005000	-0.156960	-0.549360	-9.339120	0.414914	-0.570153	-0.553333	0.064703	0.015488	0.005899
107	0.546022	0.005000	-0.117720	-0.559011	-9.314674	0.414573	-0.570266	-0.553333	0.049541	0.007544	0.002029
108	0.551022	0.005000	-0.090431	-0.591988	-9.417600	0.414231	-0.570380	-0.553333	0.060110	0.013522	0.003265
109	0.556022	0.005000	-0.078480	-0.491687	-9.339120	0.413890	-0.570494	-0.553333	0.060932	0.008096	0.000460
110	0.561022	0.005000	-0.104257	-0.399132	-9.299880	0.413549	-0.570608	-0.553333	0.063990	0.005201	0.006766
111	0.566022	0.005000	-0.082368	-0.474768	-9.374472	0.413208	-0.570722	-0.553333	0.028535	0.004987	0.007230
112	0.571022	0.005000	-0.039240	-0.548316	-9.456840	0.412866	-0.570836	-0.553333	0.040153	0.011856	0.009448
113	0.576022	0.005000	-0.114120	-0.435240	-9.419400	0.412525	-0.570949	-0.553333	0.035089	0.013113	0.005963
114	0.581022	0.005000	-0.043479	-0.470880	-9.491841	0.412184	-0.571063	-0.553333	0.052181	0.010704	-0.000211
115	0.586022	0.005000	-0.025172	-0.463846	-9.449806	0.411842	-0.571177	-0.553333	0.060720	0.005914	0.014172
116	0.591022	0.005000	-0.147082	-0.510120	-9.358876	0.411501	-0.571291	-0.553333	0.055619	0.010494	0.014836
117	0.596022	0.005000	-0.065758	-0.496324	-9.378360	0.411160	-0.571405	-0.553333	0.059120	0.001991	0.020253
118	0.601022	0.005000	-0.078480	-0.533794	-9.433166	0.410818	-0.571519	-0.553333	0.057883	0.006453	0.014130
119	0.606022	0.005000	-0.060070	-0.570190	-9.456840	0.410477	-0.571632	-0.553333	0.055514	-0.001279	0.008767
120	0.611022	0.005000	-0.138505	-0.570145	-9.514535	0.410760	-0.571954	-0.553100	0.072693	0.006249	0.017724
121	0.616022	0.005000	-0.109703	-0.525731	-9.488486	0.411101	-0.572295	-0.552847	0.050978	0.007555	0.017215
122	0.621022	0.005000	-0.117720	-0.563065	-9.404833	0.411443	-0.572637	-0.552593	0.045360	0.008448	0.013242
123	0.626022	0.005000	-0.078480	-0.617917	-9.506003	0.411784	-0.572978	-0.552339	0.044168	0.007285	0.001222
124	0.631022	0.005000	-0.046320	-0.588600	-9.456840	0.412125	-0.573319	-0.552085	0.038823	0.011660	0.003191
125	0.636022	0.005000	-0.113435	-0.580030	-9.531035	0.412466	-0.573660	-0.551831	0.031049	0.006857	0.010458
126	0.641022	0.005000	-0.119566	-0.545669	-9.417600	0.412807	-0.574001	-0.551577	0.040848	0.021624	0.004160
127	0.646022	0.005000	-0.156960	-0.470880	-9.455842	0.413148	-0.574342	-0.551323	0.045326	0.014559	0.015780
128	0.651022	0.005000	-0.231598	-0.396242	-9.456840	0.413490	-0.574684	-0.551069	0.035897	0.017657	0.010770
129	0.656022	0.005000	-0.052612	-0.431640	-9.417600	0.413831	-0.575025	-0.550815	0.045801	0.000087	0.019436
130	0.661022	0.005000	-0.028590	-0.461350	-9.408070	0.414172	-0.575366	-0.550561	0.049480	0.014103	0.003139
131	0.666022	0.005000	-0.078480	-0.428115	-9.453315	0.414513	-0.575707	-0.550307	0.057042	0.006540	0.017216
132	0.671022	0.005000	-0.053989	-0.470880	-9.442091	0.414854	-0.576048	-0.550053	0.071016	0.011041	0.011342
133	0.676022	0.005000	-0.100127	-0.571007	-9.452786	0.414745	-0.576029	-0.550101	0.071288	0.013110	0.004589
134	0.681022	0.005000	-0.179031	-0.528923	-9.436403	0.414517	-0.575915	-0.550228	0.092501	0.006552	0.015568
135	0.686022	0.005000	-0.133679	-0.556682	-9.440881	0.414289	-0.575801	-0.550355	0.065087	0.014385	0.009044
136	0.691022	0.005000	-0.104151	-0.576498	-9.404031	0.414062	-0.575688	-0.550482	0.081748	0.008644	0.014041
137	0.696022	0.005000	-0.117720	-0.499380	-9.378360	0.413834	-0.575574	-0.550609	0.061918	0.004494	0.012878
138	0.701022	0.005000	-0.180407	-0.557256	-9.511873	0.413607	-0.575460	-0.550736	0.073628	0.004983	0.011644
139	0.706022	0.005000	-0.117720	-0.510120	-9.485975	0.413379	-0.575346	-0.550863	0.056461	0.004391	0.007623
140	0.711022	0.005000	-0.041449	-0.477506	-9.424226	0.413152	-0.575233	-0.550990	0.048434	0.007364	0.006810
141	0.716022	0.005000	-0.000367	-0.549544	-9.535320	0.412924	-0.575119	-0.551118	0.046960	0.006953	0.013933
142	0.721022	0.005000	-0.039240	-0.510120	-9.390462	0.412696	-0.575005	-0.551245	0.027272	0.012751	0.012070
143	0.726022	0.005000	-0.078480	-0.549360	-9.366621	0.412469	-0.574891	-0.551372	0.018570	0.011191	0.009640
144	0.731022	0.005000	-0.017427	-0.501407	-9.456840	0.412241	-0.574778	-0.551499	0.030981	0.008499	0.015843
145	0.736022	0.005000	-0.039240	-0.481968	-9.417600	0.412014	-0.574664	-0.551626	0.016190	0.019243	0.008554
146	0.741022	0.005000	-0.075924	-0.431640	-9.417600	0.412094	-0.574319	-0.551495	0.021822	0.006838	0.014088
147	0.746022	0.005000	-0.039240	-0.504432	-9.467928	0.412321	-0.573864	-0.551241	0.034971	0.005796	0.014491
148	0.751022	0.005000	-0.117720	-0.412020	-9.417600	0.412549	-0.573409	-0.550987	0.036935	0.003710	0.011199
149	0.756022	0.005000	-0.095710	-0.444090	-9.400370	0.412776	-0.572954	-0.550733	0.034311	0.015270	0.010348
150	0.761022	0.005000	-0.064094	-0.534974	-9.392746	0.413004	-0.572500	-0.550479	0.056466	0.014676	0.008966
151	0.766022	0.005000	-0.101564	-0.470880	-9.523778	0.413231	-0.572045	-0.550225	0.067650	0.013595	0.009835
152	0.771022	0.005000	-0.078480	-0.453484	-9.487382	0.413459	-0.571590	-0.549971	0.069762	0.007754	-0.002875
153	0.776022	0.005000	-0.012646	-0.470880	-9.456840	0.413686	-0.571135	-0.549717	0.068338	0.010939	0.004946
154	0.781022	0.005000	-0.107282	-0.510120	-9.414121	0.413914	-0.570680	-0.549463	0.066944	0.013739	0.004865
155	0.786022	0.005000	-0.157595	-0.510120	-9.418871	0.414141	-0.570225	-0.549209	0.074526	0.007988	0.000511
156	0.791022	0.005000	-0.159169	-0.510120	-9.347954	0.414369	-0.569770	-0.548954	0.071508	0.006155	0.003397
157	0.796022	0.005000	-0.049345	-0.588600	-9.417600	0.414596	-0.569315	-0.548700	0.066038	0.016967	0.005152
158	0.801022	0.005000	-0.007443	-0.541917	-9.488637	0.414824	-0.568860	-0.548446	0.068200	0.009266	0.013061
159	0.806022	0.005000	0.000000	-0.520407	-9.477413	0.414988	-0.568909	-0.548544	0.065927	0.008678	0.003428
160	0.811022	0.005000	-0.104590	-0.497141	-9.469970	0.415102	-0.569364	-0.548925	0.050832	0.001397	0.010166
161	0.816022	0.005000	-0.101746	-0.486854	-9.449549	0.415216	-0.569819	-0.549307	0.028852	0.011486	0.012885
162	0.821022	0.005000	-0.060131	-0.528469	-9.399251	0.415330	-0.570275	-0.549688	0.040793	0.006293	0.011321
163	0.826022	0.005000	-0.175007	-0.510120	-9.399553	0.415443	-0.570730	-0.550069	0.043560	0.005293	0.014549
164	0.831022	0.005000	-0.132923	-0.525323	-9.411231	0.415557	-0.571185	-0.550450	0.045474	0.015996	0.011021
165	0.836022	0.005000	-0.144601	-0.561719	-9.363838	0.415671	-0.571640	-0.550831	0.057033	0.006766	0.012741
166	0.841022	0.005000	-0.098690	-0.510120	-9.447325	0.415785	-0.572095	-0.551213	0.059578	0.010276	0.000880
167	0.846022	0.005000	-0.078480	-0.563610	-9.431850	0.415899	-0.572550	-0.551594	0.073930	0.008331	0.000158
168	0.851022	0.005000	-0.113439	-0.592881	-9.535320	0.416012	-0.573005	-0.551975	0.074473	0.017305	0.008648
169	0.856022	0.005000	-0.155523	-0.626403	-9.455403	0.416126	-0.573461	-0.552356	0.069728	0.018682	0.009018
170	0.861022	0.005000	-0.117720	-0.588600	-9.531100	0.416240	-0.573916	-0.552737	0.092385	0.008968	0.009137
171	0.866022	0.005000	-0.004236	-0.597071	-9.430307	0.416354	-0.574371	-0.553119	0.094861	0.019892	0.006474
172	0.871022	0.005000	-0.117720	-0.556440	-9.489000	0.416070	-0.574577	-0.553389	0.091386	0.015656	0.004063
173	0.876022	0.005000	-0.067649	-0.687381	-9.496080	0.415274	-0.574463	-0.553516	0.075876	0.016241	0.003605
174	0.881022	0.005000	-0.080779	-0.640154	-9.417600	0.414477	-0.574350	-0.553643	0.070143	0.005055	0.006231
175	0.886022	0.005000	-0.141803	-0.642997	-9.363203	0.413681	-0.574236	-0.553770	0.065629	0.003307	0.005471
176	0.891022	0.005000	-0.135721	-0.528121	-9.496080	0.412885	-0.574122	-0.553897	0.042184	0.004487	0.013298
177	0.896022	0.005000	-0.096875	-0.627840	-9.420051	0.412089	-0.574008	-0.554024	0.035718	0.003299	0.013280
178	0.901022	0.005000	-0.149198	-0.612315	-9.433339	0.411293	-0.573895	-0.554151	0.032040	0.014525	0.007917
179	0.906022	0.005000	-0.156960	-0.601776	-9.417600	0.410496	-0.573781	-0.554278	0.018528	0.016167	0.014442
180	0.911022	0.005000	-0.070236	-0.549360	-9.485748	0.409700	-0.573667	-0.554405	0.007153	0.017684	0.011001
181	0.916022	0.005000	-0.141984	-0.541872	-9.425088	0.408904	-0.573553	-0.554532	0.003444	0.011247	0.011936
182	0.921022	0.005000	-0.122364	-0.510120	-9.452196	0.408108	-0.573440	-0.554659	0.020357	0.011752	0.008709
183	0.926022	0.005000	-0.155160	-0.586800	-9.456840	0.407312	-0.573326	-0.554786	0.019721	0.017256	0.010466
184	0.931022	0.005000	-0.194112	-0.587556	-9.495036	0.406516	-0.573212	-0.554913	0.041285	0.009351	0.014769
185	0.936022	0.005000	-0.117720	-0.517895	-9.460728	0.406113	-0.573492	-0.554800	0.045247	0.011660	0.025428
186	0.941022	0.005000	-0.091182	-0.516471	-9.470675	0.406568	-0.574629	-0.554165	0.064967	0.016795	0.012381
187	0.946022	0.005000	-0.108598	-0.510120	-9.396603	0.407023	-0.575767	-0.553530	0.076175	0.014945	0.020869
188	0.951022	0.005000	-0.184234	-0.486189	-9.299880	0.407478	-0.576904	-0.552895	0.083337	0.022369	0.012464
189	0.956022	0.005000	-0.132530	-0.578979	-9.412411	0.407933	-0.578042	-0.552260	0.089944	0.005087	0.014155
190	0.961022	0.005000	-0.100067	-0.488533	-9.378360	0.408388	-0.579179	-0.551625	0.082804	0.015264	0.015293
191	0.966022	0.005000	-0.138217	-0.510120	-9.378360	0.408843	-0.580317	-0.550990	0.082161	0.007054	0.016590
192	0.971022	0.005000	-0.071975	-0.549360	-9.348983	0.409298	-0.581454	-0.550355	0.058563	0.017804	0.013140
193	0.976022	0.005000	-0.143436	-0.549360	-9.482556	0.409753	-0.582591	-0.549720	0.037532	0.013505	0.013084
194	0.981022	0.005000	-0.089160	-0.520800	-9.417600	0.410208	-0.583729	-0.549085	0.045910	0.014355	0.017099
195	0.986022	0.005000	-0.125556	-0.510120	-9.503916	0.410663	-0.584866	-0.548450	0.026844	0.009568	0.023687
196	0.991022	0.005000	-0.117720	-0.500136	-9.496080	0.411118	-0.586004	-0.547815	0.029105	0.004200	0.022293
197	0.996022	0.005000	-0.115118	-0.476084	-9.459442	0.411572	-0.587141	-0.547180	0.031564	0.018971	0.017139
198	1.001022	0.005000	-0.039482	-0.510362	-9.496080	0.411831	-0.588169	-0.546398	0.049851	0.016994	0.018982
199	1.006022	0.005000	-0.075394	-0.434726	-9.571474	0.411262	-0.588738	-0.545001	0.054917	0.017896	0.021208
200	1.011022	0.005000	-0.096270	-0.464950	-9.568630	0.410693	-0.589307	-0.543603	0.046566	0.024682	0.014259
201	1.016022	0.005000	-0.048014	-0.431640	-9.535320	0.410124	-0.589876	-0.542205	0.058090	0.014402	0.031249
202	1.021022	0.005000	-0.078480	-0.431640	-9.429218	0.409555	-0.590445	-0.540807	0.065834	0.023619	0.021355
203	1.026022	0.005000	-0.132182	-0.456418	-9.368043	0.408986	-0.591014	-0.539409	0.071954	0.015579	0.020960
204	1.031022	0.005000	-0.100883	-0.470880	-9.355957	0.408417	-0.591583	-0.538012	0.096494	0.020820	0.016594
205	1.036022	0.005000	-0.137279	-0.411959	-9.456719	0.407848	-0.592152	-0.536614	0.087673	0.031309	0.021040
206	1.041022	0.005000	-0.173676	-0.409116	-9.473556	0.407279	-0.592721	-0.535216	0.114188	0.021567	0.027368
207	1.046022	0.005000	-0.115345	-0.459383	-9.496080	0.406711	-0.593289	-0.533818	0.109811	0.024846	0.015272
208	1.051022	0.005000	-0.128748	-0.538332	-9.378360	0.406142	-0.593858	-0.532420	0.120050	0.023910	0.023065
209	1.056022	0.005000	-0.165144	-0.518304	-9.370176	0.405573	-0.594427	-0.531023	0.115573	0.031225	0.022673
210	1.061022	0.005000	-0.184582	-0.476689	-9.411791	0.405004	-0.594996	-0.529625	0.109494	0.021507	0.016287
211	1.066022	0.005000	-0.039240	-0.476810	-9.535320	0.404444	-0.595513	-0.528381	0.096844	0.027388	0.015735
212	1.071022	0.005000	-0.039482	-0.471122	-9.378481	0.403989	-0.595400	-0.529016	0.102022	0.021376	0.020034
213	1.076022	0.005000	-0.154237	-0.549360	-9.417600	0.403534	-0.595286	-0.529651	0.098587	0.014575	0.024180
214	1.081022	0.005000	-0.156960	-0.515293	-9.417600	0.403079	-0.595172	-0.530285	0.082785	0.018532	0.021219
215	1.086022	0.005000	-0.015914	-0.470880	-9.394274	0.402624	-0.595059	-0.530920	0.093710	0.012304	0.023603
216	1.091022	0.005000	-0.078480	-0.577799	-9.349921	0.402170	-0.594945	-0.531555	0.082114	0.008331	0.018304
217	1.096022	0.005000	-0.040934	-0.537409	-9.313525	0.401715	-0.594832	-0.532190	0.087375	0.016219	0.017828
218	1.101022	0.005000	-0.101231	-0.493631	-9.361871	0.401260	-0.594718	-0.532825	0.078393	0.014763	0.020613
219	1.106022	0.005000	-0.058332	-0.491028	-9.359268	0.400805	-0.594604	-0.533459	0.068922	0.014545	0.020878
220	1.111022	0.005000	-0.039240	-0.549360	-9.400068	0.400350	-0.594491	-0.534094	0.075813	0.005052	0.015511
221	1.116022	0.005000	-0.107857	-0.544534	-9.397874	0.399896	-0.594377	-0.534729	0.086441	0.001059	0.005050
222	1.121022	0.005000	-0.078480	-0.533809	-9.444995	0.399441	-0.594263	-0.535364	0.084225	0.008783	0.006130
223	1.126022	0.005000	-0.030239	-0.492119	-9.447839	0.398986	-0.594150	-0.535999	0.086442	0.018417	0.009474
224	1.131022	0.005000	-0.045851	-0.516731	-9.365139	0.398531	-0.594036	-0.536633	0.091719	0.010378	-0.000234
225	1.136022	0.005000	-0.117720	-0.549360	-9.425133	0.399261	-0.593060	-0.537750	0.105600	0.013134	0.002933
226	1.141022	0.005000	-0.156960	-0.511043	-9.455917	0.400058	-0.592036	-0.538894	0.081856	0.019765	0.011629
227	1.146022	0.005000	-0.156960	-0.512041	-9.417600	0.400854	-0.591012	-0.540037	0.085206	0.013108	-0.002693
228	1.151022	0.005000	-0.122485	-0.500590	-9.442545	0.401651	-0.589988	-0.541181	0.077365	0.014549	0.012658
229	1.156022	0.005000	-0.117720	-0.541751	-9.346729	0.402448	-0.588964	-0.542324	0.068965	0.010322	0.003946
230	1.161022	0.005000	-0.127704	-0.588600	-9.368376	0.403244	-0.587939	-0.543468	0.058140	0.005572	0.007603
231	1.166022	0.005000	-0.065652	-0.627840	-9.378360	0.404041	-0.586915	-0.544612	0.052691	0.012523	0.001854
232	1.171022	0.005000	-0.125616	-0.612168	-9.362688	0.404837	-0.585891	-0.545755	0.051046	0.006268	0.003876
233	1.176022	0.005000	-0.138444	-0.687804	-9.359844	0.405634	-0.584867	-0.546899	0.042625	0.012017	-0.002763
234	1.181022	0.005000	-0.159532	-0.687986	-9.318214	0.406430	-0.583843	-0.548042	0.029425	0.010593	-0.001954
235	1.186022	0.005000	-0.109461	-0.612350	-9.393850	0.407227	-0.582819	-0.549186	0.042767	0.003928	-0.001892
236	1.191022	0.005000	-0.169606	-0.563307	-9.444194	0.408024	-0.581795	-0.550330	0.031455	0.007776	-0.004853
237	1.196022	0.005000	-0.156990	-0.549360	-9.447038	0.408820	-0.580770	-0.551473	0.037612	0.004818	-0.001737
238	1.201022	0.005000	-0.060368	-0.581557	-9.410557	0.409238	-0.580786	-0.551351	0.055072	0.014860	0.004031
239	1.206022	0.005000	-0.147793	-0.549360	-9.274391	0.409580	-0.581013	-0.550970	0.058147	0.006743	-0.012251
240	1.211022	0.005000	-0.039240	-0.551100	-9.306839	0.409921	-0.581241	-0.550588	0.051477	0.007292	-0.006994
241	1.216022	0.005000	-0.039240	-0.550464	-9.418704	0.410262	-0.581468	-0.550207	0.041295	0.003810	-0.005241
242	1.221022	0.005000	-0.035719	-0.552881	-9.378360	0.410603	-0.581696	-0.549826	0.057797	-0.001050	-0.007104
243	1.226022	0.005000	-0.105074	-0.648110	-9.417600	0.410945	-0.581923	-0.549445	0.055284	0.003171	-0.012107
244	1.231022	0.005000	-0.147793	-0.558527	-9.456840	0.411286	-0.582151	-0.549064	0.062785	0.002832	-0.013039
245	1.236022	0.005000	-0.051251	-0.631047	-9.393578	0.411627	-0.582378	-0.548683	0.053458	0.003161	-0.014285
246	1.241022	0.005000	-0.102865	-0.672405	-9.432455	0.411968	-0.582606	-0.548302	0.047833	0.001600	-0.009847
247	1.246022	0.005000	-0.100273	-0.566807	-9.456840	0.412310	-0.582833	-0.547921	0.037279	0.002341	-0.001320
248	1.251022	0.005000	-0.097631	-0.627840	-9.437689	0.412651	-0.583061	-0.547540	0.025274	0.005109	-0.006905
249	1.256022	0.005000	-0.078480	-0.667080	-9.417600	0.412992	-0.583288	-0.547159	0.034779	0.000752	0.002725
250	1.261022	0.005000	-0.091943	-0.627840	-9.496080	0.413333	-0.583516	-0.546778	0.016378	0.010165	0.002551
251	1.266022	0.005000	-0.128339	-0.567361	-9.524701	0.413675	-0.583099	-0.547117	-0.012529	-0.004102	0.000000
252	1.271022	0.005000	-0.094969	-0.518364	-9.448596	0.414016	-0.582416	-0.547752	0.021563	0.003437	0.001618
253	1.276022	0.005000	-0.185399	-0.644041	-9.451440	0.414357	-0.581734	-0.548387	0.026834	-0.000582	-0.005696
254	1.281022	0.005000	-0.041796	-0.737891	-9.380916	0.414698	-0.581052	-0.549022	0.020087	-0.001909	0.003998
255	1.286022	0.005000	-0.117433	-0.510982	-9.456553	0.415039	-0.580369	-0.549657	0.030297	0.008426	0.001706
256	1.291022	0.005000	-0.075349	-0.700057	-9.532189	0.415380	-0.579687	-0.550292	0.041714	0.004057	0.002593
257	1.296022	0.005000	-0.078480	-0.560532	-9.428772	0.415722	-0.579004	-0.550927	0.027093	0.000351	-0.000859
258	1.301022	0.005000	-0.078480	-0.580235	-9.496080	0.416063	-0.578322	-0.551562	0.033082	0.002426	0.004406
259	1.306022	0.005000	-0.184991	-0.566181	-9.428809	0.416404	-0.577639	-0.552197	0.036722	0.013038	0.008796
260	1.311022	0.005000	-0.053293	-0.549360	-9.392413	0.416745	-0.576957	-0.552832	0.017544	0.024865	0.000507
261	1.316022	0.005000	0.000000	-0.644737	-9.356017	0.417086	-0.576275	-0.553467	0.028629	0.029648	0.007499
262	1.321022	0.005000	-0.058975	-0.470650	-9.280145	0.417427	-0.575592	-0.554102	0.027811	0.021311	0.011604
263	1.326022	0.005000	-0.134844	-0.431640	-9.339120	0.417769	-0.574910	-0.554737	0.055124	-0.015172	0.016079
264	1.331022	0.005000	-0.078480	-0.392400	-9.260640	0.417644	-0.574294	-0.555000	0.070362	-0.050306	0.017193
265	1.336022	0.005000	-0.168396	-0.431640	-9.226331	0.417189	-0.573725	-0.555000	0.041176	-0.052652	0.026410
266	1.341022	0.005000	-0.165552	-0.479472	-9.050977	0.416734	-0.573157	-0.555000	0.042372	-0.031768	0.024920
267	1.346022	0.005000	-0.129217	-0.504372	-9.165913	0.416279	-0.572588	-0.555000	0.050574	-0.027796	0.004492
268	1.351022	0.005000	-0.153602	-0.467522	-9.349195	0.415824	-0.572019	-0.555000	0.096416	-0.042823	-0.004096
269	1.356022	0.005000	-0.157989	-0.549874	-9.656640	0.415369	-0.571450	-0.555000	0.117977	-0.034981	0.000257
270	1.361022	0.005000	-0.198530	-0.662421	-9.964630	0.414914	-0.570882	-0.555000	0.121033	0.007791	0.002570
271	1.366022	0.005000	-0.128067	-0.701146	-9.938067	0.414459	-0.570313	-0.555000	0.095427	0.089627	0.011398
272	1.371022	0.005000	-0.062159	-0.643120	-9.825280	0.414004	-0.569744	-0.555000	0.090751	0.116009	0.015127
273	1.376022	0.005000	0.000000	-0.588600	-9.419930	0.413549	-0.569176	-0.555000	0.058417	0.092134	0.023957
274	1.381022	0.005000	0.130487	-0.562127	-9.026138	0.413094	-0.568607	-0.555000	0.031683	0.046973	0.030732
275	1.386022	0.005000	0.032160	-0.510120	-9.087600	0.412639	-0.568038	-0.555000	0.003697	-0.031412	0.019305
276	1.391022	0.005000	-0.059802	-0.551243	-9.043878	0.412184	-0.567469	-0.555000	-0.019220	-0.070744	0.021333
277	1.396022	0.005000	-0.174901	-0.645781	-9.260640	0.412098	-0.567375	-0.554882	-0.047049	-0.074746	0.016969
278	1.401022	0.005000	-0.181103	-0.612743	-9.369314	0.412439	-0.567830	-0.554628	-0.036793	-0.048881	0.012762
279	1.406022	0.005000	-0.171694	-0.588600	-9.469093	0.412781	-0.568285	-0.554374	-0.032482	-0.012117	0.013052
280	1.411022	0.005000	-0.117720	-0.441049	-9.593378	0.413122	-0.568740	-0.554120	-0.011499	0.014888	0.020411
281	1.416022	0.005000	-0.170998	-0.510120	-9.631983	0.413464	-0.569195	-0.553866	0.023479	0.029006	0.003004
282	1.421022	0.005000	-0.109370	-0.510120	-9.491905	0.413805	-0.569650	-0.553612	0.065922	0.020032	0.001577
283	1.426022	0.005000	0.002662	-0.550691	-9.456840	0.414146	-0.570106	-0.553358	0.112543	0.013583	-0.000168
284	1.431022	0.005000	0.040753	-0.513145	-9.419113	0.414488	-0.570561	-0.553104	0.162632	0.008211	0.000305
285	1.436022	0.005000	-0.139533	-0.575530	-9.378360	0.414829	-0.571016	-0.552850	0.191040	-0.004659	-0.000526
286	1.441022	0.005000	-0.254485	-0.588600	-9.600337	0.415171	-0.571471	-0.552595	0.197407	-0.016065	0.003426
287	1.446022	0.005000	-0.205776	-0.608689	-9.790849	0.415512	-0.571926	-0.552341	0.167487	0.014989	-0.000137
288	1.451022	0.005000	-0.039240	-0.667080	-9.859678	0.415853	-0.572381	-0.552087	0.094628	0.100846	0.000732
289	1.456022	0.005000	-0.069767	-0.651817	-9.690117	0.416195	-0.572837	-0.551833	0.038504	0.161357	-0.007904
290	1.461022	0.005000	-0.003520	-0.627840	-9.296360	0.416418	-0.573095	-0.551623	-0.015278	0.109477	0.005273
291	1.466022	0.005000	0.095468	-0.569857	-9.069704	0.416418	-0.572981	-0.551496	-0.074321	0.005645	0.017540
292	1.471022	0.005000	0.196200	-0.494221	-8.537408	0.416418	-0.572867	-0.551369	-0.128534	-0.095091	0.045893
293	1.476022	0.005000	0.130926	-0.379345	-8.253455	0.416418	-0.572753	-0.551242	-0.154784	-0.183897	0.039749
294	1.481022	0.005000	-0.227203	-0.421306	-8.736144	0.416418	-0.572640	-0.551115	-0.143507	-0.238600	0.033949
295	1.486022	0.005000	-0.517956	-0.392400	-9.605843	0.416418	-0.572526	-0.550988	-0.127236	-0.165500	0.032246
296	1.491022	0.005000	-0.544368	-0.426648	-10.237344	0.416418	-0.572412	-0.550860	-0.072488	-0.014164	-0.002144
297	1.496022	0.005000	-0.420900	-0.431640	-10.514172	0.416418	-0.572298	-0.550733	0.000459	0.139531	-0.003373
298	1.501022	0.005000	-0.158352	-0.508728	-10.361448	0.416418	-0.572185	-0.550606	0.055302	0.221113	-0.017355
299	1.506022	0.005000	0.142801	-0.353160	-9.831239	0.416418	-0.572071	-0.550479	0.130552	0.188015	-0.007795
300	1.511022	0.005000	0.196200	-0.313920	-9.408009	0.416418	-0.571957	-0.550352	0.182732	0.077818	0.014751
301	1.516022	0.005000	0.065561	-0.422866	-9.169241	0.416418	-0.571843	-0.550225	0.233861	-0.043174	0.011912
302	1.521022	0.005000	-0.055245	-0.482498	-9.092062	0.416418	-0.571730	-0.550098	0.242623	-0.093414	0.007488
303	1.526022	0.005000	-0.117720	-0.505975	-9.275102	0.416444	-0.571747	-0.549942	0.216984	-0.052937	0.007178
304	1.531022	0.005000	-0.117720	-0.588600	-9.299880	0.416558	-0.572202	-0.549688	0.165986	0.009101	-0.000184
305	1.536022	0.005000	-0.137401	-0.569041	-9.280321	0.416672	-0.572657	-0.549434	0.109634	0.065899	-0.016444
306	1.541022	0.005000	-0.055956	-0.555169	-9.322404	0.416785	-0.573111	-0.549180	0.078056	0.052252	-0.002251
307	1.546022	0.005000	-0.027743	-0.588600	-9.274512	0.416899	-0.573566	-0.548926	0.049163	0.005977	0.008719
308	1.551022	0.005000	-0.128748	-0.616812	-9.328092	0.417013	-0.574021	-0.548672	0.043972	-0.053687	0.006294
309	1.556022	0.005000	-0.251808	-0.588600	-9.371855	0.417126	-0.574476	-0.548418	0.039388	-0.071529	0.013194
310	1.561022	0.005000	-0.274680	-0.437449	-9.507698	0.417240	-0.574931	-0.548164	0.025428	-0.049979	0.013371
311	1.566022	0.005000	-0.316885	-0.437570	-9.656005	0.417354	-0.575386	-0.547910	0.014369	-0.000963	0.016131
312	1.571022	0.005000	-0.195837	-0.432003	-9.692401	0.417467	-0.575841	-0.547656	0.001477	0.056939	0.014246
313	1.576022	0.005000	-0.078480	-0.476326	-9.621969	0.417581	-0.576296	-0.547402	-0.025632	0.105412	0.011326
314	1.581022	0.005000	0.033673	-0.678486	-9.462407	0.417695	-0.576751	-0.547148	-0.017583	0.089491	0.008188
315	1.586022	0.005000	0.008411	-0.636251	-9.400779	0.417809	-0.577206	-0.546894	-0.008479	0.005094	0.003803
316	1.591022	0.005000	0.003963	-0.577799	-9.478442	0.417861	-0.577575	-0.546708	-0.006156	-0.049316	0.024340
317	1.596022	0.005000	-0.090431	-0.522071	-9.378360	0.417406	-0.577234	-0.547089	0.011133	-0.033950	-0.001952
318	1.601022	0.005000	-0.078480	-0.559586	-9.198649	0.416951	-0.576893	-0.547470	0.006872	-0.031699	-0.008487
319	1.606022	0.005000	-0.098387	-0.353160	-9.103105	0.416496	-0.576552	-0.547851	0.037859	-0.026120	-0.009936
320	1.611022	0.005000	-0.191500	-0.397100	-9.268509	0.416041	-0.576210	-0.548232	0.063358	-0.025446	-0.006879
321	1.616022	0.005000	-0.259991	-0.387363	-9.657866	0.415586	-0.575869	-0.548613	0.114581	0.011155	-0.004541
322	1.621022	0.005000	-0.172511	-0.419795	-9.758915	0.415131	-0.575528	-0.548994	0.127793	0.058766	-0.013628
323	1.626022	0.005000	-0.078480	-0.422639	-9.586798	0.414677	-0.575187	-0.549375	0.159066	0.078397	-0.007760
324	1.631022	0.005000	-0.012314	-0.477037	-9.419899	0.414222	-0.574845	-0.549756	0.158515	0.058781	0.000496
325	1.636022	0.005000	-0.117720	-0.637779	-9.192099	0.413767	-0.574504	-0.550137	0.169021	0.002654	-0.002049
326	1.641022	0.005000	-0.196200	-0.668926	-9.340966	0.413312	-0.574163	-0.550518	0.157568	-0.043083	0.000305
327	1.646022	0.005000	-0.233519	-0.708241	-9.342962	0.412857	-0.573822	-0.550899	0.133659	-0.033639	-0.007636
328	1.651022	0.005000	-0.235440	-0.809745	-9.486550	0.412402	-0.573480	-0.551280	0.088525	0.014976	-0.002910
329	1.656022	0.005000	-0.069676	-0.831649	-9.432818	0.411947	-0.573139	-0.551661	0.027858	0.058993	0.004940
330	1.661022	0.005000	0.068027	-0.687986	-9.341692	0.412500	-0.572798	-0.551792	-0.007484	0.070616	-0.000611
331	1.666022	0.005000	-0.039996	-0.601428	-9.339120	0.413069	-0.572457	-0.551919	-0.051528	0.016156	0.010476
332	1.671022	0.005000	0.007896	-0.510120	-9.354792	0.413638	-0.572116	-0.552046	-0.071922	-0.019876	0.013692
333	1.676022	0.005000	-0.004417	-0.491604	-9.380569	0.414206	-0.571774	-0.552173	-0.079489	-0.068073	0.028404
334	1.681022	0.005000	-0.057120	-0.492240	-9.414121	0.414775	-0.571433	-0.552300	-0.072550	-0.047688	0.009452
335	1.686022	0.005000	-0.132756	-0.480047	-9.481044	0.415344	-0.571092	-0.552427	-0.029971	-0.018346	0.012056
336	1.691022	0.005000	-0.169295	-0.340825	-9.444505	0.415912	-0.570751	-0.552554	-0.003052	0.033523	0.010800
337	1.696022	0.005000	-0.176595	-0.362962	-9.505882	0.416481	-0.570410	-0.552681	0.057538	0.032949	0.003553
338	1.701022	0.005000	-0.092397	-0.503161	-9.417600	0.417050	-0.570069	-0.552808	0.107805	0.011213	0.004616
339	1.706022	0.005000	-0.196200	-0.501891	-9.413485	0.417619	-0.569727	-0.552935	0.152110	-0.013284	0.003786
340	1.711022	0.005000	-0.155689	-0.430369	-9.423956	0.418187	-0.569386	-0.553062	0.185910	-0.021163	0.014359
341	1.716022	0.005000	-0.117720	-0.505446	-9.651482	0.418756	-0.569045	-0.553189	0.197859	-0.001971	0.002131
342	1.721022	0.005000	-0.152966	-0.619851	-9.468823	0.419325	-0.568704	-0.553316	0.191647	0.018003	-0.005726
343	1.726022	0.005000	-0.196200	-0.725184	-9.391944	0.419010	-0.569344	-0.553114	0.197562	0.036035	0.004672
344	1.731022	0.005000	-0.156960	-0.656748	-9.299880	0.418555	-0.570140	-0.552860	0.132534	0.040894	0.000006
345	1.736022	0.005000	-0.039240	-0.667080	-9.326640	0.418100	-0.570937	-0.552606	0.096688	0.012396	0.004951
346	1.741022	0.005000	-0.126312	-0.714912	-9.330528	0.417645	-0.571733	-0.552352	0.056519	-0.003778	-0.000359
347	1.746022	0.005000	-0.196200	-0.648912	-9.360192	0.417190	-0.572530	-0.552097	0.033759	-0.014885	0.012343
348	1.751022	0.005000	-0.196200	-0.682525	-9.393805	0.416735	-0.573326	-0.551843	-0.016869	-0.003186	0.007634
349	1.756022	0.005000	-0.188729	-0.682650	-9.472410	0.416280	-0.574123	-0.551589	-0.053729	0.004223	0.006586
350	1.761022	0.005000	-0.104711	-0.614831	-9.482859	0.415824	-0.574919	-0.551335	-0.071378	0.023812	0.018606
351	1.766022	0.005000	-0.117720	-0.588600	-9.496080	0.415369	-0.575716	-0.551081	-0.094042	0.020077	0.013072
352	1.771022	0.005000	-0.031918	-0.556682	-9.417600	0.414914	-0.576512	-0.550827	-0.077311	-0.009815	0.015695
353	1.776022	0.005000	0.069525	-0.549360	-9.417600	0.414459	-0.577309	-0.550573	-0.067328	-0.005733	0.004275
354	1.781022	0.005000	-0.156960	-0.470880	-9.379994	0.414004	-0.578105	-0.550319	-0.033271	-0.021371	0.005516
355	1.786022	0.005000	-0.156960	-0.432850	-9.455630	0.413549	-0.578902	-0.550065	-0.008774	-0.011238	0.000519
356	1.791022	0.005000	-0.153318	-0.506478	-9.417600	0.413263	-0.578765	-0.550284	0.059464	0.005958	-0.000219
357	1.796022	0.005000	-0.196200	-0.431640	-9.456840	0.413036	-0.578310	-0.550665	0.085384	0.019056	-0.001975
358	1.801022	0.005000	-0.175536	-0.440928	-9.417600	0.412808	-0.577855	-0.551046	0.116615	0.024435	-0.005515
359	1.806022	0.005000	-0.078480	-0.510120	-9.429732	0.412581	-0.577400	-0.551427	0.155622	0.015693	-0.007784
360	1.811022	0.005000	-0.117720	-0.519408	-9.329832	0.412353	-0.576945	-0.551808	0.177562	0.008438	-0.003733
361	1.816022	0.005000	-0.100159	-0.606161	-9.325678	0.412126	-0.576490	-0.552189	0.179103	0.002428	-0.009070
362	1.821022	0.005000	-0.058285	-0.687275	-9.280835	0.411898	-0.576035	-0.552570	0.182133	-0.003636	-0.005142
363	1.826022	0.005000	-0.094681	-0.657716	-9.362159	0.411671	-0.575580	-0.552951	0.157312	0.004276	-0.008239
364	1.831022	0.005000	-0.182843	-0.680437	-9.352477	0.411444	-0.575125	-0.553332	0.121546	-0.002835	-0.000381
365	1.836022	0.005000	-0.117720	-0.795313	-9.428113	0.411216	-0.574670	-0.553713	0.087981	0.006927	-0.008283
366	1.841022	0.005000	-0.133059	-0.792469	-9.417600	0.410989	-0.574215	-0.554094	0.055559	-0.005899	-0.000615
367	1.846022	0.005000	-0.161786	-0.740734	-9.417600	0.410761	-0.573760	-0.554475	0.019037	0.008896	-0.006433
368	1.851022	0.005000	-0.156960	-0.669062	-9.380342	0.410534	-0.573305	-0.554857	-0.020492	0.007165	-0.003887
369	1.856022	0.005000	-0.118582	-0.744698	-9.494355	0.410803	-0.573063	-0.554921	-0.043982	0.003970	0.001615
370	1.861022	0.005000	-0.042492	-0.595105	-9.424105	0.411372	-0.572949	-0.554794	-0.051368	0.000819	0.003943
371	1.866022	0.005000	-0.150864	-0.633936	-9.417600	0.411940	-0.572836	-0.554667	-0.046547	-0.007121	0.007110
372	1.871022	0.005000	-0.156960	-0.588600	-9.465780	0.412509	-0.572722	-0.554539	-0.035979	0.001408	0.009039
373	1.876022	0.005000	-0.184416	-0.561144	-9.417600	0.413078	-0.572608	-0.554412	-0.012780	0.007651	0.006838
374	1.881022	0.005000	-0.078480	-0.617856	-9.417600	0.413647	-0.572494	-0.554285	-0.015402	0.014270	0.018497
375	1.886022	0.005000	-0.143784	-0.488352	-9.482904	0.414216	-0.572381	-0.554158	0.009772	0.002597	0.007675
376	1.891022	0.005000	-0.156960	-0.451487	-9.456840	0.414785	-0.572267	-0.554031	0.034367	-0.002138	0.002827
377	1.896022	0.005000	-0.140411	-0.510120	-9.394909	0.415354	-0.572153	-0.553904	0.061609	-0.002700	0.002447
378	1.901022	0.005000	-0.209905	-0.470880	-9.366531	0.415923	-0.572039	-0.553777	0.094267	-0.003360	0.004129
379	1.906022	0.005000	-0.242096	-0.460019	-9.400083	0.416492	-0.571926	-0.553650	0.109311	-0.001851	0.007962
380	1.911022	0.005000	-0.172995	-0.486915	-9.535320	0.417061	-0.571812	-0.553523	0.119897	0.009337	0.006371
381	1.916022	0.005000	-0.224288	-0.521272	-9.513017	0.417629	-0.571698	-0.553396	0.129669	0.006326	0.006274
382	1.921022	0.005000	-0.193401	-0.672677	-9.456840	0.417910	-0.571527	-0.552947	0.129437	0.016599	0.000209
383	1.926022	0.005000	-0.078571	-0.745560	-9.535229	0.417910	-0.571299	-0.552185	0.110976	0.020822	0.000527
384	1.931022	0.005000	-0.151181	-0.742671	-9.490301	0.417910	-0.571072	-0.551423	0.094021	0.050332	-0.003095
385	1.936022	0.005000	-0.151227	-0.678546	-9.456840	0.417910	-0.570844	-0.550661	0.083557	0.039839	0.005349
386	1.941022	0.005000	-0.148383	-0.605754	-9.473994	0.417910	-0.570617	-0.549899	0.058546	0.032450	0.015396
387	1.946022	0.005000	-0.145864	-0.571551	-9.389456	0.417910	-0.570389	-0.549137	0.031632	0.023036	0.010511
388	1.951022	0.005000	-0.143149	-0.602411	-9.389978	0.417910	-0.570162	-0.548374	0.013282	0.005865	0.022866
389	1.956022	0.005000	-0.072550	-0.549360	-9.209540	0.417910	-0.569934	-0.547612	-0.039641	-0.002796	0.024472
390	1.961022	0.005000	0.097979	-0.549118	-9.182402	0.417910	-0.569707	-0.546850	-0.014370	-0.030080	0.017265
391	1.966022	0.005000	-0.056137	-0.549360	-9.282983	0.417910	-0.569479	-0.546088	-0.012072	-0.017016	0.028028
392	1.971022	0.005000	-0.117720	-0.574547	-9.353173	0.417910	-0.569252	-0.545326	-0.000353	0.001545	0.007610
393	1.976022	0.005000	-0.101836	-0.561038	-9.417600	0.417910	-0.569025	-0.544564	0.010783	0.016710	0.007113
394	1.981022	0.005000	-0.187366	-0.501286	-9.417600	0.417910	-0.568797	-0.543802	0.042174	0.026340	0.004301
395	1.986022	0.005000	-0.156960	-0.470880	-9.444859	0.417866	-0.568745	-0.543577	0.059447	0.016127	0.019762
396	1.991022	0.005000	-0.039240	-0.477173	-9.381506	0.417752	-0.568972	-0.544213	0.057942	0.020073	0.007534
397	1.996022	0.005000	-0.079236	-0.665567	-9.496836	0.417639	-0.569200	-0.544849	0.060726	0.018368	0.010605
398	2.001022	0.005000	-0.192025	-0.551448	-9.498168	0.417525	-0.569428	-0.545484	0.050934	0.025317	0.017492
399	2.006022	0.005000	-0.186337	-0.505189	-9.383291	0.417411	-0.569655	-0.546120	0.020378	0.025719	0.013734
400	2.011022	0.005000	-0.086255	-0.431640	-9.299880	0.417297	-0.569883	-0.546756	0.002540	-0.000526	0.022659
401	2.016022	0.005000	-0.010619	-0.374399	-9.242639	0.417183	-0.570111	-0.547391	-0.000565	-0.011065	0.018979
402	2.021022	0.005000	-0.116570	-0.418177	-9.311044	0.417070	-0.570338	-0.548027	0.008554	-0.042984	0.014208
403	2.026022	0.005000	-0.297613	-0.470880	-9.564879	0.416956	-0.570566	-0.548663	0.019723	-0.019637	0.003752
404	2.031022	0.005000	-0.255998	-0.411082	-9.673598	0.416842	-0.570794	-0.549298	0.026536	0.006137	0.007114
405	2.036022	0.005000	-0.296206	-0.374686	-9.639138	0.416728	-0.571021	-0.549934	0.043103	0.048035	0.009774
406	2.041022	0.005000	-0.127220	-0.328790	-9.466340	0.416614	-0.571249	-0.550570	0.045810	0.070727	0.000872
407	2.046022	0.005000	-0.054428	-0.392400	-9.351146	0.416501	-0.571477	-0.551205	0.070524	0.039416	-0.001754
408	2.051022	0.005000	-0.039240	-0.450219	-9.378360	0.416324	-0.571704	-0.551702	0.096810	-0.011289	0.012293
409	2.056022	0.005000	-0.131304	-0.496536	-9.463632	0.415983	-0.571932	-0.551829	0.122208	-0.043288	0.001527
410	2.061022	0.005000	-0.231477	-0.431640	-9.539283	0.415642	-0.572160	-0.551956	0.125080	-0.021455	0.007189
411	2.066022	0.005000	-0.235440	-0.473119	-9.612681	0.415300	-0.572387	-0.552083	0.113629	0.029806	0.008964
412	2.071022	0.005000	-0.272955	-0.549360	-9.499529	0.414959	-0.572615	-0.552210	0.103480	0.065717	0.000871
413	2.076022	0.005000	-0.117720	-0.549360	-9.426737	0.414617	-0.572842	-0.552337	0.090469	0.087873	-0.004948
414	2.081022	0.005000	-0.078480	-0.541948	-9.299880	0.414276	-0.573070	-0.552464	0.073211	0.048317	0.004812
415	2.086022	0.005000	0.019406	-0.520037	-9.280046	0.413935	-0.573297	-0.552591	0.063375	0.009085	0.005305
416	2.091022	0.005000	0.000000	-0.536714	-9.313827	0.413593	-0.573525	-0.552718	0.050456	-0.027523	0.015513
417	2.096022	0.005000	-0.141470	-0.533870	-9.386619	0.413252	-0.573753	-0.552845	0.044470	-0.025851	0.021194
418	2.101022	0.005000	-0.133483	-0.528454	-9.496080	0.412910	-0.573980	-0.552972	0.036851	-0.003976	0.007027
419	2.106022	0.005000	-0.199316	-0.546244	-9.420716	0.412569	-0.574208	-0.553099	0.048643	0.010542	0.009695
420	2.111022	0.005000	-0.156960	-0.542946	-9.378360	0.412228	-0.574435	-0.553226	0.035125	0.028555	0.003975
421	2.116022	0.005000	-0.091323	-0.549360	-9.351963	0.411940	-0.574573	-0.553353	0.032282	0.029467	0.001611
422	2.121022	0.005000	-0.088479	-0.549360	-9.407601	0.411940	-0.574232	-0.553480	0.047653	0.009164	0.008430
423	2.126022	0.005000	-0.092790	-0.588600	-9.417600	0.411940	-0.573891	-0.553607	0.091586	-0.007636	0.007583
424	2.131022	0.005000	-0.117720	-0.557983	-9.434845	0.411940	-0.573550	-0.553734	0.080178	-0.002432	0.016407
425	2.136022	0.005000	-0.158427	-0.629307	-9.571625	0.411940	-0.573209	-0.553861	0.104472	0.000045	0.013867
426	2.141022	0.005000	-0.082610	-0.667080	-9.458217	0.411940	-0.572868	-0.553988	0.094672	0.018053	0.017056
427	2.146022	0.005000	-0.156960	-0.635461	-9.385981	0.411940	-0.572527	-0.554115	0.091146	0.027275	0.009348
428	2.151022	0.005000	-0.150349	-0.588600	-9.378360	0.411940	-0.572186	-0.554242	0.071785	0.028811	0.007784
429	2.156022	0.005000	-0.166415	-0.529029	-9.339120	0.411940	-0.571845	-0.554369	0.066503	0.013801	0.020436
430	2.161022	0.005000	-0.063837	-0.603243	-9.366062	0.411940	-0.571504	-0.554496	0.033387	0.005403	0.011699
431	2.166022	0.005000	-0.093622	-0.658125	-9.432742	0.411940	-0.571162	-0.554623	0.049626	-0.007231	0.012045
432	2.171022	0.005000	-0.214186	-0.627840	-9.357106	0.411940	-0.570821	-0.554750	0.041716	0.001430	-0.000322
433	2.176022	0.005000	-0.138550	-0.667080	-9.341540	0.411940	-0.570480	-0.554877	0.040765	0.001303	0.005084
434	2.181022	0.005000	-0.156960	-0.612086	-9.331388	0.411950	-0.570156	-0.554996	0.055787	0.012351	0.008655
435	2.186022	0.005000	-0.143436	-0.654222	-9.365502	0.412291	-0.570383	-0.554869	0.066500	0.014010	0.002524
436	2.191022	0.005000	0.000000	-0.716667	-9.456840	0.412633	-0.570611	-0.554742	0.067460	0.000472	-0.000104
437	2.196022	0.005000	-0.093486	-0.723051	-9.432606	0.412974	-0.570838	-0.554615	0.070675	0.009163	-0.003899
438	2.201022	0.005000	-0.122379	-0.706320	-9.530661	0.413315	-0.571066	-0.554488	0.085115	-0.001648	-0.006941
439	2.206022	0.005000	-0.119535	-0.668895	-9.376545	0.413657	-0.571293	-0.554361	0.074749	-0.002522	-0.003208
440	2.211022	0.005000	-0.195171	-0.782743	-9.453754	0.413998	-0.571521	-0.554234	0.067576	-0.004684	-0.007903
441	2.216022	0.005000	-0.081939	-0.752478	-9.381819	0.414340	-0.571749	-0.554107	0.066504	0.000722	-0.004213
442	2.221022	0.005000	-0.117720	-0.739297	-9.496080	0.414681	-0.571976	-0.553980	0.057181	0.008925	-0.003502
443	2.226022	0.005000	-0.135933	-0.667080	-9.444920	0.415022	-0.572204	-0.553853	0.031900	0.002408	0.000767
444	2.231022	0.005000	-0.027289	-0.721659	-9.484129	0.415364	-0.572431	-0.553725	0.008703	0.002911	0.004564
445	2.236022	0.005000	-0.014794	-0.706320	-9.417600	0.415705	-0.572659	-0.553598	-0.001322	-0.007360	0.001026
446	2.241022	0.005000	-0.039240	-0.762937	-9.378360	0.416047	-0.572886	-0.553471	-0.008333	-0.007354	-0.007616
447	2.246022	0.005000	0.000000	-0.726333	-9.397587	0.416388	-0.573114	-0.553344	-0.011200	-0.001418	-0.012472
448	2.251022	0.005000	-0.078480	-0.722703	-9.512463	0.416418	-0.573030	-0.553333	-0.015709	-0.004111	0.003264
449	2.256022	0.005000	-0.104181	-0.680619	-9.496080	0.416418	-0.572916	-0.553333	-0.011119	-0.003691	-0.004966
450	2.261022	0.005000	-0.117720	-0.791955	-9.456840	0.416418	-0.572803	-0.553333	-0.009504	-0.001136	-0.000431
451	2.266022	0.005000	-0.109400	-0.728920	-9.487760	0.416418	-0.572689	-0.553333	0.002872	-0.000986	0.010404
452	2.271022	0.005000	-0.117720	-0.650652	-9.451364	0.416418	-0.572575	-0.553333	0.020601	0.000070	0.010208
453	2.276022	0.005000	-0.075848	-0.510120	-9.380992	0.416418	-0.572461	-0.553333	0.022684	0.002024	0.004460
454	2.281022	0.005000	-0.078268	-0.588176	-9.417600	0.416418	-0.572348	-0.553333	0.026591	0.003730	0.009169
455	2.286022	0.005000	-0.160016	-0.664024	-9.417600	0.416418	-0.572234	-0.553333	0.055496	0.002845	0.014006
456	2.291022	0.005000	-0.096179	-0.588600	-9.423500	0.416418	-0.572120	-0.553333	0.066845	0.005869	0.015702
457	2.296022	0.005000	-0.086770	-0.549360	-9.425890	0.416418	-0.572006	-0.553333	0.063149	0.003194	0.013493
458	2.301022	0.005000	-0.089614	-0.510120	-9.524186	0.416418	-0.571893	-0.553333	0.074108	0.006996	0.021542
459	2.306022	0.005000	-0.078480	-0.571930	-9.496080	0.416418	-0.571779	-0.553333	0.054491	0.012723	0.023415
460	2.311022	0.005000	-0.072883	-0.560584	-9.490483	0.416418	-0.571665	-0.553333	0.053846	0.004112	0.035157
461	2.316022	0.005000	-0.039240	-0.549269	-9.476505	0.416327	-0.572004	-0.553030	0.035727	0.012855	0.034840
462	2.321022	0.005000	-0.111941	-0.566091	-9.479349	0.416214	-0.572459	-0.552649	0.036741	0.013882	0.035792
463	2.326022	0.005000	-0.064124	-0.559889	-9.417600	0.416100	-0.572914	-0.552268	0.046375	0.014791	0.034775
464	2.331022	0.005000	-0.133936	-0.510120	-9.417600	0.415986	-0.573369	-0.551887	0.036711	0.012379	0.041852
465	2.336022	0.005000	-0.095816	-0.466312	-9.496080	0.415872	-0.573824	-0.551506	0.049479	0.015553	0.041886
466	2.341022	0.005000	-0.129368	-0.459232	-9.478608	0.415759	-0.574279	-0.551125	0.025545	0.021544	0.042055
467	2.346022	0.005000	-0.092216	-0.431640	-9.381794	0.415645	-0.574734	-0.550744	0.047184	0.004955	0.036234
468	2.351022	0.005000	-0.157550	-0.510120	-9.418780	0.415531	-0.575189	-0.550363	0.041585	0.001303	0.037782
469	2.356022	0.005000	-0.233186	-0.473134	-9.459094	0.415417	-0.575644	-0.549982	0.058095	-0.001923	0.037682
470	2.361022	0.005000	-0.196200	-0.470880	-9.378360	0.415303	-0.576099	-0.549601	0.067286	0.008745	0.036411
471	2.366022	0.005000	-0.061659	-0.502647	-9.410127	0.415190	-0.576554	-0.549219	0.075355	0.008769	0.032638
472	2.371022	0.005000	-0.010317	-0.441957	-9.456840	0.415076	-0.577008	-0.548838	0.088493	0.004615	0.028268
473	2.376022	0.005000	0.013161	-0.483799	-9.430761	0.414962	-0.577463	-0.548457	0.084206	0.013182	0.019309
474	2.381022	0.005000	-0.055245	-0.470880	-9.464071	0.413469	-0.578608	-0.547734	0.095220	0.013455	0.021256
475	2.386022	0.005000	-0.117720	-0.530965	-9.415149	0.411307	-0.580087	-0.546845	0.078156	0.019818	0.026316
476	2.391022	0.005000	-0.138959	-0.528121	-9.396361	0.409145	-0.581567	-0.545955	0.084872	0.018051	0.022827
477	2.396022	0.005000	-0.048165	-0.455723	-9.441683	0.406983	-0.583046	-0.545066	0.075342	0.007795	0.034008
478	2.401022	0.005000	-0.090794	-0.404714	-9.469154	0.404821	-0.584525	-0.544176	0.052354	0.005689	0.030859
479	2.406022	0.005000	-0.029770	-0.401870	-9.456840	0.402659	-0.586005	-0.543287	0.054366	0.005525	0.031821
480	2.411022	0.005000	-0.078480	-0.431640	-9.378360	0.400497	-0.587484	-0.542398	0.035055	0.006259	0.029059
481	2.416022	0.005000	-0.043491	-0.475131	-9.382611	0.398335	-0.588963	-0.541508	0.044275	0.007954	0.013263
482	2.421022	0.005000	-0.113500	-0.512934	-9.417600	0.396173	-0.590443	-0.540619	0.040702	0.004341	0.022963
483	2.426022	0.005000	-0.075606	-0.550797	-9.455403	0.394011	-0.591922	-0.539729	0.040576	0.003971	0.011595
484	2.431022	0.005000	-0.008562	-0.427359	-9.386922	0.391849	-0.593401	-0.538840	0.032891	0.002880	0.024966
485	2.436022	0.005000	-0.071355	-0.399525	-9.378360	0.389687	-0.594880	-0.537950	0.037932	0.004905	0.022114
486	2.441022	0.005000	-0.137658	-0.519453	-9.446871	0.387525	-0.596360	-0.537061	0.056691	0.002925	0.012277
487	2.446022	0.005000	-0.105227	-0.522613	-9.430093	0.387327	-0.596318	-0.536808	0.088808	0.012195	0.021944
488	2.451022	0.005000	-0.126585	-0.377212	-9.402412	0.388692	-0.595067	-0.537062	0.075148	0.006877	0.014589
489	2.456022	0.005000	-0.117720	-0.492088	-9.456840	0.390057	-0.593816	-0.537316	0.072440	0.001544	0.020505
490	2.461022	0.005000	-0.078480	-0.413276	-9.302391	0.391422	-0.592565	-0.537570	0.081917	0.002787	0.003356
491	2.466022	0.005000	-0.054761	-0.423441	-9.433121	0.392787	-0.591314	-0.537824	0.098831	0.010822	0.002794
492	2.471022	0.005000	-0.104895	-0.458820	-9.431190	0.394152	-0.590063	-0.538078	0.083838	0.016905	0.003452
493	2.476022	0.005000	-0.185913	-0.363447	-9.398933	0.395517	-0.588811	-0.538332	0.101923	0.014605	0.013991
494	2.481022	0.005000	-0.156960	-0.510120	-9.432485	0.396882	-0.587560	-0.538586	0.083191	0.011435	0.002288
495	2.486022	0.005000	-0.078480	-0.540163	-9.491481	0.398246	-0.586309	-0.538840	0.075082	0.011383	0.020127
496	2.491022	0.005000	-0.114210	-0.428130	-9.455085	0.399611	-0.585058	-0.539094	0.079123	0.009453	0.013742
497	2.496022	0.005000	-0.001089	-0.391311	-9.417600	0.400976	-0.583807	-0.539348	0.053807	0.011272	0.011829
498	2.501022	0.005000	-0.071552	-0.395864	-9.388752	0.402341	-0.582556	-0.539602	0.056043	-0.002042	0.004685
499	2.506022	0.005000	-0.105104	-0.425332	-9.411292	0.403706	-0.581305	-0.539856	0.053329	0.002627	0.004303
500	2.511022	0.005000	-0.156960	-0.440792	-9.426752	0.404873	-0.580498	-0.540331	0.043786	0.004969	0.015173
501	2.516022	0.005000	-0.156960	-0.522116	-9.417600	0.405783	-0.580271	-0.541093	0.060746	0.004476	0.007706
502	2.521022	0.005000	-0.156960	-0.524960	-9.412321	0.406693	-0.580043	-0.541855	0.082634	0.007480	-0.003672
503	2.526022	0.005000	-0.213884	-0.549360	-9.439156	0.407603	-0.579816	-0.542617	0.085853	0.001624	0.008165
504	2.531022	0.005000	-0.177269	-0.531806	-9.418977	0.408513	-0.579588	-0.543379	0.083835	0.001341	0.005162
505	2.536022	0.005000	-0.235440	-0.526442	-9.450245	0.409423	-0.579361	-0.544141	0.093438	-0.007378	0.010810
506	2.541022	0.005000	-0.221962	-0.510120	-9.496080	0.410333	-0.579133	-0.544903	0.091853	-0.005830	0.004159
507	2.546022	0.005000	-0.167594	-0.520754	-9.485446	0.411242	-0.578906	-0.545665	0.097891	0.005001	-0.004009
508	2.551022	0.005000	-0.180619	-0.549360	-9.488289	0.412152	-0.578678	-0.546427	0.117394	0.003150	0.013307
509	2.556022	0.005000	-0.083427	-0.554307	-9.427493	0.413062	-0.578451	-0.547189	0.100245	0.015369	0.009532
510	2.561022	0.005000	-0.117720	-0.586472	-9.417600	0.413972	-0.578223	-0.547951	0.117059	0.014364	0.005697
511	2.566022	0.005000	-0.117720	-0.549360	-9.417600	0.414882	-0.577996	-0.548714	0.099398	0.017175	-0.002946
512	2.571022	0.005000	-0.072248	-0.552476	-9.306112	0.415792	-0.577769	-0.549476	0.117372	0.014028	0.004798
513	2.576022	0.005000	-0.066560	-0.667080	-9.444920	0.415815	-0.577860	-0.549485	0.137046	0.012201	0.011041
514	2.581022	0.005000	-0.148156	-0.667080	-9.417600	0.413880	-0.578657	-0.547833	0.109604	0.016891	0.006177
515	2.586022	0.005000	-0.156960	-0.616526	-9.473452	0.411946	-0.579453	-0.546181	0.098874	0.013322	0.007578
516	2.591022	0.005000	-0.117720	-0.641863	-9.378360	0.410011	-0.580250	-0.544529	0.097286	0.016527	0.011968
517	2.596022	0.005000	-0.044746	-0.711826	-9.355987	0.408077	-0.581047	-0.542877	0.093378	0.011508	0.009639
518	2.601022	0.005000	-0.098009	-0.726031	-9.417600	0.406143	-0.581843	-0.541225	0.088072	0.015851	0.016504
519	2.606022	0.005000	-0.128536	-0.723005	-9.400915	0.404208	-0.582640	-0.539574	0.086493	0.018937	0.011662
520	2.611022	0.005000	-0.181905	-0.734910	-9.417600	0.402274	-0.583436	-0.537922	0.088682	-0.000382	0.021562
521	2.616022	0.005000	-0.117720	-0.706320	-9.339120	0.400339	-0.584233	-0.536270	0.072320	0.004372	0.011703
522	2.621022	0.005000	-0.178985	-0.745560	-9.434815	0.398405	-0.585029	-0.534618	0.092278	-0.003909	0.009986
523	2.626022	0.005000	-0.162723	-0.712083	-9.490317	0.396470	-0.585826	-0.532966	0.092691	0.007186	0.003015
524	2.631022	0.005000	-0.114332	-0.713097	-9.417600	0.394536	-0.586623	-0.531314	0.091816	0.014084	-0.000322
525	2.636022	0.005000	-0.233806	-0.784255	-9.419234	0.392601	-0.587419	-0.529662	0.090212	0.004451	0.007404
526	2.641022	0.005000	-0.154661	-0.745560	-9.461439	0.391445	-0.587860	-0.528680	0.060463	0.008482	-0.000789
527	2.646022	0.005000	-0.337730	-0.824040	-9.407313	0.393492	-0.586836	-0.530459	0.034675	0.016550	0.001661
528	2.651022	0.005000	-0.251414	-0.894533	-9.339120	0.395539	-0.585813	-0.532237	-0.017884	0.088410	-0.000711
529	2.656022	0.005000	-0.031132	-0.716697	-9.328743	0.397587	-0.584789	-0.534015	-0.049001	0.122534	-0.014778
530	2.661022	0.005000	0.012798	-0.706320	-9.417600	0.399634	-0.583765	-0.535793	-0.090686	0.074126	-0.004994
531	2.666022	0.005000	0.000000	-0.831150	-9.574560	0.401681	-0.582742	-0.537571	-0.108389	0.011344	-0.003091
532	2.671022	0.005000	-0.001422	-0.845793	-9.632709	0.403728	-0.581718	-0.539349	-0.114023	-0.068177	0.010854
533	2.676022	0.005000	-0.117720	-0.767313	-9.613800	0.405776	-0.580694	-0.541128	-0.096853	-0.090634	0.011158
534	2.681022	0.005000	-0.187184	-0.673176	-9.755648	0.407823	-0.579671	-0.542906	-0.073193	-0.072979	0.015515
535	2.686022	0.005000	-0.247708	-0.669515	-9.670179	0.409870	-0.578647	-0.544684	-0.057152	0.005472	0.010459
536	2.691022	0.005000	-0.235440	-0.608991	-9.387784	0.411917	-0.577623	-0.546462	-0.027062	0.072160	0.007291
537	2.696022	0.005000	-0.097979	-0.582020	-9.345458	0.413965	-0.576600	-0.548240	0.016436	0.110231	0.000326
538	2.701022	0.005000	0.039240	-0.495174	-9.114889	0.416012	-0.575576	-0.550018	0.056560	0.104633	-0.006211
539	2.706022	0.005000	0.077577	-0.353160	-9.102777	0.417869	-0.574627	-0.551676	0.097476	0.057559	-0.000279
540	2.711022	0.005000	0.039240	-0.428645	-9.102182	0.417300	-0.574627	-0.551803	0.113496	0.011670	-0.003500
541	2.716022	0.005000	0.008683	-0.510120	-9.286855	0.416731	-0.574627	-0.551930	0.126497	-0.027873	0.002929
542	2.721022	0.005000	-0.078480	-0.645524	-9.488895	0.416162	-0.574627	-0.552057	0.116322	-0.017494	0.001198
543	2.726022	0.005000	-0.136901	-0.667080	-9.652163	0.415593	-0.574627	-0.552184	0.090392	-0.013635	-0.004335
544	2.731022	0.005000	-0.235440	-0.549360	-9.574560	0.415024	-0.574627	-0.552311	0.051591	-0.003648	0.001059
545	2.736022	0.005000	-0.196200	-0.651832	-9.622544	0.414455	-0.574627	-0.552438	0.015901	0.003122	0.002388
546	2.741022	0.005000	-0.117720	-0.648988	-9.553412	0.413886	-0.574627	-0.552565	0.003012	0.004214	0.007250
547	2.746022	0.005000	-0.177896	-0.667080	-9.441168	0.413317	-0.574627	-0.552692	-0.025764	-0.000383	0.014927
548	2.751022	0.005000	-0.141313	-0.612193	-9.378360	0.412748	-0.574627	-0.552819	-0.021328	-0.007711	0.013474
549	2.756022	0.005000	0.052310	-0.483965	-9.286795	0.412180	-0.574627	-0.552946	-0.010657	-0.017166	0.020966
550	2.761022	0.005000	-0.078480	-0.549360	-9.359602	0.411611	-0.574627	-0.553073	-0.002488	-0.016419	0.015585
551	2.766022	0.005000	-0.007397	-0.541963	-9.424997	0.411042	-0.574627	-0.553200	0.006779	-0.032016	0.021724
552	2.771022	0.005000	-0.018426	-0.466273	-9.569953	0.410473	-0.574627	-0.553327	0.027797	-0.022815	0.013465
553	2.776022	0.005000	-0.235440	-0.473043	-9.496080	0.410666	-0.575062	-0.553212	0.059493	-0.023680	0.018434
554	2.781022	0.005000	-0.273999	-0.433001	-9.496080	0.410893	-0.575517	-0.553085	0.057130	-0.004651	0.018645
555	2.786022	0.005000	-0.235440	-0.435165	-9.385409	0.411120	-0.575972	-0.552958	0.069555	0.020913	0.010196
556	2.791022	0.005000	-0.156960	-0.504149	-9.372389	0.411348	-0.576427	-0.552831	0.068366	0.035818	0.011211
557	2.796022	0.005000	0.000000	-0.488367	-9.387104	0.411575	-0.576882	-0.552704	0.070087	0.042114	0.009199
558	2.801022	0.005000	-0.039240	-0.604665	-9.288293	0.411803	-0.577337	-0.552577	0.082461	0.025357	0.014294
559	2.806022	0.005000	0.053671	-0.603031	-9.353551	0.412030	-0.577792	-0.552450	0.089869	0.004959	0.021017
560	2.811022	0.005000	0.039240	-0.627840	-9.321845	0.412258	-0.578247	-0.552323	0.079175	-0.019269	0.020866
561	2.816022	0.005000	0.000182	-0.686655	-9.417600	0.412485	-0.578702	-0.552196	0.066664	-0.035813	0.030681
562	2.821022	0.005000	-0.100989	-0.627840	-9.535320	0.412713	-0.579157	-0.552069	0.051980	-0.017384	0.023240
563	2.826022	0.005000	-0.143073	-0.627840	-9.482193	0.412940	-0.579612	-0.551942	0.021578	-0.007516	0.035956
564	2.831022	0.005000	-0.039240	-0.549360	-9.507123	0.413168	-0.580066	-0.551815	0.004800	-0.006922	0.029672
565	2.836022	0.005000	-0.016398	-0.611442	-9.448641	0.413395	-0.580521	-0.551688	0.018935	-0.013792	0.029610
566	2.841022	0.005000	-0.146250	-0.577890	-9.344475	0.413623	-0.579933	-0.551773	0.015798	0.002303	0.036684
567	2.846022	0.005000	-0.084440	-0.434620	-9.378360	0.413850	-0.579136	-0.551900	0.029869	-0.007561	0.025015
568	2.851022	0.005000	-0.195928	-0.509984	-9.339392	0.414078	-0.578340	-0.552027	0.027042	-0.002077	0.021850
569	2.856022	0.005000	-0.154252	-0.507412	-9.454132	0.414305	-0.577543	-0.552154	0.025727	0.011946	0.013979
570	2.861022	0.005000	-0.128823	-0.364263	-9.339120	0.414533	-0.576747	-0.552281	0.035627	0.028027	0.015357
571	2.866022	0.005000	-0.055309	-0.470880	-9.339120	0.414761	-0.575950	-0.552408	0.043583	0.040860	0.009745
572	2.871022	0.005000	-0.021571	-0.510120	-9.452937	0.414988	-0.575153	-0.552535	0.055088	0.028869	-0.000143
573	2.876022	0.005000	-0.011981	-0.496490	-9.535320	0.415216	-0.574357	-0.552662	0.081309	-0.007875	0.011681
574	2.881022	0.005000	-0.062006	-0.549360	-9.496080	0.415443	-0.573560	-0.552789	0.094022	-0.021555	0.012602
575	2.886022	0.005000	-0.176036	-0.589687	-9.496080	0.415671	-0.572764	-0.552916	0.118812	-0.036727	0.013366
576	2.891022	0.005000	-0.178652	-0.631985	-9.439292	0.415899	-0.571967	-0.553043	0.117340	-0.015167	0.003918
577	2.896022	0.005000	-0.078480	-0.613136	-9.481376	0.416126	-0.571171	-0.553170	0.106428	0.005570	0.009541
578	2.901022	0.005000	-0.105860	-0.537500	-9.472361	0.416354	-0.570374	-0.553297	0.079183	0.034904	0.001187
579	2.906022	0.005000	-0.050071	-0.568299	-9.408130	0.416418	-0.570639	-0.553606	0.047041	0.035197	0.000050
580	2.911022	0.005000	-0.045881	-0.621199	-9.378360	0.416418	-0.571321	-0.553987	0.052682	0.010149	-0.001205
581	2.916022	0.005000	-0.007594	-0.584803	-9.417600	0.416418	-0.572003	-0.554368	0.028938	-0.007646	-0.000317
582	2.921022	0.005000	-0.156960	-0.706320	-9.419506	0.416418	-0.572686	-0.554749	0.029126	-0.028182	0.003421
583	2.926022	0.005000	-0.156960	-0.668534	-9.571652	0.416418	-0.573368	-0.555130	-0.015885	-0.019239	0.008201
584	2.931022	0.005000	-0.305358	-0.510120	-9.461121	0.416418	-0.574051	-0.555511	-0.008032	-0.006920	0.001112
585	2.936022	0.005000	-0.313920	-0.556485	-9.456840	0.416418	-0.574733	-0.555892	-0.010273	0.005331	0.006133
586	2.941022	0.005000	-0.274680	-0.559329	-9.417600	0.416418	-0.575415	-0.556273	0.001106	0.026484	0.004080
587	2.946022	0.005000	-0.156960	-0.509318	-9.430413	0.416418	-0.576098	-0.556655	0.003372	0.022118	0.005458
588	2.951022	0.005000	-0.078480	-0.446828	-9.489757	0.416418	-0.576780	-0.557036	0.007441	0.013121	-0.007826
589	2.956022	0.005000	-0.199377	-0.449672	-9.456840	0.416418	-0.577463	-0.557417	0.038360	-0.002978	-0.001524
590	2.961022	0.005000	-0.217076	-0.450004	-9.459351	0.416418	-0.578145	-0.557798	0.042938	-0.007351	0.000281
591	2.966022	0.005000	-0.180498	-0.470880	-9.496080	0.416418	-0.578827	-0.558179	0.057270	-0.003735	-0.006823
592	2.971022	0.005000	-0.117720	-0.496990	-9.430579	0.416080	-0.579307	-0.557728	0.087249	0.011638	-0.001381
593	2.976022	0.005000	-0.126100	-0.569933	-9.369980	0.415511	-0.579648	-0.556712	0.088488	0.034819	-0.007985
594	2.981022	0.005000	-0.125163	-0.517563	-9.481195	0.414942	-0.579990	-0.555695	0.103654	0.029913	-0.003585
595	2.986022	0.005000	-0.127029	-0.554014	-9.383014	0.414373	-0.580331	-0.554679	0.093626	0.013932	-0.005220
596	2.991022	0.005000	-0.080704	-0.588600	-9.419824	0.413804	-0.580673	-0.553662	0.083545	-0.004609	-0.004174
597	2.996022	0.005000	-0.079100	-0.549980	-9.418220	0.413235	-0.581014	-0.552646	0.065391	-0.017356	-0.000165
598	3.001022	0.005000	-0.121184	-0.670544	-9.524928	0.412666	-0.581355	-0.551629	0.055103	-0.014309	-0.004803
599	3.006022	0.005000	-0.144344	-0.594908	-9.318804	0.412097	-0.581697	-0.550613	0.041107	-0.010877	-0.001772
600	3.011022	0.005000	-0.226742	-0.653934	-9.378360	0.411528	-0.582038	-0.549596	0.036164	0.007104	-0.002910
601	3.016022	0.005000	-0.168502	-0.560902	-9.417600	0.410959	-0.582380	-0.548580	0.033167	0.011990	-0.003908
602	3.021022	0.005000	-0.128188	-0.578132	-9.428068	0.410390	-0.582721	-0.547563	0.019733	0.013699	0.001827
603	3.026022	0.005000	-0.139996	-0.493156	-9.412287	0.409821	-0.583063	-0.546547	0.023915	0.005900	0.010456
604	3.031022	0.005000	-0.078450	-0.588600	-9.378390	0.409252	-0.583404	-0.545530	0.027818	-0.005903	0.005347
605	3.036022	0.005000	-0.112062	-0.538226	-9.440049	0.409009	-0.583528	-0.545304	0.039286	-0.004429	-0.005097
606	3.041022	0.005000	-0.196200	-0.484827	-9.563215	0.409123	-0.583414	-0.545940	0.032229	-0.004235	0.001112
607	3.046022	0.005000	-0.156960	-0.588600	-9.552353	0.409237	-0.583300	-0.546575	0.025204	0.007172	0.003609
608	3.051022	0.005000	-0.187844	-0.541004	-9.448484	0.409351	-0.583186	-0.547211	0.037312	0.021547	0.008170
609	3.056022	0.005000	-0.117720	-0.515989	-9.423469	0.409465	-0.583072	-0.547846	0.041752	0.008679	0.004192
610	3.061022	0.005000	-0.087556	-0.585575	-9.456840	0.409579	-0.582959	-0.548482	0.040682	0.017336	-0.000211
611	3.066022	0.005000	-0.156778	-0.627658	-9.378360	0.409693	-0.582845	-0.549118	0.036043	0.008075	0.006767
612	3.071022	0.005000	-0.190875	-0.515445	-9.341782	0.409807	-0.582731	-0.549753	0.028693	0.006694	-0.001944
613	3.076022	0.005000	-0.162453	-0.476373	-9.417600	0.409921	-0.582617	-0.550389	0.040136	0.003964	0.015134
614	3.081022	0.005000	-0.149079	-0.533597	-9.621515	0.410034	-0.582503	-0.551024	0.030793	0.005823	0.018712
615	3.086022	0.005000	-0.135510	-0.520845	-9.449776	0.410148	-0.582390	-0.551660	0.010788	0.002343	0.010013
616	3.091022	0.005000	-0.170529	-0.433107	-9.431169	0.410262	-0.582276	-0.552296	0.026943	0.001681	0.016407
617	3.096022	0.005000	-0.094893	-0.454467	-9.355533	0.410376	-0.582162	-0.552931	0.024849	0.009260	0.009670
618	3.101022	0.005000	-0.039240	-0.587874	-9.358377	0.410615	-0.581797	-0.552959	0.059448	0.004872	0.014196
619	3.106022	0.005000	-0.100112	-0.549360	-9.395968	0.411070	-0.581001	-0.551943	0.035191	0.007821	0.014186
620	3.111022	0.005000	-0.117720	-0.446404	-9.525608	0.411525	-0.580205	-0.550927	0.056111	0.009494	0.010673
621	3.116022	0.005000	-0.078480	-0.419720	-9.547240	0.411980	-0.579408	-0.549911	0.065818	0.007260	0.015348
622	3.121022	0.005000	-0.168971	-0.479956	-9.496080	0.412435	-0.578612	-0.548895	0.064985	0.011822	0.017679
623	3.126022	0.005000	-0.117720	-0.503434	-9.528634	0.412890	-0.577816	-0.547879	0.072603	0.010279	0.012472
624	3.131022	0.005000	-0.074638	-0.502435	-9.460682	0.413345	-0.577020	-0.546863	0.074429	0.013817	0.014955
625	3.136022	0.005000	-0.038242	-0.434635	-9.495082	0.413800	-0.576224	-0.545847	0.066325	0.010385	0.007090
626	3.141022	0.005000	-0.037394	-0.511966	-9.494234	0.414255	-0.575428	-0.544831	0.077305	0.009430	0.005725
627	3.146022	0.005000	-0.087859	-0.466191	-9.422289	0.414710	-0.574631	-0.543815	0.073827	0.005063	0.000057
628	3.151022	0.005000	-0.053369	-0.535231	-9.392489	0.415165	-0.573835	-0.542799	0.084281	0.001708	0.009235
629	3.156022	0.005000	-0.068572	-0.529937	-9.417600	0.415620	-0.573039	-0.541783	0.061562	0.011063	0.003726
630	3.161022	0.005000	-0.130472	-0.550343	-9.403864	0.416075	-0.572243	-0.540767	0.070476	-0.002371	0.013343
631	3.166022	0.005000	-0.148912	-0.549360	-9.402004	0.416418	-0.571642	-0.540218	0.034146	0.007498	0.008385
632	3.171022	0.005000	-0.178214	-0.613121	-9.363641	0.416418	-0.571642	-0.541108	0.053519	-0.001718	0.004467
633	3.176022	0.005000	-0.175370	-0.591020	-9.399190	0.416418	-0.571642	-0.541997	0.051707	0.003722	0.008065
634	3.181022	0.005000	-0.180634	-0.533794	-9.393926	0.416418	-0.571642	-0.542887	0.059086	0.003346	0.003816
635	3.186022	0.005000	-0.183478	-0.484676	-9.403804	0.416418	-0.571642	-0.543776	0.065168	0.005089	0.006417
636	3.191022	0.005000	-0.166838	-0.519998	-9.417600	0.416418	-0.571642	-0.544666	0.048314	0.017687	-0.001138
637	3.196022	0.005000	-0.188697	-0.566091	-9.346623	0.416418	-0.571642	-0.545555	0.046743	0.008158	-0.000942
638	3.201022	0.005000	-0.265362	-0.554019	-9.447522	0.416418	-0.571642	-0.546445	0.066447	0.001754	0.009361
639	3.206022	0.005000	-0.194385	-0.626025	-9.378360	0.416418	-0.571642	-0.547334	0.073159	0.003878	-0.000997
640	3.211022	0.005000	-0.118749	-0.473966	-9.454783	0.416418	-0.571642	-0.548224	0.078625	-0.003509	-0.000190
641	3.216022	0.005000	-0.192327	-0.545487	-9.492207	0.416418	-0.571642	-0.549113	0.075956	0.005922	-0.009411
642	3.221022	0.005000	-0.123983	-0.621577	-9.372097	0.416418	-0.571642	-0.550003	0.091102	0.002751	-0.012968
643	3.226022	0.005000	-0.108613	-0.676187	-9.456840	0.416418	-0.571642	-0.550892	0.083691	0.012911	-0.012329
644	3.231022	0.005000	-0.168911	-0.627840	-9.496080	0.416389	-0.571657	-0.551683	0.078083	0.004279	-0.012197
645	3.236022	0.005000	-0.199936	-0.652755	-9.378360	0.416161	-0.571770	-0.551810	0.052328	0.014716	-0.006956
646	3.241022	0.005000	-0.174129	-0.627840	-9.417600	0.415934	-0.571884	-0.551937	0.049869	0.012218	-0.008302
647	3.246022	0.005000	-0.157747	-0.647067	-9.496080	0.415706	-0.571998	-0.552064	0.040719	0.003723	-0.006483
648	3.251022	0.005000	-0.117720	-0.656577	-9.496080	0.415479	-0.572111	-0.552191	0.030520	-0.000881	-0.011836
649	3.256022	0.005000	-0.103712	-0.616616	-9.454057	0.415251	-0.572225	-0.552318	0.032158	-0.001938	-0.003699
650	3.261022	0.005000	-0.111972	-0.672496	-9.361448	0.415024	-0.572339	-0.552445	0.010321	-0.002197	-0.007938
651	3.266022	0.005000	-0.249720	-0.728920	-9.425920	0.414796	-0.572453	-0.552572	0.015345	0.005030	-0.013497
652	3.271022	0.005000	-0.112244	-0.672556	-9.451364	0.414569	-0.572566	-0.552699	0.027772	0.000994	0.001088
653	3.276022	0.005000	-0.193537	-0.703657	-9.420263	0.414341	-0.572680	-0.552826	0.015650	0.008447	-0.007131
654	3.281022	0.005000	-0.157202	-0.588600	-9.456840	0.414114	-0.572794	-0.552953	0.026572	-0.001834	-0.009009
655	3.286022	0.005000	-0.159562	-0.625238	-9.420202	0.413886	-0.572907	-0.553080	0.024357	0.007857	-0.005087
656	3.291022	0.005000	-0.196200	-0.627840	-9.445948	0.413659	-0.573021	-0.553207	0.039021	0.001082	-0.007225
657	3.296022	0.005000	-0.196200	-0.565939	-9.448550	0.413435	-0.573135	-0.553331	0.061645	-0.002352	-0.005428
658	3.301022	0.005000	-0.185406	-0.599394	-9.485286	0.413777	-0.573249	-0.553077	0.073488	-0.003841	-0.006333
659	3.306022	0.005000	-0.143451	-0.537137	-9.456840	0.414118	-0.573362	-0.552823	0.072759	0.002459	-0.006768
660	3.311022	0.005000	-0.235440	-0.611487	-9.433953	0.414459	-0.573476	-0.552569	0.065040	0.007976	-0.009128
661	3.316022	0.005000	-0.235440	-0.607796	-9.476036	0.414800	-0.573590	-0.552315	0.066803	0.012478	-0.001966
662	3.321022	0.005000	-0.161398	-0.601563	-9.395761	0.415142	-0.573704	-0.552061	0.066550	0.020689	-0.000266
663	3.326022	0.005000	-0.122909	-0.652270	-9.417600	0.415483	-0.573818	-0.551807	0.080676	0.012661	-0.013171
664	3.331022	0.005000	-0.196200	-0.706320	-9.378360	0.415824	-0.573932	-0.551553	0.068166	0.000987	0.000526
665	3.336022	0.005000	-0.166082	-0.775678	-9.248765	0.416166	-0.574045	-0.551298	0.063102	0.008943	0.006670
666	3.341022	0.005000	-0.117720	-0.667080	-9.339120	0.416507	-0.574159	-0.551044	0.052592	0.007426	0.009790
667	3.346022	0.005000	-0.082383	-0.635646	-9.374457	0.416848	-0.574273	-0.550790	0.032100	0.012574	0.008059
668	3.351022	0.005000	-0.080598	-0.784800	-9.337002	0.417190	-0.574387	-0.550536	0.016413	0.003131	0.012630
669	3.356022	0.005000	-0.119505	-0.747345	-9.335550	0.417531	-0.574501	-0.550282	0.015281	0.008651	0.002337
670	3.361022	0.005000	-0.122349	-0.602487	-9.408342	0.417872	-0.574614	-0.550028	0.014667	0.016152	0.007826
671	3.366022	0.005000	-0.134541	-0.549360	-9.449367	0.417707	-0.574323	-0.549548	0.016877	-0.003695	0.010574
672	3.371022	0.005000	-0.176686	-0.559223	-9.456840	0.417480	-0.573982	-0.549039	0.008093	0.004799	0.010235
673	3.376022	0.005000	-0.156960	-0.562067	-9.456840	0.417252	-0.573640	-0.548531	0.026663	0.010950	0.020262
674	3.381022	0.005000	-0.156960	-0.510120	-9.464978	0.417025	-0.573299	-0.548023	0.024096	0.010899	0.013386
675	3.386022	0.005000	-0.177805	-0.567755	-9.456840	0.416797	-0.572958	-0.547514	0.033267	0.007229	0.010254
676	3.391022	0.005000	-0.214419	-0.588600	-9.459642	0.416570	-0.572616	-0.547006	0.041979	0.006775	0.019041
677	3.396022	0.005000	-0.180574	-0.588600	-9.448853	0.416342	-0.572275	-0.546498	0.043188	0.011443	0.013765
678	3.401022	0.005000	-0.156960	-0.562142	-9.365578	0.416114	-0.571933	-0.545990	0.049526	0.006903	0.014875
679	3.406022	0.005000	-0.235440	-0.598024	-9.289941	0.415887	-0.571592	-0.545481	0.047676	0.002909	0.017249
680	3.411022	0.005000	-0.228260	-0.524481	-9.353481	0.415659	-0.571251	-0.544973	0.047473	0.005123	0.012372
681	3.416022	0.005000	-0.235440	-0.558799	-9.456840	0.415432	-0.570909	-0.544465	0.041790	0.008722	0.011073
682	3.421022	0.005000	-0.312044	-0.584848	-9.419476	0.415204	-0.570568	-0.543956	0.036519	0.010097	0.002553
683	3.426022	0.005000	-0.159864	-0.510120	-9.456840	0.414977	-0.570226	-0.543448	0.036057	0.000741	0.015223
684	3.431022	0.005000	-0.196200	-0.506308	-9.456840	0.415013	-0.570237	-0.543923	-0.002556	0.012746	0.007533
685	3.436022	0.005000	-0.163616	-0.438296	-9.404288	0.415127	-0.570351	-0.544685	0.016620	0.002064	0.011122
686	3.441022	0.005000	-0.166006	-0.470880	-9.447794	0.415241	-0.570465	-0.545447	0.017926	0.011218	0.009966
687	3.446022	0.005000	-0.117720	-0.498230	-9.496080	0.415355	-0.570579	-0.546210	0.024092	0.015895	0.014892
688	3.451022	0.005000	-0.220706	-0.510120	-9.535320	0.415468	-0.570692	-0.546972	0.024607	0.014030	0.021562
689	3.456022	0.005000	-0.257364	-0.475488	-9.373752	0.415582	-0.570806	-0.547735	0.020502	0.015743	0.015513
690	3.461022	0.005000	-0.254727	-0.469549	-9.516033	0.415696	-0.570920	-0.548497	0.018541	0.015176	0.018693
691	3.466022	0.005000	-0.179757	-0.565803	-9.440397	0.415810	-0.571034	-0.549259	0.016426	0.020024	0.015775
692	3.471022	0.005000	-0.184159	-0.535761	-9.429641	0.415924	-0.571148	-0.550022	0.033126	0.016959	0.022445
693	3.476022	0.005000	-0.196200	-0.459999	-9.378360	0.416037	-0.571261	-0.550784	0.030687	0.012046	0.025453
694	3.481022	0.005000	-0.173691	-0.431640	-9.347485	0.416151	-0.571375	-0.551547	0.036784	0.019880	0.016679
695	3.486022	0.005000	-0.190679	-0.392400	-9.423121	0.416265	-0.571489	-0.552309	0.061387	0.007332	0.019853
696	3.491022	0.005000	-0.115042	-0.468202	-9.386393	0.416379	-0.571603	-0.553071	0.056890	0.012401	0.016093
697	3.496022	0.005000	-0.078480	-0.470714	-9.496080	0.416567	-0.571567	-0.553416	0.083353	0.007689	0.018756
698	3.501022	0.005000	-0.154388	-0.473452	-9.417600	0.416795	-0.571453	-0.553543	0.079560	0.011425	0.012591
699	3.506022	0.005000	-0.117720	-0.476265	-9.344505	0.417022	-0.571340	-0.553671	0.073161	0.010586	0.011078
700	3.511022	0.005000	-0.140502	-0.518349	-9.417600	0.417250	-0.571226	-0.553798	0.086752	0.008214	0.008171
701	3.516022	0.005000	-0.078480	-0.510120	-9.389433	0.417477	-0.571112	-0.553925	0.088435	0.008834	0.004613
702	3.521022	0.005000	-0.130034	-0.431640	-9.443377	0.417705	-0.570998	-0.554052	0.062057	0.007207	0.008615
703	3.526022	0.005000	-0.078480	-0.415333	-9.519013	0.417932	-0.570885	-0.554179	0.051638	0.008742	0.018631
704	3.531022	0.005000	-0.019151	-0.430702	-9.436751	0.418160	-0.570771	-0.554306	0.040233	0.007316	0.019977
705	3.536022	0.005000	0.021995	-0.492875	-9.439595	0.418387	-0.570657	-0.554433	0.045196	0.007967	0.019503
706	3.541022	0.005000	-0.078480	-0.485750	-9.441970	0.418615	-0.570543	-0.554560	0.037327	0.010338	0.017354
707	3.546022	0.005000	-0.105694	-0.380374	-9.444814	0.418842	-0.570430	-0.554687	0.046440	0.008384	0.020494
708	3.551022	0.005000	-0.108538	-0.431640	-9.435964	0.419070	-0.570316	-0.554814	0.037418	0.021140	0.008693
709	3.556022	0.005000	-0.072142	-0.405077	-9.477065	0.419297	-0.570202	-0.554941	0.053691	0.004343	0.014046
710	3.561022	0.005000	0.000000	-0.510120	-9.424673	0.419342	-0.570331	-0.555000	0.077841	0.006764	0.022863
711	3.566022	0.005000	-0.115481	-0.510120	-9.493841	0.419228	-0.570673	-0.555000	0.065711	0.020790	0.008708
712	3.571022	0.005000	-0.039240	-0.397574	-9.380085	0.419115	-0.571014	-0.555000	0.062376	0.014109	0.013806
713	3.576022	0.005000	-0.004568	-0.549360	-9.378360	0.419001	-0.571356	-0.555000	0.071681	0.012101	0.013415
714	3.581022	0.005000	-0.110680	-0.613760	-9.353200	0.418887	-0.571697	-0.555000	0.072141	0.007427	0.015666
715	3.586022	0.005000	-0.127553	-0.598402	-9.378360	0.418773	-0.572038	-0.555000	0.068039	0.018308	0.010780
716	3.591022	0.005000	-0.103773	-0.562006	-9.430246	0.418659	-0.572380	-0.555000	0.064245	0.015652	0.004674
717	3.596022	0.005000	-0.133210	-0.494630	-9.433090	0.418545	-0.572721	-0.555000	0.065395	0.004592	0.001033
718	3.601022	0.005000	-0.181844	-0.567225	-9.339120	0.418432	-0.573063	-0.555000	0.050070	0.011638	-0.004055
719	3.606022	0.005000	-0.140607	-0.627840	-9.421957	0.418318	-0.573404	-0.555000	0.050914	-0.002398	0.001610
720	3.611022	0.005000	-0.070614	-0.620019	-9.386181	0.418204	-0.573745	-0.555000	0.031112	0.004683	-0.009943
721	3.616022	0.005000	-0.169953	-0.627840	-9.430593	0.418090	-0.574087	-0.555000	0.045212	-0.001433	-0.004168
722	3.621022	0.005000	-0.068027	-0.627840	-9.524867	0.417976	-0.574428	-0.555000	0.043946	0.008897	-0.000972
723	3.626022	0.005000	-0.093698	-0.596209	-9.449231	0.417815	-0.574579	-0.554947	0.044715	0.005261	-0.012102
724	3.631022	0.005000	-0.225910	-0.593365	-9.486550	0.417587	-0.574466	-0.554820	0.055140	0.001130	-0.000118
725	3.636022	0.005000	-0.154570	-0.590990	-9.493690	0.417360	-0.574352	-0.554693	0.044358	0.012004	-0.003949
726	3.641022	0.005000	-0.078934	-0.589054	-9.418054	0.417132	-0.574238	-0.554566	0.053263	0.000939	-0.005544
727	3.646022	0.005000	-0.153662	-0.555955	-9.496080	0.416905	-0.574124	-0.554439	0.054247	0.002929	-0.005554
728	3.651022	0.005000	-0.156960	-0.654797	-9.489938	0.416677	-0.574010	-0.554311	0.059479	0.003999	-0.003354
729	3.656022	0.005000	-0.218177	-0.588600	-9.474103	0.416449	-0.573896	-0.554184	0.072095	0.006794	-0.008482
730	3.661022	0.005000	-0.184824	-0.616464	-9.434089	0.416222	-0.573783	-0.554057	0.050103	0.009490	-0.007051
731	3.666022	0.005000	-0.181980	-0.706320	-9.431820	0.415994	-0.573669	-0.553930	0.072088	0.007923	0.004713
732	3.671022	0.005000	-0.134784	-0.627840	-9.356184	0.415767	-0.573555	-0.553803	0.032148	0.012733	-0.006064
733	3.676022	0.005000	-0.137522	-0.686882	-9.398162	0.415539	-0.573441	-0.553676	0.054578	0.001520	0.000853
734	3.681022	0.005000	-0.123045	-0.694687	-9.378360	0.415312	-0.573327	-0.553549	0.043541	0.010229	0.010084
735	3.686022	0.005000	-0.160061	-0.706320	-9.456840	0.415084	-0.573213	-0.553422	0.050118	0.010713	0.001047
736	3.691022	0.005000	-0.161029	-0.761353	-9.378360	0.414616	-0.573752	-0.552490	0.024294	0.011799	0.009739
737	3.696022	0.005000	-0.126600	-0.658200	-9.447960	0.413592	-0.575800	-0.549694	0.030977	0.017115	0.002941
738	3.701022	0.005000	-0.117720	-0.615768	-9.417600	0.412568	-0.577848	-0.546899	0.045834	0.002729	0.004520
739	3.706022	0.005000	-0.156960	-0.579024	-9.444073	0.411544	-0.579897	-0.544104	0.043297	0.001622	0.010079
740	3.711022	0.005000	-0.156143	-0.432457	-9.339120	0.410520	-0.581945	-0.541308	0.061265	0.000000	0.001786
741	3.716022	0.005000	-0.043294	-0.508093	-9.376333	0.409496	-0.583993	-0.538513	0.055195	0.006758	0.010544
742	3.721022	0.005000	-0.112849	-0.578858	-9.496080	0.408472	-0.586041	-0.535717	0.048908	0.006653	0.006425
743	3.726022	0.005000	-0.070765	-0.549360	-9.393790	0.407448	-0.588090	-0.532922	0.052845	0.000126	0.009082
744	3.731022	0.005000	-0.127810	-0.549360	-9.378360	0.406424	-0.590138	-0.530126	0.036822	0.001962	0.012425
745	3.736022	0.005000	-0.209572	-0.562294	-9.443906	0.405400	-0.592186	-0.527331	0.042895	0.000475	0.007092
746	3.741022	0.005000	-0.235440	-0.588600	-9.448606	0.404376	-0.594235	-0.524536	0.040033	0.004643	0.004799
747	3.746022	0.005000	-0.175128	-0.507216	-9.435768	0.403351	-0.596283	-0.521740	0.043540	0.010249	0.010623
748	3.751022	0.005000	-0.159743	-0.531132	-9.559115	0.402327	-0.598331	-0.518945	0.033000	-0.002548	0.005888
749	3.756022	0.005000	-0.148489	-0.540889	-9.519936	0.401240	-0.599979	-0.516691	0.007876	0.010849	0.011508
750	3.761022	0.005000	-0.158124	-0.588600	-9.352976	0.399875	-0.599865	-0.516818	0.036382	0.004368	0.012794
751	3.766022	0.005000	-0.167125	-0.499955	-9.349285	0.398509	-0.599751	-0.516945	0.056558	0.017406	0.013010
752	3.771022	0.005000	-0.260037	-0.549360	-9.314523	0.397144	-0.599637	-0.517072	0.051195	0.014264	0.019570
753	3.776022	0.005000	-0.156960	-0.553838	-9.496080	0.395778	-0.599524	-0.517199	0.051403	0.017714	0.022092
754	3.781022	0.005000	-0.155307	-0.627840	-9.456840	0.394412	-0.599410	-0.517326	0.052011	0.018686	0.013936
755	3.786022	0.005000	-0.156204	-0.743291	-9.341389	0.393047	-0.599296	-0.517453	0.068622	0.021315	0.013589
756	3.791022	0.005000	-0.156960	-0.699119	-9.410399	0.391681	-0.599182	-0.517580	0.045805	0.021510	0.018057
757	3.796022	0.005000	-0.189756	-0.568693	-9.411156	0.390316	-0.599068	-0.517707	0.059757	0.010650	0.003387
758	3.801022	0.005000	-0.127008	-0.558648	-9.426888	0.388950	-0.598954	-0.517834	0.045906	0.017099	0.013964
759	3.806022	0.005000	-0.078480	-0.549360	-9.417600	0.387585	-0.598841	-0.517961	0.051096	0.009537	0.011967
760	3.811022	0.005000	-0.142453	-0.485387	-9.392867	0.386219	-0.598727	-0.518088	0.055903	0.012245	0.013332
761	3.816022	0.005000	-0.091293	-0.536547	-9.356471	0.384854	-0.598613	-0.518215	0.051334	0.014134	0.013544
762	3.821022	0.005000	-0.078480	-0.608795	-9.417600	0.383652	-0.598499	-0.518429	0.049444	0.005454	0.012576
763	3.826022	0.005000	-0.117720	-0.566015	-9.496080	0.384676	-0.598386	-0.519826	0.040520	0.013202	0.012782
764	3.831022	0.005000	-0.117720	-0.537742	-9.493887	0.385700	-0.598272	-0.521223	0.034165	0.010054	0.017971
765	3.836022	0.005000	-0.128687	-0.543022	-9.406633	0.386723	-0.598158	-0.522620	0.031624	0.012937	0.021710
766	3.841022	0.005000	-0.148738	-0.557582	-9.450486	0.387747	-0.598044	-0.524017	0.038807	0.011762	0.014050
767	3.846022	0.005000	-0.151212	-0.594348	-9.462588	0.388770	-0.597931	-0.525415	0.031073	0.008389	0.011659
768	3.851022	0.005000	-0.114816	-0.594409	-9.381264	0.389794	-0.597817	-0.526812	0.024244	0.012625	0.018354
769	3.856022	0.005000	-0.117720	-0.588418	-9.417661	0.390818	-0.597703	-0.528209	0.036357	0.006957	0.008776
770	3.861022	0.005000	-0.081263	-0.470880	-9.311014	0.391841	-0.597590	-0.529606	0.030739	0.007846	0.011030
771	3.866022	0.005000	-0.073246	-0.544126	-9.294646	0.392865	-0.597476	-0.531003	0.036182	0.011465	0.009924
772	3.871022	0.005000	-0.062445	-0.526155	-9.386377	0.393889	-0.597362	-0.532400	0.035485	0.009672	0.017308
773	3.876022	0.005000	-0.185339	-0.510120	-9.417600	0.394912	-0.597249	-0.533797	0.027393	0.011201	0.015881
774	3.881022	0.005000	-0.143270	-0.510120	-9.443150	0.395936	-0.597135	-0.535194	0.032228	0.005341	0.016654
775	3.886022	0.005000	-0.095014	-0.526654	-9.434134	0.396960	-0.597021	-0.536592	0.030307	0.005960	0.000338
776	3.891022	0.005000	-0.137814	-0.530214	-9.417600	0.398199	-0.595616	-0.537388	0.040085	-0.000897	0.006593
777	3.896022	0.005000	-0.139488	-0.470880	-9.461136	0.399451	-0.594136	-0.538151	0.038202	0.005218	0.011510
778	3.901022	0.005000	-0.166944	-0.431640	-9.402972	0.400703	-0.592657	-0.538913	0.042089	0.006503	0.006571
779	3.906022	0.005000	-0.129504	-0.431640	-9.339120	0.401954	-0.591178	-0.539675	0.038427	0.001509	0.006620
780	3.911022	0.005000	-0.090899	-0.431640	-9.456840	0.403206	-0.589698	-0.540438	0.028829	0.005974	0.011326
781	3.916022	0.005000	-0.090820	-0.437810	-9.411430	0.404458	-0.588219	-0.541200	0.033172	-0.002770	0.004901
782	3.921022	0.005000	-0.082201	-0.470880	-9.378360	0.405709	-0.586740	-0.541963	0.023690	0.007387	-0.005072
783	3.926022	0.005000	-0.194445	-0.509243	-9.378360	0.406961	-0.585261	-0.542725	0.045714	0.003852	-0.007621
784	3.931022	0.005000	-0.080447	-0.508153	-9.415633	0.408213	-0.583781	-0.543487	0.039229	-0.002430	-0.002652
785	3.936022	0.005000	-0.191390	-0.510120	-9.452030	0.409465	-0.582302	-0.544250	0.057603	0.000437	-0.001491
786	3.941022	0.005000	-0.164161	-0.406801	-9.378360	0.410716	-0.580823	-0.545012	0.058188	0.006543	-0.004492
787	3.946022	0.005000	-0.235440	-0.470880	-9.505187	0.411968	-0.579343	-0.545775	0.043924	0.011164	0.007846
788	3.951022	0.005000	-0.182737	-0.510120	-9.469728	0.413220	-0.577864	-0.546537	0.060644	0.003635	-0.003039
789	3.956022	0.005000	-0.070705	-0.494388	-9.456840	0.412961	-0.577895	-0.546878	0.019488	0.011086	0.012536
790	3.961022	0.005000	-0.081067	-0.510120	-9.475166	0.412392	-0.578236	-0.547132	0.042943	0.011342	0.007214
791	3.966022	0.005000	-0.120382	-0.491831	-9.435889	0.411824	-0.578578	-0.547386	0.046960	0.012877	0.011189
792	3.971022	0.005000	-0.015445	-0.431640	-9.480635	0.411255	-0.578919	-0.547640	0.047393	0.012740	0.011732
793	3.976022	0.005000	-0.012601	-0.496082	-9.404999	0.410686	-0.579260	-0.547894	0.055862	0.009046	0.010385
794	3.981022	0.005000	-0.019726	-0.569086	-9.417600	0.410118	-0.579601	-0.548148	0.049788	0.013834	0.009819
795	3.986022	0.005000	-0.032327	-0.459293	-9.482254	0.409549	-0.579943	-0.548402	0.061734	0.011102	0.004362
796	3.991022	0.005000	-0.078480	-0.584483	-9.456840	0.408980	-0.580284	-0.548656	0.059958	0.015790	0.012888
797	3.996022	0.005000	-0.156960	-0.583563	-9.419279	0.408411	-0.580625	-0.548910	0.063403	0.014038	0.004835
798	4.001022	0.005000	-0.118885	-0.585106	-9.418765	0.407843	-0.580966	-0.549164	0.060997	0.013325	0.016451
799	4.006022	0.005000	-0.121729	-0.478897	-9.413591	0.407274	-0.581308	-0.549418	0.046483	0.003964	0.011593
800	4.011022	0.005000	-0.175642	-0.535655	-9.417600	0.406705	-0.581649	-0.549672	0.059671	0.001272	0.007977
801	4.016022	0.005000	-0.078480	-0.500892	-9.486852	0.406137	-0.581990	-0.549926	0.061149	0.007582	0.011806
802	4.021022	0.005000	-0.129792	-0.537288	-9.402503	0.406453	-0.581688	-0.550180	0.080129	0.006260	-0.000656
803	4.026022	0.005000	-0.087889	-0.564275	-9.417600	0.407135	-0.581119	-0.550434	0.065419	0.004786	0.011940
804	4.031022	0.005000	-0.117720	-0.549360	-9.496080	0.407818	-0.580550	-0.550688	0.045674	0.015089	0.007121
805	4.036022	0.005000	-0.058331	-0.567392	-9.515171	0.408501	-0.579981	-0.550942	0.065067	0.010265	0.007519
806	4.041022	0.005000	-0.101473	-0.611593	-9.496080	0.409184	-0.579412	-0.551196	0.053625	0.011096	0.009032
807	4.046022	0.005000	-0.156960	-0.549360	-9.417600	0.409866	-0.578843	-0.551450	0.064566	0.013706	0.005713
808	4.051022	0.005000	-0.167658	-0.510120	-9.414049	0.410549	-0.578274	-0.551704	0.051944	0.010646	0.007208
809	4.056022	0.005000	-0.212568	-0.510120	-9.308064	0.411232	-0.577705	-0.551958	0.057476	0.004161	0.006971
810	4.061022	0.005000	-0.219420	-0.470880	-9.417600	0.411915	-0.577136	-0.552213	0.074819	0.003646	0.009572
811	4.066022	0.005000	-0.154464	-0.546864	-9.493584	0.412597	-0.576567	-0.552467	0.060644	0.011348	0.009869
812	4.071022	0.005000	-0.117720	-0.471228	-9.495732	0.413280	-0.575998	-0.552721	0.064440	0.015259	0.016177
813	4.076022	0.005000	-0.156960	-0.477264	-9.460032	0.413963	-0.575429	-0.552975	0.068284	0.009683	0.012162
814	4.081022	0.005000	-0.078480	-0.504553	-9.361387	0.414645	-0.574860	-0.553229	0.063935	0.011359	0.014405
815	4.086022	0.005000	-0.148549	-0.549360	-9.417600	0.415059	-0.574560	-0.553558	0.072827	-0.000887	0.020753
816	4.091022	0.005000	-0.184945	-0.683811	-9.417600	0.415287	-0.574446	-0.553939	0.049017	0.007043	0.007137
817	4.096022	0.005000	-0.064676	-0.692516	-9.496080	0.415515	-0.574332	-0.554321	0.050916	-0.001833	0.018676
818	4.101022	0.005000	-0.202463	-0.611351	-9.496080	0.415742	-0.574218	-0.554702	0.037761	0.004936	0.020171
819	4.106022	0.005000	-0.078480	-0.627265	-9.436933	0.415970	-0.574104	-0.555083	0.026530	0.005487	0.017329
820	4.111022	0.005000	-0.156960	-0.571536	-9.456840	0.416197	-0.573991	-0.555464	0.030208	0.013009	0.010421
821	4.116022	0.005000	-0.117720	-0.613448	-9.363968	0.416425	-0.573877	-0.555845	0.034096	0.006667	0.019734
822	4.121022	0.005000	-0.129565	-0.510120	-9.378360	0.416652	-0.573763	-0.556227	0.038496	0.003793	0.002188
823	4.126022	0.005000	-0.165961	-0.549360	-9.375123	0.416880	-0.573649	-0.556608	0.029051	0.009326	0.017361
824	4.131022	0.005000	-0.183886	-0.510120	-9.438370	0.417108	-0.573535	-0.556989	0.044341	-0.002192	0.005722
825	4.136022	0.005000	-0.150334	-0.425014	-9.453527	0.417335	-0.573422	-0.557370	0.042178	0.003267	0.000589
826	4.141022	0.005000	-0.119566	-0.469957	-9.418523	0.417563	-0.573308	-0.557751	0.043901	0.008270	0.008845
827	4.146022	0.005000	-0.158881	-0.468959	-9.419521	0.417790	-0.573194	-0.558133	0.043004	0.006902	0.011253
828	4.151022	0.005000	-0.083245	-0.406695	-9.417600	0.417425	-0.573080	-0.558333	0.025382	0.013217	0.015159
829	4.156022	0.005000	-0.054458	-0.502511	-9.417600	0.416401	-0.572966	-0.558333	0.045583	-0.002855	0.016661
830	4.161022	0.005000	-0.117720	-0.510120	-9.428053	0.415377	-0.572853	-0.558333	0.045877	0.007180	0.002124
831	4.166022	0.005000	-0.182616	-0.536532	-9.470424	0.414354	-0.572739	-0.558333	0.053736	0.003610	0.003284
832	4.171022	0.005000	-0.054912	-0.549360	-9.386135	0.413330	-0.572625	-0.558333	0.058279	0.004757	0.004060
833	4.176022	0.005000	-0.059964	-0.489396	-9.401293	0.412307	-0.572512	-0.558333	0.054779	0.007373	0.006302
834	4.181022	0.005000	-0.039240	-0.470880	-9.453361	0.411283	-0.572398	-0.558333	0.063319	0.006335	0.012211
835	4.186022	0.005000	-0.124951	-0.455390	-9.488849	0.410260	-0.572284	-0.558333	0.038397	0.005726	0.004648
836	4.191022	0.005000	-0.117720	-0.483526	-9.430246	0.409236	-0.572171	-0.558333	0.044831	0.002412	0.003343
837	4.196022	0.005000	-0.098085	-0.470880	-9.437235	0.408212	-0.572057	-0.558333	0.044464	0.002653	0.004197
838	4.201022	0.005000	-0.189157	-0.503077	-9.431685	0.407189	-0.571943	-0.558333	0.044762	0.000238	-0.010774
839	4.206022	0.005000	-0.108553	-0.475464	-9.456840	0.406165	-0.571829	-0.558333	0.052934	0.004977	0.001739
840	4.211022	0.005000	-0.115980	-0.510120	-9.422819	0.405142	-0.571716	-0.558333	0.054247	0.008569	-0.002668
841	4.216022	0.005000	-0.116616	-0.433849	-9.535320	0.404718	-0.571882	-0.558154	0.071209	-0.001672	-0.002851
842	4.221022	0.005000	-0.114199	-0.499556	-9.456840	0.405400	-0.572564	-0.557646	0.059940	0.014873	0.002575
843	4.226022	0.005000	-0.177230	-0.543037	-9.456840	0.406083	-0.573247	-0.557138	0.066986	0.007839	-0.001211
844	4.231022	0.005000	-0.156960	-0.549360	-9.456840	0.406765	-0.573929	-0.556630	0.071541	0.008794	0.002144
845	4.236022	0.005000	-0.196200	-0.534142	-9.402382	0.407448	-0.574612	-0.556122	0.063139	0.006329	-0.000765
846	4.241022	0.005000	-0.113251	-0.544891	-9.446739	0.408130	-0.575294	-0.555615	0.079566	0.011241	0.006547
847	4.246022	0.005000	-0.100475	-0.588600	-9.383110	0.408812	-0.575976	-0.555107	0.064197	0.010697	0.003354
848	4.251022	0.005000	-0.116782	-0.569449	-9.456840	0.409495	-0.576659	-0.554599	0.072031	0.007528	-0.000474
849	4.256022	0.005000	-0.124346	-0.510120	-9.440533	0.410177	-0.577341	-0.554091	0.066954	0.012829	-0.001784
850	4.261022	0.005000	-0.092106	-0.496494	-9.456840	0.410860	-0.578024	-0.553583	0.059290	0.011161	-0.000632
851	4.266022	0.005000	-0.106632	-0.538272	-9.507168	0.411542	-0.578706	-0.553075	0.044797	0.008553	0.004989
852	4.271022	0.005000	-0.196200	-0.501876	-9.487836	0.412224	-0.579388	-0.552567	0.050167	0.014362	0.005522
853	4.276022	0.005000	-0.162360	-0.572399	-9.462240	0.412907	-0.580071	-0.552059	0.049945	0.006420	0.007484
854	4.281022	0.005000	-0.191087	-0.470880	-9.496080	0.413511	-0.580493	-0.551725	0.060002	0.010083	0.007845
855	4.286022	0.005000	-0.157126	-0.470880	-9.417766	0.413852	-0.580038	-0.551979	0.068244	0.005341	0.004069
856	4.291022	0.005000	-0.159638	-0.544005	-9.456840	0.414194	-0.579582	-0.552233	0.059910	0.000498	0.006771
857	4.296022	0.005000	-0.162481	-0.521163	-9.417600	0.414535	-0.579127	-0.552488	0.059399	0.003077	0.007311
858	4.301022	0.005000	-0.171104	-0.611109	-9.425965	0.414876	-0.578672	-0.552742	0.072683	0.010270	0.013379
859	4.306022	0.005000	-0.178441	-0.606359	-9.524580	0.415218	-0.578217	-0.552996	0.054002	0.009056	0.013956
860	4.311022	0.005000	-0.131304	-0.680664	-9.444768	0.415559	-0.577762	-0.553250	0.050376	-0.002512	0.007529
861	4.316022	0.005000	-0.124104	-0.611412	-9.299880	0.415900	-0.577307	-0.553504	0.039573	0.005089	0.009774
862	4.321022	0.005000	-0.156264	-0.627144	-9.417600	0.416242	-0.576852	-0.553758	0.030017	0.006973	0.008189
863	4.326022	0.005000	-0.034649	-0.566684	-9.382951	0.416583	-0.576396	-0.554012	0.040731	0.001616	0.005586
864	4.331022	0.005000	-0.132454	-0.613106	-9.505852	0.416924	-0.575941	-0.554266	0.045449	0.006813	0.006932
865	4.336022	0.005000	-0.184310	-0.522010	-9.456840	0.417266	-0.575486	-0.554520	0.046608	0.000505	0.009178
866	4.341022	0.005000	-0.126766	-0.570508	-9.444738	0.417607	-0.575031	-0.554775	0.050655	0.008082	-0.001222
867	4.346022	0.005000	-0.117720	-0.581929	-9.456840	0.417872	-0.574589	-0.554986	0.042519	0.010449	-0.001029
868	4.351022	0.005000	-0.086134	-0.553187	-9.421427	0.417530	-0.574247	-0.554859	0.049524	0.016078	0.007199
869	4.356022	0.005000	-0.116737	-0.549360	-9.455857	0.417189	-0.573906	-0.554732	0.053915	0.012189	0.005537
870	4.361022	0.005000	-0.115859	-0.511981	-9.454979	0.416848	-0.573565	-0.554605	0.059067	0.014739	0.004839
871	4.366022	0.005000	-0.191964	-0.549360	-9.382596	0.416507	-0.573224	-0.554478	0.043982	0.020060	0.007389
872	4.371022	0.005000	-0.110640	-0.588600	-9.353279	0.416166	-0.572882	-0.554351	0.060118	0.010109	0.019408
873	4.376022	0.005000	-0.117720	-0.470880	-9.290410	0.415825	-0.572541	-0.554223	0.052023	0.012987	0.007963
874	4.381022	0.005000	-0.130487	-0.522887	-9.326353	0.415483	-0.572200	-0.554096	0.041917	0.012491	0.016306
875	4.386022	0.005000	-0.046834	-0.486491	-9.362749	0.415142	-0.571859	-0.553969	0.030986	0.005354	0.015433
876	4.391022	0.005000	-0.060479	-0.513357	-9.456840	0.414801	-0.571517	-0.553842	0.027241	0.009878	0.014394
877	4.396022	0.005000	-0.080931	-0.609445	-9.454389	0.414460	-0.571176	-0.553715	0.034448	0.018564	0.009707
878	4.401022	0.005000	-0.054791	-0.580462	-9.441289	0.414119	-0.570835	-0.553588	0.036769	0.014857	0.007687
879	4.406022	0.005000	-0.117720	-0.550479	-9.444133	0.413778	-0.570494	-0.553461	0.054138	0.007202	0.007619
880	4.411022	0.005000	-0.137234	-0.549360	-9.446977	0.413436	-0.570152	-0.553334	0.049824	0.005591	0.011586
881	4.416022	0.005000	-0.078480	-0.517608	-9.464328	0.413320	-0.570938	-0.553333	0.052259	0.011728	0.008491
882	4.421022	0.005000	-0.013932	-0.583956	-9.491436	0.413206	-0.571734	-0.553333	0.050478	0.003125	0.011613
883	4.426022	0.005000	-0.155160	-0.506520	-9.378360	0.413093	-0.572531	-0.553333	0.051636	0.007942	0.004103
884	4.431022	0.005000	-0.117720	-0.431640	-9.378360	0.412979	-0.573327	-0.553333	0.038715	0.008093	0.007473
885	4.436022	0.005000	-0.085348	-0.542492	-9.453406	0.412865	-0.574124	-0.553333	0.027009	0.005338	0.021569
886	4.441022	0.005000	-0.078480	-0.594878	-9.390916	0.412751	-0.574920	-0.553333	0.021076	0.009621	0.012620
887	4.446022	0.005000	-0.135963	-0.537485	-9.378360	0.412637	-0.575717	-0.553333	0.037793	0.014648	0.016618
888	4.451022	0.005000	-0.117720	-0.459244	-9.468476	0.412524	-0.576514	-0.553333	0.051057	0.003391	0.009616
889	4.456022	0.005000	-0.067921	-0.520679	-9.520979	0.412410	-0.577310	-0.553333	0.044366	0.008887	0.009475
890	4.461022	0.005000	-0.056425	-0.549360	-9.434785	0.412296	-0.578107	-0.553333	0.048957	0.012622	0.009745
891	4.466022	0.005000	-0.097692	-0.568572	-9.397572	0.412182	-0.578903	-0.553333	0.044888	0.022447	0.014598
892	4.471022	0.005000	-0.095039	-0.526679	-9.512639	0.412068	-0.579700	-0.553333	0.050909	0.019628	0.011860
893	4.476022	0.005000	-0.092458	-0.549360	-9.560582	0.411954	-0.580496	-0.553333	0.053421	0.015725	0.009758
894	4.481022	0.005000	-0.039240	-0.493147	-9.406466	0.412139	-0.580299	-0.553222	0.078471	-0.004565	0.012221
895	4.486022	0.005000	-0.039240	-0.627840	-9.448550	0.412366	-0.579957	-0.553095	0.056994	0.015600	0.011551
896	4.491022	0.005000	-0.017744	-0.694491	-9.411685	0.412594	-0.579616	-0.552968	0.067719	0.013294	0.008787
897	4.496022	0.005000	-0.120791	-0.549360	-9.339120	0.412822	-0.579275	-0.552841	0.058425	0.018461	0.009253
898	4.501022	0.005000	-0.196200	-0.549587	-9.339120	0.413049	-0.578933	-0.552714	0.056292	0.016652	0.004063
899	4.506022	0.005000	-0.196200	-0.551977	-9.339120	0.413277	-0.578592	-0.552587	0.047210	0.009043	0.011791
900	4.511022	0.005000	-0.162026	-0.549360	-9.422666	0.413504	-0.578250	-0.552460	0.043589	0.008354	0.007705
901	4.516022	0.005000	-0.054942	-0.627840	-9.551007	0.413732	-0.577909	-0.552333	0.041867	0.002358	0.015365
902	4.521022	0.005000	-0.067785	-0.627840	-9.446145	0.413959	-0.577568	-0.552206	0.035320	0.004203	0.009251
903	4.526022	0.005000	-0.182661	-0.562899	-9.352659	0.414187	-0.577226	-0.552079	0.031392	0.005261	0.010523
904	4.531022	0.005000	-0.156960	-0.627840	-9.487020	0.414415	-0.576885	-0.551952	0.044844	0.004745	0.013927
905	4.536022	0.005000	-0.119445	-0.629565	-9.516562	0.414642	-0.576543	-0.551825	0.036959	0.007404	0.004849
906	4.541022	0.005000	-0.096118	-0.549360	-9.500043	0.414870	-0.576202	-0.551698	0.049523	0.009137	0.007184
907	4.546022	0.005000	-0.171754	-0.564154	-9.456840	0.415097	-0.576205	-0.552148	0.043553	0.012137	0.002120
908	4.551022	0.005000	-0.117720	-0.643179	-9.386922	0.415325	-0.576319	-0.552783	0.048445	0.006963	0.016493
909	4.556022	0.005000	-0.136871	-0.647929	-9.456840	0.415552	-0.576433	-0.553418	0.048665	0.011134	0.006710
910	4.561022	0.005000	-0.117720	-0.588600	-9.404137	0.415780	-0.576546	-0.554053	0.063488	0.009321	0.000838
911	4.566022	0.005000	-0.082368	-0.627840	-9.386135	0.416007	-0.576660	-0.554688	0.068702	0.009633	0.012685
912	4.571022	0.005000	-0.118764	-0.550404	-9.418644	0.416235	-0.576774	-0.555323	0.053560	0.010697	0.015461
913	4.576022	0.005000	-0.119520	-0.588600	-9.344520	0.416462	-0.576888	-0.555958	0.053326	0.009502	0.010160
914	4.581022	0.005000	-0.117720	-0.627840	-9.343310	0.416690	-0.577002	-0.556593	0.051756	0.004103	0.012696
915	4.586022	0.005000	-0.078480	-0.595634	-9.449806	0.416917	-0.577115	-0.557228	0.034006	0.006335	0.013884
916	4.591022	0.005000	-0.156960	-0.559238	-9.388238	0.417144	-0.577229	-0.557863	0.037286	0.005159	0.018490
917	4.596022	0.005000	-0.144238	-0.549360	-9.351842	0.417372	-0.577343	-0.558498	0.033981	0.005547	0.008858
918	4.601022	0.005000	-0.133286	-0.557468	-9.464948	0.417599	-0.577457	-0.559133	0.035982	0.010587	0.025676
919	4.606022	0.005000	-0.135661	-0.649139	-9.474781	0.417827	-0.577570	-0.559768	0.006938	0.013526	0.014923
920	4.611022	0.005000	-0.117720	-0.489335	-9.436055	0.417766	-0.577756	-0.559758	0.001444	0.004914	0.011843
921	4.616022	0.005000	-0.196200	-0.549360	-9.456840	0.417538	-0.577984	-0.559377	0.014320	0.006482	0.016468
922	4.621022	0.005000	-0.091247	-0.563065	-9.508847	0.417310	-0.578212	-0.558996	0.018392	0.014232	0.012770
923	4.626022	0.005000	-0.117720	-0.441563	-9.436993	0.417083	-0.578439	-0.558614	0.022952	0.011630	0.018372
924	4.631022	0.005000	-0.156960	-0.581438	-9.353445	0.416855	-0.578667	-0.558233	0.021839	0.008157	0.019687
925	4.636022	0.005000	-0.083169	-0.554049	-9.452151	0.416628	-0.578894	-0.557852	0.047396	0.000745	0.019387
926	4.641022	0.005000	-0.155114	-0.510120	-9.460531	0.416400	-0.579122	-0.557471	0.054124	0.011536	0.011466
927	4.646022	0.005000	-0.117720	-0.471878	-9.497078	0.416173	-0.579349	-0.557090	0.053464	0.005768	0.014256
928	4.651022	0.005000	-0.153118	-0.506278	-9.488395	0.415945	-0.579577	-0.556708	0.067880	0.010911	0.015747
929	4.656022	0.005000	-0.131092	-0.431640	-9.430972	0.415717	-0.579805	-0.556327	0.068763	0.007057	0.012528
930	4.661022	0.005000	-0.108659	-0.452758	-9.456840	0.415490	-0.580032	-0.555946	0.070519	0.008065	0.022322
931	4.666022	0.005000	-0.117720	-0.482785	-9.429505	0.415262	-0.580260	-0.555565	0.065671	0.010541	0.015068
932	4.671022	0.005000	-0.191193	-0.485629	-9.417600	0.415035	-0.580487	-0.555184	0.068344	0.012868	0.018810
933	4.676022	0.005000	-0.178607	-0.492527	-9.395953	0.415161	-0.580597	-0.554934	0.080224	0.004835	0.020061
934	4.681022	0.005000	-0.235440	-0.510120	-9.417600	0.415616	-0.580597	-0.554807	0.060191	0.007557	0.020897
935	4.686022	0.005000	-0.219027	-0.431640	-9.466839	0.416071	-0.580597	-0.554680	0.063728	0.011771	0.017988
936	4.691022	0.005000	-0.092049	-0.418071	-9.456840	0.416526	-0.580597	-0.554553	0.043147	0.017912	0.011069
937	4.696022	0.005000	-0.189181	-0.420900	-9.446100	0.416981	-0.580597	-0.554426	0.046493	0.005140	0.011948
938	4.701022	0.005000	-0.164245	-0.384411	-9.401622	0.417436	-0.580597	-0.554299	0.015123	0.017009	0.006996
939	4.706022	0.005000	-0.016519	-0.431640	-9.451334	0.417891	-0.580597	-0.554172	0.050152	0.003443	0.012170
940	4.711022	0.005000	-0.075818	-0.468218	-9.381022	0.418346	-0.580597	-0.554045	0.042290	0.000183	0.009122
941	4.716022	0.005000	-0.117357	-0.392582	-9.378542	0.418801	-0.580597	-0.553918	0.035461	0.004856	0.009276
942	4.721022	0.005000	-0.117720	-0.543309	-9.381385	0.419256	-0.580597	-0.553791	0.045822	0.005406	0.018087
943	4.726022	0.005000	-0.146029	-0.442571	-9.367429	0.419711	-0.580597	-0.553664	0.045303	0.000800	0.012089
944	4.731022	0.005000	-0.109476	-0.400644	-9.448596	0.420166	-0.580597	-0.553537	0.063102	0.006158	0.013268
945	4.736022	0.005000	-0.156960	-0.499032	-9.484992	0.420621	-0.580597	-0.553410	0.047719	0.006883	0.009366
946	4.741022	0.005000	-0.156960	-0.535428	-9.417600	0.420761	-0.580237	-0.553283	0.043648	0.003176	0.006744
947	4.746022	0.005000	-0.094993	-0.549360	-9.463054	0.420420	-0.579327	-0.553156	0.053878	-0.002096	0.007799
948	4.751022	0.005000	-0.118628	-0.529286	-9.416692	0.420078	-0.578416	-0.553029	0.048762	0.006299	0.003054
949	4.756022	0.005000	-0.100490	-0.470880	-9.400370	0.419737	-0.577506	-0.552902	0.054889	-0.001321	0.002404
950	4.761022	0.005000	-0.107252	-0.534974	-9.431986	0.419395	-0.576596	-0.552775	0.047046	-0.000974	-0.002930
951	4.766022	0.005000	-0.168971	-0.392400	-9.417600	0.419054	-0.575685	-0.552648	0.049995	0.002738	-0.000955
952	4.771022	0.005000	-0.187033	-0.343993	-9.339120	0.418713	-0.574775	-0.552521	0.038997	0.001307	0.004581
953	4.776022	0.005000	-0.124043	-0.398723	-9.423923	0.418371	-0.573865	-0.552394	0.040840	0.007796	-0.000450
954	4.781022	0.005000	-0.114241	-0.435119	-9.421079	0.418030	-0.572954	-0.552267	0.046020	0.005762	0.001588
955	4.786022	0.005000	-0.078480	-0.507942	-9.492813	0.417688	-0.572044	-0.552140	0.028808	0.006958	-0.003890
956	4.791022	0.005000	-0.040995	-0.431640	-9.378360	0.417347	-0.571134	-0.552013	0.038130	0.005168	-0.000719
957	4.796022	0.005000	-0.108523	-0.505521	-9.378360	0.417005	-0.570223	-0.551886	0.037994	0.005923	-0.001321
958	4.801022	0.005000	-0.085923	-0.549360	-9.441955	0.416664	-0.569313	-0.551759	0.042317	0.011623	0.004372
959	4.806022	0.005000	-0.041146	-0.530693	-9.438173	0.416259	-0.568752	-0.551596	0.037506	0.016433	0.007437
960	4.811022	0.005000	-0.078480	-0.456963	-9.456840	0.415690	-0.569094	-0.551342	0.045790	0.017972	0.003005
961	4.816022	0.005000	-0.180695	-0.407905	-9.433105	0.415121	-0.569435	-0.551088	0.067047	0.002893	0.007119
962	4.821022	0.005000	-0.177851	-0.431640	-9.435949	0.414552	-0.569776	-0.550833	0.055259	0.008955	0.007005
963	4.826022	0.005000	-0.117720	-0.492073	-9.496080	0.413983	-0.570118	-0.550579	0.065760	0.003818	0.010080
964	4.831022	0.005000	-0.188273	-0.541433	-9.472497	0.413414	-0.570459	-0.550325	0.073371	0.005188	0.009213
965	4.836022	0.005000	-0.183387	-0.549360	-9.522507	0.412845	-0.570800	-0.550071	0.081044	0.013410	0.000268
966	4.841022	0.005000	-0.088449	-0.559329	-9.456840	0.412276	-0.571142	-0.549817	0.071279	0.004020	0.008049
967	4.846022	0.005000	-0.149835	-0.542235	-9.417600	0.411707	-0.571483	-0.549563	0.066492	0.008632	0.003829
968	4.851022	0.005000	-0.126282	-0.514401	-9.496080	0.411138	-0.571824	-0.549308	0.073709	0.009264	0.002646
969	4.856022	0.005000	-0.154051	-0.550814	-9.417600	0.410569	-0.572166	-0.549054	0.071048	0.003350	0.006128
970	4.861022	0.005000	-0.193386	-0.511996	-9.455902	0.410000	-0.572507	-0.548800	0.079261	0.012062	0.003817
971	4.866022	0.005000	-0.192418	-0.549360	-9.488516	0.409431	-0.572848	-0.548546	0.055971	0.013939	0.013589
972	4.871022	0.005000	-0.209451	-0.529997	-9.489454	0.409010	-0.573171	-0.548395	0.049488	0.013371	0.001993
973	4.876022	0.005000	-0.156960	-0.618370	-9.358059	0.409352	-0.573398	-0.548776	0.045524	0.003518	0.001297
974	4.881022	0.005000	-0.105406	-0.573987	-9.469154	0.409693	-0.573626	-0.549157	0.045460	0.010969	0.006780
975	4.886022	0.005000	-0.063791	-0.510120	-9.496080	0.410034	-0.573853	-0.549538	0.042080	0.009423	0.010725
976	4.891022	0.005000	-0.100188	-0.475055	-9.456840	0.410375	-0.574081	-0.549919	0.037703	0.004943	0.007961
977	4.896022	0.005000	-0.059616	-0.508607	-9.477216	0.410717	-0.574308	-0.550300	0.026932	0.011000	0.006353
978	4.901022	0.005000	-0.071279	-0.627840	-9.394380	0.411058	-0.574536	-0.550681	0.029317	0.010847	0.006209
979	4.906022	0.005000	-0.156960	-0.653750	-9.351700	0.411399	-0.574763	-0.551062	0.028404	0.014677	0.000693
980	4.911022	0.005000	-0.167746	-0.606269	-9.339120	0.411740	-0.574991	-0.551443	0.043914	0.015209	0.000112
981	4.916022	0.005000	-0.227498	-0.533476	-9.519436	0.412082	-0.575218	-0.551824	0.051721	0.012336	0.003692
982	4.921022	0.005000	-0.191102	-0.525414	-9.451742	0.412423	-0.575446	-0.552205	0.060138	0.013697	-0.003762
983	4.926022	0.005000	-0.082988	-0.586346	-9.493826	0.412764	-0.575673	-0.552586	0.060609	0.014773	0.012765
984	4.931022	0.005000	-0.117842	-0.510242	-9.339487	0.413105	-0.575901	-0.552967	0.061579	0.021358	-0.002845
985	4.936022	0.005000	-0.081445	-0.501225	-9.526425	0.413442	-0.576119	-0.553318	0.065761	0.000823	0.003427
986	4.941022	0.005000	-0.123529	-0.431640	-9.529511	0.413670	-0.576119	-0.552937	0.069481	0.013229	0.004015
987	4.946022	0.005000	-0.109067	-0.549360	-9.426253	0.413897	-0.576119	-0.552555	0.052345	0.002441	0.009019
988	4.951022	0.005000	-0.039240	-0.565607	-9.429097	0.414125	-0.576119	-0.552174	0.046525	0.007798	0.010979
989	4.956022	0.005000	-0.128861	-0.510120	-9.442791	0.414352	-0.576119	-0.551793	0.033569	0.002977	0.005690
990	4.961022	0.005000	-0.039240	-0.493389	-9.456840	0.414580	-0.576119	-0.551412	0.031573	0.003944	0.004368
991	4.966022	0.005000	-0.019665	-0.510120	-9.378360	0.414808	-0.576119	-0.551031	0.011116	0.010483	0.004280
992	4.971022	0.005000	-0.072883	-0.627840	-9.417600	0.415035	-0.576119	-0.550649	0.039819	0.006344	0.008107
993	4.976022	0.005000	-0.145675	-0.549360	-9.442862	0.415263	-0.576119	-0.550268	0.028348	0.007160	0.010605
994	4.981022	0.005000	-0.173933	-0.605573	-9.417600	0.415490	-0.576119	-0.549887	0.032649	0.004546	0.003112
995	4.986022	0.005000	-0.139443	-0.558119	-9.417600	0.415718	-0.576119	-0.549506	0.020874	0.000569	0.005311
996	4.991022	0.005000	-0.051069	-0.504205	-9.484251	0.415945	-0.576119	-0.549125	0.027418	0.013900	0.002818
997	4.996022	0.005000	-0.042311	-0.513191	-9.417600	0.416173	-0.576119	-0.548743	0.031593	0.007108	0.013406
998	5.001022	0.005000	-0.000454	-0.549587	-9.417600	0.416401	-0.576119	-0.548362	0.040431	0.014092	0.002327
999	5.006022	0.005000	-0.115103	-0.551977	-9.490846	0.416628	-0.576014	-0.549037	0.056175	0.009137	0.012763
1000	5.011022	0.005000	-0.112259	-0.583139	-9.451379	0.416856	-0.575900	-0.549800	0.064021	0.008498	0.009068
1001	5.016022	0.005000	-0.172662	-0.478731	-9.378360	0.417083	-0.575786	-0.550562	0.055739	0.000359	-0.002714
1002	5.021022	0.005000	-0.089175	-0.499425	-9.399750	0.417311	-0.575673	-0.551324	0.064674	0.000352	0.001311
1003	5.026022	0.005000	-0.143421	-0.547983	-9.364821	0.417539	-0.575559	-0.552087	0.043967	0.010911	0.000901
1004	5.031022	0.005000	-0.094580	-0.526220	-9.401500	0.417766	-0.575445	-0.552849	0.054822	0.001319	0.007688
1005	5.036022	0.005000	-0.218407	-0.547635	-9.378360	0.417994	-0.575331	-0.553612	0.035973	0.005609	0.001547
1006	5.041022	0.005000	-0.239403	-0.549360	-9.435238	0.418221	-0.575218	-0.554374	0.039533	0.004383	0.004776
1007	5.046022	0.005000	-0.102926	-0.544217	-9.481286	0.418449	-0.575104	-0.555136	0.045476	0.007579	0.015473
1008	5.051022	0.005000	-0.078480	-0.552748	-9.496080	0.418676	-0.574990	-0.555899	0.037796	0.007270	0.000849
1009	5.056022	0.005000	-0.135933	-0.540253	-9.447733	0.418904	-0.574876	-0.556661	0.027394	-0.004017	0.004879
1010	5.061022	0.005000	-0.084743	-0.470880	-9.541583	0.419132	-0.574763	-0.557424	0.036287	0.010549	-0.005225
1011	5.066022	0.005000	-0.149185	-0.553248	-9.606025	0.419359	-0.574649	-0.558186	0.042952	0.007651	0.007938
1012	5.071022	0.005000	-0.080568	-0.628884	-9.536364	0.418393	-0.575546	-0.557102	0.020477	0.005750	0.007155
1013	5.076022	0.005000	-0.156960	-0.592200	-9.462240	0.417141	-0.576683	-0.555577	0.037272	0.001125	-0.006622
1014	5.081022	0.005000	-0.122364	-0.519408	-9.387648	0.415889	-0.577821	-0.554053	0.052443	-0.000511	-0.000449
1015	5.086022	0.005000	-0.156960	-0.510120	-9.410112	0.414637	-0.578959	-0.552528	0.054928	0.005821	0.001016
1016	5.091022	0.005000	-0.107726	-0.470880	-9.446846	0.413386	-0.580097	-0.551003	0.062355	0.007556	0.002200
1017	5.096022	0.005000	-0.183478	-0.563156	-9.431396	0.412134	-0.581235	-0.549478	0.047171	0.009535	0.007467
1018	5.101022	0.005000	-0.117720	-0.604166	-9.464948	0.410882	-0.582373	-0.547953	0.054619	0.008042	0.007047
1019	5.106022	0.005000	-0.099310	-0.468460	-9.516910	0.409631	-0.583511	-0.546429	0.053411	0.011640	0.016301
1020	5.111022	0.005000	-0.096466	-0.567346	-9.442121	0.408379	-0.584649	-0.544904	0.056392	0.011885	0.010202
1021	5.116022	0.005000	-0.062869	-0.518137	-9.362749	0.407127	-0.585786	-0.543379	0.055372	0.005541	0.015445
1022	5.121022	0.005000	-0.026473	-0.497353	-9.443135	0.405875	-0.586924	-0.541854	0.052467	0.013119	0.013271
1023	5.126022	0.005000	-0.088403	-0.559283	-9.535320	0.404624	-0.588062	-0.540329	0.057727	0.009317	0.016300
1024	5.131022	0.005000	-0.124800	-0.528121	-9.449760	0.403372	-0.589200	-0.538804	0.053273	0.018739	0.012201
1025	5.136022	0.005000	-0.156960	-0.466644	-9.444133	0.402906	-0.589473	-0.538245	0.050452	0.018791	0.016625
1026	5.141022	0.005000	-0.156960	-0.395183	-9.417600	0.402793	-0.589360	-0.538118	0.055608	0.004492	0.016432
1027	5.146022	0.005000	-0.156960	-0.433092	-9.455388	0.402679	-0.589246	-0.537991	0.051508	0.007490	0.006691
1028	5.151022	0.005000	-0.082322	-0.431640	-9.417600	0.402565	-0.589132	-0.537864	0.059736	0.010612	0.009178
1029	5.156022	0.005000	-0.156960	-0.477566	-9.359179	0.402451	-0.589018	-0.537737	0.050786	0.012745	0.013301
1030	5.161022	0.005000	-0.196200	-0.598130	-9.408070	0.402338	-0.588905	-0.537610	0.050282	0.010193	0.011301
1031	5.166022	0.005000	-0.156960	-0.510120	-9.471332	0.402224	-0.588791	-0.537483	0.054694	0.007013	0.017851
1032	5.171022	0.005000	-0.102502	-0.549360	-9.448036	0.402110	-0.588677	-0.537356	0.052183	0.009286	0.005269
1033	5.176022	0.005000	-0.178138	-0.567422	-9.420716	0.401996	-0.588563	-0.537229	0.060147	0.004440	0.020195
1034	5.181022	0.005000	-0.117720	-0.551932	-9.456840	0.401883	-0.588450	-0.537102	0.060982	0.025036	0.012078
1035	5.186022	0.005000	-0.187941	-0.494630	-9.441350	0.401769	-0.588336	-0.536975	0.060452	0.002819	0.007383
1036	5.191022	0.005000	-0.222641	-0.563001	-9.456840	0.401655	-0.588222	-0.536848	0.057657	0.009428	0.000479
1037	5.196022	0.005000	-0.167231	-0.598871	-9.436297	0.401541	-0.588108	-0.536721	0.049648	0.004954	0.004511
1038	5.201022	0.005000	-0.196200	-0.581173	-9.385787	0.401885	-0.587733	-0.537105	0.074175	-0.003697	0.013565
1039	5.206022	0.005000	-0.240024	-0.480047	-9.426767	0.402568	-0.587164	-0.537867	0.042418	0.009847	0.009052
1040	5.211022	0.005000	-0.235440	-0.581641	-9.419340	0.403250	-0.586595	-0.538630	0.035845	0.004366	0.011754
1041	5.216022	0.005000	-0.235440	-0.508834	-9.495437	0.403933	-0.586026	-0.539392	0.014557	0.007119	0.005035
1042	5.221022	0.005000	-0.124679	-0.467401	-9.421079	0.404616	-0.585457	-0.540154	0.031453	0.007906	0.001719
1043	5.226022	0.005000	-0.084803	-0.398723	-9.456840	0.405299	-0.584888	-0.540917	0.023124	0.010676	0.008712
1044	5.231022	0.005000	-0.187033	-0.452546	-9.426767	0.405981	-0.584319	-0.541679	0.019805	0.002465	0.016574
1045	5.236022	0.005000	-0.090491	-0.549360	-9.496080	0.406664	-0.583750	-0.542442	0.035152	-0.001037	0.017383
1046	5.241022	0.005000	-0.024385	-0.485735	-9.471695	0.407347	-0.583181	-0.543204	0.037261	0.013116	-0.001193
1047	5.246022	0.005000	-0.103863	-0.488579	-9.452998	0.408030	-0.582612	-0.543966	0.051776	0.008198	0.003794
1048	5.251022	0.005000	-0.176111	-0.548422	-9.378360	0.408712	-0.582043	-0.544729	0.049132	0.011630	0.011934
1049	5.256022	0.005000	-0.140653	-0.477506	-9.417600	0.409395	-0.581474	-0.545491	0.056406	0.012680	0.004044
1050	5.261022	0.005000	-0.117720	-0.550510	-9.509543	0.410078	-0.580906	-0.546254	0.069136	0.009067	0.007622
1051	5.266022	0.005000	-0.078480	-0.577852	-9.446092	0.410656	-0.580649	-0.546783	0.087119	0.011865	-0.002937
1052	5.271022	0.005000	-0.094969	-0.572111	-9.456840	0.411112	-0.580763	-0.547037	0.066560	0.006258	0.008490
1053	5.276022	0.005000	-0.083880	-0.520921	-9.378360	0.411567	-0.580877	-0.547292	0.036331	0.014689	0.005235
1054	5.281022	0.005000	-0.120276	-0.546804	-9.422713	0.412022	-0.580991	-0.547546	0.044599	0.010443	0.015499
1055	5.286022	0.005000	-0.195913	-0.510120	-9.418175	0.412477	-0.581104	-0.547800	0.026563	0.015553	0.007618
1056	5.291022	0.005000	-0.111457	-0.513251	-9.378360	0.412932	-0.581218	-0.548054	0.018221	0.021914	0.011228
1057	5.296022	0.005000	-0.005586	-0.431640	-9.496080	0.413387	-0.581332	-0.548308	0.028285	0.011534	0.013187
1058	5.301022	0.005000	-0.047605	-0.400765	-9.588704	0.413842	-0.581446	-0.548562	0.008247	0.006102	0.008574
1059	5.306022	0.005000	-0.162572	-0.459671	-9.507289	0.414298	-0.581560	-0.548816	0.031793	0.004916	0.014085
1060	5.311022	0.005000	-0.182147	-0.459746	-9.431653	0.414753	-0.581674	-0.549070	0.035648	0.009714	0.013031
1061	5.316022	0.005000	-0.134617	-0.431640	-9.395257	0.415208	-0.581787	-0.549324	0.046324	0.015553	0.004449
1062	5.321022	0.005000	-0.098215	-0.451145	-9.457070	0.415663	-0.581901	-0.549579	0.062005	0.013920	0.015425
1063	5.326022	0.005000	-0.100596	-0.453756	-9.491088	0.416118	-0.582015	-0.549833	0.068220	0.017044	0.004109
1064	5.331022	0.005000	-0.053520	-0.470880	-9.442560	0.416457	-0.582051	-0.550043	0.081585	0.018601	0.012549
1065	5.336022	0.005000	-0.122651	-0.560796	-9.406164	0.416571	-0.581937	-0.550170	0.089115	0.020535	0.005302
1066	5.341022	0.005000	-0.056425	-0.501528	-9.378360	0.416684	-0.581824	-0.550297	0.086371	0.009433	-0.004015
1067	5.346022	0.005000	-0.117720	-0.537729	-9.423416	0.416798	-0.581710	-0.550424	0.079932	0.012366	0.001803
1068	5.351022	0.005000	-0.078480	-0.556076	-9.446765	0.416912	-0.581596	-0.550551	0.075281	0.008878	-0.005621
1069	5.356022	0.005000	-0.155931	-0.588086	-9.456326	0.417025	-0.581482	-0.550679	0.091935	0.004864	0.005645
1070	5.361022	0.005000	-0.115390	-0.623181	-9.417600	0.417139	-0.581369	-0.550806	0.050472	0.006856	0.003161
1071	5.366022	0.005000	-0.088827	-0.593774	-9.456840	0.417253	-0.581255	-0.550933	0.039561	0.001125	0.006025
1072	5.371022	0.005000	-0.086497	-0.659063	-9.386377	0.417366	-0.581141	-0.551060	0.011603	0.008185	0.011997
1073	5.376022	0.005000	-0.039240	-0.542704	-9.445979	0.417480	-0.581027	-0.551187	0.022168	0.002867	0.017984
1074	5.381022	0.005000	-0.145100	-0.419780	-9.378360	0.417594	-0.580913	-0.551314	0.006567	0.000051	0.014271
1075	5.386022	0.005000	-0.156960	-0.454800	-9.456840	0.417707	-0.580800	-0.551441	0.003723	0.001978	0.011883
1076	5.391022	0.005000	-0.176106	-0.430691	-9.417600	0.417821	-0.580686	-0.551568	0.008665	0.003700	0.015922
1077	5.396022	0.005000	-0.174432	-0.409872	-9.400128	0.417885	-0.580622	-0.551639	0.004855	0.006238	0.012821
1078	5.401022	0.005000	-0.142332	-0.460896	-9.432228	0.417771	-0.580736	-0.551512	0.022586	0.004581	0.006388
1079	5.406022	0.005000	-0.196200	-0.443424	-9.445056	0.417658	-0.580850	-0.551385	0.040592	0.002275	0.017079
1080	5.411022	0.005000	-0.127129	-0.481893	-9.438022	0.417544	-0.580963	-0.551258	0.056810	0.005162	0.003420
1081	5.416022	0.005000	-0.117720	-0.405530	-9.384925	0.417430	-0.581077	-0.551131	0.079030	0.007904	0.004587
1082	5.421022	0.005000	-0.082201	-0.399843	-9.417600	0.417316	-0.581191	-0.551004	0.084015	0.012853	0.006203
1083	5.426022	0.005000	-0.158715	-0.550237	-9.455963	0.417203	-0.581305	-0.550877	0.099224	0.006999	-0.000466
1084	5.431022	0.005000	-0.198167	-0.588600	-9.454873	0.417089	-0.581419	-0.550750	0.096592	0.014478	-0.002445
1085	5.436022	0.005000	-0.117720	-0.593410	-9.452030	0.416975	-0.581533	-0.550622	0.100813	0.013554	-0.007862
