# FOX Logger (IMU file)
# (c) INRIA 2011-2014
# File created from file sensbiotk output
#
# File format:
# id	t	dt	ax	ay	az	mx	my	mz	gx	gy	gz
#
# Units:
#	Time: s
#	Acceleration: m.s^-2
#	Magneto: gauss
#	Gyrometer: rad/s
#
1	0.047211	0.047211	1.135143	1.436922	-10.006200	-0.780597	-0.528358	1.411667	0.003813	-0.012617	0.000259
2	0.052211	0.005000	1.133537	1.491120	-10.148606	-0.780597	-0.528907	1.412647	0.013113	-0.016121	0.012711
3	0.057211	0.005000	1.150448	1.491120	-10.051684	-0.780597	-0.529455	1.413627	-0.018448	-0.004569	-0.002518
4	0.062211	0.005000	1.100144	1.530360	-10.003352	-0.780597	-0.530004	1.414607	-0.011720	-0.018001	-0.007188
5	0.067211	0.005000	1.023144	1.569600	-9.982223	-0.780597	-0.530552	1.415587	-0.009266	-0.006853	0.007496
6	0.072211	0.005000	1.036224	1.562328	-10.084680	-0.780597	-0.531101	1.416567	-0.006778	-0.003897	0.001734
7	0.077211	0.005000	0.967425	1.426215	-10.083195	-0.780597	-0.531649	1.417547	-0.003274	-0.012852	0.011476
8	0.082211	0.005000	1.087223	1.396393	-9.999453	-0.780597	-0.532198	1.418527	0.003644	-0.009824	-0.001700
9	0.087211	0.005000	1.137960	1.548793	-10.054657	-0.780597	-0.532747	1.419507	0.005252	-0.019867	0.003879
10	0.092211	0.005000	1.084349	1.537545	-10.038255	-0.780597	-0.533295	1.420487	0.010910	-0.006182	0.007501
11	0.097211	0.005000	0.985867	1.569600	-10.055173	-0.780597	-0.533844	1.421467	0.029674	-0.015184	0.007940
12	0.102211	0.005000	1.098720	1.493570	-10.197501	-0.780597	-0.534392	1.422447	0.029288	-0.009171	0.009295
13	0.107211	0.005000	1.137461	1.568602	-10.045440	-0.780597	-0.534941	1.423427	0.033145	-0.012302	0.005261
14	0.112211	0.005000	1.061378	1.528462	-10.045440	-0.780597	-0.535489	1.424407	0.032488	-0.010553	0.013038
15	0.117211	0.005000	0.981000	1.573443	-10.084680	-0.780380	-0.535517	1.424855	0.023296	-0.009154	0.011088
16	0.122211	0.005000	1.125441	1.497379	-10.084680	-0.779832	-0.534749	1.424487	0.029127	-0.018452	0.011121
17	0.127211	0.005000	1.116051	1.521694	-10.132586	-0.779283	-0.533981	1.424120	0.032937	-0.013613	0.008671
18	0.132211	0.005000	1.109330	1.473100	-10.056050	-0.778734	-0.533213	1.423752	0.023472	-0.019102	-0.004842
19	0.137211	0.005000	1.112213	1.399767	-10.124540	-0.778186	-0.532445	1.423385	0.015789	-0.011310	0.000397
20	0.142211	0.005000	1.113678	1.539684	-9.996876	-0.777637	-0.531678	1.423017	0.007026	-0.000884	-0.001092
21	0.147211	0.005000	1.081551	1.574501	-9.927720	-0.777089	-0.530910	1.422650	0.011134	-0.013370	0.006036
22	0.152211	0.005000	1.118034	1.509822	-9.947646	-0.776540	-0.530142	1.422282	-0.000791	-0.006421	0.005615
23	0.157211	0.005000	1.076995	1.512845	-10.141435	-0.775992	-0.529374	1.421915	0.005921	-0.009723	0.002961
24	0.162211	0.005000	1.020240	1.491120	-10.045440	-0.775443	-0.528606	1.421547	-0.003126	-0.019303	0.012836
25	0.167211	0.005000	0.929088	1.477958	-9.940882	-0.774895	-0.527838	1.421180	-0.003224	-0.013236	-0.002917
26	0.172211	0.005000	1.087632	1.513296	-9.978048	-0.774346	-0.527070	1.420812	-0.010489	-0.022571	0.007010
27	0.177211	0.005000	1.089917	1.569600	-10.036637	-0.773797	-0.526302	1.420444	-0.003086	-0.005747	-0.005498
28	0.182211	0.005000	0.987397	1.491120	-9.836446	-0.773249	-0.525534	1.420077	-0.007083	-0.009221	-0.002389
29	0.187211	0.005000	1.024694	1.412640	-9.901841	-0.775042	-0.526327	1.420969	0.007232	-0.011776	-0.008282
30	0.192211	0.005000	1.094647	1.493156	-9.973069	-0.777456	-0.527534	1.422194	-0.004061	-0.012715	0.005577
31	0.197211	0.005000	0.981092	1.491396	-10.045532	-0.779869	-0.528741	1.423419	0.002523	-0.013329	0.003635
32	0.202211	0.005000	1.131107	1.534928	-10.158592	-0.782283	-0.529947	1.424644	0.007206	-0.004487	-0.000316
33	0.207211	0.005000	1.172944	1.565344	-10.132432	-0.784696	-0.531154	1.425869	0.005735	-0.002341	0.004955
34	0.212211	0.005000	1.111881	1.549859	-9.986701	-0.787110	-0.532361	1.427094	0.000713	-0.002466	0.001586
35	0.217211	0.005000	1.137960	1.538964	-10.045440	-0.789524	-0.533568	1.428319	0.017547	-0.009263	-0.008727
36	0.222211	0.005000	1.109612	1.541252	-9.938612	-0.791937	-0.534775	1.429544	0.012700	-0.017470	0.004609
37	0.227211	0.005000	1.072443	1.543323	-10.071717	-0.794351	-0.535981	1.430769	0.011608	-0.006279	0.008313
38	0.232211	0.005000	1.122589	1.506491	-10.069309	-0.796764	-0.537188	1.431994	0.014385	-0.008955	0.000551
39	0.237211	0.005000	1.133352	1.604232	-10.006200	-0.799178	-0.538395	1.433219	-0.000503	-0.001376	0.006135
40	0.242211	0.005000	1.118447	1.471393	-10.045440	-0.801591	-0.539602	1.434444	0.009010	-0.008900	0.001791
41	0.247211	0.005000	1.142062	1.491120	-10.006200	-0.804005	-0.540808	1.435670	0.000944	-0.011532	0.005260
42	0.252211	0.005000	0.996157	1.515203	-10.060597	-0.805644	-0.541669	1.436553	0.002542	-0.007147	0.004115
43	0.257211	0.005000	1.007185	1.504175	-10.110790	-0.803888	-0.541010	1.435940	0.015491	-0.013202	-0.002328
44	0.262211	0.005000	1.070285	1.501925	-10.034635	-0.802132	-0.540352	1.435327	0.006524	-0.008873	-0.004526
45	0.267211	0.005000	1.107581	1.499981	-9.949238	-0.800376	-0.539693	1.434715	0.008278	-0.020259	0.002412
46	0.272211	0.005000	1.131514	1.549697	-9.973406	-0.798619	-0.539035	1.434102	-0.003791	-0.001912	0.000593
47	0.277211	0.005000	1.107722	1.569600	-9.957958	-0.796863	-0.538376	1.433489	-0.002938	-0.009014	0.004248
48	0.282211	0.005000	0.985195	1.606743	-10.002005	-0.795107	-0.537718	1.432876	0.002455	-0.013236	0.004618
49	0.287211	0.005000	1.138111	1.647777	-10.006351	-0.793351	-0.537059	1.432263	0.011166	-0.008857	-0.005907
50	0.292211	0.005000	1.140211	1.569600	-10.119419	-0.791595	-0.536400	1.431650	0.017268	-0.008902	0.004603
51	0.297211	0.005000	0.994841	1.574214	-10.045440	-0.789839	-0.535742	1.431037	0.021286	-0.011356	-0.010369
52	0.302211	0.005000	1.085497	1.562989	-10.012811	-0.788083	-0.535083	1.430425	0.026602	-0.016223	-0.004311
53	0.307211	0.005000	1.011222	1.491120	-10.096867	-0.786327	-0.534425	1.429812	0.015103	-0.009136	0.000227
54	0.312211	0.005000	1.009278	1.491120	-10.056402	-0.784571	-0.533766	1.429199	0.022030	-0.014632	-0.005085
55	0.317211	0.005000	1.071968	1.556224	-10.084680	-0.782815	-0.533108	1.428586	0.020653	-0.006015	0.008857
56	0.322211	0.005000	1.131241	1.584920	-10.076079	-0.781961	-0.533222	1.427686	0.015242	-0.012059	0.002226
57	0.327211	0.005000	1.112668	1.534142	-10.006200	-0.781742	-0.533880	1.426584	0.006780	-0.010952	0.007141
58	0.332211	0.005000	1.000907	1.530360	-10.045440	-0.781522	-0.534538	1.425482	-0.014532	-0.004276	-0.001303
59	0.337211	0.005000	1.115876	1.574528	-10.045440	-0.781303	-0.535196	1.424380	-0.016909	-0.009931	0.001253
60	0.342211	0.005000	1.167447	1.505864	-10.040449	-0.781084	-0.535854	1.423278	-0.016536	-0.009395	0.004016
61	0.347211	0.005000	1.282121	1.555959	-10.071039	-0.780864	-0.536512	1.422176	-0.026917	-0.009740	-0.002037
62	0.352211	0.005000	1.166804	1.619236	-10.084680	-0.780645	-0.537170	1.421073	-0.011670	-0.009312	0.007952
63	0.357211	0.005000	1.115622	1.648080	-10.154709	-0.780425	-0.537828	1.419971	-0.012812	0.000969	-0.001738
64	0.362211	0.005000	1.032330	1.575645	-10.072590	-0.780206	-0.538486	1.418869	-0.002688	-0.009637	0.003506
65	0.367211	0.005000	1.094618	1.604738	-9.966960	-0.779987	-0.539144	1.417767	-0.008178	-0.007481	-0.002441
66	0.372211	0.005000	0.941760	1.571284	-10.081312	-0.779767	-0.539802	1.416665	0.008569	-0.009006	0.005221
67	0.377211	0.005000	1.058699	1.647820	-9.967220	-0.779548	-0.540460	1.415563	0.017597	-0.011343	0.000560
68	0.382211	0.005000	1.022904	1.569600	-9.972288	-0.779329	-0.541118	1.414461	0.022849	-0.007753	-0.001520
69	0.387211	0.005000	0.941760	1.495728	-10.075463	-0.779109	-0.541775	1.413359	0.033227	-0.009418	0.011333
70	0.392211	0.005000	1.059480	1.562575	-10.084680	-0.778783	-0.540720	1.412974	0.025667	-0.004999	0.010173
71	0.397211	0.005000	1.098720	1.500438	-10.015518	-0.778454	-0.539623	1.412607	0.050384	-0.007416	0.007764
72	0.402211	0.005000	1.165825	1.530360	-10.001086	-0.778125	-0.538526	1.412239	0.050300	-0.007630	0.002052
73	0.407211	0.005000	1.151590	1.543990	-9.980590	-0.777795	-0.537429	1.411872	0.032452	-0.001844	-0.003385
74	0.412211	0.005000	1.075213	1.553867	-9.966960	-0.777466	-0.536332	1.411504	0.044470	-0.012684	0.012032
75	0.417211	0.005000	1.116863	1.470023	-9.969915	-0.777137	-0.535235	1.411137	0.027168	-0.003070	0.004147
76	0.422211	0.005000	1.078641	1.530360	-9.966042	-0.776808	-0.534138	1.410769	0.034749	-0.011459	-0.001670
77	0.427211	0.005000	1.210699	1.608840	-10.067931	-0.776479	-0.533041	1.410402	0.024775	-0.005533	0.001239
78	0.432211	0.005000	1.074285	1.554795	-10.006200	-0.776150	-0.531944	1.410034	0.016157	-0.003329	-0.007148
79	0.437211	0.005000	1.137960	1.544807	-10.070233	-0.775821	-0.530846	1.409666	0.005649	-0.001625	0.001699
80	0.442211	0.005000	1.195534	1.491120	-10.095133	-0.775492	-0.529749	1.409299	-0.015595	0.000611	-0.002994
81	0.447211	0.005000	1.177200	1.491120	-10.060566	-0.775163	-0.528652	1.408931	-0.006927	-0.011116	0.003976
82	0.452211	0.005000	1.156240	1.530360	-10.006200	-0.774834	-0.527555	1.408564	-0.013989	-0.005626	0.001107
83	0.457211	0.005000	1.244615	1.569600	-9.970648	-0.774627	-0.526907	1.408424	-0.017001	-0.002499	-0.001722
84	0.462211	0.005000	1.212951	1.608840	-10.082935	-0.774627	-0.527016	1.408669	-0.017636	-0.009456	0.003234
85	0.467211	0.005000	1.137960	1.570266	-10.045440	-0.774627	-0.527126	1.408914	-0.002917	-0.009988	-0.003742
86	0.472211	0.005000	1.132726	1.603606	-10.152692	-0.774627	-0.527236	1.409159	0.007616	-0.017330	0.007786
87	0.477211	0.005000	1.132938	1.564578	-10.055483	-0.774627	-0.527345	1.409404	0.005333	-0.000511	-0.002716
88	0.482211	0.005000	1.066446	1.523394	-10.123920	-0.774627	-0.527455	1.409649	0.026558	-0.011517	-0.002601
89	0.487211	0.005000	1.029610	1.461250	-9.985700	-0.774627	-0.527564	1.409894	0.030280	-0.004385	-0.001287
90	0.492211	0.005000	1.036184	1.467824	-10.084680	-0.774627	-0.527674	1.410139	0.027467	-0.003827	-0.003389
91	0.497211	0.005000	1.098720	1.569600	-9.992472	-0.774627	-0.527784	1.410384	0.028680	-0.013164	0.001898
92	0.502211	0.005000	1.098720	1.608840	-10.092032	-0.774627	-0.527893	1.410629	0.037048	-0.005734	-0.003052
93	0.507211	0.005000	1.116801	1.551519	-10.123920	-0.774627	-0.528003	1.410874	0.039573	-0.005766	0.001891
94	0.512211	0.005000	1.057735	1.511612	-10.105172	-0.774627	-0.528113	1.411119	0.023219	-0.005409	-0.005275
95	0.517211	0.005000	0.997804	1.491120	-10.051072	-0.774627	-0.528222	1.411363	0.024808	-0.011520	0.000805
96	0.522211	0.005000	1.069937	1.491120	-9.981352	-0.774627	-0.528332	1.411608	0.020023	-0.005653	0.007831
97	0.527211	0.005000	1.057582	1.425087	-9.952614	-0.775045	-0.528024	1.411574	0.006728	-0.009307	-0.002876
98	0.532211	0.005000	1.000161	1.451880	-9.917680	-0.775593	-0.527585	1.411451	0.005468	-0.014276	0.003084
99	0.537211	0.005000	1.005007	1.538362	-9.919718	-0.776142	-0.527146	1.411329	-0.009944	-0.013535	-0.006244
100	0.542211	0.005000	0.981000	1.524680	-9.972640	-0.776691	-0.526707	1.411206	-0.010942	-0.006707	-0.000345
101	0.547211	0.005000	1.059480	1.522978	-10.041749	-0.777240	-0.526268	1.411083	-0.020549	-0.006611	0.001457
102	0.552211	0.005000	1.024234	1.527697	-10.084680	-0.777789	-0.525829	1.410961	-0.012431	-0.005106	-0.001025
103	0.557211	0.005000	1.137960	1.490061	-10.046499	-0.778337	-0.525390	1.410838	-0.002471	-0.012059	0.000421
104	0.562211	0.005000	1.174184	1.566584	-10.006200	-0.778886	-0.524951	1.410716	-0.004673	-0.011374	-0.002233
105	0.567211	0.005000	1.177200	1.569600	-10.029330	-0.779435	-0.524512	1.410593	0.007595	-0.017177	0.005455
106	0.572211	0.005000	1.044727	1.576977	-9.957227	-0.779984	-0.524073	1.410470	0.008985	-0.004934	-0.000578
107	0.577211	0.005000	1.207349	1.569600	-10.075014	-0.780533	-0.523634	1.410348	0.016050	-0.005025	0.007035
108	0.582211	0.005000	1.098720	1.463608	-10.084680	-0.781081	-0.523195	1.410225	0.022172	-0.003478	-0.000966
109	0.587211	0.005000	1.084579	1.555459	-10.042257	-0.781630	-0.522756	1.410103	0.031245	-0.008229	-0.002246
110	0.592211	0.005000	1.145031	1.491120	-10.107835	-0.782019	-0.522441	1.410020	0.039803	-0.010003	0.010224
111	0.597211	0.005000	1.156455	1.472625	-10.103175	-0.781580	-0.522771	1.410142	0.040476	-0.002737	-0.000080
112	0.602211	0.005000	1.078281	1.569600	-10.105119	-0.781141	-0.523100	1.410265	0.052296	-0.014609	0.003185
113	0.607211	0.005000	1.059480	1.513705	-10.022855	-0.780702	-0.523429	1.410387	0.032707	-0.001842	0.001905
114	0.612211	0.005000	1.098720	1.476673	-9.991753	-0.780263	-0.523758	1.410510	0.037677	-0.001311	-0.003288
115	0.617211	0.005000	1.071514	1.479086	-9.994166	-0.779824	-0.524087	1.410633	0.018842	-0.004281	0.002904
116	0.622211	0.005000	1.069569	1.540449	-10.055529	-0.779385	-0.524416	1.410755	0.016076	-0.004195	0.009289
117	0.627211	0.005000	1.091034	1.530360	-10.053126	-0.778947	-0.524745	1.410878	0.010798	-0.012232	0.015317
118	0.632211	0.005000	1.143633	1.485447	-10.039767	-0.778508	-0.525075	1.411000	0.004634	-0.009821	0.005192
119	0.637211	0.005000	1.092047	1.481111	-10.006200	-0.778069	-0.525404	1.411123	-0.000852	-0.011196	0.005924
120	0.642211	0.005000	1.018863	1.491120	-9.889857	-0.777630	-0.525733	1.411245	-0.006521	-0.017777	0.008915
121	0.647211	0.005000	0.981000	1.491120	-10.042364	-0.777191	-0.526062	1.411368	-0.000503	-0.007941	-0.001959
122	0.652211	0.005000	0.948537	1.533748	-9.934497	-0.776752	-0.526391	1.411490	0.000469	-0.019126	0.012854
123	0.657211	0.005000	1.020240	1.434135	-9.943842	-0.776313	-0.526720	1.411613	0.000916	0.000442	0.012054
124	0.662211	0.005000	1.020240	1.561900	-10.037740	-0.775813	-0.527049	1.411599	0.012882	-0.017713	0.013334
125	0.667211	0.005000	1.010507	1.432107	-10.035400	-0.775265	-0.527379	1.411476	0.011870	-0.010354	0.007171
126	0.672211	0.005000	0.941760	1.427598	-10.123920	-0.774716	-0.527708	1.411354	0.021244	-0.008622	-0.001989
127	0.677211	0.005000	1.034325	1.491120	-10.073611	-0.774168	-0.528037	1.411231	0.035979	-0.010996	0.002762
128	0.682211	0.005000	1.020240	1.474622	-10.084680	-0.773619	-0.528366	1.411109	0.038826	-0.006118	0.007212
129	0.687211	0.005000	1.117162	1.491120	-9.987758	-0.773071	-0.528695	1.410986	0.049647	-0.018159	0.018576
130	0.692211	0.005000	1.117108	1.608840	-9.966960	-0.772522	-0.529024	1.410864	0.056277	-0.021342	0.012599
131	0.697211	0.005000	1.036502	1.530360	-10.052156	-0.771974	-0.529353	1.410741	0.060088	-0.021169	0.007148
132	0.702211	0.005000	1.059480	1.491120	-10.045440	-0.771425	-0.529682	1.410618	0.055492	-0.011121	0.016736
133	0.707211	0.005000	1.020240	1.541991	-10.112289	-0.770877	-0.530011	1.410496	0.058604	-0.007244	-0.000306
134	0.712211	0.005000	0.970823	1.471745	-10.074992	-0.770328	-0.530340	1.410373	0.042759	-0.021611	0.002813
135	0.717211	0.005000	0.988272	1.459152	-10.038168	-0.769780	-0.530669	1.410251	0.032667	-0.014231	0.008178
136	0.722211	0.005000	1.054152	1.525032	-10.079352	-0.769231	-0.530998	1.410128	0.027543	-0.009499	-0.000074
137	0.727211	0.005000	1.017317	1.488197	-10.012046	-0.768683	-0.531327	1.410006	0.005994	-0.003029	0.005753
138	0.732211	0.005000	0.981968	1.413608	-10.048344	-0.768866	-0.531134	1.410700	0.013716	-0.008708	0.002101
139	0.737211	0.005000	1.020240	1.489681	-10.087557	-0.769085	-0.530915	1.411435	-0.003824	-0.015924	0.004679
140	0.742211	0.005000	1.091956	1.530360	-10.163160	-0.769305	-0.530695	1.412170	-0.018402	-0.005943	0.002483
141	0.747211	0.005000	1.065267	1.530360	-9.950869	-0.769524	-0.530476	1.412905	-0.013014	-0.016616	0.003198
142	0.752211	0.005000	1.090988	1.522628	-9.864703	-0.769744	-0.530256	1.413640	-0.019280	-0.011571	0.004619
143	0.757211	0.005000	1.010093	1.501267	-9.975760	-0.769963	-0.530037	1.414375	-0.016978	-0.010950	0.011034
144	0.762211	0.005000	1.007836	1.517956	-10.072276	-0.770182	-0.529818	1.415110	-0.002603	-0.006921	0.010509
145	0.767211	0.005000	1.137960	1.569600	-9.927720	-0.770402	-0.529598	1.415846	0.005484	-0.007166	-0.002007
146	0.772211	0.005000	0.997902	1.564165	-10.045440	-0.770621	-0.529379	1.416581	0.016944	-0.020915	0.013132
147	0.777211	0.005000	1.039087	1.549207	-10.025047	-0.770841	-0.529159	1.417316	0.015210	-0.011024	0.008548
148	0.782211	0.005000	1.016965	1.566325	-9.945702	-0.771060	-0.528940	1.418051	0.033545	-0.018416	0.006741
149	0.787211	0.005000	1.036093	1.537893	-9.982813	-0.771280	-0.528720	1.418786	0.034175	-0.013134	0.002211
150	0.792211	0.005000	1.059480	1.504746	-10.007838	-0.771499	-0.528501	1.419521	0.039332	-0.007041	-0.003123
151	0.797211	0.005000	1.165658	1.569600	-10.073138	-0.771604	-0.528320	1.419787	0.021068	-0.008620	0.001014
152	0.802211	0.005000	1.128686	1.588149	-10.006200	-0.771494	-0.528210	1.419174	0.034942	-0.003402	0.004286
153	0.807211	0.005000	1.105579	1.562741	-9.973819	-0.771384	-0.528101	1.418562	0.026565	-0.011119	-0.002724
154	0.812211	0.005000	1.142875	1.481291	-9.942464	-0.771275	-0.527991	1.417949	0.011508	-0.008127	-0.009328
155	0.817211	0.005000	1.093700	1.375910	-10.011220	-0.771165	-0.527881	1.417337	0.016592	-0.018533	-0.000739
156	0.822211	0.005000	1.020806	1.451880	-10.045440	-0.771055	-0.527771	1.416724	-0.004782	-0.012590	0.004433
157	0.827211	0.005000	1.059480	1.489290	-10.008030	-0.770945	-0.527662	1.416112	-0.012179	-0.002864	-0.005988
158	0.832211	0.005000	1.063262	1.491120	-10.045440	-0.770836	-0.527552	1.415499	-0.016554	-0.021211	0.001845
159	0.837211	0.005000	1.111116	1.484922	-10.039242	-0.770726	-0.527442	1.414887	-0.022181	-0.011546	0.001761
160	0.842211	0.005000	1.129818	1.600698	-9.975102	-0.770616	-0.527333	1.414274	-0.022714	-0.019612	0.003112
161	0.847211	0.005000	1.140915	1.562006	-9.998606	-0.770506	-0.527223	1.413662	-0.024597	-0.020059	0.008885
162	0.852211	0.005000	1.151574	1.583214	-9.927720	-0.770397	-0.527113	1.413049	-0.025351	-0.017196	0.000056
163	0.857211	0.005000	1.098720	1.608840	-9.991294	-0.770287	-0.527004	1.412437	-0.019315	-0.021644	0.001036
164	0.862211	0.005000	1.098720	1.648080	-10.028124	-0.770177	-0.526894	1.411824	-0.011936	-0.013413	-0.003556
165	0.867211	0.005000	1.118219	1.432381	-10.025699	-0.770720	-0.527029	1.411940	-0.010059	-0.017256	-0.002838
166	0.872211	0.005000	1.077049	1.469449	-10.049542	-0.771488	-0.527248	1.412308	0.005949	-0.019938	0.000589
167	0.877211	0.005000	1.137960	1.475963	-9.991043	-0.772256	-0.527468	1.412675	0.017130	-0.020769	-0.004574
168	0.882211	0.005000	1.138358	1.543573	-10.006200	-0.773024	-0.527687	1.413043	0.018467	-0.020259	0.001850
169	0.887211	0.005000	1.020240	1.537186	-10.045440	-0.773792	-0.527907	1.413410	0.028330	-0.019931	-0.002940
170	0.892211	0.005000	1.033204	1.491120	-10.084680	-0.774560	-0.528126	1.413778	0.023614	-0.024811	-0.000975
171	0.897211	0.005000	1.026686	1.465338	-10.045440	-0.775328	-0.528346	1.414145	0.018032	-0.007790	-0.008998
172	0.902211	0.005000	1.098720	1.386747	-9.980307	-0.776096	-0.528565	1.414513	0.011472	-0.013930	-0.002250
173	0.907211	0.005000	1.059480	1.453977	-10.123920	-0.776863	-0.528784	1.414880	-0.000600	-0.018222	-0.002470
174	0.912211	0.005000	1.137355	1.491120	-10.046045	-0.777631	-0.529004	1.415248	-0.014617	-0.014925	-0.009115
175	0.917211	0.005000	1.100971	1.412640	-10.043189	-0.778399	-0.529223	1.415615	-0.024183	-0.021686	0.004587
176	0.922211	0.005000	1.024854	1.417254	-10.015428	-0.779167	-0.529443	1.415983	-0.058899	-0.016520	-0.006518
177	0.927211	0.005000	1.157366	1.380011	-10.078069	-0.779935	-0.529662	1.416350	-0.065151	-0.020308	-0.002050
178	0.932211	0.005000	1.089810	1.373400	-9.997290	-0.780551	-0.529821	1.416582	-0.075935	-0.011727	0.004814
179	0.937211	0.005000	1.076796	1.384362	-10.056402	-0.780222	-0.529601	1.415970	-0.082733	-0.012012	-0.002281
180	0.942211	0.005000	1.085344	1.450992	-10.084680	-0.779893	-0.529382	1.415357	-0.081632	-0.024771	0.003648
181	0.947211	0.005000	1.035836	1.530360	-10.061535	-0.779564	-0.529162	1.414744	-0.078196	-0.013175	0.004698
182	0.952211	0.005000	1.002511	1.626569	-10.063169	-0.779235	-0.528943	1.414132	-0.062888	-0.025564	0.001634
183	0.957211	0.005000	0.981000	1.628173	-10.085255	-0.778906	-0.528724	1.413519	-0.044786	-0.021459	-0.004650
184	0.962211	0.005000	1.042324	1.630924	-10.141076	-0.778577	-0.528504	1.412907	-0.027009	-0.032916	0.001978
185	0.967211	0.005000	1.083684	1.633044	-10.084680	-0.778247	-0.528285	1.412294	-0.008971	-0.024385	0.001241
186	0.972211	0.005000	1.072279	1.503919	-10.006200	-0.777918	-0.528065	1.411682	-0.002471	-0.030445	-0.003237
187	0.977211	0.005000	1.137960	1.548809	-9.995804	-0.777589	-0.527846	1.411069	0.008043	-0.026482	0.002387
188	0.982211	0.005000	1.073366	1.547262	-10.062342	-0.777260	-0.527627	1.410456	0.014687	-0.027289	-0.002397
189	0.987211	0.005000	1.110810	1.596750	-10.072590	-0.776931	-0.527407	1.409844	0.027085	-0.028501	0.000470
190	0.992211	0.005000	1.094666	1.530360	-10.080626	-0.776602	-0.527188	1.409231	0.016973	-0.025773	0.004016
191	0.997211	0.005000	1.057796	1.569600	-10.088048	-0.776272	-0.526968	1.408619	0.020159	-0.025409	0.003394
192	1.002211	0.005000	1.020240	1.492542	-10.124631	-0.776822	-0.527452	1.409052	0.023745	-0.020408	-0.001611
193	1.007211	0.005000	1.054152	1.566936	-10.126584	-0.778138	-0.528549	1.410400	-0.007682	-0.010956	0.005118
194	1.012211	0.005000	1.020240	1.598678	-9.942963	-0.779455	-0.529646	1.411748	-0.011619	-0.013945	0.018272
195	1.017211	0.005000	0.981000	1.584394	-9.966960	-0.780771	-0.530743	1.413095	-0.044708	-0.010408	0.008356
196	1.022211	0.005000	0.960622	1.569600	-9.897911	-0.782088	-0.531840	1.414443	-0.045616	-0.022441	0.008393
197	1.027211	0.005000	1.023944	1.675475	-10.033595	-0.783404	-0.532937	1.415790	-0.064318	-0.024063	0.017713
198	1.032211	0.005000	1.059480	1.633997	-10.020283	-0.784721	-0.534034	1.417138	-0.051879	-0.015788	0.009363
199	1.037211	0.005000	1.004042	1.641236	-9.960116	-0.786037	-0.535131	1.418486	-0.056267	-0.021834	0.015561
200	1.042211	0.005000	1.122016	1.627235	-9.969411	-0.787354	-0.536228	1.419833	-0.063770	-0.014140	0.004168
201	1.047211	0.005000	1.101019	1.685021	-10.047739	-0.788670	-0.537325	1.421181	-0.057913	-0.025868	0.017880
202	1.052211	0.005000	1.082436	1.752455	-9.888480	-0.789987	-0.538422	1.422528	-0.056573	-0.016481	0.009063
203	1.057211	0.005000	1.005900	1.712220	-10.006200	-0.791303	-0.539519	1.423876	-0.035274	-0.019023	0.014171
204	1.062211	0.005000	1.047553	1.660007	-9.876553	-0.792620	-0.540616	1.425224	-0.033761	-0.020821	0.018283
205	1.067211	0.005000	0.941760	1.667594	-9.996549	-0.793937	-0.541713	1.426571	-0.012774	-0.023290	0.008798
206	1.072211	0.005000	0.941760	1.765800	-10.101193	-0.792909	-0.541078	1.425529	0.008670	-0.025557	0.011953
207	1.077211	0.005000	0.952079	1.755481	-9.938039	-0.791702	-0.540310	1.424304	0.008153	-0.016505	0.012664
208	1.082211	0.005000	1.105150	1.723345	-10.117490	-0.790495	-0.539542	1.423079	0.021925	-0.023150	0.022080
209	1.087211	0.005000	1.021862	1.690564	-10.046251	-0.789289	-0.538774	1.421854	0.044475	-0.018308	0.011963
210	1.092211	0.005000	1.136827	1.729959	-10.046573	-0.788082	-0.538006	1.420629	0.054542	-0.017628	0.004451
211	1.097211	0.005000	1.023791	1.687320	-10.145407	-0.786875	-0.537238	1.419403	0.055199	-0.027855	0.014278
212	1.102211	0.005000	1.059480	1.552337	-10.123920	-0.785668	-0.536470	1.418178	0.063600	-0.019862	0.006293
213	1.107211	0.005000	1.122160	1.616740	-10.147360	-0.784461	-0.535702	1.416953	0.073995	-0.015735	0.004869
214	1.112211	0.005000	1.089013	1.608840	-10.123920	-0.783255	-0.534934	1.415728	0.060694	-0.018078	0.004888
215	1.117211	0.005000	0.966256	1.608840	-10.111672	-0.782048	-0.534166	1.414503	0.064355	-0.020054	0.008785
216	1.122211	0.005000	0.970744	1.608840	-10.187908	-0.780841	-0.533398	1.413278	0.061764	-0.018957	0.012901
217	1.127211	0.005000	1.042875	1.586205	-10.062045	-0.779634	-0.532630	1.412053	0.052840	-0.013256	0.005987
218	1.132211	0.005000	1.059480	1.629292	-10.202400	-0.778428	-0.531862	1.410828	0.040609	-0.021385	-0.011669
219	1.137211	0.005000	1.001960	1.533039	-10.087359	-0.777612	-0.531307	1.410040	0.022505	-0.010483	-0.000134
220	1.142211	0.005000	1.051109	1.475250	-10.061310	-0.777612	-0.531198	1.410162	0.009858	-0.013144	-0.004221
221	1.147211	0.005000	1.045553	1.544287	-10.042900	-0.777612	-0.531088	1.410285	-0.007636	-0.004765	0.005926
222	1.152211	0.005000	1.020240	1.546573	-10.073167	-0.777612	-0.530978	1.410407	-0.005982	-0.012131	-0.000522
223	1.157211	0.005000	1.029695	1.550691	-9.918265	-0.777612	-0.530869	1.410530	-0.019863	-0.007931	0.000645
224	1.162211	0.005000	1.130798	1.551847	-9.988447	-0.777612	-0.530759	1.410652	-0.025944	-0.009443	-0.006752
225	1.167211	0.005000	1.054734	1.613586	-10.050186	-0.777612	-0.530649	1.410775	-0.027671	-0.024967	0.004120
226	1.172211	0.005000	1.017438	1.611642	-10.084680	-0.777612	-0.530540	1.410897	-0.028931	-0.010850	-0.002326
227	1.177211	0.005000	1.059480	1.569600	-10.084680	-0.777612	-0.530430	1.411020	-0.019074	-0.016876	-0.012049
228	1.182211	0.005000	1.021786	1.569600	-10.084680	-0.777612	-0.530320	1.411143	0.000992	-0.016295	0.000277
229	1.187211	0.005000	1.090820	1.534310	-10.010150	-0.777612	-0.530211	1.411265	0.007366	-0.013216	-0.005397
230	1.192211	0.005000	1.092427	1.497413	-10.090973	-0.777612	-0.530101	1.411388	0.027324	-0.009988	-0.001364
231	1.197211	0.005000	1.028550	1.491120	-10.045440	-0.777612	-0.529991	1.411510	0.025019	-0.017995	-0.007752
232	1.202211	0.005000	1.048891	1.559011	-10.123920	-0.777612	-0.529882	1.411633	0.033616	-0.019443	-0.000401
233	1.207211	0.005000	1.020240	1.530360	-10.070763	-0.777454	-0.529772	1.411491	0.038969	-0.012275	-0.003114
234	1.212211	0.005000	1.083645	1.569600	-10.045440	-0.777235	-0.529662	1.411246	0.042376	-0.020644	-0.003180
235	1.217211	0.005000	1.072066	1.547635	-10.045440	-0.777015	-0.529553	1.411001	0.036706	-0.014957	0.003024
236	1.222211	0.005000	1.020240	1.550171	-9.986389	-0.776796	-0.529443	1.410755	0.028532	-0.009511	-0.000842
237	1.227211	0.005000	1.016307	1.473467	-10.002267	-0.776576	-0.529333	1.410510	0.035225	-0.016714	-0.006756
238	1.232211	0.005000	1.004783	1.554143	-10.021657	-0.776357	-0.529223	1.410265	0.032544	-0.018682	-0.006113
239	1.237211	0.005000	1.006883	1.530360	-10.124752	-0.776138	-0.529114	1.410020	0.025190	-0.018233	-0.005539
240	1.242211	0.005000	1.009140	1.580700	-10.219440	-0.775918	-0.529004	1.409775	0.006092	-0.016521	0.000411
241	1.247211	0.005000	1.020240	1.599794	-10.063532	-0.775699	-0.528894	1.409530	0.000123	-0.010874	-0.007718
242	1.252211	0.005000	1.066232	1.556096	-10.057673	-0.775479	-0.528784	1.409285	0.009663	-0.021880	0.002458
243	1.257211	0.005000	1.063826	1.534706	-9.936413	-0.775260	-0.528675	1.409040	-0.011893	-0.003422	-0.012209
244	1.262211	0.005000	1.017837	1.495926	-9.893286	-0.775041	-0.528565	1.408795	-0.024705	-0.013510	-0.001128
245	1.267211	0.005000	1.137899	1.491150	-9.966960	-0.774821	-0.528455	1.408550	-0.019921	-0.017462	-0.002986
246	1.272211	0.005000	1.102638	1.681443	-10.002282	-0.774589	-0.528421	1.408347	-0.029123	-0.015675	-0.002614
247	1.277211	0.005000	0.915610	1.613203	-10.045440	-0.774260	-0.528970	1.408470	-0.029027	-0.019346	0.006780
248	1.282211	0.005000	0.954376	1.569600	-10.051748	-0.773931	-0.529518	1.408592	-0.017986	-0.017060	-0.005697
249	1.287211	0.005000	0.893797	1.578323	-10.045440	-0.773602	-0.530067	1.408715	-0.010063	-0.024542	0.000541
250	1.292211	0.005000	1.037485	1.563352	-10.095677	-0.773273	-0.530615	1.408837	-0.009109	-0.012362	-0.003108
251	1.297211	0.005000	1.007150	1.569600	-9.953870	-0.772943	-0.531164	1.408960	-0.001882	-0.007554	-0.001211
252	1.302211	0.005000	1.043992	1.545848	-10.038216	-0.772614	-0.531712	1.409082	0.009794	-0.008640	-0.004954
253	1.307211	0.005000	1.037924	1.573473	-10.123920	-0.772285	-0.532261	1.409205	0.011917	-0.014845	-0.000588
254	1.312211	0.005000	1.059924	1.609284	-10.065282	-0.771956	-0.532809	1.409327	0.018791	-0.015848	0.003244
255	1.317211	0.005000	1.037485	1.574350	-10.079930	-0.771627	-0.533358	1.409450	0.021102	-0.013243	-0.001249
256	1.322211	0.005000	1.068632	1.623884	-10.045440	-0.771298	-0.533907	1.409572	0.026039	-0.017756	0.002331
257	1.327211	0.005000	1.020240	1.634738	-9.979909	-0.770969	-0.534455	1.409695	0.011098	-0.006694	0.009630
258	1.332211	0.005000	1.020240	1.648080	-9.970511	-0.770639	-0.535004	1.409817	0.021155	-0.012999	0.000606
259	1.337211	0.005000	0.970543	1.679037	-10.006200	-0.770310	-0.535552	1.409940	0.032903	-0.013411	0.002028
260	1.342211	0.005000	0.948023	1.699845	-9.901005	-0.770149	-0.535485	1.409938	0.014675	-0.009070	-0.003283
261	1.347211	0.005000	1.016307	1.718694	-10.037574	-0.770149	-0.534827	1.409815	0.014234	-0.021686	0.012117
262	1.352211	0.005000	1.020240	1.531876	-10.081649	-0.770149	-0.534169	1.409692	0.011233	-0.007809	0.000836
263	1.357211	0.005000	1.097863	1.569600	-10.045011	-0.770149	-0.533511	1.409570	0.010460	-0.007879	0.003491
264	1.362211	0.005000	1.177200	1.569600	-9.966960	-0.770149	-0.532852	1.409447	0.005108	-0.005832	-0.002232
265	1.367211	0.005000	1.128406	1.608840	-9.996646	-0.770149	-0.532194	1.409325	-0.007769	-0.003317	-0.001609
266	1.372211	0.005000	1.091527	1.530360	-10.006200	-0.770149	-0.531536	1.409202	-0.000271	-0.012421	0.010945
267	1.377211	0.005000	0.978306	1.569600	-10.018030	-0.770149	-0.530878	1.409080	-0.002654	-0.007558	0.003810
268	1.382211	0.005000	0.981000	1.558056	-10.022352	-0.770149	-0.530219	1.408957	0.006828	-0.022010	-0.000304
269	1.387211	0.005000	1.020240	1.583088	-10.045440	-0.770149	-0.529561	1.408835	0.012117	-0.018896	-0.004951
270	1.392211	0.005000	0.925859	1.569600	-10.123920	-0.770149	-0.528903	1.408712	0.012780	-0.020394	-0.002220
271	1.397211	0.005000	0.956029	1.608840	-10.084680	-0.770149	-0.528245	1.408590	0.011709	-0.010076	0.005364
272	1.402211	0.005000	0.999993	1.631597	-10.064433	-0.770149	-0.527587	1.408467	-0.005463	-0.002069	-0.001119
273	1.407211	0.005000	1.059480	1.608840	-10.062292	-0.770149	-0.526928	1.408345	0.016075	-0.006629	-0.000358
274	1.412211	0.005000	1.098720	1.544997	-10.123920	-0.770447	-0.526965	1.408777	0.019120	-0.009159	0.003747
275	1.417211	0.005000	1.020240	1.542900	-10.047059	-0.770776	-0.527075	1.409267	0.008785	-0.011165	0.007656
276	1.422211	0.005000	0.999671	1.619124	-10.123920	-0.771105	-0.527185	1.409757	0.012990	-0.012084	0.005976
277	1.427211	0.005000	1.011996	1.639836	-10.171404	-0.771434	-0.527294	1.410247	0.015373	-0.008681	-0.003583
278	1.432211	0.005000	1.098720	1.602915	-10.123920	-0.771764	-0.527404	1.410737	0.001141	-0.005832	0.003205
279	1.437211	0.005000	1.090854	1.577466	-10.002267	-0.772093	-0.527514	1.411227	0.005654	0.000129	-0.001556
280	1.442211	0.005000	1.136384	1.641775	-10.048593	-0.772422	-0.527623	1.411717	0.018042	-0.008617	-0.000960
281	1.447211	0.005000	1.060312	1.491120	-10.085512	-0.772751	-0.527733	1.412207	0.010478	-0.009398	0.009115
282	1.452211	0.005000	0.950116	1.603269	-9.975316	-0.773080	-0.527843	1.412697	0.007274	-0.011699	-0.002763
283	1.457211	0.005000	1.083150	1.608840	-10.152780	-0.773409	-0.527952	1.413187	0.011297	-0.016012	0.004604
284	1.462211	0.005000	1.002404	1.655215	-10.052575	-0.773738	-0.528062	1.413677	0.007916	0.002518	0.001175
285	1.467211	0.005000	1.109345	1.618378	-10.006200	-0.774068	-0.528172	1.414167	0.015642	-0.004678	-0.000402
286	1.472211	0.005000	1.043205	1.692112	-9.989925	-0.774397	-0.528281	1.414657	0.015921	0.000825	-0.002196
287	1.477211	0.005000	1.020240	1.594944	-10.098576	-0.774594	-0.528325	1.415000	0.030927	-0.009281	0.008379
288	1.482211	0.005000	1.082610	1.578691	-10.022310	-0.774484	-0.528215	1.415000	0.044524	-0.014812	-0.003324
289	1.487211	0.005000	1.077730	1.527619	-9.948710	-0.774375	-0.528106	1.415000	0.038014	-0.018343	-0.002329
290	1.492211	0.005000	1.039058	1.530360	-10.007803	-0.774265	-0.527996	1.415000	0.050735	-0.020242	0.000199
291	1.497211	0.005000	1.076116	1.552964	-10.006200	-0.774155	-0.527887	1.415000	0.040298	-0.013213	-0.005523
292	1.502211	0.005000	1.010044	1.598644	-9.991678	-0.774046	-0.527777	1.415000	0.045005	-0.008420	0.001825
293	1.507211	0.005000	1.044798	1.557321	-9.873798	-0.773936	-0.527667	1.415000	0.034149	-0.006403	-0.000512
294	1.512211	0.005000	1.029866	1.500991	-9.927720	-0.773826	-0.527558	1.415000	0.042370	-0.007757	-0.002443
295	1.517211	0.005000	0.973072	1.616768	-9.966960	-0.773716	-0.527448	1.415000	0.043146	-0.011421	0.000196
296	1.522211	0.005000	0.941760	1.614352	-9.966960	-0.773607	-0.527338	1.415000	0.019937	-0.004327	-0.006792
297	1.527211	0.005000	0.984525	1.605315	-10.006200	-0.773497	-0.527229	1.415000	0.017971	-0.011957	0.005408
298	1.532211	0.005000	0.983327	1.530360	-10.006200	-0.773387	-0.527119	1.415000	0.004542	-0.011567	0.003134
299	1.537211	0.005000	0.944102	1.568819	-10.044659	-0.773278	-0.527010	1.415000	0.010177	-0.009029	0.008363
300	1.542211	0.005000	1.089166	1.569600	-10.042255	-0.773168	-0.526900	1.415000	0.012996	-0.009292	0.003368
301	1.547211	0.005000	1.098720	1.496657	-10.050977	-0.773437	-0.526866	1.414746	-0.004021	0.003749	0.006838
302	1.552211	0.005000	1.027785	1.491120	-9.959415	-0.773876	-0.526866	1.414379	0.008528	-0.011215	0.009579
303	1.557211	0.005000	1.059480	1.481287	-9.976793	-0.774314	-0.526866	1.414011	0.002782	0.004807	0.005849
304	1.562211	0.005000	1.071376	1.569600	-9.927720	-0.774753	-0.526866	1.413644	0.007412	-0.007561	-0.002758
305	1.567211	0.005000	0.994840	1.530360	-9.978519	-0.775192	-0.526866	1.413276	0.009757	-0.012582	-0.001374
306	1.572211	0.005000	1.059480	1.592587	-9.999466	-0.775631	-0.526866	1.412909	0.018145	0.001367	0.009963
307	1.577211	0.005000	1.085000	1.588040	-10.063880	-0.776070	-0.526866	1.412541	0.033894	-0.004571	0.008039
308	1.582211	0.005000	1.098720	1.590208	-10.024832	-0.776508	-0.526866	1.412174	0.040771	-0.001775	-0.000654
309	1.587211	0.005000	1.075969	1.602577	-10.028951	-0.776947	-0.526866	1.411806	0.059893	-0.012598	0.004713
310	1.592211	0.005000	1.045201	1.594561	-9.991921	-0.777386	-0.526866	1.411439	0.055358	-0.002190	0.009677
311	1.597211	0.005000	1.074335	1.503313	-9.966960	-0.777825	-0.526866	1.411071	0.055527	-0.009285	0.003346
312	1.602211	0.005000	0.951692	1.530360	-10.006200	-0.778264	-0.526866	1.410704	0.054724	-0.008964	-0.001925
313	1.607211	0.005000	1.020240	1.640184	-10.060991	-0.778702	-0.526866	1.410336	0.053536	-0.000244	0.007502
314	1.612211	0.005000	1.059480	1.592121	-10.079107	-0.779067	-0.526875	1.410083	0.035386	-0.009054	0.009183
315	1.617211	0.005000	1.020240	1.566015	-10.077510	-0.778628	-0.526985	1.411063	0.027605	0.002770	-0.009040
316	1.622211	0.005000	1.058256	1.492344	-9.968184	-0.778189	-0.527095	1.412043	0.034514	-0.002610	-0.002877
317	1.627211	0.005000	1.020240	1.606480	-10.006200	-0.777750	-0.527204	1.413023	0.032863	0.001931	0.017929
318	1.632211	0.005000	1.098720	1.608840	-10.045440	-0.777311	-0.527314	1.414003	0.008694	0.001664	0.006749
319	1.637211	0.005000	1.014764	1.518500	-10.011676	-0.776873	-0.527424	1.414983	0.013967	0.001978	0.007594
320	1.642211	0.005000	0.941760	1.522873	-10.006200	-0.776434	-0.527533	1.415963	0.020489	-0.002514	0.006063
321	1.647211	0.005000	1.098353	1.589036	-10.045440	-0.775995	-0.527643	1.416943	0.031826	-0.006578	0.008204
322	1.652211	0.005000	0.992845	1.569600	-9.951411	-0.775556	-0.527753	1.417923	0.017692	0.002182	-0.000455
323	1.657211	0.005000	1.112974	1.594586	-10.095412	-0.775117	-0.527862	1.418903	0.020506	-0.005288	0.003160
324	1.662211	0.005000	0.997666	1.631414	-10.068014	-0.774679	-0.527972	1.419884	0.037545	-0.009619	0.010927
325	1.667211	0.005000	0.983020	1.668710	-10.105310	-0.774240	-0.528082	1.420864	0.033360	-0.007509	0.003022
326	1.672211	0.005000	0.962781	1.627059	-10.087482	-0.773801	-0.528191	1.421844	0.052849	-0.010366	0.005231
327	1.677211	0.005000	1.013567	1.514076	-10.029156	-0.773362	-0.528301	1.422824	0.047335	-0.004837	-0.005291
328	1.682211	0.005000	1.110218	1.451880	-10.098551	-0.773239	-0.528358	1.423451	0.033215	-0.006653	-0.003159
329	1.687211	0.005000	1.126033	1.518433	-10.084680	-0.773459	-0.528358	1.423696	0.044110	0.000377	-0.002159
330	1.692211	0.005000	0.990863	1.432366	-10.055303	-0.773678	-0.528358	1.423941	0.033442	-0.004260	0.005465
331	1.697211	0.005000	1.098720	1.569600	-10.068167	-0.773898	-0.528358	1.424186	0.060083	-0.005978	0.010014
332	1.702211	0.005000	1.195802	1.530360	-10.035121	-0.774117	-0.528358	1.424431	0.044180	-0.002121	0.000378
333	1.707211	0.005000	1.141137	1.602487	-10.009377	-0.774336	-0.528358	1.424676	0.033716	-0.008755	0.001601
334	1.712211	0.005000	1.019429	1.491120	-10.123920	-0.774556	-0.528358	1.424921	0.013819	0.000541	0.001376
335	1.717211	0.005000	1.057214	1.567334	-10.009599	-0.774775	-0.528358	1.425166	0.017926	-0.006590	-0.000415
336	1.722211	0.005000	1.098720	1.644529	-10.116819	-0.774995	-0.528358	1.425411	0.006616	-0.003476	0.004926
337	1.727211	0.005000	1.053986	1.502108	-9.983443	-0.775214	-0.528358	1.425656	-0.012887	-0.007285	-0.000293
338	1.732211	0.005000	1.028140	1.459780	-10.006200	-0.775433	-0.528358	1.425901	0.003783	-0.021516	-0.002825
339	1.737211	0.005000	0.990844	1.500964	-10.045440	-0.775653	-0.528358	1.426146	0.016814	-0.009215	-0.002563
340	1.742211	0.005000	0.927016	1.532856	-10.111672	-0.775872	-0.528358	1.426391	0.015209	-0.013284	0.002473
341	1.747211	0.005000	0.937524	1.505612	-10.222913	-0.776092	-0.528358	1.426637	0.023364	-0.013249	-0.007199
342	1.752211	0.005000	0.958365	1.501695	-10.169190	-0.776984	-0.528742	1.427096	0.033382	-0.001633	-0.002390
343	1.757211	0.005000	0.962212	1.489456	-10.159832	-0.777971	-0.529181	1.427586	0.024868	-0.001833	0.002620
344	1.762211	0.005000	1.025599	1.391680	-10.069079	-0.778958	-0.529620	1.428076	0.033120	-0.000248	-0.004735
345	1.767211	0.005000	0.981000	1.468021	-9.983101	-0.779946	-0.530059	1.428566	0.046583	-0.012919	-0.009254
346	1.772211	0.005000	0.994927	1.477193	-9.992273	-0.780933	-0.530497	1.429056	0.052382	-0.003618	-0.007459
347	1.777211	0.005000	1.126447	1.463393	-10.151647	-0.781920	-0.530936	1.429546	0.038808	-0.010826	-0.004541
348	1.782211	0.005000	1.049911	1.511222	-10.114351	-0.782908	-0.531375	1.430036	0.037668	-0.007020	-0.006210
349	1.787211	0.005000	1.059480	1.476795	-10.027687	-0.783895	-0.531814	1.430526	0.026743	-0.001062	-0.007310
350	1.792211	0.005000	1.114195	1.417798	-10.045440	-0.784883	-0.532253	1.431016	0.011018	-0.009800	0.000183
351	1.797211	0.005000	1.241671	1.415442	-9.997795	-0.785870	-0.532692	1.431506	-0.004126	0.004728	-0.010559
352	1.802211	0.005000	1.060276	1.530360	-9.966562	-0.786857	-0.533130	1.431996	-0.014779	0.004792	0.000036
353	1.807211	0.005000	1.062573	1.568054	-9.890026	-0.787845	-0.533569	1.432486	-0.023323	-0.000357	0.009018
354	1.812211	0.005000	1.028046	1.530360	-9.998394	-0.788832	-0.534008	1.432976	-0.033818	0.003054	-0.009525
355	1.817211	0.005000	1.177200	1.451880	-10.012094	-0.789344	-0.534417	1.433200	-0.029069	-0.009334	-0.004062
356	1.822211	0.005000	1.098720	1.491120	-10.068252	-0.788576	-0.534746	1.432710	-0.030943	-0.001760	-0.003511
357	1.827211	0.005000	1.117452	1.569600	-9.966960	-0.787808	-0.535075	1.432220	-0.013468	-0.012191	-0.001224
358	1.832211	0.005000	1.112940	1.582110	-9.874260	-0.787040	-0.535405	1.431730	0.004647	-0.014473	-0.004046
359	1.837211	0.005000	1.113326	1.554994	-9.976988	-0.786272	-0.535734	1.431240	0.015406	-0.012828	-0.003985
360	1.842211	0.005000	1.081702	1.485917	-10.023218	-0.785504	-0.536063	1.430750	0.029882	-0.018825	-0.001272
361	1.847211	0.005000	1.118998	1.489804	-10.044124	-0.784736	-0.536392	1.430260	0.041199	-0.012747	-0.015992
362	1.852211	0.005000	1.098720	1.473253	-9.942081	-0.783968	-0.536721	1.429770	0.053708	-0.013529	-0.002945
363	1.857211	0.005000	1.059480	1.475197	-10.038045	-0.783200	-0.537050	1.429281	0.042197	-0.001854	-0.013995
364	1.862211	0.005000	1.008027	1.477606	-10.019714	-0.782432	-0.537379	1.428791	0.054118	-0.014019	-0.004916
365	1.867211	0.005000	1.082620	1.463450	-10.073110	-0.781664	-0.537709	1.428301	0.029192	-0.008455	-0.001657
366	1.872211	0.005000	1.207285	1.493738	-10.036285	-0.780896	-0.538038	1.427811	0.012927	-0.011687	-0.013208
367	1.877211	0.005000	1.130832	1.387655	-10.013328	-0.780128	-0.538367	1.427321	0.006876	-0.016012	-0.009237
368	1.882211	0.005000	1.172393	1.530360	-10.207207	-0.779361	-0.538696	1.426831	-0.007232	-0.005774	-0.011457
369	1.887211	0.005000	1.165885	1.488291	-10.073365	-0.778885	-0.538514	1.426096	-0.008761	-0.015979	0.004330
370	1.892211	0.005000	0.982837	1.412640	-9.966960	-0.778556	-0.538075	1.425238	-0.024996	-0.013501	-0.000624
371	1.897211	0.005000	1.100656	1.487247	-9.966960	-0.778227	-0.537636	1.424381	-0.038169	-0.010403	-0.007043
372	1.902211	0.005000	1.094817	1.530360	-9.974765	-0.777898	-0.537197	1.423523	-0.037257	-0.004146	0.004195
373	1.907211	0.005000	1.125495	1.491120	-9.966960	-0.777569	-0.536758	1.422666	-0.046581	-0.001902	0.001492
374	1.912211	0.005000	1.098720	1.381652	-9.950456	-0.777239	-0.536320	1.421808	-0.035563	-0.008683	0.005866
375	1.917211	0.005000	1.020240	1.459119	-10.063346	-0.776910	-0.535881	1.420950	-0.037994	-0.011907	-0.001741
376	1.922211	0.005000	1.164589	1.544379	-9.992181	-0.776581	-0.535442	1.420093	-0.022834	-0.018357	0.002324
377	1.927211	0.005000	1.098720	1.593821	-10.021219	-0.776252	-0.535003	1.419235	-0.003645	-0.012466	-0.004067
378	1.932211	0.005000	1.020240	1.608840	-10.023164	-0.775923	-0.534564	1.418378	0.008670	-0.017907	-0.006370
379	1.937211	0.005000	0.981490	1.510985	-10.006690	-0.775594	-0.534126	1.417520	0.028835	-0.021070	-0.002989
380	1.942211	0.005000	1.020240	1.533758	-10.024121	-0.775265	-0.533687	1.416662	0.028818	-0.006479	0.001816
381	1.947211	0.005000	1.074989	1.538582	-10.014422	-0.774936	-0.533248	1.415805	0.036489	-0.005378	-0.004143
382	1.952211	0.005000	1.071884	1.529346	-9.966960	-0.774634	-0.532816	1.414970	0.020616	-0.008422	-0.002670
383	1.957211	0.005000	1.042562	1.530360	-9.978121	-0.774743	-0.532487	1.414480	0.019497	-0.017370	0.001333
384	1.962211	0.005000	1.128853	1.470093	-9.985173	-0.774853	-0.532158	1.413990	0.017367	-0.014502	-0.002135
385	1.967211	0.005000	0.981000	1.555979	-10.019821	-0.774963	-0.531829	1.413500	0.018839	-0.005416	-0.003078
386	1.972211	0.005000	1.020240	1.460668	-10.080286	-0.775072	-0.531500	1.413011	0.009771	-0.011169	0.007441
387	1.977211	0.005000	0.941760	1.606390	-10.003750	-0.775182	-0.531171	1.412521	-0.016780	-0.003728	-0.000156
388	1.982211	0.005000	0.981092	1.491166	-10.045394	-0.775291	-0.530842	1.412031	-0.016572	-0.008097	0.008451
389	1.987211	0.005000	1.096822	1.530360	-9.894175	-0.775401	-0.530513	1.411541	-0.026551	-0.000873	-0.000240
390	1.992211	0.005000	0.954707	1.534676	-10.028177	-0.775511	-0.530184	1.411051	-0.036442	-0.014901	-0.003298
391	1.997211	0.005000	0.981000	1.563341	-9.999941	-0.775620	-0.529855	1.410561	-0.040151	-0.020496	0.006508
392	2.002211	0.005000	1.050814	1.591509	-10.076014	-0.775730	-0.529526	1.410072	-0.047201	-0.007064	0.002890
393	2.007211	0.005000	0.952370	1.648080	-10.056050	-0.775840	-0.529197	1.409582	-0.040460	-0.015755	0.001654
394	2.012211	0.005000	1.007216	1.635056	-10.071824	-0.775949	-0.528868	1.409092	-0.037895	-0.007694	-0.005283
395	2.017211	0.005000	1.029564	1.584558	-10.123920	-0.776059	-0.528539	1.408602	-0.016126	-0.008516	-0.007001
396	2.022211	0.005000	1.059480	1.569600	-10.167659	-0.776070	-0.528407	1.408443	-0.005203	-0.005273	0.003146
397	2.027211	0.005000	0.980388	1.569600	-10.142622	-0.775960	-0.528517	1.408688	-0.000832	-0.008648	0.007225
398	2.032211	0.005000	1.046175	1.587115	-10.080470	-0.775850	-0.528627	1.408934	0.032100	-0.021523	-0.002777
399	2.037211	0.005000	1.043910	1.687320	-9.990630	-0.775741	-0.528737	1.409179	0.037128	-0.006694	-0.001154
400	2.042211	0.005000	0.994162	1.660997	-9.993528	-0.775631	-0.528846	1.409424	0.047858	-0.014639	0.002800
401	2.047211	0.005000	1.020240	1.715342	-10.123920	-0.775521	-0.528956	1.409669	0.041429	-0.005433	0.003593
402	2.052211	0.005000	1.068283	1.660910	-10.123920	-0.775412	-0.529066	1.409914	0.049729	0.003386	0.000789
403	2.057211	0.005000	1.065877	1.530360	-10.150366	-0.775302	-0.529176	1.410159	0.059110	-0.002809	0.000919
404	2.062211	0.005000	1.055026	1.534814	-10.006200	-0.775192	-0.529285	1.410404	0.032807	-0.001659	0.004102
405	2.067211	0.005000	0.983036	1.532396	-10.047476	-0.775083	-0.529395	1.410649	0.027115	-0.007968	0.012557
406	2.072211	0.005000	1.020149	1.569600	-10.045531	-0.774973	-0.529505	1.410894	0.013043	-0.005631	0.003820
407	2.077211	0.005000	1.091784	1.569600	-10.010824	-0.774863	-0.529615	1.411139	0.006793	-0.003678	0.002630
408	2.082211	0.005000	1.028752	1.534616	-9.971216	-0.774754	-0.529724	1.411384	-0.005504	-0.003615	0.005871
409	2.087211	0.005000	1.157220	1.562940	-9.954360	-0.774644	-0.529834	1.411629	-0.011543	0.000901	0.001590
410	2.092211	0.005000	1.047151	1.500090	-9.957990	-0.775740	-0.529573	1.411667	0.008478	-0.010059	0.015167
411	2.097211	0.005000	1.020240	1.569600	-10.034421	-0.777056	-0.529244	1.411667	-0.007248	-0.003638	0.002198
412	2.102211	0.005000	1.046213	1.569040	-10.071413	-0.778372	-0.528915	1.411667	0.006087	-0.009063	0.015420
413	2.107211	0.005000	1.059480	1.608840	-10.115423	-0.779688	-0.528586	1.411667	0.011805	-0.009272	0.015143
414	2.112211	0.005000	1.020240	1.587383	-10.138030	-0.781003	-0.528257	1.411667	0.023658	-0.017318	0.008118
415	2.117211	0.005000	1.020240	1.510847	-10.026141	-0.782319	-0.527928	1.411667	0.037637	-0.008151	0.011843
416	2.122211	0.005000	1.037341	1.491120	-9.989099	-0.783635	-0.527599	1.411667	0.032567	-0.008346	0.016230
417	2.127211	0.005000	1.068406	1.467037	-10.099837	-0.784951	-0.527270	1.411667	0.031093	-0.015533	0.019220
418	2.132211	0.005000	0.992754	1.491120	-10.098423	-0.786267	-0.526941	1.411667	0.030124	-0.010017	0.009484
419	2.137211	0.005000	1.166395	1.508750	-10.084680	-0.787583	-0.526612	1.411667	0.035873	-0.010411	0.008463
420	2.142211	0.005000	1.081940	1.460270	-9.975350	-0.788899	-0.526283	1.411667	0.027121	-0.017031	0.012026
421	2.147211	0.005000	1.020240	1.470986	-10.006200	-0.790214	-0.525954	1.411667	0.013628	-0.014685	0.001267
422	2.152211	0.005000	1.071606	1.538444	-9.994074	-0.791530	-0.525625	1.411667	0.024163	-0.015293	0.007402
423	2.157211	0.005000	1.135888	1.526215	-9.966960	-0.792253	-0.525399	1.411609	0.000094	-0.014395	0.013406
424	2.162211	0.005000	1.098720	1.529748	-10.044828	-0.791047	-0.525509	1.411364	0.023652	-0.018039	0.012329
425	2.167211	0.005000	0.947145	1.493813	-9.927720	-0.789840	-0.525618	1.411119	0.018530	-0.003752	0.000752
426	2.172211	0.005000	1.015572	1.525692	-9.927720	-0.788633	-0.525728	1.410874	0.033405	-0.013946	-0.004284
427	2.177211	0.005000	0.909509	1.562611	-10.006200	-0.787426	-0.525838	1.410629	0.044219	-0.015281	0.006470
428	2.182211	0.005000	0.962965	1.491120	-10.087849	-0.786220	-0.525947	1.410384	0.051936	-0.019138	-0.003279
429	2.187211	0.005000	1.075856	1.474744	-10.068304	-0.785013	-0.526057	1.410139	0.076502	-0.020143	0.004183
430	2.192211	0.005000	1.033616	1.542848	-10.032064	-0.783806	-0.526167	1.409894	0.076260	-0.015321	-0.000569
431	2.197211	0.005000	1.028354	1.483450	-10.076566	-0.782599	-0.526277	1.409649	0.078422	-0.013040	0.005273
432	2.202211	0.005000	0.981000	1.491120	-10.123920	-0.781392	-0.526386	1.409404	0.069135	-0.005912	-0.003814
433	2.207211	0.005000	1.001140	1.432780	-10.145101	-0.780186	-0.526496	1.409159	0.054204	-0.011716	-0.010616
434	2.212211	0.005000	1.032468	1.356244	-10.045440	-0.778979	-0.526606	1.408914	0.061305	-0.014454	-0.010525
435	2.217211	0.005000	1.010487	1.363647	-10.138664	-0.777772	-0.526716	1.408669	0.036659	0.003045	-0.018322
436	2.222211	0.005000	1.045839	1.438239	-10.096637	-0.776565	-0.526825	1.408424	0.019529	-0.001833	-0.016207
437	2.227211	0.005000	1.127564	1.470329	-10.084680	-0.776119	-0.526866	1.408256	0.004690	0.005307	-0.014686
438	2.232211	0.005000	1.028590	1.404290	-10.037090	-0.776119	-0.526866	1.408133	-0.015216	-0.005910	-0.013638
439	2.237211	0.005000	1.026285	1.412640	-10.051485	-0.776119	-0.526866	1.408011	-0.021776	-0.008545	-0.006928
440	2.242211	0.005000	1.094666	1.412640	-10.159106	-0.776119	-0.526866	1.407888	-0.045288	-0.007373	-0.021814
441	2.247211	0.005000	1.061164	1.450196	-10.043756	-0.776119	-0.526866	1.407766	-0.043982	-0.011766	-0.022785
442	2.252211	0.005000	1.137249	1.489698	-10.006200	-0.776119	-0.526866	1.407644	-0.050822	-0.010854	-0.020783
443	2.257211	0.005000	1.140624	1.412640	-10.084680	-0.776119	-0.526866	1.407521	-0.043890	-0.011450	-0.013496
444	2.262211	0.005000	1.074547	1.446858	-9.898524	-0.776119	-0.526866	1.407399	-0.041412	-0.017915	-0.003917
445	2.267211	0.005000	1.202391	1.516311	-10.095821	-0.776119	-0.526866	1.407276	-0.029560	-0.011606	-0.008551
446	2.272211	0.005000	1.087773	1.550738	-10.133351	-0.776119	-0.526866	1.407154	-0.008767	-0.012499	-0.003904
447	2.277211	0.005000	1.075969	1.396151	-10.068191	-0.776119	-0.526866	1.407031	-0.016766	-0.006404	-0.006723
448	2.282211	0.005000	1.034029	1.516571	-10.151498	-0.776119	-0.526866	1.406909	0.008713	-0.013396	-0.001092
449	2.287211	0.005000	0.997005	1.569600	-10.179165	-0.776119	-0.526866	1.406786	0.014548	-0.003671	-0.003511
450	2.292211	0.005000	1.101675	1.681410	-10.120965	-0.776116	-0.526869	1.406698	0.018473	0.001901	-0.008610
451	2.297211	0.005000	1.001546	1.532213	-10.082827	-0.776007	-0.526978	1.407923	0.022664	-0.006638	-0.003515
452	2.302211	0.005000	1.081971	1.468629	-10.051181	-0.775897	-0.527088	1.409147	0.033030	-0.002225	0.003927
453	2.307211	0.005000	1.073820	1.466220	-10.045440	-0.775787	-0.527198	1.410372	0.033554	-0.003338	0.006853
454	2.312211	0.005000	1.177200	1.491120	-9.993947	-0.775678	-0.527307	1.411596	0.012322	0.003882	0.004473
455	2.317211	0.005000	1.108702	1.403347	-9.986236	-0.775568	-0.527417	1.412820	0.013843	-0.001667	0.007141
456	2.322211	0.005000	1.074631	1.530360	-9.997262	-0.775459	-0.527526	1.414045	-0.011346	-0.006555	0.012805
457	2.327211	0.005000	1.132328	1.563968	-10.073416	-0.775349	-0.527636	1.415269	-0.027078	-0.001627	0.006148
458	2.332211	0.005000	1.023455	1.569600	-10.009415	-0.775239	-0.527746	1.416494	-0.023424	-0.002938	0.020484
459	2.337211	0.005000	1.094953	1.607584	-10.084680	-0.775130	-0.527855	1.417718	-0.034783	-0.010469	0.008891
460	2.342211	0.005000	1.057214	1.607707	-10.046573	-0.775020	-0.527965	1.418943	-0.021657	-0.019398	0.015677
461	2.347211	0.005000	1.062990	1.533870	-9.895499	-0.774910	-0.528075	1.420167	-0.020340	-0.008982	0.012169
462	2.352211	0.005000	1.059480	1.569600	-9.955972	-0.774801	-0.528184	1.421392	-0.011646	-0.013964	0.004417
463	2.357211	0.005000	1.067286	1.601034	-10.108309	-0.774691	-0.528294	1.422616	0.000985	-0.013762	0.013883
464	2.362211	0.005000	1.108564	1.598996	-10.055284	-0.774536	-0.528358	1.423028	0.019677	-0.019507	0.009828
465	2.367211	0.005000	1.005496	1.621088	-10.074927	-0.774317	-0.528358	1.422293	0.019218	-0.019215	0.009756
466	2.372211	0.005000	1.030496	1.608840	-10.177652	-0.774097	-0.528358	1.421558	0.023953	-0.013329	0.009047
467	2.377211	0.005000	0.907065	1.530360	-10.074105	-0.773878	-0.528358	1.420823	0.053172	-0.013205	0.010708
468	2.382211	0.005000	1.003116	1.627628	-10.086344	-0.773658	-0.528358	1.420088	0.040585	-0.002455	0.009591
469	2.387211	0.005000	1.156240	1.629800	-10.144880	-0.773439	-0.528358	1.419353	0.041197	-0.001385	0.006295
470	2.392211	0.005000	1.137960	1.640581	-10.100550	-0.773220	-0.528358	1.418618	0.039165	-0.006769	0.011702
471	2.397211	0.005000	1.045553	1.673393	-10.093526	-0.773000	-0.528358	1.417883	0.032143	-0.005473	0.004874
472	2.402211	0.005000	1.059480	1.514147	-9.916207	-0.772781	-0.528358	1.417148	0.034168	-0.001587	0.007538
473	2.407211	0.005000	1.010785	1.579055	-10.015655	-0.772561	-0.528358	1.416413	0.018146	-0.006683	0.004738
474	2.412211	0.005000	1.137960	1.608840	-9.974122	-0.772342	-0.528358	1.415678	0.003063	-0.011519	0.011317
475	2.417211	0.005000	1.166883	1.648080	-10.055757	-0.772123	-0.528358	1.414943	-0.006749	-0.009487	0.003341
476	2.422211	0.005000	1.025844	1.726560	-9.994993	-0.771903	-0.528358	1.414208	-0.016529	-0.003759	0.004476
477	2.427211	0.005000	1.059878	1.648478	-9.889674	-0.771684	-0.528358	1.413473	-0.014831	-0.013001	0.001976
478	2.432211	0.005000	1.023333	1.725014	-9.930813	-0.771820	-0.528358	1.413234	-0.036292	-0.011869	0.004679
479	2.437211	0.005000	1.063430	1.577500	-10.186600	-0.772039	-0.528358	1.413111	-0.020058	-0.009500	0.006115
480	2.442211	0.005000	1.119081	1.641787	-10.018786	-0.772259	-0.528358	1.412989	-0.022226	-0.015188	0.002732
481	2.447211	0.005000	1.045171	1.687320	-10.115610	-0.772478	-0.528358	1.412866	-0.016902	-0.017369	0.007569
482	2.452211	0.005000	1.059480	1.715971	-10.074091	-0.772697	-0.528358	1.412744	-0.007021	-0.008858	0.007146
483	2.457211	0.005000	1.098720	1.713898	-9.992283	-0.772917	-0.528358	1.412622	-0.003831	-0.010419	0.001506
484	2.462211	0.005000	1.026224	1.654064	-9.982035	-0.773136	-0.528358	1.412499	0.015961	-0.016250	-0.005577
485	2.467211	0.005000	1.025443	1.625858	-10.033625	-0.773356	-0.528358	1.412377	0.022907	-0.005618	-0.012069
486	2.472211	0.005000	1.059480	1.628651	-10.006200	-0.773575	-0.528358	1.412254	0.036469	-0.002395	-0.010868
487	2.477211	0.005000	1.120307	1.648080	-10.045440	-0.773794	-0.528358	1.412132	0.052105	-0.003119	-0.007019
488	2.482211	0.005000	1.044023	1.663537	-10.076355	-0.774014	-0.528358	1.412009	0.045708	0.006373	-0.006513
489	2.487211	0.005000	1.033597	1.699845	-10.083848	-0.774233	-0.528358	1.411887	0.054435	0.004098	-0.004980
490	2.492211	0.005000	1.053540	1.636980	-10.034340	-0.774453	-0.528358	1.411764	0.058997	0.004076	-0.008284
491	2.497211	0.005000	1.150062	1.539406	-9.957914	-0.775167	-0.528628	1.412195	0.048591	-0.001293	-0.014725
492	2.502211	0.005000	1.008007	1.627825	-9.966960	-0.777800	-0.529945	1.414768	0.052689	0.000221	-0.008855
493	2.507211	0.005000	1.090027	1.565254	-9.975653	-0.780433	-0.531261	1.417340	0.035950	-0.002159	-0.020436
494	2.512211	0.005000	1.054674	1.537568	-10.040634	-0.783066	-0.532578	1.419913	0.033184	-0.014530	-0.008729
495	2.517211	0.005000	0.981000	1.648080	-9.966960	-0.785699	-0.533894	1.422485	0.028711	-0.009466	-0.019241
496	2.522211	0.005000	0.981000	1.532319	-9.890439	-0.788332	-0.535211	1.425058	0.026415	-0.014276	-0.008662
497	2.527211	0.005000	1.089993	1.456243	-9.892843	-0.790965	-0.536527	1.427631	0.020577	-0.013122	-0.002568
498	2.532211	0.005000	1.105421	1.523659	-9.966960	-0.793598	-0.537844	1.430203	0.015424	-0.013285	-0.011529
499	2.537211	0.005000	1.089997	1.499843	-10.023647	-0.796231	-0.539160	1.432776	0.006688	-0.018330	-0.008659
500	2.542211	0.005000	1.070477	1.491120	-10.028195	-0.798864	-0.540477	1.435348	-0.001244	-0.006539	-0.007998
501	2.547211	0.005000	1.059480	1.504210	-10.006200	-0.801497	-0.541793	1.437921	0.009877	-0.007968	-0.007926
502	2.552211	0.005000	1.083232	1.530360	-10.084680	-0.804130	-0.543110	1.440494	0.013794	0.001816	-0.008048
503	2.557211	0.005000	1.216440	1.630396	-10.049313	-0.806763	-0.544426	1.443066	0.014864	-0.001528	-0.013234
504	2.562211	0.005000	1.118562	1.530360	-10.084236	-0.809396	-0.545743	1.445639	0.022978	-0.003511	0.002758
505	2.567211	0.005000	1.143225	1.608840	-10.028452	-0.809262	-0.545610	1.445269	0.025625	0.013197	-0.009980
506	2.572211	0.005000	1.074350	1.593970	-10.045440	-0.807288	-0.544513	1.442942	0.040918	-0.003673	0.000698
507	2.577211	0.005000	1.046839	1.543001	-10.072039	-0.805313	-0.543416	1.440614	0.040012	0.006723	-0.003059
508	2.582211	0.005000	0.991227	1.433094	-10.065894	-0.803338	-0.542319	1.438287	0.052163	0.007116	-0.008684
509	2.587211	0.005000	1.082352	1.538544	-10.014384	-0.801363	-0.541222	1.435959	0.044035	-0.003281	-0.000942
510	2.592211	0.005000	1.059480	1.496997	-10.051317	-0.799389	-0.540125	1.433631	0.054603	0.001370	-0.004807
511	2.597211	0.005000	1.016780	1.441500	-10.048900	-0.797414	-0.539028	1.431304	0.057617	-0.002750	-0.000409
512	2.602211	0.005000	1.057964	1.414156	-10.081649	-0.795439	-0.537931	1.428976	0.047021	-0.006703	-0.003343
513	2.607211	0.005000	0.981877	1.566968	-10.006200	-0.793464	-0.536833	1.426648	0.047040	-0.010987	0.005350
514	2.612211	0.005000	1.101552	1.451880	-10.031278	-0.791490	-0.535736	1.424321	0.041624	0.002182	0.009248
515	2.617211	0.005000	1.132711	1.389148	-10.045440	-0.789515	-0.534639	1.421993	0.054177	-0.003171	0.003455
516	2.622211	0.005000	1.130767	1.476734	-9.974153	-0.787540	-0.533542	1.419666	0.063007	-0.000673	0.004045
517	2.627211	0.005000	1.098720	1.481521	-10.095122	-0.785565	-0.532445	1.417338	0.064692	-0.001520	-0.005203
518	2.632211	0.005000	1.102335	1.346035	-10.151285	-0.783591	-0.531348	1.415010	0.074007	-0.008903	-0.002833
519	2.637211	0.005000	1.163243	1.331528	-10.070723	-0.783254	-0.531125	1.414756	0.087056	-0.000918	-0.000631
520	2.642211	0.005000	1.115087	1.386414	-9.999693	-0.782925	-0.530905	1.414511	0.085574	-0.003063	-0.002362
521	2.647211	0.005000	1.080159	1.433319	-10.126038	-0.782596	-0.530686	1.414266	0.066383	0.005577	0.002921
522	2.652211	0.005000	1.119435	1.375589	-10.022536	-0.782267	-0.530467	1.414022	0.051625	0.016360	-0.007791
523	2.657211	0.005000	1.105194	1.389783	-9.983343	-0.781938	-0.530247	1.413777	0.032559	0.000208	-0.000397
524	2.662211	0.005000	1.134685	1.334160	-10.073783	-0.781609	-0.530028	1.413532	-0.000453	-0.000857	-0.002204
525	2.667211	0.005000	0.981000	1.330195	-10.139644	-0.781280	-0.529809	1.413287	-0.027360	-0.015275	-0.000599
526	2.672211	0.005000	1.078873	1.432487	-10.114223	-0.780951	-0.529589	1.413042	-0.049110	-0.005653	-0.001574
527	2.677211	0.005000	1.169793	1.405233	-9.998793	-0.780622	-0.529370	1.412797	-0.069140	-0.000391	0.005128
528	2.682211	0.005000	1.116358	1.558799	-10.040040	-0.780293	-0.529151	1.412552	-0.082884	0.003848	0.007390
529	2.687211	0.005000	1.134913	1.448833	-10.012293	-0.779964	-0.528932	1.412307	-0.090068	0.007241	-0.012450
530	2.692211	0.005000	0.981000	1.411997	-10.046083	-0.779635	-0.528712	1.412063	-0.074811	-0.010255	-0.002340
531	2.697211	0.005000	1.132755	1.525155	-10.046741	-0.779306	-0.528493	1.411818	-0.072054	-0.014038	-0.013137
532	2.702211	0.005000	1.137960	1.601402	-10.131358	-0.779062	-0.528274	1.411903	-0.027147	-0.016564	-0.010476
533	2.707211	0.005000	1.216440	1.575263	-10.146172	-0.778952	-0.528054	1.412515	-0.008527	-0.009379	-0.001616
534	2.712211	0.005000	1.137960	1.545395	-10.053508	-0.778842	-0.527835	1.413128	0.026490	-0.008397	-0.010537
535	2.717211	0.005000	1.206427	1.550386	-9.996999	-0.778733	-0.527615	1.413740	0.054986	-0.009546	-0.001644
536	2.722211	0.005000	1.162793	1.633673	-9.993783	-0.778623	-0.527396	1.414353	0.068179	-0.005248	-0.013867
537	2.727211	0.005000	1.162542	1.510513	-9.991542	-0.778513	-0.527177	1.414965	0.089913	-0.006262	-0.008247
538	2.732211	0.005000	1.210747	1.552827	-10.062213	-0.778404	-0.526957	1.415578	0.104002	-0.011303	-0.007992
539	2.737211	0.005000	1.099593	1.451880	-10.065496	-0.778294	-0.526738	1.416190	0.109141	-0.018023	-0.004687
540	2.742211	0.005000	1.119848	1.370384	-9.945832	-0.778184	-0.526518	1.416803	0.101689	-0.014264	-0.010334
541	2.747211	0.005000	1.106586	1.475418	-9.998364	-0.778075	-0.526299	1.417415	0.087814	-0.015048	-0.010748
542	2.752211	0.005000	1.098720	1.477521	-10.019799	-0.777965	-0.526079	1.418028	0.074037	-0.018301	-0.005243
543	2.757211	0.005000	1.087375	1.507670	-10.084680	-0.777855	-0.525860	1.418640	0.042397	-0.000278	-0.010090
544	2.762211	0.005000	1.057392	1.433304	-10.066104	-0.777746	-0.525641	1.419253	0.017189	-0.005005	-0.003570
545	2.767211	0.005000	1.137960	1.465868	-10.020188	-0.777636	-0.525421	1.419865	-0.014948	-0.002138	-0.001167
546	2.772211	0.005000	1.190933	1.608840	-10.140271	-0.777441	-0.525544	1.419522	-0.036892	-0.007787	-0.010533
547	2.777211	0.005000	1.177200	1.645478	-10.006200	-0.777221	-0.525764	1.418910	-0.050556	-0.002773	0.001197
548	2.782211	0.005000	1.138649	1.569600	-9.966960	-0.777002	-0.525983	1.418297	-0.059812	0.010816	-0.003773
549	2.787211	0.005000	1.255680	1.569600	-10.041114	-0.776783	-0.526202	1.417685	-0.069041	-0.004266	0.000127
550	2.792211	0.005000	1.208203	1.608840	-10.080562	-0.776563	-0.526422	1.417072	-0.065089	-0.000194	0.002356
551	2.797211	0.005000	1.209905	1.549965	-10.019270	-0.776344	-0.526641	1.416460	-0.054366	-0.000917	-0.010283
552	2.802211	0.005000	1.199483	1.569600	-9.975439	-0.776124	-0.526861	1.415847	-0.028963	-0.008571	0.004317
553	2.807211	0.005000	1.188086	1.637194	-9.934303	-0.775905	-0.527080	1.415235	-0.012950	-0.005247	0.003675
554	2.812211	0.005000	1.072822	1.634934	-10.032294	-0.775686	-0.527299	1.414622	0.009829	-0.013314	0.005013
555	2.817211	0.005000	1.092231	1.569600	-9.966960	-0.775466	-0.527519	1.414010	0.024090	-0.007970	0.000070
556	2.822211	0.005000	1.116373	1.551947	-9.988547	-0.775247	-0.527738	1.413397	0.060909	-0.015416	0.000008
557	2.827211	0.005000	1.197032	1.550192	-10.123920	-0.775027	-0.527958	1.412785	0.081590	-0.012422	0.004131
558	2.832211	0.005000	1.137960	1.547593	-10.106687	-0.774808	-0.528177	1.412172	0.110114	-0.020833	0.008251
559	2.837211	0.005000	1.113540	1.505940	-10.015799	-0.774665	-0.528320	1.411646	0.097771	-0.012022	0.004513
560	2.842211	0.005000	1.084924	1.531434	-10.098476	-0.774885	-0.528100	1.411523	0.092811	-0.005693	-0.001905
561	2.847211	0.005000	1.148428	1.501588	-10.066376	-0.775104	-0.527881	1.411401	0.082012	-0.010997	0.006556
562	2.852211	0.005000	1.106773	1.530360	-10.099761	-0.775323	-0.527662	1.411278	0.067889	-0.009359	-0.001395
563	2.857211	0.005000	1.165128	1.551493	-9.921684	-0.775543	-0.527442	1.411156	0.062959	-0.016961	-0.004484
564	2.862211	0.005000	1.063185	1.491120	-9.924015	-0.775762	-0.527223	1.411033	0.042625	-0.025565	0.007389
565	2.867211	0.005000	1.024143	1.376002	-9.931623	-0.775981	-0.527004	1.410911	0.022232	-0.014568	-0.002531
566	2.872211	0.005000	1.176557	1.451880	-10.084037	-0.776201	-0.526784	1.410788	0.017294	-0.009363	0.003139
567	2.877211	0.005000	1.180261	1.527299	-10.081619	-0.776420	-0.526565	1.410666	-0.007261	-0.007993	-0.006328
568	2.882211	0.005000	1.074493	1.530360	-10.118916	-0.776639	-0.526346	1.410543	-0.012526	-0.017715	-0.005855
569	2.887211	0.005000	1.123140	1.474110	-10.045440	-0.776859	-0.526126	1.410421	-0.012723	-0.007536	0.000714
570	2.892211	0.005000	1.147315	1.461235	-10.183691	-0.777078	-0.525907	1.410298	-0.009228	-0.012482	-0.007974
571	2.897211	0.005000	1.153662	1.479351	-10.123920	-0.777297	-0.525688	1.410176	0.010443	-0.021334	0.000112
572	2.902211	0.005000	1.098720	1.502935	-10.149447	-0.777517	-0.525468	1.410053	0.018773	-0.009183	-0.008312
573	2.907211	0.005000	1.177200	1.507242	-9.999203	-0.777302	-0.525559	1.410000	0.027195	-0.013507	-0.011908
574	2.912211	0.005000	1.077799	1.470199	-10.027121	-0.776753	-0.525888	1.410000	0.031501	-0.010009	-0.010236
575	2.917211	0.005000	1.020240	1.433117	-10.069345	-0.776205	-0.526218	1.410000	0.034358	-0.013686	-0.014159
576	2.922211	0.005000	1.115071	1.379937	-9.878666	-0.775656	-0.526547	1.410000	0.035912	-0.013689	-0.009008
577	2.927211	0.005000	1.073887	1.377381	-9.970941	-0.775107	-0.526876	1.410000	0.024541	-0.009822	-0.019905
578	2.932211	0.005000	1.161966	1.439877	-10.069446	-0.774558	-0.527205	1.410000	0.026057	-0.015934	-0.007138
579	2.937211	0.005000	1.118083	1.422579	-10.212339	-0.774009	-0.527535	1.410000	-0.000865	-0.012844	-0.006715
580	2.942211	0.005000	1.083416	1.365748	-10.194748	-0.773461	-0.527864	1.410000	-0.009034	-0.018459	-0.006666
581	2.947211	0.005000	1.008955	1.479835	-10.151875	-0.772912	-0.528193	1.410000	-0.024446	-0.020795	-0.005649
582	2.952211	0.005000	1.062772	1.373400	-10.117337	-0.772363	-0.528523	1.410000	-0.044365	-0.007593	-0.023097
583	2.957211	0.005000	1.100495	1.412640	-10.122145	-0.771814	-0.528852	1.410000	-0.053445	-0.014982	0.002770
584	2.962211	0.005000	1.100833	1.450824	-10.045440	-0.771265	-0.529181	1.410000	-0.074553	-0.007859	-0.007789
585	2.967211	0.005000	1.023714	1.530360	-10.091628	-0.770717	-0.529510	1.410000	-0.070592	-0.021101	-0.001426
586	2.972211	0.005000	1.082467	1.485702	-10.040022	-0.770168	-0.529840	1.410000	-0.076662	-0.016852	-0.001703
587	2.977211	0.005000	1.059480	1.538306	-10.076856	-0.770467	-0.529851	1.410000	-0.064897	-0.022658	0.000221
588	2.982211	0.005000	1.157664	1.461648	-10.035672	-0.770796	-0.529851	1.410000	-0.058857	-0.024623	0.005855
589	2.987211	0.005000	1.044604	1.569600	-10.069804	-0.771125	-0.529851	1.410000	-0.057843	-0.015381	0.000028
590	2.992211	0.005000	0.995416	1.495129	-10.138336	-0.771454	-0.529851	1.410000	-0.042985	-0.016801	0.001362
591	2.997211	0.005000	1.137960	1.575770	-10.078510	-0.771784	-0.529851	1.410000	-0.039396	-0.010985	0.002164
592	3.002211	0.005000	1.115617	1.608840	-10.045440	-0.772113	-0.529851	1.410000	-0.017440	-0.012411	0.000960
593	3.007211	0.005000	1.059480	1.708203	-10.082154	-0.772442	-0.529851	1.410000	-0.008652	-0.003986	-0.001575
594	3.012211	0.005000	1.059480	1.592893	-10.115319	-0.772771	-0.529851	1.410000	0.005505	-0.003663	-0.006796
595	3.017211	0.005000	1.045639	1.648080	-10.059281	-0.773100	-0.529851	1.410000	0.021457	-0.013471	0.011410
596	3.022211	0.005000	1.082660	1.514300	-9.939310	-0.773429	-0.529851	1.410000	0.028176	-0.005670	-0.004902
597	3.027211	0.005000	1.206910	1.560070	-9.977610	-0.773758	-0.529851	1.410000	0.038439	-0.007928	0.002665
598	3.032211	0.005000	1.077003	1.608840	-10.027917	-0.774088	-0.529851	1.410000	0.037744	-0.003462	0.009580
599	3.037211	0.005000	1.049012	1.614074	-10.045440	-0.774417	-0.529851	1.410000	0.051522	-0.006222	0.006294
600	3.042211	0.005000	1.025997	1.684442	-10.084680	-0.774706	-0.529772	1.410000	0.052788	-0.014568	0.006181
601	3.047211	0.005000	1.175777	1.570549	-10.044491	-0.774926	-0.529552	1.410000	0.046750	-0.003398	0.007159
602	3.052211	0.005000	1.021710	1.610310	-10.080271	-0.775145	-0.529333	1.410000	0.039732	-0.010109	0.008471
603	3.057211	0.005000	1.047818	1.569600	-10.006200	-0.775364	-0.529114	1.410000	0.006178	-0.011300	-0.004233
604	3.062211	0.005000	1.098720	1.536191	-10.000369	-0.775584	-0.528894	1.410000	0.011454	-0.013855	-0.001921
605	3.067211	0.005000	1.059480	1.569600	-10.154923	-0.775803	-0.528675	1.410000	0.000073	-0.010332	0.003761
606	3.072211	0.005000	1.148137	1.666965	-10.074503	-0.776023	-0.528455	1.410000	-0.016831	0.001298	-0.002252
607	3.077211	0.005000	1.152030	1.621425	-10.032855	-0.776242	-0.528236	1.410000	-0.024329	-0.014589	0.001867
608	3.082211	0.005000	1.192025	1.554775	-10.080323	-0.776462	-0.528016	1.410000	-0.021643	0.001429	-0.002999
609	3.087211	0.005000	0.997942	1.614196	-9.983902	-0.776681	-0.527797	1.410000	-0.021548	-0.011074	0.005588
610	3.092211	0.005000	1.041358	1.607842	-10.065559	-0.776900	-0.527578	1.410000	-0.015166	-0.005662	0.005651
611	3.097211	0.005000	1.155904	1.569600	-10.120567	-0.777120	-0.527358	1.410000	-0.007224	-0.009420	-0.003408
612	3.102211	0.005000	1.137960	1.506654	-10.115748	-0.777339	-0.527139	1.410000	0.005612	-0.005704	0.008101
613	3.107211	0.005000	1.178730	1.608840	-10.125450	-0.777559	-0.526919	1.410000	0.023671	-0.005532	0.005803
614	3.112211	0.005000	1.160313	1.569600	-10.045440	-0.777280	-0.526783	1.409907	0.054564	-0.011912	0.007081
615	3.117211	0.005000	1.158957	1.569600	-10.075558	-0.776842	-0.526673	1.409785	0.052782	-0.003068	-0.007593
616	3.122211	0.005000	1.170374	1.608840	-10.071029	-0.776403	-0.526564	1.409662	0.060805	-0.006720	0.006043
617	3.127211	0.005000	1.147611	1.608840	-9.907782	-0.775964	-0.526454	1.409540	0.066536	-0.003182	-0.002491
618	3.132211	0.005000	1.174735	1.645615	-10.042975	-0.775526	-0.526344	1.409417	0.071940	-0.011485	-0.004147
619	3.137211	0.005000	1.214383	1.530874	-9.968503	-0.775087	-0.526235	1.409295	0.058558	-0.002701	0.005793
620	3.142211	0.005000	0.947409	1.494886	-10.084680	-0.774648	-0.526125	1.409173	0.058171	0.001854	0.000887
621	3.147211	0.005000	1.086013	1.451880	-10.045440	-0.774210	-0.526015	1.409050	0.063713	-0.003761	-0.002037
622	3.152211	0.005000	1.111182	1.470574	-10.012431	-0.773771	-0.525905	1.408928	0.042101	-0.004053	-0.006981
623	3.157211	0.005000	0.989547	1.342707	-9.927720	-0.773333	-0.525796	1.408805	0.035166	-0.003212	-0.000999
624	3.162211	0.005000	1.098720	1.370278	-9.995609	-0.772894	-0.525686	1.408683	0.018680	-0.009942	-0.001964
625	3.167211	0.005000	1.006997	1.360157	-9.993202	-0.772455	-0.525576	1.408560	0.011682	-0.006430	-0.009026
626	3.172211	0.005000	0.990355	1.407052	-10.084680	-0.772017	-0.525467	1.408438	-0.000092	-0.008530	0.001035
627	3.177211	0.005000	1.103250	1.429995	-9.962430	-0.771706	-0.525389	1.408565	-0.008225	-0.001049	-0.005134
628	3.182211	0.005000	1.138603	1.314861	-10.006843	-0.772145	-0.525499	1.410157	-0.006940	-0.004801	-0.001458
629	3.187211	0.005000	1.102900	1.373400	-10.084680	-0.772584	-0.525608	1.411750	-0.006768	-0.002441	-0.001352
630	3.192211	0.005000	0.957160	1.545760	-10.069280	-0.773022	-0.525718	1.413343	-0.008714	-0.000237	-0.006504
631	3.197211	0.005000	1.059771	1.530069	-9.980137	-0.773461	-0.525828	1.414935	-0.004410	-0.011062	-0.000558
632	3.202211	0.005000	1.149063	1.440777	-9.966960	-0.773900	-0.525938	1.416528	-0.017637	0.002988	-0.016098
633	3.207211	0.005000	1.129141	1.499939	-9.962995	-0.774339	-0.526047	1.418120	-0.003360	-0.008322	-0.006809
634	3.212211	0.005000	1.098720	1.491120	-10.122317	-0.774778	-0.526157	1.419713	-0.006073	-0.014216	-0.001931
635	3.217211	0.005000	1.020240	1.343101	-10.006200	-0.775216	-0.526267	1.421306	0.002973	-0.007530	-0.009219
636	3.222211	0.005000	1.018174	1.412640	-9.929786	-0.775655	-0.526377	1.422898	-0.009417	-0.008056	-0.000318
637	3.227211	0.005000	1.020362	1.412885	-9.967082	-0.776094	-0.526486	1.424491	-0.005030	-0.001995	-0.005641
638	3.232211	0.005000	1.096451	1.380207	-10.080142	-0.776533	-0.526596	1.426083	0.006537	-0.021808	0.001894
639	3.237211	0.005000	1.063719	1.526121	-10.014679	-0.776972	-0.526706	1.427676	0.006498	-0.012519	-0.007498
640	3.242211	0.005000	0.974355	1.562955	-10.078035	-0.777410	-0.526816	1.429269	0.011241	-0.020479	-0.006200
641	3.247211	0.005000	1.103604	1.482531	-10.084680	-0.778502	-0.527459	1.430861	0.008637	-0.002982	0.007712
642	3.252211	0.005000	1.137960	1.508353	-10.084680	-0.780148	-0.528556	1.432454	0.013238	-0.002804	-0.002299
643	3.257211	0.005000	1.059082	1.491120	-10.019147	-0.781793	-0.529653	1.434046	0.009516	-0.003763	-0.002553
644	3.262211	0.005000	1.107248	1.443352	-9.958432	-0.783439	-0.530750	1.435639	-0.006145	-0.003364	-0.005487
645	3.267211	0.005000	1.194501	1.447241	-10.062741	-0.785084	-0.531847	1.437232	-0.011787	-0.011453	0.000574
646	3.272211	0.005000	1.137960	1.491120	-9.986672	-0.786730	-0.532944	1.438824	-0.022922	-0.009099	0.000004
647	3.277211	0.005000	1.076861	1.473739	-9.966960	-0.788376	-0.534042	1.440417	-0.021628	-0.014072	-0.012782
648	3.282211	0.005000	1.068356	1.482244	-10.045440	-0.790021	-0.535139	1.442009	-0.028229	-0.016926	-0.000433
649	3.287211	0.005000	1.033009	1.530360	-10.084680	-0.791667	-0.536236	1.443602	-0.027940	-0.001687	-0.002321
650	3.292211	0.005000	1.166505	1.501815	-9.984810	-0.793312	-0.537333	1.445195	-0.029839	-0.006876	-0.003205
651	3.297211	0.005000	1.146377	1.594852	-9.975377	-0.794958	-0.538430	1.446787	-0.035384	-0.002798	0.005169
652	3.302211	0.005000	1.150758	1.674522	-10.097478	-0.796603	-0.539527	1.448380	-0.030813	-0.011719	-0.006561
653	3.307211	0.005000	1.216440	1.534417	-10.123920	-0.798249	-0.540624	1.449972	-0.005162	-0.014355	-0.003681
654	3.312211	0.005000	1.211481	1.608840	-10.004547	-0.799895	-0.541721	1.451565	-0.005665	-0.009969	-0.003503
655	3.317211	0.005000	1.020822	1.569891	-10.005909	-0.798152	-0.540765	1.449145	0.009269	-0.017337	0.002213
656	3.322211	0.005000	1.054125	1.645402	-10.079325	-0.796179	-0.539668	1.446451	0.007758	-0.004520	-0.005192
657	3.327211	0.005000	1.211788	1.643428	-9.962308	-0.794205	-0.538572	1.443758	0.007703	-0.012247	0.005349
658	3.332211	0.005000	1.098720	1.516244	-9.877472	-0.792231	-0.537475	1.441064	0.013307	-0.001707	-0.003492
659	3.337211	0.005000	1.098720	1.430645	-9.906485	-0.790257	-0.536378	1.438370	0.029043	-0.010921	0.000481
660	3.342211	0.005000	1.070897	1.456869	-10.061846	-0.788283	-0.535282	1.435676	0.021939	-0.017926	0.002638
661	3.347211	0.005000	1.020240	1.529549	-10.057979	-0.786309	-0.534185	1.432982	0.022682	-0.012875	-0.001635
662	3.352211	0.005000	1.145673	1.483407	-9.982723	-0.784335	-0.533089	1.430288	0.027824	-0.017050	0.005929
663	3.357211	0.005000	1.201812	1.370072	-9.945676	-0.782361	-0.531992	1.427594	0.014693	-0.007729	0.005552
664	3.362211	0.005000	1.215445	1.393518	-9.986082	-0.780388	-0.530896	1.424900	0.018799	-0.015901	0.007349
665	3.367211	0.005000	1.137960	1.485825	-10.034851	-0.778414	-0.529799	1.422206	0.014258	-0.006863	-0.001669
666	3.372211	0.005000	1.186903	1.530360	-10.035737	-0.776440	-0.528703	1.419512	-0.003342	-0.013207	-0.002514
667	3.377211	0.005000	1.047125	1.557245	-10.111565	-0.774466	-0.527606	1.416818	-0.004228	-0.022531	-0.000659
668	3.382211	0.005000	1.059480	1.519949	-10.045440	-0.773134	-0.526937	1.414761	-0.004770	-0.029997	-0.014416
669	3.387211	0.005000	1.075488	1.530360	-10.061448	-0.773134	-0.527157	1.414026	-0.017062	-0.029669	-0.001400
670	3.392211	0.005000	1.198259	1.457940	-10.117860	-0.773134	-0.527376	1.413291	-0.015177	-0.016898	-0.005919
671	3.397211	0.005000	1.020240	1.455524	-10.159516	-0.773134	-0.527596	1.412556	-0.028618	-0.010589	-0.006285
672	3.402211	0.005000	1.054382	1.412640	-10.007899	-0.773134	-0.527815	1.411821	-0.036769	-0.010327	0.000965
673	3.407211	0.005000	0.980304	1.412640	-10.083984	-0.773134	-0.528034	1.411086	-0.031204	0.000287	-0.006732
674	3.412211	0.005000	1.059480	1.446583	-10.079383	-0.773134	-0.528254	1.410351	-0.024635	-0.009328	-0.001427
675	3.417211	0.005000	1.054473	1.525353	-10.045440	-0.773134	-0.528473	1.409616	-0.033476	-0.010420	-0.003003
676	3.422211	0.005000	1.045486	1.530360	-10.020194	-0.773134	-0.528693	1.408881	-0.037745	-0.006759	-0.000661
677	3.427211	0.005000	1.108023	1.479790	-10.077404	-0.773134	-0.528912	1.408146	-0.048167	0.000047	0.001893
678	3.432211	0.005000	1.137960	1.569600	-9.961787	-0.773134	-0.529131	1.407411	-0.058204	0.000999	-0.009607
679	3.437211	0.005000	1.059480	1.608840	-10.082628	-0.773134	-0.529351	1.406675	-0.047448	-0.007042	0.000549
680	3.442211	0.005000	0.957468	1.640256	-10.061148	-0.773134	-0.529570	1.405940	-0.064358	0.000508	-0.005251
681	3.447211	0.005000	0.962880	1.729560	-10.145040	-0.773134	-0.529790	1.405205	-0.043351	-0.012127	0.002108
682	3.452211	0.005000	1.001286	1.608840	-10.106297	-0.772976	-0.529772	1.405441	-0.045100	-0.009497	0.000690
683	3.457211	0.005000	1.121195	1.608840	-10.067915	-0.772757	-0.529662	1.406053	-0.035190	0.000214	-0.001287
684	3.462211	0.005000	1.108674	1.687320	-10.060083	-0.772537	-0.529553	1.406666	-0.022860	-0.006743	0.012217
685	3.467211	0.005000	1.125548	1.662497	-10.033028	-0.772318	-0.529443	1.407278	-0.008361	0.001556	0.009159
686	3.472211	0.005000	1.079475	1.569600	-9.996953	-0.772099	-0.529333	1.407890	-0.001735	-0.006831	0.007687
687	3.477211	0.005000	1.020240	1.562573	-9.966960	-0.771879	-0.529224	1.408502	-0.007787	-0.007263	0.007323
688	3.482211	0.005000	0.953055	1.642433	-10.000553	-0.771660	-0.529114	1.409115	0.011292	-0.009556	0.009026
689	3.487211	0.005000	1.059480	1.612545	-9.998790	-0.771441	-0.529004	1.409727	0.004841	-0.016827	0.007434
690	3.492211	0.005000	1.140562	1.569600	-9.969562	-0.771222	-0.528894	1.410339	0.003850	-0.017385	0.006886
691	3.497211	0.005000	1.139246	1.569600	-10.122634	-0.771002	-0.528785	1.410951	0.008361	-0.014453	0.015095
692	3.502211	0.005000	1.068556	1.681269	-10.123920	-0.770783	-0.528675	1.411563	0.005297	-0.006106	0.006796
693	3.507211	0.005000	1.064484	1.569600	-10.079676	-0.770564	-0.528565	1.412176	-0.000574	-0.015095	0.010274
694	3.512211	0.005000	1.083900	1.616250	-10.077270	-0.770344	-0.528456	1.412788	0.010835	-0.011470	0.004967
695	3.517211	0.005000	1.137960	1.627549	-10.183691	-0.770233	-0.528346	1.413279	0.008660	-0.010937	0.011646
696	3.522211	0.005000	1.098720	1.726560	-9.990498	-0.771001	-0.528236	1.412789	0.014541	-0.006891	0.012172
697	3.527211	0.005000	1.045472	1.687320	-10.070672	-0.771769	-0.528127	1.412299	0.022457	-0.005708	0.006969
698	3.532211	0.005000	1.130963	1.687320	-10.013197	-0.772537	-0.528017	1.411809	0.035092	-0.007618	0.012508
699	3.537211	0.005000	1.177200	1.669001	-10.000996	-0.773305	-0.527907	1.411319	0.035424	-0.001527	0.011404
700	3.542211	0.005000	1.059480	1.649794	-10.082966	-0.774073	-0.527798	1.410829	0.053236	-0.008612	0.002443
701	3.547211	0.005000	1.082095	1.658714	-10.051430	-0.774841	-0.527688	1.410339	0.049321	-0.002682	0.012602
702	3.552211	0.005000	1.069906	1.619266	-10.020607	-0.775609	-0.527578	1.409849	0.061160	-0.005318	0.006668
703	3.557211	0.005000	1.008237	1.569600	-10.018203	-0.776377	-0.527469	1.409359	0.065916	-0.016990	0.006566
704	3.562211	0.005000	1.010181	1.618899	-10.093744	-0.777145	-0.527359	1.408869	0.059813	-0.013930	0.009720
705	3.567211	0.005000	1.130308	1.640428	-10.037788	-0.777913	-0.527249	1.408379	0.054940	-0.012014	0.008711
706	3.572211	0.005000	1.126675	1.636795	-10.011842	-0.778681	-0.527140	1.407890	0.055403	-0.009468	0.006941
707	3.577211	0.005000	1.170617	1.566308	-10.048732	-0.779449	-0.527030	1.407400	0.061045	-0.004840	0.004845
708	3.582211	0.005000	1.100051	1.606178	-10.048102	-0.780217	-0.526920	1.406910	0.047179	-0.008550	0.005253
709	3.587211	0.005000	1.099776	1.492176	-10.085736	-0.780486	-0.526866	1.407348	0.061021	-0.012683	0.003504
710	3.592211	0.005000	1.052612	1.458748	-10.055742	-0.780267	-0.526866	1.408695	0.045617	-0.010788	-0.007270
711	3.597211	0.005000	1.177200	1.519525	-9.972378	-0.780047	-0.526866	1.410043	0.022434	-0.007081	-0.002188
712	3.602211	0.005000	1.169470	1.530360	-10.045440	-0.779828	-0.526866	1.411390	0.026735	-0.004661	-0.000571
713	3.607211	0.005000	1.177200	1.569600	-10.045440	-0.779609	-0.526866	1.412738	0.021557	-0.004067	-0.002572
714	3.612211	0.005000	1.110761	1.503161	-10.229599	-0.779389	-0.526866	1.414085	0.014604	-0.001787	-0.009553
715	3.617211	0.005000	1.101857	1.516234	-10.112932	-0.779170	-0.526866	1.415433	0.011104	-0.007744	0.000443
716	3.622211	0.005000	1.109085	1.546895	-10.006200	-0.778950	-0.526866	1.416780	-0.000918	-0.000246	-0.010755
717	3.627211	0.005000	1.038712	1.590368	-9.966960	-0.778731	-0.526866	1.418128	-0.002136	-0.008586	-0.010825
718	3.632211	0.005000	1.017714	1.569600	-10.084680	-0.778512	-0.526866	1.419475	-0.002854	-0.000902	-0.012186
719	3.637211	0.005000	1.137960	1.530360	-10.077873	-0.778292	-0.526866	1.420823	0.004887	-0.001922	-0.005714
720	3.642211	0.005000	1.137960	1.479887	-10.081910	-0.778073	-0.526866	1.422170	0.012935	-0.003902	-0.000611
721	3.647211	0.005000	1.126040	1.514960	-10.014641	-0.777853	-0.526866	1.423518	0.011278	0.002079	-0.003560
722	3.652211	0.005000	1.108365	1.314211	-10.065389	-0.777634	-0.526866	1.424866	0.017507	-0.002447	-0.000147
723	3.657211	0.005000	1.059480	1.476642	-9.934959	-0.777513	-0.526866	1.424008	0.021704	-0.006614	-0.005938
724	3.662211	0.005000	1.014945	1.535655	-9.933015	-0.777404	-0.526866	1.422906	0.040610	-0.015737	-0.002411
725	3.667211	0.005000	1.056602	1.530360	-10.000443	-0.777294	-0.526866	1.421804	0.026571	-0.004404	-0.008292
726	3.672211	0.005000	0.982846	1.529437	-9.890326	-0.777184	-0.526866	1.420702	0.027661	-0.005172	-0.011568
727	3.677211	0.005000	1.097250	1.453350	-10.004730	-0.777074	-0.526866	1.419600	0.029608	-0.014127	0.001545
728	3.682211	0.005000	0.992527	1.377242	-9.963118	-0.776965	-0.526866	1.418498	0.030043	0.000020	-0.005539
729	3.687211	0.005000	1.008578	1.406809	-10.078849	-0.776855	-0.526866	1.417396	0.027756	-0.018440	-0.011371
730	3.692211	0.005000	1.067618	1.412640	-9.983237	-0.776745	-0.526866	1.416293	0.001858	0.000205	0.000406
731	3.697211	0.005000	1.167023	1.470765	-10.045440	-0.776636	-0.526866	1.415191	0.012140	-0.014777	-0.001867
732	3.702211	0.005000	1.243245	1.439445	-10.043504	-0.776526	-0.526866	1.414089	0.001596	-0.016867	0.010622
733	3.707211	0.005000	1.152489	1.476591	-10.059969	-0.776416	-0.526866	1.412987	-0.008143	-0.006109	0.004756
734	3.712211	0.005000	1.154902	1.417996	-10.040084	-0.776307	-0.526866	1.411885	-0.009691	-0.016206	0.005917
735	3.717211	0.005000	1.137960	1.373400	-9.966960	-0.776197	-0.526866	1.410783	-0.026726	-0.006182	0.004842
736	3.722211	0.005000	1.113311	1.491120	-10.045440	-0.776119	-0.526898	1.410000	-0.029432	-0.007359	0.007209
737	3.727211	0.005000	1.043481	1.578357	-10.139919	-0.776119	-0.527007	1.410000	-0.027587	-0.004362	0.002315
738	3.732211	0.005000	1.098720	1.583190	-10.163160	-0.776119	-0.527117	1.410000	-0.012180	-0.013914	-0.006028
739	3.737211	0.005000	1.059480	1.530360	-10.135567	-0.776119	-0.527227	1.410000	0.002960	-0.015980	0.003197
740	3.742211	0.005000	1.080256	1.491120	-10.144696	-0.776119	-0.527336	1.410000	-0.003955	-0.020682	0.000781
741	3.747211	0.005000	0.949048	1.466455	-10.116632	-0.776119	-0.527446	1.410000	0.013541	-0.021017	0.011897
742	3.752211	0.005000	1.049716	1.496002	-10.040558	-0.776119	-0.527555	1.410000	0.025277	-0.016281	0.004999
743	3.757211	0.005000	1.017302	1.494058	-10.006200	-0.776119	-0.527665	1.410000	0.025101	-0.011594	0.006253
744	3.762211	0.005000	0.981521	1.451880	-10.006200	-0.776119	-0.527775	1.410000	0.022526	-0.006741	0.006823
745	3.767211	0.005000	0.982409	1.565374	-10.081863	-0.776119	-0.527884	1.410000	0.028492	-0.003607	0.000538
746	3.772211	0.005000	1.059480	1.569600	-10.006200	-0.776119	-0.527994	1.410000	0.023484	-0.012700	0.006848
747	3.777211	0.005000	1.132190	1.502659	-10.045440	-0.776119	-0.528104	1.410000	0.017529	-0.013567	0.003989
748	3.782211	0.005000	1.146136	1.499296	-9.983311	-0.776119	-0.528213	1.410000	0.019392	-0.020325	0.013002
749	3.787211	0.005000	1.001240	1.588600	-10.045440	-0.776119	-0.528323	1.410000	0.007814	-0.004929	0.013435
750	3.792211	0.005000	1.061118	1.557066	-9.977857	-0.775896	-0.528284	1.410083	0.006247	-0.014542	0.007726
751	3.797211	0.005000	1.073958	1.555122	-10.006200	-0.775567	-0.528174	1.410206	0.014189	-0.012592	0.017621
752	3.802211	0.005000	1.070901	1.569600	-9.944607	-0.775238	-0.528064	1.410328	0.004291	-0.007726	0.004782
753	3.807211	0.005000	1.079888	1.492697	-10.026608	-0.774908	-0.527955	1.410451	0.007678	-0.012890	0.011263
754	3.812211	0.005000	1.059480	1.548358	-9.988202	-0.774579	-0.527845	1.410573	0.022082	-0.016487	0.003225
755	3.817211	0.005000	1.075348	1.608840	-10.061308	-0.774250	-0.527735	1.410696	0.029474	-0.011160	0.019639
756	3.822211	0.005000	1.073121	1.608840	-10.059081	-0.773921	-0.527626	1.410818	0.027078	-0.014819	0.015292
757	3.827211	0.005000	1.059480	1.592714	-10.089248	-0.773592	-0.527516	1.410941	0.047399	-0.008786	0.004479
758	3.832211	0.005000	1.020240	1.638787	-10.066093	-0.773263	-0.527406	1.411063	0.047330	-0.014712	0.019703
759	3.837211	0.005000	0.987887	1.530360	-10.013087	-0.772934	-0.527297	1.411186	0.054837	-0.009538	0.011118
760	3.842211	0.005000	1.088833	1.559713	-10.055327	-0.772605	-0.527187	1.411308	0.048423	-0.016764	0.008717
761	3.847211	0.005000	1.096194	1.530360	-10.079628	-0.772276	-0.527077	1.411431	0.046759	-0.012652	0.004802
762	3.852211	0.005000	1.060062	1.570182	-10.161415	-0.771947	-0.526968	1.411554	0.032806	-0.010655	0.007501
763	3.857211	0.005000	1.098720	1.646280	-10.045440	-0.771658	-0.526850	1.411667	0.040377	-0.007036	0.004433
764	3.862211	0.005000	0.992299	1.459413	-9.935253	-0.771878	-0.526630	1.411667	0.025033	-0.001420	-0.004478
765	3.867211	0.005000	1.071703	1.457991	-10.033217	-0.772097	-0.526411	1.411667	0.036294	-0.011266	0.003783
766	3.872211	0.005000	1.059480	1.482993	-10.076553	-0.772316	-0.526192	1.411667	0.028886	-0.006068	0.003179
767	3.877211	0.005000	1.059480	1.530360	-10.037800	-0.772536	-0.525972	1.411667	0.031852	-0.013751	-0.002707
768	3.882211	0.005000	1.137960	1.608840	-9.900958	-0.772755	-0.525753	1.411667	0.029658	-0.013238	-0.007346
769	3.887211	0.005000	1.098720	1.638622	-10.069789	-0.772975	-0.525533	1.411667	0.038091	-0.003928	-0.004597
770	3.892211	0.005000	1.025292	1.630986	-10.089732	-0.773194	-0.525314	1.411667	0.037813	-0.004199	0.003342
771	3.897211	0.005000	1.176450	1.569600	-10.045440	-0.773413	-0.525095	1.411667	0.029915	-0.001188	-0.004411
772	3.902211	0.005000	1.137960	1.547951	-9.980494	-0.773633	-0.524875	1.411667	0.038179	-0.013995	-0.001401
773	3.907211	0.005000	1.114367	1.561654	-9.990553	-0.773852	-0.524656	1.411667	0.031924	-0.003447	-0.000064
774	3.912211	0.005000	1.111958	1.621604	-10.019438	-0.774072	-0.524436	1.411667	0.022941	-0.012116	-0.012183
775	3.917211	0.005000	1.042829	1.519065	-10.028789	-0.774291	-0.524217	1.411667	0.032307	-0.010784	0.000125
776	3.922211	0.005000	1.125360	1.403760	-10.123920	-0.774510	-0.523998	1.411667	0.012295	-0.011888	-0.007032
777	3.927211	0.005000	1.188698	1.366464	-10.137791	-0.775090	-0.524190	1.411954	0.013013	-0.020574	-0.007515
778	3.932211	0.005000	1.050420	1.386990	-10.188810	-0.776077	-0.524848	1.412567	-0.001415	-0.015031	-0.002429
779	3.937211	0.005000	1.030466	1.456993	-10.118807	-0.777065	-0.525506	1.413179	0.002121	-0.013059	-0.005889
780	3.942211	0.005000	1.138297	1.530697	-10.045103	-0.778052	-0.526164	1.413792	0.006018	-0.009838	-0.002802
781	3.947211	0.005000	1.253905	1.533911	-9.966960	-0.779040	-0.526823	1.414404	-0.001466	-0.012707	-0.008673
782	3.952211	0.005000	1.216440	1.451880	-10.002020	-0.780027	-0.527481	1.415017	0.003902	-0.011423	-0.007318
783	3.957211	0.005000	1.204192	1.458004	-10.018448	-0.781014	-0.528139	1.415629	-0.015872	-0.009701	-0.007652
784	3.962211	0.005000	1.294920	1.421180	-10.053980	-0.782002	-0.528797	1.416242	-0.020431	-0.018959	0.001582
785	3.967211	0.005000	1.187683	1.519877	-10.113437	-0.782989	-0.529456	1.416854	-0.005374	-0.013413	0.005989
786	3.972211	0.005000	1.177200	1.556142	-9.993309	-0.783977	-0.530114	1.417467	-0.008180	-0.009054	-0.001429
787	3.977211	0.005000	1.049900	1.457129	-10.069850	-0.784964	-0.530772	1.418079	-0.012825	-0.012244	0.008250
788	3.982211	0.005000	1.137960	1.535121	-10.101919	-0.785951	-0.531430	1.418692	-0.012379	-0.011157	-0.000707
789	3.987211	0.005000	1.079536	1.550416	-9.986144	-0.786939	-0.532089	1.419304	-0.004681	-0.011118	0.000813
790	3.992211	0.005000	1.238034	1.551954	-10.098377	-0.787926	-0.532747	1.419917	-0.000177	-0.005469	-0.005704
791	3.997211	0.005000	1.185399	1.506641	-10.092002	-0.789388	-0.533405	1.422224	0.022702	-0.014938	-0.002882
792	4.002211	0.005000	1.046818	1.530360	-10.005572	-0.790923	-0.534063	1.424796	0.019098	-0.014645	-0.000072
793	4.007211	0.005000	1.031449	1.502329	-10.000588	-0.792459	-0.534721	1.427369	0.024738	-0.015338	-0.002690
794	4.012211	0.005000	1.029178	1.590965	-10.045440	-0.793995	-0.535380	1.429942	0.028371	-0.022358	0.014543
795	4.017211	0.005000	1.118286	1.530360	-10.045440	-0.795531	-0.536038	1.432514	0.015117	-0.009219	0.004836
796	4.022211	0.005000	1.163467	1.525782	-10.015355	-0.797067	-0.536696	1.435087	0.015739	-0.015938	0.008887
797	4.027211	0.005000	1.052960	1.493293	-10.160987	-0.798603	-0.537354	1.437660	0.009895	-0.012111	0.006119
798	4.032211	0.005000	1.098266	1.412867	-10.083545	-0.800139	-0.538013	1.440232	-0.002480	-0.006310	-0.001021
799	4.037211	0.005000	1.131394	1.488931	-9.851429	-0.801674	-0.538671	1.442805	-0.002071	-0.013369	0.005991
800	4.042211	0.005000	1.063598	1.561363	-9.989726	-0.803210	-0.539329	1.445377	-0.021813	-0.010255	0.001833
801	4.047211	0.005000	1.092185	1.589235	-9.986565	-0.804746	-0.539987	1.447950	-0.026124	-0.021675	0.003693
802	4.052211	0.005000	1.129481	1.530360	-9.997721	-0.806282	-0.540645	1.450523	-0.028476	-0.011443	0.016596
803	4.057211	0.005000	1.127074	1.491120	-10.034554	-0.807818	-0.541304	1.453095	-0.027349	-0.012696	0.008830
804	4.062211	0.005000	1.124684	1.504396	-10.123920	-0.808613	-0.541620	1.454205	-0.032741	-0.006788	0.005585
805	4.067211	0.005000	1.161957	1.563111	-10.027932	-0.807298	-0.540962	1.451144	-0.025405	-0.013767	-0.006971
806	4.072211	0.005000	1.098720	1.582685	-10.027998	-0.805982	-0.540304	1.448083	-0.011184	-0.019147	0.011384
807	4.077211	0.005000	1.079077	1.589243	-9.947225	-0.804666	-0.539646	1.445021	-0.005033	-0.010782	-0.001641
808	4.082211	0.005000	1.094454	1.469367	-9.966960	-0.803350	-0.538988	1.441960	0.011805	-0.014997	0.003268
809	4.087211	0.005000	1.083431	1.593551	-10.069391	-0.802034	-0.538331	1.438899	0.014900	-0.016389	0.000678
810	4.092211	0.005000	1.085529	1.543218	-10.071489	-0.800718	-0.537673	1.435837	0.033224	-0.007671	-0.000271
811	4.097211	0.005000	1.127029	1.530360	-9.949583	-0.799402	-0.537015	1.432776	0.030146	-0.015638	0.000642
812	4.102211	0.005000	1.094999	1.578480	-10.097281	-0.798086	-0.536357	1.429715	0.010282	-0.012048	-0.000852
813	4.107211	0.005000	1.085553	1.608840	-9.927720	-0.796771	-0.535699	1.426653	0.023557	-0.012186	0.000044
814	4.112211	0.005000	1.059480	1.569600	-10.049618	-0.795455	-0.535041	1.423592	0.019514	-0.008126	0.003788
815	4.117211	0.005000	1.135726	1.571834	-9.971429	-0.794139	-0.534383	1.420531	0.025116	-0.015941	0.002413
816	4.122211	0.005000	1.137778	1.569782	-10.084498	-0.792823	-0.533725	1.417469	0.021390	-0.012125	0.007432
817	4.127211	0.005000	1.102975	1.454007	-10.121793	-0.791507	-0.533067	1.414408	0.002503	-0.006780	-0.002818
818	4.132211	0.005000	1.089765	1.565122	-10.049918	-0.790333	-0.532551	1.413095	0.009808	-0.026670	0.004478
819	4.137211	0.005000	1.007288	1.595888	-10.084680	-0.789236	-0.532112	1.412727	-0.009906	-0.003095	-0.006080
820	4.142211	0.005000	1.029029	1.560811	-10.041356	-0.788139	-0.531674	1.412360	-0.005908	-0.007834	0.003757
821	4.147211	0.005000	1.116289	1.512791	-10.006200	-0.787042	-0.531235	1.411992	-0.002816	-0.004539	-0.005196
822	4.152211	0.005000	1.072565	1.543430	-10.032370	-0.785945	-0.530796	1.411624	0.008202	-0.009090	-0.003913
823	4.157211	0.005000	1.083532	1.554412	-10.045440	-0.784848	-0.530357	1.411257	0.004135	-0.021025	0.003905
824	4.162211	0.005000	1.059480	1.530360	-10.063040	-0.783751	-0.529918	1.410889	0.011602	-0.012689	0.003364
825	4.167211	0.005000	1.059783	1.609143	-10.084377	-0.782653	-0.529480	1.410522	0.027164	-0.014248	-0.001869
826	4.172211	0.005000	1.020240	1.469165	-10.045440	-0.781556	-0.529041	1.410154	0.020677	-0.009237	-0.007488
827	4.177211	0.005000	1.059480	1.491120	-10.069507	-0.780459	-0.528602	1.409787	0.024445	-0.015639	-0.006757
828	4.182211	0.005000	1.150897	1.491120	-10.045869	-0.779362	-0.528163	1.409419	0.030616	-0.005689	0.003255
829	4.187211	0.005000	1.133755	1.473603	-9.910203	-0.778265	-0.527724	1.409052	0.038619	-0.001769	-0.005026
830	4.192211	0.005000	1.037411	1.538946	-10.014786	-0.777168	-0.527286	1.408684	0.048348	-0.007390	0.004782
831	4.197211	0.005000	1.098720	1.497685	-10.143464	-0.776143	-0.526885	1.408344	0.037719	-0.001602	-0.005261
832	4.202211	0.005000	0.993677	1.495346	-10.076229	-0.776691	-0.527324	1.408589	0.032571	-0.020018	-0.006320
833	4.207211	0.005000	1.100974	1.645826	-10.047694	-0.777240	-0.527763	1.408834	0.025807	-0.010584	-0.005181
834	4.212211	0.005000	1.098842	1.491487	-10.006445	-0.777788	-0.528201	1.409079	0.010975	-0.018476	-0.003119
835	4.217211	0.005000	1.098720	1.456902	-10.008711	-0.778336	-0.528640	1.409324	0.017180	-0.009083	0.002963
836	4.222211	0.005000	1.054996	1.521392	-10.158676	-0.778885	-0.529078	1.409569	0.012266	-0.005288	-0.000212
837	4.227211	0.005000	1.196018	1.595226	-10.137534	-0.779433	-0.529517	1.409813	0.026314	-0.013361	0.006306
838	4.232211	0.005000	1.207606	1.482286	-9.954222	-0.779981	-0.529956	1.410058	0.004276	-0.005720	0.003859
839	4.237211	0.005000	1.109839	1.502239	-9.927720	-0.780530	-0.530394	1.410303	0.002861	-0.016191	-0.002380
840	4.242211	0.005000	1.007048	1.477928	-10.097872	-0.781078	-0.530833	1.410548	0.004800	-0.006451	0.000870
841	4.247211	0.005000	1.122545	1.569600	-9.966960	-0.781626	-0.531272	1.410793	-0.004035	-0.008572	-0.005574
842	4.252211	0.005000	1.081181	1.508659	-9.962797	-0.782175	-0.531710	1.411038	0.016740	-0.018873	0.002881
843	4.257211	0.005000	1.040189	1.490462	-10.005542	-0.782723	-0.532149	1.411283	0.013229	0.006657	0.001843
844	4.262211	0.005000	1.029334	1.421734	-10.062786	-0.783271	-0.532587	1.411528	0.012245	-0.011477	0.004032
845	4.267211	0.005000	0.956697	1.334160	-9.961389	-0.783154	-0.532931	1.411561	0.001943	-0.006908	-0.000708
846	4.272211	0.005000	1.098720	1.451169	-10.005489	-0.782168	-0.533150	1.411316	0.022856	-0.010638	0.008799
847	4.277211	0.005000	1.098720	1.451880	-10.066599	-0.781181	-0.533370	1.411071	0.031182	-0.014844	0.010113
848	4.282211	0.005000	1.199376	1.451880	-10.123920	-0.780194	-0.533589	1.410826	0.031593	-0.013431	0.006843
849	4.287211	0.005000	1.131731	1.392086	-10.163160	-0.779207	-0.533808	1.410581	0.032083	-0.012377	0.008343
850	4.292211	0.005000	1.121018	1.521889	-10.053911	-0.778220	-0.534028	1.410336	0.041020	-0.013127	0.011628
851	4.297211	0.005000	1.098720	1.491120	-10.120184	-0.777233	-0.534247	1.410091	0.042826	-0.013244	0.003873
852	4.302211	0.005000	1.098720	1.412793	-10.123767	-0.776246	-0.534466	1.409846	0.026645	-0.017753	0.005744
853	4.307211	0.005000	0.983480	1.451880	-10.197440	-0.775259	-0.534685	1.409601	0.031632	-0.012121	0.002358
854	4.312211	0.005000	1.098720	1.486695	-10.123920	-0.774272	-0.534905	1.409356	0.019044	-0.023849	0.016238
855	4.317211	0.005000	1.045823	1.484292	-10.105165	-0.773285	-0.535124	1.409111	0.008961	-0.007169	0.007525
856	4.322211	0.005000	1.011103	1.461017	-10.063714	-0.772298	-0.535343	1.408866	0.015539	-0.006344	-0.004581
857	4.327211	0.005000	1.042615	1.451880	-10.028575	-0.771311	-0.535563	1.408621	0.011784	-0.015755	0.001872
858	4.332211	0.005000	1.112153	1.529301	-10.032007	-0.770324	-0.535782	1.408377	0.013267	-0.007612	-0.001157
859	4.337211	0.005000	1.035780	1.436340	-10.029900	-0.770239	-0.535280	1.408434	-0.000063	-0.021469	0.010476
860	4.342211	0.005000	0.981000	1.530360	-10.123920	-0.770349	-0.534621	1.408556	-0.008584	-0.008089	0.003761
861	4.347211	0.005000	0.922415	1.608840	-10.104025	-0.770459	-0.533963	1.408679	0.002626	-0.014517	0.002959
862	4.352211	0.005000	1.042547	1.508053	-10.050814	-0.770568	-0.533305	1.408801	-0.010165	-0.009796	-0.002406
863	4.357211	0.005000	1.025429	1.554790	-9.942530	-0.770678	-0.532647	1.408924	-0.020353	-0.011177	-0.003938
864	4.362211	0.005000	0.995080	1.557020	-9.940300	-0.770788	-0.531989	1.409046	-0.006438	-0.009712	0.015385
865	4.367211	0.005000	1.030753	1.601140	-10.006200	-0.770898	-0.531330	1.409169	-0.006595	-0.003900	0.007652
866	4.372211	0.005000	1.059480	1.553157	-9.935942	-0.771007	-0.530672	1.409291	0.004551	-0.013398	0.000548
867	4.377211	0.005000	0.947962	1.484918	-10.018604	-0.771117	-0.530014	1.409414	0.007100	-0.009844	-0.000381
868	4.382211	0.005000	0.953380	1.487247	-10.049313	-0.771227	-0.529356	1.409537	0.019563	-0.011888	0.003195
869	4.387211	0.005000	1.213502	1.489651	-10.043971	-0.771337	-0.528697	1.409659	0.018937	-0.017512	0.010588
870	4.392211	0.005000	1.099195	1.413115	-10.083731	-0.771446	-0.528039	1.409782	0.021254	-0.016799	-0.001613
871	4.397211	0.005000	1.143745	1.527468	-9.975637	-0.771556	-0.527381	1.409904	0.027187	-0.016695	0.009647
872	4.402211	0.005000	1.148428	1.569600	-9.922486	-0.771666	-0.526794	1.409973	0.011840	-0.005040	0.002065
873	4.407211	0.005000	1.088447	1.608840	-9.927720	-0.771775	-0.526465	1.409851	0.016940	-0.013536	-0.000543
874	4.412211	0.005000	1.128303	1.510434	-9.966960	-0.771885	-0.526136	1.409728	-0.004394	-0.008020	0.001813
875	4.417211	0.005000	1.137960	1.518440	-9.912320	-0.771995	-0.525807	1.409606	-0.008480	-0.015032	0.002031
876	4.422211	0.005000	1.059480	1.547155	-9.941729	-0.772104	-0.525478	1.409483	0.000560	-0.017916	0.005192
877	4.427211	0.005000	1.108744	1.530360	-10.045440	-0.772214	-0.525149	1.409361	0.000639	-0.008566	0.004026
878	4.432211	0.005000	1.158594	1.530360	-10.045440	-0.772324	-0.524820	1.409238	0.001340	-0.013699	0.007627
879	4.437211	0.005000	1.137960	1.532672	-10.026976	-0.772433	-0.524491	1.409116	0.001249	-0.005380	-0.005068
880	4.442211	0.005000	1.082398	1.540087	-9.966960	-0.772543	-0.524162	1.408994	0.028711	-0.010996	0.012789
881	4.447211	0.005000	1.084610	1.505230	-10.098790	-0.772652	-0.523833	1.408871	0.022257	-0.006986	0.018143
882	4.452211	0.005000	1.110746	1.581626	-10.009362	-0.772762	-0.523504	1.408749	0.029805	-0.013663	0.009711
883	4.457211	0.005000	1.167549	1.481469	-9.966960	-0.772872	-0.523175	1.408626	0.040895	-0.014142	0.008552
884	4.462211	0.005000	1.137960	1.491120	-10.084680	-0.772981	-0.522846	1.408504	0.039673	-0.003943	-0.002065
885	4.467211	0.005000	1.143364	1.491120	-10.118516	-0.773091	-0.522517	1.408381	0.046120	-0.015532	0.002986
886	4.472211	0.005000	1.092721	1.533360	-10.151161	-0.773201	-0.522588	1.408482	0.022827	-0.008804	0.006372
887	4.477211	0.005000	1.059480	1.530360	-9.969048	-0.773310	-0.522917	1.408727	0.044962	-0.006101	0.004880
888	4.482211	0.005000	0.983724	1.568238	-10.083318	-0.773420	-0.523246	1.408972	0.027246	-0.015400	0.007450
889	4.487211	0.005000	1.062786	1.494426	-9.937637	-0.773530	-0.523575	1.409217	0.026492	-0.019197	-0.004483
890	4.492211	0.005000	1.210729	1.435483	-10.073259	-0.773640	-0.523904	1.409462	0.005699	-0.020396	0.000906
891	4.497211	0.005000	1.231582	1.412640	-10.163160	-0.773749	-0.524233	1.409707	0.009935	-0.013199	0.001755
892	4.502211	0.005000	1.187270	1.412640	-9.996130	-0.773859	-0.524563	1.409952	0.014155	-0.014555	0.007263
893	4.507211	0.005000	1.189529	1.503449	-10.006200	-0.773969	-0.524892	1.410197	-0.008525	-0.004648	0.001210
894	4.512211	0.005000	1.102747	1.491120	-10.099102	-0.774079	-0.525221	1.410442	-0.012313	-0.010868	-0.000686
895	4.517211	0.005000	1.076120	1.390040	-10.006200	-0.774188	-0.525550	1.410687	-0.003200	-0.019953	0.006059
896	4.522211	0.005000	1.079942	1.451880	-9.927720	-0.774298	-0.525879	1.410932	0.006011	-0.012292	-0.002340
897	4.527211	0.005000	1.077539	1.551541	-10.084680	-0.774408	-0.526208	1.411177	0.009608	-0.013029	0.001178
898	4.532211	0.005000	1.020240	1.514431	-10.068751	-0.774517	-0.526538	1.411422	-0.000301	-0.003690	0.002401
899	4.537211	0.005000	1.020240	1.530360	-10.084680	-0.774627	-0.526866	1.411666	-0.000763	-0.003434	-0.005003
900	4.542211	0.005000	1.055093	1.546365	-10.084680	-0.774627	-0.526866	1.411299	0.008638	-0.011103	-0.005987
901	4.547211	0.005000	1.167849	1.500471	-10.026738	-0.774627	-0.526866	1.410931	0.002607	-0.011497	-0.000015
902	4.552211	0.005000	1.098720	1.394207	-10.084680	-0.774627	-0.526866	1.410564	0.004895	-0.014809	-0.003176
903	4.557211	0.005000	0.981000	1.451880	-9.996218	-0.774627	-0.526866	1.410196	0.005333	-0.004811	-0.001056
904	4.562211	0.005000	1.027999	1.530360	-9.925134	-0.774627	-0.526866	1.409829	-0.007568	-0.015135	-0.000597
905	4.567211	0.005000	1.139246	1.493048	-9.851168	-0.774627	-0.526866	1.409461	-0.008332	-0.006036	-0.001380
906	4.572211	0.005000	1.141470	1.608840	-9.929475	-0.774627	-0.526866	1.409094	-0.006469	-0.010379	-0.006703
907	4.577211	0.005000	1.098720	1.463037	-9.924001	-0.774627	-0.526866	1.408726	-0.000573	-0.020961	0.003321
908	4.582211	0.005000	1.131836	1.491120	-9.939968	-0.774627	-0.526866	1.408359	-0.011301	-0.015091	-0.004977
909	4.587211	0.005000	1.059480	1.553463	-9.896548	-0.774627	-0.526866	1.407991	-0.003902	-0.014758	-0.003768
910	4.592211	0.005000	1.098720	1.530360	-9.956477	-0.774627	-0.526866	1.407624	-0.012289	-0.011112	-0.001176
911	4.597211	0.005000	1.113127	1.542777	-10.059847	-0.774627	-0.526866	1.407256	-0.014049	-0.015159	0.001679
912	4.602211	0.005000	1.064729	1.545190	-10.011449	-0.774627	-0.526866	1.406889	-0.015857	-0.006261	-0.001985
913	4.607211	0.005000	1.025933	1.468653	-10.101453	-0.774758	-0.527127	1.406813	-0.021295	-0.010886	0.002312
914	4.612211	0.005000	1.040296	1.453625	-10.045440	-0.775087	-0.527786	1.407181	-0.005237	-0.011795	0.011750
915	4.617211	0.005000	1.080608	1.509232	-10.084680	-0.775416	-0.528444	1.407548	-0.008539	-0.008871	0.001946
916	4.622211	0.005000	1.035942	1.569600	-10.163160	-0.775745	-0.529102	1.407916	-0.013495	-0.016369	0.002707
917	4.627211	0.005000	1.022275	1.597117	-10.084680	-0.776074	-0.529760	1.408283	-0.010846	-0.011358	0.002426
918	4.632211	0.005000	1.076030	1.569600	-10.089885	-0.776403	-0.530419	1.408651	-0.015461	-0.005230	0.001816
919	4.637211	0.005000	1.010840	1.579000	-10.036040	-0.776732	-0.531077	1.409018	-0.022275	-0.011807	0.012896
920	4.642211	0.005000	1.041222	1.641086	-10.024458	-0.777061	-0.531735	1.409386	-0.017802	-0.006458	0.010969
921	4.647211	0.005000	1.054488	1.633104	-9.976944	-0.777390	-0.532393	1.409753	-0.008104	-0.015593	0.008666
922	4.652211	0.005000	1.017607	1.611473	-10.011467	-0.777719	-0.533052	1.410121	-0.012437	-0.015778	0.004850
923	4.657211	0.005000	0.981681	1.570961	-10.006200	-0.778049	-0.533710	1.410488	-0.000974	-0.016328	-0.002096
924	4.662211	0.005000	1.020240	1.610555	-9.931149	-0.778378	-0.534368	1.410856	0.007430	-0.013588	0.004323
925	4.667211	0.005000	1.012925	1.526702	-9.963302	-0.778707	-0.535026	1.411223	0.015587	-0.009929	0.003505
926	4.672211	0.005000	1.008114	1.530360	-10.078617	-0.779036	-0.535684	1.411591	0.022300	-0.020383	0.006565
927	4.677211	0.005000	1.137960	1.569600	-10.006200	-0.779365	-0.535647	1.411570	0.014577	-0.013904	0.000209
928	4.682211	0.005000	1.069902	1.569600	-9.927720	-0.779694	-0.535428	1.411447	0.036052	-0.016419	0.000442
929	4.687211	0.005000	1.071846	1.608840	-9.876114	-0.780023	-0.535208	1.411325	0.031823	-0.017457	0.012244
930	4.692211	0.005000	1.137960	1.633306	-10.030666	-0.780352	-0.534989	1.411202	0.026197	-0.009398	0.010236
931	4.697211	0.005000	1.076468	1.569600	-10.112196	-0.780681	-0.534769	1.411080	0.021036	-0.019944	0.006669
932	4.702211	0.005000	1.118830	1.529381	-10.025330	-0.781011	-0.534550	1.410957	0.011457	-0.010565	0.008295
933	4.707211	0.005000	1.041524	1.548316	-10.024156	-0.781340	-0.534331	1.410835	0.010273	-0.019604	0.003832
934	4.712211	0.005000	0.981000	1.530360	-10.068926	-0.781669	-0.534111	1.410712	0.012688	-0.010996	-0.000445
935	4.717211	0.005000	0.916165	1.528666	-10.059085	-0.781998	-0.533892	1.410590	0.023138	-0.016493	0.002456
936	4.722211	0.005000	1.036677	1.553163	-10.096082	-0.782327	-0.533672	1.410467	0.021772	-0.015628	0.000607
937	4.727211	0.005000	1.011253	1.557321	-10.054427	-0.782656	-0.533453	1.410345	0.020389	-0.001776	-0.001527
938	4.732211	0.005000	1.052425	1.633970	-10.070570	-0.782986	-0.533234	1.410222	0.019871	-0.011515	-0.004607
939	4.737211	0.005000	1.015601	1.544277	-10.015478	-0.783315	-0.533014	1.410100	0.025468	-0.002257	0.010556
940	4.742211	0.005000	1.096025	1.491120	-10.048135	-0.783809	-0.532857	1.410437	0.037721	-0.013537	0.004341
941	4.747211	0.005000	1.059480	1.452462	-9.966669	-0.785015	-0.532966	1.412765	0.024443	-0.001111	-0.002249
942	4.752211	0.005000	1.021893	1.530360	-9.965307	-0.786222	-0.533076	1.415092	0.016836	-0.006566	0.006591
943	4.757211	0.005000	1.098720	1.499262	-9.971031	-0.787429	-0.533186	1.417420	0.022995	-0.008465	0.009207
944	4.762211	0.005000	1.204411	1.485105	-9.972975	-0.788636	-0.533295	1.419748	0.014002	-0.002926	0.006895
945	4.767211	0.005000	1.123982	1.482699	-9.966960	-0.789843	-0.533405	1.422075	0.021849	-0.008713	0.007107
946	4.772211	0.005000	1.066590	1.462590	-10.006200	-0.791049	-0.533515	1.424403	0.003989	-0.009402	0.006968
947	4.777211	0.005000	1.059480	1.451880	-9.901259	-0.792256	-0.533624	1.426731	-0.000799	-0.010198	0.009402
948	4.782211	0.005000	1.105043	1.421505	-9.984689	-0.793463	-0.533734	1.429058	-0.011127	0.000255	-0.000452
949	4.787211	0.005000	1.002844	1.508516	-10.062836	-0.794670	-0.533844	1.431386	-0.012346	-0.006682	-0.004775
950	4.792211	0.005000	1.059786	1.608840	-10.025590	-0.795876	-0.533953	1.433713	-0.006191	-0.015690	0.012320
951	4.797211	0.005000	1.081172	1.547908	-10.006200	-0.797083	-0.534063	1.436041	-0.013651	-0.014460	0.006434
952	4.802211	0.005000	0.981000	1.584950	-9.966960	-0.798290	-0.534173	1.438369	-0.009211	-0.017726	0.007713
953	4.807211	0.005000	1.046229	1.543611	-10.163674	-0.799497	-0.534282	1.440696	-0.016939	-0.017084	0.006757
954	4.812211	0.005000	1.076735	1.552345	-10.123920	-0.800000	-0.534200	1.440738	-0.011066	-0.003722	0.006657
955	4.817211	0.005000	1.098720	1.639494	-10.215883	-0.800000	-0.533981	1.439145	-0.001236	-0.015068	0.011098
956	4.822211	0.005000	1.066122	1.634796	-10.130562	-0.800000	-0.533761	1.437551	-0.009556	-0.008493	0.010351
957	4.827211	0.005000	1.168749	1.608840	-9.927720	-0.800000	-0.533542	1.435958	-0.007475	-0.019438	0.011005
958	4.832211	0.005000	0.983254	1.569600	-10.010708	-0.800000	-0.533322	1.434365	0.000571	-0.016901	0.016866
959	4.837211	0.005000	1.137593	1.608718	-9.967327	-0.800000	-0.533102	1.432771	0.003071	-0.013739	0.009845
960	4.842211	0.005000	1.098720	1.606773	-10.086747	-0.800000	-0.532883	1.431178	0.007695	-0.006450	0.007364
961	4.847211	0.005000	1.128992	1.534844	-10.049924	-0.800000	-0.532663	1.429585	0.002256	-0.016195	0.007480
962	4.852211	0.005000	1.059480	1.641652	-10.006200	-0.800000	-0.532444	1.427991	0.011176	-0.010036	0.008301
963	4.857211	0.005000	0.941760	1.617674	-10.127824	-0.800000	-0.532224	1.426398	0.002424	-0.007711	0.005468
964	4.862211	0.005000	1.031359	1.619959	-10.062443	-0.800000	-0.532005	1.424805	0.022489	-0.007194	0.018315
965	4.867211	0.005000	1.033096	1.622032	-10.045103	-0.800000	-0.531785	1.423212	0.007884	-0.010411	0.006922
966	4.872211	0.005000	0.972589	1.600429	-10.069265	-0.800000	-0.531566	1.421618	0.020586	-0.013073	-0.000733
967	4.877211	0.005000	1.037779	1.630541	-10.006200	-0.800000	-0.531346	1.420025	0.037801	-0.014630	0.012471
968	4.882211	0.005000	0.981363	1.667791	-9.947431	-0.798380	-0.531235	1.420000	0.028361	-0.013360	0.004293
969	4.887211	0.005000	0.924414	1.665426	-9.962413	-0.796734	-0.531125	1.420000	0.034360	-0.012063	0.003162
970	4.892211	0.005000	0.956978	1.608840	-9.982178	-0.795089	-0.531016	1.420000	0.029484	-0.007741	0.000133
971	4.897211	0.005000	1.020240	1.622093	-9.980213	-0.793443	-0.530906	1.420000	0.032881	-0.005560	0.009634
972	4.902211	0.005000	1.030819	1.598261	-9.995621	-0.791798	-0.530796	1.420000	0.031090	-0.009807	0.006136
973	4.907211	0.005000	1.090085	1.491120	-9.997565	-0.790152	-0.530687	1.420000	0.038288	-0.012047	0.004067
974	4.912211	0.005000	1.020240	1.503578	-10.057898	-0.788506	-0.530577	1.420000	0.046821	-0.015536	-0.000578
975	4.917211	0.005000	1.094435	1.608840	-10.224499	-0.786861	-0.530467	1.420000	0.042805	-0.005109	-0.005098
976	4.922211	0.005000	1.018372	1.565864	-10.204268	-0.785215	-0.530358	1.420000	0.043569	-0.014579	0.012828
977	4.927211	0.005000	1.059327	1.491120	-10.045823	-0.783569	-0.530248	1.420000	0.043123	-0.007006	0.000755
978	4.932211	0.005000	1.096240	1.530360	-10.011160	-0.781924	-0.530138	1.420000	0.034743	-0.003835	0.003121
979	4.937211	0.005000	1.068329	1.521511	-10.066981	-0.780278	-0.530029	1.420000	0.053802	-0.011129	-0.002703
980	4.942211	0.005000	1.085063	1.523532	-10.006200	-0.778633	-0.529919	1.420000	0.040178	-0.005054	-0.001361
981	4.947211	0.005000	1.041935	1.491120	-9.945265	-0.777487	-0.529726	1.419860	0.037977	-0.006138	-0.003219
982	4.952211	0.005000	1.166013	1.547225	-9.888480	-0.777158	-0.529397	1.419493	0.037745	-0.009247	-0.000137
983	4.957211	0.005000	1.111698	1.451880	-9.966960	-0.776829	-0.529068	1.419125	0.047313	-0.005628	-0.003304
984	4.962211	0.005000	1.098720	1.577760	-10.006200	-0.776500	-0.528739	1.418758	0.040376	-0.010085	-0.000589
985	4.967211	0.005000	1.077224	1.462121	-10.066936	-0.776170	-0.528409	1.418390	0.047692	-0.006576	-0.009195
986	4.972211	0.005000	1.118065	1.431985	-10.123920	-0.775841	-0.528080	1.418023	0.046284	-0.010914	-0.003565
987	4.977211	0.005000	1.059480	1.474187	-10.067747	-0.775512	-0.527751	1.417655	0.038194	-0.006966	-0.000132
988	4.982211	0.005000	1.177200	1.500383	-9.981949	-0.775183	-0.527422	1.417288	0.037064	-0.010674	-0.005219
989	4.987211	0.005000	1.191280	1.465960	-9.981040	-0.774854	-0.527093	1.416920	0.033615	-0.002594	-0.006656
990	4.992211	0.005000	1.098720	1.412640	-10.016836	-0.774525	-0.526764	1.416553	0.022968	-0.008003	-0.000550
991	4.997211	0.005000	1.090498	1.350603	-10.194178	-0.774196	-0.526435	1.416185	0.022383	-0.009948	-0.012089
992	5.002211	0.005000	1.053278	1.451880	-10.072276	-0.773866	-0.526105	1.415818	0.005806	-0.007862	-0.006130
993	5.007211	0.005000	1.016367	1.483373	-10.033820	-0.773537	-0.525776	1.415450	0.013946	-0.014628	-0.002423
994	5.012211	0.005000	1.059480	1.412640	-9.926251	-0.773208	-0.525447	1.415083	-0.002240	-0.000773	-0.000998
995	5.017211	0.005000	1.059480	1.373875	-9.888480	-0.773389	-0.525543	1.414810	-0.012173	0.004089	-0.003642
996	5.022211	0.005000	1.023099	1.449021	-10.003341	-0.773718	-0.525762	1.414565	-0.002213	-0.012124	-0.001764
997	5.027211	0.005000	1.103556	1.466388	-10.079844	-0.774047	-0.525982	1.414320	0.008083	-0.000573	-0.007569
998	5.032211	0.005000	1.116235	1.530360	-10.173433	-0.774377	-0.526201	1.414075	0.002121	-0.014901	0.000329
999	5.037211	0.005000	1.158828	1.461066	-10.054626	-0.774706	-0.526421	1.413830	0.002462	0.000470	0.003622
1000	5.042211	0.005000	1.165599	1.518759	-10.006200	-0.775035	-0.526640	1.413585	0.004938	-0.007322	-0.003954
1001	5.047211	0.005000	1.137960	1.518803	-10.123920	-0.775364	-0.526859	1.413340	0.009372	-0.000874	-0.004459
1002	5.052211	0.005000	1.168580	1.412640	-10.163160	-0.775693	-0.527079	1.413095	0.015995	-0.007941	-0.002198
1003	5.057211	0.005000	1.098720	1.530360	-10.123920	-0.776022	-0.527298	1.412850	0.014339	-0.008247	0.006107
1004	5.062211	0.005000	1.117651	1.510051	-10.025131	-0.776351	-0.527518	1.412605	0.019413	-0.008765	-0.004142
1005	5.067211	0.005000	1.092519	1.530360	-9.989680	-0.776681	-0.527737	1.412360	0.021540	-0.019105	0.001235
1006	5.072211	0.005000	1.201865	1.515785	-10.074591	-0.777010	-0.527957	1.412115	0.014326	-0.015398	0.011525
1007	5.077211	0.005000	1.110892	1.542532	-10.138817	-0.777339	-0.528176	1.411870	0.023641	-0.016163	0.011775
1008	5.082211	0.005000	1.020240	1.540465	-10.045440	-0.777631	-0.528358	1.411646	0.007571	-0.010034	0.010816
1009	5.087211	0.005000	1.043839	1.569600	-10.092500	-0.777740	-0.528358	1.411524	0.003151	-0.002061	0.005031
1010	5.092211	0.005000	1.132151	1.473693	-10.139925	-0.777850	-0.528358	1.411401	0.006169	-0.018668	0.006028
1011	5.097211	0.005000	1.137960	1.533820	-10.038520	-0.777960	-0.528358	1.411279	-0.013336	-0.007234	-0.009402
1012	5.102211	0.005000	1.098720	1.569600	-10.086178	-0.778069	-0.528358	1.411156	-0.023702	-0.000663	-0.002923
1013	5.107211	0.005000	1.022016	1.454544	-9.970512	-0.778179	-0.528358	1.411033	-0.022623	-0.014559	0.001327
1014	5.112211	0.005000	0.981000	1.530360	-10.074878	-0.778289	-0.528358	1.410911	-0.032545	-0.004919	0.001020
1015	5.117211	0.005000	0.981000	1.608840	-9.977459	-0.778398	-0.528358	1.410788	-0.039586	-0.015598	0.008588
1016	5.122211	0.005000	1.067044	1.687320	-9.982087	-0.778508	-0.528358	1.410666	-0.040701	-0.010443	0.001722
1017	5.127211	0.005000	1.029839	1.677721	-9.976559	-0.778618	-0.528358	1.410543	-0.035430	-0.008807	0.000486
1018	5.132211	0.005000	0.965510	1.648080	-10.108430	-0.778727	-0.528358	1.410421	-0.030795	-0.008121	0.003773
1019	5.137211	0.005000	1.070805	1.634123	-10.059397	-0.778837	-0.528358	1.410298	-0.033917	-0.004185	-0.000864
1020	5.142211	0.005000	1.091822	1.625011	-10.045440	-0.778947	-0.528358	1.410176	-0.004855	-0.015152	0.005791
1021	5.147211	0.005000	1.140578	1.551289	-10.100373	-0.779056	-0.528358	1.410053	0.007376	-0.004375	0.000503
1022	5.152211	0.005000	1.137960	1.590067	-9.987427	-0.778794	-0.528358	1.410623	0.016320	-0.015224	0.007020
1023	5.157211	0.005000	1.115301	1.491120	-10.055943	-0.778245	-0.528358	1.411726	0.010114	-0.011641	0.006205
1024	5.162211	0.005000	1.084258	1.505582	-10.055757	-0.777697	-0.528358	1.412829	0.045824	-0.019224	-0.008938
1025	5.167211	0.005000	1.110948	1.532916	-10.060224	-0.777148	-0.528358	1.413931	0.043827	-0.010619	0.003254
1026	5.172211	0.005000	1.000612	1.520546	-10.074866	-0.776600	-0.528358	1.415034	0.054073	-0.013685	-0.003219
1027	5.177211	0.005000	0.988775	1.467431	-10.100594	-0.776051	-0.528358	1.416136	0.049500	-0.013179	-0.001541
1028	5.182211	0.005000	1.121569	1.530360	-10.028054	-0.775503	-0.528358	1.417239	0.042427	-0.009912	-0.003915
1029	5.187211	0.005000	0.981000	1.562641	-10.127399	-0.774954	-0.528358	1.418341	0.043782	-0.018431	0.004376
1030	5.192211	0.005000	1.136858	1.488915	-10.046542	-0.774406	-0.528358	1.419444	0.030572	-0.008741	0.001469
1031	5.197211	0.005000	1.060766	1.450594	-10.084680	-0.773857	-0.528358	1.420547	0.029658	-0.015333	0.002593
1032	5.202211	0.005000	1.052988	1.523868	-10.051932	-0.773309	-0.528358	1.421649	0.017285	-0.017196	0.006689
1033	5.207211	0.005000	1.059480	1.530360	-10.056765	-0.772760	-0.528358	1.422752	-0.002213	-0.008560	-0.005043
1034	5.212211	0.005000	1.020240	1.522754	-10.013806	-0.772212	-0.528358	1.423854	-0.015010	-0.006072	0.002304
1035	5.217211	0.005000	1.020240	1.647269	-10.153147	-0.771664	-0.528358	1.424957	-0.002751	-0.007025	-0.002886
1036	5.222211	0.005000	1.034944	1.554896	-10.057708	-0.771747	-0.528569	1.424058	-0.005550	-0.014708	0.001724
1037	5.227211	0.005000	1.045119	1.455723	-10.045440	-0.771857	-0.528788	1.423078	0.001667	-0.011618	0.009990
1038	5.232211	0.005000	0.981000	1.435301	-10.062019	-0.771967	-0.529008	1.422098	-0.004312	-0.009397	-0.000081
1039	5.237211	0.005000	1.080003	1.472403	-10.028529	-0.772076	-0.529227	1.421118	0.006686	-0.009657	0.004636
1040	5.242211	0.005000	1.140471	1.488609	-10.042929	-0.772186	-0.529446	1.420138	0.000480	-0.005146	-0.012813
1041	5.247211	0.005000	1.105625	1.474952	-9.990032	-0.772296	-0.529666	1.419158	0.013812	-0.008451	-0.006926
1042	5.252211	0.005000	1.043686	1.412640	-9.994477	-0.772405	-0.529885	1.418178	0.017845	-0.008643	-0.002494
1043	5.257211	0.005000	0.953575	1.451880	-10.214215	-0.772515	-0.530105	1.417198	0.023893	-0.016579	-0.003902
1044	5.262211	0.005000	1.097082	1.500520	-10.172560	-0.772625	-0.530324	1.416218	0.025390	-0.017072	0.006939
1045	5.267211	0.005000	1.091353	1.515626	-10.195033	-0.772734	-0.530543	1.415238	0.026155	-0.009907	0.000707
1046	5.272211	0.005000	1.093670	1.535410	-10.163160	-0.772844	-0.530763	1.414258	0.025152	-0.016496	0.000219
1047	5.277211	0.005000	1.098720	1.527289	-10.048511	-0.772954	-0.530982	1.413278	0.012980	-0.003787	0.002257
1048	5.282211	0.005000	1.020929	1.413329	-10.006200	-0.773063	-0.531202	1.412298	0.017260	-0.012379	0.002766
1049	5.287211	0.005000	0.984388	1.564517	-10.006200	-0.773290	-0.531187	1.411667	0.000394	-0.019551	0.002541
1050	5.292211	0.005000	1.166227	1.601525	-9.966960	-0.773729	-0.530748	1.411667	-0.005285	-0.004919	0.000210
1051	5.297211	0.005000	1.071606	1.581726	-10.012263	-0.774167	-0.530310	1.411667	-0.015236	-0.018341	0.017380
1052	5.302211	0.005000	1.075494	1.538367	-10.037433	-0.774606	-0.529871	1.411667	-0.030020	-0.008683	0.004669
1053	5.307211	0.005000	1.088298	1.443907	-10.066284	-0.775045	-0.529432	1.411667	-0.015377	-0.017447	0.000411
1054	5.312211	0.005000	0.966492	1.412640	-10.018566	-0.775483	-0.528994	1.411667	-0.021631	-0.016015	-0.000110
1055	5.317211	0.005000	1.015157	1.412640	-10.015891	-0.775922	-0.528555	1.411667	-0.023527	-0.011792	0.003829
1056	5.322211	0.005000	1.103587	1.513173	-10.035707	-0.776361	-0.528116	1.411667	-0.017164	-0.016493	-0.000462
1057	5.327211	0.005000	1.137960	1.530360	-9.967939	-0.776799	-0.527678	1.411667	-0.015730	-0.007303	-0.007441
1058	5.332211	0.005000	1.137960	1.591141	-10.088523	-0.777238	-0.527239	1.411667	-0.004825	-0.014265	0.001012
1059	5.337211	0.005000	0.996754	1.553846	-10.068926	-0.777676	-0.526801	1.411667	0.005281	-0.002283	-0.000105
1060	5.342211	0.005000	1.072029	1.595495	-9.993651	-0.778115	-0.526362	1.411667	0.010715	-0.014102	-0.002357
1061	5.347211	0.005000	0.953030	1.569600	-10.073410	-0.778554	-0.525923	1.411667	0.009891	-0.002068	0.001173
1062	5.352211	0.005000	1.159226	1.560613	-9.988226	-0.778992	-0.525485	1.411667	0.008611	-0.008611	-0.004646
1063	5.357211	0.005000	1.066454	1.530360	-9.934694	-0.778859	-0.525537	1.411484	0.001239	-0.006083	0.008362
1064	5.362211	0.005000	1.054841	1.521082	-9.985516	-0.778530	-0.525756	1.411239	0.004315	-0.000903	-0.003309
1065	5.367211	0.005000	1.020240	1.530360	-10.045440	-0.778201	-0.525975	1.410994	0.010885	-0.017154	0.003470
1066	5.372211	0.005000	1.176618	1.452462	-10.083226	-0.777872	-0.526195	1.410749	0.001462	-0.013388	-0.001194
1067	5.377211	0.005000	1.061133	1.455187	-10.001240	-0.777542	-0.526414	1.410504	-0.010679	-0.016517	-0.008593
1068	5.382211	0.005000	1.094649	1.526289	-10.072467	-0.777213	-0.526634	1.410259	-0.012500	-0.022297	0.002194
1069	5.387211	0.005000	1.137960	1.641681	-10.058238	-0.776884	-0.526853	1.410014	-0.028354	-0.011797	0.000121
1070	5.392211	0.005000	1.107141	1.656501	-9.944561	-0.776555	-0.527072	1.409769	-0.030855	-0.017104	0.004455
1071	5.397211	0.005000	1.037809	1.569600	-10.023769	-0.776226	-0.527292	1.409524	-0.031685	-0.004491	-0.001742
1072	5.402211	0.005000	0.992876	1.583282	-10.058219	-0.775897	-0.527511	1.409279	-0.031676	-0.013401	-0.009971
1073	5.407211	0.005000	0.926572	1.599975	-10.093545	-0.775568	-0.527731	1.409034	-0.027522	-0.010046	-0.003796
1074	5.412211	0.005000	1.059480	1.653056	-10.101812	-0.775239	-0.527950	1.408789	-0.017568	-0.015920	-0.007791
1075	5.417211	0.005000	1.079023	1.687320	-10.064983	-0.774910	-0.528169	1.408544	-0.008050	-0.016947	0.000589
1076	5.422211	0.005000	1.046077	1.669772	-9.984508	-0.774704	-0.528358	1.408350	0.012293	-0.011448	-0.001921
1077	5.427211	0.005000	0.989540	1.632730	-9.982310	-0.775253	-0.528358	1.408473	0.023581	-0.011318	0.001428
1078	5.432211	0.005000	0.981000	1.569600	-9.993263	-0.775801	-0.528358	1.408595	0.027263	-0.006574	-0.006241
1079	5.437211	0.005000	0.930767	1.541353	-10.034447	-0.776350	-0.528358	1.408718	0.044989	-0.005738	-0.004700
1080	5.442211	0.005000	1.020240	1.639494	-10.084680	-0.776898	-0.528358	1.408840	0.052736	-0.006700	0.010139
1081	5.447211	0.005000	0.948402	1.576242	-10.110636	-0.777447	-0.528358	1.408963	0.051022	-0.011221	0.002802
1082	5.452211	0.005000	0.941760	1.561149	-10.045440	-0.777995	-0.528358	1.409085	0.064864	-0.008558	0.002438
1083	5.457211	0.005000	1.096466	1.530360	-10.086934	-0.778544	-0.528358	1.409208	0.052998	-0.013301	-0.001418
1084	5.462211	0.005000	1.137715	1.530360	-10.084802	-0.779093	-0.528358	1.409330	0.051067	0.003159	0.004209
