# FOX Logger (IMU file)
# (c) INRIA 2011-2014
# File created from file sensbiotk output
#
# File format:
# id	t	dt	ax	ay	az	mx	my	mz	gx	gy	gz
#
# Units:
#	Time: s
#	Acceleration: m.s^-2
#	Magneto: gauss
#	Gyrometer: rad/s
#
1	0.004303	0.004303	0.941760	1.921826	-9.536254	0.737313	-0.467164	0.360000	-0.012542	-0.007176	0.004167
2	0.009303	0.005000	0.959436	1.922760	-9.635364	0.736198	-0.468279	0.362241	-0.008552	0.006736	0.010984
3	0.014303	0.005000	0.941760	1.892231	-9.559296	0.735083	-0.469394	0.364483	-0.006551	-0.007655	-0.002771
4	0.019303	0.005000	0.915227	1.883520	-9.587267	0.733968	-0.470509	0.366724	0.004736	-0.014249	0.010821
5	0.024303	0.005000	0.844674	1.842253	-9.584877	0.732853	-0.471625	0.368965	0.012664	-0.008387	-0.004089
6	0.029303	0.005000	0.910462	1.812982	-9.558676	0.731738	-0.472740	0.371207	0.016786	-0.009977	0.009990
7	0.034303	0.005000	0.925105	1.883520	-9.535320	0.730623	-0.473855	0.373448	0.017567	0.003999	0.005641
8	0.039303	0.005000	0.830393	1.775330	-9.502433	0.729508	-0.474970	0.375689	0.026748	-0.003401	0.006515
9	0.044303	0.005000	0.903322	1.805040	-9.650635	0.728393	-0.476085	0.377931	0.012989	-0.006720	0.010006
10	0.049303	0.005000	0.904127	1.767407	-9.572953	0.727278	-0.477200	0.380172	0.015575	0.000509	0.002496
11	0.054303	0.005000	0.837337	1.844280	-9.609368	0.726162	-0.478315	0.382413	-0.001139	-0.010905	0.010198
12	0.059303	0.005000	0.830847	1.740174	-9.502887	0.725047	-0.479430	0.384654	-0.008799	-0.008418	0.006898
13	0.064303	0.005000	0.863280	1.726560	-9.595405	0.723932	-0.480546	0.386896	-0.006416	-0.004891	0.007933
14	0.069303	0.005000	0.879375	1.765800	-9.530797	0.722817	-0.481661	0.389137	-0.010381	-0.011544	-0.001763
15	0.074303	0.005000	0.941760	1.830318	-9.560598	0.723074	-0.481404	0.388468	-0.016158	-0.002671	-0.001241
16	0.079303	0.005000	0.952125	1.906225	-9.613800	0.724189	-0.480289	0.385978	-0.004077	-0.004725	0.007188
17	0.084303	0.005000	0.940413	1.883520	-9.594853	0.725304	-0.479174	0.383488	-0.006779	-0.004952	0.013090
18	0.089303	0.005000	0.923878	1.826398	-9.653040	0.726419	-0.478059	0.380997	0.000424	-0.010859	0.008904
19	0.094303	0.005000	0.832335	1.890698	-9.550793	0.727534	-0.476944	0.378507	0.003290	-0.020553	0.008070
20	0.099303	0.005000	0.784800	2.014300	-9.574621	0.728649	-0.475829	0.376017	0.008733	-0.010369	0.000718
21	0.104303	0.005000	0.841977	1.976570	-9.663692	0.729764	-0.474713	0.373527	0.012981	-0.007538	0.007367
22	0.109303	0.005000	0.855043	1.805040	-9.636566	0.730879	-0.473598	0.371036	0.014364	-0.004964	0.001824
23	0.114303	0.005000	0.835567	1.850043	-9.647277	0.731994	-0.472483	0.368546	0.017850	-0.012287	0.012485
24	0.119303	0.005000	0.909267	1.880147	-9.581307	0.733109	-0.471368	0.366056	0.024289	0.000264	0.012911
25	0.124303	0.005000	0.903518	1.883520	-9.652042	0.734224	-0.470253	0.363565	0.018268	-0.009451	0.010958
26	0.129303	0.005000	0.903928	1.770024	-9.613800	0.735339	-0.469138	0.361075	0.018639	-0.014148	0.004229
27	0.134303	0.005000	0.867092	1.879708	-9.688468	0.736454	-0.468023	0.358585	0.013040	-0.018765	0.006292
28	0.139303	0.005000	0.935544	1.838064	-9.686064	0.737287	-0.467164	0.356667	0.009518	-0.003767	0.010323
29	0.144303	0.005000	0.972368	1.936105	-9.513343	0.737176	-0.467164	0.356667	0.006801	-0.005416	0.008538
30	0.149303	0.005000	0.941760	1.776839	-9.502204	0.737064	-0.467164	0.356667	0.008880	-0.012040	0.005064
31	0.154303	0.005000	0.864397	1.805040	-9.535320	0.736953	-0.467164	0.356667	-0.003626	-0.011879	0.004148
32	0.159303	0.005000	0.879141	1.867659	-9.590421	0.736841	-0.467164	0.356667	-0.001809	-0.008247	0.005283
33	0.164303	0.005000	0.923487	1.786767	-9.592833	0.736730	-0.467164	0.356667	-0.003327	-0.012455	0.008484
34	0.169303	0.005000	0.808277	1.802468	-9.653040	0.736619	-0.467164	0.356667	-0.010731	-0.012828	0.003645
35	0.174303	0.005000	0.879239	1.946041	-9.613800	0.736507	-0.467164	0.356667	-0.014716	-0.011234	0.008348
36	0.179303	0.005000	0.981000	1.936329	-9.588129	0.736396	-0.467164	0.356667	-0.015640	-0.012186	0.013536
37	0.184303	0.005000	0.930566	1.933954	-9.563366	0.736284	-0.467164	0.356667	-0.006123	-0.012344	0.010456
38	0.189303	0.005000	0.872084	1.861888	-9.522492	0.736173	-0.467164	0.356667	-0.013364	-0.000513	0.005172
39	0.194303	0.005000	0.876138	1.922760	-9.613800	0.736061	-0.467164	0.356667	-0.013349	-0.009535	-0.002585
40	0.199303	0.005000	0.933682	1.966039	-9.574560	0.735950	-0.467164	0.356667	0.002073	-0.004731	-0.000335
41	0.204303	0.005000	0.904184	2.001240	-9.574560	0.735838	-0.467164	0.356667	0.003255	-0.010195	-0.001717
42	0.209303	0.005000	0.864749	2.039745	-9.651571	0.735727	-0.467258	0.356351	0.006494	-0.014741	0.000757
43	0.214303	0.005000	0.860141	1.886659	-9.580837	0.735615	-0.467370	0.355978	0.005392	-0.008246	0.003971
44	0.219303	0.005000	0.902520	1.911649	-9.675614	0.735504	-0.467481	0.355604	0.013315	-0.010032	0.000029
45	0.224303	0.005000	0.941760	1.938683	-9.621761	0.735392	-0.467593	0.355231	-0.000158	-0.009274	0.009980
46	0.229303	0.005000	0.902520	1.844280	-9.653040	0.735281	-0.467704	0.354857	0.001892	-0.010823	-0.003014
47	0.234303	0.005000	0.954845	1.870450	-9.613800	0.735169	-0.467816	0.354484	0.012742	-0.004377	0.007902
48	0.239303	0.005000	0.894230	1.859755	-9.590035	0.735057	-0.467928	0.354110	-0.004980	-0.008817	-0.001834
49	0.244303	0.005000	0.727710	1.865670	-9.535320	0.734946	-0.468039	0.353736	0.001038	-0.015089	0.010745
50	0.249303	0.005000	0.767041	1.767040	-9.515080	0.734834	-0.468151	0.353363	-0.006266	-0.004807	0.004959
51	0.254303	0.005000	0.728935	1.799050	-9.557935	0.734723	-0.468262	0.352989	-0.010891	-0.015160	0.008278
52	0.259303	0.005000	0.852509	1.844280	-9.613800	0.734611	-0.468374	0.352616	0.003126	-0.007714	0.008311
53	0.264303	0.005000	0.929900	1.871660	-9.562700	0.734500	-0.468485	0.352242	-0.011241	-0.011778	-0.006378
54	0.269303	0.005000	0.882219	1.883520	-9.515019	0.734388	-0.468597	0.351869	-0.002132	-0.013726	0.007955
55	0.274303	0.005000	0.915932	1.922760	-9.678868	0.734584	-0.468811	0.351781	0.001351	-0.013499	0.004804
56	0.279303	0.005000	0.858980	1.996940	-9.653040	0.735142	-0.469145	0.352030	0.000100	-0.012515	0.002150
57	0.284303	0.005000	0.937994	1.918994	-9.574560	0.735699	-0.469479	0.352279	0.002160	-0.012034	0.007969
58	0.289303	0.005000	0.863280	1.844280	-9.497109	0.736256	-0.469814	0.352528	0.011278	-0.010028	0.000945
59	0.294303	0.005000	0.933047	1.919856	-9.496080	0.736814	-0.470148	0.352777	0.014667	-0.014131	0.011590
60	0.299303	0.005000	0.795359	1.844280	-9.506639	0.737371	-0.470482	0.353026	0.020176	-0.009456	0.001484
61	0.304303	0.005000	0.784800	1.898859	-9.519088	0.737928	-0.470817	0.353275	0.022742	-0.010692	-0.004113
62	0.309303	0.005000	0.824040	1.883520	-9.554471	0.738486	-0.471151	0.353524	0.026938	-0.008919	0.008737
63	0.314303	0.005000	0.811460	1.725060	-9.601220	0.739043	-0.471485	0.353773	0.012401	-0.017087	0.002941
64	0.319303	0.005000	0.839029	1.829291	-9.574560	0.739600	-0.471820	0.354022	0.011289	-0.016486	0.010758
65	0.324303	0.005000	0.924368	1.844280	-9.517928	0.740157	-0.472154	0.354270	-0.001477	-0.004311	-0.000714
66	0.329303	0.005000	0.902887	1.902956	-9.496447	0.740715	-0.472488	0.354519	-0.010318	-0.007397	0.016045
67	0.334303	0.005000	0.824040	1.922760	-9.479055	0.741272	-0.472823	0.354768	-0.019281	-0.006183	0.007580
68	0.339303	0.005000	0.927314	1.922760	-9.578659	0.741791	-0.473088	0.354991	-0.021533	-0.008846	0.001834
69	0.344303	0.005000	0.914576	1.859407	-9.653040	0.741791	-0.472419	0.354867	-0.014373	-0.006424	0.019693
70	0.349303	0.005000	0.824554	1.805040	-9.594437	0.741791	-0.471750	0.354742	-0.015322	-0.001952	-0.003546
71	0.354303	0.005000	0.782017	1.844280	-9.510663	0.741791	-0.471081	0.354618	-0.016080	-0.006582	0.000628
72	0.359303	0.005000	0.902520	2.030647	-9.613800	0.741791	-0.470412	0.354493	-0.016018	-0.008118	0.005545
73	0.364303	0.005000	0.860754	1.964526	-9.611274	0.741791	-0.469743	0.354369	-0.002207	-0.007677	0.007752
74	0.369303	0.005000	0.824040	2.040177	-9.535774	0.741791	-0.469074	0.354244	-0.008989	-0.015097	0.016639
75	0.374303	0.005000	0.933682	1.925453	-9.579945	0.741791	-0.468405	0.354120	-0.004258	-0.016165	0.001412
76	0.379303	0.005000	0.941760	1.849363	-9.540403	0.741791	-0.467736	0.353995	0.013581	-0.015342	0.005173
77	0.384303	0.005000	0.988458	2.008698	-9.527862	0.741791	-0.467067	0.353871	0.015204	-0.005752	0.003139
78	0.389303	0.005000	0.971152	1.952303	-9.574560	0.741791	-0.466398	0.353746	0.030075	-0.020166	0.007493
79	0.394303	0.005000	0.875503	1.898314	-9.613800	0.741791	-0.465729	0.353621	0.019537	-0.010153	0.010816
80	0.399303	0.005000	0.824040	1.947387	-9.623814	0.741791	-0.465060	0.353497	0.033015	-0.013994	0.002934
81	0.404303	0.005000	0.924772	1.939748	-9.731520	0.741791	-0.464391	0.353372	0.038561	-0.005450	0.008848
82	0.409303	0.005000	0.961130	1.962000	-9.731520	0.741334	-0.464560	0.353588	0.041806	-0.004524	0.006562
83	0.414303	0.005000	0.841527	1.879254	-9.688014	0.740664	-0.465118	0.353962	0.036562	-0.009465	0.009122
84	0.419303	0.005000	0.848460	1.898340	-9.726299	0.739995	-0.465675	0.354336	0.021815	-0.009053	0.013334
85	0.424303	0.005000	0.772388	1.988828	-9.601388	0.739326	-0.466233	0.354709	0.023229	-0.007510	0.006272
86	0.429303	0.005000	0.873278	1.874273	-9.564562	0.738657	-0.466791	0.355083	0.015175	-0.009362	-0.000676
87	0.434303	0.005000	0.911396	1.993649	-9.520138	0.737988	-0.467348	0.355456	0.016960	-0.004002	0.002557
88	0.439303	0.005000	0.755910	1.849455	-9.490905	0.737319	-0.467906	0.355830	-0.000523	-0.012720	0.005569
89	0.444303	0.005000	0.933450	1.917220	-9.529780	0.736650	-0.468463	0.356203	-0.010581	-0.003117	-0.003807
90	0.449303	0.005000	0.746256	1.844628	-9.535320	0.735981	-0.469021	0.356577	-0.009309	-0.007795	-0.005046
91	0.454303	0.005000	0.861228	1.883520	-9.498132	0.735312	-0.469578	0.356950	-0.015953	-0.004202	0.008034
92	0.459303	0.005000	0.745560	1.735498	-9.530851	0.734643	-0.470136	0.357324	-0.008355	-0.008754	0.008611
93	0.464303	0.005000	0.863280	1.876646	-9.560811	0.733974	-0.470693	0.357698	-0.011374	-0.009276	0.007888
94	0.469303	0.005000	0.893230	1.964081	-9.535320	0.733305	-0.471251	0.358071	0.003706	0.003765	0.003775
95	0.474303	0.005000	0.953457	1.855977	-9.523623	0.732903	-0.471675	0.358370	0.011841	-0.014457	0.001710
96	0.479303	0.005000	0.888410	1.894539	-9.535320	0.733126	-0.471787	0.358495	0.016570	-0.004691	0.004163
97	0.484303	0.005000	0.941760	1.978520	-9.597280	0.733349	-0.471898	0.358619	0.021895	-0.014757	0.008378
98	0.489303	0.005000	0.842971	1.922760	-9.533943	0.733572	-0.472010	0.358744	0.024677	-0.007017	0.011104
99	0.494303	0.005000	0.824040	1.883520	-9.610355	0.733795	-0.472121	0.358868	0.032543	-0.005443	0.006536
100	0.499303	0.005000	0.784800	1.742054	-9.637546	0.734018	-0.472233	0.358993	0.033441	-0.013135	0.006567
101	0.504303	0.005000	0.902520	1.857365	-9.626870	0.734241	-0.472344	0.359117	0.025192	-0.006576	0.009914
102	0.509303	0.005000	0.970329	1.862178	-9.642369	0.734464	-0.472456	0.359242	0.031237	-0.009525	0.010860
103	0.514303	0.005000	0.885991	1.796776	-9.636511	0.734687	-0.472567	0.359367	0.015795	-0.004540	0.009493
104	0.519303	0.005000	0.857432	1.816737	-9.568712	0.734910	-0.472679	0.359491	0.018570	-0.001309	-0.000724
105	0.524303	0.005000	0.899077	1.922760	-9.542207	0.735133	-0.472790	0.359616	0.005623	-0.003489	0.002223
106	0.529303	0.005000	0.826067	1.885547	-9.653040	0.735356	-0.472901	0.359740	-0.002495	-0.004421	-0.001207
107	0.534303	0.005000	0.940382	1.848414	-9.728764	0.735579	-0.473013	0.359865	-0.007368	-0.005765	0.004911
108	0.539303	0.005000	0.867075	1.698706	-9.653040	0.735802	-0.473124	0.359989	-0.015918	-0.002929	0.012695
109	0.544303	0.005000	1.007839	1.786438	-9.586961	0.736127	-0.472727	0.360341	-0.012958	-0.006305	0.003444
110	0.549303	0.005000	0.998233	1.813656	-9.631033	0.736461	-0.472281	0.360715	-0.015785	-0.007977	0.005982
111	0.554303	0.005000	0.789653	1.805040	-9.596607	0.736795	-0.471835	0.361088	-0.021870	-0.008430	0.001833
112	0.559303	0.005000	0.824040	1.870083	-9.562194	0.737130	-0.471389	0.361461	-0.013307	-0.006588	0.001993
113	0.564303	0.005000	0.777252	1.828434	-9.535320	0.737464	-0.470943	0.361835	-0.014442	-0.012661	-0.003811
114	0.569303	0.005000	0.907968	1.865262	-9.577284	0.737799	-0.470497	0.362208	-0.007425	-0.019442	0.005361
115	0.574303	0.005000	0.844709	1.924857	-9.611703	0.738133	-0.470052	0.362582	-0.000305	-0.011007	0.001464
116	0.579303	0.005000	0.895602	1.867359	-9.613800	0.738467	-0.469606	0.362955	0.015539	-0.016452	0.005487
117	0.584303	0.005000	0.930017	1.856023	-9.602057	0.738802	-0.469160	0.363328	0.013250	-0.004549	0.007868
118	0.589303	0.005000	0.891175	1.878315	-9.669590	0.739136	-0.468714	0.363702	0.020201	-0.010603	0.012698
119	0.594303	0.005000	0.845611	1.922760	-9.644206	0.739471	-0.468268	0.364075	0.025827	-0.009950	0.010435
120	0.599303	0.005000	0.778356	1.877076	-9.496080	0.739805	-0.467823	0.364448	0.017697	-0.008507	0.000092
121	0.604303	0.005000	0.780731	1.891658	-9.527182	0.740139	-0.467377	0.364822	0.029147	-0.010334	0.006355
122	0.609303	0.005000	0.748918	1.881841	-9.422637	0.740066	-0.466989	0.364609	0.024437	-0.009879	0.010753
123	0.614303	0.005000	0.862576	1.767209	-9.573856	0.739620	-0.466655	0.363862	0.021118	-0.013531	0.005964
124	0.619303	0.005000	0.896276	1.768922	-9.574560	0.739174	-0.466320	0.363115	0.011771	-0.004240	0.008322
125	0.624303	0.005000	0.896993	1.872466	-9.563506	0.738728	-0.465986	0.362368	0.006466	-0.001361	0.009739
126	0.629303	0.005000	0.855337	1.891463	-9.605857	0.738281	-0.465651	0.361621	0.008682	-0.013428	0.005292
127	0.634303	0.005000	0.881821	1.786499	-9.535320	0.737835	-0.465317	0.360874	0.001598	-0.007119	0.014778
128	0.639303	0.005000	0.849567	1.884469	-9.601036	0.737389	-0.464982	0.360127	0.001380	-0.009737	0.006292
129	0.644303	0.005000	0.911415	1.986068	-9.628972	0.736943	-0.464648	0.359380	-0.009157	-0.007614	0.017954
130	0.649303	0.005000	0.945831	1.997169	-9.596215	0.736497	-0.464313	0.358633	-0.005034	-0.009704	-0.001622
131	0.654303	0.005000	0.962505	1.845030	-9.634545	0.736051	-0.463979	0.357886	-0.014424	-0.010430	0.017927
132	0.659303	0.005000	0.857709	1.844280	-9.512915	0.735605	-0.463644	0.357138	-0.009554	-0.005543	0.013153
133	0.664303	0.005000	0.902520	1.740982	-9.560138	0.735159	-0.463310	0.356391	0.006301	-0.010227	0.006612
134	0.669303	0.005000	0.866479	1.808239	-9.586574	0.734713	-0.462975	0.355644	0.008112	-0.009656	0.020547
135	0.674303	0.005000	0.793557	1.834681	-9.574560	0.734343	-0.462718	0.355000	0.017703	-0.006273	0.008767
136	0.679303	0.005000	0.895410	1.740780	-9.574560	0.734455	-0.462941	0.355000	0.026428	-0.018652	0.013771
137	0.684303	0.005000	0.833510	1.814510	-9.588764	0.734566	-0.463164	0.355000	0.027306	-0.020583	0.006541
138	0.689303	0.005000	0.976311	1.846625	-9.611455	0.734678	-0.463387	0.355000	0.038958	-0.015151	-0.002222
139	0.694303	0.005000	0.941729	1.883520	-9.574560	0.734790	-0.463610	0.355000	0.038128	-0.013998	0.003753
140	0.699303	0.005000	0.826489	1.883520	-9.611351	0.734901	-0.463833	0.355000	0.041544	-0.015665	0.008384
141	0.704303	0.005000	0.927200	1.849133	-9.687427	0.735013	-0.464056	0.355000	0.036710	-0.009017	0.004950
142	0.709303	0.005000	1.020240	1.805040	-9.706819	0.735124	-0.464279	0.355000	0.035145	-0.002770	-0.005169
143	0.714303	0.005000	0.961648	1.775476	-9.613800	0.735236	-0.464502	0.355000	0.027485	-0.010529	0.011610
144	0.719303	0.005000	0.981000	1.805040	-9.692280	0.735347	-0.464725	0.355000	0.016092	-0.013850	0.009217
145	0.724303	0.005000	0.892869	1.829486	-9.677486	0.735459	-0.464948	0.355000	0.019630	-0.009054	0.007784
146	0.729303	0.005000	0.902520	1.849181	-9.635871	0.735570	-0.465171	0.355000	-0.004719	-0.012092	0.012637
147	0.734303	0.005000	0.863280	1.824599	-9.672599	0.735682	-0.465394	0.355000	-0.006288	-0.017347	0.006414
148	0.739303	0.005000	0.902520	1.878360	-9.630840	0.735793	-0.465617	0.355000	-0.013537	-0.011860	0.005115
149	0.744303	0.005000	0.838955	1.883520	-9.692280	0.735905	-0.465756	0.354906	-0.010788	-0.016227	0.002385
150	0.749303	0.005000	0.929220	1.881901	-9.588719	0.736016	-0.465867	0.354782	-0.012581	-0.015499	0.005444
151	0.754303	0.005000	0.882900	1.883520	-9.545130	0.736128	-0.465979	0.354657	-0.017680	-0.004210	0.003983
152	0.759303	0.005000	0.895125	1.866464	-9.645645	0.736239	-0.466090	0.354533	-0.016586	-0.006693	0.008154
153	0.764303	0.005000	0.946749	1.903477	-9.427578	0.736351	-0.466202	0.354408	-0.000133	-0.011957	0.012656
154	0.769303	0.005000	0.902520	1.996096	-9.574560	0.736462	-0.466313	0.354284	-0.006136	-0.004911	0.008421
155	0.774303	0.005000	0.862943	1.883352	-9.574897	0.736574	-0.466425	0.354159	0.007936	-0.012153	0.002930
156	0.779303	0.005000	0.858863	1.844280	-9.616009	0.736685	-0.466536	0.354034	0.014856	-0.003943	0.013410
157	0.784303	0.005000	0.902520	1.878921	-9.565363	0.736797	-0.466648	0.353910	0.023224	-0.007913	0.009754
158	0.789303	0.005000	0.870254	1.955026	-9.606826	0.736908	-0.466759	0.353785	0.030706	-0.012213	0.001668
159	0.794303	0.005000	0.863280	1.844280	-9.554047	0.737020	-0.466871	0.353661	0.023433	-0.011180	-0.008474
160	0.799303	0.005000	0.890639	1.871639	-9.629279	0.737131	-0.466982	0.353536	0.037170	-0.008611	0.005519
161	0.804303	0.005000	0.981000	1.908466	-9.638746	0.737243	-0.467094	0.353412	0.021554	-0.006983	0.003360
162	0.809303	0.005000	0.896687	1.860983	-9.624670	0.737354	-0.467205	0.353196	0.025900	-0.009187	0.009933
163	0.814303	0.005000	0.844165	1.765800	-9.673165	0.737466	-0.467317	0.352822	0.021721	-0.012045	0.006729
164	0.819303	0.005000	0.998714	1.761988	-9.613800	0.737577	-0.467428	0.352449	0.006575	-0.010290	0.005619
165	0.824303	0.005000	0.893888	1.735192	-9.574560	0.737689	-0.467540	0.352075	0.006315	-0.019322	0.015847
166	0.829303	0.005000	0.954651	1.739451	-9.522429	0.737800	-0.467651	0.351701	-0.003898	-0.017193	0.000089
167	0.834303	0.005000	0.991483	1.844280	-9.517047	0.737912	-0.467763	0.351328	-0.014020	-0.017669	0.005891
168	0.839303	0.005000	0.949828	1.875452	-9.582628	0.738023	-0.467874	0.350954	-0.024784	-0.020203	0.004125
169	0.844303	0.005000	0.930435	1.956337	-9.636052	0.738135	-0.467986	0.350581	-0.029061	-0.022839	-0.000787
170	0.849303	0.005000	0.908934	1.925967	-9.502494	0.738246	-0.468097	0.350207	-0.019961	-0.025080	0.015593
171	0.854303	0.005000	1.019408	2.000408	-9.536152	0.738358	-0.468209	0.349834	-0.018968	-0.019242	0.004277
172	0.859303	0.005000	0.943336	1.886673	-9.536896	0.738469	-0.468320	0.349460	-0.012107	-0.011528	0.017594
173	0.864303	0.005000	0.898539	1.962000	-9.500061	0.738581	-0.468432	0.349087	-0.009903	-0.014309	0.008603
174	0.869303	0.005000	0.896136	1.850664	-9.469609	0.738693	-0.468544	0.348713	-0.007668	-0.021685	0.003890
175	0.874303	0.005000	1.011440	1.696120	-9.605000	0.738804	-0.468655	0.348339	0.003578	-0.022558	0.008899
176	0.879303	0.005000	0.924934	1.743386	-9.557734	0.737491	-0.469862	0.350535	0.009035	-0.017970	-0.000820
177	0.884303	0.005000	0.953166	1.832874	-9.546726	0.736153	-0.471089	0.352777	0.016725	-0.015465	0.008381
178	0.889303	0.005000	0.941760	1.749493	-9.636733	0.734815	-0.472315	0.355018	0.014569	-0.020072	0.010480
179	0.894303	0.005000	1.001558	1.844280	-9.615676	0.733477	-0.473542	0.357259	0.031570	-0.021442	0.007084
180	0.899303	0.005000	0.941760	1.807944	-9.613800	0.732139	-0.474769	0.359501	0.015416	-0.017329	0.004290
181	0.904303	0.005000	0.918313	1.765800	-9.574560	0.730801	-0.475995	0.361742	0.006414	-0.025731	-0.002133
182	0.909303	0.005000	0.876683	1.804072	-9.536288	0.729463	-0.477222	0.363983	-0.005936	-0.025514	0.013866
183	0.914303	0.005000	0.852252	1.776828	-9.563532	0.728125	-0.478448	0.366225	-0.021022	-0.009968	0.003342
184	0.919303	0.005000	0.911158	1.844280	-9.622438	0.726787	-0.479675	0.368466	-0.030529	-0.018421	0.013919
185	0.924303	0.005000	0.857017	1.811303	-9.653040	0.725449	-0.480902	0.370707	-0.036822	-0.016628	0.003992
186	0.929303	0.005000	0.945633	1.769673	-9.606055	0.724111	-0.482128	0.372948	-0.055611	-0.023978	0.002805
187	0.934303	0.005000	1.054987	1.728058	-9.536818	0.722773	-0.483355	0.375190	-0.064583	-0.018166	0.000780
188	0.939303	0.005000	0.865086	1.842474	-9.536223	0.721434	-0.484581	0.377431	-0.068431	-0.018951	-0.001384
189	0.944303	0.005000	0.869894	1.991319	-9.528706	0.721162	-0.485142	0.377440	-0.063050	-0.014198	0.012758
190	0.949303	0.005000	0.818316	1.934208	-9.462564	0.721608	-0.485253	0.375947	-0.058817	-0.023650	-0.003560
191	0.954303	0.005000	0.792930	1.852410	-9.479821	0.722054	-0.485364	0.374453	-0.044174	-0.014653	0.002252
192	0.959303	0.005000	0.784800	1.833404	-9.602924	0.722500	-0.485476	0.372960	-0.033119	-0.020728	0.013752
193	0.964303	0.005000	0.862766	1.936011	-9.561309	0.722946	-0.485587	0.371466	-0.020443	-0.023982	0.007099
194	0.969303	0.005000	0.870965	1.962000	-9.613800	0.723392	-0.485699	0.369973	-0.009497	-0.030447	0.010615
195	0.974303	0.005000	0.781593	1.916346	-9.631817	0.723837	-0.485810	0.368479	-0.003201	-0.027409	-0.005674
196	0.979303	0.005000	0.824040	1.786207	-9.554153	0.724283	-0.485922	0.366986	0.015577	-0.020830	0.007514
197	0.984303	0.005000	0.846822	1.844280	-9.591018	0.724729	-0.486033	0.365492	0.012192	-0.016184	0.005992
198	0.989303	0.005000	0.720388	1.844280	-9.616765	0.725175	-0.486144	0.363999	0.025296	-0.012779	0.003540
199	0.994303	0.005000	0.824040	1.962000	-9.590413	0.725621	-0.486256	0.362505	0.009235	-0.013379	0.008126
200	0.999303	0.005000	0.814737	1.922760	-9.544623	0.726066	-0.486367	0.361012	-0.004758	-0.025361	0.013491
201	1.004303	0.005000	0.798657	1.876592	-9.653040	0.726512	-0.486479	0.359518	-0.013254	-0.016354	0.015017
202	1.009303	0.005000	0.797196	1.883520	-9.574560	0.726935	-0.486406	0.358333	-0.029208	0.000088	0.008667
203	1.014303	0.005000	0.943475	1.886949	-9.613800	0.727269	-0.485626	0.358333	-0.041626	-0.010995	0.011441
204	1.019303	0.005000	0.942441	1.962000	-9.613800	0.727604	-0.484845	0.358333	-0.056831	-0.014075	0.019604
205	1.024303	0.005000	0.896378	1.889662	-9.499151	0.727938	-0.484065	0.358333	-0.065893	-0.028620	0.013950
206	1.029303	0.005000	0.824040	1.878074	-9.608354	0.728272	-0.483285	0.358333	-0.070090	-0.017598	0.014834
207	1.034303	0.005000	0.902520	1.859952	-9.535320	0.728607	-0.482505	0.358333	-0.064830	-0.010674	0.015686
208	1.039303	0.005000	0.902520	1.941578	-9.574560	0.728941	-0.481725	0.358333	-0.063914	-0.013134	0.024586
209	1.044303	0.005000	0.982026	1.974738	-9.548058	0.729275	-0.480944	0.358333	-0.064939	-0.009381	0.013386
210	1.049303	0.005000	0.981000	1.986089	-9.487142	0.729610	-0.480164	0.358333	-0.051139	-0.019242	0.013611
211	1.054303	0.005000	0.876722	1.966118	-9.535320	0.729944	-0.479384	0.358333	-0.039792	-0.019070	0.021284
212	1.059303	0.005000	0.804068	1.981268	-9.456840	0.730278	-0.478604	0.358333	-0.040227	-0.018095	0.020345
213	1.064303	0.005000	0.812710	1.984383	-9.456840	0.730613	-0.477823	0.358333	-0.021367	-0.019364	0.023811
214	1.069303	0.005000	0.863280	1.951654	-9.506426	0.730947	-0.477043	0.358333	-0.013288	-0.018489	0.009696
215	1.074303	0.005000	0.812006	1.949966	-9.468874	0.731281	-0.476263	0.358333	0.004597	-0.026680	0.018745
216	1.079303	0.005000	0.814414	2.010866	-9.584186	0.731889	-0.476028	0.357927	0.019248	-0.017602	0.016305
217	1.084303	0.005000	0.649473	2.040480	-9.574560	0.732558	-0.475917	0.357428	0.028908	-0.024756	0.009625
218	1.089303	0.005000	0.824040	2.050091	-9.574560	0.733228	-0.475805	0.356930	0.024876	-0.036831	0.013254
219	1.094303	0.005000	0.821652	2.003628	-9.650652	0.733897	-0.475694	0.356432	0.033860	-0.017598	0.006203
220	1.099303	0.005000	0.863250	2.079705	-9.456901	0.734567	-0.475582	0.355934	0.041423	-0.024662	0.019873
221	1.104303	0.005000	0.750370	2.155795	-9.493675	0.735236	-0.475470	0.355435	0.041041	-0.011590	0.011988
222	1.109303	0.005000	0.715880	2.010800	-9.609020	0.735905	-0.475359	0.354937	0.047422	-0.017138	0.001577
223	1.114303	0.005000	0.610111	1.819381	-9.574560	0.736575	-0.475247	0.354439	0.041951	-0.020423	0.011697
224	1.119303	0.005000	0.686999	1.942679	-9.574560	0.737244	-0.475136	0.353941	0.036617	-0.032390	0.004818
225	1.124303	0.005000	0.811965	1.962000	-9.601725	0.737914	-0.475024	0.353442	0.034443	-0.034440	0.007731
226	1.129303	0.005000	0.735287	2.036270	-9.638557	0.738583	-0.474913	0.352944	0.025903	-0.022445	0.008133
227	1.134303	0.005000	0.784800	1.934181	-9.591447	0.739252	-0.474801	0.352446	0.026581	-0.017908	0.008045
228	1.139303	0.005000	0.764859	1.883520	-9.633741	0.739922	-0.474690	0.351948	0.015386	-0.013162	0.005169
229	1.144303	0.005000	0.728030	1.896870	-9.692280	0.740396	-0.474676	0.351721	0.008314	-0.016290	0.004891
230	1.149303	0.005000	0.727562	1.922760	-9.677159	0.740619	-0.474787	0.351846	0.002211	-0.022749	0.012559
231	1.154303	0.005000	0.825158	1.805040	-9.666865	0.740842	-0.474898	0.351970	-0.007094	-0.020507	-0.000043
232	1.159303	0.005000	0.881921	1.786399	-9.613800	0.741065	-0.475010	0.352095	-0.004100	-0.015036	0.007632
233	1.164303	0.005000	0.925991	1.922760	-9.621685	0.741288	-0.475121	0.352219	-0.015237	-0.007749	0.005112
234	1.169303	0.005000	0.801047	1.815871	-9.574560	0.741511	-0.475233	0.352343	-0.009807	-0.015059	-0.002069
235	1.174303	0.005000	0.863280	1.925785	-9.653040	0.741734	-0.475344	0.352468	-0.000136	-0.017782	0.004276
236	1.179303	0.005000	0.900569	2.001240	-9.690979	0.741957	-0.475456	0.352592	0.003099	-0.010994	0.002139
237	1.184303	0.005000	0.784800	1.963760	-9.576320	0.742180	-0.475567	0.352717	0.006505	-0.020204	0.003808
238	1.189303	0.005000	0.753889	1.918596	-9.617964	0.742402	-0.475678	0.352841	0.007032	-0.020755	0.000532
239	1.194303	0.005000	0.863280	1.883520	-9.607219	0.742625	-0.475790	0.352965	0.020969	-0.008927	0.009012
240	1.199303	0.005000	0.724294	1.853267	-9.613800	0.742848	-0.475901	0.353090	0.017452	-0.010572	0.004830
241	1.204303	0.005000	0.761353	1.962000	-9.641316	0.743071	-0.476013	0.353214	0.033538	-0.009724	-0.003732
242	1.209303	0.005000	0.824040	1.844280	-9.627610	0.743269	-0.476124	0.353384	0.038434	-0.013527	0.001387
243	1.214303	0.005000	0.801022	1.844280	-9.574560	0.742934	-0.476236	0.354505	0.031102	-0.009479	-0.001664
244	1.219303	0.005000	0.764192	1.943368	-9.613800	0.742600	-0.476347	0.355625	0.021824	-0.014083	-0.003473
245	1.224303	0.005000	0.824040	1.865534	-9.556574	0.742265	-0.476459	0.356746	0.010998	-0.007638	0.006110
246	1.229303	0.005000	0.847669	1.859891	-9.629411	0.741931	-0.476570	0.357867	0.017351	-0.017530	-0.005756
247	1.234303	0.005000	0.850059	1.883520	-9.640242	0.741596	-0.476682	0.358987	0.009149	-0.015026	0.007074
248	1.239303	0.005000	0.834886	1.805040	-9.596252	0.741261	-0.476793	0.360108	0.007207	-0.002411	-0.001143
249	1.244303	0.005000	0.784800	1.805040	-9.653040	0.740927	-0.476905	0.361228	0.003877	-0.008435	-0.000657
250	1.249303	0.005000	0.790881	1.838199	-9.619881	0.740592	-0.477016	0.362349	-0.000233	-0.002977	0.006293
251	1.254303	0.005000	0.831422	1.805040	-9.653040	0.740258	-0.477128	0.363470	-0.003862	-0.009970	0.003881
252	1.259303	0.005000	0.940444	1.924076	-9.616432	0.739923	-0.477239	0.364590	-0.008744	-0.009391	0.010572
253	1.264303	0.005000	0.826213	1.923847	-9.501513	0.739589	-0.477351	0.365711	-0.010640	-0.013276	-0.006702
254	1.269303	0.005000	0.757314	1.840362	-9.535320	0.739254	-0.477463	0.366832	-0.006119	-0.015581	0.005892
255	1.274303	0.005000	0.864762	1.837987	-9.646747	0.738920	-0.477574	0.367952	-0.011092	-0.009738	-0.011599
256	1.279303	0.005000	0.972317	1.892203	-9.600609	0.738732	-0.477170	0.367511	-0.012067	-0.008830	-0.004792
257	1.284303	0.005000	0.941760	1.933818	-9.574560	0.738621	-0.476501	0.366266	-0.005757	-0.009901	0.009002
258	1.289303	0.005000	0.798248	1.830832	-9.600352	0.738509	-0.475832	0.365020	-0.004324	-0.013771	0.005192
259	1.294303	0.005000	0.808217	1.969594	-9.590383	0.738398	-0.475163	0.363775	-0.008708	-0.012023	0.009222
260	1.299303	0.005000	0.847880	2.004054	-9.553533	0.738286	-0.474494	0.362530	-0.007873	-0.007501	-0.010365
261	1.304303	0.005000	0.902520	1.943348	-9.574560	0.738175	-0.473825	0.361285	0.001120	-0.005911	0.011746
262	1.309303	0.005000	0.807778	1.850996	-9.590822	0.738063	-0.473156	0.360040	0.004913	0.003275	-0.000937
263	1.314303	0.005000	0.851814	1.805040	-9.560673	0.737952	-0.472487	0.358795	0.003009	-0.008588	0.001940
264	1.319303	0.005000	0.941760	1.883520	-9.574560	0.737840	-0.471818	0.357550	-0.002828	-0.010900	0.014696
265	1.324303	0.005000	0.863280	1.883520	-9.653040	0.737728	-0.471149	0.356305	0.004907	-0.011565	0.005460
266	1.329303	0.005000	0.863280	1.837926	-9.640333	0.737617	-0.470480	0.355059	0.007494	-0.013524	0.008297
267	1.334303	0.005000	0.835885	1.926708	-9.539268	0.737505	-0.469811	0.353814	0.003204	-0.004056	0.009538
268	1.339303	0.005000	0.940229	1.963531	-9.574560	0.737394	-0.469142	0.352569	-0.004581	0.001178	0.003054
269	1.344303	0.005000	0.979275	1.886107	-9.574560	0.737344	-0.468596	0.351770	0.000527	-0.001104	0.005308
270	1.349303	0.005000	1.013735	1.916255	-9.535320	0.737455	-0.468373	0.352143	0.003372	-0.009435	0.008675
271	1.354303	0.005000	0.941760	1.805040	-9.563169	0.737567	-0.468150	0.352517	0.006954	-0.009163	0.016956
272	1.359303	0.005000	0.863280	1.962000	-9.543431	0.737678	-0.467927	0.352891	-0.000621	-0.009192	-0.007400
273	1.364303	0.005000	0.881484	2.040480	-9.506598	0.737790	-0.467704	0.353264	0.005095	-0.010832	0.007664
274	1.369303	0.005000	0.955136	2.001240	-9.600868	0.737901	-0.467481	0.353638	0.007064	-0.004338	0.007743
275	1.374303	0.005000	0.941760	1.938101	-9.589901	0.738013	-0.467258	0.354011	0.011385	-0.005807	0.005889
276	1.379303	0.005000	0.784800	1.901273	-9.513833	0.738125	-0.467035	0.354385	0.019210	-0.002913	0.011772
277	1.384303	0.005000	0.725396	1.882433	-9.477004	0.738236	-0.466811	0.354758	0.019928	-0.009723	0.009378
278	1.389303	0.005000	0.863280	1.967907	-9.546079	0.738348	-0.466588	0.355132	0.022552	-0.005974	0.011178
279	1.394303	0.005000	0.849026	2.015494	-9.617321	0.738459	-0.466365	0.355505	0.012548	-0.001769	-0.001136
280	1.399303	0.005000	0.839589	1.856125	-9.680435	0.738571	-0.466142	0.355879	0.010902	-0.011468	0.001830
281	1.404303	0.005000	0.794231	1.853711	-9.604369	0.738682	-0.465919	0.356253	0.005271	-0.004790	0.008598
282	1.409303	0.005000	0.902520	1.851307	-9.620827	0.738794	-0.465696	0.356626	0.011180	-0.002017	0.010303
283	1.414303	0.005000	0.863280	1.888142	-9.683036	0.738905	-0.465871	0.356002	-0.002771	-0.013311	0.010015
284	1.419303	0.005000	0.819683	1.885698	-9.537498	0.739017	-0.466094	0.355255	-0.001209	0.001453	-0.006280
285	1.424303	0.005000	0.784601	1.883719	-9.691683	0.739128	-0.466317	0.354508	-0.000955	-0.005231	0.006346
286	1.429303	0.005000	0.782183	1.849514	-9.616417	0.739240	-0.466540	0.353760	-0.003637	-0.003471	0.018769
287	1.434303	0.005000	0.858258	1.946935	-9.648018	0.739351	-0.466763	0.353013	-0.006437	-0.007306	0.010165
288	1.439303	0.005000	0.792238	1.859156	-9.589436	0.739463	-0.466986	0.352266	-0.009665	-0.006951	0.015906
289	1.444303	0.005000	0.833747	1.922760	-9.515769	0.739575	-0.467209	0.351519	-0.013922	-0.003692	0.004226
290	1.449303	0.005000	0.890261	1.898243	-9.520597	0.739686	-0.467432	0.350772	-0.009763	-0.011439	0.011179
291	1.454303	0.005000	0.814722	1.971318	-9.481119	0.739798	-0.467655	0.350025	-0.003764	-0.005321	0.002074
292	1.459303	0.005000	0.745560	2.005808	-9.596464	0.739909	-0.467878	0.349278	-0.002696	-0.001941	0.010382
293	1.464303	0.005000	0.843554	2.020331	-9.633314	0.740021	-0.468101	0.348531	0.001161	-0.000893	0.010606
294	1.469303	0.005000	0.789762	2.018379	-9.557421	0.740132	-0.468324	0.347784	0.014160	-0.002315	0.008601
295	1.474303	0.005000	0.814298	1.908011	-9.554804	0.740244	-0.468547	0.347037	0.024774	-0.001726	0.015960
296	1.479303	0.005000	0.797174	1.962000	-9.469214	0.740017	-0.468713	0.346667	0.028773	-0.006534	0.004648
297	1.484303	0.005000	0.912504	1.883520	-9.535320	0.739460	-0.468825	0.346667	0.040582	-0.012400	0.012818
298	1.489303	0.005000	0.910129	2.048089	-9.589778	0.738903	-0.468936	0.346667	0.033650	0.000588	0.007439
299	1.494303	0.005000	0.886863	2.001240	-9.603362	0.738345	-0.469048	0.346667	0.037088	-0.004002	0.002150
300	1.499303	0.005000	0.747964	1.957193	-9.417600	0.737788	-0.469159	0.346667	0.047735	-0.007406	0.011846
301	1.504303	0.005000	0.747436	1.883520	-9.418069	0.737231	-0.469270	0.346667	0.046109	-0.001716	0.011084
302	1.509303	0.005000	0.939385	1.883520	-9.567435	0.736673	-0.469382	0.346667	0.048536	-0.007898	0.011610
303	1.514303	0.005000	0.966705	1.962000	-9.579325	0.736116	-0.469493	0.346667	0.032377	-0.000466	0.004566
304	1.519303	0.005000	0.877560	1.876380	-9.620940	0.735559	-0.469605	0.346667	0.026941	-0.013087	0.003798
305	1.524303	0.005000	0.764620	1.755150	-9.653040	0.735002	-0.469716	0.346667	0.015852	-0.001403	0.011697
306	1.529303	0.005000	0.812135	1.847805	-9.547225	0.734444	-0.469827	0.346667	0.007779	-0.000815	0.000245
307	1.534303	0.005000	0.745560	1.829818	-9.599338	0.733887	-0.469939	0.346667	0.004903	-0.002196	0.009612
308	1.539303	0.005000	0.784800	1.900190	-9.574560	0.733330	-0.470050	0.346667	-0.005639	-0.004699	-0.002045
309	1.544303	0.005000	0.745560	1.942043	-9.594517	0.732861	-0.470187	0.346809	-0.012944	0.000674	0.005194
310	1.549303	0.005000	0.841585	1.848429	-9.574560	0.733084	-0.470522	0.348054	-0.014994	-0.000167	0.002875
311	1.554303	0.005000	0.854312	1.850448	-9.559424	0.733307	-0.470856	0.349299	-0.012028	0.004414	0.003388
312	1.559303	0.005000	0.877074	1.949277	-9.548043	0.733531	-0.471191	0.350545	0.003242	-0.006785	0.009737
313	1.564303	0.005000	0.755875	1.990925	-9.584875	0.733754	-0.471525	0.351790	0.014487	-0.005606	0.001698
314	1.569303	0.005000	0.831940	2.001240	-9.566660	0.733977	-0.471860	0.353035	0.019798	-0.009037	0.010387
315	1.574303	0.005000	0.857786	1.883520	-9.608306	0.734200	-0.472195	0.354280	0.022463	0.003096	0.004498
316	1.579303	0.005000	0.902520	1.801963	-9.649963	0.734423	-0.472529	0.355525	0.038340	-0.004440	0.005970
317	1.584303	0.005000	0.861949	1.923426	-9.496080	0.734646	-0.472864	0.356770	0.041520	-0.000721	0.011073
318	1.589303	0.005000	0.784800	1.962000	-9.608566	0.734869	-0.473198	0.358015	0.047814	0.001940	0.001446
319	1.594303	0.005000	0.859133	1.883520	-9.644745	0.735092	-0.473533	0.359260	0.037753	-0.007751	0.011791
320	1.599303	0.005000	0.863280	1.916207	-9.607247	0.735315	-0.473867	0.360506	0.037322	0.003506	-0.001034
321	1.604303	0.005000	0.884583	1.913792	-9.613800	0.735538	-0.474202	0.361751	0.035704	-0.002842	0.009835
322	1.609303	0.005000	0.886697	1.879405	-9.535320	0.735761	-0.474536	0.362996	0.030124	-0.013034	0.004458
323	1.614303	0.005000	0.891447	1.883520	-9.560477	0.736228	-0.474220	0.362425	0.032512	-0.007813	0.011165
324	1.619303	0.005000	0.824040	1.877227	-9.545501	0.736785	-0.473663	0.361180	0.020609	-0.007502	0.011379
325	1.624303	0.005000	0.842889	1.883520	-9.615343	0.737343	-0.473105	0.359935	0.012120	0.003478	0.014446
326	1.629303	0.005000	0.899283	1.826279	-9.613800	0.737900	-0.472548	0.358690	0.014664	-0.002595	0.011305
327	1.634303	0.005000	0.878906	1.867894	-9.574560	0.738458	-0.471990	0.357445	0.018021	0.002972	0.009988
328	1.639303	0.005000	0.928524	1.857516	-9.587327	0.739015	-0.471433	0.356199	0.021714	0.004164	0.006882
329	1.644303	0.005000	0.863280	1.855141	-9.592077	0.739573	-0.470875	0.354954	0.017221	0.006916	0.018044
330	1.649303	0.005000	0.847058	1.899742	-9.504191	0.740131	-0.470317	0.353709	0.022815	0.000827	0.008140
331	1.654303	0.005000	0.790495	1.928455	-9.568865	0.740688	-0.469760	0.352464	0.028897	0.003074	0.012204
332	1.659303	0.005000	0.863280	1.876939	-9.505951	0.741246	-0.469202	0.351219	0.016200	0.005880	0.009018
333	1.664303	0.005000	0.823167	1.921015	-9.613800	0.741803	-0.468645	0.349974	0.031885	-0.006970	0.019012
334	1.669303	0.005000	0.671618	1.844280	-9.576073	0.742361	-0.468087	0.348729	0.030657	0.000582	0.009761
335	1.674303	0.005000	0.780897	1.879617	-9.539223	0.742918	-0.467530	0.347484	0.028683	-0.001216	-0.004265
336	1.679303	0.005000	0.817686	1.856987	-9.574560	0.743246	-0.467318	0.346967	0.038536	-0.003631	0.017460
337	1.684303	0.005000	0.880795	1.805040	-9.491870	0.743134	-0.467764	0.347839	0.043307	0.010964	0.005803
338	1.689303	0.005000	0.812868	1.793868	-9.552216	0.743023	-0.468210	0.348710	0.045907	-0.002394	0.016725
339	1.694303	0.005000	0.837620	1.869940	-9.548900	0.742911	-0.468656	0.349582	0.034218	0.005312	0.004188
340	1.699303	0.005000	0.909774	1.821033	-9.597807	0.742799	-0.469102	0.350453	0.032817	-0.004778	0.013051
341	1.704303	0.005000	0.923357	1.784203	-9.496080	0.742688	-0.469548	0.351325	0.023316	-0.001561	0.012562
342	1.709303	0.005000	0.902520	1.765800	-9.632013	0.742576	-0.469994	0.352196	0.006308	0.001872	0.002198
343	1.714303	0.005000	0.863280	1.828457	-9.558737	0.742465	-0.470440	0.353068	0.003859	-0.017162	0.012032
344	1.719303	0.005000	0.825144	1.818488	-9.536424	0.742353	-0.470886	0.353940	0.001257	-0.003338	0.001448
345	1.724303	0.005000	0.913578	1.787916	-9.585618	0.742242	-0.471332	0.354811	-0.004037	-0.006300	0.001604
346	1.729303	0.005000	0.893837	1.805040	-9.565877	0.742130	-0.471778	0.355683	-0.007534	-0.002192	0.009466
347	1.734303	0.005000	0.922881	1.784679	-9.535320	0.742019	-0.472224	0.356554	-0.002590	-0.006581	-0.003180
348	1.739303	0.005000	0.824040	1.761882	-9.566724	0.741907	-0.472670	0.357426	0.009454	-0.006154	0.018292
349	1.744303	0.005000	0.862193	1.767973	-9.535320	0.741796	-0.473116	0.358297	0.009207	-0.004966	0.004312
350	1.749303	0.005000	0.861964	1.995976	-9.611168	0.741791	-0.472599	0.358094	0.017530	-0.007898	-0.001447
351	1.754303	0.005000	0.863280	1.847971	-9.653040	0.741791	-0.472042	0.357845	0.025335	0.002322	0.001829
352	1.759303	0.005000	0.784800	1.817202	-9.640878	0.741791	-0.471484	0.357596	0.027593	-0.007705	0.000444
353	1.764303	0.005000	0.846368	1.813496	-9.599928	0.741791	-0.470927	0.357347	0.036304	-0.009196	0.005794
354	1.769303	0.005000	0.824040	1.754954	-9.624646	0.741791	-0.470369	0.357098	0.044808	-0.001572	-0.003239
355	1.774303	0.005000	0.876501	1.778598	-9.653040	0.741791	-0.469812	0.356849	0.035939	-0.007592	0.010951
356	1.779303	0.005000	0.832088	1.702916	-9.676684	0.741791	-0.469254	0.356600	0.032050	0.002459	0.005079
357	1.784303	0.005000	0.845083	1.807887	-9.671237	0.741791	-0.468697	0.356351	0.026460	-0.002700	0.007394
358	1.789303	0.005000	0.921152	1.747168	-9.673648	0.741791	-0.468139	0.356102	0.011659	-0.000731	0.002903
359	1.794303	0.005000	0.948555	1.765800	-9.620595	0.741791	-0.467582	0.355853	0.003598	0.010073	0.007975
360	1.799303	0.005000	0.835660	1.738180	-9.549130	0.741791	-0.467024	0.355604	-0.011313	0.005853	0.000219
361	1.804303	0.005000	0.824040	1.765800	-9.535320	0.741791	-0.466467	0.355355	-0.029882	0.008258	-0.004894
362	1.809303	0.005000	0.820748	1.744534	-9.592534	0.741791	-0.465909	0.355106	-0.030882	-0.002693	0.002427
363	1.814303	0.005000	0.889358	1.772381	-9.646459	0.741343	-0.466696	0.356429	-0.031469	0.008418	0.001973
364	1.819303	0.005000	0.793129	1.817533	-9.609636	0.740563	-0.468479	0.358919	-0.024696	-0.003293	0.010521
365	1.824303	0.005000	0.865040	1.919240	-9.494320	0.739783	-0.470263	0.361408	-0.016201	0.008293	0.013620
366	1.829303	0.005000	0.825341	1.844280	-9.572609	0.739002	-0.472046	0.363897	-0.010531	0.003762	-0.000382
367	1.834303	0.005000	0.938735	1.759749	-9.650015	0.738222	-0.473829	0.366386	0.006949	0.000684	0.002775
368	1.839303	0.005000	0.824040	1.771216	-9.613800	0.737442	-0.475612	0.368875	0.026808	0.000107	-0.005916
369	1.844303	0.005000	0.863280	1.812831	-9.558979	0.736662	-0.477396	0.371365	0.032665	-0.007554	-0.003772
370	1.849303	0.005000	0.747042	1.726560	-9.632679	0.735881	-0.479179	0.373854	0.033891	-0.000120	0.003957
371	1.854303	0.005000	0.784800	1.648080	-9.653040	0.735101	-0.480962	0.376343	0.035052	-0.010527	-0.003619
372	1.859303	0.005000	0.863280	1.732157	-9.550266	0.734321	-0.482746	0.378832	0.029206	-0.010442	0.002208
373	1.864303	0.005000	0.806719	1.726560	-9.517999	0.733541	-0.484529	0.381321	0.028469	-0.004624	-0.004475
374	1.869303	0.005000	0.804106	1.805040	-9.535948	0.732761	-0.486312	0.383811	0.013448	-0.011300	-0.013109
375	1.874303	0.005000	0.880176	1.810488	-9.596904	0.731980	-0.488095	0.386300	0.000916	-0.007250	-0.011485
376	1.879303	0.005000	0.931487	1.736833	-9.638557	0.731098	-0.489389	0.388150	-0.004549	-0.002487	-0.008837
377	1.884303	0.005000	1.086331	1.712098	-9.586949	0.729759	-0.488496	0.387154	-0.014826	-0.008858	0.010850
378	1.889303	0.005000	0.941760	1.883520	-9.564899	0.728420	-0.487604	0.386157	-0.031211	-0.007044	0.003208
379	1.894303	0.005000	0.831294	1.908252	-9.670517	0.727082	-0.486711	0.385161	-0.043177	-0.005438	0.004147
380	1.899303	0.005000	0.941760	1.849118	-9.648202	0.725743	-0.485819	0.384164	-0.062465	-0.000450	0.006142
381	1.904303	0.005000	0.865713	1.844280	-9.567260	0.724404	-0.484926	0.383168	-0.046454	-0.009309	0.003519
382	1.909303	0.005000	0.941745	1.844326	-9.496095	0.723066	-0.484034	0.382171	-0.041612	-0.006624	0.002412
383	1.914303	0.005000	0.865640	1.998880	-9.461560	0.721727	-0.483141	0.381174	-0.045666	0.001817	-0.000007
384	1.919303	0.005000	0.794300	1.922760	-9.500830	0.720388	-0.482249	0.380178	-0.035428	-0.015654	0.009709
385	1.924303	0.005000	0.824040	1.962000	-9.488955	0.719050	-0.481357	0.379181	-0.021132	-0.012563	0.012402
386	1.929303	0.005000	0.803830	1.863310	-9.574560	0.717711	-0.480464	0.378185	-0.010133	-0.010618	0.019566
387	1.934303	0.005000	0.878740	1.895410	-9.590020	0.716372	-0.479572	0.377188	0.007369	-0.000935	0.009275
388	1.939303	0.005000	0.877560	1.830000	-9.546000	0.715034	-0.478679	0.376192	0.012687	-0.004358	0.007235
389	1.944303	0.005000	0.784800	1.945345	-9.607870	0.713695	-0.477787	0.375195	0.007842	-0.008975	0.007440
390	1.949303	0.005000	0.804995	1.903715	-9.673235	0.713881	-0.478150	0.374800	0.011378	0.002901	-0.000076
391	1.954303	0.005000	0.856079	1.847880	-9.617400	0.714439	-0.478819	0.374551	0.017745	-0.006965	0.006307
392	1.959303	0.005000	0.965555	1.828835	-9.574560	0.714997	-0.479488	0.374302	0.009051	-0.009902	0.007153
393	1.964303	0.005000	0.915575	1.805040	-9.639985	0.715554	-0.480157	0.374053	0.003770	-0.000687	0.011565
394	1.969303	0.005000	0.884640	1.776480	-9.574560	0.716112	-0.480826	0.373804	-0.004661	-0.004086	0.005905
395	1.974303	0.005000	0.824040	1.844280	-9.613800	0.716669	-0.481495	0.373555	-0.010933	-0.000130	0.001340
396	1.979303	0.005000	0.863280	1.883520	-9.507909	0.717227	-0.482164	0.373306	-0.026486	-0.008378	0.010872
397	1.984303	0.005000	0.827147	1.922760	-9.646826	0.717784	-0.482833	0.373057	-0.030101	-0.003824	0.000316
398	1.989303	0.005000	0.862130	1.920461	-9.650741	0.718342	-0.483502	0.372808	-0.031257	-0.011261	0.006375
399	1.994303	0.005000	0.786055	1.958235	-9.574560	0.718899	-0.484171	0.372559	-0.049490	-0.007781	0.008213
400	1.999303	0.005000	0.886183	1.887604	-9.570476	0.719457	-0.484840	0.372310	-0.047828	-0.008423	0.000745
401	2.004303	0.005000	0.797719	1.942622	-9.600881	0.720015	-0.485509	0.372061	-0.043155	-0.010497	0.008154
402	2.009303	0.005000	0.784800	1.953151	-9.622649	0.720572	-0.486178	0.371812	-0.031803	-0.004880	-0.000802
403	2.014303	0.005000	0.723111	1.922760	-9.641816	0.721410	-0.486053	0.371041	-0.018471	-0.015731	0.002597
404	2.019303	0.005000	0.824040	1.987626	-9.627414	0.722637	-0.484826	0.369546	-0.014327	-0.009664	0.001711
405	2.024303	0.005000	0.840029	1.985251	-9.567299	0.723863	-0.483600	0.368052	0.001312	-0.008913	-0.001817
406	2.029303	0.005000	0.784800	1.982860	-9.574560	0.725090	-0.482373	0.366558	0.017337	-0.001845	0.005360
407	2.034303	0.005000	0.866051	1.865286	-9.556326	0.726316	-0.481146	0.365064	0.033328	-0.003178	0.004667
408	2.039303	0.005000	0.855689	1.915169	-9.511905	0.727543	-0.479920	0.363570	0.037983	-0.013371	0.009717
409	2.044303	0.005000	0.902520	1.974417	-9.547737	0.728769	-0.478693	0.362075	0.037107	-0.006548	0.007244
410	2.049303	0.005000	0.824040	1.933768	-9.580776	0.729996	-0.477467	0.360581	0.046174	-0.018225	0.003614
411	2.054303	0.005000	0.911121	1.970601	-9.565959	0.731222	-0.476240	0.359087	0.040020	-0.004139	0.018826
412	2.059303	0.005000	0.857169	1.995129	-9.502191	0.732449	-0.475013	0.357593	0.037409	0.002487	0.004814
413	2.064303	0.005000	0.863280	1.855489	-9.574560	0.733675	-0.473787	0.356099	0.017539	-0.005660	0.003280
414	2.069303	0.005000	0.901174	1.963346	-9.575906	0.734902	-0.472560	0.354604	0.015149	-0.006483	0.003295
415	2.074303	0.005000	0.748683	1.924842	-9.537402	0.736128	-0.471334	0.353110	0.004985	-0.009701	0.009696
416	2.079303	0.005000	0.934842	1.851198	-9.606882	0.737321	-0.470130	0.351676	-0.012377	-0.005219	0.011368
417	2.084303	0.005000	0.902520	1.810904	-9.535320	0.737544	-0.469573	0.351924	-0.011368	-0.003044	0.010550
418	2.089303	0.005000	0.855000	1.889642	-9.605520	0.737767	-0.469015	0.352173	-0.015785	-0.003922	0.009274
419	2.094303	0.005000	0.930732	1.866335	-9.529163	0.737990	-0.468458	0.352422	-0.007967	-0.004133	0.015853
420	2.099303	0.005000	0.864248	1.948597	-9.600397	0.738213	-0.467901	0.352671	0.008894	-0.015187	0.015487
421	2.104303	0.005000	0.839833	1.899313	-9.613800	0.738436	-0.467344	0.352920	0.017110	-0.003084	0.018586
422	2.109303	0.005000	0.824040	1.871161	-9.610896	0.738659	-0.466787	0.353169	0.037516	-0.007050	0.007941
423	2.114303	0.005000	0.805358	1.862962	-9.595118	0.738882	-0.466229	0.353418	0.031003	-0.004036	0.008657
424	2.119303	0.005000	0.752186	1.850906	-9.630107	0.739104	-0.465672	0.353667	0.029627	-0.012556	0.002545
425	2.124303	0.005000	0.796206	1.779717	-9.572049	0.739327	-0.465115	0.353916	0.030904	-0.008902	0.018893
426	2.129303	0.005000	0.762386	1.861106	-9.552146	0.739550	-0.464558	0.354164	0.024365	-0.009011	0.012441
427	2.134303	0.005000	0.845680	1.861880	-9.535320	0.739773	-0.464000	0.354413	0.021050	-0.012592	0.017277
428	2.139303	0.005000	0.850486	1.903569	-9.502477	0.739996	-0.463443	0.354662	0.001288	-0.010756	0.010763
429	2.144303	0.005000	0.722243	1.852241	-9.653040	0.740219	-0.462886	0.354911	0.004026	-0.006164	0.002469
430	2.149303	0.005000	0.861722	1.921202	-9.571444	0.740012	-0.462687	0.354840	-0.005687	-0.004404	0.018666
431	2.154303	0.005000	0.862438	1.883520	-9.534478	0.739566	-0.462687	0.354591	-0.010561	-0.008335	-0.000180
432	2.159303	0.005000	0.788046	1.811532	-9.496080	0.739120	-0.462687	0.354342	-0.006427	-0.015063	0.006163
433	2.164303	0.005000	0.885532	1.805040	-9.501743	0.738674	-0.462687	0.354093	-0.010769	-0.008010	0.007291
434	2.169303	0.005000	0.855212	1.852348	-9.551457	0.738228	-0.462687	0.353844	0.005254	-0.009007	0.009792
435	2.174303	0.005000	0.826734	1.972483	-9.574560	0.737782	-0.462687	0.353595	0.015329	-0.010701	0.007747
436	2.179303	0.005000	0.849822	1.936218	-9.587451	0.737336	-0.462687	0.353346	0.030239	-0.007420	0.006437
437	2.184303	0.005000	0.824040	1.898824	-9.535320	0.736889	-0.462687	0.353097	0.047106	-0.003087	0.009298
438	2.189303	0.005000	0.841754	1.818942	-9.574560	0.736443	-0.462687	0.352848	0.056904	-0.005033	-0.009958
439	2.194303	0.005000	0.804925	1.824155	-9.595695	0.735997	-0.462687	0.352599	0.067425	-0.014248	-0.006218
440	2.199303	0.005000	0.834910	1.794170	-9.496080	0.735551	-0.462687	0.352350	0.065510	-0.008367	-0.006030
441	2.204303	0.005000	0.913172	1.790746	-9.613800	0.735105	-0.462687	0.352101	0.070983	-0.000855	-0.000794
442	2.209303	0.005000	0.839519	1.793159	-9.598321	0.734659	-0.462687	0.351852	0.060395	-0.005720	0.005848
443	2.214303	0.005000	0.736196	1.786313	-9.643676	0.734386	-0.462917	0.351731	0.046663	-0.006897	-0.005742
444	2.219303	0.005000	0.791774	1.751853	-9.535320	0.734609	-0.463809	0.351980	0.036638	-0.011579	-0.002777
445	2.224303	0.005000	0.858681	1.691919	-9.579159	0.734832	-0.464701	0.352229	0.012003	0.002783	-0.000463
446	2.229303	0.005000	0.863280	1.689544	-9.579007	0.735055	-0.465593	0.352478	0.000364	-0.002103	-0.012602
447	2.234303	0.005000	0.785137	1.648417	-9.496753	0.735278	-0.466485	0.352727	-0.013028	0.000099	-0.009466
448	2.239303	0.005000	0.860708	1.765800	-9.532748	0.735501	-0.467377	0.352976	-0.033304	0.010091	-0.010943
449	2.244303	0.005000	0.902520	1.834302	-9.461829	0.735724	-0.468269	0.353225	-0.038784	-0.002232	0.003701
450	2.249303	0.005000	0.863280	1.765800	-9.488305	0.735947	-0.469161	0.353474	-0.050710	0.003392	-0.009171
451	2.254303	0.005000	1.010090	1.844280	-9.535320	0.736170	-0.470053	0.353723	-0.049237	0.004995	-0.013478
452	2.259303	0.005000	0.968460	1.724941	-9.599641	0.736393	-0.470946	0.353972	-0.055289	-0.000555	-0.007461
453	2.264303	0.005000	0.863280	1.838774	-9.653040	0.736616	-0.471838	0.354221	-0.033680	-0.001585	-0.009706
454	2.269303	0.005000	0.863280	1.795782	-9.640363	0.736839	-0.472730	0.354470	-0.018773	-0.001760	-0.003082
455	2.274303	0.005000	0.902399	1.824599	-9.633481	0.737062	-0.473622	0.354719	-0.019805	0.006280	-0.009993
456	2.279303	0.005000	0.919689	1.861449	-9.626068	0.737285	-0.474514	0.354968	-0.005465	-0.000491	-0.006128
457	2.284303	0.005000	0.784800	1.859074	-9.613800	0.737508	-0.474140	0.354783	0.021449	0.004783	0.005599
458	2.289303	0.005000	0.861253	1.895924	-9.601396	0.737731	-0.473583	0.354534	0.026953	-0.001351	-0.000201
459	2.294303	0.005000	0.902520	1.913084	-9.623476	0.737954	-0.473026	0.354285	0.025777	-0.000415	0.008685
460	2.299303	0.005000	0.902520	1.851550	-9.574560	0.738177	-0.472469	0.354036	0.025428	0.009848	-0.002335
461	2.304303	0.005000	0.941760	1.868960	-9.604093	0.738400	-0.471911	0.353787	0.024659	0.012449	0.004745
462	2.309303	0.005000	0.904969	1.839383	-9.577009	0.738623	-0.471354	0.353538	0.002981	0.016811	0.011583
463	2.314303	0.005000	0.941760	1.883489	-9.535320	0.738846	-0.470797	0.353289	-0.002589	0.002603	0.016054
464	2.319303	0.005000	0.941760	1.807385	-9.572215	0.739069	-0.470239	0.353040	-0.018501	0.003652	0.009230
465	2.324303	0.005000	0.981000	1.844280	-9.579280	0.739292	-0.469682	0.352792	-0.022402	-0.005328	0.009347
466	2.329303	0.005000	0.941760	1.876410	-9.535320	0.739515	-0.469125	0.352543	-0.036949	-0.004377	0.013475
467	2.334303	0.005000	0.902520	1.893005	-9.525835	0.739738	-0.468567	0.352294	-0.048627	0.004257	0.005970
468	2.339303	0.005000	0.851405	1.856155	-9.550810	0.739961	-0.468010	0.352045	-0.047896	-0.010507	0.025509
469	2.344303	0.005000	0.899010	1.883520	-9.624540	0.740183	-0.467453	0.351796	-0.044700	-0.002594	0.011386
470	2.349303	0.005000	0.964360	1.883520	-9.535320	0.740192	-0.467540	0.351787	-0.039948	-0.008249	0.018695
471	2.354303	0.005000	0.863280	1.983435	-9.634025	0.739969	-0.468320	0.352036	-0.033903	-0.012200	0.030040
472	2.359303	0.005000	0.888255	1.944165	-9.649470	0.739746	-0.469100	0.352285	-0.032541	-0.019940	0.018361
473	2.364303	0.005000	0.839500	1.922760	-9.661360	0.739523	-0.469881	0.352534	-0.018852	-0.005308	0.024266
474	2.369303	0.005000	0.928532	1.896748	-9.639812	0.739300	-0.470661	0.352783	-0.001356	-0.007731	0.015433
475	2.374303	0.005000	0.852585	1.954845	-9.631650	0.739077	-0.471441	0.353031	0.018955	-0.006861	0.019535
476	2.379303	0.005000	0.714625	2.149895	-9.551930	0.738854	-0.472221	0.353280	0.022931	0.000705	0.023072
477	2.384303	0.005000	0.851420	2.028620	-9.513870	0.738631	-0.473002	0.353529	0.028105	-0.001511	0.013752
478	2.389303	0.005000	0.898980	1.812120	-9.542400	0.738408	-0.473782	0.353778	0.047709	-0.001811	0.017520
479	2.394303	0.005000	0.865610	1.882355	-9.534155	0.738185	-0.474562	0.354027	0.026378	-0.001118	0.025534
480	2.399303	0.005000	0.903760	1.920281	-9.534080	0.737962	-0.475342	0.354276	0.037813	-0.003168	0.014334
481	2.404303	0.005000	0.945404	2.001240	-9.528032	0.737739	-0.476122	0.354525	0.018966	0.000024	0.015912
482	2.409303	0.005000	0.863280	2.007288	-9.541368	0.737516	-0.476903	0.354774	0.007128	-0.004956	0.010922
483	2.414303	0.005000	0.919446	1.978926	-9.566097	0.737303	-0.477582	0.354955	-0.008864	-0.001454	0.009223
484	2.419303	0.005000	0.885020	1.990370	-9.524450	0.737191	-0.477247	0.354457	-0.016528	-0.006343	0.001131
485	2.424303	0.005000	0.824040	1.975584	-9.496080	0.737080	-0.476913	0.353959	-0.027951	-0.011144	0.008008
486	2.429303	0.005000	0.840014	1.969291	-9.597826	0.736968	-0.476578	0.353460	-0.037092	-0.014165	0.010380
487	2.434303	0.005000	0.902520	2.043021	-9.592909	0.736857	-0.476243	0.352962	-0.037758	-0.006160	0.009227
488	2.439303	0.005000	0.921021	2.077481	-9.613800	0.736746	-0.475909	0.352464	-0.040478	-0.002000	0.008501
489	2.444303	0.005000	0.886394	2.102834	-9.590686	0.736634	-0.475574	0.351966	-0.030192	-0.002514	-0.001432
490	2.449303	0.005000	0.851511	2.014976	-9.613800	0.736523	-0.475240	0.351468	-0.027559	-0.002396	0.011932
491	2.454303	0.005000	0.930399	2.040480	-9.574560	0.736411	-0.474905	0.350970	-0.022831	0.005931	0.002824
492	2.459303	0.005000	0.863280	2.019181	-9.583530	0.736300	-0.474571	0.350472	-0.000598	-0.003458	0.005707
493	2.464303	0.005000	0.902520	2.073125	-9.528725	0.736188	-0.474236	0.349974	0.008480	0.001169	0.005154
494	2.469303	0.005000	0.898725	1.993649	-9.499875	0.736077	-0.473902	0.349476	0.021893	-0.000389	-0.001250
495	2.474303	0.005000	0.941760	1.998484	-9.612422	0.735965	-0.473567	0.348978	0.037321	-0.000978	0.001366
496	2.479303	0.005000	0.827081	1.999213	-9.574560	0.735854	-0.473232	0.348480	0.054773	0.005460	-0.003640
497	2.484303	0.005000	0.938356	1.926164	-9.610396	0.736057	-0.473213	0.348509	0.055563	-0.008174	-0.010641
498	2.489303	0.005000	0.863280	1.861616	-9.456840	0.736392	-0.473324	0.348758	0.064724	0.000959	-0.009684
499	2.494303	0.005000	0.894351	1.922760	-9.518983	0.736726	-0.473436	0.349007	0.069700	-0.004704	-0.002350
500	2.499303	0.005000	1.020240	1.933304	-9.574560	0.737061	-0.473547	0.349256	0.070733	-0.003449	-0.005617
501	2.504303	0.005000	0.863280	1.935835	-9.600710	0.737395	-0.473659	0.349505	0.056127	-0.005548	-0.009902
502	2.509303	0.005000	0.911143	1.835657	-9.543943	0.737730	-0.473770	0.349754	0.052222	-0.004063	-0.003412
503	2.514303	0.005000	0.841724	1.787356	-9.613800	0.738064	-0.473882	0.350003	0.039685	0.000278	-0.000937
504	2.519303	0.005000	0.864188	1.865261	-9.476006	0.738399	-0.473994	0.350252	0.037976	-0.003809	0.000583
505	2.524303	0.005000	0.908721	1.788520	-9.653040	0.738734	-0.474105	0.350501	0.032258	0.004723	-0.006080
506	2.529303	0.005000	0.838150	1.844280	-9.627910	0.739068	-0.474217	0.350751	0.025219	-0.001641	-0.009331
507	2.534303	0.005000	0.874977	1.922760	-9.602103	0.739403	-0.474328	0.351000	0.019344	-0.010736	0.006067
508	2.539303	0.005000	0.842619	1.862859	-9.731520	0.739737	-0.474440	0.351249	0.007978	-0.005831	-0.009222
509	2.544303	0.005000	0.934886	1.922760	-9.659914	0.740072	-0.474551	0.351498	0.006504	-0.008996	-0.001450
510	2.549303	0.005000	0.937343	1.848697	-9.578977	0.740192	-0.474484	0.351667	0.002537	0.006570	0.001539
511	2.554303	0.005000	0.822013	1.803013	-9.500134	0.739857	-0.474038	0.351667	0.012913	-0.002528	-0.004624
512	2.559303	0.005000	0.823688	1.843576	-9.613448	0.739523	-0.473592	0.351667	0.016468	0.009535	-0.007510
513	2.564303	0.005000	0.753870	1.732100	-9.501620	0.739189	-0.473147	0.351667	0.021994	-0.000178	-0.006542
514	2.569303	0.005000	0.789975	1.799865	-9.676755	0.738854	-0.472701	0.351667	0.018514	-0.001681	0.000226
515	2.574303	0.005000	0.840507	1.946818	-9.613800	0.738520	-0.472255	0.351667	0.016051	0.008100	-0.007440
516	2.579303	0.005000	0.834387	1.883520	-9.556014	0.738185	-0.471809	0.351667	0.045422	-0.001864	0.000761
517	2.584303	0.005000	0.850558	1.765800	-9.574560	0.737851	-0.471363	0.351667	0.036202	-0.001275	-0.005494
518	2.589303	0.005000	0.815024	1.726560	-9.574560	0.737517	-0.470917	0.351667	0.045370	0.007005	0.006359
519	2.594303	0.005000	0.924273	1.787553	-9.557073	0.737182	-0.470472	0.351667	0.039767	-0.000916	0.004447
520	2.599303	0.005000	0.921898	1.824418	-9.613316	0.736848	-0.470026	0.351667	0.039448	0.003155	-0.001074
521	2.604303	0.005000	0.958488	1.749072	-9.653040	0.736513	-0.469580	0.351667	0.043461	0.003744	0.006890
522	2.609303	0.005000	0.991610	1.662395	-9.588875	0.736179	-0.469134	0.351667	0.033319	-0.006102	0.005701
523	2.614303	0.005000	0.996427	1.687320	-9.653040	0.735845	-0.468688	0.351667	0.035908	-0.004617	0.011612
524	2.619303	0.005000	0.990492	1.676557	-9.584052	0.735821	-0.468450	0.351898	0.027932	0.007887	0.012681
525	2.624303	0.005000	0.934674	1.805040	-9.678108	0.735821	-0.468227	0.352147	0.037902	0.006028	0.005232
526	2.629303	0.005000	1.010901	1.770470	-9.657710	0.735821	-0.468004	0.352396	0.053563	-0.007934	-0.002298
527	2.634303	0.005000	0.902520	1.650345	-9.576825	0.735821	-0.467781	0.352646	0.057413	-0.001514	-0.004324
528	2.639303	0.005000	0.902520	1.726409	-9.574711	0.735821	-0.467558	0.352895	0.062140	0.004796	0.001833
529	2.644303	0.005000	0.939203	1.611397	-9.689723	0.735821	-0.467335	0.353144	0.057717	0.008929	0.000192
530	2.649303	0.005000	0.912468	1.653054	-9.608826	0.735821	-0.467112	0.353393	0.049671	0.003580	-0.006969
531	2.654303	0.005000	0.924659	1.662839	-9.606420	0.735821	-0.466889	0.353642	0.035789	-0.006076	0.007753
532	2.659303	0.005000	0.931965	1.638285	-9.545115	0.735821	-0.466666	0.353891	0.020406	0.002526	0.004990
533	2.664303	0.005000	0.863280	1.635878	-9.577193	0.735821	-0.466443	0.354140	-0.002335	-0.006090	0.007409
534	2.669303	0.005000	0.858673	1.721953	-9.599184	0.735821	-0.466220	0.354389	-0.033550	-0.002103	0.000947
535	2.674303	0.005000	0.924470	1.805040	-9.631090	0.735821	-0.465997	0.354638	-0.044106	0.001871	0.004327
536	2.679303	0.005000	0.980909	1.746225	-9.574469	0.735821	-0.465774	0.354887	-0.062704	0.007788	0.009004
537	2.684303	0.005000	0.924569	1.721702	-9.574560	0.735942	-0.465551	0.354932	-0.080345	0.010253	0.009262
538	2.689303	0.005000	0.912141	1.756179	-9.584181	0.736165	-0.465328	0.354808	-0.069349	-0.002920	0.006601
539	2.694303	0.005000	0.954195	1.844280	-9.560189	0.736388	-0.465105	0.354683	-0.054940	0.012435	0.003420
540	2.699303	0.005000	0.941760	1.815084	-9.536258	0.736611	-0.464882	0.354559	-0.050809	0.000302	0.003185
541	2.704303	0.005000	0.959137	1.844280	-9.574560	0.736834	-0.464659	0.354434	-0.023861	0.013481	0.004342
542	2.709303	0.005000	0.941760	1.893284	-9.574560	0.737058	-0.464435	0.354309	-0.001491	0.010453	-0.006052
543	2.714303	0.005000	0.934365	1.883520	-9.613800	0.737281	-0.464212	0.354185	0.020482	0.003377	-0.009590
544	2.719303	0.005000	0.863280	1.844341	-9.613922	0.737504	-0.463989	0.354060	0.036747	0.004738	-0.015747
545	2.724303	0.005000	0.900190	1.809699	-9.692280	0.737727	-0.463766	0.353936	0.051641	0.000995	-0.007347
546	2.729303	0.005000	0.902520	1.874111	-9.657745	0.737950	-0.463543	0.353811	0.054000	0.008106	-0.011578
547	2.734303	0.005000	0.870375	1.851375	-9.717331	0.738173	-0.463320	0.353687	0.060420	0.005594	-0.008478
548	2.739303	0.005000	0.911990	1.823979	-9.653040	0.738396	-0.463097	0.353562	0.064294	0.000457	-0.005800
549	2.744303	0.005000	0.851420	1.816900	-9.559039	0.738619	-0.462874	0.353438	0.056237	0.003542	-0.011887
550	2.749303	0.005000	0.852509	1.858515	-9.510315	0.738770	-0.462687	0.353432	0.047003	0.010270	0.004357
551	2.754303	0.005000	0.840665	1.759810	-9.568570	0.738548	-0.462687	0.354055	0.039273	0.003314	0.006561
552	2.759303	0.005000	0.784800	1.746570	-9.555330	0.738325	-0.462687	0.354677	0.029779	-0.004183	-0.002070
553	2.764303	0.005000	0.820000	1.791480	-9.613800	0.738102	-0.462687	0.355299	0.007026	0.005513	-0.003874
554	2.769303	0.005000	0.956948	1.813905	-9.613800	0.737879	-0.462687	0.355922	0.002691	0.007179	-0.003025
555	2.774303	0.005000	0.928976	1.818712	-9.548104	0.737656	-0.462687	0.356544	-0.017678	0.005939	0.012008
556	2.779303	0.005000	0.912896	1.796929	-9.603424	0.737433	-0.462687	0.357166	-0.026967	0.001281	0.006829
557	2.784303	0.005000	0.871241	1.813001	-9.512003	0.737210	-0.462687	0.357789	-0.035192	0.003551	0.004487
558	2.789303	0.005000	0.868835	1.838725	-9.490525	0.736987	-0.462687	0.358411	-0.040586	0.003172	0.006841
559	2.794303	0.005000	0.984139	1.850557	-9.508634	0.736764	-0.462687	0.359034	-0.040365	-0.002911	0.005036
560	2.799303	0.005000	0.980265	1.805040	-9.613065	0.736541	-0.462687	0.359656	-0.045204	-0.009010	0.015940
561	2.804303	0.005000	0.904184	1.729888	-9.612136	0.736318	-0.462687	0.360278	-0.029957	-0.008132	0.007237
562	2.809303	0.005000	0.937721	1.832163	-9.582638	0.736095	-0.462687	0.360901	-0.019504	-0.008745	0.017491
563	2.814303	0.005000	0.935331	1.850709	-9.705804	0.735873	-0.462687	0.361523	-0.009310	-0.002825	0.008514
564	2.819303	0.005000	0.941760	1.965598	-9.631621	0.734793	-0.464058	0.362528	0.010482	-0.005767	0.006917
565	2.824303	0.005000	1.059480	1.962000	-9.557970	0.733454	-0.465842	0.363649	0.033477	-0.007156	0.001477
566	2.829303	0.005000	0.969226	1.987507	-9.484306	0.732116	-0.467626	0.364770	0.041844	-0.006844	0.013160
567	2.834303	0.005000	1.004094	1.955052	-9.526122	0.730778	-0.469411	0.365890	0.045076	-0.016145	0.010079
568	2.839303	0.005000	1.040924	1.881392	-9.632356	0.729440	-0.471195	0.367011	0.050417	-0.016832	0.009086
569	2.844303	0.005000	1.001967	1.880826	-9.713247	0.728102	-0.472979	0.368132	0.058604	-0.020808	0.000494
570	2.849303	0.005000	0.996861	1.915243	-9.566216	0.726764	-0.474763	0.369252	0.056899	-0.006411	0.000699
571	2.854303	0.005000	1.033692	1.856615	-9.600348	0.725426	-0.476547	0.370373	0.059757	-0.010221	0.004446
572	2.859303	0.005000	1.070519	1.794001	-9.513243	0.724087	-0.478331	0.371494	0.048988	-0.006254	0.008656
573	2.864303	0.005000	1.011605	1.852915	-9.583195	0.722749	-0.480115	0.372614	0.037781	-0.004468	0.003736
574	2.869303	0.005000	0.987229	1.844280	-9.541549	0.721411	-0.481899	0.373735	0.026070	-0.014806	0.006132
575	2.874303	0.005000	1.016428	1.808852	-9.570748	0.720073	-0.483683	0.374856	0.016636	-0.015089	0.001807
576	2.879303	0.005000	0.902520	1.768583	-9.574560	0.718735	-0.485467	0.375976	0.007833	-0.018643	-0.001013
577	2.884303	0.005000	0.864290	1.844280	-9.612790	0.718423	-0.486139	0.376237	-0.002764	-0.014432	0.005136
578	2.889303	0.005000	0.863280	1.798212	-9.502908	0.719761	-0.485025	0.375117	0.008086	-0.006102	0.002376
579	2.894303	0.005000	0.935929	1.855942	-9.708196	0.721098	-0.483910	0.373997	0.010942	-0.008085	0.000578
580	2.899303	0.005000	0.941760	1.813647	-9.661647	0.722436	-0.482796	0.372877	0.012058	-0.005230	-0.003914
581	2.904303	0.005000	0.902520	1.765800	-9.574560	0.723773	-0.481681	0.371757	0.006951	-0.023233	0.006277
582	2.909303	0.005000	0.941760	1.714065	-9.678030	0.725111	-0.480567	0.370637	-0.004303	-0.013843	-0.013462
583	2.914303	0.005000	0.926013	1.765800	-9.645295	0.726448	-0.479452	0.369516	0.012564	-0.017101	-0.010432
584	2.919303	0.005000	0.863280	1.684355	-9.580490	0.727786	-0.478338	0.368396	0.016924	-0.013130	-0.008675
585	2.924303	0.005000	0.939975	1.623997	-9.595073	0.729123	-0.477223	0.367276	0.025507	-0.007937	-0.015052
586	2.929303	0.005000	0.902520	1.733125	-9.518983	0.730461	-0.476109	0.366156	0.017718	-0.013226	0.000662
587	2.934303	0.005000	0.941760	1.648080	-9.521358	0.731798	-0.474994	0.365036	0.001552	-0.014050	-0.007309
588	2.939303	0.005000	0.824040	1.714988	-9.609277	0.733136	-0.473880	0.363916	0.001674	-0.020278	-0.003799
589	2.944303	0.005000	0.890872	1.657277	-9.662237	0.734473	-0.472765	0.362796	-0.007903	-0.007436	0.005504
590	2.949303	0.005000	0.974193	1.719753	-9.731520	0.735811	-0.471650	0.361676	-0.021370	-0.004887	0.002725
591	2.954303	0.005000	0.863280	1.717695	-9.796703	0.734604	-0.472195	0.364138	-0.030142	-0.012888	0.000167
592	2.959303	0.005000	0.826097	1.693492	-9.615857	0.733377	-0.472753	0.366629	-0.046914	-0.005242	-0.016113
593	2.964303	0.005000	0.941087	1.688330	-9.653040	0.732151	-0.473310	0.369119	-0.055503	-0.008908	-0.012503
594	2.969303	0.005000	0.839924	1.723383	-9.649863	0.730924	-0.473868	0.371609	-0.069362	-0.012007	0.005356
595	2.974303	0.005000	0.919553	1.681768	-9.624903	0.729697	-0.474425	0.374100	-0.070241	-0.016994	0.003294
596	2.979303	0.005000	0.879164	1.757858	-9.535320	0.728471	-0.474983	0.376590	-0.067388	-0.006301	0.014333
597	2.984303	0.005000	0.861253	1.794723	-9.603483	0.727244	-0.475540	0.379080	-0.067227	-0.014846	0.004219
598	2.989303	0.005000	0.915227	1.870813	-9.509906	0.726018	-0.476098	0.381571	-0.072763	-0.011886	0.021398
599	2.994303	0.005000	0.941760	1.922760	-9.480816	0.724791	-0.476655	0.384061	-0.069333	-0.005810	0.008310
600	2.999303	0.005000	0.924084	1.844280	-9.539207	0.723564	-0.477213	0.386551	-0.066071	-0.014684	0.010614
601	3.004303	0.005000	0.863280	1.922760	-9.575494	0.722338	-0.477770	0.389042	-0.049739	-0.013932	0.010691
602	3.009303	0.005000	0.863280	1.906017	-9.496080	0.721111	-0.478328	0.391532	-0.043966	-0.007254	0.008519
603	3.014303	0.005000	0.863280	1.858439	-9.507002	0.719885	-0.478885	0.394022	-0.029210	-0.016445	0.008309
604	3.019303	0.005000	0.875202	1.958526	-9.574560	0.720013	-0.478291	0.393109	-0.020208	-0.010787	0.002284
605	3.024303	0.005000	0.921535	1.962000	-9.643532	0.721016	-0.476953	0.389996	0.001004	-0.017105	0.010102
606	3.029303	0.005000	0.948861	2.033379	-9.528219	0.722020	-0.475615	0.386883	0.006442	-0.010699	0.011613
607	3.034303	0.005000	1.010982	1.927389	-9.456840	0.723023	-0.474277	0.383770	0.027347	-0.004255	0.004090
608	3.039303	0.005000	0.904327	1.885327	-9.533513	0.724027	-0.472939	0.380657	0.031908	-0.005753	0.002378
609	3.044303	0.005000	0.902658	1.961862	-9.535182	0.725031	-0.471601	0.377544	0.040606	-0.004148	-0.008021
610	3.049303	0.005000	0.975917	1.956917	-9.572019	0.726034	-0.470263	0.374431	0.047932	-0.013446	0.006339
611	3.054303	0.005000	0.976055	1.966945	-9.613800	0.727038	-0.468925	0.371318	0.043371	-0.009691	0.006135
612	3.059303	0.005000	0.870641	1.883520	-9.574560	0.728041	-0.467587	0.368205	0.042434	-0.013173	0.005899
613	3.064303	0.005000	0.892584	1.922760	-9.633336	0.729045	-0.466249	0.365093	0.027795	-0.012634	0.009302
614	3.069303	0.005000	0.890338	1.856462	-9.574560	0.730048	-0.464911	0.361980	0.010311	-0.006864	0.004917
615	3.074303	0.005000	0.863280	1.888936	-9.613800	0.731052	-0.463573	0.358867	0.002516	-0.013153	0.009475
616	3.079303	0.005000	0.968460	1.966720	-9.657760	0.732056	-0.462234	0.355754	-0.002945	-0.008133	0.001852
617	3.084303	0.005000	0.863341	2.020830	-9.633450	0.732836	-0.461293	0.353499	-0.015226	-0.003933	-0.003971
618	3.089303	0.005000	0.863280	1.966810	-9.574560	0.732836	-0.461739	0.354246	-0.022035	-0.002399	0.004281
619	3.094303	0.005000	0.814449	1.868695	-9.613800	0.732836	-0.462185	0.354993	-0.016872	-0.008070	0.008854
620	3.099303	0.005000	0.902520	1.844280	-9.588901	0.732836	-0.462631	0.355739	-0.010583	-0.001852	0.012103
621	3.104303	0.005000	0.951820	1.912700	-9.535320	0.732836	-0.463076	0.356486	-0.018136	0.002551	0.001452
622	3.109303	0.005000	0.973315	1.962000	-9.589929	0.732836	-0.463522	0.357233	-0.004522	-0.005422	-0.000454
623	3.114303	0.005000	0.959822	2.006535	-9.524731	0.732836	-0.463968	0.357980	0.004778	-0.008010	0.003350
624	3.119303	0.005000	0.972241	1.959080	-9.532400	0.732836	-0.464414	0.358726	0.016293	-0.010969	0.004592
625	3.124303	0.005000	0.824040	2.001163	-9.574560	0.732836	-0.464860	0.359473	0.024506	-0.012113	0.008203
626	3.129303	0.005000	0.934817	1.962000	-9.648411	0.732836	-0.465306	0.360220	0.029678	-0.005370	-0.000027
627	3.134303	0.005000	0.902520	1.888209	-9.535320	0.732836	-0.465751	0.360967	0.053625	-0.012232	0.011400
628	3.139303	0.005000	0.909600	1.812120	-9.542400	0.732836	-0.466197	0.361714	0.053867	-0.011371	0.002304
629	3.144303	0.005000	0.913396	1.874065	-9.613800	0.732836	-0.466643	0.362460	0.051655	-0.009508	-0.001259
630	3.149303	0.005000	1.035821	1.871691	-9.637459	0.732836	-0.467089	0.363207	0.058379	-0.001451	0.004070
631	3.154303	0.005000	1.009439	1.751580	-9.599580	0.733300	-0.467071	0.362919	0.056209	-0.005729	-0.009441
632	3.159303	0.005000	0.941760	1.759749	-9.636445	0.733857	-0.466960	0.362421	0.047614	-0.007379	-0.001841
633	3.164303	0.005000	0.863280	1.745545	-9.673295	0.734415	-0.466848	0.361923	0.042577	-0.018662	-0.004032
634	3.169303	0.005000	0.809639	1.744440	-9.595920	0.734972	-0.466737	0.361425	0.041566	-0.017822	0.001965
635	3.174303	0.005000	0.893705	1.726560	-9.598588	0.735530	-0.466625	0.360927	0.021779	-0.012211	-0.003334
636	3.179303	0.005000	0.876395	1.687320	-9.626809	0.736087	-0.466514	0.360429	0.018421	-0.001004	-0.001833
637	3.184303	0.005000	0.852888	1.648080	-9.524928	0.736645	-0.466403	0.359931	0.010666	0.002531	0.003995
638	3.189303	0.005000	0.753537	1.600863	-9.535320	0.737202	-0.466291	0.359433	-0.005111	-0.002105	-0.001891
639	3.194303	0.005000	0.835181	1.732131	-9.658611	0.737760	-0.466180	0.358935	-0.003590	-0.002271	0.006799
640	3.199303	0.005000	0.981000	1.690474	-9.653040	0.738318	-0.466068	0.358437	-0.013088	-0.002508	-0.001587
641	3.204303	0.005000	0.941760	1.843530	-9.613050	0.738875	-0.465957	0.357939	-0.018244	-0.010476	0.013324
642	3.209303	0.005000	0.828987	1.729858	-9.574560	0.739433	-0.465845	0.357441	-0.019513	-0.005506	0.004666
643	3.214303	0.005000	0.675128	1.691344	-9.496080	0.739990	-0.465734	0.356943	-0.016941	-0.008251	0.003101
644	3.219303	0.005000	0.778386	1.765800	-9.620214	0.740299	-0.465672	0.356500	-0.028784	-0.006556	0.006504
645	3.224303	0.005000	0.784800	1.617629	-9.665913	0.740299	-0.465672	0.356127	-0.020571	-0.011148	-0.004796
646	3.229303	0.005000	0.784800	1.715381	-9.624979	0.740299	-0.465672	0.355753	-0.002932	-0.022663	0.011026
647	3.234303	0.005000	0.784800	1.765800	-9.639486	0.740299	-0.465672	0.355380	-0.014390	-0.013857	0.001503
648	3.239303	0.005000	0.925638	1.758803	-9.653040	0.740299	-0.465672	0.355006	0.002319	-0.013281	-0.002025
649	3.244303	0.005000	0.821867	1.705853	-9.673747	0.740299	-0.465672	0.354633	0.001934	-0.005396	0.000510
650	3.249303	0.005000	0.881576	1.747504	-9.595504	0.740299	-0.465672	0.354259	0.004702	-0.008111	-0.001339
651	3.254303	0.005000	0.925874	1.789154	-9.606332	0.740299	-0.465672	0.353885	0.011424	-0.003264	-0.004264
652	3.259303	0.005000	0.824040	1.753506	-9.588033	0.740299	-0.465672	0.353512	0.016072	-0.009618	0.000091
653	3.264303	0.005000	0.824040	1.759755	-9.535320	0.740299	-0.465672	0.353138	0.003652	-0.006354	0.000169
654	3.269303	0.005000	0.745560	1.861581	-9.513381	0.740299	-0.465672	0.352765	-0.014362	-0.005465	0.000249
655	3.274303	0.005000	0.850792	1.844280	-9.613800	0.740299	-0.465672	0.352391	-0.017037	-0.003846	-0.000353
656	3.279303	0.005000	0.835523	1.844280	-9.578388	0.740299	-0.465672	0.352018	-0.025547	-0.015541	-0.004172
657	3.284303	0.005000	0.901097	1.842857	-9.654463	0.740279	-0.465699	0.351690	-0.032996	-0.011946	-0.002578
658	3.289303	0.005000	0.863280	1.843297	-9.615767	0.739944	-0.466145	0.352063	-0.036253	-0.011506	-0.005391
659	3.294303	0.005000	0.977642	1.847638	-9.463556	0.739609	-0.466591	0.352437	-0.032113	-0.004210	-0.000028
660	3.299303	0.005000	0.896772	1.693068	-9.602303	0.739275	-0.467037	0.352811	-0.020339	-0.002309	-0.007001
661	3.304303	0.005000	0.949883	1.742807	-9.574560	0.738940	-0.467483	0.353184	-0.022443	-0.009328	0.008011
662	3.309303	0.005000	0.913033	1.823253	-9.603287	0.738606	-0.467929	0.353558	-0.016736	-0.010847	-0.000495
663	3.314303	0.005000	1.099295	1.896983	-9.548208	0.738271	-0.468375	0.353931	-0.002394	-0.005180	0.006720
664	3.319303	0.005000	1.020240	1.881386	-9.629069	0.737937	-0.468821	0.354305	-0.005941	-0.012047	0.004398
665	3.324303	0.005000	0.945693	1.808973	-9.517667	0.737602	-0.469267	0.354678	0.001690	-0.014116	-0.000097
666	3.329303	0.005000	0.981000	1.785012	-9.574560	0.737268	-0.469713	0.355052	0.011208	-0.009799	0.011883
667	3.334303	0.005000	0.941760	1.816264	-9.591381	0.736933	-0.470160	0.355425	0.013809	-0.015014	0.007960
668	3.339303	0.005000	0.916667	1.794093	-9.549467	0.736598	-0.470606	0.355799	0.021976	-0.018014	0.011705
669	3.344303	0.005000	0.925997	1.848305	-9.574560	0.736264	-0.471052	0.356172	0.015615	-0.018494	0.003978
670	3.349303	0.005000	1.010916	1.705968	-9.555912	0.735929	-0.471498	0.356546	0.027888	-0.025232	0.010666
671	3.354303	0.005000	0.909438	1.719642	-9.521485	0.735821	-0.471567	0.356751	0.012417	-0.011095	0.006775
672	3.359303	0.005000	0.937259	1.726560	-9.505082	0.735821	-0.471455	0.356876	0.005721	-0.010832	0.003262
673	3.364303	0.005000	0.824040	1.765800	-9.613800	0.735821	-0.471343	0.357000	-0.001023	-0.014633	0.006081
674	3.369303	0.005000	0.824040	1.765800	-9.613800	0.735821	-0.471232	0.357125	-0.002742	-0.010119	0.003439
675	3.374303	0.005000	0.941760	1.768493	-9.619185	0.735821	-0.471120	0.357249	-0.013324	-0.020939	0.015689
676	3.379303	0.005000	0.863280	1.794875	-9.613800	0.735821	-0.471009	0.357374	-0.019022	-0.014457	0.005973
677	3.384303	0.005000	0.902520	1.773258	-9.628715	0.735821	-0.470897	0.357498	-0.025486	-0.011949	0.005721
678	3.389303	0.005000	0.804496	1.795343	-9.584408	0.735821	-0.470786	0.357622	-0.031308	-0.014618	-0.001626
679	3.394303	0.005000	0.811817	1.883520	-9.680057	0.735821	-0.470674	0.357747	-0.028407	-0.013642	-0.004993
680	3.399303	0.005000	0.863280	1.829667	-9.589173	0.735821	-0.470563	0.357871	-0.026069	-0.005088	0.002894
681	3.404303	0.005000	0.885327	1.748607	-9.540173	0.735821	-0.470451	0.357996	-0.022693	-0.004833	-0.000200
682	3.409303	0.005000	0.882923	1.824729	-9.496080	0.735821	-0.470340	0.358120	-0.024066	-0.011083	0.000157
683	3.414303	0.005000	0.892970	1.922760	-9.461615	0.735821	-0.470228	0.358245	-0.025467	-0.001321	-0.014397
684	3.419303	0.005000	0.912119	1.868700	-9.520500	0.735853	-0.470149	0.358188	-0.030949	-0.008247	-0.001921
685	3.424303	0.005000	0.784800	1.778212	-9.599383	0.735965	-0.470149	0.357690	-0.033151	-0.001629	0.000855
686	3.429303	0.005000	0.736313	1.902765	-9.643042	0.736077	-0.470149	0.357191	-0.036331	-0.006327	-0.001285
687	3.434303	0.005000	0.792303	1.891023	-9.542823	0.736188	-0.470149	0.356693	-0.036450	-0.005679	0.004421
688	3.439303	0.005000	0.878619	1.917647	-9.535320	0.736300	-0.470149	0.356195	-0.043178	0.002666	0.010724
689	3.444303	0.005000	1.017502	1.962000	-9.456840	0.736411	-0.470149	0.355697	-0.035359	0.002356	0.011018
690	3.449303	0.005000	0.902520	1.882824	-9.496428	0.736523	-0.470149	0.355198	-0.037084	0.001389	0.010820
691	3.454303	0.005000	0.902520	1.842228	-9.609697	0.736634	-0.470149	0.354700	-0.042173	-0.002303	0.001574
692	3.459303	0.005000	0.858811	1.839811	-9.579029	0.736746	-0.470149	0.354202	-0.018424	-0.001797	0.006828
693	3.464303	0.005000	0.863280	1.844280	-9.542194	0.736857	-0.470149	0.353704	-0.029781	-0.001528	0.009316
694	3.469303	0.005000	0.833330	1.932050	-9.583850	0.736969	-0.470149	0.353205	-0.021088	0.001614	0.007153
695	3.474303	0.005000	0.812343	1.911063	-9.480234	0.737080	-0.470149	0.352707	-0.010406	0.003568	0.013388
696	3.479303	0.005000	0.952779	1.987130	-9.496080	0.737192	-0.470149	0.352209	-0.016474	-0.001128	0.004581
697	3.484303	0.005000	0.947961	2.001240	-9.512600	0.737303	-0.470149	0.351711	-0.008659	-0.013133	0.012990
698	3.489303	0.005000	0.882211	2.020171	-9.555629	0.737110	-0.469946	0.351326	-0.001983	-0.011893	0.003382
699	3.494303	0.005000	0.806356	1.926633	-9.556876	0.736887	-0.469723	0.350953	-0.009975	-0.008820	0.005401
700	3.499303	0.005000	0.776177	1.985931	-9.565937	0.736664	-0.469500	0.350579	-0.008410	-0.005576	0.000606
701	3.504303	0.005000	0.811106	2.040480	-9.600866	0.736440	-0.469276	0.350206	-0.003755	0.000855	0.012109
702	3.509303	0.005000	0.787735	2.079720	-9.592713	0.736217	-0.469053	0.349832	-0.002249	-0.002140	0.014784
703	3.514303	0.005000	0.965414	2.001240	-9.527527	0.735994	-0.468830	0.349458	0.002503	-0.005912	0.002985
704	3.519303	0.005000	0.863280	2.001240	-9.624574	0.735771	-0.468607	0.349085	-0.008866	-0.012937	0.016865
705	3.524303	0.005000	0.981000	2.043450	-9.647100	0.735548	-0.468384	0.348711	-0.002332	0.005191	0.007044
706	3.529303	0.005000	0.942326	2.079154	-9.535886	0.735325	-0.468161	0.348338	0.005745	-0.005353	0.012755
707	3.534303	0.005000	0.981000	2.003070	-9.574560	0.735102	-0.467938	0.347964	0.014766	-0.003260	0.014495
708	3.539303	0.005000	1.020240	2.114755	-9.609595	0.734879	-0.467715	0.347591	0.014719	-0.013084	0.014502
709	3.544303	0.005000	0.804818	2.098942	-9.574560	0.734656	-0.467492	0.347217	0.033256	-0.011923	0.023510
710	3.549303	0.005000	0.793770	2.040480	-9.535320	0.734433	-0.467269	0.346844	0.033464	-0.008333	0.008613
711	3.554303	0.005000	0.930399	2.012601	-9.535320	0.734446	-0.467164	0.346930	0.043532	-0.007538	0.016934
712	3.559303	0.005000	0.941760	2.054216	-9.549056	0.734669	-0.467164	0.347428	0.041703	-0.002443	0.005867
713	3.564303	0.005000	0.817051	1.899646	-9.512206	0.734892	-0.467164	0.347926	0.055999	-0.009979	0.014434
714	3.569303	0.005000	0.865519	1.964239	-9.576799	0.735115	-0.467164	0.348424	0.057513	-0.009854	0.016161
715	3.574303	0.005000	0.920869	1.985432	-9.632149	0.735338	-0.467164	0.348922	0.057807	-0.000386	0.014123
716	3.579303	0.005000	0.800493	1.938453	-9.613800	0.735561	-0.467164	0.349420	0.054199	-0.005078	0.019410
717	3.584303	0.005000	0.902520	1.922148	-9.587844	0.735784	-0.467164	0.349918	0.053628	-0.001724	0.004600
718	3.589303	0.005000	0.981000	1.855150	-9.546190	0.736007	-0.467164	0.350416	0.051695	0.000229	0.000649
719	3.594303	0.005000	0.885587	1.866587	-9.583027	0.736230	-0.467164	0.350914	0.050320	0.011058	0.012624
720	3.599303	0.005000	0.848282	1.889580	-9.580620	0.736453	-0.467164	0.351412	0.045125	-0.001712	-0.004587
721	3.604303	0.005000	0.898876	1.836992	-9.653040	0.736676	-0.467164	0.351910	0.036071	-0.004372	0.007138
722	3.609303	0.005000	0.863280	1.883520	-9.536560	0.736899	-0.467164	0.352408	0.029660	-0.000294	0.002177
723	3.614303	0.005000	0.863280	1.883520	-9.574560	0.737122	-0.467164	0.352906	0.027498	-0.000226	0.002254
724	3.619303	0.005000	0.898980	1.887060	-9.499620	0.737329	-0.467148	0.353333	0.010272	0.006263	0.008555
725	3.624303	0.005000	0.908450	1.910900	-9.568630	0.737440	-0.467037	0.353333	0.008485	-0.008685	-0.002340
726	3.629303	0.005000	0.863280	1.844280	-9.653040	0.737552	-0.466925	0.353333	-0.005533	-0.008273	0.004945
727	3.634303	0.005000	0.988155	1.747950	-9.592410	0.737664	-0.466814	0.353333	-0.011762	-0.004209	-0.002191
728	3.639303	0.005000	1.020240	1.817824	-9.535320	0.737775	-0.466702	0.353333	0.002334	-0.004297	-0.003927
729	3.644303	0.005000	0.957401	1.867879	-9.535320	0.737887	-0.466591	0.353333	-0.005356	-0.000681	-0.001879
730	3.649303	0.005000	1.041429	1.783851	-9.613800	0.737998	-0.466479	0.353333	0.005570	-0.006681	-0.000500
731	3.654303	0.005000	1.040702	1.787945	-9.574560	0.738110	-0.466368	0.353333	0.015541	-0.004644	-0.004847
732	3.659303	0.005000	0.863280	1.749433	-9.564700	0.738221	-0.466256	0.353333	0.014328	-0.005276	-0.004290
733	3.664303	0.005000	0.955717	1.793715	-9.560603	0.738333	-0.466145	0.353333	0.021514	0.000394	0.001398
734	3.669303	0.005000	0.902520	1.765800	-9.507624	0.738444	-0.466033	0.353333	0.032457	-0.000448	-0.009203
735	3.674303	0.005000	0.950791	1.756769	-9.541235	0.738556	-0.465922	0.353333	0.034191	-0.010964	0.000099
736	3.679303	0.005000	0.948401	1.693961	-9.620441	0.738667	-0.465811	0.353333	0.034639	-0.005187	0.001157
737	3.684303	0.005000	0.898254	1.652346	-9.648774	0.738779	-0.465699	0.353333	0.036500	-0.012159	-0.003502
738	3.689303	0.005000	0.861389	1.726560	-9.615691	0.738553	-0.465841	0.353239	0.028247	0.002391	0.016535
739	3.694303	0.005000	0.824040	1.687825	-9.614305	0.738218	-0.466064	0.353114	0.016944	-0.001043	0.004452
740	3.699303	0.005000	0.826949	1.796313	-9.574560	0.737884	-0.466287	0.352990	0.015380	-0.008618	0.016311
741	3.704303	0.005000	0.795452	1.687320	-9.619126	0.737549	-0.466510	0.352865	0.001890	-0.016407	0.000497
742	3.709303	0.005000	0.878743	1.844862	-9.535320	0.737214	-0.466733	0.352741	-0.004032	-0.012828	0.001832
743	3.714303	0.005000	0.941760	1.765800	-9.554267	0.736880	-0.466956	0.352616	-0.016769	-0.015223	0.003600
744	3.719303	0.005000	0.900943	1.779931	-9.627931	0.736545	-0.467179	0.352492	-0.033099	-0.014082	0.015014
745	3.724303	0.005000	0.809072	1.829312	-9.574560	0.736211	-0.467402	0.352367	-0.037586	-0.010121	0.012612
746	3.729303	0.005000	0.963623	1.883520	-9.574560	0.735876	-0.467625	0.352243	-0.043460	-0.005023	0.002437
747	3.734303	0.005000	0.981000	1.785252	-9.554772	0.735542	-0.467848	0.352119	-0.035092	-0.015575	0.011009
748	3.739303	0.005000	0.908087	1.760233	-9.535320	0.735207	-0.468071	0.351994	-0.043223	-0.008581	0.015033
749	3.744303	0.005000	0.873597	1.765800	-9.589022	0.734873	-0.468294	0.351870	-0.025617	-0.012652	-0.004192
750	3.749303	0.005000	0.848183	1.802015	-9.680208	0.734538	-0.468517	0.351745	-0.013332	-0.020095	0.010476
751	3.754303	0.005000	0.892823	1.795343	-9.653040	0.733830	-0.469238	0.352780	-0.008298	-0.020464	0.015658
752	3.759303	0.005000	0.806719	1.858893	-9.692280	0.732492	-0.470799	0.355768	0.008590	-0.015716	0.015872
753	3.764303	0.005000	0.828971	1.917829	-9.682417	0.731154	-0.472360	0.358757	0.019848	-0.014906	0.012152
754	3.769303	0.005000	0.789883	1.880979	-9.613800	0.729816	-0.473922	0.361745	0.022252	-0.013938	0.016732
755	3.774303	0.005000	0.902853	1.844280	-9.496246	0.728477	-0.475483	0.364734	0.020661	-0.007908	0.015464
756	3.779303	0.005000	0.981000	1.844280	-9.498758	0.727139	-0.477044	0.367722	0.028291	-0.003277	0.009529
757	3.784303	0.005000	0.833345	1.952695	-9.574560	0.725801	-0.478605	0.370710	0.024731	-0.008407	0.015788
758	3.789303	0.005000	0.863280	1.898405	-9.550205	0.724463	-0.480166	0.373699	0.006595	-0.003722	0.010515
759	3.794303	0.005000	0.922155	1.765800	-9.525502	0.723125	-0.481727	0.376687	0.010437	-0.011688	0.022697
760	3.799303	0.005000	0.956585	1.886137	-9.586768	0.721787	-0.483288	0.379676	-0.004222	-0.005926	0.010510
761	3.804303	0.005000	0.927177	1.908177	-9.623875	0.720449	-0.484849	0.382664	0.001093	-0.003462	0.014392
762	3.809303	0.005000	0.947055	1.900493	-9.670013	0.719111	-0.486410	0.385653	-0.003531	-0.015647	0.017385
763	3.814303	0.005000	0.941760	1.922760	-9.652495	0.717773	-0.487971	0.388641	-0.007986	-0.009895	0.008344
764	3.819303	0.005000	0.867516	1.887756	-9.470107	0.716435	-0.489532	0.391629	-0.002731	-0.009390	0.021010
765	3.824303	0.005000	0.839167	1.805040	-9.520193	0.717189	-0.488561	0.390315	-0.005861	-0.005409	0.002996
766	3.829303	0.005000	0.850543	1.908994	-9.613800	0.717969	-0.487558	0.388945	0.004586	-0.009197	0.019858
767	3.834303	0.005000	0.843254	1.932773	-9.613800	0.718750	-0.486554	0.387575	0.005341	-0.003508	0.016419
768	3.839303	0.005000	0.902520	1.922760	-9.574560	0.719530	-0.485550	0.386205	0.013022	-0.007379	0.003438
769	3.844303	0.005000	0.936570	1.878330	-9.618990	0.720311	-0.484547	0.384836	0.014697	-0.010331	0.012863
770	3.849303	0.005000	0.902520	1.844280	-9.574560	0.721092	-0.483543	0.383466	0.019320	-0.003047	0.014270
771	3.854303	0.005000	0.941760	2.001240	-9.575295	0.721872	-0.482540	0.382096	0.022833	-0.009072	0.010051
772	3.859303	0.005000	1.016216	1.926784	-9.615812	0.722653	-0.481536	0.380726	0.014236	-0.006269	0.012828
773	3.864303	0.005000	0.911427	1.918306	-9.535320	0.723433	-0.480533	0.379357	0.024904	-0.007398	0.001947
774	3.869303	0.005000	0.922851	1.876743	-9.671949	0.724214	-0.479529	0.377987	0.037363	-0.005370	0.012637
775	3.874303	0.005000	0.978368	1.874368	-9.671344	0.724994	-0.478525	0.376617	0.033058	-0.000873	0.003523
776	3.879303	0.005000	0.953302	1.805040	-9.629956	0.725775	-0.477522	0.375248	0.041102	-0.010229	0.003112
777	3.884303	0.005000	0.913589	1.866419	-9.510165	0.726555	-0.476518	0.373878	0.043613	0.004132	0.001684
778	3.889303	0.005000	0.970746	1.867022	-9.525066	0.727067	-0.475783	0.372733	0.038026	0.000177	0.001060
779	3.894303	0.005000	0.981000	1.805040	-9.554228	0.727402	-0.475226	0.371737	0.040697	-0.003100	0.007460
780	3.899303	0.005000	0.824040	1.787119	-9.574560	0.727736	-0.474668	0.370741	0.037574	-0.005020	0.003670
781	3.904303	0.005000	0.965676	1.772532	-9.613800	0.728071	-0.474111	0.369745	0.033287	-0.006976	0.006161
782	3.909303	0.005000	0.941760	1.857622	-9.574560	0.728405	-0.473553	0.368749	0.022617	-0.005081	-0.003577
783	3.914303	0.005000	0.970441	1.747678	-9.517198	0.728740	-0.472996	0.367753	0.016127	-0.014816	-0.005658
784	3.919303	0.005000	0.925392	1.749432	-9.613800	0.729074	-0.472438	0.366756	0.010267	-0.007428	-0.006807
785	3.924303	0.005000	0.930173	1.765800	-9.574560	0.729409	-0.471881	0.365760	-0.001840	-0.005472	-0.005317
786	3.929303	0.005000	0.902520	1.772638	-9.574560	0.729743	-0.471323	0.364764	-0.004882	-0.010906	0.008788
787	3.934303	0.005000	0.865337	1.805040	-9.573531	0.730078	-0.470766	0.363768	-0.007263	-0.004468	0.002318
788	3.939303	0.005000	0.979185	1.879889	-9.535320	0.730412	-0.470208	0.362772	-0.009297	-0.014583	0.004368
789	3.944303	0.005000	0.906710	1.852660	-9.531130	0.730747	-0.469651	0.361776	-0.005012	-0.015816	-0.000126
790	3.949303	0.005000	0.830620	1.818201	-9.607220	0.731081	-0.469093	0.360780	-0.007919	-0.014692	0.002975
791	3.954303	0.005000	0.884609	1.787129	-9.565605	0.731391	-0.468633	0.359892	-0.019970	-0.012270	0.014244
792	3.959303	0.005000	0.874610	1.805040	-9.630379	0.731614	-0.468521	0.359394	-0.013509	-0.005576	0.000572
793	3.964303	0.005000	0.888800	1.805040	-9.588280	0.731837	-0.468410	0.358896	-0.002329	-0.005163	0.013894
794	3.969303	0.005000	0.941760	1.765800	-9.613800	0.732060	-0.468298	0.358398	-0.002366	-0.004811	0.002920
795	3.974303	0.005000	0.941760	1.763963	-9.613800	0.732283	-0.468187	0.357899	-0.009565	-0.016830	0.002555
796	3.979303	0.005000	0.905505	1.823167	-9.517193	0.732506	-0.468075	0.357401	-0.009234	-0.005468	0.010405
797	3.984303	0.005000	0.902520	1.859997	-9.574560	0.732730	-0.467964	0.356903	-0.005970	-0.015912	0.004888
798	3.989303	0.005000	0.824040	1.896825	-9.600495	0.732953	-0.467852	0.356405	-0.000766	-0.012867	0.010507
799	3.994303	0.005000	0.930863	1.890070	-9.585457	0.733176	-0.467740	0.355907	0.002736	-0.009761	0.005347
800	3.999303	0.005000	0.871762	1.813522	-9.605318	0.733399	-0.467629	0.355409	0.015657	-0.021895	0.008391
801	4.004303	0.005000	0.857204	1.856432	-9.574560	0.733622	-0.467517	0.354911	0.011537	-0.013137	0.003985
802	4.009303	0.005000	0.973682	1.879861	-9.464158	0.733845	-0.467406	0.354413	0.012757	-0.010996	0.013859
803	4.014303	0.005000	0.941760	1.881010	-9.574560	0.734068	-0.467294	0.353915	0.007198	-0.011114	0.012557
804	4.019303	0.005000	0.979850	1.881221	-9.536470	0.734291	-0.467183	0.353417	-0.002891	-0.010035	-0.000882
805	4.024303	0.005000	1.020240	1.876471	-9.571035	0.734421	-0.467350	0.353333	-0.009201	-0.015642	0.011410
806	4.029303	0.005000	0.796629	1.816869	-9.607885	0.734532	-0.467573	0.353333	-0.008576	-0.013055	0.006479
807	4.034303	0.005000	0.807461	1.883520	-9.698361	0.734644	-0.467796	0.353333	-0.017825	-0.004770	0.004523
808	4.039303	0.005000	0.763440	1.815720	-9.702960	0.734755	-0.468019	0.353333	-0.022102	-0.004062	0.004150
809	4.044303	0.005000	0.863280	1.778855	-9.482950	0.734867	-0.468242	0.353333	-0.027195	-0.008179	0.006443
810	4.049303	0.005000	0.918136	1.757793	-9.441224	0.734979	-0.468465	0.353333	-0.021316	-0.010177	0.021868
811	4.054303	0.005000	0.824040	1.805040	-9.553348	0.735090	-0.468688	0.353333	-0.026414	-0.007143	0.006086
812	4.059303	0.005000	0.783162	1.745361	-9.475641	0.735202	-0.468911	0.353333	-0.025962	-0.014870	-0.004221
813	4.064303	0.005000	0.902520	1.867129	-9.574560	0.735313	-0.469134	0.353333	-0.019192	-0.011360	0.004276
814	4.069303	0.005000	0.981000	1.872236	-9.639062	0.735425	-0.469357	0.353333	-0.014366	-0.015493	0.009417
815	4.074303	0.005000	0.953196	1.872084	-9.523884	0.735536	-0.469580	0.353333	-0.005202	-0.013375	0.023704
816	4.079303	0.005000	0.884428	1.874474	-9.505126	0.735648	-0.469803	0.353333	0.007614	-0.013687	0.012651
817	4.084303	0.005000	0.895849	1.883520	-9.541991	0.735759	-0.470026	0.353333	0.010205	-0.012367	0.014386
818	4.089303	0.005000	0.854718	1.844280	-9.648759	0.735821	-0.470099	0.353277	0.009161	-0.007662	0.001763
819	4.094303	0.005000	0.747466	1.885426	-9.537226	0.735821	-0.469988	0.353153	0.020853	-0.008673	-0.002586
820	4.099303	0.005000	0.862301	1.884010	-9.613310	0.735821	-0.469876	0.353028	0.014464	-0.015097	0.006250
821	4.104303	0.005000	0.857493	1.886414	-9.610906	0.735821	-0.469765	0.352904	0.021570	-0.008026	-0.010322
822	4.109303	0.005000	0.868591	1.849591	-9.579871	0.735821	-0.469653	0.352779	0.018182	-0.006390	0.013217
823	4.114303	0.005000	0.870996	1.883520	-9.574560	0.735821	-0.469542	0.352655	0.019291	-0.012474	0.015517
824	4.119303	0.005000	0.853149	1.854411	-9.535320	0.735821	-0.469430	0.352531	0.011942	-0.005481	0.004234
825	4.124303	0.005000	0.941760	1.805040	-9.561036	0.735821	-0.469319	0.352406	0.006440	0.002085	0.006398
826	4.129303	0.005000	0.824040	1.931534	-9.487306	0.735821	-0.469207	0.352282	-0.008485	-0.013212	0.005515
827	4.134303	0.005000	0.841663	1.901143	-9.539314	0.735821	-0.469096	0.352157	0.003102	-0.011027	0.013563
828	4.139303	0.005000	0.921005	1.785042	-9.614556	0.735821	-0.468984	0.352033	-0.002729	-0.008129	-0.002781
829	4.144303	0.005000	0.964133	1.861147	-9.596933	0.735821	-0.468873	0.351908	0.006564	-0.009144	0.004667
830	4.149303	0.005000	0.966813	1.908573	-9.588747	0.735821	-0.468762	0.351784	0.007758	-0.011686	-0.000679
831	4.154303	0.005000	0.918213	1.879601	-9.680506	0.735828	-0.468678	0.351729	0.009710	-0.008908	0.002545
832	4.159303	0.005000	0.941760	1.874154	-9.701646	0.735939	-0.469012	0.352725	0.015773	-0.005867	0.005128
833	4.164303	0.005000	0.934809	1.922760	-9.653040	0.736051	-0.469347	0.353721	0.026045	-0.010282	-0.001648
834	4.169303	0.005000	0.976455	1.962000	-9.648495	0.736162	-0.469681	0.354717	0.026926	-0.009701	0.015954
835	4.174303	0.005000	0.937504	1.957744	-9.576688	0.736274	-0.470016	0.355713	0.029434	-0.002809	-0.001282
836	4.179303	0.005000	0.863280	1.883520	-9.613800	0.736385	-0.470350	0.356710	0.027122	-0.007392	0.005367
837	4.184303	0.005000	0.826702	1.962000	-9.611138	0.736497	-0.470685	0.357706	0.031619	-0.007704	0.003766
838	4.189303	0.005000	1.020240	1.922760	-9.574560	0.736608	-0.471019	0.358702	0.032677	-0.011300	-0.003355
839	4.194303	0.005000	0.909947	1.954573	-9.613800	0.736720	-0.471354	0.359698	0.019013	-0.009317	0.012859
840	4.199303	0.005000	0.931958	1.962000	-9.613800	0.736831	-0.471688	0.360694	0.022389	-0.011088	0.002916
841	4.204303	0.005000	0.875473	1.814570	-9.559705	0.736943	-0.472023	0.361690	0.018593	-0.008264	0.006216
842	4.209303	0.005000	0.912625	1.829712	-9.545425	0.737054	-0.472357	0.362686	0.011200	-0.007200	0.002022
843	4.214303	0.005000	0.941760	1.822196	-9.557404	0.737166	-0.472692	0.363682	0.004419	-0.009301	-0.004806
844	4.219303	0.005000	0.941867	1.844280	-9.594234	0.737277	-0.473026	0.364678	0.007313	-0.005628	0.005262
845	4.224303	0.005000	0.981000	1.809754	-9.670303	0.737238	-0.472681	0.364325	0.011484	-0.014972	-0.007197
846	4.229303	0.005000	0.917371	1.844280	-9.628651	0.737126	-0.472012	0.363329	0.000000	-0.012550	0.012504
847	4.234303	0.005000	0.929313	1.869174	-9.587007	0.737015	-0.471343	0.362333	-0.000682	-0.010947	0.005738
848	4.239303	0.005000	0.882441	1.902681	-9.632961	0.736903	-0.470674	0.361337	0.008963	-0.017308	0.012390
849	4.244303	0.005000	0.870904	1.829031	-9.542944	0.736792	-0.470005	0.360341	0.006175	-0.002826	0.011543
850	4.249303	0.005000	0.946918	1.731718	-9.613800	0.736680	-0.469336	0.359345	0.004118	-0.005465	0.003134
851	4.254303	0.005000	0.978232	1.883520	-9.459608	0.736569	-0.468667	0.358349	0.005463	-0.016168	0.008016
852	4.259303	0.005000	0.902913	1.805827	-9.535320	0.736457	-0.467998	0.357353	-0.001886	-0.014355	0.009336
853	4.264303	0.005000	0.867320	1.883520	-9.498100	0.736346	-0.467329	0.356357	0.005083	-0.017470	0.014367
854	4.269303	0.005000	0.932911	1.809465	-9.565711	0.736234	-0.466660	0.355360	0.005069	-0.016302	0.001910
855	4.274303	0.005000	0.895679	1.844280	-9.606959	0.736123	-0.465991	0.354364	0.013601	-0.014439	0.004679
856	4.279303	0.005000	0.962505	1.835033	-9.613800	0.736011	-0.465322	0.353368	0.019700	-0.017175	0.007258
857	4.284303	0.005000	0.902520	1.789124	-9.653040	0.735900	-0.464653	0.352372	0.012685	-0.012408	0.020922
858	4.289303	0.005000	0.941760	1.816140	-9.624900	0.735919	-0.464212	0.351594	0.020057	-0.022059	0.013270
859	4.294303	0.005000	0.857532	1.782546	-9.658289	0.736253	-0.464323	0.351345	0.020543	-0.014143	0.007842
860	4.299303	0.005000	0.864248	1.765800	-9.594664	0.736588	-0.464435	0.351096	0.009968	-0.018246	0.007905
861	4.304303	0.005000	0.859498	1.791093	-9.596071	0.736922	-0.464546	0.350847	0.016696	-0.011339	0.007197
862	4.309303	0.005000	0.926421	1.757238	-9.543882	0.737257	-0.464658	0.350598	0.019562	-0.018023	0.008941
863	4.314303	0.005000	0.928796	1.792076	-9.626764	0.737592	-0.464769	0.350349	0.018823	-0.030754	0.012179
864	4.319303	0.005000	0.920612	1.844280	-9.585134	0.737926	-0.464881	0.350100	0.004577	-0.022276	0.002823
865	4.324303	0.005000	0.855456	1.914936	-9.598153	0.738261	-0.464992	0.349851	0.005953	-0.019943	0.015337
866	4.329303	0.005000	0.813200	1.810460	-9.579980	0.738595	-0.465104	0.349602	0.001865	-0.014471	0.006026
867	4.334303	0.005000	0.830070	1.802025	-9.580590	0.738930	-0.465215	0.349352	0.001217	-0.014881	0.011177
868	4.339303	0.005000	0.903117	1.846071	-9.653637	0.739264	-0.465327	0.349103	-0.001394	-0.012375	0.020316
869	4.344303	0.005000	0.866850	1.887090	-9.654825	0.739599	-0.465439	0.348854	-0.009384	-0.007847	0.010069
870	4.349303	0.005000	0.898345	1.879345	-9.535320	0.739933	-0.465550	0.348605	-0.015585	-0.015978	0.020821
871	4.354303	0.005000	0.817411	1.909501	-9.607171	0.740268	-0.465662	0.348356	-0.011031	-0.007938	0.006622
872	4.359303	0.005000	0.893475	1.883520	-9.643995	0.740097	-0.466077	0.349011	-0.014817	-0.015092	0.012131
873	4.364303	0.005000	0.846944	1.855732	-9.636704	0.739873	-0.466523	0.349759	-0.024006	-0.015011	0.016056
874	4.369303	0.005000	0.914029	1.844280	-9.613800	0.739650	-0.466969	0.350506	-0.026447	-0.009937	0.008892
875	4.374303	0.005000	0.902520	1.860555	-9.581251	0.739427	-0.467416	0.351253	-0.015808	-0.008324	0.012254
876	4.379303	0.005000	0.943627	1.805040	-9.654907	0.739204	-0.467862	0.352001	-0.013837	-0.005026	0.010068
877	4.384303	0.005000	0.905475	1.783943	-9.734475	0.738981	-0.468308	0.352748	-0.004766	-0.014909	0.008517
878	4.389303	0.005000	0.863280	1.860013	-9.645082	0.738757	-0.468754	0.353496	-0.000542	-0.014177	0.002953
879	4.394303	0.005000	0.902520	1.779120	-9.626400	0.738534	-0.469200	0.354243	0.003957	-0.017596	-0.003832
880	4.399303	0.005000	0.852368	1.855192	-9.585472	0.738311	-0.469647	0.354991	-0.000593	-0.013402	0.010861
881	4.404303	0.005000	0.832436	1.883520	-9.552111	0.738088	-0.470093	0.355738	0.011608	-0.007743	-0.001119
882	4.409303	0.005000	0.796841	1.955979	-9.574560	0.737865	-0.470539	0.356486	-0.000643	-0.010788	0.010581
883	4.414303	0.005000	0.795737	1.847926	-9.574560	0.737641	-0.470985	0.357233	0.001099	0.000324	-0.001166
884	4.419303	0.005000	0.944271	1.879753	-9.613800	0.737418	-0.471432	0.357981	0.001321	-0.009538	0.004485
885	4.424303	0.005000	0.944026	1.765800	-9.537586	0.737313	-0.471524	0.358136	-0.010519	-0.007575	0.005217
886	4.429303	0.005000	0.945723	1.985387	-9.543247	0.737313	-0.471301	0.357762	-0.005805	-0.006546	0.003802
887	4.434303	0.005000	0.902520	1.949293	-9.535320	0.737313	-0.471078	0.357389	0.007213	-0.018509	0.016311
888	4.439303	0.005000	0.941760	1.922760	-9.626855	0.737313	-0.470855	0.357015	0.000463	-0.013669	0.007069
889	4.444303	0.005000	0.941760	1.838396	-9.574560	0.737313	-0.470632	0.356641	0.013881	-0.013282	0.008150
890	4.449303	0.005000	0.837533	1.882280	-9.627293	0.737313	-0.470409	0.356268	0.013126	-0.005224	0.003960
891	4.454303	0.005000	0.902520	1.922760	-9.597916	0.737313	-0.470186	0.355894	0.024448	-0.013287	0.002815
892	4.459303	0.005000	0.962741	1.820576	-9.532597	0.737313	-0.469963	0.355521	0.020294	-0.015905	0.009785
893	4.464303	0.005000	0.923169	1.825689	-9.535320	0.737313	-0.469740	0.355147	0.018666	-0.008564	0.001927
894	4.469303	0.005000	0.981000	1.860218	-9.597862	0.737313	-0.469517	0.354774	0.014423	-0.017332	0.009484
895	4.474303	0.005000	0.981000	1.845627	-9.613800	0.737313	-0.469294	0.354400	0.013615	-0.023061	0.014355
896	4.479303	0.005000	0.913635	1.922760	-9.580454	0.737313	-0.469071	0.354027	0.009305	-0.022454	0.014527
897	4.484303	0.005000	0.880696	1.826864	-9.635624	0.737313	-0.468848	0.353653	0.010996	-0.025833	0.001975
898	4.489303	0.005000	0.935468	1.883520	-9.646748	0.737281	-0.468545	0.353315	0.001346	-0.020385	0.001023
899	4.494303	0.005000	0.941760	1.808927	-9.649153	0.737058	-0.467765	0.353191	0.000287	-0.013572	0.016781
900	4.499303	0.005000	0.903990	1.765800	-9.613800	0.736835	-0.466985	0.353066	0.002121	-0.013763	0.011588
901	4.504303	0.005000	0.941760	1.765800	-9.613800	0.736612	-0.466204	0.352942	0.001485	-0.007250	0.012995
902	4.509303	0.005000	0.830635	1.733155	-9.535320	0.736389	-0.465424	0.352818	0.004447	-0.013795	0.001843
903	4.514303	0.005000	0.936072	1.821529	-9.563184	0.736166	-0.464644	0.352693	-0.006194	-0.016131	0.008111
904	4.519303	0.005000	0.879406	1.796977	-9.582623	0.735944	-0.463864	0.352569	-0.008589	-0.014118	0.003628
905	4.524303	0.005000	0.912973	1.765800	-9.653040	0.735721	-0.463084	0.352444	0.002283	-0.009121	-0.002180
906	4.529303	0.005000	1.033514	1.778783	-9.666314	0.735498	-0.462303	0.352320	0.016413	-0.017659	0.012274
907	4.534303	0.005000	1.035636	1.774248	-9.676884	0.735275	-0.461523	0.352195	0.004019	-0.012680	0.001310
908	4.539303	0.005000	0.998806	1.787234	-9.592366	0.735052	-0.460743	0.352071	0.006544	-0.005106	0.008465
909	4.544303	0.005000	0.961977	1.825257	-9.554343	0.734829	-0.459963	0.351947	-0.014055	-0.015737	0.009937
910	4.549303	0.005000	0.879892	1.687320	-9.737537	0.734606	-0.459183	0.351822	-0.009414	-0.016799	0.004401
911	4.554303	0.005000	0.991835	1.780002	-9.642205	0.734383	-0.458402	0.351698	-0.014645	-0.019853	0.015153
912	4.559303	0.005000	0.839702	1.777589	-9.598138	0.734580	-0.458629	0.351854	-0.022424	-0.011832	0.010207
913	4.564303	0.005000	0.911901	1.765800	-9.525939	0.734914	-0.459186	0.352104	-0.015502	-0.019789	0.004016
914	4.569303	0.005000	0.895554	1.805040	-9.574560	0.735249	-0.459744	0.352353	-0.016094	-0.005833	0.010667
915	4.574303	0.005000	0.750068	1.888028	-9.583576	0.735584	-0.460302	0.352602	-0.030990	-0.010282	0.015298
916	4.579303	0.005000	0.904638	1.842162	-9.574560	0.735919	-0.460860	0.352851	-0.020283	-0.011648	0.009065
917	4.584303	0.005000	0.902780	1.805040	-9.613540	0.736253	-0.461418	0.353100	-0.026240	-0.012483	0.003705
918	4.589303	0.005000	0.944438	1.765800	-9.579916	0.736588	-0.461975	0.353349	-0.020562	-0.011525	0.009182
919	4.594303	0.005000	0.907603	1.839197	-9.584726	0.736923	-0.462533	0.353598	-0.015883	-0.004936	0.016689
920	4.599303	0.005000	0.878253	1.812527	-9.550293	0.737257	-0.463091	0.353847	-0.009953	-0.014747	0.011606
921	4.604303	0.005000	0.863280	1.844280	-9.515884	0.737592	-0.463649	0.354096	-0.009057	-0.009432	0.009439
922	4.609303	0.005000	0.889889	1.844280	-9.601169	0.737927	-0.464207	0.354346	-0.015062	-0.011327	0.001763
923	4.614303	0.005000	0.926754	1.805040	-9.583788	0.738262	-0.464765	0.354595	-0.005588	-0.010348	0.007978
924	4.619303	0.005000	0.981000	1.826884	-9.596404	0.738596	-0.465322	0.354844	-0.018065	-0.003635	0.003308
925	4.624303	0.005000	0.941760	1.805343	-9.594029	0.738764	-0.465714	0.354814	-0.025585	-0.001307	0.004506
926	4.629303	0.005000	0.896919	1.894723	-9.596981	0.738653	-0.465825	0.354316	-0.018539	-0.005406	0.002243
927	4.634303	0.005000	0.981000	1.790633	-9.588967	0.738541	-0.465937	0.353818	-0.016567	-0.007121	0.005929
928	4.639303	0.005000	0.941760	1.844280	-9.613800	0.738430	-0.466048	0.353320	-0.021696	-0.021258	0.019391
929	4.644303	0.005000	0.932176	1.853864	-9.574560	0.738318	-0.466159	0.352822	-0.024400	-0.018100	0.001677
930	4.649303	0.005000	0.973822	1.883520	-9.599445	0.738207	-0.466271	0.352324	-0.023544	-0.023834	0.017850
931	4.654303	0.005000	0.911929	1.814449	-9.535320	0.738095	-0.466382	0.351826	-0.018260	-0.015096	0.011710
932	4.659303	0.005000	0.941760	1.885877	-9.463911	0.737984	-0.466494	0.351327	-0.012065	-0.016315	0.008474
933	4.664303	0.005000	0.980939	1.961939	-9.652919	0.737872	-0.466605	0.350829	-0.009151	-0.013633	0.016270
934	4.669303	0.005000	0.941760	1.962000	-9.547497	0.737760	-0.466717	0.350331	-0.004350	-0.021536	0.008687
935	4.674303	0.005000	0.868162	1.819686	-9.564796	0.737649	-0.466828	0.349833	0.003821	-0.023412	0.010032
936	4.679303	0.005000	0.934472	1.883520	-9.549895	0.737537	-0.466940	0.349335	0.004520	-0.010995	0.001892
937	4.684303	0.005000	0.912223	1.814743	-9.574560	0.737426	-0.467051	0.348837	0.012118	-0.018041	0.008812
938	4.689303	0.005000	0.929650	1.895630	-9.550339	0.737314	-0.467163	0.348339	0.010711	-0.019540	0.012019
939	4.694303	0.005000	0.863280	1.883520	-9.589370	0.737203	-0.468376	0.349810	0.000317	-0.014856	0.003619
940	4.699303	0.005000	0.897649	1.839409	-9.608929	0.737091	-0.469603	0.351304	0.012744	-0.017797	0.012077
941	4.704303	0.005000	0.902520	1.844280	-9.554985	0.736980	-0.470829	0.352798	0.010382	-0.011321	0.007989
942	4.709303	0.005000	0.902520	1.883520	-9.557270	0.736868	-0.472056	0.354292	0.010880	-0.014682	0.008900
943	4.714303	0.005000	0.863280	1.898420	-9.510980	0.736757	-0.473283	0.355786	0.006892	-0.015753	0.005062
944	4.719303	0.005000	0.864944	1.910235	-9.587085	0.736646	-0.474509	0.357281	0.017426	-0.010939	-0.000928
945	4.724303	0.005000	0.775966	1.854415	-9.506215	0.736534	-0.475736	0.358775	0.015465	-0.014207	0.006848
946	4.729303	0.005000	0.910719	1.789081	-9.590519	0.736423	-0.476962	0.360269	0.017629	-0.016112	-0.002794
947	4.734303	0.005000	0.863280	1.805040	-9.579930	0.736311	-0.478189	0.361763	0.016550	-0.014701	0.002835
948	4.739303	0.005000	0.939203	1.768357	-9.535320	0.736200	-0.479415	0.363257	0.012477	-0.012835	-0.000299
949	4.744303	0.005000	0.902673	1.766106	-9.575172	0.736088	-0.480642	0.364752	0.019915	-0.017212	0.010967
950	4.749303	0.005000	0.830756	1.881281	-9.694519	0.735977	-0.481869	0.366246	0.020664	-0.008772	0.019782
951	4.754303	0.005000	0.893292	1.904305	-9.544548	0.735865	-0.483095	0.367740	0.015333	-0.010500	0.017738
952	4.759303	0.005000	0.930536	1.733564	-9.581564	0.735081	-0.483717	0.369084	0.022273	-0.016963	0.005756
953	4.764303	0.005000	0.842798	1.795661	-9.583939	0.733854	-0.483940	0.370330	0.016420	-0.009334	-0.002467
954	4.769303	0.005000	0.878982	1.793271	-9.641271	0.732626	-0.484163	0.371576	0.003724	-0.011333	0.006663
955	4.774303	0.005000	0.902520	1.829965	-9.628115	0.731399	-0.484386	0.372822	-0.002798	-0.002664	0.009296
956	4.779303	0.005000	0.941760	1.844280	-9.597072	0.730172	-0.484609	0.374068	0.003618	-0.011069	0.015153
957	4.784303	0.005000	0.882418	1.843315	-9.534355	0.728945	-0.484832	0.375313	-0.006841	-0.010778	0.009137
958	4.789303	0.005000	0.802499	1.826581	-9.613800	0.727718	-0.485055	0.376559	-0.012230	-0.008191	0.005660
959	4.794303	0.005000	0.902520	1.820329	-9.637751	0.726491	-0.485278	0.377805	-0.013779	-0.016646	0.001952
960	4.799303	0.005000	0.824040	1.713072	-9.588048	0.725263	-0.485501	0.379051	-0.030323	-0.011182	0.004321
961	4.804303	0.005000	0.962696	1.912292	-9.524852	0.724036	-0.485725	0.380296	-0.019227	-0.016754	0.015399
962	4.809303	0.005000	0.933707	1.891573	-9.574560	0.722809	-0.485948	0.381542	-0.021011	-0.016453	0.021573
963	4.814303	0.005000	0.891225	1.928407	-9.568913	0.721582	-0.486171	0.382788	-0.018612	-0.006944	0.002609
964	4.819303	0.005000	0.912211	1.955539	-9.584251	0.720355	-0.486394	0.384034	-0.014032	-0.014120	0.016615
965	4.824303	0.005000	0.942586	1.845106	-9.613800	0.719603	-0.486467	0.384721	-0.011195	-0.010106	0.014703
966	4.829303	0.005000	0.830333	1.921187	-9.576133	0.720495	-0.486021	0.383475	-0.022771	-0.018021	0.015157
967	4.834303	0.005000	0.894528	1.997244	-9.617796	0.721387	-0.485575	0.382230	-0.033544	-0.010999	0.009756
968	4.839303	0.005000	0.712732	1.896345	-9.574560	0.722279	-0.485129	0.380985	-0.022845	-0.006925	0.008174
969	4.844303	0.005000	0.806403	2.031661	-9.583379	0.723171	-0.484683	0.379740	-0.024386	-0.013644	0.011963
970	4.849303	0.005000	0.880053	2.001240	-9.591333	0.724063	-0.484237	0.378495	-0.022931	-0.009663	0.004789
971	4.854303	0.005000	0.981000	1.973957	-9.653040	0.724955	-0.483791	0.377249	-0.013240	-0.010094	0.011561
972	4.859303	0.005000	0.879334	1.978054	-9.636986	0.725847	-0.483345	0.376004	-0.011028	-0.011890	0.015261
973	4.864303	0.005000	0.803264	1.943536	-9.653040	0.726740	-0.482899	0.374759	-0.006891	-0.018554	0.009696
974	4.869303	0.005000	0.821105	1.940913	-9.655975	0.727632	-0.482453	0.373514	0.004414	-0.010494	0.012386
975	4.874303	0.005000	0.784800	1.962000	-9.598022	0.728524	-0.482007	0.372269	0.013112	-0.010465	0.010676
976	4.879303	0.005000	0.798188	2.001240	-9.613800	0.729416	-0.481561	0.371023	0.021535	-0.016490	0.011757
977	4.884303	0.005000	0.902520	2.029467	-9.642027	0.730308	-0.481115	0.369778	0.019866	-0.008234	0.007490
978	4.889303	0.005000	0.832663	2.031857	-9.535320	0.731200	-0.480669	0.368533	0.028667	-0.017974	0.008508
979	4.894303	0.005000	0.797295	1.968248	-9.587055	0.731530	-0.479474	0.367706	0.030069	-0.010039	0.008324
980	4.899303	0.005000	0.941760	2.064290	-9.582275	0.731753	-0.478136	0.366959	0.035194	-0.011606	0.000245
981	4.904303	0.005000	0.828487	1.962000	-9.609353	0.731976	-0.476798	0.366212	0.042622	-0.016132	0.020434
982	4.909303	0.005000	0.826795	2.000322	-9.611045	0.732199	-0.475460	0.365465	0.040510	-0.014869	0.006574
983	4.914303	0.005000	0.905842	2.030513	-9.584527	0.732422	-0.474122	0.364717	0.049094	-0.012896	0.005730
984	4.919303	0.005000	0.941760	2.006979	-9.546798	0.732645	-0.472784	0.363970	0.037845	-0.005697	0.001357
985	4.924303	0.005000	0.910665	1.978290	-9.636750	0.732868	-0.471445	0.363223	0.040807	-0.007207	0.002691
986	4.929303	0.005000	0.873840	1.969560	-9.653040	0.733091	-0.470107	0.362476	0.034589	-0.004695	0.007694
987	4.934303	0.005000	0.758528	1.974968	-9.626768	0.733314	-0.468769	0.361729	0.029566	-0.002321	-0.005143
988	4.939303	0.005000	0.847899	1.844280	-9.605321	0.733537	-0.467431	0.360982	0.040859	-0.003312	-0.006049
989	4.944303	0.005000	0.784800	1.890838	-9.513870	0.733760	-0.466093	0.360235	0.026461	-0.009852	-0.007444
990	4.949303	0.005000	0.825643	1.883520	-9.533717	0.733983	-0.464755	0.359488	0.031919	-0.012730	0.005428
991	4.954303	0.005000	0.886092	1.877136	-9.558132	0.734206	-0.463417	0.358741	0.022569	-0.008093	0.010546
992	4.959303	0.005000	0.809987	1.855414	-9.574560	0.734480	-0.462738	0.357937	0.026032	-0.012294	-0.003119
993	4.964303	0.005000	0.847396	1.855958	-9.613800	0.734814	-0.462849	0.357066	0.031665	-0.009018	0.014541
994	4.969303	0.005000	0.902520	1.883520	-9.544608	0.735149	-0.462960	0.356195	0.028917	0.002557	0.005583
995	4.974303	0.005000	0.916346	1.883520	-9.613800	0.735483	-0.463072	0.355324	0.033760	-0.010439	-0.002730
996	4.979303	0.005000	1.006671	1.835234	-9.579083	0.735818	-0.463183	0.354452	0.034134	-0.007329	0.005572
997	4.984303	0.005000	0.940061	1.844280	-9.538719	0.736152	-0.463295	0.353581	0.036229	-0.011720	0.004603
998	4.989303	0.005000	0.902520	1.805736	-9.536712	0.736486	-0.463406	0.352710	0.026417	-0.008213	0.004385
999	4.994303	0.005000	0.872538	1.768886	-9.496080	0.736821	-0.463518	0.351839	0.026796	0.000064	-0.004841
1000	4.999303	0.005000	0.852358	1.703703	-9.636657	0.737155	-0.463629	0.350968	0.022164	-0.013214	0.004316
1001	5.004303	0.005000	0.933909	1.726560	-9.558873	0.737490	-0.463740	0.350097	0.013968	-0.004543	0.001318
1002	5.009303	0.005000	0.970650	1.745101	-9.603450	0.737824	-0.463852	0.349225	0.015640	-0.004850	-0.002861
1003	5.014303	0.005000	0.928996	1.713796	-9.575509	0.738158	-0.463963	0.348354	0.009847	-0.005992	0.005527
1004	5.019303	0.005000	0.933440	1.734880	-9.644720	0.738493	-0.464075	0.347483	0.012010	-0.009139	-0.013769
1005	5.024303	0.005000	0.984570	1.665915	-9.613800	0.738806	-0.464193	0.346698	0.004501	-0.004182	0.003915
1006	5.029303	0.005000	0.982210	1.744365	-9.554335	0.738806	-0.464416	0.347196	-0.003495	-0.001197	0.008790
1007	5.034303	0.005000	0.952440	1.726560	-9.568600	0.738806	-0.464639	0.347694	0.011691	-0.009417	0.013306
1008	5.039303	0.005000	0.966750	1.687320	-9.613800	0.738806	-0.464862	0.348192	-0.003098	-0.007840	0.000545
1009	5.044303	0.005000	0.835915	1.753925	-9.653040	0.738806	-0.465085	0.348690	-0.011052	-0.003470	-0.003176
1010	5.049303	0.005000	0.911186	1.805040	-9.613800	0.738806	-0.465308	0.349187	-0.003009	-0.005407	0.005283
1011	5.054303	0.005000	0.974741	1.844280	-9.587079	0.738806	-0.465531	0.349685	-0.012202	-0.004018	-0.001997
1012	5.059303	0.005000	0.898677	1.805040	-9.574560	0.738806	-0.465753	0.350183	-0.000502	-0.014631	0.012396
1013	5.064303	0.005000	0.863280	1.765800	-9.615239	0.738806	-0.465976	0.350681	-0.001955	-0.008893	0.007501
1014	5.069303	0.005000	0.901567	1.765800	-9.614753	0.738806	-0.466199	0.351179	0.004459	-0.016652	0.005645
1015	5.074303	0.005000	0.863280	1.805040	-9.656383	0.738806	-0.466422	0.351676	0.005450	-0.007971	0.002189
1016	5.079303	0.005000	1.008804	1.693038	-9.658758	0.738806	-0.466645	0.352174	0.010477	-0.005002	0.003821
1017	5.084303	0.005000	0.910628	1.796932	-9.520405	0.738806	-0.466868	0.352672	0.003116	-0.014518	0.013194
1018	5.089303	0.005000	0.834650	1.640670	-9.603190	0.738806	-0.467091	0.353170	0.003636	-0.003170	-0.000526
1019	5.094303	0.005000	0.863280	1.752776	-9.613800	0.738431	-0.467164	0.353835	-0.010599	-0.007338	-0.000743
1020	5.099303	0.005000	0.816982	1.828847	-9.589993	0.737874	-0.467164	0.354582	-0.023615	-0.011266	0.007359
1021	5.104303	0.005000	0.923915	1.862125	-9.613800	0.737316	-0.467164	0.355329	-0.024396	-0.013248	0.008933
1022	5.109303	0.005000	0.922775	1.843009	-9.575831	0.736759	-0.467164	0.356077	-0.034239	-0.011513	0.010545
1023	5.114303	0.005000	0.840614	1.827706	-9.607709	0.736201	-0.467164	0.356824	-0.038187	-0.007548	0.006589
1024	5.119303	0.005000	0.852364	1.779962	-9.613800	0.735643	-0.467164	0.357571	-0.043925	-0.011214	0.012593
1025	5.124303	0.005000	0.847547	1.832526	-9.574560	0.735086	-0.467164	0.358318	-0.042591	-0.006406	0.014831
1026	5.129303	0.005000	0.863280	1.932099	-9.583899	0.734528	-0.467164	0.359065	-0.029890	-0.011437	0.008692
1027	5.134303	0.005000	0.830973	1.936626	-9.535320	0.733971	-0.467164	0.359812	-0.030585	-0.001398	0.007151
1028	5.139303	0.005000	0.867797	1.952967	-9.579077	0.733413	-0.467164	0.360559	-0.025578	-0.007132	0.003353
1029	5.144303	0.005000	0.861168	1.879296	-9.574560	0.732856	-0.467164	0.361306	-0.020942	-0.012721	0.016991
1030	5.149303	0.005000	0.824040	1.921852	-9.535623	0.732298	-0.467164	0.362053	-0.010981	-0.006734	0.003464
1031	5.154303	0.005000	0.829395	1.928115	-9.605767	0.731740	-0.467164	0.362800	0.000884	-0.011007	0.009921
1032	5.159303	0.005000	0.931533	1.922760	-9.618914	0.731567	-0.467356	0.363261	0.015060	-0.001551	0.006072
1033	5.164303	0.005000	0.760619	1.922760	-9.574560	0.732348	-0.468025	0.363012	0.021926	-0.013267	0.005405
1034	5.169303	0.005000	0.863280	1.883520	-9.643104	0.733128	-0.468694	0.362763	0.034265	-0.006884	0.011017
1035	5.174303	0.005000	0.836390	1.805040	-9.640690	0.733909	-0.469363	0.362514	0.029627	-0.013357	0.003110
1036	5.179303	0.005000	0.745560	1.844280	-9.599041	0.734689	-0.470032	0.362265	0.036526	-0.007855	0.019723
1037	5.184303	0.005000	0.846109	1.888417	-9.618697	0.735470	-0.470701	0.362016	0.031860	-0.009018	0.003376
1038	5.189303	0.005000	0.843622	1.981582	-9.672698	0.736251	-0.471370	0.361767	0.031610	-0.013904	0.007487
1039	5.194303	0.005000	0.863280	1.871016	-9.692280	0.737031	-0.472039	0.361518	0.017518	-0.011365	0.004709
1040	5.199303	0.005000	0.824040	1.780458	-9.613800	0.737812	-0.472708	0.361269	0.013641	-0.009342	0.006963
1041	5.204303	0.005000	0.863280	1.817323	-9.535320	0.738592	-0.473377	0.361020	0.001171	-0.006815	0.003984
1042	5.209303	0.005000	0.784800	1.795480	-9.496080	0.739373	-0.474046	0.360771	-0.000747	-0.006849	-0.004967
1043	5.214303	0.005000	0.885835	1.954482	-9.582078	0.740154	-0.474716	0.360522	0.000240	-0.000301	0.014301
1044	5.219303	0.005000	0.897392	1.857879	-9.653040	0.740934	-0.475385	0.360273	-0.002798	-0.004943	0.003906
1045	5.224303	0.005000	0.857774	1.880767	-9.650287	0.741715	-0.476054	0.360024	-0.005423	-0.008673	-0.004760
1046	5.229303	0.005000	0.746286	1.961637	-9.534957	0.741489	-0.475214	0.359438	-0.003980	-0.007982	-0.001681
1047	5.234303	0.005000	0.713763	1.775723	-9.606357	0.741155	-0.474210	0.358816	0.014724	-0.004645	-0.009421
1048	5.239303	0.005000	0.884706	1.883520	-9.530866	0.740820	-0.473207	0.358193	0.002969	-0.006277	0.005132
1049	5.244303	0.005000	0.909379	1.851139	-9.549038	0.740486	-0.472203	0.357571	0.010217	-0.004276	0.004265
1050	5.249303	0.005000	0.932139	1.853901	-9.623421	0.740151	-0.471200	0.356948	0.022156	-0.004153	0.003104
1051	5.254303	0.005000	0.890524	1.883520	-9.680284	0.739816	-0.470196	0.356326	0.019211	-0.005054	0.006506
1052	5.259303	0.005000	0.877666	1.740946	-9.628186	0.739482	-0.469193	0.355703	0.016314	-0.008193	0.003733
1053	5.264303	0.005000	0.863280	1.732278	-9.557799	0.739147	-0.468189	0.355080	0.017208	-0.004072	0.007228
1054	5.269303	0.005000	0.804889	1.784951	-9.614738	0.738813	-0.467186	0.354458	0.023224	-0.008745	0.002625
1055	5.274303	0.005000	0.802514	1.826566	-9.656852	0.738478	-0.466182	0.353835	0.017500	-0.009163	0.010067
1056	5.279303	0.005000	0.887196	1.765800	-9.598476	0.738144	-0.465179	0.353213	0.010928	-0.008179	-0.001445
1057	5.284303	0.005000	0.837382	1.883913	-9.600851	0.737809	-0.464175	0.352590	0.000167	-0.001176	0.006621
1058	5.289303	0.005000	0.784800	1.815599	-9.603241	0.737475	-0.463172	0.351968	-0.020159	-0.002510	0.009187
1059	5.294303	0.005000	0.778295	1.790351	-9.597432	0.737428	-0.463033	0.351731	-0.030925	-0.002630	0.009012
1060	5.299303	0.005000	0.981000	1.889314	-9.562973	0.737651	-0.463702	0.351856	-0.020636	-0.019091	-0.004951
1061	5.304303	0.005000	0.978015	1.886505	-9.571575	0.737875	-0.464371	0.351980	-0.024777	-0.001754	-0.001140
1062	5.309303	0.005000	0.982163	1.960837	-9.458585	0.738098	-0.465040	0.352105	-0.031176	-0.009559	-0.001853
1063	5.314303	0.005000	0.947206	1.920945	-9.537135	0.738321	-0.465709	0.352229	-0.034548	-0.005465	0.005870
1064	5.319303	0.005000	0.972620	1.887710	-9.570370	0.738544	-0.466378	0.352354	-0.039460	-0.003573	0.001167
1065	5.324303	0.005000	1.013660	2.020739	-9.541900	0.738767	-0.467047	0.352478	-0.032058	-0.008795	0.003784
1066	5.329303	0.005000	0.890146	1.901431	-9.604845	0.738990	-0.467716	0.352603	-0.018482	-0.004290	0.000718
1067	5.334303	0.005000	0.985838	1.832813	-9.519015	0.739213	-0.468385	0.352727	-0.010612	-0.012299	0.015601
1068	5.339303	0.005000	0.981000	1.818921	-9.521439	0.739436	-0.469054	0.352852	-0.000716	-0.013187	0.006904
1069	5.344303	0.005000	0.974340	1.805040	-9.541980	0.739659	-0.469723	0.352976	-0.001375	-0.009071	0.003941
1070	5.349303	0.005000	0.943597	2.003077	-9.611963	0.739882	-0.470392	0.353100	0.013407	-0.004699	0.007616
1071	5.354303	0.005000	0.908491	1.962000	-9.535320	0.740105	-0.471061	0.353225	0.016158	-0.009268	0.002317
1072	5.359303	0.005000	0.941760	1.867984	-9.581927	0.740314	-0.471642	0.353333	0.015581	-0.017890	0.015011
1073	5.364303	0.005000	0.902323	1.948854	-9.666186	0.740425	-0.471642	0.353333	-0.000138	-0.007839	-0.002441
1074	5.369303	0.005000	0.856352	1.929688	-9.585331	0.740537	-0.471642	0.353333	-0.006154	-0.008031	0.000919
1075	5.374303	0.005000	0.941760	1.922760	-9.597039	0.740648	-0.471642	0.353333	-0.004262	-0.011119	0.011151
1076	5.379303	0.005000	0.890509	1.943983	-9.523309	0.740759	-0.471642	0.353333	-0.012209	-0.009905	-0.004075
1077	5.384303	0.005000	0.902520	1.954769	-9.467686	0.740871	-0.471642	0.353333	-0.026213	-0.012721	0.002947
1078	5.389303	0.005000	0.864520	1.922760	-9.653040	0.740982	-0.471642	0.353333	-0.029574	-0.014182	-0.000721
1079	5.394303	0.005000	0.940597	1.922760	-9.576886	0.741094	-0.471642	0.353333	-0.033874	-0.010552	0.003488
1080	5.399303	0.005000	0.831175	1.847847	-9.578127	0.741205	-0.471642	0.353333	-0.029056	-0.004674	-0.002956
1081	5.404303	0.005000	0.791169	1.784906	-9.541689	0.741316	-0.471642	0.353333	-0.031748	-0.009270	-0.005209
1082	5.409303	0.005000	0.877350	1.866740	-9.597020	0.741428	-0.471642	0.353333	-0.030104	-0.016365	0.008509
1083	5.414303	0.005000	0.902520	2.036501	-9.602995	0.741539	-0.471642	0.353333	-0.012626	-0.005786	0.004332
1084	5.419303	0.005000	0.837253	1.988027	-9.626615	0.741651	-0.471642	0.353333	0.005626	-0.011062	0.007906
1085	5.424303	0.005000	0.863280	2.008849	-9.684273	0.741762	-0.471642	0.353333	0.006221	-0.006593	0.010890
1086	5.429303	0.005000	0.803074	1.962000	-9.595526	0.741708	-0.471642	0.352964	0.020422	-0.010990	-0.003760
1087	5.434303	0.005000	0.801289	1.962000	-9.597311	0.741597	-0.471642	0.352466	0.028430	-0.010345	0.009215
1088	5.439303	0.005000	0.784800	1.929598	-9.597599	0.741485	-0.471642	0.351968	0.043807	-0.009207	-0.009774
1089	5.444303	0.005000	0.837851	1.844280	-9.680662	0.741374	-0.471642	0.351470	0.047509	-0.013467	0.001833
1090	5.449303	0.005000	0.729192	1.872084	-9.613800	0.741263	-0.471642	0.350972	0.059332	-0.002792	0.003144
1091	5.454303	0.005000	0.775754	1.971046	-9.653040	0.741151	-0.471642	0.350474	0.052795	-0.010101	-0.003078
1092	5.459303	0.005000	0.941760	2.027138	-9.567889	0.741040	-0.471642	0.349976	0.047103	-0.011606	0.012547
1093	5.464303	0.005000	0.858999	1.914198	-9.548163	0.740928	-0.471642	0.349478	0.040028	-0.007025	0.011244
1094	5.469303	0.005000	0.866189	1.880611	-9.654494	0.740817	-0.471642	0.348980	0.031853	-0.014795	0.015111
1095	5.474303	0.005000	0.903458	1.805040	-9.653978	0.740705	-0.471642	0.348482	0.015715	-0.008625	-0.008231
1096	5.479303	0.005000	0.938432	1.876864	-9.528664	0.740594	-0.471642	0.347984	0.016791	0.000296	0.002428
1097	5.484303	0.005000	0.796206	1.810743	-9.602394	0.740482	-0.471642	0.347486	0.004839	-0.000136	0.013781
1098	5.489303	0.005000	0.809079	1.773893	-9.473026	0.740371	-0.471642	0.346988	0.004629	-0.009453	0.006335
1099	5.494303	0.005000	0.860141	1.776395	-9.535320	0.740220	-0.471443	0.346889	-0.001199	-0.005546	0.013196
1100	5.499303	0.005000	0.915529	1.831271	-9.587783	0.739996	-0.470886	0.347512	-0.005369	-0.005812	0.002452
1101	5.504303	0.005000	0.957177	1.805040	-9.535320	0.739773	-0.470328	0.348134	-0.002277	-0.019548	0.007295
1102	5.509303	0.005000	0.859699	1.805040	-9.574560	0.739550	-0.469770	0.348757	-0.002487	-0.006331	0.004707
1103	5.514303	0.005000	0.962000	1.784800	-9.535320	0.739327	-0.469212	0.349380	0.002476	-0.012011	0.007593
