# FOX Logger (IMU file)
# (c) INRIA 2011-2014
# File created from file sensbiotk output
#
# File format:
# id	t	dt	ax	ay	az	mx	my	mz	gx	gy	gz
#
# Units:
#	Time: s
#	Acceleration: m.s^-2
#	Magneto: gauss
#	Gyrometer: rad/s
#
1	0.002777	0.002777	0.745560	-0.990355	-10.290235	-0.340299	-0.356716	0.000000	-0.010158	-0.016482	0.000525
2	0.007777	0.005000	0.692158	-0.836579	-10.254179	-0.341293	-0.358151	0.002712	-0.012844	-0.006013	-0.009184
3	0.012777	0.005000	0.735092	-0.884216	-10.199768	-0.342286	-0.359586	0.005424	-0.001388	-0.005989	-0.000642
4	0.017777	0.005000	0.698132	-1.020240	-10.123920	-0.343280	-0.361022	0.008137	0.009823	0.001271	0.010170
5	0.022777	0.005000	0.706320	-0.975228	-10.039668	-0.344273	-0.362457	0.010849	0.014661	0.004006	-0.001580
6	0.027777	0.005000	0.706320	-0.937978	-10.088462	-0.345267	-0.363892	0.013561	0.024475	-0.007555	0.005360
7	0.032777	0.005000	0.706320	-0.905367	-10.163160	-0.346260	-0.365327	0.016273	0.027715	-0.005691	-0.006925
8	0.037777	0.005000	0.668063	-1.057513	-10.277930	-0.347254	-0.366762	0.018985	0.034404	-0.006212	0.005590
9	0.042777	0.005000	0.784800	-0.950575	-10.244578	-0.348247	-0.368198	0.021697	0.025392	0.003853	0.011901
10	0.047777	0.005000	0.745560	-1.048921	-10.105798	-0.349241	-0.369633	0.024410	0.024622	-0.010681	0.001941
11	0.052777	0.005000	0.809465	-1.052192	-10.099255	-0.350234	-0.371068	0.027122	0.021740	0.001773	0.005785
12	0.057777	0.005000	0.794503	-0.951463	-10.133623	-0.351228	-0.372503	0.029834	0.014494	0.002968	0.006530
13	0.062777	0.005000	0.745560	-1.008274	-10.123920	-0.352221	-0.373938	0.032546	0.005284	-0.003540	0.017617
14	0.067777	0.005000	0.759615	-1.045425	-10.202400	-0.353215	-0.375374	0.035258	-0.018188	-0.004146	0.008354
15	0.072777	0.005000	0.673385	-1.036707	-10.320120	-0.353147	-0.375429	0.035304	-0.041489	-0.004531	0.003965
16	0.077777	0.005000	0.745560	-0.999652	-10.221052	-0.351932	-0.373993	0.032467	-0.035345	-0.002847	0.012922
17	0.082777	0.005000	0.781986	-0.981000	-10.187000	-0.350717	-0.372557	0.029630	-0.046743	0.000018	0.003718
18	0.087777	0.005000	0.784800	-1.004226	-10.241640	-0.349502	-0.371121	0.026793	-0.054441	-0.010453	0.011981
19	0.092777	0.005000	0.706320	-0.967395	-10.280880	-0.348287	-0.369685	0.023956	-0.054358	-0.000871	0.007056
20	0.097777	0.005000	0.694793	-0.941760	-10.236981	-0.347072	-0.368250	0.021120	-0.051529	-0.010023	0.012200
21	0.102777	0.005000	0.717818	-0.941760	-10.183905	-0.345857	-0.366814	0.018283	-0.044438	-0.010211	0.011292
22	0.107777	0.005000	0.713161	-0.928078	-10.227958	-0.344642	-0.365378	0.015446	-0.041908	-0.007774	0.007831
23	0.112777	0.005000	0.760082	-0.912201	-10.153479	-0.343427	-0.363942	0.012609	-0.022351	-0.004610	0.005121
24	0.117777	0.005000	0.821560	-0.983480	-10.160680	-0.342212	-0.362506	0.009772	-0.014838	0.002363	0.004721
25	0.122777	0.005000	0.706243	-1.020163	-10.045593	-0.340997	-0.361070	0.006935	-0.001440	-0.008814	0.010733
26	0.127777	0.005000	0.704452	-0.981000	-10.123920	-0.339782	-0.359634	0.004099	0.001973	0.006819	0.005181
27	0.132777	0.005000	0.667080	-0.933190	-10.111064	-0.338567	-0.358198	0.001262	0.013270	0.000834	0.006802
28	0.137777	0.005000	0.712931	-0.967779	-10.097901	-0.337352	-0.356763	-0.001575	0.027338	-0.002416	0.008219
29	0.142777	0.005000	0.728290	-0.981000	-10.233005	-0.337527	-0.356395	-0.001309	0.019429	-0.002011	0.004004
30	0.147777	0.005000	0.717370	-0.992050	-10.213450	-0.337748	-0.356064	-0.000939	0.015923	0.003023	0.019363
31	0.152777	0.005000	0.771503	-0.837337	-10.189103	-0.337969	-0.355733	-0.000569	0.009912	0.006686	-0.002765
32	0.157777	0.005000	0.793248	-0.878676	-10.226244	-0.338190	-0.355402	-0.000199	0.008296	-0.007568	0.005705
33	0.162777	0.005000	0.781171	-0.877457	-10.223834	-0.338411	-0.355070	0.000171	-0.015149	-0.001892	-0.000502
34	0.167777	0.005000	0.706320	-0.941760	-10.123920	-0.338632	-0.354739	0.000541	-0.019452	-0.011175	0.008001
35	0.172777	0.005000	0.745560	-0.946841	-10.236559	-0.338853	-0.354408	0.000911	-0.021535	-0.008439	0.008439
36	0.177777	0.005000	0.770133	-0.966333	-10.276119	-0.339074	-0.354076	0.001281	-0.020392	-0.007761	0.008856
37	0.182777	0.005000	0.730837	-0.914779	-10.190141	-0.339295	-0.353745	0.001651	-0.036773	-0.013704	0.008725
38	0.187777	0.005000	0.667080	-0.892324	-10.183551	-0.339516	-0.353414	0.002021	-0.043007	-0.006908	0.007889
39	0.192777	0.005000	0.659180	-0.863280	-10.202400	-0.339737	-0.353082	0.002391	-0.031522	-0.008645	0.008901
40	0.197777	0.005000	0.638828	-0.868774	-10.196906	-0.339957	-0.352751	0.002761	-0.035957	-0.007622	0.007835
41	0.202777	0.005000	0.674099	-0.895501	-10.173689	-0.340178	-0.352420	0.003131	-0.034062	-0.002840	-0.000195
42	0.207777	0.005000	0.861014	-0.863280	-10.164293	-0.340249	-0.352440	0.003221	-0.026267	-0.007025	-0.000894
43	0.212777	0.005000	0.746816	-0.939249	-10.202400	-0.340138	-0.352882	0.002974	-0.017126	0.004237	0.001841
44	0.217777	0.005000	0.784800	-0.824040	-10.163160	-0.340028	-0.353324	0.002727	0.001691	-0.008197	0.011609
45	0.222777	0.005000	0.779168	-0.863280	-10.185504	-0.339917	-0.353766	0.002481	-0.008710	0.004507	0.007766
46	0.227777	0.005000	0.768724	-0.972962	-10.179236	-0.339807	-0.354208	0.002234	0.000434	0.002522	0.006725
47	0.232777	0.005000	0.755877	-1.020240	-10.152843	-0.339696	-0.354650	0.001987	0.005173	-0.006204	0.012523
48	0.237777	0.005000	0.693934	-0.890134	-10.175546	-0.339586	-0.355092	0.001740	-0.001244	0.000751	0.005546
49	0.242777	0.005000	0.706320	-0.926961	-10.217199	-0.339475	-0.355534	0.001494	0.006200	-0.006049	0.006143
50	0.247777	0.005000	0.756028	-0.880283	-10.118686	-0.339365	-0.355976	0.001247	-0.000534	-0.000170	0.003996
51	0.252777	0.005000	0.706774	-0.843887	-10.084680	-0.339254	-0.356418	0.001000	-0.007749	-0.011743	0.013767
52	0.257777	0.005000	0.702433	-0.845604	-10.163160	-0.339143	-0.356860	0.000753	0.002021	-0.006083	0.006079
53	0.262777	0.005000	0.808489	-0.824040	-10.147609	-0.339033	-0.357302	0.000507	-0.002331	-0.009060	0.002906
54	0.267777	0.005000	0.732157	-0.863280	-10.123920	-0.338922	-0.357744	0.000260	-0.006031	-0.009995	0.010079
55	0.272777	0.005000	0.667080	-0.874192	-10.113008	-0.338812	-0.358186	0.000013	-0.015037	-0.003971	-0.005857
56	0.277777	0.005000	0.644834	-1.025491	-10.132417	-0.338597	-0.357895	0.000117	-0.020812	-0.005871	0.003606
57	0.282777	0.005000	0.706320	-0.941760	-10.091154	-0.338376	-0.357564	0.000240	-0.018932	-0.011561	0.010168
58	0.287777	0.005000	0.780653	-0.985147	-10.132215	-0.338155	-0.357232	0.000364	-0.019242	-0.009380	-0.003611
59	0.292777	0.005000	0.784800	-1.059480	-10.161430	-0.337934	-0.356901	0.000487	-0.021089	-0.005424	0.007912
60	0.297777	0.005000	0.745774	-0.942403	-10.201971	-0.337713	-0.356570	0.000610	-0.020053	-0.009877	0.000188
61	0.302777	0.005000	0.669698	-0.905138	-10.092534	-0.337492	-0.356238	0.000734	-0.021711	-0.014176	0.006527
62	0.307777	0.005000	0.740538	-0.931717	-10.079658	-0.337271	-0.355907	0.000857	-0.018363	0.000872	0.001847
63	0.312777	0.005000	0.720252	-0.934794	-10.149228	-0.337051	-0.355575	0.000980	-0.007703	-0.008804	-0.002478
64	0.317777	0.005000	0.853899	-0.951141	-10.103443	-0.336830	-0.355244	0.001104	-0.008220	-0.003083	0.009591
65	0.322777	0.005000	0.796448	-0.941760	-10.096328	-0.336609	-0.354913	0.001227	0.001846	0.000246	-0.002785
66	0.327777	0.005000	0.706320	-0.902520	-10.059173	-0.336388	-0.354581	0.001350	-0.002134	-0.004225	0.003466
67	0.332777	0.005000	0.613197	-0.941760	-10.100639	-0.336167	-0.354250	0.001474	-0.005143	-0.001370	-0.000479
68	0.337777	0.005000	0.709381	-1.020240	-10.006200	-0.335946	-0.353919	0.001597	0.007815	-0.008690	-0.000032
69	0.342777	0.005000	0.704559	-0.981000	-10.142660	-0.335917	-0.353779	0.001613	0.017929	0.002926	-0.001817
70	0.347777	0.005000	0.712371	-0.964405	-10.258235	-0.336138	-0.353889	0.001490	-0.004048	-0.000393	0.007449
71	0.352777	0.005000	0.799186	-0.995386	-10.173628	-0.336359	-0.354000	0.001367	-0.002144	-0.001390	0.006343
72	0.357777	0.005000	0.706320	-0.992973	-10.135893	-0.336580	-0.354110	0.001243	-0.013091	-0.003799	0.004973
73	0.362777	0.005000	0.686210	-0.951325	-10.144030	-0.336800	-0.354221	0.001120	-0.015994	-0.000088	0.013396
74	0.367777	0.005000	0.824040	-0.996067	-10.146520	-0.337021	-0.354331	0.000997	-0.037238	-0.007715	0.010556
75	0.372777	0.005000	0.824040	-1.083104	-10.241640	-0.337242	-0.354442	0.000873	-0.020877	-0.017665	0.000179
76	0.377777	0.005000	0.781998	-0.941760	-10.233235	-0.337463	-0.354552	0.000750	-0.027578	-0.011405	0.017120
77	0.382777	0.005000	0.746407	-0.901673	-10.164007	-0.337684	-0.354663	0.000627	-0.023672	-0.001833	-0.002371
78	0.387777	0.005000	0.709413	-1.051748	-10.202400	-0.337905	-0.354773	0.000503	-0.019240	-0.014519	0.004748
79	0.392777	0.005000	0.620004	-0.981000	-10.233804	-0.338126	-0.354884	0.000380	-0.029755	-0.002284	0.010497
80	0.397777	0.005000	0.706320	-0.959482	-10.202400	-0.338347	-0.354994	0.000256	-0.020390	-0.006180	0.008475
81	0.402777	0.005000	0.692020	-0.981000	-10.163160	-0.338568	-0.355105	0.000133	-0.015278	-0.004582	0.003947
82	0.407777	0.005000	0.695716	-0.902520	-10.288307	-0.338789	-0.355215	0.000010	-0.022084	-0.014332	-0.008182
83	0.412777	0.005000	0.745560	-0.824040	-10.215379	-0.339111	-0.356140	0.000341	-0.004495	-0.006903	0.008878
84	0.417777	0.005000	0.709397	-0.863280	-10.148079	-0.339443	-0.357134	0.000711	-0.006141	-0.006431	0.007580
85	0.422777	0.005000	0.767307	-0.889282	-10.245895	-0.339774	-0.358129	0.001081	0.003586	-0.011679	0.003852
86	0.427777	0.005000	0.706320	-0.843796	-10.222247	-0.340106	-0.359123	0.001451	0.002783	-0.008000	0.003944
87	0.432777	0.005000	0.667080	-0.858825	-10.093591	-0.340437	-0.360118	0.001822	0.014984	-0.003953	0.001583
88	0.437777	0.005000	0.682063	-0.932486	-10.187417	-0.340769	-0.361112	0.002192	0.010677	-0.001238	0.009234
89	0.442777	0.005000	0.706320	-0.863280	-10.136808	-0.341100	-0.362107	0.002562	0.012829	0.003487	0.004372
90	0.447777	0.005000	0.706320	-0.991625	-10.173785	-0.341432	-0.363101	0.002932	0.019809	-0.004405	0.001749
91	0.452777	0.005000	0.714542	-1.012018	-10.225197	-0.341764	-0.364096	0.003302	0.019639	0.001313	-0.000294
92	0.457777	0.005000	0.784800	-0.968596	-10.287082	-0.342095	-0.365090	0.003672	0.022621	-0.014046	0.005334
93	0.462777	0.005000	0.670952	-1.047864	-10.202400	-0.342427	-0.366085	0.004043	0.013527	-0.008116	0.006239
94	0.467777	0.005000	0.784800	-0.943214	-10.126829	-0.342758	-0.367079	0.004413	0.010394	-0.005217	0.009716
95	0.472777	0.005000	0.669894	-0.942698	-10.240702	-0.343090	-0.368074	0.004783	-0.004033	-0.000212	0.008465
96	0.477777	0.005000	0.706320	-0.893839	-10.141282	-0.343193	-0.368246	0.004745	-0.007388	0.002864	0.005174
97	0.482777	0.005000	0.768868	-1.009619	-10.157849	-0.342972	-0.367252	0.004128	-0.002565	-0.014622	-0.003888
98	0.487777	0.005000	0.840408	-0.886152	-10.155536	-0.342751	-0.366258	0.003512	-0.011103	-0.014328	0.006332
99	0.492777	0.005000	0.745560	-1.060077	-10.133581	-0.342530	-0.365263	0.002895	-0.025299	-0.014355	-0.000453
100	0.497777	0.005000	0.706320	-1.180634	-10.139289	-0.342309	-0.364269	0.002278	-0.017420	-0.008235	0.011912
101	0.502777	0.005000	0.706320	-1.177200	-10.231021	-0.342088	-0.363275	0.001662	-0.029492	-0.008015	0.001933
102	0.507777	0.005000	0.650652	-1.013856	-10.248024	-0.341867	-0.362281	0.001045	-0.026755	-0.010165	0.002606
103	0.512777	0.005000	0.728935	-0.820046	-10.223018	-0.341646	-0.361287	0.000428	-0.026677	-0.002627	-0.002347
104	0.517777	0.005000	0.688077	-0.902520	-10.087433	-0.341425	-0.360293	-0.000188	-0.013968	-0.016351	0.004678
105	0.522777	0.005000	0.713470	-0.856130	-10.077530	-0.341205	-0.359299	-0.000805	-0.023976	-0.006246	0.003119
106	0.527777	0.005000	0.733603	-1.020240	-10.202400	-0.340984	-0.358305	-0.001422	-0.007609	-0.013167	-0.001819
107	0.532777	0.005000	0.655523	-1.059480	-10.213957	-0.340763	-0.357311	-0.002038	-0.007346	-0.004930	0.004039
108	0.537777	0.005000	0.646419	-0.981000	-10.232350	-0.340542	-0.356317	-0.002655	-0.013724	-0.001009	-0.006045
109	0.542777	0.005000	0.720069	-0.941760	-10.234766	-0.340321	-0.355323	-0.003272	0.007794	-0.005897	0.005809
110	0.547777	0.005000	0.848667	-0.936889	-10.320120	-0.340001	-0.355025	-0.003222	0.011585	-0.007202	0.009796
111	0.552777	0.005000	0.753048	-0.902520	-10.236648	-0.339669	-0.354804	-0.003099	0.010988	-0.010143	0.004368
112	0.557777	0.005000	0.824040	-0.981214	-10.124027	-0.339338	-0.354583	-0.002975	0.009971	-0.000207	0.004729
113	0.562777	0.005000	0.861011	-0.948567	-10.126189	-0.339006	-0.354362	-0.002852	0.010155	-0.001607	0.001594
114	0.567777	0.005000	0.741319	-0.941760	-10.119679	-0.338675	-0.354141	-0.002729	0.001238	-0.007811	0.008858
115	0.572777	0.005000	0.738903	-0.974343	-10.078023	-0.338344	-0.353921	-0.002606	-0.001621	-0.006504	-0.001727
116	0.577777	0.005000	0.775845	-0.890146	-10.193445	-0.338012	-0.353700	-0.002482	-0.000602	-0.013331	0.006060
117	0.582777	0.005000	0.739344	-0.924536	-10.191392	-0.337681	-0.353479	-0.002359	0.004241	-0.009112	0.004345
118	0.587777	0.005000	0.732138	-0.981000	-10.176582	-0.337350	-0.353258	-0.002236	0.002721	-0.001434	0.007259
119	0.592777	0.005000	0.729918	-0.941488	-10.186758	-0.337018	-0.353037	-0.002112	-0.006106	-0.017698	0.007324
120	0.597777	0.005000	0.706320	-0.902520	-10.159470	-0.336687	-0.352816	-0.001989	-0.011284	-0.000698	0.002685
121	0.602777	0.005000	0.626722	-0.981000	-10.221461	-0.336355	-0.352595	-0.001866	-0.011598	-0.018904	0.006373
122	0.607777	0.005000	0.695607	-0.902520	-10.202400	-0.336024	-0.352374	-0.001743	-0.012675	-0.009265	0.010452
123	0.612777	0.005000	0.696495	-0.941760	-10.069973	-0.335907	-0.352239	-0.001619	-0.022003	0.000846	0.003567
124	0.617777	0.005000	0.745560	-0.931824	-10.202400	-0.336127	-0.352239	-0.001496	-0.007994	-0.002349	0.005524
125	0.622777	0.005000	0.706320	-0.824040	-10.133807	-0.336348	-0.352239	-0.001372	-0.011332	-0.006699	-0.005940
126	0.627777	0.005000	0.698469	-0.941760	-10.171011	-0.336569	-0.352239	-0.001249	-0.010729	-0.015721	0.015760
127	0.632777	0.005000	0.711847	-0.975473	-10.202400	-0.336790	-0.352239	-0.001126	-0.024258	-0.001653	0.004589
128	0.637777	0.005000	0.663958	-1.062602	-10.307632	-0.337011	-0.352239	-0.001002	-0.016552	-0.015167	0.010431
129	0.642777	0.005000	0.705155	-1.097555	-10.084680	-0.337232	-0.352239	-0.000879	-0.016311	-0.007640	-0.000085
130	0.647777	0.005000	0.705080	-1.021480	-10.198681	-0.337453	-0.352239	-0.000756	-0.023645	-0.005855	0.002168
131	0.652777	0.005000	0.635041	-0.981000	-10.238040	-0.337674	-0.352239	-0.000632	-0.004165	-0.005324	0.007504
132	0.657777	0.005000	0.768035	-0.986588	-10.314532	-0.337895	-0.352239	-0.000509	-0.009304	0.004604	0.007823
133	0.662777	0.005000	0.776796	-0.894516	-10.163160	-0.338116	-0.352239	-0.000386	-0.008274	-0.005937	0.013412
134	0.667777	0.005000	0.726893	-0.892233	-10.192113	-0.338336	-0.352239	-0.000262	-0.007671	0.003077	0.012056
135	0.672777	0.005000	0.718997	-0.929083	-10.108823	-0.338557	-0.352239	-0.000139	-0.003498	-0.000279	0.005498
136	0.677777	0.005000	0.657358	-0.902520	-10.212122	-0.338778	-0.352239	-0.000016	0.003222	-0.007012	0.013044
137	0.682777	0.005000	0.667080	-0.981000	-10.158263	-0.338613	-0.352625	0.000323	0.006720	-0.003960	0.011617
138	0.687777	0.005000	0.726212	-1.000348	-10.183052	-0.338392	-0.353067	0.000693	0.012642	-0.018521	0.018737
139	0.692777	0.005000	0.688606	-1.020240	-10.223926	-0.338171	-0.353508	0.001063	0.011371	0.002349	-0.002633
140	0.697777	0.005000	0.691016	-1.020240	-10.187096	-0.337951	-0.353950	0.001433	0.011407	-0.003058	0.000006
141	0.702777	0.005000	0.719148	-0.993828	-10.202400	-0.337730	-0.354391	0.001803	0.012495	0.005141	0.003922
142	0.707777	0.005000	0.706320	-1.031056	-10.173976	-0.337509	-0.354833	0.002173	0.006772	0.001620	0.013903
143	0.712777	0.005000	0.675620	-1.020240	-10.137541	-0.337288	-0.355275	0.002542	0.012503	-0.015175	0.010929
144	0.717777	0.005000	0.772552	-1.053356	-10.130044	-0.337067	-0.355716	0.002912	-0.012672	-0.001782	0.000792
145	0.722777	0.005000	0.706320	-0.976870	-10.123920	-0.336847	-0.356158	0.003282	-0.010442	-0.007103	0.012027
146	0.727777	0.005000	0.667080	-1.022015	-10.163160	-0.336626	-0.356599	0.003652	-0.021938	-0.009579	0.007315
147	0.732777	0.005000	0.667080	-1.020875	-10.163160	-0.336405	-0.357041	0.004022	-0.037434	-0.012219	0.001941
148	0.737777	0.005000	0.709330	-0.908541	-10.238630	-0.336184	-0.357483	0.004392	-0.050064	-0.010741	0.009873
149	0.742777	0.005000	0.706320	-0.902520	-10.202400	-0.335963	-0.357924	0.004761	-0.055885	-0.002446	0.003290
150	0.747777	0.005000	0.674475	-0.981000	-10.131315	-0.336096	-0.358484	0.005526	-0.048998	-0.003960	0.010726
151	0.752777	0.005000	0.775103	-1.030390	-10.212097	-0.336869	-0.359257	0.007006	-0.061574	-0.008443	-0.003338
152	0.757777	0.005000	0.718074	-0.820061	-10.131695	-0.337643	-0.360031	0.008487	-0.058193	-0.008257	-0.004444
153	0.762777	0.005000	0.706320	-0.860034	-10.070518	-0.338416	-0.360804	0.009968	-0.059277	0.003570	0.002491
154	0.767777	0.005000	0.768226	-0.846706	-10.179734	-0.339190	-0.361578	0.011448	-0.054110	-0.003095	-0.004307
155	0.772777	0.005000	0.725078	-0.923002	-10.202400	-0.339963	-0.362351	0.012929	-0.042870	-0.014130	0.006774
156	0.777777	0.005000	0.669698	-0.923449	-10.320120	-0.340737	-0.363125	0.014410	-0.030507	-0.002869	-0.001824
157	0.782777	0.005000	0.604501	-0.879181	-10.280880	-0.341510	-0.363898	0.015890	-0.017163	-0.007431	0.001653
158	0.787777	0.005000	0.694672	-0.849484	-10.137716	-0.342284	-0.364672	0.017371	-0.005019	-0.003452	0.000611
159	0.792777	0.005000	0.722748	-0.812634	-10.241640	-0.343057	-0.365445	0.018852	0.000742	0.004862	0.008168
160	0.797777	0.005000	0.745560	-0.833177	-10.172297	-0.343831	-0.366219	0.020333	0.013582	-0.006659	0.006569
161	0.802777	0.005000	0.784800	-0.935039	-10.221476	-0.344604	-0.366992	0.021813	0.025744	-0.001102	0.004941
162	0.807777	0.005000	0.770641	-0.893081	-10.123920	-0.345378	-0.367766	0.023294	0.032338	-0.010566	0.006183
163	0.812777	0.005000	0.860908	-0.865652	-10.202400	-0.346151	-0.368539	0.024775	0.037524	0.001027	0.007768
164	0.817777	0.005000	0.863235	-0.902520	-10.202400	-0.346737	-0.368751	0.025523	0.035682	-0.006702	0.003190
165	0.822777	0.005000	0.708295	-0.904495	-10.198450	-0.347289	-0.368861	0.026139	0.025813	0.001459	0.010690
166	0.827777	0.005000	0.745560	-0.898128	-10.219969	-0.347841	-0.368971	0.026755	0.029454	-0.000186	0.007034
167	0.832777	0.005000	0.778084	-0.928327	-10.234924	-0.348393	-0.369082	0.027372	0.029832	-0.006178	0.013305
168	0.837777	0.005000	0.727347	-0.941760	-10.181373	-0.348945	-0.369192	0.027988	0.011523	-0.012598	0.014506
169	0.842777	0.005000	0.706320	-0.981000	-10.152003	-0.349497	-0.369302	0.028604	0.004615	-0.016731	0.010872
170	0.847777	0.005000	0.784800	-0.981000	-10.202400	-0.350049	-0.369413	0.029221	-0.015454	0.001618	0.012463
171	0.852777	0.005000	0.675218	-0.910658	-10.186607	-0.350601	-0.369523	0.029837	-0.014351	0.000426	0.006633
172	0.857777	0.005000	0.706320	-0.963079	-10.241640	-0.351153	-0.369633	0.030454	-0.013690	-0.001540	0.004044
173	0.862777	0.005000	0.667080	-0.959244	-10.084680	-0.351705	-0.369744	0.031070	-0.024228	0.000309	0.003712
174	0.867777	0.005000	0.667080	-1.042719	-10.123920	-0.352257	-0.369854	0.031686	-0.008656	-0.007169	0.013225
175	0.872777	0.005000	0.716451	-1.005686	-10.241640	-0.352808	-0.369965	0.032303	-0.016162	-0.000787	0.010701
176	0.877777	0.005000	0.757701	-1.110861	-10.187442	-0.353360	-0.370075	0.032919	-0.009625	0.001637	0.003023
177	0.882777	0.005000	0.774725	-1.059480	-10.192325	-0.353332	-0.369895	0.032644	-0.011041	0.003790	0.005860
178	0.887777	0.005000	0.761140	-1.051690	-10.186530	-0.352118	-0.369122	0.030549	-0.006514	0.001629	0.003665
179	0.892777	0.005000	0.857906	-1.127212	-10.236266	-0.350903	-0.368349	0.028453	0.003466	0.004379	0.009904
180	0.897777	0.005000	0.742156	-1.049269	-10.313313	-0.349689	-0.367577	0.026357	-0.001517	0.013248	0.008237
181	0.902777	0.005000	0.706320	-0.981000	-10.200348	-0.348474	-0.366804	0.024261	-0.006002	0.001954	0.004673
182	0.907777	0.005000	0.744199	-1.018879	-10.161799	-0.347260	-0.366031	0.022166	-0.014496	0.006808	0.007404
183	0.912777	0.005000	0.745560	-1.162194	-10.120168	-0.346045	-0.365258	0.020070	-0.016779	0.002959	-0.007024
184	0.917777	0.005000	0.672819	-1.070958	-10.157421	-0.344831	-0.364485	0.017974	-0.013508	0.009937	0.010258
185	0.922777	0.005000	0.776655	-1.003950	-10.115775	-0.343617	-0.363712	0.015878	-0.020635	0.017680	-0.000509
186	0.927777	0.005000	0.843101	-1.068452	-10.055529	-0.342402	-0.362940	0.013782	-0.023610	-0.004062	0.001588
187	0.932777	0.005000	0.799033	-0.993504	-10.164889	-0.341188	-0.362167	0.011687	-0.030233	0.006946	0.001222
188	0.937777	0.005000	0.760472	-1.020240	-10.163160	-0.339973	-0.361394	0.009591	-0.030163	-0.002955	0.006906
189	0.942777	0.005000	0.784800	-1.042356	-10.207392	-0.338759	-0.360621	0.007495	-0.027814	-0.001481	0.018187
190	0.947777	0.005000	0.766236	-1.000972	-10.281584	-0.337544	-0.359848	0.005399	-0.040603	0.007486	0.007270
191	0.952777	0.005000	0.806479	-0.985118	-10.180721	-0.337402	-0.359433	0.005000	-0.032192	0.002413	0.007910
192	0.957777	0.005000	0.730130	-0.910900	-10.154780	-0.337513	-0.359102	0.005000	-0.037500	0.010792	0.009978
193	0.962777	0.005000	0.680288	-0.902520	-10.163160	-0.337623	-0.358770	0.005000	-0.026034	0.001258	0.007249
194	0.967777	0.005000	0.656286	-0.884867	-10.213194	-0.337734	-0.358439	0.005000	-0.036576	-0.000362	0.018940
195	0.972777	0.005000	0.619081	-0.941760	-10.302603	-0.337844	-0.358108	0.005000	-0.022290	0.006087	0.004228
196	0.977777	0.005000	0.594969	-0.974631	-10.196031	-0.337955	-0.357776	0.005000	-0.018477	0.003635	0.010287
197	0.982777	0.005000	0.627840	-0.981000	-10.276840	-0.338065	-0.357445	0.005000	-0.022918	0.016282	0.011912
198	0.987777	0.005000	0.707943	-0.904143	-10.320120	-0.338176	-0.357114	0.005000	-0.014892	0.012906	0.021299
199	0.992777	0.005000	0.784479	-1.019597	-10.281201	-0.338286	-0.356782	0.005000	-0.008042	0.013639	0.020670
200	0.997777	0.005000	0.711770	-0.981000	-10.202400	-0.338397	-0.356451	0.005000	-0.003634	0.011962	0.014377
201	1.002777	0.005000	0.661997	-0.868363	-10.246723	-0.338507	-0.356120	0.005000	-0.006815	0.012416	0.015597
202	1.007777	0.005000	0.745560	-1.013154	-10.177332	-0.338618	-0.355788	0.005000	-0.011121	0.019218	0.005918
203	1.012777	0.005000	0.706320	-0.930997	-10.144175	-0.338728	-0.355457	0.005000	-0.005482	0.006947	0.018217
204	1.017777	0.005000	0.761927	-0.835477	-10.073243	-0.338839	-0.355322	0.004890	-0.017771	0.002439	0.003939
205	1.022777	0.005000	0.784800	-0.877130	-10.174699	-0.338949	-0.355653	0.004520	-0.011903	0.013327	0.009977
206	1.027777	0.005000	0.745560	-0.800865	-10.304055	-0.339060	-0.355985	0.004150	-0.003428	0.016289	0.017240
207	1.032777	0.005000	0.784800	-0.766345	-10.260095	-0.339170	-0.356316	0.003780	-0.010125	0.018426	0.003360
208	1.037777	0.005000	0.706320	-0.745560	-10.223015	-0.339281	-0.356647	0.003410	-0.013167	-0.001099	0.016119
209	1.042777	0.005000	0.784800	-0.807827	-10.218613	-0.339391	-0.356979	0.003040	-0.015962	0.016527	0.018871
210	1.047777	0.005000	0.709421	-0.827141	-10.177274	-0.339502	-0.357310	0.002670	-0.005197	0.013458	0.022283
211	1.052777	0.005000	0.718185	-0.851415	-10.175025	-0.339612	-0.357641	0.002300	-0.000346	0.021019	0.013831
212	1.057777	0.005000	0.765884	-0.794258	-10.163160	-0.339723	-0.357973	0.001930	-0.001181	0.015922	0.022953
213	1.062777	0.005000	0.760415	-0.863280	-10.266025	-0.339833	-0.358304	0.001560	0.004882	0.024196	0.025525
214	1.067777	0.005000	0.834237	-0.931563	-10.236542	-0.339944	-0.358635	0.001190	0.014918	0.023729	0.010896
215	1.072777	0.005000	0.897133	-0.863280	-10.244334	-0.340054	-0.358966	0.000820	0.020694	0.006071	0.016693
216	1.077777	0.005000	0.863004	-0.823764	-10.162609	-0.340165	-0.359298	0.000450	0.026834	0.020147	0.012283
217	1.082777	0.005000	0.711324	-0.784800	-9.934393	-0.340275	-0.359629	0.000080	0.035585	0.012750	0.014667
218	1.087777	0.005000	0.663007	-0.819967	-10.103557	-0.340472	-0.359355	0.000097	0.051001	0.006866	0.025165
219	1.092777	0.005000	0.751974	-0.883278	-10.123920	-0.340693	-0.358914	0.000220	0.032350	0.005936	0.021912
220	1.097777	0.005000	0.837982	-0.924895	-10.146295	-0.340913	-0.358472	0.000343	0.046051	0.011803	0.024129
221	1.102777	0.005000	0.756400	-0.845719	-10.152320	-0.341134	-0.358030	0.000466	0.038345	0.011895	0.016956
222	1.107777	0.005000	0.732520	-0.941760	-10.097780	-0.341355	-0.357589	0.000590	0.045114	0.000206	0.014912
223	1.112777	0.005000	0.736714	-0.863280	-10.202400	-0.341576	-0.357147	0.000713	0.043664	0.012412	0.013343
224	1.117777	0.005000	0.649473	-0.937733	-10.106313	-0.341797	-0.356706	0.000836	0.049715	0.008340	0.011841
225	1.122777	0.005000	0.706017	-0.902823	-10.163160	-0.342017	-0.356264	0.000960	0.046667	0.004312	0.018465
226	1.127777	0.005000	0.762845	-0.959045	-10.197730	-0.342238	-0.355823	0.001083	0.042549	0.006273	0.006414
227	1.132777	0.005000	0.721196	-1.010751	-10.226764	-0.342459	-0.355381	0.001206	0.038253	-0.003931	0.005766
228	1.137777	0.005000	0.772018	-0.968218	-10.242533	-0.342680	-0.354939	0.001330	0.024486	0.004625	0.000803
229	1.142777	0.005000	0.706320	-0.991518	-10.045440	-0.342901	-0.354498	0.001453	0.021628	0.000529	0.013043
230	1.147777	0.005000	0.729338	-0.949871	-10.146938	-0.343121	-0.354056	0.001576	0.010607	0.002834	0.003088
231	1.152777	0.005000	0.745560	-0.875473	-10.123920	-0.343197	-0.353789	0.001667	-0.002202	0.009326	0.004109
232	1.157777	0.005000	0.773547	-1.055729	-10.159409	-0.342865	-0.354010	0.001667	0.008303	-0.019165	0.012005
233	1.162777	0.005000	0.704973	-1.058133	-10.123920	-0.342534	-0.354231	0.001667	0.011853	-0.004529	0.003926
234	1.167777	0.005000	0.705261	-1.020240	-10.162101	-0.342203	-0.354452	0.001667	-0.003292	-0.004171	0.003292
235	1.172777	0.005000	0.703305	-0.981000	-10.120905	-0.341871	-0.354673	0.001667	-0.012842	-0.004077	0.001661
236	1.177777	0.005000	0.740140	-1.025660	-10.084680	-0.341540	-0.354894	0.001667	-0.014050	-0.002729	-0.007123
237	1.182777	0.005000	0.753305	-0.981000	-10.037695	-0.341208	-0.355115	0.001667	-0.018932	-0.009061	0.003469
238	1.187777	0.005000	0.706320	-1.000681	-10.084680	-0.340877	-0.355335	0.001667	-0.022432	-0.015038	-0.014029
239	1.192777	0.005000	0.733373	-0.941760	-10.099546	-0.340546	-0.355556	0.001667	-0.019140	-0.020676	-0.003395
240	1.197777	0.005000	0.731144	-0.981000	-10.177576	-0.340214	-0.355777	0.001667	-0.020348	0.001076	0.001231
241	1.202777	0.005000	0.790427	-0.924954	-10.163160	-0.339883	-0.355998	0.001667	-0.002103	-0.020349	-0.002724
242	1.207777	0.005000	0.806440	-1.001293	-10.183453	-0.339551	-0.356219	0.001667	-0.003968	-0.003919	-0.001804
243	1.212777	0.005000	0.724202	-0.941760	-10.123920	-0.339220	-0.356440	0.001667	-0.007159	-0.005076	-0.018218
244	1.217777	0.005000	0.855535	-1.051735	-10.108173	-0.338889	-0.356661	0.001667	0.011905	-0.010601	-0.001637
245	1.222777	0.005000	0.849751	-0.981000	-10.138796	-0.338972	-0.356550	0.002130	0.011028	0.004045	-0.016893
246	1.227777	0.005000	0.874395	-0.963990	-10.247534	-0.339193	-0.356329	0.002746	0.015812	-0.018672	-0.007836
247	1.232777	0.005000	0.845158	-1.062475	-10.093741	-0.339414	-0.356108	0.003363	0.011150	-0.011236	-0.009732
248	1.237777	0.005000	0.713006	-0.955132	-10.169846	-0.339634	-0.355888	0.003980	0.005331	-0.012587	-0.011949
249	1.242777	0.005000	0.710668	-1.133612	-10.245988	-0.339855	-0.355667	0.004596	0.007370	-0.011469	-0.005624
250	1.247777	0.005000	0.706320	-1.102607	-10.196569	-0.340076	-0.355446	0.005213	0.001353	-0.000855	-0.008312
251	1.252777	0.005000	0.706320	-1.216440	-10.163160	-0.340297	-0.355225	0.005830	0.003120	-0.007370	-0.001365
252	1.257777	0.005000	0.779964	-1.098720	-10.163160	-0.340518	-0.355004	0.006446	-0.001408	-0.008669	-0.006429
253	1.262777	0.005000	0.789565	-1.025005	-10.310590	-0.340739	-0.354783	0.007063	-0.005892	-0.020301	-0.006040
254	1.267777	0.005000	0.798334	-1.144727	-10.111748	-0.340960	-0.354562	0.007680	0.002266	-0.012396	-0.000463
255	1.272777	0.005000	0.754731	-1.068651	-10.006200	-0.341181	-0.354341	0.008296	-0.001620	-0.011746	-0.010770
256	1.277777	0.005000	0.773349	-1.048029	-10.168046	-0.341402	-0.354120	0.008913	-0.004325	-0.018928	-0.001486
257	1.282777	0.005000	0.733378	-1.163671	-10.098209	-0.341623	-0.353899	0.009530	-0.014239	-0.006065	-0.007096
258	1.287777	0.005000	0.635204	-1.106084	-10.116556	-0.341686	-0.353679	0.009854	-0.029912	-0.021365	0.002737
259	1.292777	0.005000	0.627840	-1.056515	-10.009165	-0.341245	-0.353458	0.009237	-0.019595	-0.003341	-0.002425
260	1.297777	0.005000	0.625146	-1.119013	-9.966960	-0.340803	-0.353237	0.008621	-0.032633	-0.002692	-0.005404
261	1.302777	0.005000	0.762095	-1.137960	-10.061975	-0.340361	-0.353016	0.008005	-0.044011	-0.008989	0.008481
262	1.307777	0.005000	0.799216	-1.113136	-10.099096	-0.339920	-0.352795	0.007388	-0.057776	0.006757	0.006786
263	1.312777	0.005000	0.838916	-1.022934	-10.072498	-0.339478	-0.352575	0.006772	-0.050558	-0.003334	0.005226
264	1.317777	0.005000	0.853512	-1.020240	-10.114152	-0.339037	-0.352354	0.006155	-0.059122	0.006081	0.002619
265	1.322777	0.005000	0.792530	-1.059480	-10.076950	-0.338595	-0.352133	0.005539	-0.061695	-0.028102	0.011172
266	1.327777	0.005000	0.757712	-1.127125	-10.056275	-0.338154	-0.351912	0.004923	-0.059311	-0.046887	0.008218
267	1.332777	0.005000	0.594602	-0.977999	-10.169162	-0.337712	-0.351691	0.004306	-0.051794	-0.050381	0.007000
268	1.337777	0.005000	0.589644	-1.018152	-10.279836	-0.337270	-0.351471	0.003690	-0.058373	-0.024528	0.020570
269	1.342777	0.005000	0.627840	-0.979653	-10.317425	-0.336829	-0.351250	0.003074	-0.081227	0.027493	0.015785
270	1.347777	0.005000	0.727029	-0.977294	-10.095799	-0.336387	-0.351029	0.002457	-0.091845	0.032444	0.020701
271	1.352777	0.005000	0.745560	-0.868975	-9.972655	-0.335946	-0.350808	0.001841	-0.067055	0.001657	0.020353
272	1.357777	0.005000	0.714431	-1.004018	-10.091475	-0.335980	-0.351222	0.001578	-0.034122	-0.048734	0.010271
273	1.362777	0.005000	0.745560	-0.999455	-10.097402	-0.336200	-0.351884	0.001455	-0.004480	-0.067583	0.022755
274	1.367777	0.005000	0.679542	-1.098720	-10.361213	-0.336421	-0.352547	0.001332	0.015582	-0.029124	0.008232
275	1.372777	0.005000	0.706320	-1.044604	-10.428351	-0.336642	-0.353210	0.001208	0.051046	-0.022430	-0.000153
276	1.377777	0.005000	0.717523	-1.003421	-10.437840	-0.336863	-0.353873	0.001085	0.066793	0.009811	0.002981
277	1.382777	0.005000	0.707101	-0.981000	-10.437840	-0.337084	-0.354535	0.000962	0.059414	0.022005	0.003190
278	1.387777	0.005000	0.763160	-0.902520	-10.328201	-0.337305	-0.355198	0.000838	0.048558	0.019300	0.013697
279	1.392777	0.005000	0.761035	-1.020240	-10.123920	-0.337526	-0.355861	0.000715	0.018912	0.022005	0.007238
280	1.397777	0.005000	0.810797	-1.020240	-10.044950	-0.337747	-0.356523	0.000592	-0.003579	0.003377	0.020103
281	1.402777	0.005000	0.745560	-0.902520	-9.849240	-0.337968	-0.357186	0.000468	-0.027050	-0.005899	0.014565
282	1.407777	0.005000	0.753981	-0.910941	-9.818421	-0.338189	-0.357849	0.000345	-0.024541	-0.036333	0.023287
283	1.412777	0.005000	0.739084	-0.993952	-9.875145	-0.338409	-0.358511	0.000221	-0.040755	-0.032095	0.016279
284	1.417777	0.005000	0.788873	-0.976927	-10.088753	-0.338630	-0.359174	0.000098	-0.054149	-0.022180	0.011184
285	1.422777	0.005000	0.824040	-0.943428	-10.318452	-0.338851	-0.359656	0.000000	-0.062289	-0.018121	0.015797
286	1.427777	0.005000	0.940933	-0.942036	-10.358809	-0.339072	-0.359435	0.000000	-0.064994	-0.007710	-0.004074
287	1.432777	0.005000	0.787494	-0.910601	-10.328201	-0.339293	-0.359214	0.000000	-0.058733	-0.021560	0.004042
288	1.437777	0.005000	0.721432	-0.951835	-10.197363	-0.339514	-0.358993	0.000000	-0.042732	-0.026394	-0.006878
289	1.442777	0.005000	0.667080	-1.013197	-10.163160	-0.339735	-0.358772	0.000000	-0.024266	-0.048140	-0.006136
290	1.447777	0.005000	0.755018	-0.990458	-10.321528	-0.339956	-0.358551	0.000000	-0.038077	-0.028172	0.003705
291	1.452777	0.005000	0.914244	-1.020240	-10.304327	-0.340177	-0.358330	0.000000	-0.045857	0.029174	-0.001418
292	1.457777	0.005000	0.930140	-0.930140	-10.255450	-0.340398	-0.358109	0.000000	-0.046505	0.046169	-0.002364
293	1.462777	0.005000	0.778005	-0.964778	-10.123920	-0.340618	-0.357889	0.000000	-0.033679	-0.013870	-0.000160
294	1.467777	0.005000	0.701479	-0.904940	-10.165580	-0.340839	-0.357668	0.000000	-0.030403	-0.062449	0.006538
295	1.472777	0.005000	0.590960	-0.981000	-10.239280	-0.341060	-0.357447	0.000000	-0.047253	-0.061292	0.014495
296	1.477777	0.005000	0.526373	-1.020240	-10.264627	-0.341281	-0.357226	0.000000	-0.057427	-0.015934	0.001843
297	1.482777	0.005000	0.680920	-0.955600	-10.056999	-0.341502	-0.357005	0.000000	-0.075587	0.025154	0.016953
298	1.487777	0.005000	0.761292	-0.863280	-9.774738	-0.341723	-0.356784	0.000000	-0.096083	0.052660	0.008231
299	1.492777	0.005000	0.824040	-0.913283	-9.780252	-0.341485	-0.356487	0.000341	-0.067324	-0.016675	0.011949
300	1.497777	0.005000	0.824040	-0.831126	-9.941892	-0.341044	-0.356156	0.000835	-0.030244	-0.091515	0.013147
301	1.502777	0.005000	0.696155	-0.936677	-10.261971	-0.340602	-0.355824	0.001328	0.010256	-0.132206	0.010910
302	1.507777	0.005000	0.588600	-0.975615	-10.524398	-0.340160	-0.355493	0.001821	0.049352	-0.084915	0.006230
303	1.512777	0.005000	0.667080	-0.864244	-10.673280	-0.339718	-0.355162	0.002315	0.061625	0.002035	0.002235
304	1.517777	0.005000	0.741415	-0.943832	-10.673280	-0.339277	-0.354830	0.002808	0.065198	0.075421	-0.001692
305	1.522777	0.005000	0.890399	-0.832121	-10.261842	-0.338835	-0.354499	0.003301	0.064838	0.114234	-0.011074
306	1.527777	0.005000	1.125069	-0.908966	-9.979851	-0.338393	-0.354168	0.003795	0.063796	0.065051	-0.000039
307	1.532777	0.005000	0.998722	-0.845558	-9.731520	-0.337951	-0.353836	0.004288	0.050595	0.020752	0.007517
308	1.537777	0.005000	0.818201	-0.824040	-9.675307	-0.337509	-0.353505	0.004782	0.049159	-0.045007	0.009436
309	1.542777	0.005000	0.706718	-0.941362	-9.861657	-0.337068	-0.353174	0.005275	0.054588	-0.067090	0.019348
310	1.547777	0.005000	0.588600	-0.981000	-10.006552	-0.336626	-0.352843	0.005768	0.051734	-0.059749	0.003790
311	1.552777	0.005000	0.649260	-1.023840	-10.234621	-0.336184	-0.352511	0.006262	0.055636	-0.046094	0.012016
312	1.557777	0.005000	0.707040	-1.059480	-10.281600	-0.335860	-0.352298	0.006579	0.027073	-0.021338	0.008287
313	1.562777	0.005000	0.644690	-1.009160	-10.336970	-0.336081	-0.352629	0.006086	0.018816	-0.025758	0.001264
314	1.567777	0.005000	0.735788	-0.941760	-10.310348	-0.336302	-0.352961	0.005592	0.000945	-0.031057	0.005936
315	1.572777	0.005000	0.758064	-0.941760	-10.334353	-0.336523	-0.353292	0.005099	-0.041550	-0.015266	-0.004595
316	1.577777	0.005000	0.804979	-0.970911	-10.153071	-0.336744	-0.353623	0.004606	-0.060598	0.019703	0.000329
317	1.582777	0.005000	0.824040	-0.989048	-10.006200	-0.336965	-0.353955	0.004112	-0.079307	0.026781	-0.011570
318	1.587777	0.005000	0.784800	-0.969655	-10.034564	-0.337186	-0.354286	0.003619	-0.069092	-0.028016	-0.008742
319	1.592777	0.005000	0.735593	-0.948405	-10.133887	-0.337407	-0.354617	0.003125	-0.040492	-0.054582	0.004189
320	1.597777	0.005000	0.666162	-0.943597	-10.241640	-0.337628	-0.354949	0.002632	-0.027602	-0.035347	-0.002045
321	1.602777	0.005000	0.627840	-0.905597	-10.318068	-0.337848	-0.355280	0.002139	-0.012871	-0.015509	0.017478
322	1.607777	0.005000	0.738673	-0.863280	-10.141137	-0.338069	-0.355611	0.001645	-0.008480	0.026824	-0.001959
323	1.612777	0.005000	0.824040	-0.902520	-10.000421	-0.338290	-0.355942	0.001152	-0.000065	0.001186	0.004760
324	1.617777	0.005000	0.792593	-0.973207	-9.919927	-0.338511	-0.356274	0.000659	0.015903	-0.009518	-0.000480
325	1.622777	0.005000	0.774592	-0.931552	-10.035232	-0.338732	-0.356605	0.000165	0.032294	-0.031992	-0.007254
326	1.627777	0.005000	0.718785	-1.073790	-10.179316	-0.339467	-0.357230	0.001641	0.066072	-0.029908	0.005498
327	1.632777	0.005000	0.720880	-1.074040	-10.241640	-0.340461	-0.358003	0.004108	0.068109	-0.023795	-0.002467
328	1.637777	0.005000	0.694669	-1.042516	-10.291505	-0.341455	-0.358777	0.006574	0.062640	-0.006976	0.000171
329	1.642777	0.005000	0.686231	-1.002027	-10.338333	-0.342449	-0.359550	0.009041	0.050095	0.009455	-0.013129
330	1.647777	0.005000	0.720844	-0.998921	-10.223719	-0.343444	-0.360323	0.011508	0.052459	0.001561	-0.003676
331	1.652777	0.005000	0.808531	-0.972778	-10.092902	-0.344438	-0.361096	0.013974	0.033556	0.011428	0.004104
332	1.657777	0.005000	0.810637	-1.020240	-10.148789	-0.345432	-0.361869	0.016441	0.035691	-0.004805	-0.012931
333	1.662777	0.005000	0.745560	-1.081794	-9.989274	-0.346426	-0.362643	0.018908	0.028289	-0.017997	0.000187
334	1.667777	0.005000	0.754302	-1.137960	-10.115178	-0.347420	-0.363416	0.021374	-0.007061	-0.005889	-0.006142
335	1.672777	0.005000	0.758993	-1.137960	-10.215833	-0.348414	-0.364189	0.023841	-0.014479	-0.028967	0.005599
336	1.677777	0.005000	0.745560	-0.989785	-10.250425	-0.349408	-0.364962	0.026308	-0.032703	-0.019226	0.002697
337	1.682777	0.005000	0.710270	-0.981000	-10.233740	-0.350402	-0.365735	0.028775	-0.050654	-0.015495	0.003304
338	1.687777	0.005000	0.706350	-0.941881	-10.163130	-0.351396	-0.366508	0.031241	-0.063955	-0.007527	0.019046
339	1.692777	0.005000	0.782427	-0.988119	-10.160787	-0.352138	-0.367198	0.033014	-0.069479	-0.005698	-0.005035
340	1.697777	0.005000	0.676550	-0.946495	-10.123920	-0.351476	-0.367418	0.030919	-0.063557	-0.022374	0.000781
341	1.702777	0.005000	0.667080	-0.909630	-10.181071	-0.350814	-0.367639	0.028823	-0.057411	-0.015755	0.000601
342	1.707777	0.005000	0.766520	-0.962720	-10.123920	-0.350151	-0.367860	0.026727	-0.032792	-0.030251	0.008253
343	1.712777	0.005000	0.824040	-1.024848	-10.340881	-0.349489	-0.368081	0.024631	-0.017684	-0.022661	0.009913
344	1.717777	0.005000	0.629988	-0.941760	-10.243788	-0.348826	-0.368302	0.022536	0.009812	-0.016795	-0.003967
345	1.722777	0.005000	0.643741	-0.981000	-10.139821	-0.348164	-0.368522	0.020440	0.025336	-0.016833	0.006569
346	1.727777	0.005000	0.701084	-0.939142	-10.165778	-0.347502	-0.368743	0.018344	0.035463	-0.006844	-0.001172
347	1.732777	0.005000	0.626115	-0.960518	-10.260398	-0.346839	-0.368964	0.016248	0.055729	-0.021585	0.003613
348	1.737777	0.005000	0.728986	-0.974909	-10.140494	-0.346177	-0.369185	0.014153	0.059075	-0.011041	-0.000133
349	1.742777	0.005000	0.696003	-1.034702	-10.117748	-0.345514	-0.369406	0.012057	0.077554	-0.000024	0.003774
350	1.747777	0.005000	0.718538	-0.993218	-10.253858	-0.344852	-0.369626	0.009961	0.078550	-0.005787	0.006867
351	1.752777	0.005000	0.794610	-1.069290	-10.271070	-0.344190	-0.369847	0.007865	0.072883	-0.010219	-0.000885
352	1.757777	0.005000	0.760350	-1.066875	-10.234245	-0.343527	-0.370068	0.005770	0.062396	-0.002443	0.011474
353	1.762777	0.005000	0.695549	-1.104105	-10.207785	-0.343144	-0.369380	0.004688	0.037018	0.002309	0.011114
354	1.767777	0.005000	0.706320	-1.137960	-10.160114	-0.342923	-0.368165	0.004194	0.027828	-0.012748	-0.003109
355	1.772777	0.005000	0.665991	-1.099809	-10.203489	-0.342702	-0.366950	0.003701	0.001964	0.000614	0.013627
356	1.777777	0.005000	0.589916	-1.175884	-10.203716	-0.342482	-0.365735	0.003208	-0.025494	0.004357	0.001755
357	1.782777	0.005000	0.741884	-1.173524	-10.056468	-0.342261	-0.364520	0.002714	-0.039776	-0.006774	0.000521
358	1.787777	0.005000	0.784800	-1.071582	-10.190298	-0.342040	-0.363305	0.002221	-0.060805	-0.008553	0.004361
359	1.792777	0.005000	0.807903	-1.036377	-10.241640	-0.341819	-0.362090	0.001728	-0.078688	-0.003680	0.009621
360	1.797777	0.005000	0.824040	-0.933970	-10.144887	-0.341598	-0.360875	0.001234	-0.089654	-0.013708	0.004171
361	1.802777	0.005000	0.730766	-0.929023	-10.216166	-0.341377	-0.359660	0.000741	-0.080764	-0.028201	0.005117
362	1.807777	0.005000	0.691484	-0.932191	-10.163160	-0.341156	-0.358446	0.000247	-0.078918	-0.033547	0.014839
363	1.812777	0.005000	0.728312	-0.907264	-10.224392	-0.340935	-0.357231	-0.000246	-0.074597	-0.009588	-0.009867
364	1.817777	0.005000	0.647657	-0.960790	-10.320120	-0.340714	-0.356016	-0.000739	-0.056756	-0.009335	-0.005230
365	1.822777	0.005000	0.727923	-0.855349	-10.324085	-0.340493	-0.354801	-0.001233	-0.040508	-0.008196	0.001324
366	1.827777	0.005000	0.612612	-0.893735	-10.304892	-0.340299	-0.353744	-0.001608	-0.016487	-0.013960	0.000656
367	1.832777	0.005000	0.758690	-0.863431	-10.202400	-0.340299	-0.353855	-0.001115	0.011666	-0.020946	0.008187
368	1.837777	0.005000	0.706320	-0.970130	-10.256751	-0.340299	-0.353965	-0.000621	0.032797	-0.004918	0.001925
369	1.842777	0.005000	0.728634	-0.950223	-10.333970	-0.340299	-0.354076	-0.000128	0.072243	-0.002639	0.007129
370	1.847777	0.005000	0.706320	-1.026684	-10.111032	-0.340299	-0.354186	0.000365	0.091462	0.009100	0.000047
371	1.852777	0.005000	0.698114	-1.059480	-10.167263	-0.340299	-0.354297	0.000859	0.122468	-0.007582	-0.000259
372	1.857777	0.005000	0.629539	-1.021939	-10.239941	-0.340299	-0.354407	0.001352	0.120374	0.005221	-0.005197
373	1.862777	0.005000	0.628536	-1.020936	-10.163856	-0.340299	-0.354518	0.001846	0.124022	0.008197	-0.000863
374	1.867777	0.005000	0.708969	-1.174551	-10.016795	-0.340299	-0.354628	0.002339	0.119600	-0.003603	0.006247
375	1.872777	0.005000	0.740494	-1.245549	-10.118854	-0.340299	-0.354739	0.002832	0.097759	0.003676	-0.010561
376	1.877777	0.005000	0.735848	-1.287538	-10.092062	-0.340299	-0.354849	0.003326	0.070230	0.000281	-0.002364
377	1.882777	0.005000	0.775384	-1.216440	-10.065848	-0.340299	-0.354960	0.003819	0.031288	0.010257	-0.001108
378	1.887777	0.005000	0.812210	-1.247599	-10.104009	-0.340299	-0.355070	0.004312	-0.003244	-0.004621	0.000669
379	1.892777	0.005000	0.798868	-1.306023	-10.084680	-0.340299	-0.355181	0.004806	-0.047387	-0.004181	0.007808
380	1.897777	0.005000	0.745560	-1.288597	-10.140378	-0.340232	-0.355291	0.004776	-0.102732	-0.018554	0.000020
381	1.902777	0.005000	0.745560	-1.135909	-10.043389	-0.340122	-0.355401	0.004406	-0.126281	-0.032050	0.010016
382	1.907777	0.005000	0.706320	-1.065022	-10.144926	-0.340011	-0.355512	0.004036	-0.151229	-0.021941	0.004816
383	1.912777	0.005000	0.667080	-0.997095	-10.107825	-0.339901	-0.355622	0.003666	-0.158907	-0.037240	0.016118
384	1.917777	0.005000	0.667080	-0.927879	-10.047843	-0.339790	-0.355733	0.003296	-0.161471	-0.024775	0.004300
385	1.922777	0.005000	0.667080	-0.874747	-10.246478	-0.339680	-0.355843	0.002926	-0.151829	-0.017465	0.003968
386	1.927777	0.005000	0.706320	-0.911929	-10.310711	-0.339569	-0.355953	0.002556	-0.146964	-0.008145	0.016013
387	1.932777	0.005000	0.681148	-0.952863	-10.163160	-0.339459	-0.356064	0.002186	-0.110135	-0.004122	0.001387
388	1.937777	0.005000	0.780086	-0.897806	-10.192973	-0.339348	-0.356174	0.001816	-0.064052	-0.017626	0.008342
389	1.942777	0.005000	0.704023	-0.944057	-10.243937	-0.339238	-0.356285	0.001446	-0.029494	-0.005565	0.007953
390	1.947777	0.005000	0.745908	-0.902520	-10.203096	-0.339127	-0.356395	0.001076	0.002995	0.004814	0.000134
391	1.952777	0.005000	0.859177	-0.828143	-10.243692	-0.339017	-0.356505	0.000706	0.032364	0.011063	0.004747
392	1.957777	0.005000	0.719571	-0.898103	-10.158743	-0.338906	-0.356616	0.000336	0.059603	0.024491	0.006739
393	1.962777	0.005000	0.856868	-0.928935	-10.169572	-0.338827	-0.356747	-0.000023	0.081607	0.004056	0.007075
394	1.967777	0.005000	0.693536	-0.981000	-10.023837	-0.339047	-0.357078	-0.000270	0.088786	0.001984	0.002520
395	1.972777	0.005000	0.784800	-0.981000	-10.084680	-0.339268	-0.357409	-0.000516	0.083033	-0.017201	0.005038
396	1.977777	0.005000	0.732674	-1.020240	-10.058617	-0.339489	-0.357741	-0.000763	0.079941	-0.007001	0.001224
397	1.982777	0.005000	0.682480	-1.137960	-10.132361	-0.339710	-0.358072	-0.001009	0.066348	-0.012764	-0.001923
398	1.987777	0.005000	0.745560	-1.098720	-10.062970	-0.339931	-0.358403	-0.001256	0.046566	-0.019639	0.006266
399	1.992777	0.005000	0.765501	-1.060766	-10.084680	-0.340151	-0.358734	-0.001502	0.021118	-0.013964	-0.000001
400	1.997777	0.005000	0.723474	-1.020240	-10.163160	-0.340372	-0.359065	-0.001749	0.003875	-0.016860	0.014367
401	2.002777	0.005000	0.682023	-1.044537	-10.069737	-0.340593	-0.359397	-0.001995	-0.043460	0.005099	0.009446
402	2.007777	0.005000	0.640379	-0.943383	-10.084680	-0.340814	-0.359728	-0.002242	-0.093962	-0.001538	0.005184
403	2.012777	0.005000	0.803104	-0.970532	-10.170996	-0.341035	-0.360059	-0.002488	-0.133657	-0.007102	0.010952
404	2.017777	0.005000	0.745560	-0.879466	-10.061626	-0.341255	-0.360390	-0.002735	-0.153350	-0.023963	0.006368
405	2.022777	0.005000	0.739788	-0.863280	-10.090452	-0.341476	-0.360722	-0.002981	-0.155998	-0.043142	0.017977
406	2.027777	0.005000	0.696219	-0.794901	-10.215868	-0.341697	-0.361053	-0.003228	-0.157206	-0.030386	0.013542
407	2.032777	0.005000	0.704422	-0.899672	-10.319171	-0.341537	-0.360940	-0.003121	-0.136664	-0.034593	0.008777
408	2.037777	0.005000	0.589595	-0.899536	-10.242635	-0.341095	-0.360498	-0.002750	-0.115010	-0.025303	0.021600
409	2.042777	0.005000	0.627840	-0.934962	-10.352562	-0.340653	-0.360056	-0.002380	-0.084546	-0.006557	0.001222
410	2.047777	0.005000	0.616209	-0.851649	-10.325936	-0.340211	-0.359614	-0.002010	-0.046721	0.003854	0.018609
411	2.052777	0.005000	0.698561	-0.824040	-10.178678	-0.339769	-0.359172	-0.001640	-0.014642	0.022363	-0.004858
412	2.057777	0.005000	0.745560	-0.863280	-10.221308	-0.339327	-0.358730	-0.001270	0.024399	0.004576	0.002798
413	2.062777	0.005000	0.704384	-0.916891	-10.282816	-0.338885	-0.358288	-0.000899	0.052204	0.019796	0.001511
414	2.067777	0.005000	0.652556	-0.912713	-10.251833	-0.338443	-0.357846	-0.000529	0.081230	0.004797	0.011192
415	2.072777	0.005000	0.639399	-0.863280	-10.224707	-0.338001	-0.357404	-0.000159	0.107983	0.007816	0.017177
416	2.077777	0.005000	0.687199	-0.862282	-10.163160	-0.337559	-0.356962	0.000211	0.139662	0.005537	0.007209
417	2.082777	0.005000	0.667080	-0.920264	-10.152919	-0.337117	-0.356520	0.000581	0.151796	0.005600	0.010420
418	2.087777	0.005000	0.690771	-1.003956	-10.241640	-0.336675	-0.356078	0.000951	0.146977	0.022790	0.000965
419	2.092777	0.005000	0.680216	-1.085584	-10.215536	-0.336233	-0.355636	0.001322	0.141834	0.016423	0.005314
420	2.097777	0.005000	0.706320	-1.048422	-10.112862	-0.335828	-0.355217	0.001667	0.120601	0.018748	0.006472
421	2.102777	0.005000	0.806471	-1.050695	-9.975745	-0.335939	-0.355106	0.001667	0.103264	0.010678	0.002132
422	2.107777	0.005000	0.699951	-0.974631	-10.045440	-0.336049	-0.354996	0.001667	0.072590	0.011199	0.008441
423	2.112777	0.005000	0.745560	-1.055108	-10.049812	-0.336159	-0.354885	0.001667	0.046859	0.012331	0.003239
424	2.117777	0.005000	0.743540	-1.024280	-10.163160	-0.336270	-0.354775	0.001667	0.021996	-0.007795	0.011697
425	2.122777	0.005000	0.667473	-1.098720	-10.085467	-0.336380	-0.354664	0.001667	0.001827	0.000742	0.006200
426	2.127777	0.005000	0.782458	-1.096378	-10.163160	-0.336491	-0.354554	0.001667	-0.030647	-0.007267	-0.004950
427	2.132777	0.005000	0.745560	-1.177200	-10.158414	-0.336601	-0.354444	0.001667	-0.050676	-0.008902	0.010409
428	2.137777	0.005000	0.745560	-1.119959	-10.209480	-0.336711	-0.354333	0.001667	-0.071702	-0.001988	0.001029
429	2.142777	0.005000	0.664264	-1.080508	-10.220612	-0.336822	-0.354223	0.001667	-0.077364	-0.017646	0.013804
430	2.147777	0.005000	0.639353	-1.043267	-10.096193	-0.336932	-0.354112	0.001667	-0.090705	-0.010386	0.005324
431	2.152777	0.005000	0.731794	-0.969292	-10.147337	-0.337042	-0.354002	0.001667	-0.087160	-0.012628	0.008465
432	2.157777	0.005000	0.777841	-0.950942	-10.163160	-0.337153	-0.353891	0.001667	-0.077153	-0.002530	0.005388
433	2.162777	0.005000	0.803073	-0.944454	-10.163160	-0.337263	-0.353781	0.001667	-0.056090	-0.000916	-0.000256
434	2.167777	0.005000	0.784800	-0.981000	-10.119664	-0.337434	-0.353610	0.001599	-0.047327	-0.012400	0.008877
435	2.172777	0.005000	0.729147	-1.043067	-10.202400	-0.337655	-0.353389	0.001476	-0.007705	-0.010091	-0.002365
436	2.177777	0.005000	0.656245	-1.098720	-10.320120	-0.337876	-0.353168	0.001353	0.037552	-0.021020	-0.000387
437	2.182777	0.005000	0.706320	-1.059480	-10.206273	-0.338097	-0.352947	0.001229	0.067883	-0.002695	0.004901
438	2.187777	0.005000	0.667080	-1.128233	-10.114193	-0.338318	-0.352726	0.001106	0.094085	-0.007510	-0.005535
439	2.192777	0.005000	0.681956	-1.137960	-10.067754	-0.338539	-0.352505	0.000982	0.104311	0.003099	-0.011301
440	2.197777	0.005000	0.824040	-1.177200	-10.158138	-0.338760	-0.352284	0.000859	0.128105	0.004170	-0.007330
441	2.202777	0.005000	0.706320	-1.107842	-10.196319	-0.338982	-0.352063	0.000735	0.136930	-0.000336	-0.003384
442	2.207777	0.005000	0.706986	-1.176534	-10.202400	-0.339203	-0.351842	0.000612	0.129565	0.013378	-0.003558
443	2.212777	0.005000	0.745560	-1.100465	-10.202400	-0.339424	-0.351621	0.000489	0.125157	0.002640	-0.012215
444	2.217777	0.005000	0.706320	-1.243382	-10.280880	-0.339645	-0.351400	0.000365	0.107768	0.003963	-0.004223
445	2.222777	0.005000	0.745560	-1.328067	-10.148294	-0.339866	-0.351179	0.000242	0.080275	0.006043	-0.015218
446	2.227777	0.005000	0.784800	-1.286411	-10.014709	-0.340087	-0.350958	0.000118	0.055405	-0.014669	-0.001518
447	2.232777	0.005000	0.845872	-1.233848	-10.084680	-0.340290	-0.350764	0.000000	0.022086	-0.001847	-0.020709
448	2.237777	0.005000	0.732641	-1.268599	-10.136839	-0.340069	-0.351206	0.000000	-0.012876	-0.016645	-0.008772
449	2.242777	0.005000	0.691056	-1.342871	-10.226376	-0.339848	-0.351647	0.000000	-0.057712	-0.006254	-0.006977
450	2.247777	0.005000	0.688644	-1.355724	-10.167047	-0.339627	-0.352089	0.000000	-0.091964	-0.020360	-0.008328
451	2.252777	0.005000	0.724539	-1.315941	-10.164094	-0.339407	-0.352530	0.000000	-0.111835	-0.023213	0.003579
452	2.257777	0.005000	0.818806	-1.177200	-10.157926	-0.339186	-0.352972	0.000000	-0.127026	-0.017784	-0.010373
453	2.262777	0.005000	0.735576	-1.137960	-10.173144	-0.338965	-0.353413	0.000000	-0.142910	-0.022740	0.003580
454	2.267777	0.005000	0.706320	-1.164814	-10.163160	-0.338744	-0.353855	0.000000	-0.139890	-0.018937	-0.005346
455	2.272777	0.005000	0.754865	-1.020240	-10.113942	-0.338523	-0.354297	0.000000	-0.132841	-0.023105	0.004604
456	2.277777	0.005000	0.682964	-1.082836	-10.163160	-0.338302	-0.354738	0.000000	-0.124273	-0.013772	0.004830
457	2.282777	0.005000	0.706320	-1.070718	-10.163160	-0.338081	-0.355180	0.000000	-0.105144	-0.003022	0.003665
458	2.287777	0.005000	0.673508	-1.059480	-10.136776	-0.337860	-0.355621	0.000000	-0.073318	-0.001231	0.017746
459	2.292777	0.005000	0.669591	-0.982256	-10.201144	-0.337640	-0.356063	0.000000	-0.051744	0.010228	0.013856
460	2.297777	0.005000	0.669376	-1.096424	-10.201252	-0.337419	-0.356505	0.000000	-0.014057	-0.005957	0.015129
461	2.302777	0.005000	0.667080	-1.134408	-10.170264	-0.337371	-0.356774	0.000129	-0.006278	0.008399	0.020583
462	2.307777	0.005000	0.727861	-1.086921	-10.023899	-0.337481	-0.356884	0.000375	0.020123	-0.002725	0.019315
463	2.312777	0.005000	0.776900	-1.028140	-10.076780	-0.337592	-0.356995	0.000622	0.026278	0.001729	0.023756
464	2.317777	0.005000	0.656765	-0.952075	-10.192085	-0.337702	-0.357105	0.000868	0.017158	0.009411	0.020956
465	2.322777	0.005000	0.693597	-0.994794	-10.111197	-0.337813	-0.357216	0.001115	0.023824	0.000283	0.032738
466	2.327777	0.005000	0.721281	-1.059480	-10.178121	-0.337923	-0.357326	0.001362	0.013016	0.012190	0.034792
467	2.332777	0.005000	0.711401	-1.076560	-10.057439	-0.338033	-0.357436	0.001608	-0.007662	-0.006644	0.033437
468	2.337777	0.005000	0.765050	-1.059740	-10.026210	-0.338144	-0.357547	0.001855	-0.020033	-0.003603	0.030238
469	2.342777	0.005000	0.727967	-1.159607	-10.137459	-0.338254	-0.357657	0.002102	-0.037778	-0.007562	0.024932
470	2.347777	0.005000	0.651684	-1.004844	-10.226244	-0.338365	-0.357768	0.002348	-0.054569	-0.010204	0.032347
471	2.352777	0.005000	0.706320	-0.941760	-10.280880	-0.338475	-0.357878	0.002595	-0.075871	-0.003035	0.025199
472	2.357777	0.005000	0.667080	-0.991907	-10.298307	-0.338586	-0.357989	0.002842	-0.087585	-0.020811	0.027061
473	2.362777	0.005000	0.675712	-0.941760	-10.280880	-0.338696	-0.358099	0.003088	-0.109227	0.001115	0.028181
474	2.367777	0.005000	0.706320	-0.968568	-10.320120	-0.338808	-0.358206	0.003334	-0.098519	-0.007232	0.023323
475	2.372777	0.005000	0.714761	-0.898300	-10.272439	-0.339029	-0.357875	0.003457	-0.094520	-0.003735	0.027700
476	2.377777	0.005000	0.782933	-0.939893	-10.204267	-0.339250	-0.357544	0.003581	-0.093910	-0.000808	0.013602
477	2.382777	0.005000	0.745560	-0.902520	-10.164219	-0.339470	-0.357212	0.003704	-0.077448	-0.010594	0.029863
478	2.387777	0.005000	0.739721	-0.902520	-10.163160	-0.339691	-0.356881	0.003827	-0.072164	-0.001634	0.028350
479	2.392777	0.005000	0.775005	-0.907417	-10.241640	-0.339912	-0.356549	0.003951	-0.044428	-0.005123	0.025725
480	2.397777	0.005000	0.759991	-0.927329	-10.248856	-0.340133	-0.356218	0.004074	-0.026894	-0.001737	0.030819
481	2.402777	0.005000	0.706320	-0.863280	-10.143948	-0.340354	-0.355887	0.004198	-0.004314	0.003700	0.017658
482	2.407777	0.005000	0.682996	-0.941760	-10.210909	-0.340575	-0.355555	0.004321	0.021593	-0.004532	0.021913
483	2.412777	0.005000	0.731490	-0.941760	-10.294950	-0.340796	-0.355224	0.004444	0.024140	0.001075	0.005822
484	2.417777	0.005000	0.676716	-0.889208	-10.195744	-0.341017	-0.354893	0.004568	0.047383	-0.007824	0.010678
485	2.422777	0.005000	0.706320	-0.826427	-10.186361	-0.341238	-0.354561	0.004691	0.047078	0.000976	0.023634
486	2.427777	0.005000	0.685483	-0.907389	-10.246509	-0.341459	-0.354230	0.004814	0.049388	-0.003674	0.016011
487	2.432777	0.005000	0.745560	-0.935044	-10.209116	-0.341679	-0.353898	0.004938	0.047578	-0.002851	0.013509
488	2.437777	0.005000	0.773659	-0.902520	-10.098729	-0.342283	-0.354496	0.006098	0.020566	-0.003674	0.008751
489	2.442777	0.005000	0.761529	-0.874916	-10.179129	-0.343276	-0.356041	0.008317	0.032358	-0.011131	0.006899
490	2.447777	0.005000	0.667080	-0.911748	-10.123920	-0.344270	-0.357587	0.010536	0.017089	0.008410	0.000591
491	2.452777	0.005000	0.745560	-0.981000	-10.209601	-0.345264	-0.359133	0.012755	0.016791	0.002832	0.005086
492	2.457777	0.005000	0.740678	-1.044834	-10.168042	-0.346257	-0.360678	0.014974	0.012529	0.007629	0.018017
493	2.462777	0.005000	0.784800	-0.863280	-10.234245	-0.347251	-0.362224	0.017193	-0.009930	0.004329	0.013341
494	2.467777	0.005000	0.744531	-0.902520	-10.085194	-0.348244	-0.363770	0.019412	-0.008520	-0.008287	0.018873
495	2.472777	0.005000	0.741794	-0.865163	-10.198634	-0.349238	-0.365315	0.021631	-0.021033	-0.003849	0.011645
496	2.477777	0.005000	0.815439	-0.933159	-10.233039	-0.350232	-0.366861	0.023851	-0.015522	-0.015928	0.007948
497	2.482777	0.005000	0.733143	-0.869986	-10.339242	-0.351225	-0.368407	0.026070	-0.005498	-0.007642	0.002332
498	2.487777	0.005000	0.688288	-0.911536	-10.507304	-0.352219	-0.369952	0.028289	-0.015077	0.014537	-0.016622
499	2.492777	0.005000	0.717385	-0.896475	-10.279855	-0.353213	-0.371498	0.030508	-0.032426	0.007025	0.010129
500	2.497777	0.005000	0.733266	-0.876753	-10.033146	-0.354206	-0.373044	0.032727	-0.019379	0.018299	0.000478
501	2.502777	0.005000	0.784800	-0.800502	-9.959094	-0.355200	-0.374589	0.034946	0.026668	0.020846	-0.000358
502	2.507777	0.005000	0.702739	-0.906101	-10.006200	-0.354793	-0.373442	0.033677	0.062495	0.020071	-0.002344
503	2.512777	0.005000	0.783560	-0.881040	-10.122680	-0.354352	-0.372228	0.032321	0.084696	0.004799	-0.007094
504	2.517777	0.005000	0.689468	-0.913835	-10.118383	-0.353910	-0.371013	0.030965	0.118338	-0.010886	-0.000473
505	2.522777	0.005000	0.716607	-0.995477	-10.256117	-0.353468	-0.369799	0.029609	0.136829	-0.003027	-0.000181
506	2.527777	0.005000	0.784800	-1.150193	-10.256414	-0.353027	-0.368585	0.028253	0.156428	-0.002775	0.008345
507	2.532777	0.005000	0.676833	-1.118302	-10.221982	-0.352585	-0.367370	0.026897	0.158246	0.025992	-0.001815
508	2.537777	0.005000	0.627840	-1.035821	-10.116129	-0.352144	-0.366156	0.025541	0.160958	0.022807	-0.007168
509	2.542777	0.005000	0.594079	-0.997437	-10.045440	-0.351702	-0.364941	0.024185	0.147694	0.033605	0.005423
510	2.547777	0.005000	0.633964	-1.071728	-10.120858	-0.351260	-0.363727	0.022829	0.150790	0.027608	-0.005323
511	2.552777	0.005000	0.589704	-1.140169	-10.123920	-0.350819	-0.362513	0.021473	0.128531	0.013437	-0.006060
512	2.557777	0.005000	0.703748	-1.140532	-10.161874	-0.350377	-0.361298	0.020117	0.106927	0.013737	-0.000080
513	2.562777	0.005000	0.599582	-1.137960	-10.127581	-0.349936	-0.360084	0.018760	0.096315	0.004529	0.008440
514	2.567777	0.005000	0.734265	-1.182847	-10.011847	-0.349494	-0.358869	0.017404	0.087054	0.020080	0.006346
515	2.572777	0.005000	0.714373	-1.239574	-10.092733	-0.349103	-0.358209	0.016273	0.070850	0.021579	0.004325
516	2.577777	0.005000	0.763864	-1.284452	-10.034972	-0.348772	-0.358209	0.015410	0.070496	0.017836	0.014905
517	2.582777	0.005000	0.772078	-1.282198	-10.005126	-0.348440	-0.358209	0.014547	0.049109	0.025027	0.010159
518	2.587777	0.005000	0.755159	-1.255680	-10.079459	-0.348109	-0.358209	0.013684	0.044104	0.011506	0.008457
519	2.592777	0.005000	0.735213	-1.177200	-10.157986	-0.347778	-0.358209	0.012821	0.038379	0.005774	0.012694
520	2.597777	0.005000	0.745560	-1.177200	-10.124808	-0.347447	-0.358209	0.011958	0.036479	-0.006700	0.008525
521	2.602777	0.005000	0.692602	-1.194853	-10.163160	-0.347115	-0.358209	0.011095	0.033550	-0.000265	0.015827
522	2.607777	0.005000	0.651831	-1.183707	-10.132662	-0.346784	-0.358209	0.010232	0.025976	0.004887	0.014170
523	2.612777	0.005000	0.562506	-1.203294	-10.163357	-0.346453	-0.358209	0.009369	0.035685	0.010676	0.023486
524	2.617777	0.005000	0.667080	-1.137960	-10.152263	-0.346122	-0.358209	0.008506	0.012937	0.021578	0.008669
525	2.622777	0.005000	0.422132	-1.455049	-10.114412	-0.345791	-0.358209	0.007643	0.034315	0.017791	0.006375
526	2.627777	0.005000	-0.118204	-1.681345	-9.326201	-0.345459	-0.358209	0.006780	-0.083028	0.251324	-0.041680
527	2.632777	0.005000	0.890993	-1.175597	-8.437477	-0.345128	-0.358209	0.005917	-0.275181	0.635744	-0.194876
528	2.637777	0.005000	2.359544	-0.574882	-7.163972	-0.344797	-0.358209	0.005054	-0.322760	0.467529	-0.265278
529	2.642777	0.005000	2.240764	0.033794	-9.001375	-0.343638	-0.357899	0.004769	-0.343972	-0.158494	-0.341217
530	2.647777	0.005000	1.671780	0.198833	-11.580546	-0.342424	-0.357567	0.004522	-0.136219	-0.670205	-0.341893
531	2.652777	0.005000	1.021403	-0.415326	-11.914972	-0.341209	-0.357236	0.004276	0.296340	-0.773730	-0.221996
532	2.657777	0.005000	0.539588	-1.142770	-11.178590	-0.339995	-0.356905	0.004029	0.463626	-0.747943	-0.204359
533	2.662777	0.005000	0.431640	-1.560055	-10.623859	-0.338780	-0.356574	0.003783	0.414091	-0.671750	-0.192559
534	2.667777	0.005000	0.470880	-1.648080	-10.116329	-0.337566	-0.356242	0.003536	0.472222	-0.603622	-0.095493
535	2.672777	0.005000	0.560494	-1.591867	-10.042520	-0.336352	-0.355911	0.003290	0.446972	-0.556909	-0.001141
536	2.677777	0.005000	0.814777	-1.772705	-9.927720	-0.335137	-0.355580	0.003043	0.180735	-0.507434	0.120109
537	2.682777	0.005000	0.745560	-2.019811	-9.671611	-0.333923	-0.355249	0.002797	-0.021162	-0.510122	0.215168
538	2.687777	0.005000	0.669319	-1.906498	-9.694519	-0.332708	-0.354918	0.002550	-0.076521	-0.515588	0.251693
539	2.692777	0.005000	0.683394	-1.589434	-9.787074	-0.331494	-0.354586	0.002304	-0.120269	-0.511230	0.302007
540	2.697777	0.005000	0.546895	-1.289990	-10.098582	-0.330279	-0.354255	0.002057	-0.150819	-0.504299	0.298552
541	2.702777	0.005000	0.443133	-0.845053	-10.456067	-0.329065	-0.353924	0.001811	-0.122797	-0.489381	0.283024
542	2.707777	0.005000	0.412761	-0.813118	-10.703081	-0.328496	-0.353685	0.001564	-0.046411	-0.454469	0.293797
543	2.712777	0.005000	0.306785	-1.088018	-10.769596	-0.328828	-0.353574	0.001317	0.009492	-0.370055	0.299913
544	2.717777	0.005000	0.318649	-1.422098	-10.747031	-0.329159	-0.353464	0.001070	0.030887	-0.297868	0.308543
545	2.722777	0.005000	0.353160	-1.564094	-10.639546	-0.329491	-0.353354	0.000824	-0.002825	-0.236089	0.298342
546	2.727777	0.005000	0.352425	-1.491120	-10.712520	-0.329822	-0.353243	0.000577	-0.089475	-0.193477	0.286943
547	2.732777	0.005000	0.311908	-1.491120	-10.749748	-0.330153	-0.353133	0.000330	-0.187292	-0.134060	0.316188
548	2.737777	0.005000	0.231459	-1.565619	-10.743799	-0.330485	-0.353022	0.000084	-0.275026	-0.071180	0.339234
549	2.742777	0.005000	0.136911	-1.569600	-10.731711	-0.330816	-0.352912	-0.000163	-0.361143	0.005720	0.381826
550	2.747777	0.005000	-0.073703	-1.269260	-10.791000	-0.331147	-0.352802	-0.000410	-0.422895	0.119532	0.411380
551	2.752777	0.005000	-0.168048	-1.025353	-10.628065	-0.331479	-0.352691	-0.000657	-0.510272	0.275152	0.470246
552	2.757777	0.005000	-0.052820	-0.902306	-10.307612	-0.331810	-0.352581	-0.000903	-0.565336	0.420561	0.527944
553	2.762777	0.005000	0.746876	-1.295578	-9.841129	-0.332142	-0.352470	-0.001150	-0.649769	0.472972	0.522077
554	2.767777	0.005000	0.859559	-1.294920	-9.738963	-0.332473	-0.352360	-0.001397	-0.642797	0.383658	0.455209
555	2.772777	0.005000	0.745560	-1.470007	-9.869756	-0.332804	-0.352250	-0.001643	-0.725139	0.312170	0.442616
556	2.777777	0.005000	0.807787	-1.507373	-9.680787	-0.333136	-0.354038	-0.001555	-0.844564	0.222133	0.446640
557	2.782777	0.005000	0.962245	-1.329904	-9.907235	-0.333467	-0.356027	-0.001432	-0.888976	0.120733	0.431091
558	2.787777	0.005000	0.902520	-1.204036	-10.111516	-0.333799	-0.358016	-0.001309	-0.906549	0.056089	0.422267
559	2.792777	0.005000	0.696173	-1.127813	-10.094827	-0.334130	-0.360005	-0.001185	-0.907456	0.010343	0.440956
560	2.797777	0.005000	0.682543	-1.161155	-10.335583	-0.334462	-0.361994	-0.001062	-0.927042	-0.004280	0.404403
561	2.802777	0.005000	0.751278	-1.249962	-10.729674	-0.334793	-0.363983	-0.000938	-0.939981	-0.020379	0.365036
562	2.807777	0.005000	0.702938	-1.098720	-11.121831	-0.335125	-0.365972	-0.000815	-0.961975	0.006589	0.336048
563	2.812777	0.005000	0.666115	-1.094862	-11.420769	-0.335456	-0.367961	-0.000691	-0.914735	0.059015	0.325067
564	2.817777	0.005000	0.552204	-0.903942	-11.610774	-0.335787	-0.369950	-0.000568	-0.739825	0.076637	0.341662
565	2.822777	0.005000	0.395784	-1.124426	-11.804473	-0.336119	-0.371939	-0.000445	-0.574512	0.046477	0.317331
566	2.827777	0.005000	0.202000	-0.975200	-12.298159	-0.336450	-0.373928	-0.000321	-0.519508	-0.048797	0.299838
567	2.832777	0.005000	-0.083986	-1.059480	-12.891142	-0.336782	-0.375917	-0.000198	-0.611501	-0.136529	0.309685
568	2.837777	0.005000	-0.606874	-0.913003	-13.289184	-0.337113	-0.377905	-0.000074	-0.757965	-0.187871	0.312092
569	2.842777	0.005000	-0.743983	-0.679634	-13.514268	-0.337796	-0.379894	-0.000735	-0.883115	-0.215933	0.289890
570	2.847777	0.005000	-0.555023	-0.534392	-13.821785	-0.339010	-0.381881	-0.002584	-0.918278	-0.264151	0.257229
571	2.852777	0.005000	-0.304948	-0.409777	-13.912823	-0.340224	-0.383868	-0.004433	-0.999974	-0.258824	0.278943
572	2.857777	0.005000	-0.117720	-0.372719	-13.733758	-0.341439	-0.385855	-0.006283	-1.129331	-0.193977	0.315483
573	2.862777	0.005000	0.074256	-0.357384	-13.380228	-0.342653	-0.387843	-0.008132	-1.251813	-0.071555	0.400036
574	2.867777	0.005000	0.280728	-0.235440	-12.774097	-0.343868	-0.389830	-0.009981	-1.386364	0.144102	0.519648
575	2.872777	0.005000	0.574834	-0.326914	-12.125931	-0.345082	-0.391817	-0.011830	-1.491484	0.354809	0.639159
576	2.877777	0.005000	0.927741	-0.313920	-11.550579	-0.346297	-0.393804	-0.013679	-1.539699	0.566015	0.755624
577	2.882777	0.005000	1.249755	-0.330577	-10.993125	-0.347511	-0.395792	-0.015529	-1.540339	0.736286	0.834958
578	2.887777	0.005000	1.463725	-0.347237	-10.673280	-0.348725	-0.397779	-0.017378	-1.499007	0.876218	0.892106
579	2.892777	0.005000	1.550025	-0.274680	-10.661481	-0.349940	-0.399766	-0.019227	-1.423166	0.999130	0.901975
580	2.897777	0.005000	1.607278	-0.237002	-10.513197	-0.351154	-0.401753	-0.021076	-1.339420	1.064579	0.891024
581	2.902777	0.005000	1.646416	-0.313088	-10.476248	-0.352369	-0.403741	-0.022926	-1.262082	1.098377	0.854111
582	2.907777	0.005000	1.577959	-0.241013	-10.704161	-0.353583	-0.405728	-0.024775	-1.195241	1.124455	0.811776
583	2.912777	0.005000	1.344540	-0.347970	-11.141879	-0.356544	-0.407716	-0.025000	-1.141550	1.141678	0.785213
584	2.917777	0.005000	1.106238	-0.313920	-11.372082	-0.359747	-0.409704	-0.025000	-1.103275	1.207064	0.797764
585	2.922777	0.005000	1.029790	-0.422090	-11.498361	-0.362950	-0.411692	-0.025000	-1.040931	1.281704	0.826296
586	2.927777	0.005000	1.078174	-0.510120	-11.415472	-0.366153	-0.413680	-0.025000	-0.985659	1.364060	0.856677
587	2.932777	0.005000	2.188031	-0.449218	-11.036560	-0.369356	-0.415668	-0.025000	-0.919519	1.409352	0.851256
588	2.937777	0.005000	4.785046	0.851343	-11.039234	-0.372559	-0.417657	-0.025000	-1.499032	1.631466	0.946596
589	2.942777	0.005000	5.267928	2.158200	-11.216455	-0.375762	-0.419645	-0.025000	-2.323841	1.814252	0.936192
590	2.947777	0.005000	3.698166	1.605739	-12.078296	-0.378966	-0.421633	-0.025000	-2.316041	1.799762	0.914924
591	2.952777	0.005000	2.351617	0.623665	-11.936251	-0.382169	-0.423621	-0.025000	-0.912256	1.810562	0.918584
592	2.957777	0.005000	1.814777	-0.398417	-11.668029	-0.385372	-0.425609	-0.025000	0.105369	1.668673	0.855560
593	2.962777	0.005000	1.698660	-0.515339	-11.929863	-0.388575	-0.427597	-0.025000	-0.176025	1.355260	0.687903
594	2.967777	0.005000	1.814328	0.035065	-12.446281	-0.391778	-0.429585	-0.025000	-0.827300	1.011861	0.496879
595	2.972777	0.005000	2.086701	0.623507	-12.773944	-0.394981	-0.431574	-0.025000	-1.058922	0.701623	0.338433
596	2.977777	0.005000	2.114384	0.745560	-12.808600	-0.396894	-0.433521	-0.025675	-0.949973	0.469936	0.226394
597	2.982777	0.005000	2.024869	0.585998	-12.496745	-0.396563	-0.435399	-0.027525	-0.827725	0.261618	0.161321
598	2.987777	0.005000	1.725871	0.509661	-12.045762	-0.396231	-0.437277	-0.029375	-0.843963	0.094768	0.098250
599	2.992777	0.005000	1.608840	0.468717	-11.704336	-0.395900	-0.439154	-0.031225	-0.922552	-0.031318	0.031443
600	2.997777	0.005000	1.687320	0.461804	-11.314734	-0.395569	-0.441032	-0.033075	-0.992029	-0.095329	-0.000827
601	3.002777	0.005000	1.654617	0.568988	-10.862927	-0.395237	-0.442910	-0.034925	-1.019545	-0.113502	-0.028546
602	3.007777	0.005000	1.747894	0.579647	-10.461271	-0.394906	-0.444787	-0.036776	-0.995581	-0.085944	-0.015147
603	3.012777	0.005000	1.911863	0.510120	-10.099923	-0.394574	-0.446665	-0.038626	-0.938681	-0.044551	-0.019159
604	3.017777	0.005000	1.974631	0.614535	-9.915089	-0.394243	-0.448543	-0.040476	-0.850412	-0.036633	-0.060860
605	3.022777	0.005000	2.001240	0.604136	-9.849240	-0.393912	-0.450420	-0.042326	-0.779422	-0.046625	-0.104819
606	3.027777	0.005000	1.883520	0.645501	-9.849240	-0.393580	-0.452298	-0.044176	-0.751648	-0.038752	-0.139353
607	3.032777	0.005000	1.921857	0.725488	-9.790832	-0.393249	-0.454175	-0.046026	-0.751626	-0.022476	-0.137596
608	3.037777	0.005000	1.995516	0.880038	-9.810000	-0.392917	-0.456053	-0.047876	-0.751897	0.034305	-0.128491
609	3.042777	0.005000	2.050434	0.985689	-9.795357	-0.392586	-0.457931	-0.049726	-0.740615	0.086205	-0.106300
610	3.047777	0.005000	2.104522	1.123522	-9.640639	-0.393007	-0.459056	-0.051051	-0.733047	0.152140	-0.070574
611	3.052777	0.005000	2.178187	1.137960	-9.486086	-0.393560	-0.460050	-0.052284	-0.737144	0.235759	-0.084346
612	3.057777	0.005000	2.275920	1.137960	-9.464797	-0.394112	-0.461044	-0.053517	-0.732439	0.300097	-0.091885
613	3.062777	0.005000	2.404935	1.289273	-9.451193	-0.394664	-0.462038	-0.054751	-0.710823	0.376682	-0.109690
614	3.067777	0.005000	2.429650	1.370170	-9.502541	-0.395217	-0.463032	-0.055984	-0.689684	0.426586	-0.109097
615	3.072777	0.005000	2.352747	1.371747	-9.652214	-0.395769	-0.464026	-0.057218	-0.694804	0.490471	-0.093098
616	3.077777	0.005000	2.237798	1.294920	-9.728167	-0.396321	-0.465020	-0.058451	-0.711458	0.554500	-0.070304
617	3.082777	0.005000	2.129566	1.184271	-9.731520	-0.396873	-0.466014	-0.059684	-0.728928	0.604967	-0.035747
618	3.087777	0.005000	2.073851	1.183069	-9.770760	-0.397426	-0.467008	-0.060918	-0.728045	0.667491	-0.013638
619	3.092777	0.005000	2.087605	1.036009	-9.676694	-0.397978	-0.468002	-0.062151	-0.710102	0.659591	0.019857
620	3.097777	0.005000	1.963959	0.912820	-9.622141	-0.398530	-0.468996	-0.063384	-0.736177	0.627111	0.022890
621	3.102777	0.005000	1.896076	0.758116	-9.599671	-0.399082	-0.469990	-0.064618	-0.774912	0.537809	0.024112
622	3.107777	0.005000	1.858932	0.976284	-9.638388	-0.399635	-0.470985	-0.065851	-0.806529	0.434408	0.012406
623	3.112777	0.005000	1.586664	0.981000	-9.810000	-0.400112	-0.472053	-0.066876	-0.845036	0.330639	-0.015838
624	3.117777	0.005000	1.510362	0.882522	-9.710765	-0.400443	-0.473268	-0.067492	-0.843768	0.206786	-0.020195
625	3.122777	0.005000	1.376998	0.809817	-9.810000	-0.400775	-0.474482	-0.068108	-0.833375	0.124469	-0.031265
626	3.127777	0.005000	1.357983	0.902520	-9.746937	-0.401106	-0.475696	-0.068725	-0.810278	0.021071	-0.033563
627	3.132777	0.005000	1.334374	1.033249	-9.692494	-0.401437	-0.476911	-0.069341	-0.817429	-0.071769	-0.031139
628	3.137777	0.005000	1.244743	1.159834	-9.602863	-0.401768	-0.478125	-0.069958	-0.819632	-0.117553	-0.016817
629	3.142777	0.005000	1.233741	1.320871	-9.518019	-0.402100	-0.479340	-0.070574	-0.823370	-0.135385	0.051289
630	3.147777	0.005000	1.313652	1.379644	-9.299880	-0.402431	-0.480554	-0.071190	-0.834177	-0.106267	0.104845
631	3.152777	0.005000	1.508123	1.625843	-9.221400	-0.402762	-0.481769	-0.071807	-0.801867	-0.027376	0.172437
632	3.157777	0.005000	1.892823	1.928342	-9.056997	-0.403093	-0.482983	-0.072423	-0.713939	0.071441	0.218453
633	3.162777	0.005000	2.234598	2.156638	-8.791322	-0.403424	-0.484197	-0.073040	-0.554779	0.133303	0.247827
634	3.167777	0.005000	2.427071	2.203249	-8.901671	-0.403756	-0.485412	-0.073656	-0.437792	0.172468	0.253416
635	3.172777	0.005000	2.580076	2.408470	-9.084152	-0.404087	-0.486626	-0.074272	-0.422919	0.195193	0.238314
636	3.177777	0.005000	2.692985	2.489497	-9.238777	-0.404418	-0.487841	-0.074889	-0.478191	0.240148	0.244046
637	3.182777	0.005000	2.786040	2.482251	-9.466971	-0.405836	-0.488784	-0.075707	-0.555391	0.323309	0.217887
638	3.187777	0.005000	2.864520	2.683629	-9.680314	-0.407492	-0.489668	-0.076571	-0.571161	0.383970	0.188427
639	3.192777	0.005000	2.811225	2.797171	-9.717465	-0.409149	-0.490551	-0.077434	-0.587999	0.498575	0.168053
640	3.197777	0.005000	2.612613	2.808813	-9.529015	-0.410806	-0.491435	-0.078298	-0.600175	0.607468	0.143202
641	3.202777	0.005000	2.631016	2.722339	-9.454904	-0.412463	-0.492318	-0.079161	-0.617112	0.738090	0.140976
642	3.207777	0.005000	2.765226	2.571414	-9.263027	-0.414119	-0.493202	-0.080024	-0.634872	0.877888	0.124677
643	3.212777	0.005000	2.903760	2.400851	-9.039622	-0.415776	-0.494085	-0.080888	-0.623317	0.992450	0.130770
644	3.217777	0.005000	2.956902	2.303724	-8.932818	-0.417433	-0.494969	-0.081751	-0.614882	1.068679	0.128507
645	3.222777	0.005000	2.868775	2.303498	-8.919142	-0.419090	-0.495853	-0.082614	-0.597653	1.107886	0.127559
646	3.227777	0.005000	2.707560	2.218185	-8.946720	-0.420746	-0.496736	-0.083478	-0.615152	1.138531	0.141911
647	3.232777	0.005000	2.543384	2.079720	-8.964313	-0.422403	-0.497620	-0.084341	-0.657820	1.148427	0.139064
648	3.237777	0.005000	2.408393	2.001240	-8.814308	-0.424060	-0.498503	-0.085205	-0.687046	1.143129	0.143810
649	3.242777	0.005000	2.317640	1.876079	-8.708800	-0.425717	-0.499387	-0.086068	-0.691706	1.143643	0.127525
650	3.247777	0.005000	2.355459	1.883520	-8.710221	-0.427407	-0.500643	-0.086969	-0.695434	1.121930	0.099082
651	3.252777	0.005000	2.432880	1.920892	-8.670172	-0.429174	-0.502741	-0.087956	-0.677241	1.079709	0.086995
652	3.257777	0.005000	2.581369	2.001240	-8.567027	-0.430941	-0.504840	-0.088942	-0.676286	1.051000	0.065944
653	3.262777	0.005000	2.746800	2.151971	-8.548091	-0.432709	-0.506938	-0.089929	-0.688879	1.020772	0.058842
654	3.267777	0.005000	2.847456	2.275920	-8.654976	-0.434476	-0.509037	-0.090916	-0.722389	1.017901	0.026467
655	3.272777	0.005000	3.032059	2.450961	-8.582981	-0.436243	-0.511135	-0.091902	-0.748992	1.004840	0.007958
656	3.277777	0.005000	3.099960	2.590131	-8.659057	-0.438010	-0.513234	-0.092889	-0.784711	1.029490	-0.020917
657	3.282777	0.005000	3.202462	2.888542	-8.759324	-0.439777	-0.515332	-0.093876	-0.805529	1.077903	-0.040072
658	3.287777	0.005000	3.401101	2.938439	-8.872801	-0.441544	-0.517431	-0.094862	-0.841026	1.162527	-0.026124
659	3.292777	0.005000	3.551090	2.982240	-8.966210	-0.443312	-0.519529	-0.095849	-0.901049	1.249061	-0.014164
660	3.297777	0.005000	3.531600	2.964904	-8.924816	-0.445079	-0.521628	-0.096836	-0.989475	1.335705	0.028383
661	3.302777	0.005000	3.468256	2.840416	-9.034168	-0.446846	-0.523727	-0.097822	-1.100503	1.449101	0.035877
662	3.307777	0.005000	3.544323	2.903760	-8.802483	-0.448613	-0.525825	-0.098809	-1.191566	1.543351	0.053566
663	3.312777	0.005000	3.599430	2.932350	-8.761170	-0.450380	-0.527924	-0.099796	-1.240154	1.656180	0.054038
664	3.317777	0.005000	3.618451	3.013109	-8.806503	-0.454512	-0.529584	-0.103814	-1.239297	1.768537	0.061273
665	3.322777	0.005000	3.621991	3.009569	-8.789760	-0.459262	-0.531131	-0.108625	-1.278341	1.887841	0.080010
666	3.327777	0.005000	3.542252	2.989341	-8.711280	-0.464011	-0.532677	-0.113435	-1.349535	2.031580	0.102838
667	3.332777	0.005000	3.765452	3.103137	-8.789760	-0.468760	-0.534223	-0.118245	-1.443140	2.196573	0.146135
668	3.337777	0.005000	3.689371	3.255298	-8.751331	-0.473510	-0.535770	-0.123055	-1.513940	2.389931	0.191126
669	3.342777	0.005000	3.878407	3.260097	-8.639153	-0.478259	-0.537316	-0.127865	-1.548633	2.565823	0.223490
670	3.347777	0.005000	4.031401	3.222840	-8.711280	-0.483008	-0.538862	-0.132675	-1.579076	2.733924	0.260330
671	3.352777	0.005000	4.025170	3.288597	-8.806310	-0.487758	-0.540409	-0.137485	-1.651930	2.893429	0.283176
672	3.357777	0.005000	3.855595	3.178440	-8.789760	-0.492507	-0.541955	-0.142295	-1.742329	3.072292	0.341891
673	3.362777	0.005000	3.763566	3.084564	-8.660118	-0.497256	-0.543501	-0.147105	-1.877302	3.251993	0.376903
674	3.367777	0.005000	3.610080	2.996570	-8.390532	-0.502006	-0.545048	-0.151916	-1.957826	3.389965	0.398670
675	3.372777	0.005000	3.548149	2.965691	-8.054608	-0.506755	-0.546594	-0.156726	-1.986810	3.489269	0.416858
676	3.377777	0.005000	3.570840	2.963554	-7.743365	-0.511505	-0.548140	-0.161536	-1.977391	3.556128	0.421129
677	3.382777	0.005000	3.549743	3.036668	-7.500750	-0.515512	-0.549563	-0.167105	-1.958506	3.572545	0.457163
678	3.387777	0.005000	3.616924	3.217680	-7.203962	-0.517611	-0.550668	-0.174629	-1.947839	3.570188	0.486840
679	3.392777	0.005000	3.411753	3.058593	-6.929564	-0.519709	-0.551772	-0.182152	-1.935172	3.512806	0.505584
680	3.397777	0.005000	3.358817	3.021480	-6.404349	-0.521808	-0.552876	-0.189676	-1.926005	3.418580	0.461822
681	3.402777	0.005000	3.470466	3.089013	-6.014667	-0.523907	-0.553981	-0.197199	-1.869439	3.267635	0.392928
682	3.407777	0.005000	3.802163	3.310209	-5.722015	-0.526005	-0.555085	-0.204723	-1.742303	3.092512	0.325376
683	3.412777	0.005000	4.130244	3.463164	-5.557013	-0.528104	-0.556190	-0.212246	-1.621296	2.878139	0.251225
684	3.417777	0.005000	4.290480	3.683232	-5.459688	-0.530202	-0.557294	-0.219770	-1.550317	2.663146	0.212415
685	3.422777	0.005000	4.591861	3.768081	-5.572861	-0.532301	-0.558399	-0.227293	-1.534747	2.528647	0.145760
686	3.427777	0.005000	4.745922	4.035367	-5.726922	-0.534400	-0.559503	-0.234817	-1.528359	2.404069	0.106504
687	3.432777	0.005000	4.857584	4.335201	-5.658736	-0.536498	-0.560608	-0.242340	-1.531293	2.333785	0.088009
688	3.437777	0.005000	4.911504	4.479864	-5.329921	-0.538597	-0.561712	-0.249864	-1.516753	2.257112	0.049453
689	3.442777	0.005000	5.145888	4.442568	-4.815623	-0.540696	-0.562817	-0.257387	-1.447567	2.163067	-0.013344
690	3.447777	0.005000	5.168825	4.473360	-4.573550	-0.542794	-0.563921	-0.264911	-1.395677	2.058129	-0.082912
691	3.452777	0.005000	5.323371	4.551840	-4.173841	-0.543707	-0.565026	-0.269693	-1.331322	1.916643	-0.139984
692	3.457777	0.005000	5.628950	4.789698	-3.899972	-0.544260	-0.566130	-0.273639	-1.286637	1.784480	-0.210545
693	3.462777	0.005000	5.846760	5.030712	-3.827898	-0.544812	-0.567235	-0.277586	-1.224091	1.636952	-0.282035
694	3.467777	0.005000	6.042960	4.906653	-3.670180	-0.545364	-0.568339	-0.281533	-1.064216	1.546737	-0.286608
695	3.472777	0.005000	5.998607	4.877711	-3.830181	-0.545916	-0.569444	-0.285480	-0.958831	1.512425	-0.220030
696	3.477777	0.005000	6.082200	5.244396	-4.312174	-0.546468	-0.570548	-0.289426	-1.076285	1.373125	-0.196812
697	3.482777	0.005000	6.030518	5.595052	-4.729859	-0.547021	-0.571653	-0.293373	-1.058973	1.255335	-0.235070
698	3.487777	0.005000	5.983664	5.719012	-5.170525	-0.547573	-0.572757	-0.297320	-0.966234	1.108061	-0.308575
699	3.492777	0.005000	5.893987	5.791546	-5.431094	-0.548125	-0.573861	-0.301266	-0.869183	0.954243	-0.380996
700	3.497777	0.005000	5.936600	5.723360	-5.521480	-0.548677	-0.574966	-0.305213	-0.775134	0.812889	-0.452159
701	3.502777	0.005000	5.918690	5.683250	-5.529565	-0.549229	-0.576070	-0.309160	-0.650863	0.683706	-0.449044
702	3.507777	0.005000	6.080884	5.612636	-5.494916	-0.549782	-0.577175	-0.313107	-0.572034	0.631322	-0.422054
703	3.512777	0.005000	5.966653	5.536100	-5.265766	-0.550334	-0.578279	-0.317053	-0.544521	0.604330	-0.360163
704	3.517777	0.005000	4.180958	3.873098	-4.518814	-0.550690	-0.579272	-0.320937	-0.699565	0.719734	-0.280460
705	3.522777	0.005000	4.789668	3.893778	-3.833456	-0.550469	-0.579934	-0.324636	-1.433112	1.152435	-0.076461
706	3.527777	0.005000	5.525957	5.927433	-3.704081	-0.550248	-0.580597	-0.328334	-1.658261	1.392795	-0.026898
707	3.532777	0.005000	6.563120	6.425565	-3.570779	-0.550028	-0.581259	-0.332033	-1.475583	1.462541	-0.067467
708	3.537777	0.005000	7.370184	6.489436	-3.453120	-0.549807	-0.581922	-0.335731	-1.381137	1.394673	-0.088063
709	3.542777	0.005000	7.598114	6.666701	-3.620427	-0.549586	-0.582584	-0.339429	-1.474073	1.233289	-0.095076
710	3.547777	0.005000	7.342196	6.945480	-3.717363	-0.549365	-0.583247	-0.343128	-1.468505	0.996018	-0.127035
711	3.552777	0.005000	6.963148	6.884668	-3.983511	-0.549144	-0.583909	-0.346826	-1.291540	0.788789	-0.208145
712	3.557777	0.005000	6.791545	6.580264	-4.120200	-0.548924	-0.584572	-0.350525	-1.059359	0.615832	-0.304009
713	3.562777	0.005000	6.544571	6.223244	-4.261244	-0.548703	-0.585234	-0.354223	-0.874424	0.515171	-0.345808
714	3.567777	0.005000	6.578816	6.002449	-4.263656	-0.548482	-0.585897	-0.357922	-0.783082	0.493731	-0.369170
715	3.572777	0.005000	6.490968	6.042960	-4.254288	-0.548261	-0.586559	-0.361620	-0.706367	0.504302	-0.367577
716	3.577777	0.005000	6.532151	6.121440	-4.092734	-0.548040	-0.587221	-0.365319	-0.653798	0.577440	-0.358801
717	3.582777	0.005000	6.638309	6.193171	-3.937498	-0.547820	-0.587884	-0.369017	-0.622880	0.639696	-0.357049
718	3.587777	0.005000	6.675133	6.234827	-4.033054	-0.547194	-0.588384	-0.371901	-0.636501	0.706880	-0.347220
719	3.592777	0.005000	6.670800	6.199920	-4.041720	-0.546421	-0.588826	-0.374490	-0.696840	0.779011	-0.347018
720	3.597777	0.005000	6.631575	6.239145	-4.080945	-0.545648	-0.589267	-0.377078	-0.777646	0.827882	-0.325872
721	3.602777	0.005000	6.519719	6.241120	-4.235960	-0.544875	-0.589709	-0.379667	-0.855287	0.890565	-0.296358
722	3.607777	0.005000	6.365634	6.352503	-4.272783	-0.544102	-0.590151	-0.382256	-0.925495	0.946665	-0.276219
723	3.612777	0.005000	6.480333	6.350179	-4.225485	-0.543330	-0.590592	-0.384845	-0.972231	0.995496	-0.256740
724	3.617777	0.005000	6.971599	6.587926	-3.941454	-0.542557	-0.591034	-0.387434	-1.014893	1.012403	-0.239596
725	3.622777	0.005000	6.978904	6.693083	-3.895901	-0.541784	-0.591475	-0.390023	-0.996272	0.964515	-0.206571
726	3.627777	0.005000	6.906240	6.619419	-3.729209	-0.541011	-0.591917	-0.392612	-0.991434	0.916909	-0.220828
727	3.632777	0.005000	6.851222	6.458822	-3.421973	-0.540238	-0.592359	-0.395201	-0.974798	0.829352	-0.249042
728	3.637777	0.005000	6.791948	6.456694	-3.214252	-0.539465	-0.592800	-0.397789	-0.940962	0.738464	-0.291635
729	3.642777	0.005000	6.785734	6.707254	-3.198757	-0.538693	-0.593242	-0.400378	-0.841624	0.670119	-0.328989
730	3.647777	0.005000	6.962271	6.698906	-3.217680	-0.537920	-0.593683	-0.402967	-0.694223	0.638214	-0.339860
731	3.652777	0.005000	6.749280	6.456236	-3.360239	-0.537289	-0.594196	-0.405715	-0.613370	0.651121	-0.323820
732	3.657777	0.005000	6.930574	6.432621	-3.229847	-0.537179	-0.594969	-0.409044	-0.678573	0.695902	-0.306857
733	3.662777	0.005000	6.945250	6.641313	-3.266673	-0.537069	-0.595742	-0.412372	-0.792894	0.788345	-0.286023
734	3.667777	0.005000	7.070915	6.733185	-3.280730	-0.536958	-0.596514	-0.415701	-0.850748	0.882907	-0.263595
735	3.672777	0.005000	7.141680	6.749280	-3.133798	-0.536848	-0.597287	-0.419029	-0.860362	0.978029	-0.248362
736	3.677777	0.005000	7.099455	6.713025	-2.970298	-0.536737	-0.598060	-0.422358	-0.844887	1.044824	-0.230480
737	3.682777	0.005000	6.982663	6.628474	-2.708589	-0.536627	-0.598833	-0.425687	-0.783397	1.075219	-0.211222
738	3.687777	0.005000	6.792608	6.475963	-2.708923	-0.536517	-0.599606	-0.429015	-0.699797	1.113335	-0.193289
739	3.692777	0.005000	6.710040	6.321420	-2.856960	-0.536406	-0.600379	-0.432344	-0.643187	1.142509	-0.176066
740	3.697777	0.005000	6.631560	6.362991	-3.087737	-0.536296	-0.601151	-0.435672	-0.611306	1.191747	-0.171889
741	3.702777	0.005000	6.474600	6.419101	-3.209550	-0.536186	-0.601924	-0.439001	-0.609886	1.292662	-0.177014
742	3.707777	0.005000	6.435360	6.474600	-3.528662	-0.536075	-0.602697	-0.442330	-0.639277	1.403555	-0.179838
743	3.712777	0.005000	6.408918	6.526638	-3.558042	-0.535965	-0.603470	-0.445658	-0.668282	1.546423	-0.188095
744	3.717777	0.005000	6.429910	6.489497	-3.546497	-0.535855	-0.604243	-0.448987	-0.680594	1.655199	-0.188507
745	3.722777	0.005000	6.457299	6.518479	-3.365362	-0.535053	-0.604478	-0.452059	-0.659433	1.746308	-0.197958
746	3.727777	0.005000	6.572836	6.493812	-3.177895	-0.533948	-0.604478	-0.455019	-0.600747	1.797008	-0.207335
747	3.732777	0.005000	6.649145	6.496255	-2.986311	-0.532844	-0.604478	-0.457979	-0.541546	1.798693	-0.212271
748	3.737777	0.005000	6.661905	6.489772	-2.788658	-0.531739	-0.604478	-0.460939	-0.446221	1.771337	-0.243256
749	3.742777	0.005000	6.644630	6.579220	-2.589870	-0.530635	-0.604478	-0.463899	-0.363832	1.722217	-0.225128
750	3.747777	0.005000	6.546300	6.653200	-2.254280	-0.529530	-0.604478	-0.466859	-0.272290	1.695256	-0.239839
751	3.752777	0.005000	6.670800	6.614749	-1.984429	-0.528426	-0.604478	-0.469819	-0.204656	1.628147	-0.232919
752	3.757777	0.005000	6.618793	6.573169	-1.733882	-0.527321	-0.604478	-0.472780	-0.157820	1.590503	-0.257364
753	3.762777	0.005000	6.545063	6.592320	-1.518334	-0.526217	-0.604478	-0.475740	-0.138492	1.546182	-0.277324
754	3.767777	0.005000	6.593958	6.672438	-1.363571	-0.525112	-0.604478	-0.478700	-0.121632	1.505514	-0.294567
755	3.772777	0.005000	6.787296	6.710040	-1.021158	-0.524008	-0.604478	-0.481660	-0.089936	1.473756	-0.345129
756	3.777777	0.005000	6.864290	6.710040	-0.949890	-0.522903	-0.604478	-0.484620	-0.046532	1.432227	-0.362827
757	3.782777	0.005000	7.092305	6.675868	-0.936692	-0.521799	-0.604478	-0.487580	-0.050918	1.427013	-0.378453
758	3.787777	0.005000	7.277428	6.638631	-0.798941	-0.520715	-0.604518	-0.490585	-0.088992	1.396920	-0.412859
759	3.792777	0.005000	7.337880	6.581511	-0.696843	-0.519721	-0.604739	-0.493790	-0.194266	1.377389	-0.421075
760	3.797777	0.005000	7.282877	6.498077	-0.773061	-0.518728	-0.604960	-0.496995	-0.323723	1.380846	-0.439016
761	3.802777	0.005000	7.312465	6.474600	-0.706320	-0.517734	-0.605181	-0.500200	-0.441396	1.357991	-0.425711
762	3.807777	0.005000	7.236398	6.396120	-0.791564	-0.516740	-0.605401	-0.503406	-0.543860	1.372458	-0.438420
763	3.812777	0.005000	7.180920	6.396120	-0.842465	-0.515747	-0.605622	-0.506611	-0.646529	1.379670	-0.416596
764	3.817777	0.005000	7.141680	6.458565	-0.884095	-0.514753	-0.605843	-0.509816	-0.741203	1.439543	-0.407696
765	3.822777	0.005000	7.046962	6.356880	-1.043242	-0.513760	-0.606064	-0.513021	-0.847031	1.502057	-0.397021
766	3.827777	0.005000	7.169938	6.542098	-1.233715	-0.512766	-0.606285	-0.516227	-0.940995	1.585098	-0.390816
767	3.832777	0.005000	7.322401	6.721921	-1.397161	-0.511772	-0.606505	-0.519432	-1.013092	1.676763	-0.397283
768	3.837777	0.005000	7.348700	6.827760	-1.558780	-0.510779	-0.606726	-0.522637	-1.046416	1.797639	-0.395071
769	3.842777	0.005000	7.152688	6.834818	-1.751684	-0.509785	-0.606947	-0.525842	-1.057721	1.927762	-0.400901
770	3.847777	0.005000	6.901188	6.925270	-1.608840	-0.508791	-0.607168	-0.529048	-1.028568	2.061285	-0.414569
771	3.852777	0.005000	6.900822	6.670800	-1.370691	-0.507798	-0.607389	-0.532253	-0.964195	2.182995	-0.418417
772	3.857777	0.005000	6.787356	6.513549	-1.214695	-0.506365	-0.607463	-0.535132	-0.882515	2.279509	-0.439064
773	3.862777	0.005000	6.631560	6.474600	-0.830651	-0.504708	-0.607463	-0.537845	-0.777087	2.316294	-0.410555
774	3.867777	0.005000	6.404137	6.482617	-0.443666	-0.503051	-0.607463	-0.540559	-0.661183	2.348060	-0.398770
775	3.872777	0.005000	6.239160	6.441359	-0.002755	-0.501394	-0.607463	-0.543272	-0.563502	2.348170	-0.378925
776	3.877777	0.005000	6.300829	6.466195	0.341968	-0.499738	-0.607463	-0.545986	-0.497565	2.319944	-0.355909
777	3.882777	0.005000	6.385425	6.560235	0.684930	-0.498081	-0.607463	-0.548699	-0.485690	2.246736	-0.342287
778	3.887777	0.005000	6.383356	6.907189	0.693556	-0.496424	-0.607463	-0.551413	-0.374942	2.134209	-0.352558
779	3.892777	0.005000	6.546803	6.906240	0.721492	-0.494767	-0.607463	-0.554126	-0.096385	1.947742	-0.457233
780	3.897777	0.005000	7.059252	7.329454	0.671558	-0.493111	-0.607463	-0.556839	0.106020	1.724950	-0.490018
781	3.902777	0.005000	7.554159	7.671512	0.765272	-0.491454	-0.607463	-0.559553	0.201473	1.569684	-0.417428
782	3.907777	0.005000	7.791459	7.521418	0.954422	-0.489797	-0.607463	-0.562266	0.233902	1.432700	-0.365647
783	3.912777	0.005000	7.691040	7.298640	0.926869	-0.488140	-0.607463	-0.564980	0.207403	1.336334	-0.351574
784	3.917777	0.005000	7.586965	7.232958	0.785647	-0.486484	-0.607463	-0.567693	0.143624	1.264210	-0.363774
785	3.922777	0.005000	7.445067	7.199093	0.656547	-0.484695	-0.607529	-0.570314	0.153289	1.242593	-0.378933
786	3.927777	0.005000	7.306767	7.071327	0.667080	-0.482155	-0.607971	-0.572410	0.177456	1.280559	-0.391747
787	3.932777	0.005000	7.271623	7.129457	0.654857	-0.479616	-0.608412	-0.574505	0.183699	1.299163	-0.411579
788	3.937777	0.005000	7.365821	6.941714	0.624074	-0.477077	-0.608854	-0.576601	0.169860	1.350019	-0.411526
789	3.942777	0.005000	7.210622	6.903515	0.510120	-0.474538	-0.609296	-0.578697	0.173167	1.410379	-0.419259
790	3.947777	0.005000	6.754423	6.713126	0.548331	-0.471998	-0.609737	-0.580793	0.173881	1.462801	-0.398470
791	3.952777	0.005000	6.713025	6.562036	0.362116	-0.469459	-0.610179	-0.582889	0.151570	1.517314	-0.423067
792	3.957777	0.005000	6.558482	6.446165	0.549360	-0.466920	-0.610620	-0.584984	0.100409	1.543051	-0.448916
793	3.962777	0.005000	6.616868	6.491802	0.478226	-0.464380	-0.611062	-0.587080	0.021793	1.612197	-0.499303
794	3.967777	0.005000	6.641313	6.641542	0.372665	-0.461841	-0.611503	-0.589176	-0.068573	1.713985	-0.551512
795	3.972777	0.005000	6.764468	6.764468	0.181012	-0.459302	-0.611945	-0.591272	-0.202878	1.895516	-0.593508
796	3.977777	0.005000	6.852890	6.763390	0.268497	-0.456763	-0.612387	-0.593367	-0.373736	2.109090	-0.658908
797	3.982777	0.005000	6.906240	6.631560	0.493600	-0.454223	-0.612828	-0.595463	-0.582544	2.330957	-0.716196
798	3.987777	0.005000	6.908055	6.773438	0.728663	-0.451684	-0.613270	-0.597559	-0.799462	2.563166	-0.800250
799	3.992777	0.005000	7.023960	6.982210	0.918375	-0.448030	-0.613503	-0.600666	-0.949081	2.778675	-0.891641
800	3.997777	0.005000	6.920907	6.960147	1.091386	-0.443722	-0.613613	-0.604366	-0.985043	3.015490	-0.947499
801	4.002777	0.005000	6.614765	6.788520	1.376186	-0.439415	-0.613723	-0.608066	-0.997417	3.214730	-1.001795
802	4.007777	0.005000	6.282838	6.894639	1.775687	-0.435107	-0.613834	-0.611767	-0.944099	3.387958	-1.043349
803	4.012777	0.005000	6.083259	6.935935	2.323646	-0.430799	-0.613944	-0.615467	-0.838333	3.500026	-1.100179
804	4.017777	0.005000	5.824997	6.849523	2.751085	-0.426492	-0.614055	-0.619167	-0.762331	3.517338	-1.160477
805	4.022777	0.005000	5.596806	7.161032	3.168228	-0.422184	-0.614165	-0.622867	-0.653057	3.464333	-1.191659
806	4.027777	0.005000	5.487882	7.298640	3.383217	-0.417877	-0.614275	-0.626567	-0.477538	3.321315	-1.141791
807	4.032777	0.005000	5.259629	7.220650	3.966668	-0.413569	-0.614386	-0.630267	-0.350152	3.147726	-1.058483
808	4.037777	0.005000	5.413214	7.446070	4.387256	-0.409262	-0.614496	-0.633967	-0.556434	2.913165	-1.027639
809	4.042777	0.005000	5.442744	7.899376	4.551840	-0.404954	-0.614607	-0.637667	-0.855224	2.604218	-0.955717
810	4.047777	0.005000	5.546971	8.077163	4.551840	-0.400646	-0.614717	-0.641367	-1.116574	2.332670	-0.862094
811	4.052777	0.005000	5.641968	8.052792	4.604543	-0.396339	-0.614828	-0.645067	-1.233934	2.073734	-0.740821
812	4.057777	0.005000	5.537469	7.987654	4.168698	-0.391915	-0.614795	-0.648941	-1.342771	1.872620	-0.678967
813	4.062777	0.005000	5.375987	7.965720	3.845413	-0.386613	-0.613691	-0.654121	-1.312263	1.716363	-0.637165
814	4.067777	0.005000	5.439082	8.068162	3.483677	-0.381311	-0.612586	-0.659301	-1.342614	1.616724	-0.647359
815	4.072777	0.005000	5.598357	8.183759	3.230643	-0.376010	-0.611482	-0.664482	-1.309750	1.602519	-0.699588
816	4.077777	0.005000	5.494366	8.122680	3.080531	-0.370708	-0.610377	-0.669662	-1.222712	1.656794	-0.738543
817	4.082777	0.005000	5.319365	7.901308	2.999515	-0.365407	-0.609273	-0.674842	-1.154513	1.807164	-0.787908
818	4.087777	0.005000	5.282319	7.180920	2.828357	-0.360105	-0.608168	-0.680022	-1.233953	2.007803	-0.839587
819	4.092777	0.005000	4.997376	7.325208	2.436553	-0.354804	-0.607064	-0.685202	-1.514881	2.275031	-0.951931
820	4.097777	0.005000	4.717267	6.853160	1.555760	-0.349502	-0.605960	-0.690382	-1.594017	2.756099	-1.055021
821	4.102777	0.005000	4.384836	6.220901	1.137960	-0.344201	-0.604855	-0.695562	-1.701579	3.422514	-1.181821
822	4.107777	0.005000	4.008387	5.937055	1.691544	-0.338899	-0.603751	-0.700742	-1.899322	4.185081	-1.402249
823	4.112777	0.005000	3.981536	6.145875	2.895094	-0.333597	-0.602646	-0.705922	-1.988610	4.847876	-1.589925
824	4.117777	0.005000	3.760929	6.523007	4.506973	-0.328296	-0.601542	-0.711103	-1.975836	5.348048	-1.671421
825	4.122777	0.005000	3.533315	6.941193	5.950762	-0.322994	-0.600437	-0.716283	-1.940162	5.592701	-1.654764
826	4.127777	0.005000	3.161861	7.256163	7.207604	-0.317828	-0.600200	-0.717886	-1.921571	5.589187	-1.530501
827	4.132777	0.005000	2.890614	7.484403	7.811469	-0.312749	-0.600531	-0.717146	-1.897356	5.405464	-1.363326
828	4.137777	0.005000	2.683569	7.423984	8.059449	-0.307671	-0.600863	-0.716407	-1.857045	5.111955	-1.185318
829	4.142777	0.005000	2.247057	7.396513	7.721264	-0.302592	-0.601194	-0.715667	-1.818664	4.831771	-1.073168
830	4.147777	0.005000	2.146217	7.525387	7.119826	-0.297514	-0.601525	-0.714927	-1.763329	4.642953	-1.019613
831	4.152777	0.005000	2.118960	7.879371	6.767606	-0.292435	-0.601856	-0.714188	-1.665196	4.469385	-0.976729
832	4.157777	0.005000	2.450942	8.297702	6.569690	-0.287357	-0.602188	-0.713448	-1.329454	4.172819	-0.968595
833	4.162777	0.005000	2.489099	9.011742	6.517361	-0.282278	-0.602519	-0.712708	-0.788748	3.718056	-0.990337
834	4.167777	0.005000	2.414790	9.306002	6.839728	-0.277200	-0.602850	-0.711969	-0.099324	3.123670	-0.992011
835	4.172777	0.005000	2.409318	8.899779	7.416268	-0.272121	-0.603181	-0.711229	0.451773	2.459642	-0.964887
836	4.177777	0.005000	2.170302	8.460804	7.650333	-0.267043	-0.603512	-0.710489	0.555046	1.902023	-0.932076
837	4.182777	0.005000	2.141610	8.082644	7.303905	-0.261964	-0.603844	-0.709750	0.502705	1.469092	-0.928121
838	4.187777	0.005000	2.206351	7.790939	7.075708	-0.256886	-0.604175	-0.709010	0.362113	1.210920	-0.926238
839	4.192777	0.005000	2.204323	7.723397	6.869057	-0.251873	-0.604234	-0.708606	0.161138	1.122609	-0.953269
840	4.197777	0.005000	2.345279	7.577881	7.303201	-0.247565	-0.601362	-0.711812	-0.064837	1.160777	-0.941109
841	4.202777	0.005000	2.232393	7.647513	7.457743	-0.243258	-0.598490	-0.715019	-0.262055	1.223895	-0.892149
842	4.207777	0.005000	2.079327	7.494643	7.455403	-0.238950	-0.595619	-0.718226	-0.408739	1.285272	-0.845944
843	4.212777	0.005000	1.890134	7.381529	7.342289	-0.234643	-0.592747	-0.721433	-0.479298	1.303636	-0.801233
844	4.217777	0.005000	1.844280	7.259400	6.977459	-0.230335	-0.589875	-0.724640	-0.553991	1.287876	-0.796162
845	4.222777	0.005000	1.890463	7.141680	6.620094	-0.226027	-0.587004	-0.727846	-0.671344	1.247121	-0.808487
846	4.227777	0.005000	1.783744	7.132708	6.592320	-0.221720	-0.584132	-0.731053	-0.898838	1.199327	-0.867718
847	4.232777	0.005000	1.620226	7.197387	6.860695	-0.217412	-0.581260	-0.734260	-1.207102	1.096096	-0.934325
848	4.237777	0.005000	1.504750	7.156958	7.360193	-0.213105	-0.578389	-0.737467	-1.569767	1.029769	-0.944717
849	4.242777	0.005000	1.373400	7.047195	7.603786	-0.208797	-0.575517	-0.740673	-1.918361	1.017227	-0.916991
850	4.247777	0.005000	1.195343	6.948435	7.829857	-0.204490	-0.572645	-0.743880	-2.154695	1.064495	-0.842359
851	4.252777	0.005000	1.059480	7.001539	7.788206	-0.200182	-0.569773	-0.747087	-2.345967	1.178721	-0.787406
852	4.257777	0.005000	0.660424	6.864610	7.804494	-0.195874	-0.566902	-0.750294	-2.459039	1.255965	-0.713678
853	4.262777	0.005000	0.715169	6.854017	7.905321	-0.192451	-0.562514	-0.754770	-2.769549	1.542255	-0.741302
854	4.267777	0.005000	1.344582	7.259400	8.020356	-0.189690	-0.556992	-0.760197	-3.067607	1.793998	-0.770419
855	4.272777	0.005000	0.833691	7.170845	7.896891	-0.186928	-0.551469	-0.765624	-2.928566	1.520454	-0.658846
856	4.277777	0.005000	0.682026	6.717513	7.661149	-0.184167	-0.545947	-0.771050	-2.805680	1.245364	-0.554922
857	4.282777	0.005000	0.567970	6.332210	7.450442	-0.181406	-0.540424	-0.776477	-2.755298	1.029118	-0.479330
858	4.287777	0.005000	0.540266	5.330286	7.867184	-0.178645	-0.534902	-0.781904	-3.201643	1.236675	-0.330533
859	4.292777	0.005000	0.976280	6.043747	7.969653	-0.175883	-0.529379	-0.787331	-4.330704	1.934087	-0.149438
860	4.297777	0.005000	0.519765	5.931670	8.011390	-0.173122	-0.523857	-0.792757	-4.722029	2.121018	-0.116497
861	4.302777	0.005000	0.247375	5.580037	7.220705	-0.170361	-0.518334	-0.798184	-4.602064	1.935207	-0.144655
862	4.307777	0.005000	0.184263	5.589986	6.972783	-0.167599	-0.512811	-0.803611	-4.406558	1.790432	-0.106667
863	4.312777	0.005000	0.468263	5.283274	7.497977	-0.164838	-0.507289	-0.809038	-4.270823	1.735710	-0.073639
864	4.317777	0.005000	0.588600	5.311983	8.022901	-0.162077	-0.501766	-0.814464	-4.077262	1.533486	-0.160739
865	4.322777	0.005000	0.431519	5.349559	8.096601	-0.159315	-0.496244	-0.819891	-3.767655	1.284045	-0.235712
866	4.327777	0.005000	0.407536	5.131472	8.336817	-0.156684	-0.490767	-0.825217	-3.425373	1.125374	-0.277581
867	4.332777	0.005000	0.235440	5.005175	8.888985	-0.156131	-0.486017	-0.828917	-3.057091	0.970267	-0.328310
868	4.337777	0.005000	0.313920	4.885062	9.593862	-0.155579	-0.481268	-0.832617	-2.705716	0.780767	-0.441172
869	4.342777	0.005000	0.296580	5.192459	9.896698	-0.155027	-0.476519	-0.836317	-2.397514	0.494961	-0.525274
870	4.347777	0.005000	0.338233	5.198450	10.193015	-0.154475	-0.471769	-0.840017	-2.190649	0.197284	-0.536691
871	4.352777	0.005000	0.261852	5.074788	10.347288	-0.153923	-0.467020	-0.843717	-2.087051	-0.084872	-0.562287
872	4.357777	0.005000	0.224865	5.069474	10.016775	-0.153370	-0.462271	-0.847417	-2.022408	-0.296538	-0.580619
873	4.362777	0.005000	0.227280	4.847878	9.787081	-0.152818	-0.457521	-0.851117	-2.000938	-0.425185	-0.578897
874	4.367777	0.005000	0.117720	4.512600	9.679997	-0.152266	-0.452772	-0.854818	-1.956640	-0.489727	-0.552714
875	4.372777	0.005000	0.063413	4.269627	9.660573	-0.151714	-0.448022	-0.858518	-1.914639	-0.516565	-0.542700
876	4.377777	0.005000	-0.235440	3.921214	9.850633	-0.151162	-0.443273	-0.862218	-1.931873	-0.540803	-0.500820
877	4.382777	0.005000	-0.158957	3.883762	9.850238	-0.150609	-0.438524	-0.865918	-2.051812	-0.569503	-0.482279
878	4.387777	0.005000	-0.154006	3.546369	10.118013	-0.150057	-0.433774	-0.869618	-2.295406	-0.600627	-0.457338
879	4.392777	0.005000	0.012447	3.283713	10.275521	-0.149505	-0.429025	-0.873318	-2.618437	-0.647322	-0.445863
880	4.397777	0.005000	0.117720	3.350769	10.226271	-0.149615	-0.422408	-0.877489	-2.938718	-0.697017	-0.465977
881	4.402777	0.005000	0.225722	3.256920	9.956875	-0.150278	-0.414235	-0.882052	-3.143078	-0.801405	-0.506181
882	4.407777	0.005000	0.169086	3.284034	9.755771	-0.150941	-0.406062	-0.886616	-3.300960	-0.861224	-0.571048
883	4.412777	0.005000	0.270807	3.093334	9.510451	-0.151603	-0.397888	-0.891179	-3.409552	-0.909452	-0.602284
884	4.417777	0.005000	0.291163	2.829213	9.000101	-0.152266	-0.389715	-0.895743	-3.485098	-0.938248	-0.641484
885	4.422777	0.005000	0.254333	2.508451	8.650238	-0.152929	-0.381542	-0.900306	-3.611404	-0.896159	-0.694759
886	4.427777	0.005000	0.256743	2.200807	8.404094	-0.153592	-0.373368	-0.904870	-3.796766	-0.846712	-0.680942
887	4.432777	0.005000	0.353160	1.867152	8.232776	-0.154254	-0.365195	-0.909433	-4.003631	-0.747496	-0.684039
888	4.437777	0.005000	0.378820	1.581680	8.358120	-0.154917	-0.357022	-0.913997	-4.201958	-0.675183	-0.670749
889	4.442777	0.005000	0.425916	1.278300	8.520528	-0.155580	-0.348848	-0.918560	-4.408604	-0.579392	-0.647359
890	4.447777	0.005000	0.480002	0.923517	8.826247	-0.156242	-0.340675	-0.923124	-4.622959	-0.516294	-0.660990
891	4.452777	0.005000	0.549360	0.757548	9.091692	-0.156905	-0.332502	-0.927687	-4.806370	-0.472486	-0.699358
892	4.457777	0.005000	0.593009	0.584191	9.387179	-0.157568	-0.324328	-0.932250	-4.939774	-0.479937	-0.732809
893	4.462777	0.005000	0.667080	0.514130	9.456840	-0.158280	-0.316005	-0.936754	-4.963919	-0.522553	-0.731337
894	4.467777	0.005000	0.745378	0.588539	9.496019	-0.160489	-0.303193	-0.939468	-4.928761	-0.573091	-0.760048
895	4.472777	0.005000	0.701606	0.586243	9.530606	-0.162698	-0.290381	-0.942181	-4.876975	-0.657005	-0.788433
896	4.477777	0.005000	0.745560	0.367274	9.540025	-0.164907	-0.277569	-0.944894	-4.853043	-0.745818	-0.822077
897	4.482777	0.005000	0.745560	0.033529	9.685574	-0.167116	-0.264757	-0.947608	-4.881643	-0.820315	-0.848875
898	4.487777	0.005000	0.881312	-0.317097	9.831208	-0.169325	-0.251944	-0.950321	-4.985406	-0.918117	-0.862497
899	4.492777	0.005000	0.835105	-0.459815	9.855285	-0.171534	-0.239132	-0.953034	-5.184165	-1.036440	-0.899597
900	4.497777	0.005000	0.719793	-0.717435	9.783054	-0.173743	-0.226320	-0.955748	-5.391689	-1.181590	-0.925181
901	4.502777	0.005000	0.596068	-1.121125	9.622217	-0.175952	-0.213508	-0.958461	-5.626593	-1.273398	-0.921514
902	4.507777	0.005000	0.751732	-1.763153	9.514157	-0.178161	-0.200696	-0.961174	-5.842420	-1.300155	-0.937915
903	4.512777	0.005000	0.883520	-2.254440	9.532840	-0.180370	-0.187883	-0.963888	-5.993220	-1.244165	-1.068380
904	4.517777	0.005000	0.902520	-2.410230	10.037788	-0.182579	-0.175071	-0.966601	-6.151478	-1.155785	-1.351605
905	4.522777	0.005000	0.790896	-2.461833	10.559750	-0.184788	-0.162259	-0.969315	-6.311537	-1.187738	-1.629688
906	4.527777	0.005000	0.603374	-2.535826	10.996891	-0.186997	-0.149447	-0.972028	-6.530350	-1.316552	-1.874245
907	4.532777	0.005000	0.549360	-2.540771	11.252204	-0.192644	-0.134632	-0.969366	-6.759398	-1.528321	-2.109096
908	4.537777	0.005000	0.463089	-2.432880	11.575800	-0.201476	-0.117961	-0.961723	-6.981079	-1.734001	-2.325001
909	4.542777	0.005000	0.499162	-2.572516	11.480883	-0.210308	-0.101291	-0.954079	-7.201697	-1.953769	-2.488563
910	4.547777	0.005000	0.486190	-2.749862	11.047308	-0.219140	-0.084620	-0.946436	-7.358894	-2.190902	-2.632969
911	4.552777	0.005000	0.707424	-2.866729	10.630727	-0.227972	-0.067949	-0.938792	-7.427120	-2.407486	-2.778377
912	4.557777	0.005000	0.859422	-2.791184	10.288596	-0.236804	-0.051279	-0.931149	-7.430969	-2.637950	-2.846010
913	4.562777	0.005000	1.055819	-2.903760	9.682326	-0.245636	-0.034608	-0.923506	-7.457516	-2.874614	-2.817699
914	4.567777	0.005000	1.272331	-2.943000	9.115265	-0.254469	-0.017937	-0.915862	-7.488297	-3.129087	-2.765064
915	4.572777	0.005000	1.514254	-3.123094	8.258558	-0.263301	-0.001267	-0.908219	-7.539906	-3.415141	-2.742092
916	4.577777	0.005000	1.666626	-3.285813	7.168818	-0.272133	0.015404	-0.900575	-7.669592	-3.686259	-2.793080
917	4.582777	0.005000	1.819457	-3.496370	5.795491	-0.280965	0.032075	-0.892932	-7.797881	-3.930655	-2.801123
918	4.587777	0.005000	2.098919	-3.644099	4.475044	-0.289797	0.048745	-0.885288	-7.858838	-4.065529	-2.728129
919	4.592777	0.005000	2.464437	-3.928775	3.157473	-0.298629	0.065416	-0.877645	-7.829448	-4.080928	-2.558712
920	4.597777	0.005000	2.805872	-4.376742	1.958612	-0.307461	0.082087	-0.870002	-7.644486	-3.943839	-2.292518
921	4.602777	0.005000	2.917478	-5.050156	0.979086	-0.313647	0.090372	-0.857915	-7.350714	-3.705991	-1.989222
922	4.607777	0.005000	3.176205	-5.515356	0.558102	-0.319832	0.098656	-0.845829	-6.961958	-3.422997	-1.690926
923	4.612777	0.005000	3.283211	-5.978216	0.562506	-0.326017	0.106940	-0.833742	-6.503718	-3.046257	-1.421252
924	4.617777	0.005000	3.492360	-6.611909	1.033279	-0.332203	0.115223	-0.821655	-6.018008	-2.662099	-1.166724
925	4.622777	0.005000	3.666284	-7.344218	1.845306	-0.338388	0.123507	-0.809568	-5.616733	-2.255630	-0.974942
926	4.627777	0.005000	3.936919	-8.063094	2.902308	-0.344573	0.131791	-0.797481	-5.357456	-1.915543	-0.888446
927	4.632777	0.005000	4.180101	-8.674121	4.025222	-0.350758	0.140075	-0.785394	-5.203192	-1.737848	-0.863858
928	4.637777	0.005000	4.522888	-9.306739	4.920433	-0.356943	0.148358	-0.773307	-5.146946	-1.660717	-0.915304
929	4.642777	0.005000	4.787050	-9.495850	5.570243	-0.363129	0.156642	-0.761220	-5.180178	-1.761028	-0.985888
930	4.647777	0.005000	4.557107	-9.611167	5.956580	-0.369314	0.164926	-0.749133	-5.365033	-1.946425	-1.092434
931	4.652777	0.005000	4.527576	-9.545304	5.557800	-0.375499	0.173210	-0.737046	-5.673577	-2.179078	-1.235364
932	4.657777	0.005000	4.394880	-9.346114	4.942694	-0.381684	0.181493	-0.724959	-6.038718	-2.384392	-1.365977
933	4.662777	0.005000	4.305024	-8.933257	4.056121	-0.387870	0.189777	-0.712872	-6.429863	-2.530082	-1.512281
934	4.667777	0.005000	4.344295	-8.532564	3.213408	-0.393732	0.195159	-0.698025	-6.801907	-2.592809	-1.616423
935	4.672777	0.005000	4.459602	-7.999343	2.425228	-0.399255	0.197478	-0.680264	-7.116651	-2.571695	-1.741861
936	4.677777	0.005000	4.605663	-7.433726	1.720660	-0.404777	0.199798	-0.662504	-7.272989	-2.532267	-1.859333
937	4.682777	0.005000	4.926135	-7.036004	0.986984	-0.410300	0.202117	-0.644744	-7.280450	-2.492680	-1.937181
938	4.687777	0.005000	4.729316	-6.693107	0.186432	-0.415822	0.204436	-0.626983	-7.214875	-2.434133	-1.997699
939	4.692777	0.005000	5.011360	-6.642920	-0.414600	-0.421345	0.206756	-0.609223	-7.213686	-2.323266	-1.931207
940	4.697777	0.005000	5.173053	-6.449731	-0.710192	-0.426867	0.209075	-0.591462	-7.168363	-2.119184	-1.970756
941	4.702777	0.005000	5.540343	-6.511450	-0.927087	-0.432390	0.211395	-0.573702	-7.025087	-1.985979	-1.964532
942	4.707777	0.005000	5.817533	-7.024771	-1.098720	-0.437912	0.213714	-0.555941	-6.805977	-1.912790	-1.959176
943	4.712777	0.005000	6.073385	-7.306246	-1.224046	-0.443435	0.216034	-0.538181	-6.531877	-1.903617	-1.958823
944	4.717777	0.005000	6.239160	-7.377120	-1.390191	-0.448958	0.218353	-0.520421	-6.215178	-1.908732	-1.919123
945	4.722777	0.005000	6.409103	-7.301886	-1.755772	-0.454480	0.220672	-0.502660	-5.945828	-1.903322	-1.843663
946	4.727777	0.005000	6.554763	-7.260242	-2.280129	-0.460003	0.222992	-0.484900	-5.635843	-1.845929	-1.743443
947	4.732777	0.005000	6.707835	-7.298640	-2.662808	-0.465525	0.225311	-0.467139	-5.277760	-1.730347	-1.674675
948	4.737777	0.005000	6.895680	-7.337880	-2.928920	-0.469220	0.222685	-0.455022	-4.885766	-1.665254	-1.608699
949	4.742777	0.005000	6.845535	-7.377120	-3.015555	-0.472865	0.219924	-0.443058	-4.472926	-1.645833	-1.549413
950	4.747777	0.005000	6.679044	-7.408116	-3.161951	-0.476509	0.217163	-0.431094	-4.134073	-1.640514	-1.508083
951	4.752777	0.005000	6.484873	-7.445327	-3.236374	-0.480154	0.214402	-0.419131	-3.960924	-1.611769	-1.477949
952	4.757777	0.005000	6.553080	-7.809938	-3.283473	-0.483799	0.211640	-0.407167	-3.970746	-1.541719	-1.503793
953	4.762777	0.005000	6.484009	-7.750702	-3.335400	-0.487444	0.208879	-0.395203	-4.111789	-1.462127	-1.550462
954	4.767777	0.005000	6.541199	-7.511880	-3.458280	-0.491089	0.206118	-0.383240	-4.355326	-1.386998	-1.614716
955	4.772777	0.005000	6.690588	-7.081978	-3.688560	-0.494734	0.203357	-0.371276	-4.634192	-1.361769	-1.657392
956	4.777777	0.005000	6.805897	-7.063200	-4.010885	-0.498378	0.200595	-0.359313	-4.931229	-1.382778	-1.681658
957	4.782777	0.005000	6.733847	-6.993095	-4.174873	-0.502023	0.197834	-0.347349	-5.237757	-1.400431	-1.762037
958	4.787777	0.005000	6.527032	-6.645089	-4.342448	-0.505668	0.195073	-0.335385	-5.581624	-1.413956	-1.837430
959	4.792777	0.005000	6.207330	-6.214740	-4.156240	-0.509313	0.192312	-0.323422	-5.979447	-1.385850	-1.906189
960	4.797777	0.005000	5.955814	-5.611810	-3.967818	-0.512958	0.189551	-0.311458	-6.406186	-1.307228	-1.989835
961	4.802777	0.005000	5.846760	-5.051125	-3.676041	-0.515433	0.184095	-0.298246	-6.824001	-1.206444	-2.057578
962	4.807777	0.005000	5.973012	-4.474207	-3.492360	-0.516538	0.175480	-0.283569	-7.237370	-1.162410	-2.131399
963	4.812777	0.005000	6.198044	-3.828638	-3.621335	-0.517642	0.166865	-0.268892	-7.504984	-1.266267	-2.150628
964	4.817777	0.005000	6.315619	-3.066278	-4.116663	-0.518747	0.158250	-0.254215	-7.574315	-1.426794	-2.161207
965	4.822777	0.005000	6.695594	-2.565046	-5.203263	-0.519852	0.149635	-0.239538	-7.427421	-1.603679	-2.102486
966	4.827777	0.005000	7.078173	-2.079307	-6.612973	-0.520956	0.141020	-0.224861	-7.031146	-1.687385	-2.039067
967	4.832777	0.005000	6.648991	-2.685675	-5.345471	-0.522061	0.132405	-0.210184	-6.463841	-1.675033	-1.958285
968	4.837777	0.005000	7.301635	-4.337518	-3.451123	-0.523165	0.123789	-0.195507	-5.925158	-1.954239	-2.034933
969	4.842777	0.005000	7.691040	-3.530084	-4.951650	-0.524270	0.115174	-0.180830	-5.620163	-2.500472	-2.377731
970	4.847777	0.005000	7.304364	-2.469534	-7.323295	-0.525374	0.106559	-0.166153	-5.205679	-2.723644	-2.501791
971	4.852777	0.005000	6.431366	-2.733307	-7.887240	-0.526479	0.097944	-0.151476	-4.697489	-2.619908	-2.456985
972	4.857777	0.005000	6.437825	-2.166728	-7.759660	-0.527583	0.089329	-0.136799	-4.220778	-2.621336	-2.505650
973	4.862777	0.005000	6.190906	-1.726560	-7.151107	-0.528688	0.080714	-0.122122	-3.827834	-2.694806	-2.521446
974	4.867777	0.005000	5.654130	-1.481439	-6.922547	-0.529792	0.072099	-0.107445	-3.723963	-2.728434	-2.527875
975	4.872777	0.005000	5.277282	-1.291904	-6.920325	-0.528596	0.065680	-0.102112	-3.687738	-2.690933	-2.507055
976	4.877777	0.005000	5.081106	-0.804894	-6.795988	-0.527270	0.059384	-0.097302	-3.629458	-2.597923	-2.539341
977	4.882777	0.005000	5.355882	-0.608598	-7.023960	-0.525945	0.053089	-0.092492	-3.458540	-2.430101	-2.528296
978	4.887777	0.005000	5.461678	-0.627840	-7.109758	-0.524619	0.046793	-0.087681	-3.153804	-2.233541	-2.460739
979	4.892777	0.005000	5.596643	-0.500295	-7.382094	-0.523294	0.040497	-0.082871	-2.750880	-2.060021	-2.463618
980	4.897777	0.005000	5.931109	-0.395335	-7.938219	-0.521969	0.034201	-0.078061	-2.324315	-1.909753	-2.441320
981	4.902777	0.005000	6.044093	-0.352594	-8.281339	-0.520643	0.027906	-0.073251	-2.003320	-1.739610	-2.354705
982	4.907777	0.005000	6.046621	-0.276510	-8.472179	-0.519318	0.021610	-0.068441	-1.768480	-1.612223	-2.218331
983	4.912777	0.005000	5.921445	-0.199995	-8.444191	-0.517992	0.015314	-0.063631	-1.688450	-1.502275	-2.080584
984	4.917777	0.005000	6.042960	0.138358	-8.903316	-0.516667	0.009019	-0.058821	-1.739956	-1.511141	-1.960651
985	4.922777	0.005000	6.029569	0.095713	-8.885473	-0.515341	0.002723	-0.054011	-1.753767	-1.465762	-1.704356
986	4.927777	0.005000	5.789400	0.282240	-8.946720	-0.514016	-0.003573	-0.049201	-1.773970	-1.425343	-1.489777
987	4.932777	0.005000	5.886000	0.300615	-9.090712	-0.512690	-0.009868	-0.044390	-1.758980	-1.399400	-1.288825
988	4.937777	0.005000	5.783483	0.211403	-9.371991	-0.511940	-0.016020	-0.038403	-1.699805	-1.387238	-1.167181
989	4.942777	0.005000	5.562897	0.257356	-9.268782	-0.511940	-0.021985	-0.030880	-1.638792	-1.356001	-1.107650
990	4.947777	0.005000	5.238655	0.254945	-9.143379	-0.511940	-0.027949	-0.023356	-1.653285	-1.303339	-1.056389
991	4.952777	0.005000	5.223038	0.296359	-9.082001	-0.511940	-0.033913	-0.015833	-1.728779	-1.315050	-1.021041
992	4.957777	0.005000	5.164529	0.289831	-9.018986	-0.511940	-0.039878	-0.008309	-1.850541	-1.379959	-1.038764
993	4.962777	0.005000	5.284345	0.313920	-9.012070	-0.511940	-0.045842	-0.000786	-1.975742	-1.416524	-1.032318
994	4.967777	0.005000	5.090406	0.413987	-9.014406	-0.511940	-0.051806	0.006738	-2.066397	-1.406296	-0.957824
995	4.972777	0.005000	5.022720	0.566140	-8.980280	-0.511940	-0.057771	0.014261	-2.137114	-1.316561	-0.928667
996	4.977777	0.005000	5.016736	0.685032	-9.221400	-0.511940	-0.063735	0.021785	-2.127026	-1.200121	-0.903824
997	4.982777	0.005000	5.022720	0.875261	-9.197438	-0.511940	-0.069699	0.029309	-2.051606	-1.068677	-0.862256
998	4.987777	0.005000	5.142063	1.139583	-8.783268	-0.511940	-0.075663	0.036832	-2.014499	-1.001260	-0.814565
999	4.992777	0.005000	4.910400	1.331074	-8.478926	-0.511940	-0.081628	0.044356	-2.046989	-1.040722	-0.743835
1000	4.997777	0.005000	4.750765	1.485670	-8.172821	-0.511940	-0.087592	0.051879	-2.099883	-1.101024	-0.724647
1001	5.002777	0.005000	4.799462	2.140876	-8.127822	-0.511940	-0.093556	0.059403	-2.164605	-1.201866	-0.820024
1002	5.007777	0.005000	3.763137	2.324569	-8.066573	-0.509703	-0.096470	0.057843	-2.421870	-1.432370	-0.865087
1003	5.012777	0.005000	3.895523	2.385418	-7.956228	-0.507273	-0.099121	0.055499	-2.431315	-1.533013	-0.890863
1004	5.017777	0.005000	4.096387	2.683747	-8.044200	-0.504843	-0.101772	0.053156	-2.353253	-1.560384	-0.906829
1005	5.022777	0.005000	4.291304	2.500408	-8.259112	-0.502413	-0.104423	0.050812	-2.285130	-1.500989	-0.862790
1006	5.027777	0.005000	4.367984	2.792212	-8.651316	-0.499983	-0.107074	0.048469	-2.102624	-1.434287	-0.873836
1007	5.032777	0.005000	4.236022	3.141098	-8.769191	-0.497553	-0.109724	0.046126	-1.917796	-1.340729	-0.855574
1008	5.037777	0.005000	4.068651	3.275078	-8.708356	-0.495123	-0.112375	0.043782	-1.689195	-1.262984	-0.833035
1009	5.042777	0.005000	3.822300	3.303361	-8.679241	-0.492694	-0.115026	0.041439	-1.440925	-1.181672	-0.815012
1010	5.047777	0.005000	3.863708	3.231490	-8.851567	-0.490264	-0.117677	0.039095	-1.171288	-1.087791	-0.841335
1011	5.052777	0.005000	4.417683	3.070790	-9.272042	-0.487834	-0.120328	0.036752	-0.820325	-0.861399	-0.883806
1012	5.057777	0.005000	4.415423	2.765497	-9.152269	-0.485404	-0.122978	0.034409	-0.328765	-0.520158	-0.955299
1013	5.062777	0.005000	4.295524	2.871479	-9.325203	-0.482974	-0.125629	0.032065	-0.069610	-0.427769	-1.029580
1014	5.067777	0.005000	4.124837	2.894486	-9.226037	-0.480544	-0.128280	0.029722	0.012159	-0.419426	-1.054962
1015	5.072777	0.005000	3.928440	3.062940	-9.131820	-0.477305	-0.130301	0.028835	-0.033833	-0.465844	-1.062469
1016	5.077777	0.005000	3.922911	3.217408	-8.985143	-0.472889	-0.131405	0.030068	-0.122243	-0.573605	-1.039123
1017	5.082777	0.005000	3.729928	3.141328	-9.016688	-0.468473	-0.132509	0.031301	-0.230666	-0.697146	-0.998707
1018	5.087777	0.005000	3.723255	3.178440	-8.812487	-0.464057	-0.133613	0.032534	-0.362100	-0.829593	-0.900068
1019	5.092777	0.005000	3.826883	2.987141	-8.238433	-0.459641	-0.134717	0.033767	-0.676826	-1.169716	-0.773181
1020	5.097777	0.005000	3.718905	3.579735	-8.618669	-0.455225	-0.135821	0.034999	-1.310767	-1.794806	-0.702278
1021	5.102777	0.005000	3.850831	3.240300	-9.673594	-0.450809	-0.136925	0.036232	-1.437990	-2.002174	-0.614190
1022	5.107777	0.005000	3.457386	3.438144	-10.434996	-0.446393	-0.138029	0.037465	-1.337986	-2.113699	-0.604584
1023	5.112777	0.005000	3.053368	3.578192	-10.485672	-0.441977	-0.139133	0.038698	-1.369260	-2.315990	-0.582285
1024	5.117777	0.005000	2.637880	3.872869	-10.495154	-0.437561	-0.140237	0.039931	-1.133776	-2.334406	-0.589402
1025	5.122777	0.005000	2.219655	4.004210	-10.170080	-0.433145	-0.141341	0.041164	-0.497959	-2.099170	-0.618595
1026	5.127777	0.005000	2.158200	3.822905	-9.648396	-0.428729	-0.142445	0.042396	0.079026	-1.829670	-0.608447
1027	5.132777	0.005000	2.197440	3.548472	-9.242252	-0.424313	-0.143549	0.043629	0.449296	-1.670315	-0.576005
1028	5.137777	0.005000	2.261307	3.256920	-9.039813	-0.419897	-0.144653	0.044862	0.770713	-1.585738	-0.521460
1029	5.142777	0.005000	2.355379	3.207625	-8.730410	-0.415185	-0.142520	0.044562	1.047823	-1.546865	-0.532977
1030	5.147777	0.005000	2.699920	3.093361	-8.601200	-0.410435	-0.139979	0.044068	1.023140	-1.609180	-0.525671
1031	5.152777	0.005000	2.685202	2.999122	-8.520707	-0.405686	-0.137439	0.043575	0.762513	-1.684636	-0.526378
1032	5.157777	0.005000	2.779535	3.217680	-8.698271	-0.400937	-0.134899	0.043082	0.521550	-1.791991	-0.566215
1033	5.162777	0.005000	2.629953	3.258665	-8.515080	-0.396187	-0.132358	0.042588	0.332809	-1.889673	-0.573481
1034	5.167777	0.005000	2.630593	3.373127	-8.552807	-0.391438	-0.129818	0.042095	0.223524	-1.980355	-0.634765
1035	5.172777	0.005000	2.700609	3.556938	-8.850863	-0.386688	-0.127278	0.041602	0.311799	-2.100523	-0.682911
1036	5.177777	0.005000	3.511919	5.183445	-10.521967	-0.381939	-0.124737	0.041108	0.807664	-2.331715	-0.804699
1037	5.182777	0.005000	3.423834	3.839651	-11.077388	-0.377190	-0.122197	0.040615	2.519728	-2.747912	-1.230262
1038	5.187777	0.005000	2.497795	3.352425	-9.699200	-0.372440	-0.119657	0.040121	3.096441	-2.924139	-1.524112
1039	5.192777	0.005000	1.802500	3.702487	-8.918866	-0.367691	-0.117116	0.039628	2.436315	-3.130725	-1.546943
1040	5.197777	0.005000	1.384231	3.591141	-8.858770	-0.362942	-0.114576	0.039135	1.948959	-3.302070	-1.464899
1041	5.202777	0.005000	1.149729	3.319698	-8.974191	-0.358192	-0.112036	0.038641	1.822966	-3.400543	-1.415279
1042	5.207777	0.005000	0.921933	3.158613	-9.163160	-0.351664	-0.108378	0.037501	1.867712	-3.513617	-1.403452
1043	5.212777	0.005000	0.806624	2.951815	-9.352129	-0.342169	-0.102858	0.035282	1.954257	-3.650488	-1.446659
1044	5.217777	0.005000	0.621199	2.788052	-9.565907	-0.332675	-0.097338	0.033063	2.097463	-3.835044	-1.512422
1045	5.222777	0.005000	0.431701	2.511421	-9.705340	-0.323181	-0.091818	0.030844	2.290538	-4.042875	-1.584516
1046	5.227777	0.005000	0.232073	2.126245	-9.752823	-0.313686	-0.086298	0.028625	2.457683	-4.261434	-1.689342
1047	5.232777	0.005000	0.044050	1.762003	-9.862658	-0.304192	-0.080778	0.026406	2.572424	-4.455057	-1.779514
1048	5.237777	0.005000	-0.175612	1.538514	-9.595148	-0.294697	-0.075258	0.024187	2.652252	-4.628759	-1.883653
1049	5.242777	0.005000	-0.337244	1.220327	-9.366698	-0.285203	-0.069738	0.021968	2.676092	-4.808962	-1.979190
1050	5.247777	0.005000	-0.752909	1.137960	-9.219930	-0.275709	-0.064218	0.019749	2.627999	-4.972627	-2.056489
1051	5.252777	0.005000	-1.019291	1.099194	-9.220926	-0.266214	-0.058698	0.017530	2.551113	-5.125927	-2.111985
1052	5.257777	0.005000	-1.258558	0.869037	-9.148677	-0.256720	-0.053178	0.015311	2.493657	-5.260283	-2.123049
1053	5.262777	0.005000	-1.357514	0.970409	-9.250049	-0.247226	-0.047658	0.013091	2.446574	-5.337166	-2.130945
1054	5.267777	0.005000	-1.444271	0.918933	-9.221400	-0.237731	-0.042138	0.010872	2.437377	-5.419356	-2.110814
1055	5.272777	0.005000	-1.619144	0.932115	-9.319829	-0.228237	-0.036618	0.008653	2.440269	-5.496386	-2.077100
1056	5.277777	0.005000	-1.726560	0.941760	-9.417600	-0.219778	-0.030245	-0.000004	2.500133	-5.561979	-2.051069
1057	5.282777	0.005000	-1.801394	1.137960	-9.342766	-0.211494	-0.023729	-0.009747	2.579470	-5.622897	-2.004135
1058	5.287777	0.005000	-1.772228	1.160794	-9.175732	-0.203210	-0.017212	-0.019491	2.675107	-5.650120	-2.013610
1059	5.292777	0.005000	-2.084543	1.078296	-8.963929	-0.194926	-0.010695	-0.029235	2.780740	-5.683645	-2.027960
1060	5.297777	0.005000	-2.498504	0.984214	-8.807773	-0.186642	-0.004179	-0.038978	2.818516	-5.718505	-2.046315
1061	5.302777	0.005000	-3.125192	0.603546	-8.821527	-0.178359	0.002338	-0.048722	2.796735	-5.753276	-2.072201
1062	5.307777	0.005000	-3.693750	0.231980	-9.132723	-0.170075	0.008855	-0.058466	2.684529	-5.732716	-2.097168
1063	5.312777	0.005000	-4.226932	-0.134723	-9.327871	-0.161791	0.015371	-0.068209	2.583604	-5.653314	-2.161394
1064	5.317777	0.005000	-4.821619	-0.526064	-9.212203	-0.153507	0.021888	-0.077953	2.511068	-5.461091	-2.228596
1065	5.322777	0.005000	-5.470237	-0.957637	-9.089901	-0.145223	0.028405	-0.087697	2.434187	-5.194372	-2.301701
1066	5.327777	0.005000	-6.051928	-1.518025	-8.942236	-0.136939	0.034922	-0.097440	2.366974	-4.997399	-2.347817
1067	5.332777	0.005000	-6.168213	-1.891053	-8.740476	-0.128655	0.041438	-0.107184	2.319053	-4.858227	-2.407249
1068	5.337777	0.005000	-6.317156	-2.040843	-8.357636	-0.120371	0.047955	-0.116928	2.382938	-4.822001	-2.505556
1069	5.342777	0.005000	-6.197639	-2.306035	-8.016366	-0.113979	0.054472	-0.127643	2.557658	-4.889848	-2.645129
1070	5.347777	0.005000	-6.026874	-2.575948	-7.370295	-0.111218	0.060988	-0.140223	2.722848	-5.054826	-2.830015
1071	5.352777	0.005000	-5.938499	-3.099424	-7.011237	-0.108457	0.067505	-0.152804	2.889800	-5.233967	-3.036475
1072	5.357777	0.005000	-6.033915	-3.525616	-6.619454	-0.105695	0.074021	-0.165384	2.999165	-5.383075	-3.259116
1073	5.362777	0.005000	-6.233139	-3.688560	-6.346291	-0.102934	0.080538	-0.177964	3.059757	-5.548549	-3.475909
1074	5.367777	0.005000	-6.525338	-3.754593	-6.108993	-0.100173	0.087055	-0.190544	3.049684	-5.717064	-3.637294
1075	5.372777	0.005000	-6.835381	-3.821523	-5.823329	-0.097412	0.093571	-0.203125	2.980988	-5.908207	-3.743254
1076	5.377777	0.005000	-7.048436	-3.884760	-5.619610	-0.094650	0.100088	-0.215705	2.783467	-6.078031	-3.763112
