# FOX Logger (IMU file)
# (c) INRIA 2011-2014
# File created from file sensbiotk output
#
# File format:
# id	t	dt	ax	ay	az	mx	my	mz	gx	gy	gz
#
# Units:
#	Time: s
#\Acceleration: m.s^-2
#\Magneto: gauss
#\Gyrometer: rad/s
#
1	0.002197	0.002197	-0.078480	-0.029090	-9.791061	0.286393	0.116291	0.395259	0.001222	-0.012523	0.010079
2	0.007197	0.005000	-0.117720	-0.007775	-9.810000	0.284720	0.115063	0.397750	0.009551	-0.000596	-0.001407
3	0.012197	0.005000	-0.123105	-0.039240	-9.765375	0.283047	0.113836	0.400241	0.022677	-0.006426	0.014698
4	0.017197	0.005000	-0.306204	-0.007716	-9.734092	0.281373	0.112609	0.402733	0.025728	0.000988	0.008042
5	0.022197	0.005000	-0.196200	-0.039408	-9.692448	0.279700	0.111382	0.405224	0.026949	0.000161	0.000166
6	0.027197	0.005000	-0.270233	-0.041464	-9.731520	0.278026	0.110155	0.407716	0.032850	-0.005035	0.001478
7	0.032197	0.005000	-0.191601	0.000000	-9.653040	0.276353	0.108928	0.410207	0.026955	-0.002167	0.010423
8	0.037197	0.005000	-0.163949	-0.064502	-9.724531	0.274680	0.107701	0.412699	0.023373	-0.004577	0.009043
9	0.042197	0.005000	-0.205564	-0.108356	-9.770760	0.273006	0.106473	0.415190	0.023147	-0.002489	-0.005030
10	0.047197	0.005000	-0.168714	-0.117720	-9.743274	0.271333	0.105246	0.417682	0.026425	-0.004403	0.002715
11	0.052197	0.005000	-0.145978	-0.103591	-9.692280	0.269660	0.104019	0.420173	0.013714	-0.011098	-0.003019
12	0.057197	0.005000	-0.156960	-0.190384	-9.607984	0.267986	0.102792	0.422664	0.019119	-0.005725	-0.006622
13	0.062197	0.005000	-0.117720	-0.117720	-9.575555	0.266313	0.101565	0.425156	0.017063	-0.008513	-0.002000
14	0.067197	0.005000	-0.174667	-0.096187	-9.631507	0.264640	0.100338	0.427647	0.001040	0.000866	0.009184
15	0.072197	0.005000	-0.156960	-0.117720	-9.755465	0.265392	0.100889	0.426437	0.024307	-0.010664	0.023205
16	0.077197	0.005000	-0.208937	-0.156960	-9.692280	0.267065	0.102117	0.423821	0.000946	-0.009006	-0.007251
17	0.082197	0.005000	-0.243594	-0.117720	-9.653040	0.268739	0.103344	0.421205	-0.007260	-0.012598	0.003110
18	0.087197	0.005000	-0.117720	-0.148988	-9.700252	0.270412	0.104571	0.418589	-0.008320	-0.007563	0.006146
19	0.092197	0.005000	-0.156960	-0.100929	-9.737117	0.272085	0.105798	0.415973	-0.001286	-0.006117	-0.006082
20	0.097197	0.005000	-0.078480	0.039240	-9.689073	0.273759	0.107025	0.413357	0.002878	-0.009115	0.012025
21	0.102197	0.005000	-0.116888	-0.002496	-9.729856	0.275432	0.108252	0.410741	0.007805	-0.005966	0.007191
22	0.107197	0.005000	-0.153807	-0.080056	-9.690704	0.277105	0.109479	0.408125	-0.000050	-0.010306	0.007749
23	0.112197	0.005000	-0.192219	-0.192219	-9.621761	0.278779	0.110707	0.405509	-0.008631	-0.004185	0.001904
24	0.117197	0.005000	-0.183406	-0.222646	-9.653040	0.280452	0.111934	0.402893	-0.007463	-0.005192	-0.001849
25	0.122197	0.005000	-0.156960	-0.156960	-9.821739	0.282126	0.113161	0.400276	-0.015672	-0.007749	0.008732
26	0.127197	0.005000	-0.213004	-0.106502	-9.714716	0.283799	0.114388	0.397660	-0.016512	-0.001381	0.004198
27	0.132197	0.005000	-0.209826	-0.013626	-9.705906	0.285472	0.115615	0.395044	-0.008033	-0.000163	0.011691
28	0.137197	0.005000	-0.196200	-0.016039	-9.685118	0.286374	0.116572	0.393419	-0.018774	0.001794	0.004431
29	0.142197	0.005000	-0.214649	-0.117720	-9.613800	0.285816	0.117019	0.393668	-0.019533	-0.000002	0.005022
30	0.147197	0.005000	-0.141059	-0.117720	-9.653040	0.285258	0.117465	0.393918	-0.019849	-0.013454	0.020720
31	0.152197	0.005000	-0.094449	-0.062511	-9.738823	0.284701	0.117911	0.394167	-0.028198	-0.007130	0.011301
32	0.157197	0.005000	-0.235440	-0.064920	-9.678720	0.284143	0.118357	0.394416	-0.039361	-0.005846	0.010353
33	0.162197	0.005000	-0.325066	-0.039240	-9.703426	0.283585	0.118803	0.394665	-0.048685	-0.013012	0.009958
34	0.167197	0.005000	-0.244182	-0.030498	-9.731520	0.283027	0.119250	0.394914	-0.027693	-0.005182	0.002184
35	0.172197	0.005000	-0.262008	-0.072144	-9.725184	0.282469	0.119696	0.395164	-0.016603	-0.011350	0.002260
36	0.177197	0.005000	-0.196200	-0.039240	-9.731520	0.281912	0.120142	0.395413	-0.000575	-0.000962	0.010337
37	0.182197	0.005000	-0.079995	-0.114690	-9.728490	0.281354	0.120588	0.395662	0.001446	-0.006579	0.014112
38	0.187197	0.005000	-0.117720	-0.000893	-9.729735	0.280796	0.121035	0.395911	-0.007330	-0.003892	-0.001334
39	0.192197	0.005000	-0.156960	-0.003267	-9.662842	0.280238	0.121481	0.396160	-0.005419	-0.005125	-0.006245
40	0.197197	0.005000	-0.151302	-0.039240	-9.720205	0.279680	0.121927	0.396410	-0.005279	-0.011899	-0.001256
41	0.202197	0.005000	-0.133979	-0.047370	-9.653040	0.279122	0.122373	0.396659	0.005252	-0.006826	-0.006176
42	0.207197	0.005000	-0.146415	-0.018151	-9.585105	0.279104	0.121633	0.397149	0.016384	-0.004436	0.015489
43	0.212197	0.005000	-0.169912	-0.156960	-9.587895	0.279104	0.120853	0.397647	0.008953	-0.002484	0.000718
44	0.217197	0.005000	-0.133085	-0.156960	-9.716155	0.279104	0.120072	0.398145	0.007936	-0.009085	0.005080
45	0.222197	0.005000	-0.099945	-0.160650	-9.752985	0.279104	0.119291	0.398643	0.003204	-0.015296	-0.002367
46	0.227197	0.005000	-0.136774	-0.176014	-9.771893	0.279104	0.118511	0.399141	0.000848	-0.010262	0.006264
47	0.232197	0.005000	-0.179558	-0.140318	-9.675638	0.279104	0.117730	0.399639	-0.008352	-0.007039	-0.005004
48	0.237197	0.005000	-0.185426	-0.274680	-9.756527	0.279104	0.116950	0.400137	-0.019422	-0.007546	-0.013223
49	0.242197	0.005000	-0.184381	-0.251041	-9.719701	0.279104	0.116169	0.400635	-0.052594	-0.019279	0.003384
50	0.247197	0.005000	-0.175784	-0.186788	-9.643628	0.279104	0.115389	0.401133	-0.082392	-0.012587	-0.000002
51	0.252197	0.005000	-0.214450	-0.149963	-9.660037	0.279104	0.114608	0.401631	-0.091429	-0.016493	0.011854
52	0.257197	0.005000	-0.117720	-0.073887	-9.696873	0.279104	0.113827	0.402129	-0.094122	-0.012572	0.003105
53	0.262197	0.005000	-0.117720	-0.002189	-9.731520	0.279104	0.113047	0.402627	-0.066894	-0.014536	0.013103
54	0.267197	0.005000	-0.156733	0.038786	-9.692507	0.279104	0.112266	0.403125	-0.042656	-0.011935	0.007447
55	0.272197	0.005000	-0.196200	0.002633	-9.728887	0.279234	0.112330	0.402970	-0.017619	-0.015640	0.004971
56	0.277197	0.005000	-0.196200	-0.039240	-9.731520	0.279457	0.112999	0.402347	-0.023183	-0.008709	0.007718
57	0.282197	0.005000	-0.164416	0.000000	-9.731520	0.279681	0.113669	0.401724	-0.024072	-0.009958	0.010818
58	0.287197	0.005000	-0.215698	0.000000	-9.662911	0.279904	0.114339	0.401101	-0.015267	-0.012501	0.009896
59	0.292197	0.005000	-0.262401	0.053922	-9.694684	0.280127	0.115009	0.400478	-0.009137	-0.010683	0.008841
60	0.297197	0.005000	-0.186344	0.039240	-9.756068	0.280350	0.115678	0.399855	0.010145	-0.003816	-0.004692
61	0.302197	0.005000	-0.174061	0.017101	-9.736557	0.280574	0.116348	0.399232	0.026759	-0.004857	0.010566
62	0.307197	0.005000	-0.117934	-0.098207	-9.770760	0.280797	0.117018	0.398608	0.026367	-0.009997	0.000079
63	0.312197	0.005000	-0.139644	-0.196200	-9.792684	0.281020	0.117688	0.397985	0.020109	-0.007917	0.014529
64	0.317197	0.005000	-0.147533	-0.102814	-9.667946	0.281244	0.118357	0.397362	0.008127	-0.021420	-0.001405
65	0.322197	0.005000	-0.274680	-0.131974	-9.653040	0.281467	0.119027	0.396739	-0.002468	-0.002731	0.007134
66	0.327197	0.005000	-0.176029	-0.039240	-9.712451	0.281690	0.119697	0.396116	-0.002735	-0.011399	0.005898
67	0.332197	0.005000	-0.078480	-0.172117	-9.763181	0.281913	0.120366	0.395493	-0.010662	-0.003579	-0.004513
68	0.337197	0.005000	-0.083684	-0.285088	-9.663448	0.282090	0.120873	0.395078	-0.003432	-0.008983	0.008316
69	0.342197	0.005000	-0.201858	-0.232611	-9.731520	0.282090	0.120761	0.395452	-0.034159	-0.015589	-0.000818
70	0.347197	0.005000	-0.273364	-0.156960	-9.691403	0.282090	0.120650	0.395825	-0.053216	-0.007025	0.002829
71	0.352197	0.005000	-0.156960	-0.082399	-9.688361	0.282090	0.120538	0.396199	-0.062610	-0.010388	-0.002267
72	0.357197	0.005000	-0.196200	-0.004377	-9.687903	0.282090	0.120426	0.396572	-0.056962	-0.004270	-0.011909
73	0.362197	0.005000	-0.189418	0.039240	-9.731520	0.282090	0.120315	0.396946	-0.037101	-0.005839	0.001635
74	0.367197	0.005000	-0.136116	0.000000	-9.800802	0.282090	0.120203	0.397319	-0.022829	-0.014260	0.001940
75	0.372197	0.005000	-0.184595	0.016030	-9.731520	0.282090	0.120092	0.397693	-0.017027	-0.017775	-0.003326
76	0.377197	0.005000	-0.132030	-0.024930	-9.706590	0.282090	0.119980	0.398067	-0.017997	-0.018257	0.002512
77	0.382197	0.005000	-0.117720	-0.039240	-9.692280	0.282090	0.119869	0.398440	-0.020421	-0.001200	0.007878
78	0.387197	0.005000	-0.177125	-0.039240	-9.613800	0.282090	0.119757	0.398814	-0.018514	-0.016844	0.009082
79	0.392197	0.005000	-0.160221	-0.039240	-9.667768	0.282090	0.119646	0.399187	-0.024016	-0.006943	0.002306
80	0.397197	0.005000	-0.125219	-0.054820	-9.770760	0.282090	0.119534	0.399561	-0.028045	-0.011261	0.016855
81	0.402197	0.005000	-0.170387	-0.117460	-9.731520	0.282090	0.119423	0.399934	-0.030430	-0.010020	-0.005192
82	0.407197	0.005000	-0.164297	-0.060509	-9.770760	0.282090	0.119587	0.399795	-0.040713	-0.005313	-0.000871
83	0.412197	0.005000	-0.094969	-0.039240	-9.684036	0.282090	0.119810	0.399546	-0.033204	-0.015119	0.003483
84	0.417197	0.005000	-0.168699	-0.078480	-9.670648	0.282090	0.120033	0.399296	-0.042812	-0.004833	-0.011173
85	0.422197	0.005000	-0.231961	-0.143043	-9.695759	0.282090	0.120256	0.399047	-0.027522	-0.004029	0.001659
86	0.427197	0.005000	-0.234336	-0.001104	-9.690071	0.282090	0.120479	0.398798	-0.024041	-0.014452	-0.013061
87	0.432197	0.005000	-0.234154	-0.001286	-9.727662	0.282090	0.120702	0.398549	-0.020000	-0.004761	0.013876
88	0.437197	0.005000	-0.160664	-0.003704	-9.617504	0.282090	0.120926	0.398300	-0.023523	-0.011529	0.004236
89	0.442197	0.005000	-0.156960	-0.006109	-9.725411	0.282090	0.121149	0.398051	-0.035432	-0.006577	-0.002235
90	0.447197	0.005000	-0.156960	-0.017049	-9.748569	0.282090	0.121372	0.397802	-0.031970	-0.010860	0.013127
91	0.452197	0.005000	-0.196200	-0.010931	-9.720589	0.282090	0.121595	0.397553	-0.039287	-0.013090	-0.004129
92	0.457197	0.005000	-0.261335	-0.025895	-9.783309	0.282090	0.121818	0.397303	-0.021312	-0.009842	0.006213
93	0.462197	0.005000	-0.196200	0.007732	-9.825754	0.282090	0.122041	0.397054	-0.027851	-0.011301	0.000066
94	0.467197	0.005000	-0.235440	0.039240	-9.749686	0.282090	0.122264	0.396805	-0.022283	-0.004771	0.000894
95	0.472197	0.005000	-0.198114	0.039240	-9.673617	0.282040	0.122239	0.396889	-0.005331	-0.018780	0.003783
96	0.477197	0.005000	-0.085214	-0.048759	-9.747773	0.281929	0.121904	0.397387	-0.014002	-0.004108	-0.002529
97	0.482197	0.005000	-0.143120	-0.207759	-9.650759	0.281817	0.121570	0.397885	-0.027219	-0.011103	0.007546
98	0.487197	0.005000	-0.145528	-0.184768	-9.708656	0.281706	0.121235	0.398384	-0.038110	-0.004252	-0.000832
99	0.492197	0.005000	-0.087498	-0.060445	-9.692280	0.281594	0.120900	0.398882	-0.050331	-0.004637	-0.000196
100	0.497197	0.005000	-0.117720	0.039240	-9.751155	0.281482	0.120565	0.399380	-0.068861	-0.016716	0.002127
101	0.502197	0.005000	-0.082625	0.121865	-9.653040	0.281371	0.120231	0.399878	-0.053579	-0.008835	-0.000905
102	0.507197	0.005000	-0.119511	0.074899	-9.653040	0.281259	0.119896	0.400377	-0.026930	-0.011453	0.009621
103	0.512197	0.005000	-0.234200	0.000000	-9.653040	0.281148	0.119561	0.400875	-0.021251	-0.011195	-0.004789
104	0.517197	0.005000	-0.163023	-0.036209	-9.619863	0.281036	0.119227	0.401373	-0.001591	-0.009443	-0.007365
105	0.522197	0.005000	-0.117720	0.039240	-9.754455	0.280924	0.118892	0.401871	-0.007247	-0.014310	0.010805
106	0.527197	0.005000	-0.196200	0.007851	-9.762909	0.280813	0.118557	0.402370	0.003178	-0.006456	0.008071
107	0.532197	0.005000	-0.177476	-0.010258	-9.741778	0.280701	0.118222	0.402868	0.009412	-0.007439	-0.000646
108	0.537197	0.005000	-0.156960	-0.117720	-9.679608	0.280612	0.117940	0.403325	0.008136	-0.005577	-0.006109
109	0.542197	0.005000	-0.235440	-0.087559	-9.731520	0.280835	0.118386	0.403200	-0.007488	-0.006302	0.002643
110	0.547197	0.005000	-0.174453	-0.056733	-9.683771	0.281058	0.118833	0.403076	-0.016631	-0.002138	-0.002275
111	0.552197	0.005000	-0.215537	-0.058577	-9.613800	0.281281	0.119279	0.402951	-0.028666	-0.006124	-0.003821
112	0.557197	0.005000	-0.134451	0.039240	-9.647261	0.281505	0.119726	0.402826	-0.036173	-0.013134	0.002666
113	0.562197	0.005000	-0.132061	0.053581	-9.706621	0.281728	0.120172	0.402702	-0.042118	-0.010562	-0.000177
114	0.567197	0.005000	-0.063171	0.051206	-9.692280	0.281951	0.120619	0.402577	-0.044425	-0.017705	0.018775
115	0.572197	0.005000	-0.088056	0.039240	-9.700918	0.282174	0.121065	0.402453	-0.045067	-0.005029	0.005950
116	0.577197	0.005000	-0.156960	0.039240	-9.685079	0.282398	0.121512	0.402328	-0.025947	-0.008684	0.005836
117	0.582197	0.005000	-0.152150	0.034430	-9.697090	0.282621	0.121958	0.402203	-0.018672	-0.008021	0.001037
118	0.587197	0.005000	-0.117720	0.000000	-9.616235	0.282844	0.122405	0.402079	-0.011243	-0.015480	0.006496
119	0.592197	0.005000	-0.117811	-0.078480	-9.770669	0.283067	0.122851	0.401954	-0.014728	-0.011442	0.008274
120	0.597197	0.005000	-0.159759	-0.042039	-9.692280	0.283290	0.123298	0.401830	-0.023449	-0.009718	-0.007996
121	0.602197	0.005000	-0.162134	-0.034066	-9.653040	0.283514	0.123744	0.401705	-0.028643	-0.010120	0.013915
122	0.607197	0.005000	-0.203764	-0.039240	-9.755633	0.283505	0.123494	0.402531	-0.040199	-0.007380	0.009717
123	0.612197	0.005000	-0.196200	-0.019877	-9.760821	0.283393	0.122936	0.403777	-0.039941	-0.006907	0.005569
124	0.617197	0.005000	-0.210813	0.000000	-9.650741	0.283282	0.122378	0.405022	-0.047864	-0.004877	0.007037
125	0.622197	0.005000	-0.132424	-0.024536	-9.726649	0.283170	0.121821	0.406268	-0.038711	0.001844	0.000781
126	0.627197	0.005000	-0.156960	-0.017079	-9.647957	0.283059	0.121263	0.407514	-0.039374	-0.006468	0.002905
127	0.632197	0.005000	-0.176731	0.020074	-9.653040	0.282947	0.120705	0.408759	-0.044473	-0.007074	-0.012691
128	0.637197	0.005000	-0.117720	0.108825	-9.692280	0.282836	0.120147	0.410005	-0.020584	-0.008782	0.002721
129	0.642197	0.005000	-0.241219	0.244668	-9.740748	0.282724	0.119589	0.411251	-0.012480	-0.006173	-0.007019
130	0.647197	0.005000	-0.235440	0.131698	-9.613800	0.282613	0.119032	0.412496	-0.004000	-0.000364	0.016191
131	0.652197	0.005000	-0.334402	0.049481	-9.535320	0.282501	0.118474	0.413742	-0.015277	-0.006666	0.013595
132	0.657197	0.005000	-0.282455	0.015732	-9.676548	0.282389	0.117916	0.414988	-0.024129	-0.006607	0.000552
133	0.662197	0.005000	-0.156960	0.044321	-9.658121	0.282278	0.117358	0.416234	-0.016242	-0.012390	0.010293
134	0.667197	0.005000	-0.159624	0.159624	-9.731520	0.282166	0.116800	0.417479	-0.002097	-0.009240	0.008648
135	0.672197	0.005000	-0.195419	0.156440	-9.771020	0.282055	0.116488	0.418059	0.029326	-0.012629	0.009552
136	0.677197	0.005000	-0.152694	0.041373	-9.735786	0.281943	0.116711	0.417187	0.041408	-0.010532	0.011159
137	0.682197	0.005000	-0.156960	0.073972	-9.653040	0.281832	0.116934	0.416315	0.038709	-0.006702	0.004621
138	0.687197	0.005000	-0.196200	0.046138	-9.606902	0.281720	0.117158	0.415443	0.041696	-0.005655	0.016298
139	0.692197	0.005000	-0.087753	0.048513	-9.701553	0.281609	0.117381	0.414571	0.040645	-0.011743	-0.002952
140	0.697197	0.005000	-0.121971	0.066817	-9.731520	0.281497	0.117604	0.413699	0.044366	-0.010134	0.005709
141	0.702197	0.005000	-0.117720	-0.025202	-9.759596	0.281385	0.117827	0.412827	0.051265	-0.012006	0.002280
142	0.707197	0.005000	-0.156960	0.000000	-9.708693	0.281274	0.118050	0.411955	0.049326	-0.007614	0.000687
143	0.712197	0.005000	-0.254243	0.001634	-9.594997	0.281162	0.118273	0.411083	0.032888	-0.011070	0.019710
144	0.717197	0.005000	-0.277796	0.039240	-9.595738	0.281051	0.118496	0.410211	0.019263	-0.009557	0.010024
145	0.722197	0.005000	-0.204096	0.094152	-9.645144	0.280939	0.118719	0.409339	0.025380	0.001372	0.012012
146	0.727197	0.005000	-0.248737	0.091777	-9.704926	0.280827	0.118942	0.408467	0.036381	0.001516	0.003439
147	0.732197	0.005000	-0.246347	0.050147	-9.742427	0.280716	0.119166	0.407595	0.053492	-0.005283	0.003319
148	0.737197	0.005000	-0.235440	0.047772	-9.753696	0.280604	0.119389	0.406723	0.053753	-0.010879	0.003387
149	0.742197	0.005000	-0.196200	-0.012283	-9.653040	0.280806	0.118881	0.405968	0.052654	-0.000930	-0.005004
150	0.747197	0.005000	-0.313920	-0.039240	-9.739053	0.281029	0.118323	0.405220	0.044853	-0.002812	0.011787
151	0.752197	0.005000	-0.159713	-0.037863	-9.728767	0.281252	0.117765	0.404473	0.029917	-0.011382	0.001388
152	0.757197	0.005000	-0.273670	-0.076459	-9.576581	0.281475	0.117208	0.403725	0.032681	0.002733	0.005482
153	0.762197	0.005000	-0.232012	-0.042668	-9.681996	0.281698	0.116650	0.402978	0.020037	-0.006479	-0.000078
154	0.767197	0.005000	-0.268847	-0.005833	-9.653040	0.281921	0.116092	0.402230	0.026051	-0.002111	0.005585
155	0.772197	0.005000	-0.187593	0.030633	-9.661647	0.282144	0.115534	0.401483	0.022190	-0.007096	0.005660
156	0.777197	0.005000	-0.252685	0.000000	-9.692280	0.282368	0.114976	0.400735	0.012523	-0.003610	0.000434
157	0.782197	0.005000	-0.182828	-0.012495	-9.653040	0.282591	0.114418	0.399988	0.020221	-0.009567	0.015531
158	0.787197	0.005000	-0.172723	-0.046955	-9.629563	0.282814	0.113861	0.399241	0.018433	-0.011826	0.003713
159	0.792197	0.005000	-0.178062	-0.039240	-9.613800	0.283037	0.113303	0.398493	0.019700	0.001297	0.007250
160	0.797197	0.005000	-0.194415	0.001785	-9.576345	0.283260	0.112745	0.397746	0.009977	-0.002737	0.011373
161	0.802197	0.005000	-0.179863	-0.006565	-9.708617	0.283483	0.112187	0.396998	0.005224	0.003775	-0.008162
162	0.807197	0.005000	-0.117720	0.103758	-9.835278	0.283520	0.111505	0.396667	0.006346	-0.007283	0.020956
163	0.812197	0.005000	-0.184628	0.101625	-9.731520	0.283408	0.110724	0.396667	0.016639	-0.011102	0.010292
164	0.817197	0.005000	-0.156960	0.060085	-9.731520	0.283297	0.109943	0.396667	0.022324	-0.011790	0.010576
165	0.822197	0.005000	-0.163767	0.039240	-9.803193	0.283185	0.109163	0.396667	0.027412	-0.008733	0.002408
166	0.827197	0.005000	-0.113288	0.030375	-9.761895	0.283074	0.108382	0.396667	0.036581	-0.009620	-0.003590
167	0.832197	0.005000	-0.080522	-0.037198	-9.653040	0.282962	0.107601	0.396667	0.040789	-0.008889	0.004489
168	0.837197	0.005000	-0.195526	0.000000	-9.653040	0.282851	0.106820	0.396667	0.038134	0.001965	-0.003227
169	0.842197	0.005000	-0.196200	-0.036485	-9.655795	0.282739	0.106039	0.396667	0.046859	-0.006761	0.004976
170	0.847197	0.005000	-0.269520	0.000000	-9.760441	0.282628	0.105258	0.396667	0.036178	-0.013632	0.000155
171	0.852197	0.005000	-0.164536	0.007576	-9.699856	0.282516	0.104477	0.396667	0.049594	0.000193	-0.004967
172	0.857197	0.005000	-0.137684	-0.068498	-9.711556	0.282405	0.103697	0.396667	0.042521	-0.008142	-0.001971
173	0.862197	0.005000	-0.169356	-0.039240	-9.665436	0.282293	0.102916	0.396667	0.039082	-0.004999	-0.012201
174	0.867197	0.005000	-0.205830	0.000000	-9.667845	0.282182	0.102135	0.396667	0.031283	-0.010547	0.005947
175	0.872197	0.005000	-0.156960	0.039240	-9.613800	0.282150	0.101692	0.396800	0.040545	-0.010111	0.002258
176	0.877197	0.005000	-0.137348	-0.058868	-9.653040	0.282484	0.102808	0.397548	0.044810	-0.001714	0.003661
177	0.882197	0.005000	-0.161783	-0.034417	-9.770760	0.282819	0.103924	0.398296	0.041345	-0.007595	0.005344
178	0.887197	0.005000	-0.102921	-0.181401	-9.667839	0.283154	0.105040	0.399043	0.031499	-0.005198	-0.006943
179	0.892197	0.005000	-0.171428	-0.159042	-9.706748	0.283489	0.106156	0.399791	0.016632	-0.010337	0.000683
180	0.897197	0.005000	-0.176917	-0.127698	-9.663018	0.283824	0.107272	0.400539	-0.004507	-0.009484	-0.005676
181	0.902197	0.005000	-0.227877	-0.063354	-9.778323	0.284158	0.108388	0.401287	-0.026459	-0.005531	0.008659
182	0.907197	0.005000	-0.191042	0.044398	-9.736678	0.284493	0.109504	0.402035	-0.036910	-0.012781	0.003219
183	0.912197	0.005000	-0.190719	0.039240	-9.692280	0.284828	0.110620	0.402782	-0.012958	-0.013401	0.001870
184	0.917197	0.005000	-0.078817	-0.039240	-9.653377	0.285163	0.111736	0.403530	-0.011376	-0.012978	0.000138
185	0.922197	0.005000	-0.117720	-0.002057	-9.692280	0.285497	0.112852	0.404278	-0.015244	-0.008690	0.003859
186	0.927197	0.005000	-0.113288	-0.039240	-9.609368	0.285832	0.113968	0.405026	-0.025816	-0.000594	0.010796
187	0.932197	0.005000	-0.131365	-0.046062	-9.685458	0.286167	0.115085	0.405774	-0.035045	-0.005755	0.001253
188	0.937197	0.005000	-0.217045	0.020845	-9.632195	0.286502	0.116201	0.406521	-0.023297	-0.005020	0.012589
189	0.942197	0.005000	-0.263093	0.011587	-9.641453	0.284950	0.115789	0.407670	-0.036602	-0.000561	0.011387
190	0.947197	0.005000	-0.120367	0.064518	-9.745482	0.282942	0.115008	0.408916	-0.026250	-0.005022	-0.004263
191	0.952197	0.005000	-0.202735	0.055593	-9.744590	0.280934	0.114227	0.410161	-0.000955	-0.018497	0.011205
192	0.957197	0.005000	-0.175687	0.059753	-9.727950	0.278926	0.113446	0.411407	0.013557	-0.010088	0.002528
193	0.962197	0.005000	-0.214075	-0.021365	-9.595925	0.276918	0.112665	0.412653	0.035237	-0.009774	0.016572
194	0.967197	0.005000	-0.219693	0.015747	-9.653040	0.274910	0.111885	0.413898	0.035497	0.000104	-0.007957
195	0.972197	0.005000	-0.130841	-0.039240	-9.731520	0.272902	0.111104	0.415144	0.034487	-0.008199	0.004048
196	0.977197	0.005000	-0.089132	0.000000	-9.781412	0.270894	0.110323	0.416390	0.041811	-0.001596	0.010811
197	0.982197	0.005000	-0.032948	0.140486	-9.818237	0.268886	0.109542	0.417635	0.044338	-0.006430	0.000769
198	0.987197	0.005000	-0.202031	0.000000	-9.837578	0.266877	0.108761	0.418881	0.066747	-0.000641	0.011660
199	0.992197	0.005000	-0.192786	0.003414	-9.653040	0.264869	0.107980	0.420127	0.075114	-0.006506	-0.002500
200	0.997197	0.005000	-0.194180	0.039240	-9.731520	0.262861	0.107199	0.421373	0.083191	-0.008187	-0.003932
201	1.002197	0.005000	-0.117720	-0.036457	-9.807217	0.260853	0.106418	0.422618	0.087761	-0.008533	-0.000154
202	1.007197	0.005000	-0.117720	-0.184900	-9.664340	0.260367	0.106541	0.422483	0.091291	-0.001356	0.008302
203	1.012197	0.005000	-0.190043	-0.051554	-9.743834	0.261930	0.107880	0.420489	0.069841	-0.002545	0.009672
204	1.017197	0.005000	-0.134784	-0.109188	-9.722988	0.263492	0.109220	0.418495	0.061324	-0.008111	0.007613
205	1.022197	0.005000	-0.174356	-0.146038	-9.720598	0.265055	0.110559	0.416501	0.058508	-0.005566	0.008180
206	1.027197	0.005000	-0.182903	-0.091777	-9.744166	0.266617	0.111898	0.414507	0.031590	-0.009167	-0.002059
207	1.032197	0.005000	-0.196200	-0.070614	-9.652995	0.268180	0.113238	0.412513	0.016194	-0.009247	-0.007727
208	1.037197	0.005000	-0.238556	-0.099658	-9.713458	0.269742	0.114577	0.410519	0.017549	-0.008133	0.003396
209	1.042197	0.005000	-0.179076	-0.373612	-9.617128	0.271305	0.115916	0.408525	-0.011623	-0.005239	-0.003768
210	1.047197	0.005000	-0.159165	0.048411	-9.528354	0.272868	0.117256	0.406531	-0.050916	-0.005378	0.010556
211	1.052197	0.005000	-0.235440	0.209928	-9.664824	0.274430	0.118595	0.404537	-0.053360	-0.009565	0.009031
212	1.057197	0.005000	-0.202217	0.145646	-9.720206	0.275993	0.119934	0.402543	-0.017611	-0.001664	0.011954
213	1.062197	0.005000	-0.305009	0.042838	-9.758252	0.277555	0.121274	0.400549	0.015742	-0.004003	0.005641
214	1.067197	0.005000	-0.209209	-0.156960	-9.803496	0.279118	0.122613	0.398555	0.019323	-0.007713	-0.002455
215	1.072197	0.005000	-0.305744	-0.117720	-9.735608	0.280591	0.123875	0.396654	0.008203	-0.012086	0.004400
216	1.077197	0.005000	-0.155277	-0.039240	-9.765710	0.280479	0.123763	0.396404	-0.009034	-0.001561	-0.000829
217	1.082197	0.005000	-0.194748	-0.039240	-9.730068	0.280368	0.123652	0.396155	-0.003290	0.001120	0.016302
218	1.087197	0.005000	-0.229238	-0.003101	-9.734621	0.280256	0.123540	0.395906	0.015007	-0.009123	0.005044
219	1.092197	0.005000	-0.162451	-0.033749	-9.703262	0.280145	0.123429	0.395657	0.034270	0.001345	-0.002108
220	1.097197	0.005000	-0.188334	-0.007866	-9.660906	0.280033	0.123317	0.395408	0.016607	-0.006325	0.007407
221	1.102197	0.005000	-0.206456	-0.078480	-9.595073	0.279921	0.123205	0.395158	0.006146	-0.010441	0.006554
222	1.107197	0.005000	-0.156960	-0.182528	-9.640256	0.279810	0.123094	0.394909	-0.005495	-0.003370	-0.004672
223	1.112197	0.005000	-0.172157	-0.156960	-9.613800	0.279698	0.122982	0.394660	-0.030337	-0.006717	-0.005524
224	1.117197	0.005000	-0.156960	-0.078480	-9.653040	0.279587	0.122871	0.394411	-0.033147	-0.006414	0.001176
225	1.122197	0.005000	-0.097702	-0.000796	-9.692280	0.279475	0.122759	0.394162	-0.024289	-0.013173	0.014933
226	1.127197	0.005000	-0.134531	0.022429	-9.804381	0.279364	0.122648	0.393912	-0.007856	-0.005138	0.011184
227	1.132197	0.005000	-0.185429	-0.039240	-9.767296	0.279252	0.122536	0.393663	-0.002279	-0.012596	0.005067
228	1.137197	0.005000	-0.208045	-0.117720	-9.731520	0.279140	0.122424	0.393414	-0.010295	-0.007430	0.005198
229	1.142197	0.005000	-0.284150	-0.078480	-9.682810	0.279255	0.122087	0.393417	-0.011489	-0.005803	0.013852
230	1.147197	0.005000	-0.196200	-0.046320	-9.731520	0.279478	0.121641	0.393542	-0.027787	-0.012608	0.010519
231	1.152197	0.005000	-0.161665	-0.025126	-9.795886	0.279701	0.121195	0.393666	-0.022899	-0.009807	0.003805
232	1.157197	0.005000	-0.124709	0.041570	-9.687621	0.279924	0.120748	0.393791	-0.024030	-0.015864	0.011282
233	1.162197	0.005000	-0.196261	0.000122	-9.652979	0.280147	0.120302	0.393915	-0.019002	-0.016179	0.006969
234	1.167197	0.005000	-0.120185	-0.002465	-9.653040	0.280370	0.119856	0.394040	0.003048	-0.017236	0.013042
235	1.172197	0.005000	-0.117720	-0.112838	-9.760996	0.280594	0.119410	0.394165	-0.006623	-0.011167	-0.004470
236	1.177197	0.005000	-0.117720	-0.117720	-9.770760	0.280817	0.118963	0.394289	-0.008277	-0.011037	0.001137
237	1.182197	0.005000	-0.039240	-0.058646	-9.711686	0.281040	0.118517	0.394414	-0.014607	-0.012001	0.016600
238	1.187197	0.005000	-0.090915	-0.039240	-9.733456	0.281263	0.118071	0.394538	-0.022762	-0.006006	0.004523
239	1.192197	0.005000	-0.102910	0.024430	-9.697469	0.281486	0.117625	0.394663	-0.026267	-0.005970	0.016021
240	1.197197	0.005000	-0.156960	-0.100520	-9.635840	0.281710	0.117179	0.394788	-0.034489	-0.015469	0.003067
241	1.202197	0.005000	-0.156960	-0.098145	-9.574560	0.281933	0.116732	0.394912	-0.029369	-0.007637	0.005895
242	1.207197	0.005000	-0.178925	0.061205	-9.687591	0.282222	0.116517	0.395037	-0.029647	-0.006604	0.004730
243	1.212197	0.005000	-0.147521	0.039240	-9.701719	0.282668	0.116852	0.395161	-0.020060	-0.000725	0.001015
244	1.217197	0.005000	-0.144450	0.051750	-9.653040	0.283114	0.117186	0.395286	-0.006787	-0.006766	0.001501
245	1.222197	0.005000	-0.117720	-0.049375	-9.663175	0.283561	0.117521	0.395411	-0.004957	-0.008670	-0.004629
246	1.227197	0.005000	-0.164705	-0.109975	-9.606055	0.284007	0.117856	0.395535	0.005487	-0.004273	-0.001216
247	1.232197	0.005000	-0.185460	-0.117720	-9.603060	0.284453	0.118190	0.395660	-0.013273	-0.008710	0.000375
248	1.237197	0.005000	-0.117720	-0.039240	-9.616356	0.284899	0.118525	0.395784	-0.017617	-0.010289	0.001351
249	1.242197	0.005000	-0.078893	-0.000138	-9.692556	0.285345	0.118860	0.395909	-0.027033	-0.020314	0.009806
250	1.247197	0.005000	-0.196200	0.071764	-9.696758	0.285792	0.119195	0.396034	-0.031442	-0.006260	-0.008805
251	1.252197	0.005000	-0.191586	0.004614	-9.687666	0.286238	0.119529	0.396158	-0.024907	-0.012793	0.014510
252	1.257197	0.005000	-0.117720	-0.039240	-9.685276	0.286684	0.119864	0.396283	-0.011119	-0.009388	0.000797
253	1.262197	0.005000	-0.186821	-0.018758	-9.722141	0.287130	0.120199	0.396407	0.005223	-0.005394	0.002346
254	1.267197	0.005000	-0.168729	0.000000	-9.704049	0.287577	0.120533	0.396532	0.021253	-0.007893	0.003129
255	1.272197	0.005000	-0.185248	-0.067528	-9.692280	0.288023	0.120868	0.396657	0.030972	-0.005560	0.003543
256	1.277197	0.005000	-0.258146	0.000000	-9.597266	0.287651	0.120794	0.396667	0.037530	-0.007008	-0.006810
257	1.282197	0.005000	-0.235440	-0.136629	-9.634131	0.287204	0.120682	0.396667	0.031607	-0.009497	-0.013218
258	1.287197	0.005000	-0.196200	-0.021299	-9.653040	0.286758	0.120570	0.396667	0.026513	-0.008532	0.001467
259	1.292197	0.005000	-0.156960	-0.023674	-9.707846	0.286312	0.120459	0.396667	0.006911	-0.015166	-0.004720
260	1.297197	0.005000	-0.143784	-0.013176	-9.744408	0.285865	0.120347	0.396667	-0.004685	0.003973	-0.006952
261	1.302197	0.005000	-0.132484	0.028439	-9.653040	0.285419	0.120235	0.396667	-0.002035	-0.012905	0.004111
262	1.307197	0.005000	-0.165371	-0.022419	-9.675459	0.284972	0.120124	0.396667	0.004153	-0.004390	-0.002608
263	1.312197	0.005000	-0.151326	0.039240	-9.619434	0.284526	0.120012	0.396667	0.007254	-0.009266	-0.000881
264	1.317197	0.005000	-0.127408	0.042469	-9.659498	0.284079	0.119901	0.396667	-0.006918	-0.008061	-0.010264
265	1.322197	0.005000	-0.196200	0.078480	-9.810811	0.283633	0.119789	0.396667	-0.006512	-0.004168	-0.004258
266	1.327197	0.005000	-0.120866	0.078480	-9.849240	0.283187	0.119677	0.396667	0.001064	-0.009468	0.001728
267	1.332197	0.005000	-0.153010	0.039240	-9.664889	0.282740	0.119566	0.396667	-0.009205	-0.009055	0.007794
268	1.337197	0.005000	-0.163298	-0.065803	-9.620138	0.282294	0.119454	0.396667	0.003757	-0.005255	0.004921
269	1.342197	0.005000	-0.248540	-0.056667	-9.692280	0.282211	0.119524	0.396532	-0.002686	-0.000851	0.010150
270	1.347197	0.005000	-0.156960	0.000000	-9.692280	0.282434	0.119747	0.396282	0.012775	-0.006519	0.019242
271	1.352197	0.005000	-0.143482	-0.066197	-9.757282	0.282657	0.119970	0.396033	0.014721	-0.006924	0.001135
272	1.357197	0.005000	-0.205122	-0.016054	-9.708334	0.282880	0.120193	0.395784	0.008030	-0.007305	0.002265
273	1.362197	0.005000	-0.196200	-0.120473	-9.650287	0.283103	0.120416	0.395535	0.008499	-0.006534	0.009663
274	1.367197	0.005000	-0.138354	-0.041267	-9.653040	0.283326	0.120639	0.395286	-0.006070	-0.008298	0.001636
275	1.372197	0.005000	-0.173192	-0.189423	-9.653040	0.283549	0.120862	0.395037	-0.015266	-0.006909	0.008409
276	1.377197	0.005000	-0.156960	-0.090037	-9.706121	0.283772	0.121085	0.394788	-0.018173	-0.005389	0.012463
277	1.382197	0.005000	-0.117720	0.000000	-9.731520	0.283995	0.121308	0.394539	-0.013786	-0.007526	0.005579
278	1.387197	0.005000	-0.108644	-0.030164	-9.722444	0.284218	0.121531	0.394290	-0.011287	-0.008374	0.005493
279	1.392197	0.005000	-0.117720	-0.032539	-9.659741	0.284441	0.121754	0.394041	-0.007636	-0.005554	-0.007822
280	1.397197	0.005000	-0.078480	-0.034929	-9.687969	0.284664	0.121977	0.393792	0.003524	-0.008453	0.003279
281	1.402197	0.005000	-0.125465	-0.007745	-9.611864	0.284887	0.122200	0.393543	0.006386	-0.006855	-0.001338
282	1.407197	0.005000	-0.274680	-0.156960	-9.690903	0.284969	0.122317	0.393333	0.008128	-0.010572	-0.000693
283	1.412197	0.005000	-0.199063	0.072754	-9.613800	0.284299	0.121871	0.393333	0.001520	-0.003548	-0.008090
284	1.417197	0.005000	-0.162633	-0.067135	-9.680935	0.283630	0.121425	0.393333	0.018133	-0.005581	-0.002049
285	1.422197	0.005000	-0.148912	0.023145	-9.746617	0.282960	0.120978	0.393333	0.017967	-0.004911	0.011997
286	1.427197	0.005000	-0.164887	-0.018364	-9.692280	0.282291	0.120532	0.393333	0.018183	-0.003465	-0.000046
287	1.432197	0.005000	-0.156960	-0.078480	-9.679467	0.281622	0.120086	0.393333	0.023384	-0.005461	0.011271
288	1.437197	0.005000	-0.180997	-0.063277	-9.755557	0.280952	0.119640	0.393333	0.010406	-0.014334	0.005550
289	1.442197	0.005000	-0.300427	-0.078480	-9.753182	0.280283	0.119194	0.393333	0.009168	-0.003255	0.017085
290	1.447197	0.005000	-0.216864	-0.039936	-9.810696	0.279613	0.118747	0.393333	0.007234	-0.011747	0.013380
291	1.452197	0.005000	-0.179303	-0.016897	-9.770760	0.278944	0.118301	0.393333	0.000951	-0.010142	-0.001541
292	1.457197	0.005000	-0.196200	-0.029014	-9.756253	0.278275	0.117855	0.393333	0.000057	-0.013286	0.001031
293	1.462197	0.005000	-0.208332	0.012132	-9.719388	0.277605	0.117409	0.393333	-0.004812	-0.011521	-0.009216
294	1.467197	0.005000	-0.254234	0.069083	-9.720470	0.276936	0.116962	0.393333	-0.010981	-0.003956	0.001450
295	1.472197	0.005000	0.089794	0.064517	-9.803019	0.276266	0.116516	0.393333	-0.018120	-0.007159	0.010953
296	1.477197	0.005000	-0.092208	0.039240	-9.726944	0.276380	0.116679	0.393722	-0.007029	-0.012343	-0.002590
297	1.482197	0.005000	-0.196200	0.000000	-9.655199	0.276715	0.117014	0.394220	0.003854	-0.009761	0.006746
298	1.487197	0.005000	-0.196200	0.038998	-9.614284	0.277050	0.117349	0.394719	0.013372	-0.001270	-0.003771
299	1.492197	0.005000	-0.201464	0.005264	-9.726256	0.277385	0.117684	0.395218	0.016702	-0.003778	0.007266
300	1.497197	0.005000	-0.191193	0.029226	-9.658047	0.277720	0.118019	0.395716	0.005388	-0.009903	0.004068
301	1.502197	0.005000	-0.117720	0.007397	-9.716726	0.278054	0.118353	0.396215	0.013784	-0.005849	0.005653
302	1.507197	0.005000	-0.294376	-0.039240	-9.760988	0.278389	0.118688	0.396713	0.017358	-0.011428	0.004293
303	1.512197	0.005000	-0.181254	-0.054186	-9.770760	0.278724	0.119023	0.397212	0.019441	0.000441	-0.008061
304	1.517197	0.005000	-0.206365	0.010165	-9.692280	0.279059	0.119358	0.397710	0.020616	-0.004736	0.011760
305	1.522197	0.005000	-0.168457	-0.022328	-9.709192	0.279394	0.119693	0.398209	0.017070	-0.008297	-0.001198
306	1.527197	0.005000	-0.196835	-0.019938	-9.710947	0.279729	0.120028	0.398707	0.019651	-0.008930	0.004714
307	1.532197	0.005000	-0.221992	-0.035125	-9.674717	0.280064	0.120363	0.399206	0.008136	-0.002619	0.000375
308	1.537197	0.005000	-0.108825	-0.063307	-9.746693	0.280398	0.120697	0.399704	0.007531	-0.008791	-0.010451
309	1.542197	0.005000	-0.195353	0.026442	-9.665838	0.280733	0.120851	0.399797	0.029523	-0.006916	0.007726
310	1.547197	0.005000	-0.185792	-0.039240	-9.731520	0.281068	0.120739	0.399298	0.008207	-0.013664	0.000185
311	1.552197	0.005000	-0.140895	-0.039240	-9.708345	0.281403	0.120627	0.398800	0.015786	-0.010131	0.013809
312	1.557197	0.005000	-0.145675	-0.039240	-9.658682	0.281738	0.120516	0.398301	0.020055	-0.012003	0.004344
313	1.562197	0.005000	-0.049042	0.000000	-9.617067	0.282073	0.120404	0.397803	0.006281	-0.007738	0.008352
314	1.567197	0.005000	-0.155674	0.000429	-9.692280	0.282408	0.120292	0.397304	0.003293	-0.010826	0.010778
315	1.572197	0.005000	-0.113787	0.039240	-9.655007	0.282743	0.120181	0.396806	-0.000710	-0.009164	0.002699
316	1.577197	0.005000	-0.156960	0.078480	-9.687938	0.283077	0.120069	0.396307	0.011058	-0.003941	0.010238
317	1.582197	0.005000	-0.182737	0.052703	-9.764028	0.283412	0.119957	0.395809	0.011945	-0.003665	-0.004263
318	1.587197	0.005000	-0.205307	0.009107	-9.632013	0.283747	0.119846	0.395310	0.018761	-0.004538	0.004062
319	1.592197	0.005000	-0.089977	-0.011497	-9.586057	0.284082	0.119734	0.394811	0.016495	-0.006070	0.007136
320	1.597197	0.005000	-0.207697	-0.103848	-9.678408	0.284417	0.119622	0.394313	0.023034	-0.007190	0.006313
321	1.602197	0.005000	-0.258433	-0.022993	-9.676033	0.284752	0.119511	0.393814	0.023573	-0.005919	0.009169
322	1.607197	0.005000	-0.155430	0.001530	-9.671895	0.285052	0.119415	0.393350	0.005619	-0.014452	-0.005912
323	1.612197	0.005000	-0.156960	-0.017974	-9.706962	0.284383	0.119749	0.393848	0.013137	0.001271	-0.000254
324	1.617197	0.005000	-0.219876	-0.023676	-9.731520	0.283713	0.120084	0.394347	-0.004114	-0.006122	0.003535
325	1.622197	0.005000	-0.248377	0.039240	-9.653040	0.283044	0.120419	0.394845	0.002531	-0.001911	0.007309
326	1.627197	0.005000	-0.178447	-0.039240	-9.674527	0.282374	0.120753	0.395343	0.000051	-0.000367	0.009014
327	1.632197	0.005000	-0.187871	-0.070151	-9.739849	0.281705	0.121088	0.395842	0.003139	0.005076	-0.003990
328	1.637197	0.005000	-0.117720	0.033317	-9.758915	0.281036	0.121423	0.396340	0.012434	-0.008663	0.008858
329	1.642197	0.005000	-0.156960	-0.039240	-9.802988	0.280366	0.121757	0.396838	0.022676	-0.006320	-0.004466
330	1.647197	0.005000	-0.117720	-0.155858	-9.768556	0.279697	0.122092	0.397337	0.027560	-0.007344	0.008066
331	1.652197	0.005000	-0.041842	-0.041842	-9.654341	0.279027	0.122427	0.397835	0.013125	-0.007446	0.008464
332	1.657197	0.005000	-0.153240	0.000000	-9.759599	0.278358	0.122762	0.398333	0.006426	0.002009	0.006326
333	1.662197	0.005000	-0.196200	-0.033103	-9.758486	0.277688	0.123096	0.398832	0.004031	-0.014004	0.015921
334	1.667197	0.005000	-0.218354	-0.061394	-9.753674	0.277019	0.123431	0.399330	0.023528	-0.012545	0.002993
335	1.672197	0.005000	-0.185242	-0.067522	-9.731520	0.276350	0.123766	0.399828	0.024158	-0.008743	0.008542
336	1.677197	0.005000	-0.196200	-0.078480	-9.718154	0.276192	0.123881	0.400000	0.018894	-0.008297	0.009904
337	1.682197	0.005000	-0.172739	-0.133499	-9.708059	0.276304	0.123881	0.400000	0.013030	-0.003010	0.006538
338	1.687197	0.005000	-0.138520	-0.078480	-9.655400	0.276415	0.123881	0.400000	0.005213	0.000759	0.017991
339	1.692197	0.005000	-0.117720	-0.020592	-9.632448	0.276527	0.123881	0.400000	-0.001704	-0.001788	0.005476
340	1.697197	0.005000	-0.140722	-0.032476	-9.692280	0.276639	0.123881	0.400000	0.009732	-0.003101	0.005363
341	1.702197	0.005000	-0.117720	-0.050830	-9.692280	0.276750	0.123881	0.400000	0.007752	-0.004750	-0.000727
342	1.707197	0.005000	-0.190815	-0.011285	-9.754090	0.276862	0.123881	0.400000	0.006087	-0.001938	-0.008404
343	1.712197	0.005000	-0.174750	0.039240	-9.744076	0.276973	0.123881	0.400000	0.009573	-0.011315	-0.003419
344	1.717197	0.005000	-0.261640	0.032720	-9.711961	0.277085	0.123881	0.400000	0.015989	-0.010122	-0.000966
345	1.722197	0.005000	-0.161090	-0.082610	-9.665429	0.277196	0.123881	0.400000	0.020573	-0.008319	0.021720
346	1.727197	0.005000	-0.153450	-0.076725	-9.769005	0.277308	0.123881	0.400000	0.013668	-0.011210	-0.003328
347	1.732197	0.005000	-0.194272	-0.039240	-9.731520	0.277420	0.123881	0.400000	0.015817	-0.004271	0.014647
348	1.737197	0.005000	-0.160007	-0.042287	-9.656087	0.277531	0.123881	0.400000	0.002429	-0.012376	0.001223
349	1.742197	0.005000	-0.196200	0.000000	-9.647576	0.277766	0.123758	0.399897	0.003660	-0.003700	0.002765
350	1.747197	0.005000	-0.164829	-0.086349	-9.692280	0.278324	0.123311	0.399523	0.018299	-0.009999	0.005612
351	1.752197	0.005000	-0.185916	-0.030853	-9.702564	0.278882	0.122865	0.399149	0.019038	-0.007855	-0.012582
352	1.757197	0.005000	-0.117720	-0.078480	-9.653040	0.279440	0.122419	0.398775	0.023067	-0.005248	0.006918
353	1.762197	0.005000	-0.180816	-0.093864	-9.676896	0.279998	0.121972	0.398402	0.012827	-0.011668	0.004284
354	1.767197	0.005000	-0.110338	-0.121411	-9.649349	0.280555	0.121526	0.398028	0.013584	-0.006531	-0.007303
355	1.772197	0.005000	-0.096512	-0.097571	-9.692280	0.281113	0.121080	0.397654	0.008736	-0.012773	0.003859
356	1.777197	0.005000	-0.140260	-0.055940	-9.669740	0.281671	0.120633	0.397281	0.012996	-0.005921	0.002456
357	1.782197	0.005000	-0.132045	-0.132045	-9.677955	0.282229	0.120187	0.396907	0.017612	-0.004284	0.004354
358	1.787197	0.005000	-0.196200	-0.145009	-9.719569	0.282787	0.119741	0.396533	0.005248	-0.007261	0.002082
359	1.792197	0.005000	-0.098599	-0.077482	-9.632921	0.283344	0.119295	0.396159	0.001652	-0.004137	0.007426
360	1.797197	0.005000	-0.071295	-0.078480	-9.660225	0.283902	0.118848	0.395786	-0.011271	-0.012282	0.003695
361	1.802197	0.005000	-0.044035	-0.108129	-9.697075	0.284460	0.118402	0.395412	-0.004071	0.001270	0.006792
362	1.807197	0.005000	-0.039240	0.039240	-9.770760	0.285018	0.117956	0.395038	0.001228	-0.008619	0.001585
363	1.812197	0.005000	-0.116873	0.039240	-9.770760	0.284875	0.118010	0.395000	0.022436	-0.006132	0.007517
364	1.817197	0.005000	-0.120534	-0.042054	-9.767946	0.284652	0.118122	0.395000	0.022273	-0.010373	0.016747
365	1.822197	0.005000	-0.083669	-0.107343	-9.658229	0.284429	0.118233	0.395000	0.013813	-0.004056	0.004496
366	1.827197	0.005000	-0.181043	-0.054397	-9.708784	0.284205	0.118345	0.395000	0.004597	-0.004227	0.011309
367	1.832197	0.005000	-0.225486	-0.039240	-9.721566	0.283982	0.118457	0.395000	0.007700	-0.009205	0.001317
368	1.837197	0.005000	-0.299368	-0.039240	-9.611591	0.283759	0.118568	0.395000	0.009263	-0.002970	0.001693
369	1.842197	0.005000	-0.196200	-0.014719	-9.702082	0.283536	0.118680	0.395000	0.015740	-0.011627	0.010103
370	1.847197	0.005000	-0.156960	-0.100611	-9.753651	0.283313	0.118791	0.395000	0.008178	-0.011348	0.003144
371	1.852197	0.005000	-0.078480	-0.039240	-9.712000	0.283090	0.118903	0.395000	0.012124	-0.010128	0.011163
372	1.857197	0.005000	-0.161980	-0.034220	-9.687260	0.282867	0.119015	0.395000	0.003994	-0.006132	0.007807
373	1.862197	0.005000	-0.196200	-0.093178	-9.780604	0.282644	0.119126	0.395000	0.005352	0.001187	0.010308
374	1.867197	0.005000	-0.193828	-0.156960	-9.653040	0.282420	0.119238	0.395000	0.010211	-0.013102	0.006874
375	1.872197	0.005000	-0.245315	-0.097970	-9.653040	0.282197	0.119349	0.395000	0.010656	-0.003062	0.007030
376	1.877197	0.005000	-0.181257	0.000000	-9.613800	0.281395	0.118882	0.396293	0.002845	-0.013296	0.017186
377	1.882197	0.005000	-0.122727	0.044247	-9.692280	0.280057	0.117878	0.398784	-0.008440	-0.001328	0.002565
378	1.887197	0.005000	-0.269446	0.039240	-9.736754	0.278718	0.116874	0.401275	0.003921	0.000694	-0.002343
379	1.892197	0.005000	-0.195716	-0.078722	-9.809758	0.277379	0.115870	0.403767	0.007247	-0.008868	0.008785
380	1.897197	0.005000	-0.154787	-0.080653	-9.770760	0.276041	0.114866	0.406258	0.007468	-0.006022	-0.001034
381	1.902197	0.005000	-0.200778	-0.113142	-9.775338	0.274702	0.113862	0.408750	-0.007242	-0.003937	0.016800
382	1.907197	0.005000	-0.253698	-0.046234	-9.685286	0.273363	0.112858	0.411241	-0.014794	-0.004584	0.001751
383	1.912197	0.005000	-0.205600	-0.039240	-9.653040	0.272024	0.111854	0.413733	-0.005177	-0.007895	0.008215
384	1.917197	0.005000	-0.168775	-0.051055	-9.680465	0.270686	0.110850	0.416224	-0.003324	-0.010569	0.013984
385	1.922197	0.005000	-0.171183	-0.039240	-9.603006	0.269347	0.109846	0.418716	0.009413	-0.001757	-0.006858
386	1.927197	0.005000	-0.167627	0.016636	-9.698249	0.268008	0.108842	0.421207	0.009800	-0.007216	0.007988
387	1.932197	0.005000	-0.156960	-0.059434	-9.751714	0.266669	0.107838	0.423698	0.004470	-0.005660	-0.005605
388	1.937197	0.005000	-0.196200	-0.039240	-9.788543	0.265331	0.106834	0.426190	0.019288	-0.008871	0.003037
389	1.942197	0.005000	-0.180829	-0.063109	-9.794629	0.264195	0.105939	0.428229	0.022212	-0.000584	-0.007422
390	1.947197	0.005000	-0.183237	-0.091443	-9.757797	0.264306	0.105716	0.427481	0.021095	-0.000492	0.010523
391	1.952197	0.005000	-0.117720	-0.018143	-9.702829	0.264418	0.105493	0.426734	0.017427	-0.010245	0.013759
392	1.957197	0.005000	-0.078480	0.031192	-9.700328	0.264529	0.105269	0.425986	0.008706	-0.000025	0.003774
393	1.962197	0.005000	-0.145645	-0.039240	-9.759445	0.264641	0.105046	0.425239	0.018561	-0.008227	0.011415
394	1.967197	0.005000	-0.114437	-0.039240	-9.724955	0.264753	0.104823	0.424491	0.013601	0.003427	0.010949
395	1.972197	0.005000	-0.080295	-0.040148	-9.690465	0.264864	0.104600	0.423744	0.019475	-0.005812	0.012488
396	1.977197	0.005000	-0.232440	-0.116220	-9.689280	0.264976	0.104377	0.422996	0.021221	-0.008014	0.014289
397	1.982197	0.005000	-0.243248	-0.184488	-9.653040	0.265087	0.104154	0.422249	0.007420	-0.011749	0.003363
398	1.987197	0.005000	-0.169601	-0.084801	-9.830278	0.265199	0.103931	0.421501	0.008333	-0.014589	0.006344
399	1.992197	0.005000	-0.296466	-0.069753	-9.796940	0.265311	0.103708	0.420754	0.011606	-0.006852	0.007702
400	1.997197	0.005000	-0.257723	-0.028099	-9.742661	0.265422	0.103485	0.420007	0.018506	0.003328	0.003365
401	2.002197	0.005000	-0.247581	-0.104170	-9.717970	0.265534	0.103261	0.419259	0.019799	-0.008262	0.004671
402	2.007197	0.005000	-0.219478	-0.180238	-9.708242	0.265645	0.103038	0.418512	0.013568	-0.011362	0.007262
403	2.012197	0.005000	-0.193704	-0.154464	-9.694776	0.266606	0.104089	0.417385	0.006326	-0.010579	0.007631
404	2.017197	0.005000	-0.177743	-0.078480	-9.830783	0.267833	0.105539	0.416139	-0.001324	-0.001116	-0.004997
405	2.022197	0.005000	-0.242590	-0.101675	-9.817150	0.269060	0.106989	0.414894	0.009163	-0.005906	0.004378
406	2.027197	0.005000	-0.182564	-0.078480	-9.666676	0.270287	0.108439	0.413648	0.001742	-0.007352	-0.001096
407	2.032197	0.005000	-0.224218	-0.028018	-9.720298	0.271514	0.109890	0.412402	-0.004548	-0.007693	0.009525
408	2.037197	0.005000	-0.135350	-0.039240	-9.731520	0.272742	0.111340	0.411157	0.005688	-0.011473	0.008572
409	2.042197	0.005000	-0.209841	-0.032840	-9.665839	0.273969	0.112790	0.409911	0.011294	-0.008292	-0.003849
410	2.047197	0.005000	-0.160954	-0.117720	-9.665023	0.275196	0.114240	0.408665	0.023258	-0.006938	0.012012
411	2.052197	0.005000	-0.196200	-0.116143	-9.810000	0.276423	0.115691	0.407420	0.007682	-0.012024	0.004177
412	2.057197	0.005000	-0.119354	-0.116903	-9.733154	0.277650	0.117141	0.406174	0.004049	-0.009581	0.006634
413	2.062197	0.005000	-0.196200	-0.045624	-9.734712	0.278877	0.118591	0.404928	-0.001833	-0.006811	0.008491
414	2.067197	0.005000	-0.151378	0.000000	-9.765178	0.280104	0.120041	0.403683	0.013615	-0.006495	0.005674
415	2.072197	0.005000	-0.188243	-0.125132	-9.762803	0.281332	0.121492	0.402437	0.022190	-0.018496	0.007265
416	2.077197	0.005000	-0.196200	-0.149124	-9.731520	0.282218	0.122005	0.401619	0.053540	-0.015366	0.003176
417	2.082197	0.005000	-0.208922	-0.091202	-9.666836	0.282552	0.121001	0.401495	0.038912	-0.008627	0.009914
418	2.087197	0.005000	-0.078480	-0.117720	-9.677168	0.282887	0.119997	0.401370	0.011915	-0.015275	0.000820
419	2.092197	0.005000	-0.139473	0.039240	-9.657306	0.283221	0.118994	0.401246	0.008770	-0.016772	0.006479
420	2.097197	0.005000	-0.235440	0.019363	-9.712157	0.283556	0.117990	0.401121	0.005619	-0.004305	0.013071
421	2.102197	0.005000	-0.201464	-0.016988	-9.714532	0.283890	0.116987	0.400997	0.017290	0.000050	0.000888
422	2.107197	0.005000	-0.246061	-0.082168	-9.692280	0.284225	0.115983	0.400872	0.020695	-0.005970	0.014849
423	2.112197	0.005000	-0.156960	-0.078480	-9.586783	0.284559	0.114980	0.400748	0.003330	-0.014327	0.007719
424	2.117197	0.005000	-0.078480	-0.039240	-9.662529	0.284894	0.113976	0.400623	0.005253	-0.005308	0.013261
425	2.122197	0.005000	-0.156960	0.000000	-9.660113	0.285228	0.112972	0.400499	0.008323	-0.018710	0.001718
426	2.127197	0.005000	-0.196200	-0.117720	-9.756757	0.285563	0.111969	0.400374	0.016073	0.000401	0.011959
427	2.132197	0.005000	-0.269295	-0.156960	-9.658425	0.285897	0.110965	0.400249	0.000426	-0.003829	0.006425
428	2.137197	0.005000	-0.157111	-0.078783	-9.692431	0.286232	0.109962	0.400125	-0.007596	-0.008583	0.000876
429	2.142197	0.005000	-0.235440	-0.188576	-9.770760	0.286566	0.108958	0.400000	-0.011953	-0.007864	0.016720
430	2.147197	0.005000	-0.171709	-0.044156	-9.810000	0.286678	0.109623	0.399503	0.006390	-0.003235	-0.005688
431	2.152197	0.005000	-0.085771	-0.031949	-9.770760	0.286790	0.110292	0.399004	0.011391	-0.000405	0.001928
432	2.157197	0.005000	-0.137083	0.000000	-9.701961	0.286902	0.110962	0.398506	0.008180	-0.008940	0.005387
433	2.162197	0.005000	-0.196200	-0.105664	-9.625856	0.287013	0.111632	0.398007	0.018483	-0.001065	-0.006806
434	2.167197	0.005000	-0.185853	-0.064034	-9.667486	0.287125	0.112301	0.397509	0.023257	-0.003010	0.008895
435	2.172197	0.005000	-0.297099	-0.056061	-9.669861	0.287237	0.112971	0.397010	0.034568	-0.003160	-0.002551
436	2.177197	0.005000	-0.235440	-0.117720	-9.751548	0.287348	0.113640	0.396512	0.030572	-0.004950	-0.007106
437	2.182197	0.005000	-0.257027	-0.060827	-9.735453	0.287460	0.114310	0.396013	0.016318	-0.002690	-0.001527
438	2.187197	0.005000	-0.211463	-0.148247	-9.613800	0.287571	0.114980	0.395515	0.008596	-0.014277	0.010744
439	2.192197	0.005000	-0.156960	-0.052128	-9.626688	0.287683	0.115649	0.395016	0.014181	-0.005653	-0.000356
440	2.197197	0.005000	-0.167122	-0.078480	-9.750436	0.287795	0.116319	0.394517	0.006400	-0.003900	-0.013251
441	2.202197	0.005000	-0.227693	-0.117720	-9.739267	0.287906	0.116989	0.394019	0.006423	-0.004444	0.006265
442	2.207197	0.005000	-0.167642	-0.078480	-9.686939	0.288018	0.117658	0.393520	0.008798	-0.014190	0.003739
443	2.212197	0.005000	-0.193276	-0.117720	-9.686432	0.287921	0.118189	0.393722	0.004942	-0.002388	-0.004526
444	2.217197	0.005000	-0.117720	-0.116679	-9.653560	0.287698	0.118635	0.394345	0.006714	-0.010814	0.007372
445	2.222197	0.005000	-0.155084	-0.001876	-9.617552	0.287475	0.119081	0.394968	0.010645	-0.010855	0.004068
446	2.227197	0.005000	-0.156960	-0.043491	-9.692280	0.287251	0.119527	0.395591	0.013552	-0.002474	0.015101
447	2.232197	0.005000	-0.189572	-0.078480	-9.764132	0.287028	0.119974	0.396214	0.000240	-0.003360	0.006414
448	2.237197	0.005000	-0.205216	-0.087496	-9.740536	0.286805	0.120420	0.396836	0.013026	-0.009451	0.013312
449	2.242197	0.005000	-0.140502	-0.129111	-9.715062	0.286582	0.120866	0.397459	0.010844	-0.003659	0.014849
450	2.247197	0.005000	-0.170741	-0.129398	-9.666821	0.286359	0.121313	0.398082	0.023586	-0.003794	0.002221
451	2.252197	0.005000	-0.180044	-0.133876	-9.731520	0.286136	0.121759	0.398705	0.016933	-0.011201	0.002184
452	2.257197	0.005000	-0.197914	-0.117720	-9.751997	0.285913	0.122205	0.399328	0.004987	-0.005121	-0.006645
453	2.262197	0.005000	-0.160068	-0.060414	-9.752694	0.285690	0.122652	0.399951	0.002411	-0.016260	0.006440
454	2.267197	0.005000	-0.039240	0.000000	-9.731520	0.285466	0.123098	0.400574	0.004319	-0.018572	-0.000732
455	2.272197	0.005000	-0.118210	-0.052483	-9.758007	0.285243	0.123544	0.401197	0.001190	-0.008405	-0.003096
456	2.277197	0.005000	-0.196200	-0.049950	-9.792180	0.284965	0.123717	0.401636	-0.005814	-0.017855	0.012292
457	2.282197	0.005000	-0.235440	-0.047560	-9.762440	0.284519	0.123047	0.401512	-0.006180	-0.006458	0.002405
458	2.287197	0.005000	-0.184310	-0.145070	-9.731520	0.284072	0.122377	0.401387	-0.006576	-0.003315	0.010438
459	2.292197	0.005000	-0.189090	-0.039240	-9.692280	0.283626	0.121707	0.401262	-0.022184	-0.008061	0.001990
460	2.297197	0.005000	-0.079660	0.039240	-9.692280	0.283179	0.121038	0.401138	-0.005148	-0.006867	0.015437
461	2.302197	0.005000	-0.155736	0.001224	-9.692280	0.282733	0.120368	0.401013	0.003005	-0.012441	0.006992
462	2.307197	0.005000	-0.082534	-0.078480	-9.688226	0.282286	0.119698	0.400888	0.008551	-0.007407	0.008399
463	2.312197	0.005000	-0.124149	-0.078480	-9.665898	0.281840	0.119029	0.400764	0.008910	-0.009900	0.003342
464	2.317197	0.005000	-0.126539	-0.087299	-9.683461	0.281393	0.118359	0.400639	0.004998	-0.009691	-0.015272
465	2.322197	0.005000	-0.145766	-0.078480	-9.624994	0.280947	0.117689	0.400515	0.010996	-0.006095	-0.001910
466	2.327197	0.005000	-0.194733	-0.039240	-9.651573	0.280500	0.117019	0.400390	0.007728	-0.000938	0.000185
467	2.332197	0.005000	-0.188878	-0.069842	-9.613800	0.280054	0.116350	0.400265	0.011545	-0.005539	-0.007490
468	2.337197	0.005000	-0.138404	-0.057796	-9.634484	0.279607	0.115680	0.400141	0.016621	-0.007929	0.001120
469	2.342197	0.005000	-0.180620	-0.020967	-9.674007	0.279161	0.115010	0.400016	-0.010272	-0.013701	-0.006550
470	2.347197	0.005000	-0.156960	-0.078480	-9.715659	0.279493	0.115120	0.399457	-0.017583	-0.010262	0.008593
471	2.352197	0.005000	-0.078480	-0.090815	-9.639588	0.279939	0.115343	0.398834	-0.015487	-0.005212	-0.000079
472	2.357197	0.005000	-0.285587	-0.067573	-9.663947	0.280385	0.115566	0.398212	-0.009147	-0.003120	0.003058
473	2.362197	0.005000	-0.257616	-0.047772	-9.722988	0.280832	0.115789	0.397589	-0.015094	-0.011306	0.007759
474	2.367197	0.005000	-0.190058	-0.045382	-9.665323	0.281278	0.116012	0.396967	-0.009097	-0.000894	0.005567
475	2.372197	0.005000	-0.203733	-0.110187	-9.763227	0.281724	0.116235	0.396344	-0.007854	-0.015836	0.005293
476	2.377197	0.005000	-0.156960	0.000000	-9.731520	0.282170	0.116458	0.395721	-0.015847	-0.011538	-0.005034
477	2.382197	0.005000	-0.233419	0.000000	-9.731520	0.282616	0.116681	0.395099	-0.002638	-0.002610	0.013329
478	2.387197	0.005000	-0.128004	-0.150104	-9.842384	0.283062	0.116904	0.394476	-0.011588	-0.010696	0.005543
479	2.392197	0.005000	-0.189968	-0.051705	-9.644962	0.283508	0.117127	0.393854	-0.009738	-0.002941	0.003275
480	2.397197	0.005000	-0.117720	-0.008607	-9.744938	0.283954	0.117350	0.393231	-0.011347	-0.019723	-0.001393
481	2.402197	0.005000	-0.117720	-0.039240	-9.703277	0.284400	0.117573	0.392609	-0.021156	-0.004928	-0.001231
482	2.407197	0.005000	-0.157837	-0.000877	-9.730643	0.284846	0.117796	0.391986	-0.007609	-0.005669	0.011462
483	2.412197	0.005000	-0.133483	-0.101957	-9.731520	0.284857	0.117638	0.392031	-0.016791	-0.008701	0.001545
484	2.417197	0.005000	-0.178062	-0.075515	-9.791862	0.284411	0.117080	0.392779	-0.010639	-0.008364	0.012666
485	2.422197	0.005000	-0.175687	-0.097207	-9.810000	0.283965	0.116523	0.393526	-0.002406	-0.003154	0.005951
486	2.427197	0.005000	-0.147188	-0.078480	-9.832903	0.283519	0.115965	0.394274	-0.003203	-0.002790	-0.003046
487	2.432197	0.005000	-0.117720	-0.064518	-9.796038	0.283072	0.115407	0.395021	-0.004071	-0.014345	0.013121
488	2.437197	0.005000	-0.113197	-0.101625	-9.719948	0.282626	0.114849	0.395769	-0.003203	-0.009785	-0.004985
489	2.442197	0.005000	-0.117720	-0.078480	-9.622634	0.282180	0.114292	0.396516	0.006938	-0.003238	0.016363
490	2.447197	0.005000	-0.170574	-0.085287	-9.646233	0.281733	0.113734	0.397263	0.006768	-0.011573	0.005298
491	2.452197	0.005000	-0.187335	-0.074048	-9.583425	0.281287	0.113176	0.398011	0.009742	-0.010393	0.015219
492	2.457197	0.005000	-0.119762	-0.078480	-9.657124	0.280841	0.112618	0.398758	0.004581	-0.007082	0.010028
493	2.462197	0.005000	-0.156960	-0.155357	-9.769958	0.280394	0.112061	0.399506	0.002402	-0.001664	0.001185
494	2.467197	0.005000	-0.117720	-0.078480	-9.725167	0.279948	0.111503	0.400253	0.006145	-0.005492	0.007431
495	2.472197	0.005000	-0.162527	-0.005567	-9.737087	0.279502	0.110945	0.401001	0.002111	-0.011920	-0.000815
496	2.477197	0.005000	-0.149018	-0.078480	-9.684807	0.279116	0.110521	0.401667	0.012498	-0.009639	0.004250
497	2.482197	0.005000	-0.214776	-0.136296	-9.653040	0.279228	0.111190	0.401667	0.025364	-0.009110	-0.001257
498	2.487197	0.005000	-0.169667	-0.065773	-9.745346	0.279339	0.111860	0.401667	0.015844	-0.000916	0.007625
499	2.492197	0.005000	-0.181103	-0.063383	-9.692280	0.279451	0.112530	0.401667	0.013016	-0.007549	0.010310
500	2.497197	0.005000	-0.153087	-0.139277	-9.609927	0.279563	0.113199	0.401667	0.010719	-0.002507	0.002294
501	2.502197	0.005000	-0.137582	-0.157444	-9.613316	0.279674	0.113869	0.401667	0.011430	0.000113	0.007228
502	2.507197	0.005000	-0.129489	-0.078480	-9.719751	0.279786	0.114539	0.401667	-0.001926	-0.017480	0.000752
503	2.512197	0.005000	-0.196200	-0.103092	-9.716892	0.279898	0.115208	0.401667	0.000322	-0.006377	-0.008812
504	2.517197	0.005000	-0.235440	-0.133116	-9.734994	0.280009	0.115878	0.401667	0.006070	-0.009434	0.000264
505	2.522197	0.005000	-0.156960	-0.039240	-9.603083	0.280121	0.116548	0.401667	-0.002626	-0.008966	-0.005410
506	2.527197	0.005000	-0.242541	-0.071379	-9.574560	0.280233	0.117217	0.401667	-0.005860	-0.007788	0.005348
507	2.532197	0.005000	-0.196200	-0.004685	-9.722150	0.280344	0.117887	0.401667	-0.014981	-0.008081	-0.007345
508	2.537197	0.005000	-0.198480	0.039240	-9.736081	0.280456	0.118556	0.401667	-0.011148	-0.003750	-0.003795
509	2.542197	0.005000	-0.157232	0.078344	-9.731792	0.280568	0.119226	0.401667	-0.014424	-0.009826	0.007045
510	2.547197	0.005000	-0.159471	-0.073458	-9.883458	0.280351	0.119731	0.401392	-0.012969	-0.004472	-0.005479
511	2.552197	0.005000	-0.264878	-0.039240	-9.697181	0.280016	0.120178	0.401018	0.010307	-0.008475	0.013116
512	2.557197	0.005000	-0.132272	-0.039240	-9.653040	0.279681	0.120624	0.400645	0.001071	-0.009429	0.006378
513	2.562197	0.005000	-0.216107	-0.029574	-9.672947	0.279347	0.121070	0.400271	-0.001150	-0.009200	0.009073
514	2.567197	0.005000	-0.090521	-0.039240	-9.653040	0.279012	0.121516	0.399897	-0.013455	-0.013719	0.003470
515	2.572197	0.005000	-0.092911	-0.064049	-9.688226	0.278677	0.121962	0.399523	-0.007288	0.000049	0.004542
516	2.577197	0.005000	-0.033613	-0.039240	-9.636234	0.278343	0.122409	0.399150	-0.005443	-0.005184	0.012535
517	2.582197	0.005000	-0.156960	-0.039240	-9.653040	0.278008	0.122855	0.398776	-0.014694	-0.004676	0.009152
518	2.587197	0.005000	-0.135389	-0.056909	-9.709949	0.277673	0.123301	0.398402	-0.011362	-0.011690	0.014239
519	2.592197	0.005000	-0.172238	-0.078480	-9.731520	0.277338	0.123747	0.398029	-0.012888	-0.008757	0.014012
520	2.597197	0.005000	-0.183296	-0.026336	-9.718616	0.277004	0.124194	0.397655	-0.000951	-0.006230	-0.004163
521	2.602197	0.005000	-0.167141	-0.039240	-9.702461	0.276669	0.124640	0.397281	-0.002187	-0.011388	0.003864
522	2.607197	0.005000	-0.196200	-0.062931	-9.692280	0.276334	0.125086	0.396907	-0.006290	-0.016492	0.007453
523	2.612197	0.005000	-0.185483	-0.005359	-9.597724	0.276119	0.125214	0.396578	-0.001237	-0.014567	0.014277
524	2.617197	0.005000	-0.087341	-0.005907	-9.613800	0.276119	0.124768	0.396329	-0.009208	-0.006908	0.004419
525	2.622197	0.005000	-0.156960	-0.077951	-9.692280	0.276119	0.124322	0.396080	0.000824	-0.006002	0.004542
526	2.627197	0.005000	-0.156960	-0.076612	-9.767024	0.276119	0.123876	0.395831	0.006929	-0.017464	-0.000398
527	2.632197	0.005000	-0.156960	-0.043525	-9.609515	0.276119	0.123430	0.395582	0.008877	-0.011986	-0.001538
528	2.637197	0.005000	-0.124411	-0.006691	-9.653040	0.276119	0.122984	0.395333	0.009535	-0.011698	-0.001884
529	2.642197	0.005000	-0.156960	-0.009106	-9.722414	0.276119	0.122538	0.395084	0.015498	-0.017025	-0.001770
530	2.647197	0.005000	-0.179987	0.039240	-9.664553	0.276119	0.122092	0.394835	0.011722	-0.001390	0.018742
531	2.652197	0.005000	-0.171180	0.014220	-9.638820	0.276119	0.121646	0.394585	0.005106	-0.008771	-0.001023
532	2.657197	0.005000	-0.212810	-0.078480	-9.653040	0.276119	0.121200	0.394336	0.003680	-0.005886	0.002982
533	2.662197	0.005000	-0.197945	-0.057988	-9.733265	0.276119	0.120754	0.394087	-0.008556	-0.018854	0.005415
534	2.667197	0.005000	-0.217359	0.036163	-9.692280	0.276119	0.120308	0.393838	-0.009744	-0.004982	0.002904
535	2.672197	0.005000	-0.196200	0.024219	-9.785781	0.276119	0.119862	0.393589	-0.006720	-0.005681	0.013007
536	2.677197	0.005000	-0.131667	0.065834	-9.717573	0.276119	0.119416	0.393340	0.001266	-0.005694	0.005522
537	2.682197	0.005000	-0.177473	0.057967	-9.671767	0.276227	0.119511	0.393454	0.004046	-0.011870	0.000742
538	2.687197	0.005000	-0.235440	-0.047121	-9.629563	0.276339	0.119623	0.393579	-0.001561	-0.006462	-0.001105
539	2.692197	0.005000	-0.240946	-0.072974	-9.697786	0.276451	0.119735	0.393703	-0.005273	-0.001386	0.004106
540	2.697197	0.005000	-0.189968	0.000000	-9.692280	0.276562	0.119846	0.393828	-0.003282	-0.006486	0.006681
541	2.702197	0.005000	-0.195459	0.000000	-9.693021	0.276674	0.119958	0.393952	-0.005987	-0.005763	-0.004865
542	2.707197	0.005000	-0.232104	-0.075144	-9.731520	0.276785	0.120069	0.394077	0.016423	-0.004740	0.007301
543	2.712197	0.005000	-0.244426	-0.043733	-9.727027	0.276897	0.120181	0.394202	0.013729	-0.007842	-0.006789
544	2.717197	0.005000	-0.228572	-0.039240	-9.659908	0.277009	0.120293	0.394326	0.012910	-0.001641	-0.005467
545	2.722197	0.005000	-0.175476	-0.009258	-9.752244	0.277120	0.120404	0.394451	0.006612	-0.011893	0.013476
546	2.727197	0.005000	-0.212174	-0.011633	-9.731520	0.277232	0.120516	0.394575	0.018026	-0.006033	0.005194
547	2.732197	0.005000	-0.235440	-0.011194	-9.667063	0.277343	0.120627	0.394700	0.014504	-0.008115	0.011095
548	2.737197	0.005000	-0.206154	-0.039240	-9.692280	0.277455	0.120739	0.394825	0.005837	-0.007141	-0.002653
549	2.742197	0.005000	-0.155296	0.001664	-9.693944	0.277567	0.120851	0.394949	0.008293	-0.011329	-0.007219
550	2.747197	0.005000	-0.175037	-0.003086	-9.713443	0.277678	0.120764	0.395296	-0.019242	-0.005076	0.001033
551	2.752197	0.005000	-0.204021	-0.015687	-9.692280	0.277790	0.120540	0.395794	-0.007566	-0.006638	-0.006375
552	2.757197	0.005000	-0.196200	-0.052483	-9.744518	0.277901	0.120317	0.396292	-0.010251	-0.002262	-0.001125
553	2.762197	0.005000	-0.156960	-0.089071	-9.681689	0.278013	0.120094	0.396790	-0.005289	-0.002065	-0.001033
554	2.767197	0.005000	-0.188024	-0.078480	-9.731520	0.278124	0.119871	0.397289	-0.000811	-0.008801	0.009817
555	2.772197	0.005000	-0.190430	-0.123490	-9.764990	0.278236	0.119648	0.397787	-0.008212	-0.010718	0.017950
556	2.777197	0.005000	-0.163586	-0.078480	-9.692280	0.278347	0.119425	0.398285	-0.009214	-0.009842	0.005268
557	2.782197	0.005000	-0.195262	0.000000	-9.539072	0.278459	0.119201	0.398784	-0.020194	-0.006782	0.009619
558	2.787197	0.005000	-0.156960	-0.075571	-9.730066	0.278570	0.118978	0.399282	-0.016785	-0.004758	-0.001161
559	2.792197	0.005000	-0.184584	-0.078480	-9.700024	0.278682	0.118755	0.399780	-0.002687	-0.015156	0.006713
560	2.797197	0.005000	-0.084757	-0.150683	-9.731520	0.278793	0.118532	0.400279	-0.021886	-0.013632	0.005178
561	2.802197	0.005000	-0.248602	-0.056626	-9.762067	0.278905	0.118309	0.400777	-0.011874	-0.006258	0.009390
562	2.807197	0.005000	-0.139920	-0.011100	-9.810000	0.279016	0.118085	0.401275	-0.007468	-0.008864	0.003210
563	2.812197	0.005000	-0.194899	0.000000	-9.758547	0.279152	0.117910	0.401640	-0.015626	-0.009459	0.002520
564	2.817197	0.005000	-0.203038	-0.078480	-9.747721	0.279375	0.117910	0.401516	-0.011730	-0.014103	0.014959
565	2.822197	0.005000	-0.175536	-0.099144	-9.733608	0.279598	0.117910	0.401391	-0.005291	-0.004869	0.003123
566	2.827197	0.005000	-0.156960	-0.096754	-9.749794	0.279822	0.117910	0.401266	0.016382	-0.004395	0.001641
567	2.832197	0.005000	-0.172859	-0.133619	-9.637141	0.280045	0.117910	0.401142	0.016215	-0.005850	-0.009045
568	2.837197	0.005000	-0.183977	-0.169183	-9.692280	0.280268	0.117910	0.401017	0.000767	-0.003764	0.000978
569	2.842197	0.005000	-0.168094	-0.139987	-9.675307	0.280492	0.117910	0.400892	-0.014897	-0.010253	0.022133
570	2.847197	0.005000	-0.196200	-0.100233	-9.683536	0.280715	0.117910	0.400768	-0.021674	-0.011105	-0.001389
571	2.852197	0.005000	-0.117720	-0.084451	-9.810000	0.280938	0.117910	0.400643	-0.002520	-0.000954	0.004755
572	2.857197	0.005000	-0.121286	-0.003566	-9.735086	0.281161	0.117910	0.400518	0.002362	-0.001850	-0.006468
573	2.862197	0.005000	-0.158108	-0.080777	-9.808852	0.281385	0.117910	0.400394	0.017024	-0.003770	-0.005461
574	2.867197	0.005000	-0.158200	-0.118960	-9.770760	0.281608	0.117910	0.400269	0.005456	-0.013038	0.000348
575	2.872197	0.005000	-0.235440	-0.078480	-9.653040	0.281831	0.117910	0.400144	-0.005163	-0.007780	-0.003057
576	2.877197	0.005000	-0.168971	-0.084486	-9.791983	0.282055	0.117910	0.400020	-0.000012	-0.005544	0.011078
577	2.882197	0.005000	-0.212961	-0.165340	-9.717421	0.281339	0.117253	0.400210	0.002729	-0.001479	0.008963
578	2.887197	0.005000	-0.167731	-0.060781	-9.646112	0.280447	0.116472	0.400459	0.006885	-0.014233	0.009353
579	2.892197	0.005000	-0.196200	-0.091429	-9.731520	0.279554	0.115691	0.400708	0.001067	-0.010607	0.004204
580	2.897197	0.005000	-0.148791	-0.141424	-9.731520	0.278662	0.114911	0.400957	0.002653	-0.005732	-0.001393
581	2.902197	0.005000	-0.135631	-0.117720	-9.731520	0.277769	0.114130	0.401206	0.003447	-0.006479	0.009283
582	2.907197	0.005000	-0.175899	-0.078480	-9.731520	0.276877	0.113349	0.401455	-0.004640	-0.004557	-0.001327
583	2.912197	0.005000	-0.206653	-0.061916	-9.659151	0.275984	0.112568	0.401704	-0.006492	-0.008705	0.006032
584	2.917197	0.005000	-0.221266	-0.039240	-9.613800	0.275091	0.111787	0.401953	-0.006405	-0.011673	0.000181
585	2.922197	0.005000	-0.196200	-0.094122	-9.653040	0.274199	0.111006	0.402203	-0.007328	-0.010108	-0.001193
586	2.927197	0.005000	-0.156960	-0.039240	-9.623209	0.273306	0.110225	0.402452	-0.009855	-0.018376	0.014512
587	2.932197	0.005000	-0.196200	-0.085514	-9.699314	0.272414	0.109445	0.402701	-0.016167	0.001202	0.007208
588	2.937197	0.005000	-0.117720	-0.078480	-9.766116	0.271521	0.108664	0.402950	-0.017875	-0.009198	0.011213
589	2.942197	0.005000	-0.161498	-0.076211	-9.690011	0.270629	0.107883	0.403199	-0.016642	-0.010236	0.003979
590	2.947197	0.005000	-0.274558	-0.000122	-9.692158	0.270613	0.107876	0.403275	-0.020276	-0.010858	0.008919
591	2.952197	0.005000	-0.162012	-0.078480	-9.618852	0.271617	0.108768	0.403151	-0.007509	-0.011098	-0.000447
592	2.957197	0.005000	-0.117720	-0.083423	-9.613800	0.272621	0.109661	0.403026	-0.006118	-0.001818	0.003187
593	2.962197	0.005000	-0.149230	-0.015460	-9.708330	0.273625	0.110553	0.402902	-0.008864	-0.010694	0.010621
594	2.967197	0.005000	-0.156960	-0.029135	-9.789790	0.274629	0.111445	0.402777	-0.015010	-0.005265	-0.011022
595	2.972197	0.005000	-0.237240	0.000000	-9.770760	0.275633	0.112338	0.402653	-0.015392	-0.008584	0.006965
596	2.977197	0.005000	-0.220570	0.014870	-9.780260	0.276637	0.113230	0.402528	-0.006873	-0.010309	0.006419
597	2.982197	0.005000	-0.218195	-0.039240	-9.748765	0.277642	0.114123	0.402404	-0.008953	-0.005802	0.003652
598	2.987197	0.005000	-0.215835	0.039240	-9.692310	0.278646	0.115015	0.402279	-0.000509	-0.005319	0.016548
599	2.992197	0.005000	-0.178970	-0.034460	-9.635810	0.279650	0.115908	0.402155	-0.009048	-0.002703	-0.000133
600	2.997197	0.005000	-0.186640	-0.014840	-9.707120	0.280654	0.116800	0.402030	-0.005975	-0.009889	0.001339
601	3.002197	0.005000	-0.144495	-0.012465	-9.640575	0.281658	0.117693	0.401906	-0.015758	-0.009523	0.009353
602	3.007197	0.005000	-0.186125	0.000000	-9.642965	0.282662	0.118585	0.401781	-0.008654	-0.005532	0.001900
603	3.012197	0.005000	-0.188500	-0.117720	-9.653040	0.283591	0.119440	0.401636	-0.007839	-0.010996	0.006311
604	3.017197	0.005000	-0.235440	-0.028621	-9.754831	0.283703	0.119886	0.401262	-0.015348	-0.001221	0.004049
605	3.022197	0.005000	-0.196200	0.039240	-9.770760	0.283814	0.120333	0.400888	-0.013274	-0.013522	0.019077
606	3.027197	0.005000	-0.196108	0.039056	-9.809725	0.283926	0.120779	0.400515	-0.009563	-0.012187	0.000573
607	3.032197	0.005000	-0.193901	-0.002299	-9.581458	0.284038	0.121225	0.400141	-0.009935	-0.014669	-0.005445
608	3.037197	0.005000	-0.161634	-0.039240	-9.643691	0.284149	0.121671	0.399767	-0.009638	-0.011247	-0.006456
609	3.042197	0.005000	-0.131849	-0.039240	-9.724456	0.284261	0.122118	0.399393	-0.008527	-0.001548	0.014133
610	3.047197	0.005000	-0.128642	-0.069041	-9.810000	0.284372	0.122564	0.399020	-0.008453	-0.013602	0.009070
611	3.052197	0.005000	-0.235440	-0.011829	-9.770760	0.284484	0.123010	0.398646	-0.009243	-0.004463	-0.000356
612	3.057197	0.005000	-0.224609	-0.064276	-9.756556	0.284596	0.123456	0.398272	-0.007401	-0.012184	0.005281
613	3.062197	0.005000	-0.117720	-0.111639	-9.702778	0.284707	0.123902	0.397899	-0.005362	-0.015206	0.000071
614	3.067197	0.005000	-0.156960	-0.018970	-9.693581	0.284819	0.124349	0.397525	-0.006127	-0.015272	-0.001483
615	3.072197	0.005000	-0.043205	-0.021603	-9.757088	0.284930	0.124795	0.397151	-0.012650	-0.006260	0.005351
616	3.077197	0.005000	-0.039240	-0.093708	-9.746748	0.285042	0.125241	0.396777	-0.001343	-0.006751	-0.006414
617	3.082197	0.005000	-0.052055	-0.144145	-9.718705	0.284996	0.125137	0.396843	-0.011316	-0.008703	0.004366
618	3.087197	0.005000	-0.109701	-0.068073	-9.731520	0.284885	0.124803	0.397092	-0.017828	-0.014156	-0.007450
619	3.092197	0.005000	-0.297936	0.000000	-9.676296	0.284773	0.124468	0.397341	-0.004211	-0.011062	0.010476
620	3.097197	0.005000	-0.162546	-0.039240	-9.608214	0.284662	0.124133	0.397590	-0.003975	-0.010377	0.001661
621	3.102197	0.005000	-0.156960	-0.081649	-9.659378	0.284550	0.123799	0.397839	-0.001403	-0.006674	0.002537
622	3.107197	0.005000	-0.193904	-0.037710	-9.690750	0.284438	0.123464	0.398088	-0.012262	0.004930	0.006350
623	3.112197	0.005000	-0.153693	0.001634	-9.651406	0.284327	0.123129	0.398337	-0.014012	-0.004781	0.000209
624	3.117197	0.005000	-0.305903	-0.004009	-9.621817	0.284215	0.122795	0.398586	-0.013724	-0.006269	0.012733
625	3.122197	0.005000	-0.202674	-0.045714	-9.646566	0.284104	0.122460	0.398836	-0.018845	-0.011590	-0.002584
626	3.127197	0.005000	-0.196200	0.030360	-9.701160	0.283992	0.122126	0.399085	-0.017627	-0.009780	0.005473
627	3.132197	0.005000	-0.196200	-0.078480	-9.669691	0.283880	0.121791	0.399334	-0.012755	-0.020700	0.004706
628	3.137197	0.005000	-0.145125	-0.025537	-9.666743	0.283769	0.121456	0.399583	-0.007003	-0.006503	-0.000237
629	3.142197	0.005000	-0.180085	-0.062365	-9.660049	0.283657	0.121122	0.399832	-0.002930	-0.005584	0.004165
630	3.147197	0.005000	-0.177675	-0.039240	-9.692280	0.283546	0.120932	0.399797	-0.002018	-0.008603	0.005216
631	3.152197	0.005000	-0.193144	-0.078480	-9.671132	0.283434	0.121044	0.399174	-0.002336	-0.012316	0.016337
632	3.157197	0.005000	-0.156960	-0.078480	-9.613800	0.283323	0.121155	0.398551	-0.023524	-0.018256	0.006153
633	3.162197	0.005000	-0.248767	-0.012586	-9.639713	0.283211	0.121267	0.397929	-0.021988	-0.008558	0.000607
634	3.167197	0.005000	-0.163344	0.067528	-9.602848	0.283100	0.121378	0.397306	-0.010180	-0.008143	0.013502
635	3.172197	0.005000	-0.196200	0.000000	-9.613800	0.282988	0.121490	0.396683	0.005340	-0.010441	0.009536
636	3.177197	0.005000	-0.156960	-0.012374	-9.586934	0.282877	0.121601	0.396060	0.011991	-0.000398	0.005405
637	3.182197	0.005000	-0.203794	-0.007594	-9.625191	0.282765	0.121713	0.395437	0.002301	-0.010055	0.000660
638	3.187197	0.005000	-0.194778	-0.117720	-9.882792	0.282654	0.121824	0.394814	-0.006980	-0.006574	0.018266
639	3.192197	0.005000	-0.156960	-0.117720	-9.731520	0.282542	0.121936	0.394192	-0.018799	-0.009225	0.016060
640	3.197197	0.005000	-0.263244	-0.117720	-9.696092	0.282430	0.122048	0.393569	-0.021761	-0.018164	0.005319
641	3.202197	0.005000	-0.196200	0.026866	-9.659227	0.282319	0.122159	0.392946	-0.022414	-0.013344	0.014452
642	3.207197	0.005000	-0.125926	0.086686	-9.661246	0.282207	0.122271	0.392323	-0.019235	-0.011552	0.005878
643	3.212197	0.005000	-0.060482	0.010621	-9.838619	0.282096	0.122382	0.391700	-0.003416	-0.017062	0.010121
644	3.217197	0.005000	-0.091036	-0.025898	-9.783316	0.282090	0.122494	0.392021	-0.001402	-0.017978	0.004313
645	3.222197	0.005000	-0.141243	0.007806	-9.778672	0.282090	0.122605	0.392395	-0.003288	-0.003406	0.002915
646	3.227197	0.005000	-0.253547	-0.036215	-9.631907	0.282090	0.122717	0.392769	0.003296	-0.010385	0.009127
647	3.232197	0.005000	-0.214958	-0.057998	-9.770760	0.282090	0.122829	0.393143	-0.000481	-0.003104	0.001065
648	3.237197	0.005000	-0.274680	-0.055614	-9.692280	0.282090	0.122940	0.393517	0.004341	-0.008488	-0.000546
649	3.242197	0.005000	-0.142967	-0.039240	-9.678287	0.282090	0.123052	0.393890	0.001474	-0.005177	0.000056
650	3.247197	0.005000	-0.145676	-0.078480	-9.770760	0.282090	0.123164	0.394264	0.006360	-0.001459	-0.000914
651	3.252197	0.005000	-0.196200	-0.039240	-9.822611	0.282090	0.123275	0.394638	0.001215	-0.011696	0.000986
652	3.257197	0.005000	-0.156960	-0.104798	-9.744442	0.282090	0.123387	0.395012	-0.002932	-0.006963	-0.003449
653	3.262197	0.005000	-0.192144	-0.113664	-9.727464	0.282090	0.123499	0.395386	0.012828	-0.011872	0.009620
654	3.267197	0.005000	-0.158598	-0.039240	-9.690642	0.282090	0.123610	0.395760	0.009632	0.003564	-0.002936
655	3.272197	0.005000	-0.157716	-0.039240	-9.614556	0.282090	0.123722	0.396134	0.012005	-0.004097	0.004528
656	3.277197	0.005000	-0.114574	-0.153814	-9.613800	0.282090	0.123833	0.396508	0.004874	-0.006074	0.012088
657	3.282197	0.005000	-0.112199	-0.190679	-9.720477	0.281770	0.123625	0.396667	-0.018572	0.000348	0.003207
658	3.287197	0.005000	-0.141137	-0.047152	-9.762848	0.281212	0.123179	0.396667	-0.003053	-0.005399	0.013294
659	3.292197	0.005000	-0.136387	-0.028953	-9.741807	0.280654	0.122732	0.396667	-0.011932	-0.006745	0.002435
660	3.297197	0.005000	-0.183523	-0.117720	-9.706167	0.280096	0.122286	0.396667	-0.010090	-0.008681	0.015577
661	3.302197	0.005000	-0.093532	-0.111805	-9.740657	0.279539	0.121840	0.396667	-0.010112	-0.003330	0.008806
662	3.307197	0.005000	-0.095922	0.000000	-9.670482	0.278981	0.121393	0.396667	-0.020565	-0.008791	0.000555
663	3.312197	0.005000	-0.157353	0.019817	-9.613407	0.278423	0.120947	0.396667	-0.026954	-0.015523	0.006937
664	3.317197	0.005000	-0.112546	0.017033	-9.748553	0.277865	0.120501	0.396667	-0.023142	-0.008275	-0.003601
665	3.322197	0.005000	-0.210858	0.078480	-9.662963	0.277307	0.120054	0.396667	-0.012112	-0.002013	-0.007385
666	3.327197	0.005000	-0.184243	-0.023915	-9.767392	0.276749	0.119608	0.396667	-0.025329	-0.013523	-0.004792
667	3.332197	0.005000	-0.156960	-0.039240	-9.732561	0.276192	0.119162	0.396667	-0.017956	-0.006661	0.003795
668	3.337197	0.005000	-0.164095	-0.032105	-9.692280	0.275634	0.118716	0.396667	-0.022126	-0.011749	0.000550
669	3.342197	0.005000	-0.083209	-0.034511	-9.731520	0.275076	0.118269	0.396667	-0.007915	-0.005323	0.000047
670	3.347197	0.005000	-0.161584	-0.034616	-9.766136	0.274801	0.117888	0.396740	0.007876	-0.017051	0.012477
671	3.352197	0.005000	-0.196291	0.000091	-9.613982	0.275693	0.117777	0.397114	0.000406	-0.009244	0.010787
672	3.357197	0.005000	-0.083442	-0.112758	-9.731520	0.276586	0.117665	0.397487	0.009163	-0.004881	0.008719
673	3.362197	0.005000	-0.117720	0.029528	-9.692280	0.277478	0.117554	0.397861	0.006662	-0.002547	0.002674
674	3.367197	0.005000	-0.124966	-0.031994	-9.674778	0.278371	0.117442	0.398235	0.014940	-0.002300	0.002052
675	3.372197	0.005000	-0.147339	-0.039240	-9.701901	0.279263	0.117331	0.398609	0.001680	-0.008695	0.013408
676	3.377197	0.005000	-0.129731	0.015218	-9.665051	0.280156	0.117219	0.398982	-0.008472	-0.002925	-0.007873
677	3.382197	0.005000	-0.092866	0.000000	-9.642572	0.281048	0.117108	0.399356	-0.003934	-0.014030	0.012989
678	3.387197	0.005000	-0.145283	0.000000	-9.574560	0.281941	0.116996	0.399730	-0.014987	-0.012906	-0.002372
679	3.392197	0.005000	-0.137103	0.000000	-9.652565	0.282833	0.116885	0.400103	-0.026590	-0.008995	-0.000874
680	3.397197	0.005000	-0.191854	-0.039240	-9.674833	0.283726	0.116773	0.400477	-0.026077	-0.008437	0.006663
681	3.402197	0.005000	-0.244611	-0.015035	-9.613800	0.284618	0.116662	0.400851	-0.030898	-0.003091	0.001455
682	3.407197	0.005000	-0.184936	0.039240	-9.587186	0.285511	0.116550	0.401225	-0.018100	-0.010730	0.005924
683	3.412197	0.005000	-0.059664	0.000000	-9.624012	0.286403	0.116438	0.401598	-0.015217	-0.010588	-0.000322
684	3.417197	0.005000	-0.109912	0.000000	-9.707896	0.286203	0.116327	0.401565	-0.028123	-0.002758	0.010916
685	3.422197	0.005000	-0.083882	0.000000	-9.765358	0.285757	0.116215	0.401441	-0.020917	0.000010	-0.003174
686	3.427197	0.005000	-0.081465	0.039240	-9.656025	0.285310	0.116104	0.401316	-0.004882	-0.005684	-0.001376
687	3.432197	0.005000	-0.156960	-0.000575	-9.691130	0.284864	0.115992	0.401192	0.006763	-0.009487	0.018918
688	3.437197	0.005000	-0.119557	-0.039240	-9.651203	0.284418	0.115881	0.401067	0.005577	-0.006248	-0.001334
689	3.442197	0.005000	-0.191959	-0.034999	-9.683798	0.283972	0.115769	0.400942	-0.000741	-0.004256	0.013432
690	3.447197	0.005000	-0.163617	-0.045897	-9.731520	0.283525	0.115657	0.400818	-0.011851	-0.009766	-0.006666
691	3.452197	0.005000	-0.196200	0.039240	-9.650055	0.283079	0.115546	0.400693	-0.024435	-0.007793	0.005138
692	3.457197	0.005000	-0.140676	0.089958	-9.669324	0.282633	0.115434	0.400569	-0.021327	-0.007467	0.008383
693	3.462197	0.005000	-0.156960	-0.011467	-9.666926	0.282187	0.115323	0.400444	-0.020351	-0.007695	0.006837
694	3.467197	0.005000	-0.117720	0.045882	-9.754461	0.281741	0.115211	0.400319	-0.010897	-0.018414	0.003492
695	3.472197	0.005000	-0.079811	0.039240	-9.673326	0.281294	0.115099	0.400195	-0.011923	-0.005969	-0.004475
696	3.477197	0.005000	-0.156960	0.096391	-9.688861	0.280848	0.114988	0.400070	-0.005059	-0.015995	0.005326
697	3.482197	0.005000	-0.156960	0.071158	-9.731520	0.280597	0.115315	0.399891	-0.009572	-0.011144	0.005848
698	3.487197	0.005000	-0.156960	-0.039240	-9.731520	0.280597	0.116208	0.399642	-0.008413	-0.007561	-0.004826
699	3.492197	0.005000	-0.189226	0.010755	-9.653040	0.280597	0.117100	0.399393	-0.020840	-0.008533	0.006071
700	3.497197	0.005000	-0.187820	0.061719	-9.638941	0.280597	0.117993	0.399144	-0.022055	-0.001255	-0.000616
701	3.502197	0.005000	-0.150970	-0.005990	-9.692280	0.280597	0.118885	0.398895	-0.013543	-0.004662	0.022135
702	3.507197	0.005000	-0.192585	0.039240	-9.692280	0.280597	0.119778	0.398645	-0.010398	-0.004242	0.002645
703	3.512197	0.005000	-0.157741	0.116939	-9.693842	0.280597	0.120670	0.398396	-0.014234	-0.013345	0.003431
704	3.517197	0.005000	-0.158563	-0.034430	-9.770760	0.280597	0.121563	0.398147	-0.020160	-0.008705	0.012065
705	3.522197	0.005000	-0.117720	0.000000	-9.696274	0.280597	0.122455	0.397898	-0.017466	0.001926	0.005356
706	3.527197	0.005000	-0.163329	0.032871	-9.653040	0.280597	0.123348	0.397649	-0.003540	-0.006169	0.014213
707	3.532197	0.005000	-0.204959	-0.021723	-9.692280	0.280597	0.124240	0.397400	-0.005430	-0.007606	-0.000211
708	3.537197	0.005000	-0.196200	0.045079	-9.703414	0.280597	0.125133	0.397151	0.004556	-0.003678	0.004834
709	3.542197	0.005000	-0.247633	-0.012193	-9.588084	0.280597	0.126025	0.396902	-0.007116	-0.011236	0.009735
710	3.547197	0.005000	-0.243896	-0.015899	-9.637141	0.280610	0.126795	0.396703	0.000830	-0.005401	-0.001717
711	3.552197	0.005000	-0.115058	-0.057529	-9.713231	0.280833	0.125567	0.397326	-0.003563	-0.000807	0.014906
712	3.557197	0.005000	-0.196200	0.018326	-9.713194	0.281056	0.124340	0.397949	-0.015469	-0.003785	0.004581
713	3.562197	0.005000	-0.156960	0.039240	-9.684873	0.281279	0.123113	0.398572	-0.013315	-0.010954	0.009526
714	3.567197	0.005000	-0.104216	0.039240	-9.731520	0.281502	0.121886	0.399195	0.001999	-0.010028	0.003120
715	3.572197	0.005000	-0.168056	0.000000	-9.731520	0.281726	0.120659	0.399818	0.012094	-0.007941	0.013885
716	3.577197	0.005000	-0.226759	-0.030559	-9.661721	0.281949	0.119432	0.400440	-0.000828	-0.010193	0.009888
717	3.582197	0.005000	-0.156960	-0.045515	-9.698555	0.282172	0.118204	0.401063	-0.013439	-0.010498	0.005596
718	3.587197	0.005000	-0.196200	-0.039240	-9.727662	0.282395	0.116977	0.401686	-0.007732	-0.002958	0.013021
719	3.592197	0.005000	-0.155523	-0.037803	-9.734394	0.282618	0.115750	0.402309	-0.025560	-0.012932	-0.000092
720	3.597197	0.005000	-0.117720	0.038276	-9.771724	0.282841	0.114523	0.402932	-0.009739	-0.007375	0.010361
721	3.602197	0.005000	-0.114352	0.039240	-9.728152	0.283064	0.113296	0.403555	-0.004532	-0.004741	-0.003005
722	3.607197	0.005000	-0.150788	0.039240	-9.816172	0.283287	0.112069	0.404177	-0.001621	-0.003428	-0.002238
723	3.612197	0.005000	-0.218346	0.039240	-9.748614	0.283510	0.110841	0.404800	0.003306	0.000587	0.005851
724	3.617197	0.005000	-0.235440	0.000000	-9.696788	0.283506	0.110903	0.404831	-0.000343	-0.005803	-0.005272
725	3.622197	0.005000	-0.209512	0.000000	-9.704896	0.283395	0.111572	0.404582	0.013998	-0.002836	0.006571
726	3.627197	0.005000	-0.102018	0.000000	-9.692280	0.283283	0.112241	0.404333	0.005287	-0.008442	0.001182
727	3.632197	0.005000	-0.178123	0.021163	-9.634963	0.283172	0.112910	0.404084	0.002517	-0.010134	0.006068
728	3.637197	0.005000	-0.177427	0.040934	-9.712747	0.283060	0.113579	0.403835	-0.003520	-0.008274	0.001136
729	3.642197	0.005000	-0.206154	-0.032796	-9.725076	0.282949	0.114248	0.403586	-0.005894	-0.010406	0.010346
730	3.647197	0.005000	-0.196200	-0.092488	-9.745528	0.282837	0.114917	0.403337	-0.005283	-0.002443	0.002403
731	3.652197	0.005000	-0.172934	-0.015974	-9.719887	0.282726	0.115586	0.403088	-0.002490	0.000064	-0.002515
732	3.657197	0.005000	-0.099235	0.009243	-9.701523	0.282615	0.116255	0.402839	-0.000390	-0.001624	0.015071
733	3.662197	0.005000	-0.124196	0.039240	-9.731520	0.282503	0.116924	0.402590	-0.006587	-0.007480	0.009048
734	3.667197	0.005000	-0.231369	0.070338	-9.723378	0.282392	0.117593	0.402341	-0.003157	-0.007215	-0.003363
735	3.672197	0.005000	-0.197853	-0.039240	-9.653040	0.282280	0.118262	0.402092	0.002821	-0.016701	0.013065
736	3.677197	0.005000	-0.196941	-0.000741	-9.691539	0.282169	0.118931	0.401843	0.004270	-0.001750	0.001595
737	3.682197	0.005000	-0.084743	0.006263	-9.800606	0.282123	0.119502	0.401740	-0.001730	-0.011403	0.014927
738	3.687197	0.005000	-0.185187	-0.005506	-9.697786	0.282234	0.119836	0.401989	-0.004410	-0.009480	-0.000476
739	3.692197	0.005000	-0.164856	0.070584	-9.700176	0.282346	0.120171	0.402239	0.001093	-0.004450	-0.000349
740	3.697197	0.005000	-0.127991	0.078480	-9.692280	0.282457	0.120506	0.402488	-0.003131	-0.008666	0.001871
741	3.702197	0.005000	-0.170907	0.039240	-9.731520	0.282569	0.120840	0.402737	0.004884	-0.006875	-0.008518
742	3.707197	0.005000	-0.196200	0.054276	-9.722353	0.282680	0.121175	0.402986	0.014513	-0.010932	0.000591
743	3.712197	0.005000	-0.139549	0.039240	-9.653040	0.282792	0.121510	0.403235	0.014201	-0.003979	0.004627
744	3.717197	0.005000	-0.176167	0.020033	-9.770760	0.282903	0.121844	0.403484	0.020862	-0.010425	0.007412
745	3.722197	0.005000	-0.196200	-0.056035	-9.770760	0.283015	0.122179	0.403733	0.006555	-0.010407	0.003516
746	3.727197	0.005000	-0.103334	-0.024854	-9.706666	0.283126	0.122514	0.403982	-0.006794	-0.006151	-0.005052
747	3.732197	0.005000	-0.102425	-0.039240	-9.731520	0.283238	0.122849	0.404232	-0.003599	-0.013942	0.012875
748	3.737197	0.005000	-0.156960	0.020110	-9.701845	0.283350	0.123183	0.404481	-0.003073	-0.000549	0.012416
749	3.742197	0.005000	-0.181900	-0.039240	-9.731520	0.283461	0.123518	0.404730	0.004327	-0.004257	0.003976
750	3.747197	0.005000	-0.108231	0.004744	-9.692280	0.283573	0.123853	0.404979	0.004017	-0.000313	-0.004595
751	3.752197	0.005000	-0.115421	-0.002299	-9.694579	0.283174	0.123472	0.404658	0.007459	0.000859	0.001669
752	3.757197	0.005000	-0.078480	-0.039240	-9.653193	0.282727	0.123026	0.404284	-0.009025	-0.010376	0.007401
753	3.762197	0.005000	-0.193705	0.041735	-9.689785	0.282281	0.122580	0.403910	-0.007575	-0.005714	0.002683
754	3.767197	0.005000	-0.152061	0.083379	-9.697179	0.281835	0.122134	0.403537	0.002064	-0.010839	0.017319
755	3.772197	0.005000	-0.284658	0.039240	-9.756129	0.281389	0.121687	0.403163	0.011832	-0.008296	-0.003341
756	3.777197	0.005000	-0.372956	-0.059036	-9.662762	0.280942	0.121241	0.402789	0.015029	-0.016962	0.006661
757	3.782197	0.005000	-0.232609	-0.090616	-9.692280	0.280496	0.120795	0.402416	0.009402	-0.007042	0.010414
758	3.787197	0.005000	-0.156960	-0.068318	-9.638501	0.280050	0.120348	0.402042	-0.002562	0.002029	-0.004479
759	3.792197	0.005000	-0.140012	-0.016948	-9.591508	0.279604	0.119902	0.401668	-0.019559	-0.010453	0.005054
760	3.797197	0.005000	-0.275200	0.000000	-9.653560	0.279157	0.119456	0.401294	-0.021074	-0.001172	-0.001431
761	3.802197	0.005000	-0.239742	0.074178	-9.609498	0.278711	0.119009	0.400921	-0.003363	0.000433	0.012748
762	3.807197	0.005000	-0.166081	0.078480	-9.707339	0.278265	0.118563	0.400547	0.006710	-0.015557	-0.000022
763	3.812197	0.005000	-0.130366	0.117720	-9.758114	0.277819	0.118117	0.400173	0.011910	-0.006155	0.006951
764	3.817197	0.005000	-0.167199	0.047764	-9.721281	0.277612	0.117611	0.401337	0.033367	-0.008581	0.006160
765	3.822197	0.005000	-0.149230	-0.007730	-9.778490	0.277612	0.117053	0.403828	0.038925	-0.006808	-0.001812
766	3.827197	0.005000	-0.044595	-0.073125	-9.770760	0.277612	0.116495	0.406320	0.032552	-0.011485	0.018027
767	3.832197	0.005000	-0.081445	-0.002965	-9.692280	0.277612	0.115937	0.408811	0.016468	-0.005518	0.002088
768	3.837197	0.005000	-0.156960	0.000000	-9.692280	0.277612	0.115380	0.411303	0.021267	0.000895	0.002216
769	3.842197	0.005000	-0.194379	0.000000	-9.617442	0.277612	0.114822	0.413794	0.014550	-0.013522	0.001830
770	3.847197	0.005000	-0.200426	0.035014	-9.618026	0.277612	0.114264	0.416286	0.018502	-0.007907	-0.004522
771	3.852197	0.005000	-0.182916	0.039240	-9.692280	0.277612	0.113707	0.418777	0.023297	0.000729	0.003306
772	3.857197	0.005000	-0.214297	0.060383	-9.662088	0.277612	0.113149	0.421268	0.033281	-0.003488	-0.001503
773	3.862197	0.005000	-0.235440	0.011463	-9.775611	0.277612	0.112591	0.423760	0.052367	-0.009218	0.001616
774	3.867197	0.005000	-0.170831	-0.076107	-9.669284	0.277612	0.112033	0.426251	0.041848	-0.013571	-0.000806
775	3.872197	0.005000	-0.228749	-0.022965	-9.620491	0.277612	0.111476	0.428743	0.045199	-0.005195	-0.007601
776	3.877197	0.005000	-0.196200	-0.039240	-9.630619	0.277612	0.110918	0.431234	0.038358	-0.006684	0.005238
777	3.882197	0.005000	-0.135863	-0.057383	-9.689325	0.277630	0.110536	0.432960	0.037948	-0.001428	0.000591
778	3.887197	0.005000	-0.156960	-0.062747	-9.731520	0.277741	0.111094	0.430593	0.037335	-0.000111	0.005387
779	3.892197	0.005000	-0.131040	-0.039240	-9.731520	0.277853	0.111651	0.428226	0.033048	-0.003412	-0.002838
780	3.897197	0.005000	-0.246226	-0.017669	-9.749189	0.277964	0.112209	0.425859	0.046043	-0.005372	0.003211
781	3.902197	0.005000	-0.196200	0.039240	-9.613800	0.278076	0.112767	0.423492	0.044466	-0.011768	-0.001764
782	3.907197	0.005000	-0.156960	-0.045261	-9.619821	0.278187	0.113325	0.421126	0.037453	-0.006783	-0.009332
783	3.912197	0.005000	-0.124981	-0.114089	-9.685019	0.278299	0.113882	0.418759	0.031333	-0.006155	0.014067
784	3.917197	0.005000	-0.197456	-0.039240	-9.692280	0.278410	0.114440	0.416392	0.018291	-0.004941	0.006038
785	3.922197	0.005000	-0.273092	-0.001588	-9.729932	0.278522	0.114998	0.414025	0.006490	-0.013713	0.011710
786	3.927197	0.005000	-0.164917	-0.003978	-9.653040	0.278633	0.115556	0.411658	-0.004459	-0.003441	0.007636
787	3.932197	0.005000	-0.156960	-0.032887	-9.751700	0.278745	0.116113	0.409291	0.001037	-0.008376	0.004313
788	3.937197	0.005000	0.030496	-0.265936	-9.570294	0.278856	0.116671	0.406924	-0.002535	-0.005146	0.017703
789	3.942197	0.005000	-0.134723	0.034006	-9.670043	0.278968	0.117229	0.404557	-0.052840	-0.005077	-0.011486
790	3.947197	0.005000	-0.170469	0.208423	-9.719297	0.279079	0.117787	0.402191	-0.043423	-0.013929	0.011064
791	3.952197	0.005000	-0.305509	-0.107433	-9.645567	0.279104	0.117997	0.402152	-0.061279	-0.009244	0.014405
792	3.957197	0.005000	-0.232747	-0.646114	-9.532627	0.279104	0.118109	0.402775	-0.212558	-0.011147	0.033577
793	3.962197	0.005000	-0.256089	-0.204429	-9.692280	0.279104	0.118220	0.403398	-0.337773	-0.012515	0.028701
794	3.967197	0.005000	-0.212416	0.371978	-9.653040	0.279104	0.118332	0.404021	-0.331526	-0.018495	0.025919
795	3.972197	0.005000	-0.168547	0.560947	-9.680693	0.279104	0.118443	0.404643	-0.208868	-0.013199	0.028644
796	3.977197	0.005000	-0.156960	0.505234	-9.798549	0.279104	0.118555	0.405266	-0.070017	-0.007622	0.006732
797	3.982197	0.005000	-0.166021	0.555350	-9.731520	0.279104	0.118666	0.405889	0.045288	-0.004200	0.005590
798	3.987197	0.005000	-0.182828	0.130215	-9.750701	0.279104	0.118778	0.406512	0.114007	-0.003366	0.013075
799	3.992197	0.005000	-0.239736	-0.134905	-9.648744	0.279104	0.118890	0.407135	0.116849	-0.001568	0.007602
800	3.997197	0.005000	-0.196200	-0.237361	-9.576481	0.279104	0.119001	0.407758	0.062670	-0.015419	0.014587
801	4.002197	0.005000	-0.119566	-0.198046	-9.575483	0.279104	0.119113	0.408380	-0.005222	-0.003735	0.004620
802	4.007197	0.005000	-0.192887	-0.121033	-9.653040	0.279104	0.119224	0.409003	-0.052685	-0.008921	0.010695
803	4.012197	0.005000	-0.224064	0.027864	-9.731520	0.279104	0.119336	0.409626	-0.061370	-0.005482	0.002925
804	4.017197	0.005000	-0.235440	0.063474	-9.676124	0.279059	0.119314	0.409751	-0.038482	-0.005827	0.009513
805	4.022197	0.005000	-0.177866	0.068027	-9.692280	0.278948	0.119091	0.409128	-0.036346	-0.009468	0.009773
806	4.027197	0.005000	-0.196200	0.118431	-9.692280	0.278836	0.118868	0.408505	-0.036245	-0.003009	0.006007
807	4.032197	0.005000	-0.141558	0.046206	-9.716118	0.278725	0.118644	0.407882	-0.023110	-0.005325	0.000928
808	4.037197	0.005000	-0.199812	0.103518	-9.731520	0.278613	0.118421	0.407260	-0.030494	0.000652	0.004302
809	4.042197	0.005000	-0.236650	0.118930	-9.751745	0.278502	0.118198	0.406637	-0.020471	-0.006607	0.008764
810	4.047197	0.005000	-0.083986	0.196200	-9.776266	0.278390	0.117975	0.406014	-0.006629	-0.009117	0.005026
811	4.052197	0.005000	-0.042578	0.388220	-9.976973	0.278279	0.117752	0.405391	0.027725	0.005192	0.014289
812	4.057197	0.005000	-0.286469	0.506078	-10.221936	0.278167	0.117529	0.404768	0.093318	0.019636	0.031621
813	4.062197	0.005000	-0.226059	0.069099	-9.791237	0.278056	0.117306	0.404145	0.129916	0.036959	0.047711
814	4.067197	0.005000	-0.231031	-0.078480	-9.713178	0.277944	0.117083	0.403522	0.121866	0.013247	0.057432
815	4.072197	0.005000	-0.544799	-0.191639	-9.976081	0.277833	0.116860	0.402900	0.133749	0.015236	0.072352
816	4.077197	0.005000	-0.542930	-0.503690	-10.123920	0.277721	0.116636	0.402277	0.097909	0.031596	0.091865
817	4.082197	0.005000	-0.314691	-0.275451	-9.929006	0.277610	0.116470	0.401623	0.053512	0.037088	0.096007
818	4.087197	0.005000	-0.347865	0.630018	-9.804705	0.277498	0.118923	0.399506	0.037958	0.025678	0.081034
819	4.092197	0.005000	-0.318942	1.768946	-10.098809	0.277387	0.121376	0.397389	0.199630	0.031006	0.064647
820	4.097197	0.005000	-0.510120	1.959822	-10.621394	0.277275	0.123829	0.395272	0.555839	0.036229	0.051375
821	4.102197	0.005000	-0.618053	1.824615	-11.134373	0.277163	0.126282	0.393155	1.049169	0.065548	0.061272
822	4.107197	0.005000	-0.576423	1.407224	-11.038617	0.277052	0.128735	0.391038	1.554962	0.087609	0.066750
823	4.112197	0.005000	-0.627840	1.108503	-10.746922	0.276940	0.131189	0.388921	1.991686	0.124258	0.047784
824	4.117197	0.005000	-0.527261	1.257945	-10.739578	0.276829	0.133642	0.386805	2.297569	0.128454	0.044442
825	4.122197	0.005000	-0.294093	-0.079996	-10.850067	0.276717	0.136095	0.384688	2.493164	0.148331	0.026545
826	4.127197	0.005000	-0.365755	-0.467651	-11.420615	0.276606	0.138548	0.382571	2.721179	0.156514	0.030147
827	4.132197	0.005000	-0.564226	-0.097495	-12.313062	0.276494	0.141001	0.380454	2.896175	0.166711	0.009196
828	4.137197	0.005000	-0.667080	0.026782	-13.592620	0.276383	0.143455	0.378337	3.108981	0.193462	0.004669
829	4.142197	0.005000	-0.844127	-0.019153	-14.659409	0.276271	0.145908	0.376220	3.433244	0.223298	-0.014201
830	4.147197	0.005000	-1.058439	0.203840	-15.326519	0.276160	0.148361	0.374104	4.033683	0.282315	-0.032278
831	4.152197	0.005000	-1.472574	0.259159	-15.322146	0.275552	0.152942	0.355911	4.812625	0.329573	-0.030622
832	4.157197	0.005000	-1.670620	0.173933	-15.194503	0.274660	0.158740	0.328517	5.668356	0.372751	-0.068989
833	4.162197	0.005000	-1.921535	0.112819	-14.478743	0.273768	0.164539	0.301123	6.666682	0.421826	-0.095338
834	4.167197	0.005000	-1.656099	-0.837217	-14.103199	0.272876	0.170337	0.273729	7.721468	0.474342	-0.121669
835	4.172197	0.005000	-1.212475	-2.401127	-13.337635	0.271983	0.176136	0.246335	8.733814	0.507201	-0.157996
836	4.177197	0.005000	-0.818928	-3.209140	-12.645534	0.271091	0.181934	0.218942	9.631093	0.522157	-0.190311
837	4.182197	0.005000	-0.676312	-4.420295	-11.511160	0.270199	0.187732	0.191548	9.999301	0.515471	-0.223451
838	4.187197	0.005000	-0.293673	-5.747497	-10.227484	0.269307	0.193531	0.164154	10.003529	0.500433	-0.244398
839	4.192197	0.005000	0.024884	-6.457370	-9.075922	0.268415	0.199329	0.136760	10.003529	0.482030	-0.300419
840	4.197197	0.005000	0.302968	-6.143949	-8.368467	0.267523	0.205128	0.109366	10.003529	0.490031	-0.347085
841	4.202197	0.005000	0.413518	-6.459473	-7.170936	0.266631	0.210926	0.081973	10.003529	0.491250	-0.379084
842	4.207197	0.005000	0.456887	-7.433091	-5.164976	0.265739	0.216725	0.054579	10.003529	0.513338	-0.449088
843	4.212197	0.005000	0.423108	-9.163372	-2.502859	0.264847	0.222523	0.027185	10.003529	0.537992	-0.504849
844	4.217197	0.005000	0.510120	-12.550447	1.915196	0.264067	0.225858	0.001883	10.003529	0.571133	-0.549228
845	4.222197	0.005000	-0.273440	-15.679239	5.453725	0.263621	0.221842	-0.017177	10.003529	0.559236	-0.591123
846	4.227197	0.005000	-0.824933	-18.798456	0.777388	0.263175	0.217826	-0.036236	10.003529	0.517438	-0.579994
847	4.232197	0.005000	0.522055	-13.214335	-6.638624	0.262728	0.213810	-0.055296	10.003529	0.459805	-0.513650
848	4.237197	0.005000	2.121945	-18.210223	-2.550753	0.262282	0.209793	-0.074356	10.003529	0.319103	-0.417883
849	4.242197	0.005000	2.581879	-21.539086	0.585538	0.261836	0.205777	-0.093416	9.541810	0.197580	-0.386503
850	4.247197	0.005000	1.667549	-20.520448	-0.544353	0.261390	0.201761	-0.112475	6.466915	0.128501	-0.294277
851	4.252197	0.005000	0.869800	-18.660360	-2.388920	0.260943	0.197745	-0.131535	4.235536	0.068729	-0.233393
852	4.257197	0.005000	0.876380	-17.919550	-1.059329	0.260497	0.193729	-0.150595	3.045091	0.004567	-0.204866
853	4.262197	0.005000	1.779959	-16.259822	0.568904	0.260051	0.189713	-0.169654	2.207835	0.009453	-0.199059
854	4.267197	0.005000	2.533340	-14.005821	0.891220	0.259605	0.185697	-0.188714	2.058961	0.012155	-0.233489
855	4.272197	0.005000	1.955082	-11.495040	1.396479	0.259159	0.181680	-0.207774	2.621582	0.018811	-0.271804
856	4.277197	0.005000	1.480495	-9.320687	1.173296	0.258712	0.177664	-0.226834	3.209113	0.052513	-0.284321
857	4.282197	0.005000	0.952840	-7.754338	0.698729	0.258266	0.173648	-0.245893	3.608151	0.056385	-0.264813
858	4.287197	0.005000	0.319768	-6.839457	0.193276	0.258015	0.171287	-0.252676	3.794526	0.038414	-0.226519
859	4.292197	0.005000	0.101972	-6.498092	0.423896	0.257792	0.169168	-0.257657	3.726775	0.042640	-0.172818
860	4.297197	0.005000	0.051810	-6.593086	0.484215	0.257569	0.167049	-0.262638	3.556550	0.023861	-0.113144
861	4.302197	0.005000	0.139574	-6.803916	0.558298	0.257346	0.164931	-0.267618	3.391864	0.016535	-0.058355
862	4.307197	0.005000	0.308730	-7.145002	0.846255	0.257122	0.162812	-0.272599	3.308907	0.011454	-0.020466
863	4.312197	0.005000	0.839757	-7.513159	0.760374	0.256899	0.160693	-0.277580	3.291416	-0.002559	0.015258
864	4.317197	0.005000	1.388159	-7.700762	0.788490	0.256676	0.158575	-0.282561	3.259163	0.001645	0.040919
865	4.322197	0.005000	1.611411	-7.087013	0.655510	0.256453	0.156456	-0.287541	3.244520	0.005469	0.054648
866	4.327197	0.005000	1.763561	-6.021631	0.123317	0.256230	0.154337	-0.292522	3.240497	0.015794	0.055365
867	4.332197	0.005000	1.808577	-4.950976	-0.289163	0.256007	0.152219	-0.297503	3.287094	0.020557	0.076241
868	4.337197	0.005000	1.720620	-3.822846	-0.564839	0.255784	0.150100	-0.302483	3.230083	0.030657	0.100217
869	4.342197	0.005000	1.078733	-2.872141	-0.322276	0.255561	0.147982	-0.307464	3.110270	0.043406	0.150617
870	4.347197	0.005000	0.310781	-1.781049	-0.267729	0.255338	0.145863	-0.312445	2.935997	0.052638	0.194050
871	4.352197	0.005000	-0.143492	-0.864443	0.038658	0.255333	0.142224	-0.318456	2.767241	0.046979	0.247299
872	4.357197	0.005000	-0.691285	-0.211235	0.322540	0.255556	0.136983	-0.325554	2.581559	0.040004	0.303850
873	4.362197	0.005000	-1.101964	0.021242	0.609842	0.255779	0.131742	-0.332651	2.461434	0.031819	0.360447
874	4.367197	0.005000	-0.962168	-0.150652	0.977846	0.256002	0.126501	-0.339749	2.386534	0.023232	0.430738
875	4.372197	0.005000	-0.463626	-1.014700	1.511169	0.256225	0.121260	-0.346846	2.331403	0.013122	0.486476
876	4.377197	0.005000	0.151311	-1.667662	1.903102	0.256448	0.116019	-0.353944	2.324716	-0.012901	0.520458
877	4.382197	0.005000	0.549360	-1.857595	2.366001	0.256671	0.110778	-0.361041	2.399472	-0.037504	0.560318
878	4.387197	0.005000	0.159456	-1.747428	2.520546	0.256894	0.105538	-0.368139	2.648974	-0.029699	0.569884
879	4.392197	0.005000	-0.242220	-1.296359	2.618398	0.257117	0.100297	-0.375236	3.171490	-0.025740	0.632727
880	4.397197	0.005000	-0.357471	-1.238874	3.173690	0.257340	0.095056	-0.382334	4.005674	-0.018018	0.653903
881	4.402197	0.005000	-0.474798	-1.804979	4.679293	0.257563	0.089815	-0.389431	5.187695	0.022617	0.653554
882	4.407197	0.005000	-0.588146	-3.209965	5.494961	0.257786	0.084574	-0.396529	6.510679	0.042976	0.633806
883	4.412197	0.005000	-0.061870	-4.649395	5.300229	0.258009	0.079333	-0.403626	7.651581	0.048165	0.578137
884	4.417197	0.005000	0.311409	-5.841738	4.530768	0.258311	0.073819	-0.410368	8.631381	0.073373	0.516456
885	4.422197	0.005000	0.808852	-7.020178	4.411338	0.259315	0.065902	-0.413979	9.352667	0.111257	0.427942
886	4.427197	0.005000	1.440005	-7.729009	4.061658	0.260319	0.057985	-0.417590	9.700173	0.141187	0.338068
887	4.432197	0.005000	2.256101	-7.848000	4.291393	0.261322	0.050068	-0.421201	9.658387	0.132135	0.252299
888	4.437197	0.005000	2.834696	-7.623553	4.400376	0.262326	0.042151	-0.424812	9.258062	0.133487	0.161825
889	4.442197	0.005000	2.754942	-6.922524	3.966791	0.263329	0.034234	-0.428423	8.555920	0.101157	0.125549
890	4.447197	0.005000	2.315849	-5.887608	2.788107	0.264333	0.026317	-0.432034	7.638661	0.074223	0.072204
891	4.452197	0.005000	1.953725	-4.927691	1.697198	0.265336	0.018400	-0.435645	6.662633	0.043581	0.069058
892	4.457197	0.005000	1.452140	-4.331343	0.799743	0.266340	0.010483	-0.439256	5.724439	0.027258	0.063729
893	4.462197	0.005000	0.971144	-4.083378	0.468462	0.267344	0.002566	-0.442867	4.810752	0.020032	0.087823
894	4.467197	0.005000	0.549161	-3.973100	0.893058	0.268347	-0.005351	-0.446478	3.892159	0.002020	0.121935
895	4.472197	0.005000	0.330801	-3.980121	1.309826	0.269351	-0.013268	-0.450089	2.970165	-0.010706	0.144549
896	4.477197	0.005000	0.107646	-3.574821	1.432788	0.270354	-0.021185	-0.453700	2.102615	-0.028328	0.195131
897	4.482197	0.005000	-0.138779	-3.120774	1.593291	0.271358	-0.029102	-0.457311	1.365576	-0.041875	0.225860
898	4.487197	0.005000	-0.588600	-2.626508	2.472120	0.271162	-0.033503	-0.458601	0.866390	-0.048048	0.252124
899	4.492197	0.005000	-0.403216	-1.639125	3.176579	0.270493	-0.036515	-0.458975	0.607560	-0.066277	0.275032
900	4.497197	0.005000	-1.261307	-2.780821	5.189861	0.269823	-0.039527	-0.459348	0.738071	-0.047261	0.295571
901	4.502197	0.005000	-1.684990	-3.833933	5.027379	0.269154	-0.042539	-0.459722	0.914553	-0.096314	0.326009
902	4.507197	0.005000	-2.139586	-4.694212	5.297400	0.268485	-0.045551	-0.460096	1.216130	-0.109462	0.323580
903	4.512197	0.005000	-2.248373	-5.250627	5.757373	0.267815	-0.048563	-0.460470	1.629974	-0.108688	0.324085
904	4.517197	0.005000	-2.158200	-5.375880	6.196955	0.267146	-0.051575	-0.460843	2.088642	-0.095840	0.305287
905	4.522197	0.005000	-1.622787	-5.506246	6.399932	0.266477	-0.054587	-0.461217	2.579090	-0.073035	0.280743
906	4.527197	0.005000	-0.894654	-5.730613	6.261140	0.265807	-0.057600	-0.461591	3.014779	-0.062099	0.261997
907	4.532197	0.005000	-0.269491	-5.994099	6.625146	0.265138	-0.060612	-0.461964	3.454406	-0.040361	0.206531
908	4.537197	0.005000	0.250809	-5.854989	6.686442	0.264469	-0.063624	-0.462338	3.805223	-0.025696	0.164099
909	4.542197	0.005000	0.602366	-5.282606	6.867000	0.263799	-0.066636	-0.462712	3.922297	-0.007502	0.084615
910	4.547197	0.005000	0.946026	-4.395304	6.978109	0.263130	-0.069648	-0.463086	3.773557	0.000456	0.031311
911	4.552197	0.005000	1.137960	-3.025685	7.475765	0.262800	-0.072132	-0.463080	3.362380	-0.012625	-0.002596
912	4.557197	0.005000	1.068163	-1.698575	8.216923	0.263135	-0.073582	-0.462333	2.820625	-0.019599	-0.031403
913	4.562197	0.005000	0.891356	-0.880192	8.983933	0.263469	-0.075033	-0.461585	2.198991	-0.054938	-0.024385
914	4.567197	0.005000	0.580522	-0.673812	9.571867	0.263804	-0.076483	-0.460838	1.517387	-0.084495	-0.039697
915	4.572197	0.005000	-0.066864	-1.130568	9.266976	0.264139	-0.077933	-0.460091	0.913736	-0.108531	-0.028792
916	4.577197	0.005000	-0.675218	-1.397089	8.514717	0.264473	-0.079384	-0.459343	0.452256	-0.117948	-0.025437
917	4.582197	0.005000	-1.415968	-1.761201	8.285903	0.264808	-0.080834	-0.458596	0.253570	-0.099759	-0.041955
918	4.587197	0.005000	-1.966629	-2.533900	8.558949	0.265143	-0.082284	-0.457848	0.253297	-0.088067	-0.058753
919	4.592197	0.005000	-1.922760	-3.207938	9.448384	0.265477	-0.083734	-0.457101	0.247780	-0.053928	-0.083460
920	4.597197	0.005000	-1.714136	-3.530616	10.523826	0.265812	-0.085185	-0.456353	0.207719	-0.038417	-0.085376
921	4.602197	0.005000	-1.601186	-3.813934	11.324083	0.266146	-0.086635	-0.455606	0.095138	-0.048021	-0.094527
922	4.607197	0.005000	-1.270943	-4.246633	11.633208	0.266481	-0.088085	-0.454858	-0.006813	-0.067353	-0.071247
923	4.612197	0.005000	-0.984752	-5.050705	11.445025	0.266816	-0.089536	-0.454111	-0.071880	-0.101557	-0.054434
924	4.617197	0.005000	-0.768493	-5.787643	10.801196	0.267150	-0.090986	-0.453363	-0.161284	-0.118311	-0.031088
925	4.622197	0.005000	-0.784800	-5.974856	10.214399	0.267164	-0.092222	-0.452138	-0.371857	-0.139898	-0.007568
926	4.627197	0.005000	-0.717558	-4.983572	10.129508	0.267164	-0.093449	-0.450892	-0.693818	-0.124557	-0.002003
927	4.632197	0.005000	-0.357200	-3.285202	10.508239	0.267164	-0.094676	-0.449647	-0.881284	-0.088854	0.011947
928	4.637197	0.005000	-0.170663	-1.474769	11.272781	0.267164	-0.095904	-0.448401	-0.821894	-0.065616	0.014435
929	4.642197	0.005000	0.043219	-0.274129	11.952835	0.267164	-0.097131	-0.447155	-0.489091	-0.035914	0.035001
930	4.647197	0.005000	0.040802	0.193077	12.437518	0.267164	-0.098358	-0.445910	0.043571	-0.028852	0.055425
931	4.652197	0.005000	0.040072	-0.035912	11.977352	0.267164	-0.099585	-0.444664	0.704932	-0.013720	0.041349
932	4.657197	0.005000	0.111276	-0.261792	11.320453	0.267164	-0.100812	-0.443418	1.353310	0.006308	0.038035
933	4.662197	0.005000	0.218649	-0.723172	11.177803	0.267164	-0.102039	-0.442173	1.927709	0.041102	0.008131
934	4.667197	0.005000	0.125707	-1.567512	11.418144	0.267164	-0.103266	-0.440927	2.408071	0.039577	-0.016644
935	4.672197	0.005000	0.057756	-2.766844	11.837909	0.267164	-0.104494	-0.439681	2.733307	0.032591	-0.032791
936	4.677197	0.005000	0.039240	-3.822965	12.376302	0.267164	-0.105721	-0.438436	2.821715	0.025873	-0.068801
937	4.682197	0.005000	-0.032549	-4.682038	12.911889	0.267164	-0.106948	-0.437190	2.708668	-0.007654	-0.080122
938	4.687197	0.005000	-0.239252	-5.491135	13.192264	0.267488	-0.108369	-0.436233	2.475016	-0.034868	-0.129455
939	4.692197	0.005000	-0.353160	-5.886000	13.399955	0.268045	-0.109931	-0.435486	2.156292	-0.066532	-0.142174
940	4.697197	0.005000	-0.274680	-5.690596	13.241380	0.268603	-0.111493	-0.434738	1.800714	-0.099224	-0.166013
941	4.702197	0.005000	-0.206852	-4.958259	12.760009	0.269161	-0.113055	-0.433991	1.478365	-0.115490	-0.164315
942	4.707197	0.005000	0.047523	-3.863509	12.521158	0.269719	-0.114616	-0.433244	1.250211	-0.115647	-0.155091
943	4.712197	0.005000	0.303100	-2.907800	12.371420	0.270277	-0.116178	-0.432496	1.168278	-0.110274	-0.148519
944	4.717197	0.005000	9.057260	-18.641143	12.946674	0.270835	-0.117740	-0.431749	0.879088	-0.103540	-0.105968
945	4.722197	0.005000	15.973863	1.189933	24.407158	0.271392	-0.119302	-0.431001	-3.570682	-0.913471	0.391116
946	4.727197	0.005000	-1.840299	-6.410772	2.257318	0.271950	-0.120864	-0.430254	0.177827	0.008069	0.594857
947	4.732197	0.005000	-4.255528	-7.762032	8.919294	0.272508	-0.122425	-0.429506	1.004699	0.476550	0.550353
948	4.737197	0.005000	-7.588780	-12.551808	13.561293	0.273066	-0.123987	-0.428759	2.100939	0.262398	0.376318
949	4.742197	0.005000	-4.585725	-5.241611	19.287201	0.273624	-0.125549	-0.428011	1.425450	0.337360	0.154365
950	4.747197	0.005000	-1.791879	-0.632862	18.798592	0.274182	-0.127111	-0.427264	0.296021	0.231565	0.135885
951	4.752197	0.005000	-1.835945	-0.776465	14.103830	0.274649	-0.128358	-0.426441	-0.096661	0.146128	0.155403
952	4.757197	0.005000	-1.832193	-1.940474	13.200372	0.274761	-0.128358	-0.425320	0.081088	0.125910	0.215935
953	4.762197	0.005000	-0.187638	-11.866515	27.983445	0.274872	-0.128358	-0.424199	0.510694	-0.010636	0.202710
954	4.767197	0.005000	-0.414316	-3.564320	9.517690	0.274984	-0.128358	-0.423078	-0.756206	0.070602	0.141223
955	4.772197	0.005000	0.180120	-6.210585	13.777173	0.275096	-0.128358	-0.421957	0.251221	-0.057274	0.097562
956	4.777197	0.005000	1.180377	-3.797748	10.495112	0.275207	-0.128358	-0.420835	0.370324	-0.048703	0.048042
957	4.782197	0.005000	2.127704	-1.266027	7.953043	0.275319	-0.128358	-0.419714	0.460974	0.004768	0.031071
958	4.787197	0.005000	1.858394	-1.792938	11.566799	0.275430	-0.128358	-0.418593	0.693313	-0.015058	0.022788
959	4.792197	0.005000	1.625093	-0.169708	8.893201	0.275542	-0.128358	-0.417472	0.497914	0.019945	0.051534
960	4.797197	0.005000	0.997045	-2.719946	11.063766	0.275653	-0.128358	-0.416351	0.507190	-0.025455	0.037783
961	4.802197	0.005000	0.797411	-1.586986	8.672040	0.275765	-0.128358	-0.415230	0.277102	0.003428	0.032784
962	4.807197	0.005000	0.377855	-2.585507	9.746065	0.275876	-0.128358	-0.414108	0.350651	-0.009983	-0.006253
963	4.812197	0.005000	-0.236955	-3.212125	10.051500	0.275988	-0.128358	-0.412987	0.268762	-0.008093	0.008755
964	4.817197	0.005000	-0.465207	-2.524596	10.478971	0.276099	-0.128358	-0.411866	0.088530	-0.006017	0.001837
965	4.822197	0.005000	-0.741294	-2.414969	9.757115	0.275019	-0.129275	-0.411155	0.036748	-0.011504	-0.022807
966	4.827197	0.005000	-0.562672	-1.720600	9.210176	0.273681	-0.130390	-0.410532	-0.034034	-0.008048	-0.027521
967	4.832197	0.005000	-0.262533	-1.388346	8.554320	0.272342	-0.131505	-0.409910	0.006964	-0.002446	-0.032399
968	4.837197	0.005000	-0.101322	-0.573669	8.146989	0.271004	-0.132620	-0.409287	0.003916	0.017853	-0.023377
969	4.842197	0.005000	0.316068	-3.764892	13.223305	0.269666	-0.133736	-0.408664	0.114404	0.009461	-0.023414
970	4.847197	0.005000	0.536076	-1.341261	9.951809	0.268328	-0.134851	-0.408042	-0.260291	0.032956	-0.019262
971	4.852197	0.005000	0.588600	-2.956350	10.708325	0.266990	-0.135966	-0.407419	-0.008470	-0.013049	-0.010758
972	4.857197	0.005000	0.474033	-1.622323	9.592068	0.265652	-0.137081	-0.406796	-0.222674	0.012628	-0.021338
973	4.862197	0.005000	0.236696	-2.995174	10.389811	0.264314	-0.138196	-0.406174	-0.032741	-0.010593	-0.023749
974	4.867197	0.005000	0.366832	-1.749020	9.869480	0.262976	-0.139311	-0.405551	-0.132528	-0.000284	-0.018106
975	4.872197	0.005000	0.460060	-2.813021	9.866702	0.261638	-0.140426	-0.404929	0.089899	-0.003122	-0.026604
976	4.877197	0.005000	0.533658	-1.765785	9.809909	0.260300	-0.141541	-0.404306	0.087052	0.003999	-0.030451
977	4.882197	0.005000	0.381478	-2.638988	9.763272	0.258962	-0.142657	-0.403683	0.299775	0.007169	-0.035279
978	4.887197	0.005000	0.193114	-2.275043	9.252260	0.258599	-0.143089	-0.403769	0.411320	0.010464	-0.037758
979	4.892197	0.005000	0.079176	-2.434272	10.047528	0.259492	-0.142642	-0.404766	0.437171	0.020204	-0.046359
980	4.897197	0.005000	0.155261	-2.211035	9.900376	0.260384	-0.142196	-0.405762	0.468005	0.011297	-0.031747
981	4.902197	0.005000	0.196200	-2.381290	10.002083	0.261277	-0.141750	-0.406759	0.517110	0.017410	-0.031525
982	4.907197	0.005000	0.117720	-2.380596	9.973482	0.262169	-0.141304	-0.407756	0.589909	0.017419	-0.048065
983	4.912197	0.005000	-0.032039	-2.354400	9.927720	0.263062	-0.140857	-0.408752	0.652628	0.012599	-0.036116
984	4.917197	0.005000	-0.334009	-2.232475	9.911836	0.263954	-0.140411	-0.409749	0.713883	0.016556	-0.047598
985	4.922197	0.005000	-0.599734	-1.850119	9.824053	0.264847	-0.139965	-0.410745	0.766239	0.022816	-0.034077
986	4.927197	0.005000	-0.853190	-1.687320	10.051793	0.265739	-0.139518	-0.411742	0.783884	0.028649	-0.036017
987	4.932197	0.005000	-1.120745	-1.590022	10.028225	0.266631	-0.139072	-0.412739	0.745182	0.030035	-0.011341
988	4.937197	0.005000	-1.183553	-1.669288	10.105888	0.267524	-0.138626	-0.413735	0.654866	0.035829	0.007241
989	4.942197	0.005000	-0.996853	-1.773530	10.053367	0.268416	-0.138179	-0.414732	0.522318	0.039864	0.015042
990	4.947197	0.005000	-0.614014	-1.659667	10.111213	0.269309	-0.137733	-0.415729	0.401376	0.034318	0.040633
991	4.952197	0.005000	-0.154005	-1.313063	10.228136	0.270201	-0.137372	-0.416630	0.270498	0.035687	0.046268
992	4.957197	0.005000	0.142146	-1.003956	10.140204	0.271094	-0.138376	-0.416008	0.152518	0.034395	0.063251
993	4.962197	0.005000	0.185590	-0.941760	10.443566	0.271986	-0.139380	-0.415385	0.093556	0.029262	0.064967
994	4.967197	0.005000	0.470880	-0.706320	10.516320	0.272879	-0.140384	-0.414762	0.096355	0.017200	0.065885
995	4.972197	0.005000	0.476326	-0.822679	10.475719	0.273771	-0.141388	-0.414139	0.180081	0.011141	0.058687
996	4.977197	0.005000	0.742483	-0.899443	10.132126	0.274664	-0.142392	-0.413516	0.313529	0.003515	0.030639
997	4.982197	0.005000	0.784800	-1.149971	9.891884	0.275556	-0.143396	-0.412893	0.496886	-0.004546	0.019194
998	4.987197	0.005000	0.712168	-1.461878	9.709825	0.276449	-0.144400	-0.412270	0.665573	-0.003121	-0.022064
999	4.992197	0.005000	0.456433	-1.701767	9.411417	0.277341	-0.145404	-0.411647	0.769487	-0.005273	-0.035849
1000	4.997197	0.005000	0.256782	-2.165426	9.299880	0.278234	-0.146408	-0.411024	0.738128	-0.017897	-0.052714
1001	5.002197	0.005000	0.209285	-2.197440	9.587630	0.279126	-0.147412	-0.410401	0.591733	-0.011843	-0.072291
1002	5.007197	0.005000	0.061976	-2.149948	9.771770	0.280019	-0.148416	-0.409778	0.367251	-0.024864	-0.079326
1003	5.012197	0.005000	-0.142482	-1.976478	9.870574	0.280912	-0.149420	-0.409155	0.106735	-0.024178	-0.077204
1004	5.017197	0.005000	-0.391007	-1.749663	9.753230	0.281804	-0.150424	-0.408533	-0.079889	-0.041222	-0.064146
1005	5.022197	0.005000	-0.605113	-1.458094	9.725306	0.281635	-0.151201	-0.407994	-0.175023	-0.040062	-0.066278
1006	5.027197	0.005000	-0.627840	-1.294920	9.944883	0.280966	-0.151870	-0.407496	-0.110828	-0.029504	-0.094941
1007	5.032197	0.005000	-0.718012	-1.188892	10.245007	0.280296	-0.152540	-0.406998	0.064481	-0.032685	-0.084302
1008	5.037197	0.005000	-0.844724	-1.431196	10.788872	0.279627	-0.153209	-0.406500	0.239788	-0.040609	-0.102262
1009	5.042197	0.005000	-0.810297	-1.668695	11.111792	0.278957	-0.153878	-0.406001	0.381363	-0.038744	-0.095325
1010	5.047197	0.005000	-0.710722	-1.901128	11.187802	0.278288	-0.154548	-0.405503	0.485223	-0.031892	-0.098405
1011	5.052197	0.005000	-0.751641	-2.158200	10.945933	0.277619	-0.155217	-0.405005	0.547791	-0.026124	-0.083704
1012	5.057197	0.005000	-0.902168	-2.235976	10.869832	0.276949	-0.155886	-0.404507	0.555128	-0.030147	-0.081419
1013	5.062197	0.005000	-0.938990	-2.200210	10.460000	0.276280	-0.156556	-0.404008	0.508177	-0.029902	-0.077271
1014	5.067197	0.005000	-0.835204	-1.911430	10.331284	0.275610	-0.157225	-0.403510	0.405045	-0.036717	-0.062104
1015	5.072197	0.005000	-0.549905	-1.491665	9.967505	0.274941	-0.157894	-0.403012	0.296704	-0.029921	-0.056343
1016	5.077197	0.005000	-0.256134	-1.043082	9.440442	0.274271	-0.158564	-0.402514	0.191591	-0.035219	-0.039528
1017	5.082197	0.005000	-0.064684	-0.600248	9.154568	0.273602	-0.159233	-0.402015	0.126486	-0.031629	-0.039605
1018	5.087197	0.005000	0.069464	-0.262745	8.985960	0.273369	-0.159667	-0.401742	0.128911	-0.021767	-0.033002
1019	5.092197	0.005000	0.287478	-0.056727	8.946720	0.274150	-0.159556	-0.401991	0.125624	-0.019853	-0.012947
1020	5.097197	0.005000	0.490990	-0.019130	8.966830	0.274931	-0.159444	-0.402240	0.155447	-0.016383	-0.020034
1021	5.102197	0.005000	0.493401	-0.134439	8.812281	0.275712	-0.159333	-0.402489	0.206878	-0.005813	-0.003534
1022	5.107197	0.005000	0.406709	-0.206821	8.739899	0.276493	-0.159221	-0.402738	0.245420	-0.005769	-0.015026
1023	5.112197	0.005000	0.431640	-0.231888	8.762416	0.277274	-0.159110	-0.402988	0.257295	0.011558	-0.009452
1024	5.117197	0.005000	0.364263	-0.381297	8.817897	0.278054	-0.158998	-0.403237	0.241447	0.013344	0.009702
1025	5.122197	0.005000	0.142982	-0.752549	9.156898	0.278835	-0.158887	-0.403486	0.199743	0.034393	0.021652
1026	5.127197	0.005000	-0.023069	-0.886349	9.449897	0.279616	-0.158775	-0.403735	0.139628	0.036060	0.031714
1027	5.132197	0.005000	-0.251006	-1.120170	10.026213	0.280397	-0.158664	-0.403984	0.043170	0.028847	0.022270
1028	5.137197	0.005000	-0.158338	-0.628606	11.336532	0.281178	-0.158552	-0.404233	-0.060174	0.053517	0.037642
1029	5.142197	0.005000	-0.269538	-1.601800	10.709276	0.281959	-0.158441	-0.404482	0.032536	0.052643	0.053047
1030	5.147197	0.005000	-0.245388	-2.290291	11.481847	0.282740	-0.158329	-0.404731	0.046398	0.043670	0.058671
1031	5.152197	0.005000	-0.164720	-2.338441	11.403319	0.283521	-0.158218	-0.404981	-0.047611	0.019047	0.033823
1032	5.157197	0.005000	0.068345	-1.845581	11.411307	0.283068	-0.157798	-0.405345	-0.116813	0.022027	0.029765
1033	5.162197	0.005000	0.105195	-1.605512	11.078205	0.282510	-0.157351	-0.405718	-0.070930	0.000000	0.029624
1034	5.167197	0.005000	0.132620	-1.569600	10.714002	0.281952	-0.156905	-0.406092	-0.042113	-0.011390	0.022052
1035	5.172197	0.005000	0.152301	-1.268311	10.433181	0.281394	-0.156459	-0.406466	-0.021297	-0.008475	0.011199
1036	5.177197	0.005000	0.235349	-1.000847	10.104527	0.280837	-0.156013	-0.406839	0.024899	-0.012153	0.014501
1037	5.182197	0.005000	0.223126	-0.846095	9.932591	0.280279	-0.155567	-0.407213	0.086177	-0.011148	0.005516
1038	5.187197	0.005000	0.063966	-0.696108	9.888480	0.279721	-0.155120	-0.407587	0.172801	-0.010566	0.012305
1039	5.192197	0.005000	0.078480	-0.706320	9.834211	0.279163	-0.154674	-0.407961	0.260786	-0.000514	0.002652
1040	5.197197	0.005000	0.068789	-0.784325	9.790617	0.278605	-0.154228	-0.408334	0.325982	-0.002885	0.019462
1041	5.202197	0.005000	0.164245	-0.981000	9.567275	0.278047	-0.153782	-0.408708	0.382006	0.007577	0.007033
1042	5.207197	0.005000	0.166697	-1.054611	9.648171	0.277490	-0.153335	-0.409082	0.411198	0.013919	0.008900
1043	5.212197	0.005000	0.282072	-1.098720	9.736448	0.276932	-0.152889	-0.409455	0.410953	0.017679	0.017121
1044	5.217197	0.005000	0.470926	-1.177292	9.809954	0.276374	-0.152443	-0.409829	0.379881	0.014829	0.002189
1045	5.222197	0.005000	0.510120	-1.218770	9.807670	0.276058	-0.152542	-0.409730	0.349206	0.012869	0.003940
1046	5.227197	0.005000	0.445965	-1.403090	9.814775	0.275947	-0.153099	-0.409231	0.300321	0.014800	-0.003311
1047	5.232197	0.005000	0.406761	-1.405460	9.795639	0.275836	-0.153657	-0.408733	0.239422	0.019795	0.011832
1048	5.237197	0.005000	0.215368	-2.580256	10.948511	0.275724	-0.154214	-0.408235	0.182364	-0.006516	0.002341
1049	5.242197	0.005000	0.283434	-1.514138	9.720807	0.275613	-0.154772	-0.407737	0.099292	0.008360	-0.018073
1050	5.247197	0.005000	-0.095352	-1.584007	10.333011	0.275501	-0.155329	-0.407239	0.230199	-0.012198	-0.015661
1051	5.252197	0.005000	-0.213019	-1.048293	9.978209	0.275390	-0.155887	-0.406741	0.107793	0.001604	-0.023736
1052	5.257197	0.005000	-0.274680	-1.023363	10.070135	0.275278	-0.156444	-0.406243	0.043775	-0.005994	-0.015888
1053	5.262197	0.005000	-0.300971	-1.303815	10.259430	0.275167	-0.157002	-0.405745	0.007963	-0.007728	-0.009390
1054	5.267197	0.005000	-0.289686	-1.044474	9.794994	0.275055	-0.157559	-0.405247	-0.023197	0.004315	-0.016468
1055	5.272197	0.005000	-0.483511	-1.086089	10.177138	0.274944	-0.158117	-0.404749	0.046141	-0.009858	-0.012138
1056	5.277197	0.005000	-0.402641	-0.902520	9.915754	0.274832	-0.158674	-0.404250	0.052718	0.004581	-0.026023
1057	5.282197	0.005000	-0.478746	-1.059480	10.100412	0.274721	-0.159232	-0.403752	0.074397	-0.007171	-0.010929
1058	5.287197	0.005000	-0.375972	-0.975524	9.945056	0.274574	-0.159701	-0.403313	0.032509	-0.005801	-0.013632
1059	5.292197	0.005000	-0.241642	-1.017139	9.985566	0.274239	-0.159701	-0.403189	0.023982	-0.004350	-0.013882
1060	5.297197	0.005000	-0.195159	-0.979959	10.202400	0.273905	-0.159701	-0.403064	0.018076	-0.006109	-0.013614
1061	5.302197	0.005000	-0.039240	-0.786933	10.091079	0.273570	-0.159701	-0.402940	0.001167	0.001001	-0.025376
1062	5.307197	0.005000	-0.113212	-0.719844	10.267356	0.273235	-0.159701	-0.402815	0.004499	-0.007071	-0.001012
1063	5.312197	0.005000	-0.046138	-0.602396	9.955312	0.272901	-0.159701	-0.402691	0.002197	-0.003263	-0.012704
1064	5.317197	0.005000	-0.138414	-0.570054	10.234515	0.272566	-0.159701	-0.402566	0.026241	-0.006898	-0.011075
1065	5.322197	0.005000	-0.074229	-0.561023	9.958459	0.272231	-0.159701	-0.402442	0.022302	0.002436	-0.006998
1066	5.327197	0.005000	0.011164	-0.882734	10.118172	0.271896	-0.159701	-0.402317	0.052253	-0.008434	-0.017198
1067	5.332197	0.005000	0.016612	-0.974983	10.134515	0.271562	-0.159701	-0.402193	0.068239	-0.008659	-0.014085
1068	5.337197	0.005000	-0.098697	-1.061867	10.026417	0.271227	-0.159701	-0.402068	0.086651	0.002726	-0.013401
1069	5.342197	0.005000	-0.139154	-1.080914	9.970589	0.270892	-0.159701	-0.401944	0.095932	-0.005185	-0.008139
1070	5.347197	0.005000	-0.093876	-1.114116	10.036992	0.270558	-0.159701	-0.401819	0.100014	-0.008116	-0.007669
1071	5.352197	0.005000	-0.065652	-1.112304	10.045440	0.270223	-0.159701	-0.401695	0.117450	0.000817	-0.023831
1072	5.357197	0.005000	-0.117720	-1.109173	10.087252	0.270410	-0.159527	-0.401667	0.129328	0.001548	-0.010397
1073	5.362197	0.005000	-0.235440	-1.129897	10.068554	0.270744	-0.159304	-0.401667	0.125007	-0.002896	-0.021735
1074	5.367197	0.005000	-0.291744	-1.065168	10.084680	0.271079	-0.159081	-0.401667	0.121965	-0.003390	-0.017647
1075	5.372197	0.005000	-0.356458	-1.049587	10.042142	0.271414	-0.158858	-0.401667	0.128333	0.002688	-0.028108
1076	5.377197	0.005000	-0.353160	-0.980077	10.125766	0.271749	-0.158635	-0.401667	0.148899	0.005905	-0.020311
1077	5.382197	0.005000	-0.277649	-1.017271	10.051378	0.272083	-0.158412	-0.401667	0.173612	-0.004712	-0.010385
1078	5.387197	0.005000	-0.196200	-0.874946	10.045440	0.272418	-0.158189	-0.401667	0.202676	-0.001085	-0.014357
1079	5.392197	0.005000	-0.084785	-1.001324	10.025116	0.272753	-0.157965	-0.401667	0.204897	-0.002570	-0.010921
1080	5.397197	0.005000	-0.078480	-1.068191	10.123920	0.273087	-0.157742	-0.401667	0.225256	0.004141	-0.029897
1081	5.402197	0.005000	-0.050691	-0.936874	10.096131	0.273422	-0.157519	-0.401667	0.244024	-0.005111	-0.014647
1082	5.407197	0.005000	0.025399	-0.955601	9.992359	0.273757	-0.157296	-0.401667	0.264980	-0.002817	-0.018837
1083	5.412197	0.005000	0.085287	-0.911929	10.084680	0.274091	-0.157073	-0.401667	0.280444	-0.003875	-0.008285
1084	5.417197	0.005000	0.095059	-0.762139	10.103286	0.274426	-0.156850	-0.401667	0.285505	-0.005183	-0.021132
1085	5.422197	0.005000	-0.018259	-0.664357	10.024459	0.274716	-0.156850	-0.401269	0.284047	0.004149	-0.016912
1086	5.427197	0.005000	-0.085953	-0.848334	10.123920	0.274939	-0.157184	-0.400272	0.270183	0.005005	-0.011102
1087	5.432197	0.005000	-0.026987	-0.824040	10.096933	0.275162	-0.157519	-0.399276	0.244374	-0.001628	-0.008921
1088	5.437197	0.005000	-0.089599	-0.790684	10.056559	0.275385	-0.157853	-0.398280	0.234267	-0.013843	-0.008220
1089	5.442197	0.005000	-0.016743	-0.641966	10.123920	0.275608	-0.158188	-0.397284	0.233192	-0.010456	-0.011604
1090	5.447197	0.005000	-0.045196	-0.633796	10.006200	0.275831	-0.158523	-0.396288	0.236344	0.001613	-0.008698
1091	5.452197	0.005000	-0.146308	-0.588600	10.170261	0.276054	-0.158857	-0.395291	0.237932	-0.001727	-0.003381
1092	5.457197	0.005000	-0.039240	-0.512359	10.125039	0.276277	-0.159192	-0.394295	0.204546	0.003019	-0.013656
1093	5.462197	0.005000	-0.077209	-0.588600	10.201129	0.276500	-0.159526	-0.393299	0.183039	-0.010596	0.002264
1094	5.467197	0.005000	-0.042928	-0.734495	9.974337	0.276723	-0.159861	-0.392303	0.176927	-0.008244	-0.005867
1095	5.472197	0.005000	-0.045333	-0.673173	10.123920	0.276946	-0.160195	-0.391307	0.153723	-0.007561	-0.000606
1096	5.477197	0.005000	-0.100702	-0.667080	10.070967	0.277169	-0.160530	-0.390310	0.164418	-0.007611	0.000687
1097	5.482197	0.005000	-0.089396	-0.606008	10.023608	0.277392	-0.160864	-0.389314	0.127903	-0.001351	-0.006847
1098	5.487197	0.005000	-0.156960	-0.667080	10.098010	0.277612	-0.161199	-0.388337	0.121513	0.001106	0.008939
1099	5.492197	0.005000	-0.054979	-0.565099	10.163160	0.277612	-0.161534	-0.388586	0.102280	-0.004396	-0.005645
1100	5.497197	0.005000	-0.099325	-0.627840	10.121469	0.277612	-0.161868	-0.388835	0.087721	0.000022	0.001540
1101	5.502197	0.005000	-0.078480	-0.609385	10.181615	0.277612	-0.162203	-0.389084	0.070977	-0.001450	0.008452
1102	5.507197	0.005000	-0.101640	-0.611760	10.075679	0.277612	-0.162538	-0.389334	0.066473	0.000247	0.002415
1103	5.512197	0.005000	-0.104025	-0.484575	10.098375	0.277612	-0.162873	-0.389583	0.067186	-0.003381	-0.006162
