# FOX Logger (IMU file)
# (c) INRIA 2013
## File created from file data/HIGPS02.RAW
#
# File format:
# id	t	dt	ax	ay	az	mx	my	mz	gx	gy	gz
#
# Units:
#	Time: s
#	Acceleration: m.s^-2
#	Magnetic field: gauss
#	Rotation speed: rad.s^-1
#
1	7.619995	-87.174347	-9.888480	-0.235440	1.530360	0.052239	-0.794030	-7.621667	0.031765	-0.025656	0.015882
2	7.684418	0.075439	-9.770760	-0.117720	1.530360	0.289552	-1.062687	-7.621667	-0.037874	-0.012217	0.019548
3	7.813324	0.204346	-10.123920	-0.117720	1.412640	1.701493	-3.329851	-7.621667	-0.042761	-0.009774	0.009774
4	7.942230	0.173279	-10.123920	0.000000	1.294920	0.108955	-6.113433	0.001667	-0.041539	-0.007330	0.017104
5	8.071136	0.142212	-10.123920	0.000000	1.412640	0.022388	-2.971642	-0.001667	-0.040317	-0.012217	0.013439
6	8.200043	0.190765	-9.888480	-0.117720	1.412640	0.008955	1.265672	0.001667	-0.036652	-0.010996	0.012217
7	8.329926	0.161041	-10.241640	-0.117720	1.412640	-0.004478	-2.347761	-0.001667	-0.039095	-0.018326	0.014661
8	8.457855	0.128998	-10.123920	-0.117720	1.530360	0.000000	-6.113433	0.001667	-0.042761	-0.013439	0.013439
9	8.586761	0.177917	-10.123920	-0.117720	1.530360	0.000000	-6.113433	0.011667	-0.047647	-0.009774	0.009774
10	8.715637	0.146820	-10.123920	-0.117720	1.412640	-0.002985	-2.105970	0.000000	-0.043982	-0.010996	0.012217
11	8.844574	0.195770	-10.006200	-0.117720	1.294920	0.000000	1.655224	-0.075000	-0.034208	-0.009774	0.009774
12	8.973480	0.164703	-10.123920	-0.235440	1.294920	0.001493	0.755224	-0.646667	-0.040317	-0.015882	0.013439
13	9.102417	0.133667	-10.241640	-0.117720	1.294920	0.000000	2.013433	0.000000	-0.036652	-0.009774	0.010996
14	9.231323	0.182587	-10.123920	0.000000	1.412640	-0.002985	-1.697015	-0.001667	-0.040317	-0.010996	0.004887
15	9.360199	0.151489	-10.006200	-0.235440	1.294920	0.000000	1.989552	-0.030000	-0.039095	-0.009774	0.019548
16	9.489105	0.200409	-10.006200	0.000000	1.412640	0.002985	-0.300000	0.078333	-0.043982	-0.010996	0.024435
17	9.618042	0.169373	-10.006200	0.000000	1.294920	-3.058209	-6.113433	1.246667	-0.036652	-0.013439	0.017104
18	9.746979	0.138336	-10.241640	-0.235440	1.530360	-6.113433	0.002985	2.643333	-0.043982	-0.012217	0.020769
19	9.875916	0.187286	-10.241640	-0.235440	1.530360	-3.774627	-0.002985	1.830000	-0.035430	-0.013439	0.008552
20	10.004822	0.156219	-10.123920	-0.117720	1.294920	-3.700000	0.020896	1.540000	-0.037874	-0.010996	0.008552
21	10.133759	0.205170	-10.006200	0.000000	1.530360	-1.023881	0.100000	1.028333	-0.036652	-0.013439	0.017104
22	10.262665	0.174103	-10.123920	-0.117720	1.412640	-1.159701	0.062687	0.815000	-0.043982	-0.018326	0.014661
23	10.391541	0.143005	-10.123920	-0.117720	1.412640	-0.643284	0.380597	0.336667	-0.040317	-0.009774	0.012217
24	10.520477	0.190796	-10.123920	-0.117720	1.412640	-0.317910	0.438806	0.078333	-0.041539	-0.012217	0.013439
25	10.649536	0.161041	-10.123920	-0.117720	1.412640	-0.302985	0.434328	0.215000	-0.041539	-0.010996	0.014661
26	10.778290	0.129822	-10.123920	0.000000	1.412640	-0.167164	0.397015	0.048333	-0.042761	-0.009774	0.012217
27	10.907196	0.178741	-10.123920	0.000000	1.294920	-0.156716	0.389552	0.023333	-0.047647	-0.012217	0.010996
28	11.036133	0.147705	-10.123920	-0.117720	1.294920	-0.153731	0.388060	0.041667	-0.039095	-0.010996	0.012217
29	11.165070	0.196655	-10.241640	-0.117720	1.294920	-0.165672	0.391045	0.006667	-0.042761	-0.012217	0.015882
30	11.294006	0.165619	-10.241640	-0.117720	1.530360	-0.177612	0.394030	0.055000	-0.042761	-0.009774	0.017104
31	11.422943	0.134583	-10.123920	-0.117720	1.294920	-0.182090	0.408955	0.026667	-0.041539	-0.012217	0.007330
32	11.551819	0.183472	-10.123920	-0.117720	1.412640	-0.185075	0.385075	-0.036667	-0.036652	-0.019548	0.014661
33	11.680756	0.152435	-10.006200	-0.235440	1.177200	-0.192537	0.380597	0.078333	-0.042761	-0.013439	0.006109
34	11.809692	0.201385	-9.888480	-0.235440	1.412640	-0.197015	0.401493	-0.030000	-0.039095	-0.014661	0.013439
35	11.938629	0.170349	-10.241640	-0.117720	1.530360	-0.202985	0.402985	-0.081667	-0.042761	-0.012217	0.010996
36	12.067566	0.139313	-10.123920	-0.117720	1.412640	-0.204478	0.376119	0.040000	-0.035430	-0.010996	0.007330
37	12.196533	0.188293	-10.123920	-0.117720	1.294920	-0.202985	0.397015	-0.060000	-0.040317	-0.012217	0.006109
38	12.325500	0.157288	-10.241640	0.000000	1.530360	-0.213433	0.394030	-0.023333	-0.039095	-0.013439	0.018326
39	12.454437	0.206238	-10.123920	-0.235440	1.177200	-0.219403	0.407463	0.018333	-0.042761	-0.010996	0.012217
40	12.583374	0.175201	-10.006200	-0.353160	1.294920	-0.222388	0.386567	0.021667	-0.035430	-0.018326	0.008552
41	12.712341	0.144196	-10.241640	-0.235440	1.412640	-0.225373	0.398507	-0.003333	-0.041539	-0.012217	0.018326
42	12.841278	0.190826	-10.123920	-0.235440	1.412640	-0.228358	0.386567	0.078333	-0.037874	-0.012217	0.017104
43	12.970215	0.162109	-10.359360	-0.117720	1.177200	-0.234328	0.350746	0.068333	-0.040317	-0.012217	0.009774
44	13.099121	0.131042	-10.241640	0.000000	1.294920	-0.238806	0.420896	-0.013333	-0.040317	-0.009774	0.014661
45	13.228058	0.179993	-10.123920	0.000000	1.412640	-0.238806	0.411940	0.066667	-0.031765	-0.012217	0.014661
46	13.356995	0.148956	-10.006200	-0.117720	1.412640	-0.241791	0.383582	0.036667	-0.040317	-0.012217	0.015882
47	13.485962	0.197937	-10.123920	-0.117720	1.530360	-0.243284	0.414925	0.068333	-0.035430	-0.014661	0.014661
48	13.614868	0.166870	-10.123920	0.000000	1.412640	-0.243284	0.408955	-0.031667	-0.037874	-0.018326	0.010996
49	13.743835	0.135864	-10.006200	-0.117720	1.530360	-0.247761	0.374627	0.135000	-0.036652	-0.015882	0.012217
50	13.872772	0.184814	-10.123920	-0.235440	1.177200	-0.253731	0.434328	0.025000	-0.039095	-0.009774	0.009774
51	14.001709	0.153778	-10.123920	0.000000	1.294920	-0.255224	0.394030	-0.001667	-0.041539	-0.009774	0.018326
52	14.130646	0.202728	-10.123920	-0.117720	1.412640	-0.255224	0.428358	0.083333	-0.037874	-0.012217	0.009774
53	14.259613	0.171722	-10.123920	-0.117720	1.294920	-0.258209	0.379104	-0.025000	-0.041539	-0.009774	0.009774
54	14.388550	0.140686	-10.006200	0.000000	1.294920	-0.259701	0.395522	0.158333	-0.037874	-0.010996	0.012217
55	14.517487	0.189636	-10.123920	-0.235440	1.412640	-0.261194	0.429851	0.043333	-0.045204	-0.014661	0.015882
56	14.646423	0.158600	-10.241640	-0.117720	1.412640	-0.259701	0.422388	0.078333	-0.040317	-0.010996	0.014661
57	14.775360	0.126343	-9.888480	-0.117720	1.294920	-0.262687	0.361194	-0.013333	-0.042761	-0.010996	0.009774
58	14.904297	0.176514	-10.123920	-0.235440	1.294920	-0.262687	0.404478	0.053333	-0.035430	-0.017104	0.014661
59	15.033264	0.145508	-10.123920	-0.117720	1.294920	-0.264179	0.423881	0.041667	-0.039095	-0.013439	0.024435
60	15.162170	0.194427	-10.006200	-0.117720	1.412640	-0.264179	0.429851	0.016667	-0.041539	-0.010996	0.012217
61	15.291107	0.163391	-10.006200	-0.235440	1.177200	-0.249254	0.428358	0.066667	-0.028100	-0.018326	0.007330
62	15.420013	0.132324	-10.006200	-0.117720	1.412640	-0.267164	0.422388	0.103333	-0.036652	-0.014661	0.009774
63	15.548981	0.181305	-10.123920	-0.235440	1.530360	-0.271642	0.402985	0.088333	-0.037874	-0.009774	0.010996
64	15.677917	0.150269	-10.123920	-0.117720	1.530360	-0.271642	0.400000	0.010000	-0.032987	-0.015882	0.019548
65	15.806824	0.199188	-10.006200	-0.117720	1.294920	-0.274627	0.410448	0.050000	-0.036652	-0.009774	0.013439
66	15.935822	0.168213	-10.123920	-0.235440	1.412640	-0.273134	0.440299	0.046667	-0.037874	-0.014661	0.010996
67	16.064758	0.137177	-10.123920	0.000000	1.177200	-0.274627	0.373134	-0.021667	-0.042761	-0.012217	0.012217
68	16.193695	0.186127	-10.123920	0.000000	1.412640	-0.274627	0.416418	0.060000	-0.035430	-0.015882	0.015882
69	16.322632	0.155090	-10.241640	-0.235440	1.294920	-0.276119	0.443284	0.053333	-0.039095	-0.012217	0.017104
70	16.451569	0.204041	-10.123920	-0.235440	1.294920	-0.274627	0.425373	0.036667	-0.036652	-0.014661	0.007330
71	16.580505	0.173004	-10.123920	-0.117720	1.530360	-0.277612	0.429851	0.026667	-0.036652	-0.012217	0.017104
72	16.709442	0.141968	-10.006200	-0.235440	1.294920	-0.277612	0.411940	0.051667	-0.036652	-0.017104	0.014661
73	16.838440	0.190857	-10.006200	-0.117720	1.177200	-0.277612	0.431343	0.061667	-0.043982	-0.010996	0.001222
74	16.967407	0.159973	-10.006200	-0.117720	1.412640	-0.279104	0.382090	0.051667	-0.031765	-0.012217	0.018326
75	17.096344	0.126373	-10.123920	-0.117720	1.412640	-0.283582	0.386567	0.026667	-0.040317	-0.014661	0.015882
76	17.225250	0.177856	-10.006200	-0.353160	1.412640	-0.289552	0.434328	0.078333	-0.035430	-0.008552	0.013439
77	17.354187	0.146820	-10.006200	-0.117720	1.412640	-0.289552	0.428358	0.055000	-0.042761	-0.008552	0.017104
78	17.483124	0.195770	-10.006200	-0.470880	1.648080	-0.291045	0.398507	0.101667	-0.037874	-0.015882	0.017104
79	17.612030	0.164703	-10.241640	-0.117720	1.177200	-0.291045	0.434328	0.005000	-0.046426	-0.012217	0.009774
80	17.740967	0.133667	-10.006200	-0.235440	1.294920	-0.291045	0.443284	0.006667	-0.032987	-0.013439	0.004887
81	17.869904	0.182617	-10.006200	-0.235440	1.530360	-0.291045	0.428358	0.058333	-0.039095	-0.010996	0.008552
82	17.998871	0.151611	-10.123920	-0.235440	1.294920	-0.291045	0.377612	-0.006667	-0.040317	-0.015882	0.013439
83	18.127838	0.200592	-10.123920	0.000000	1.530360	-0.291045	0.414925	0.050000	-0.042761	-0.009774	0.021991
84	18.256744	0.169525	-10.241640	-0.117720	1.412640	-0.291045	0.441791	0.025000	-0.037874	-0.014661	0.013439
85	18.385681	0.138489	-10.123920	-0.117720	1.294920	-0.294030	0.428358	0.101667	-0.042761	-0.009774	0.013439
86	18.514648	0.187469	-10.241640	-0.117720	1.059480	-0.292537	0.388060	0.070000	-0.039095	-0.010996	0.009774
87	18.643616	0.156464	-10.123920	-0.117720	1.294920	-0.292537	0.428358	0.075000	-0.041539	-0.012217	0.013439
88	18.772552	0.205414	-9.888480	-0.117720	1.059480	-0.295522	0.434328	0.036667	-0.032987	-0.015882	0.009774
89	18.901520	0.174408	-10.006200	-0.235440	1.294920	-0.295522	0.404478	0.100000	-0.035430	-0.010996	0.013439
90	19.030548	0.143463	-10.123920	-0.117720	1.412640	-0.295522	0.428358	0.031667	-0.040317	-0.008552	0.012217
91	19.159485	0.190857	-10.123920	-0.117720	1.177200	-0.295522	0.402985	0.031667	-0.048869	-0.012217	0.020769
92	19.288452	0.161407	-10.006200	-0.117720	1.294920	-0.295522	0.402985	0.076667	-0.036652	-0.009774	0.012217
93	19.417450	0.130432	-10.123920	-0.117720	1.177200	-0.300000	0.435821	0.061667	-0.037874	-0.007330	0.009774
94	19.546417	0.179413	-10.006200	-0.117720	1.294920	-0.298507	0.416418	0.015000	-0.039095	-0.012217	0.015882
95	19.675385	0.148407	-10.123920	-0.117720	1.294920	-0.300000	0.389552	0.091667	-0.039095	-0.010996	0.010996
96	19.804321	0.197357	-10.006200	-0.353160	1.294920	-0.301493	0.435821	0.053333	-0.041539	-0.008552	0.012217
97	19.933228	0.166290	-10.241640	0.000000	1.412640	-0.301493	0.411940	0.086667	-0.036652	-0.012217	0.013439
98	20.062195	0.135284	-10.006200	-0.117720	1.412640	-0.302985	0.405970	0.038333	-0.043982	-0.008552	0.014661
99	20.191162	0.184265	-10.006200	-0.235440	1.412640	-0.302985	0.420896	0.091667	-0.036652	-0.013439	0.015882
100	20.320099	0.153229	-10.123920	-0.117720	1.648080	-0.304478	0.411940	0.073333	-0.043982	-0.010996	0.015882
101	20.449036	0.202179	-9.888480	-0.353160	1.530360	-0.305970	0.361194	0.108333	-0.036652	-0.015882	0.013439
102	20.578003	0.171173	-10.006200	-0.235440	1.294920	-0.307463	0.405970	0.040000	-0.047647	-0.014661	0.017104
103	20.706970	0.140167	-10.006200	-0.235440	1.294920	-0.305970	0.413433	0.056667	-0.034208	-0.014661	0.012217
104	20.835938	0.189148	-10.123920	-0.353160	1.059480	-0.307463	0.429851	0.068333	-0.034208	-0.017104	0.009774
105	20.964935	0.158173	-10.006200	-0.117720	1.294920	-0.305970	0.437313	0.065000	-0.043982	-0.014661	0.014661
106	21.093903	0.126373	-10.123920	-0.117720	1.177200	-0.304478	0.405970	0.040000	-0.035430	-0.017104	0.014661
107	21.222839	0.176117	-10.123920	-0.117720	1.294920	-0.307463	0.419403	0.033333	-0.040317	-0.012217	0.018326
108	21.351807	0.145111	-10.006200	-0.117720	1.530360	-0.305970	0.413433	-0.003333	-0.040317	-0.013439	0.017104
109	21.480774	0.194092	-10.123920	-0.235440	1.294920	-0.307463	0.434328	0.091667	-0.037874	-0.012217	0.010996
110	21.609772	0.163116	-10.006200	0.000000	1.294920	-0.307463	0.431343	0.105000	-0.041539	-0.012217	0.015882
111	21.738739	0.132111	-10.006200	-0.117720	1.294920	-0.307463	0.388060	0.046667	-0.043982	-0.012217	0.014661
112	21.867737	0.181122	-10.123920	-0.117720	0.941760	-0.314925	0.395522	0.046667	-0.039095	-0.019548	0.008552
113	21.996704	0.150116	-10.123920	-0.117720	1.294920	-0.371642	0.452239	0.215000	-0.021991	-0.013439	0.009774
114	22.125641	0.199066	-10.241640	0.000000	0.470880	-3.416418	-0.185075	-3.320000	0.002443	-0.007330	0.002443
115	22.254578	0.168030	-9.888480	-0.117720	0.235440	-2.259701	1.226866	-7.621667	0.118508	-0.002443	-0.008552
116	22.383545	0.137024	-10.123920	0.000000	0.353160	2.265672	-1.962687	-0.013333	0.153938	-0.001222	-0.009774
117	22.512512	0.186005	-9.888480	0.117720	0.353160	2.398507	-2.732836	-0.355000	0.238237	0.008552	-0.012217
118	22.641479	0.154999	-10.123920	0.000000	-0.235440	2.420896	-2.861194	-0.356667	0.359189	0.008552	-0.029322
119	22.770477	0.204010	-10.123920	0.235440	0.706320	2.423881	-2.864179	-0.346667	0.438601	0.020769	-0.029322
120	22.899475	0.173035	-10.241640	0.470880	0.117720	2.426866	-2.846269	-0.326667	0.510683	0.028100	-0.043982
121	23.028442	0.142029	-10.123920	0.824040	0.941760	2.428358	-2.814925	-0.313333	0.548557	0.030543	-0.035430
122	23.157440	0.190918	-10.123920	0.941760	1.648080	2.428358	-2.777612	-0.305000	0.533896	0.024435	-0.036652
123	23.287415	0.161041	-10.006200	0.706320	2.118960	2.420896	-2.741791	-0.298333	0.472810	0.024435	-0.031765
124	23.415344	0.128998	-10.006200	0.353160	2.354400	2.411940	-2.708955	-0.298333	0.401949	0.014661	-0.018326
125	23.544281	0.177948	-9.888480	0.117720	2.236680	2.410448	-2.686567	-0.305000	0.304211	0.008552	-0.015882
126	23.673218	0.146912	-10.006200	0.000000	2.118960	2.404478	-2.667164	-0.311667	0.234572	0.000000	-0.004887
127	23.802185	0.195892	-10.006200	-0.235440	2.118960	2.397015	-2.649254	-0.316667	0.155160	-0.004887	0.001222
128	23.931091	0.164825	-10.123920	0.000000	1.765800	2.395522	-2.638806	-0.321667	0.112399	0.000000	0.002443
129	24.060028	0.133789	-10.006200	0.000000	1.530360	2.395522	-2.632836	-0.325000	0.090408	-0.008552	0.004887
130	24.188965	0.182739	-10.123920	-0.117720	1.648080	2.391045	-2.623881	-0.331667	0.076969	-0.006109	0.008552
131	24.317902	0.151703	-10.123920	-0.117720	1.648080	2.385075	-2.617910	-0.333333	0.059865	-0.009774	0.003665
132	24.446808	0.200623	-10.006200	0.000000	1.530360	2.388060	-2.614925	-0.338333	0.032987	-0.007330	0.002443
133	24.575775	0.169617	-10.241640	-0.117720	1.530360	2.385075	-2.610448	-0.340000	0.026878	-0.008552	0.004887
134	24.704712	0.138580	-10.006200	-0.117720	1.530360	2.386567	-2.605970	-0.343333	0.012217	-0.009774	0.010996
135	24.833679	0.187561	-10.241640	-0.117720	1.294920	2.380597	-2.602985	-0.346667	0.010996	-0.008552	0.007330
136	24.962616	0.156525	-10.123920	-0.117720	1.530360	2.385075	-2.602985	-0.343333	-0.017104	-0.010996	0.008552
137	25.091553	0.205475	-10.006200	0.000000	1.412640	2.383582	-2.602985	-0.350000	-0.024435	-0.010996	0.007330
138	25.220520	0.174469	-10.123920	-0.235440	1.412640	2.385075	-2.600000	-0.348333	-0.020769	-0.013439	0.009774
139	25.349457	0.143433	-10.006200	-0.117720	1.412640	2.382090	-2.598507	-0.350000	-0.007330	-0.014661	0.009774
140	25.478394	0.190826	-10.123920	-0.117720	1.412640	2.382090	-2.595522	-0.346667	-0.007330	-0.013439	0.010996
141	25.607330	0.161346	-10.006200	-0.235440	1.059480	2.380597	-2.594030	-0.353333	-0.009774	-0.009774	0.010996
142	25.736237	0.130280	-10.123920	-0.117720	1.412640	2.382090	-2.592537	-0.355000	0.001222	-0.010996	0.013439
143	25.865204	0.179260	-10.006200	-0.235440	1.177200	2.382090	-2.588060	-0.358333	-0.004887	-0.010996	0.006109
144	25.994110	0.148193	-10.123920	0.000000	1.294920	2.382090	-2.589552	-0.358333	-0.010996	-0.007330	0.006109
145	26.123047	0.197144	-9.888480	0.000000	1.412640	2.379104	-2.589552	-0.358333	-0.002443	-0.008552	0.013439
146	26.251984	0.166107	-10.123920	-0.235440	1.177200	2.380597	-2.586567	-0.360000	-0.006109	-0.010996	0.013439
147	26.380920	0.135071	-10.123920	0.000000	1.294920	2.380597	-2.583582	-0.361667	-0.010996	-0.009774	0.014661
148	26.509857	0.184021	-10.006200	-0.117720	1.294920	2.379104	-2.582090	-0.363333	-0.018326	-0.010996	0.013439
149	26.638824	0.153015	-10.123920	0.000000	1.530360	2.379104	-2.583582	-0.368333	-0.015882	-0.006109	0.010996
150	26.767761	0.201965	-10.006200	-0.235440	1.648080	2.379104	-2.580597	-0.368333	-0.057421	-0.008552	0.015882
151	26.896698	0.170929	-10.241640	-0.117720	1.177200	2.379104	-2.577612	-0.368333	-0.052534	-0.009774	0.014661
152	27.025665	0.139923	-10.123920	-0.117720	1.177200	2.382090	-2.576119	-0.368333	-0.028100	-0.013439	0.008552
153	27.154572	0.188843	-10.123920	0.000000	1.765800	2.379104	-2.579104	-0.366667	-0.037874	-0.015882	0.017104
154	27.283539	0.157837	-10.241640	0.000000	1.177200	2.382090	-2.579104	-0.368333	-0.040317	-0.018326	0.010996
155	27.412506	0.126373	-10.241640	-0.117720	1.412640	2.379104	-2.577612	-0.370000	-0.040317	-0.014661	0.013439
156	27.541473	0.175812	-10.241640	-0.117720	1.294920	2.379104	-2.580597	-0.366667	-0.035430	-0.008552	0.009774
157	27.670380	0.144745	-9.888480	-0.353160	1.648080	2.379104	-2.582090	-0.368333	-0.048869	-0.013439	0.015882
158	27.799347	0.193726	-10.123920	-0.117720	1.294920	2.380597	-2.579104	-0.366667	-0.039095	-0.015882	0.018326
159	27.928284	0.162689	-10.006200	-0.235440	1.177200	2.382090	-2.579104	-0.368333	-0.031765	-0.010996	0.006109
160	28.057220	0.131653	-10.123920	0.000000	1.530360	2.377612	-2.580597	-0.370000	-0.030543	-0.013439	0.007330
161	28.186127	0.180573	-10.123920	-0.235440	1.412640	2.382090	-2.577612	-0.371667	-0.039095	-0.012217	0.012217
162	28.315033	0.149506	-10.006200	0.000000	1.412640	2.379104	-2.579104	-0.370000	-0.045204	-0.012217	0.006109
163	28.443939	0.198425	-10.006200	-0.117720	1.412640	2.380597	-2.580597	-0.368333	-0.046426	-0.008552	0.015882
164	28.572906	0.167419	-10.123920	-0.117720	1.412640	2.377612	-2.579104	-0.368333	-0.035430	-0.012217	0.019548
165	28.701843	0.136383	-10.241640	-0.117720	1.294920	2.379104	-2.580597	-0.366667	-0.047647	-0.009774	0.015882
166	28.830841	0.185394	-10.123920	0.000000	1.177200	2.380597	-2.580597	-0.368333	-0.040317	-0.014661	0.009774
167	28.959747	0.154327	-10.006200	-0.235440	1.294920	2.382090	-2.582090	-0.368333	-0.040317	-0.012217	0.015882
168	29.088715	0.203308	-10.006200	-0.117720	1.294920	2.377612	-2.574627	-0.370000	-0.042761	-0.009774	0.008552
169	29.217621	0.172241	-10.006200	-0.117720	1.177200	2.382090	-2.579104	-0.370000	-0.035430	-0.012217	0.015882
170	29.346558	0.141205	-10.123920	-0.117720	1.412640	2.377612	-2.579104	-0.366667	-0.041539	-0.019548	0.009774
171	29.475464	0.190125	-10.123920	-0.117720	1.530360	2.380597	-2.574627	-0.370000	-0.042761	-0.023213	0.013439
172	29.604401	0.159088	-10.006200	-0.117720	1.294920	2.379104	-2.579104	-0.370000	-0.045204	-0.014661	0.017104
173	29.733398	0.126404	-10.241640	-0.117720	1.648080	2.380597	-2.579104	-0.366667	-0.067195	-0.013439	0.024435
174	29.862335	0.177063	-10.241640	0.117720	2.118960	2.377612	-2.580597	-0.363333	-0.139277	-0.012217	0.028100
175	29.991272	0.146027	-10.123920	0.000000	2.236680	2.379104	-2.586567	-0.356667	-0.228464	-0.024435	0.040317
176	30.120239	0.195007	-10.006200	0.117720	2.354400	2.382090	-2.597015	-0.346667	-0.332311	-0.029322	0.046426
177	30.249207	0.164001	-10.006200	0.235440	2.236680	2.386567	-2.616418	-0.336667	-0.436158	-0.037874	0.051313
178	30.378174	0.132996	-10.123920	0.353160	2.236680	2.394030	-2.638806	-0.320000	-0.525344	-0.043982	0.054978
179	30.507141	0.181976	-10.006200	0.588600	2.236680	2.405970	-2.668657	-0.310000	-0.625526	-0.040317	0.067195
180	30.636108	0.150970	-10.006200	1.177200	2.118960	2.414925	-2.710448	-0.298333	-0.693943	-0.041539	0.075747
181	30.765137	0.200012	-10.123920	1.177200	1.294920	2.419403	-2.750746	-0.298333	-0.709825	-0.046426	0.069639
182	30.894165	0.169067	-10.123920	0.941760	0.941760	2.422388	-2.791045	-0.306667	-0.691499	-0.047647	0.069639
183	31.023132	0.138062	-10.123920	1.059480	0.588600	2.423881	-2.828358	-0.320000	-0.643852	-0.039095	0.062308
184	31.152161	0.187103	-10.241640	0.353160	0.000000	2.419403	-2.855224	-0.338333	-0.547335	-0.042761	0.056200
185	31.281128	0.156097	-10.359360	0.117720	-0.117720	2.413433	-2.862687	-0.350000	-0.430049	-0.032987	0.043982
186	31.410126	0.205109	-10.123920	0.117720	-0.117720	2.398507	-2.767164	-0.360000	-0.340863	-0.032987	0.031765
187	31.539124	0.174133	-10.241640	-0.117720	-0.588600	2.222388	-1.891045	0.048333	-0.210138	-0.019548	0.013439
188	31.668091	0.143127	-10.123920	-0.353160	0.000000	1.464179	0.276119	2.545000	-0.059865	-0.012217	0.012217
189	31.797058	0.190857	-10.123920	0.000000	1.530360	0.774627	1.247761	-7.621667	-0.063530	-0.013439	0.020769
190	31.926056	0.161133	-10.123920	-0.235440	1.177200	-3.392537	2.220896	-7.621667	-0.079412	-0.014661	0.013439
191	32.055023	0.130127	-10.241640	-0.117720	0.941760	-6.113433	0.219403	-7.621667	-0.063530	-0.014661	0.018326
192	32.183990	0.179108	-10.123920	-0.117720	0.235440	-0.473134	0.297015	0.400000	-0.024435	-0.056200	0.001222
193	32.312927	0.148071	-10.123920	0.000000	1.765800	-0.352239	0.434328	0.050000	-0.048869	-0.010996	0.021991
194	32.441925	0.197083	-10.123920	-0.117720	1.530360	-0.322388	0.385075	0.105000	-0.039095	-0.009774	0.009774
195	32.570892	0.166077	-10.123920	0.000000	1.412640	-0.332836	0.408955	0.070000	-0.037874	-0.006109	0.010996
196	32.699860	0.135071	-9.888480	-0.117720	1.294920	-0.337313	0.362687	0.068333	-0.042761	-0.012217	0.010996
197	32.828766	0.183990	-10.241640	-0.117720	1.294920	-0.335821	0.434328	0.016667	-0.035430	-0.008552	0.014661
198	32.957733	0.152985	-10.123920	0.000000	1.059480	-0.338806	0.408955	0.076667	-0.040317	-0.009774	0.006109
199	33.086700	0.201965	-10.241640	0.000000	1.177200	-0.337313	0.423881	0.085000	-0.041539	-0.014661	0.013439
200	33.215637	0.170929	-10.123920	-0.117720	1.294920	-0.338806	0.411940	0.116667	-0.043982	-0.012217	0.019548
201	33.344604	0.139923	-10.006200	0.000000	1.177200	-0.350746	0.434328	0.113333	-0.036652	-0.013439	0.007330
202	33.473572	0.188904	-10.123920	-0.235440	1.294920	-0.343284	0.367164	0.051667	-0.041539	-0.013439	0.020769
203	33.602539	0.157898	-10.006200	-0.235440	1.412640	-0.344776	0.438806	0.076667	-0.043982	-0.009774	0.010996
204	33.731506	0.126373	-10.006200	-0.117720	1.177200	-0.344776	0.364179	0.115000	-0.036652	-0.013439	0.018326
205	33.860474	0.175873	-10.123920	-0.235440	1.059480	-0.346269	0.411940	0.046667	-0.040317	-0.009774	0.013439
206	33.989410	0.144836	-10.123920	-0.117720	1.412640	-0.346269	0.437313	0.075000	-0.037874	-0.014661	0.017104
207	34.118378	0.193817	-10.123920	0.000000	1.530360	-0.346269	0.411940	0.096667	-0.036652	-0.019548	0.014661
208	34.247345	0.162811	-10.123920	0.000000	1.530360	-0.347761	0.395522	0.081667	-0.039095	-0.010996	0.007330
209	34.376312	0.131805	-10.123920	-0.117720	1.294920	-0.346269	0.438806	0.000000	-0.036652	-0.012217	0.015882
210	34.505280	0.180786	-10.123920	0.000000	1.294920	-0.347761	0.401493	0.090000	-0.039095	-0.008552	0.012217
211	34.634216	0.149750	-10.123920	-0.117720	1.530360	-0.349254	0.391045	0.028333	-0.034208	-0.013439	0.015882
212	34.763153	0.198700	-10.123920	0.000000	1.530360	-0.347761	0.413433	0.060000	-0.037874	-0.018326	0.017104
213	34.892090	0.167664	-10.006200	-0.117720	1.294920	-0.347761	0.426866	0.100000	-0.039095	-0.017104	0.010996
214	35.021057	0.136658	-10.123920	-0.235440	1.294920	-0.349254	0.401493	0.110000	-0.042761	-0.012217	0.013439
215	35.150024	0.185638	-10.123920	0.000000	1.412640	-0.350746	0.411940	0.050000	-0.035430	-0.009774	0.014661
216	35.278992	0.154633	-10.123920	-0.353160	1.294920	-0.350746	0.438806	0.070000	-0.041539	-0.020769	0.013439
217	35.407959	0.203613	-10.123920	-0.117720	1.412640	-0.350746	0.395522	0.050000	-0.043982	-0.014661	0.008552
218	35.536896	0.172577	-10.006200	0.000000	1.412640	-0.350746	0.346269	0.036667	-0.035430	-0.018326	0.018326
219	35.665863	0.141571	-10.123920	-0.117720	1.177200	-0.350746	0.392537	0.093333	-0.046426	-0.013439	0.013439
220	35.794800	0.190521	-10.006200	-0.117720	1.412640	-0.337313	0.419403	0.105000	-0.036652	-0.008552	0.017104
221	35.923798	0.159546	-10.241640	0.000000	1.294920	-0.353731	0.422388	0.073333	-0.040317	-0.012217	0.015882
222	36.052795	0.126404	-10.123920	0.000000	1.177200	-0.359701	0.385075	0.065000	-0.042761	-0.009774	0.010996
223	36.181763	0.177551	-10.123920	-0.117720	1.530360	-0.359701	0.446269	0.050000	-0.040317	-0.013439	0.017104
224	36.310699	0.146515	-10.123920	-0.117720	1.530360	-0.362687	0.441791	0.120000	-0.041539	-0.013439	0.019548
225	36.439636	0.195465	-10.123920	-0.117720	1.177200	-0.361194	0.431343	0.070000	-0.036652	-0.013439	0.013439
226	36.568634	0.164490	-10.123920	-0.353160	1.294920	-0.362687	0.417910	0.048333	-0.032987	-0.009774	0.010996
227	36.697632	0.133514	-10.123920	-0.117720	1.412640	-0.362687	0.405970	0.105000	-0.040317	-0.012217	0.012217
228	36.826569	0.182465	-10.006200	-0.235440	1.294920	-0.362687	0.450746	0.131667	-0.032987	-0.012217	0.018326
229	36.955566	0.151489	-10.123920	-0.117720	1.294920	-0.365672	0.420896	0.083333	-0.039095	-0.014661	0.012217
230	37.084564	0.200500	-10.006200	0.000000	1.177200	-0.367164	0.416418	0.065000	-0.037874	-0.012217	0.014661
231	37.213531	0.169495	-10.006200	-0.117720	1.412640	-0.365672	0.395522	0.105000	-0.041539	-0.013439	0.010996
232	37.342529	0.138519	-10.006200	-0.235440	1.294920	-0.367164	0.443284	0.063333	-0.043982	-0.014661	0.004887
233	37.471527	0.187531	-10.123920	-0.117720	1.294920	-0.368657	0.370149	0.123333	-0.042761	-0.013439	0.009774
234	37.600464	0.156494	-10.123920	-0.117720	1.412640	-0.373134	0.419403	0.130000	-0.036652	-0.015882	0.008552
235	37.729462	0.205505	-10.241640	-0.235440	1.294920	-0.380597	0.410448	0.058333	-0.041539	-0.007330	0.009774
236	37.858459	0.174530	-10.241640	-0.117720	1.530360	-0.397015	0.452239	0.158333	-0.045204	-0.013439	0.018326
237	37.987427	0.143524	-10.006200	-0.117720	-1.059480	-3.329851	0.638806	-3.543333	0.034208	-0.013439	0.000000
238	38.116333	0.190796	-10.123920	0.000000	1.177200	-2.217910	1.085075	-7.621667	0.062308	-0.001222	0.002443
239	38.245300	0.161438	-10.006200	-0.117720	1.177200	2.173134	-1.491045	0.215000	0.068417	-0.008552	0.002443
240	38.374268	0.130432	-10.241640	0.000000	0.588600	2.349254	-2.359701	-0.288333	0.111177	0.004887	-0.004887
241	38.503235	0.179413	-10.123920	-0.117720	-0.235440	2.408955	-2.704478	-0.366667	0.217468	-0.001222	-0.014661
242	38.632172	0.148376	-10.241640	0.117720	0.706320	2.420896	-2.798507	-0.358333	0.301767	0.013439	-0.028100
243	38.761169	0.197388	-10.123920	0.235440	0.117720	2.428358	-2.802985	-0.350000	0.381180	0.017104	-0.025656
244	38.890137	0.166382	-10.241640	0.353160	0.588600	2.434328	-2.792537	-0.333333	0.456927	0.018326	-0.035430
245	39.019135	0.135406	-10.241640	0.235440	0.706320	2.434328	-2.759701	-0.320000	0.499688	0.019548	-0.036652
246	39.148132	0.184418	-10.123920	0.470880	1.412640	2.434328	-2.731343	-0.308333	0.509462	0.023213	-0.035430
247	39.277069	0.153381	-10.006200	0.588600	1.765800	2.426866	-2.695522	-0.301667	0.492357	0.023213	-0.028100
248	39.406036	0.202362	-10.123920	0.353160	2.118960	2.422388	-2.662687	-0.301667	0.428827	0.017104	-0.023213
249	39.535004	0.171356	-9.888480	0.235440	2.118960	2.416418	-2.632836	-0.308333	0.349415	0.014661	-0.014661
250	39.663940	0.140320	-10.006200	0.117720	1.883520	2.408955	-2.610448	-0.315000	0.289550	0.007330	-0.012217
251	39.792908	0.189301	-10.123920	0.000000	1.883520	2.402985	-2.591045	-0.318333	0.223577	0.002443	-0.008552
252	39.921875	0.158295	-10.123920	0.000000	1.883520	2.402985	-2.577612	-0.325000	0.172264	-0.002443	0.000000
253	40.050812	0.126343	-10.123920	0.000000	1.648080	2.400000	-2.564179	-0.333333	0.139277	-0.002443	0.004887
254	40.179810	0.176270	-10.006200	0.000000	1.648080	2.394030	-2.558209	-0.336667	0.100182	-0.002443	0.002443
255	40.308777	0.145264	-10.241640	0.000000	1.648080	2.394030	-2.544776	-0.338333	0.072082	-0.006109	0.004887
256	40.437744	0.194244	-10.006200	-0.235440	1.530360	2.392537	-2.543284	-0.346667	0.050091	-0.008552	0.008552
257	40.566772	0.163300	-10.123920	-0.117720	1.412640	2.391045	-2.538806	-0.346667	0.042761	-0.009774	0.003665
258	40.695770	0.132324	-10.123920	0.000000	1.412640	2.391045	-2.534328	-0.353333	0.035430	-0.006109	0.006109
259	40.824738	0.181305	-10.123920	-0.235440	1.294920	2.391045	-2.529851	-0.358333	0.024435	-0.003665	0.010996
260	40.953735	0.150330	-10.241640	-0.117720	1.294920	2.386567	-2.529851	-0.358333	0.030543	-0.006109	0.002443
261	41.082672	0.199280	-10.123920	-0.117720	1.530360	2.386567	-2.522388	-0.366667	0.031765	-0.004887	0.010996
262	41.211639	0.168274	-10.123920	-0.235440	1.177200	2.386567	-2.519403	-0.366667	0.032987	-0.008552	0.003665
263	41.340637	0.137299	-9.888480	0.000000	2.118960	2.389552	-2.517910	-0.370000	-0.097738	-0.036652	0.000000
264	41.469574	0.186249	-10.123920	-0.235440	0.353160	2.386567	-2.517910	-0.370000	-0.029322	-0.021991	0.010996
265	41.598572	0.155273	-10.006200	-0.117720	1.765800	2.386567	-2.520896	-0.371667	0.004887	-0.013439	0.008552
266	41.727539	0.204254	-9.770760	0.117720	2.118960	2.386567	-2.520896	-0.373333	-0.058643	-0.019548	0.002443
267	41.856506	0.173248	-10.006200	-0.117720	0.824040	2.385075	-2.516418	-0.370000	0.021991	-0.017104	0.003665
268	41.985535	0.142303	-10.594800	-0.117720	2.001240	2.388060	-2.517910	-0.373333	0.036652	0.013439	0.012217
269	42.114532	0.190918	-10.123920	-0.117720	1.765800	2.388060	-2.516418	-0.373333	-0.068417	-0.020769	0.021991
270	42.244232	0.161041	-9.888480	0.000000	1.765800	2.386567	-2.514925	-0.373333	-0.032987	-0.008552	0.015882
271	42.372467	0.129303	-10.006200	-0.117720	1.059480	2.382090	-2.517910	-0.373333	-0.021991	-0.012217	0.008552
272	42.501434	0.178284	-10.006200	-0.117720	1.059480	2.383582	-2.514925	-0.371667	-0.029322	-0.021991	0.013439
273	42.630463	0.147339	-9.888480	-0.117720	1.294920	2.386567	-2.519403	-0.371667	-0.032987	-0.014661	0.007330
274	42.759430	0.196320	-10.006200	-0.117720	1.059480	2.388060	-2.516418	-0.371667	-0.043982	-0.010996	0.006109
275	42.888428	0.165344	-10.123920	-0.235440	1.412640	2.388060	-2.516418	-0.373333	-0.051313	-0.012217	0.013439
276	43.017426	0.134369	-10.006200	-0.117720	1.412640	2.388060	-2.513433	-0.371667	-0.041539	-0.012217	0.013439
277	43.146393	0.183350	-10.006200	-0.117720	1.412640	2.386567	-2.517910	-0.373333	-0.041539	-0.014661	0.010996
278	43.275330	0.152313	-10.123920	-0.235440	1.177200	2.385075	-2.516418	-0.371667	-0.043982	-0.009774	0.004887
279	43.404297	0.201294	-10.006200	-0.117720	1.412640	2.385075	-2.516418	-0.373333	-0.036652	-0.017104	0.015882
280	43.533264	0.170288	-10.006200	-0.117720	1.177200	2.386567	-2.519403	-0.371667	-0.041539	-0.009774	0.015882
281	43.662231	0.139282	-10.123920	0.000000	1.412640	2.385075	-2.517910	-0.370000	-0.037874	-0.014661	0.019548
282	43.791168	0.188232	-10.123920	-0.235440	1.294920	2.386567	-2.514925	-0.373333	-0.045204	-0.012217	0.014661
283	43.920135	0.157227	-10.006200	-0.117720	1.177200	2.389552	-2.514925	-0.373333	-0.040317	-0.017104	0.013439
284	44.049072	0.206177	-10.123920	-0.117720	1.294920	2.382090	-2.514925	-0.371667	-0.040317	-0.017104	0.015882
285	44.178040	0.175171	-10.241640	0.000000	1.294920	2.389552	-2.516418	-0.371667	-0.036652	-0.009774	0.008552
286	44.307007	0.144165	-10.006200	-0.235440	1.294920	2.386567	-2.516418	-0.373333	-0.032987	-0.012217	0.012217
287	44.435974	0.190857	-10.123920	-0.117720	1.294920	2.385075	-2.516418	-0.371667	-0.046426	-0.010996	0.008552
288	44.564911	0.162109	-10.241640	0.000000	1.648080	2.385075	-2.508955	-0.371667	-0.059865	-0.009774	0.021991
289	44.693817	0.131042	-10.006200	0.000000	2.589840	2.389552	-2.514925	-0.370000	-0.160047	-0.024435	0.031765
290	44.822754	0.179993	-10.006200	0.000000	2.707560	2.391045	-2.526866	-0.358333	-0.289550	-0.028100	0.045204
291	44.951752	0.149017	-10.006200	0.117720	2.118960	2.391045	-2.538806	-0.345000	-0.372628	-0.030543	0.045204
292	45.080719	0.197998	-10.006200	0.235440	2.236680	2.397015	-2.561194	-0.335000	-0.447153	-0.036652	0.054978
293	45.209686	0.166992	-10.006200	0.235440	1.883520	2.400000	-2.582090	-0.325000	-0.509462	-0.041539	0.054978
294	45.338684	0.136017	-10.123920	0.353160	1.765800	2.410448	-2.611940	-0.310000	-0.559553	-0.036652	0.062308
295	45.467682	0.185028	-10.123920	0.588600	1.648080	2.414925	-2.646269	-0.305000	-0.598648	-0.039095	0.062308
296	45.596649	0.154022	-10.241640	0.941760	1.765800	2.423881	-2.680597	-0.301667	-0.624304	-0.041539	0.063530
297	45.725647	0.203033	-10.241640	1.059480	1.412640	2.428358	-2.719403	-0.305000	-0.634078	-0.045204	0.067195
298	45.854645	0.172058	-10.241640	1.059480	1.059480	2.432836	-2.752239	-0.320000	-0.634078	-0.046426	0.065973
299	45.983612	0.141052	-10.123920	0.824040	0.706320	2.429851	-2.786567	-0.336667	-0.597426	-0.043982	0.065973
300	46.112579	0.190033	-10.123920	0.470880	0.235440	2.425373	-2.801493	-0.353333	-0.518014	-0.037874	0.052534
301	46.241547	0.159027	-10.241640	0.000000	-0.588600	2.404478	-2.726866	-0.365000	-0.414167	-0.036652	0.036652
302	46.370514	0.126373	-10.241640	-0.117720	-1.412640	2.143284	-1.534328	0.255000	-0.230907	-0.019548	0.010996
303	46.499451	0.176971	-10.241640	0.000000	0.000000	-0.265672	2.082090	-7.621667	-0.070860	-0.013439	0.017104
304	46.628448	0.145996	-10.123920	-0.235440	1.294920	-4.307463	2.705970	-2.988333	-0.064752	-0.013439	0.009774
305	46.757416	0.194977	-10.006200	0.000000	1.648080	-6.113433	0.613433	-3.198333	-0.091630	-0.010996	0.021991
306	46.886383	0.163971	-9.535320	0.000000	-2.943000	-0.367164	0.443284	0.061667	-0.078191	-0.020769	0.008552
307	47.015411	0.133026	-10.006200	0.000000	1.412640	-0.389552	0.367164	0.108333	-0.042761	-0.012217	0.009774
308	47.144379	0.182007	-10.123920	0.000000	1.412640	-0.400000	0.413433	0.101667	-0.042761	-0.008552	0.013439
309	47.273376	0.151031	-9.888480	-0.235440	1.412640	-0.408955	0.420896	0.091667	-0.040317	-0.015882	0.014661
310	47.402313	0.199982	-10.123920	-0.117720	1.177200	-0.413433	0.404478	0.163333	-0.035430	-0.009774	0.014661
311	47.531219	0.168915	-10.006200	-0.117720	1.294920	-0.420896	0.428358	0.086667	-0.032987	-0.013439	0.012217
312	47.660217	0.137939	-10.241640	-0.117720	1.294920	-0.414925	0.429851	0.136667	-0.035430	-0.009774	0.009774
313	47.789154	0.186890	-10.006200	-0.235440	1.177200	-0.413433	0.405970	0.113333	-0.037874	-0.010996	0.003665
314	47.918121	0.155884	-10.006200	-0.117720	1.412640	-0.413433	0.450746	0.083333	-0.031765	-0.014661	0.015882
315	48.047089	0.204865	-10.123920	0.000000	1.294920	-0.416418	0.388060	0.105000	-0.039095	-0.008552	0.010996
316	48.176086	0.173889	-10.123920	-0.117720	1.294920	-0.414925	0.374627	0.131667	-0.040317	-0.010996	0.014661
317	48.305084	0.142914	-10.006200	0.000000	1.294920	-0.413433	0.376119	0.065000	-0.042761	-0.013439	0.012217
318	48.434082	0.190887	-10.006200	-0.117720	1.294920	-0.413433	0.446269	0.156667	-0.040317	-0.010996	0.012217
319	48.563202	0.161072	-10.123920	-0.117720	1.648080	-0.414925	0.380597	0.153333	-0.040317	-0.010996	0.017104
320	48.692078	0.129974	-10.006200	-0.235440	1.412640	-0.417910	0.416418	0.116667	-0.030543	-0.017104	0.009774
321	48.821075	0.178986	-10.006200	0.000000	1.294920	-0.413433	0.426866	0.120000	-0.039095	-0.014661	0.008552
322	48.950073	0.148010	-10.241640	-0.117720	1.294920	-0.414925	0.379104	0.115000	-0.040317	-0.013439	0.014661
323	49.079071	0.197021	-10.123920	-0.117720	1.412640	-0.413433	0.367164	0.070000	-0.042761	-0.012217	0.015882
324	49.208008	0.165985	-10.006200	-0.117720	1.294920	-0.417910	0.438806	0.108333	-0.031765	-0.009774	0.014661
325	49.336975	0.134979	-10.006200	-0.117720	1.412640	-0.413433	0.417910	0.120000	-0.035430	-0.009774	0.017104
326	49.465942	0.183960	-10.006200	-0.235440	1.294920	-0.416418	0.402985	0.090000	-0.042761	-0.012217	0.010996
327	49.594940	0.152985	-10.006200	-0.117720	1.294920	-0.426866	0.332836	0.090000	-0.043982	-0.009774	0.019548
328	49.723969	0.202026	-10.006200	0.000000	1.412640	-0.428358	0.447761	0.148333	-0.037874	-0.013439	0.006109
329	49.852966	0.171051	-10.241640	-0.117720	1.177200	-0.459701	0.376119	0.218333	-0.001222	-0.007330	0.013439
330	49.981964	0.140076	-10.006200	-0.353160	0.824040	-3.459701	0.079104	1.803333	0.000000	-0.013439	0.002443
331	50.110962	0.189087	-10.123920	0.117720	0.588600	-6.113433	2.301493	-2.975000	0.052534	-0.004887	0.009774
332	50.239960	0.158112	-10.123920	0.000000	1.059480	1.902985	-0.576119	-3.636667	0.067195	-0.008552	-0.003665
333	50.368988	0.126404	-10.006200	-0.117720	0.588600	2.300000	-2.091045	-0.196667	0.102625	-0.002443	-0.006109
334	50.498047	0.176239	-10.241640	-0.117720	0.000000	2.395522	-2.597015	-0.353333	0.199142	0.002443	-0.013439
335	50.627045	0.145264	-10.123920	0.000000	0.117720	2.417910	-2.741791	-0.353333	0.305433	0.008552	-0.021991
336	50.756073	0.194305	-10.123920	0.235440	0.235440	2.419403	-2.756716	-0.335000	0.389732	0.014661	-0.032987
337	50.885101	0.163361	-10.123920	0.235440	0.824040	2.425373	-2.743284	-0.323333	0.423940	0.010996	-0.035430
338	51.014099	0.132385	-10.123920	0.235440	1.059480	2.425373	-2.717910	-0.310000	0.455705	0.020769	-0.034208
339	51.143097	0.181396	-10.241640	0.235440	1.177200	2.425373	-2.688060	-0.296667	0.477697	0.018326	-0.036652
340	51.272095	0.150421	-10.241640	0.470880	1.059480	2.426866	-2.656716	-0.293333	0.480140	0.017104	-0.029322
341	51.401062	0.199402	-10.123920	0.470880	1.412640	2.420896	-2.620896	-0.293333	0.458149	0.029322	-0.020769
342	51.530090	0.168457	-10.123920	0.353160	1.765800	2.410448	-2.591045	-0.290000	0.428827	0.015882	-0.028100
343	51.659088	0.137482	-10.241640	0.117720	2.001240	2.404478	-2.561194	-0.298333	0.392175	0.015882	-0.023213
344	51.788055	0.186462	-10.006200	0.117720	2.354400	2.397015	-2.535821	-0.310000	0.321315	0.013439	-0.014661
345	51.917053	0.155487	-10.006200	0.000000	2.236680	2.394030	-2.516418	-0.323333	0.226020	0.004887	-0.002443
346	52.046082	0.204529	-10.123920	0.000000	2.118960	2.392537	-2.502985	-0.328333	0.155160	0.000000	0.000000
347	52.175110	0.173584	-10.006200	0.000000	1.648080	2.385075	-2.497015	-0.331667	0.129503	-0.007330	-0.003665
348	52.304108	0.142609	-10.123920	-0.117720	1.412640	2.386567	-2.486567	-0.341667	0.127060	-0.001222	0.000000
349	52.433105	0.190918	-10.123920	0.000000	1.648080	2.379104	-2.479104	-0.350000	0.096517	-0.002443	0.006109
350	52.562500	0.161041	-10.123920	-0.117720	1.530360	2.385075	-2.468657	-0.356667	0.072082	-0.001222	-0.002443
351	52.691040	0.129608	-9.888480	-0.117720	3.060720	2.380597	-2.468657	-0.360000	-0.130725	-0.061087	0.000000
352	52.820007	0.178589	-10.006200	-0.235440	0.588600	2.380597	-2.470149	-0.355000	-0.052534	-0.025656	0.015882
353	52.949005	0.147614	-10.006200	0.000000	1.648080	2.383582	-2.471642	-0.356667	-0.004887	-0.007330	0.008552
354	53.077972	0.196594	-10.123920	-0.235440	0.941760	2.382090	-2.468657	-0.355000	0.007330	-0.001222	0.002443
355	53.206940	0.165588	-9.888480	-0.353160	2.001240	2.382090	-2.468657	-0.360000	-0.059865	-0.032987	0.004887
356	53.335938	0.134613	-10.241640	0.000000	2.001240	2.380597	-2.468657	-0.360000	-0.081856	-0.013439	0.024435
357	53.464966	0.183655	-10.241640	-0.353160	0.824040	2.380597	-2.470149	-0.361667	-0.069639	-0.017104	0.025656
358	53.593964	0.152679	-10.123920	-0.117720	1.177200	2.382090	-2.468657	-0.355000	-0.053756	-0.014661	0.019548
359	53.722961	0.201691	-10.006200	-0.117720	1.059480	2.383582	-2.467164	-0.358333	-0.032987	-0.008552	0.017104
360	53.851959	0.170715	-10.123920	-0.117720	0.706320	2.383582	-2.467164	-0.361667	-0.045204	-0.013439	0.006109
361	53.980988	0.139771	-10.006200	0.000000	1.648080	2.379104	-2.467164	-0.360000	-0.032987	-0.015882	0.018326
362	54.110016	0.188812	-10.123920	-0.117720	1.530360	2.385075	-2.465672	-0.361667	-0.037874	-0.009774	0.009774
363	54.238983	0.157806	-10.006200	-0.117720	1.412640	2.380597	-2.467164	-0.358333	-0.048869	-0.009774	0.013439
364	54.367950	0.126373	-10.359360	-0.117720	1.294920	2.380597	-2.470149	-0.356667	-0.043982	-0.008552	0.014661
365	54.496918	0.175781	-9.888480	0.000000	1.412640	2.382090	-2.468657	-0.360000	-0.030543	-0.014661	0.015882
366	54.625916	0.144806	-10.006200	0.000000	1.530360	2.382090	-2.471642	-0.358333	-0.043982	-0.008552	0.008552
367	54.754913	0.193817	-10.123920	0.000000	1.294920	2.383582	-2.467164	-0.356667	-0.047647	-0.007330	0.014661
368	54.883911	0.162842	-10.123920	-0.117720	1.294920	2.380597	-2.465672	-0.360000	-0.035430	-0.010996	0.013439
369	55.012878	0.131836	-10.123920	0.000000	1.177200	2.380597	-2.468657	-0.358333	-0.039095	-0.010996	0.009774
370	55.141815	0.180786	-10.123920	-0.117720	1.177200	2.380597	-2.465672	-0.361667	-0.042761	-0.010996	0.013439
371	55.270782	0.149780	-10.123920	0.000000	1.294920	2.380597	-2.468657	-0.360000	-0.040317	-0.013439	0.010996
372	55.399750	0.198761	-10.123920	-0.117720	1.530360	2.380597	-2.468657	-0.360000	-0.052534	-0.013439	0.019548
373	55.528717	0.167755	-10.123920	-0.117720	1.530360	2.383582	-2.467164	-0.358333	-0.076969	-0.017104	0.023213
374	55.657684	0.136749	-10.006200	0.000000	1.412640	2.382090	-2.471642	-0.353333	-0.072082	-0.014661	0.010996
375	55.786652	0.185730	-10.006200	0.000000	2.236680	2.380597	-2.473134	-0.353333	-0.149051	-0.018326	0.032987
376	55.915619	0.154724	-10.006200	0.000000	2.472120	2.382090	-2.483582	-0.343333	-0.263894	-0.026878	0.046426
377	56.044647	0.203766	-10.006200	0.000000	2.707560	2.386567	-2.494030	-0.336667	-0.371406	-0.032987	0.047647
378	56.173676	0.172821	-10.123920	0.117720	2.472120	2.392537	-2.510448	-0.320000	-0.477697	-0.031765	0.059865
379	56.302673	0.141846	-10.123920	0.353160	1.883520	2.398507	-2.537313	-0.308333	-0.537561	-0.040317	0.061087
380	56.431671	0.190857	-10.123920	0.824040	1.648080	2.405970	-2.568657	-0.298333	-0.581544	-0.042761	0.061087
381	56.560638	0.159851	-10.241640	0.588600	1.294920	2.416418	-2.602985	-0.295000	-0.585209	-0.045204	0.062308
382	56.689667	0.126434	-10.241640	0.824040	1.177200	2.419403	-2.638806	-0.293333	-0.571770	-0.040317	0.054978
383	56.818634	0.177887	-10.359360	0.470880	0.824040	2.423881	-2.671642	-0.298333	-0.543670	-0.041539	0.058643
384	56.947632	0.146912	-10.241640	0.235440	0.941760	2.425373	-2.700000	-0.306667	-0.516792	-0.036652	0.054978
385	57.076630	0.195923	-10.006200	0.353160	0.941760	2.423881	-2.731343	-0.316667	-0.481362	-0.037874	0.048869
386	57.205627	0.164948	-10.123920	0.117720	0.588600	2.420896	-2.749254	-0.335000	-0.452040	-0.037874	0.045204
387	57.334625	0.133972	-10.241640	0.117720	0.824040	2.414925	-2.752239	-0.340000	-0.401949	-0.026878	0.046426
388	57.463593	0.182953	-10.241640	0.000000	0.470880	2.401493	-2.686567	-0.356667	-0.350637	-0.030543	0.037874
389	57.592560	0.151947	-10.241640	-0.117720	-0.235440	2.261194	-1.998507	-0.120000	-0.254120	-0.028100	0.019548
390	57.721527	0.200928	-10.241640	-0.117720	-0.353160	0.862687	1.140299	-2.853333	-0.098960	-0.012217	0.013439
391	57.850464	0.169891	-10.006200	0.000000	1.059480	-2.185075	2.886567	-7.621667	-0.063530	-0.012217	0.014661
392	57.979431	0.138885	-9.888480	-0.117720	1.530360	-6.113433	1.201493	2.496667	-0.092852	-0.017104	0.020769
393	58.108368	0.187836	-9.888480	-0.353160	1.177200	-0.465672	0.374627	0.201667	-0.042761	-0.015882	0.026878
394	58.237335	0.156830	-10.006200	-0.117720	2.825280	-0.444776	0.408955	0.118333	-0.041539	-0.009774	0.014661
395	58.366302	0.205811	-10.241640	-0.235440	1.412640	-0.423881	0.450746	0.080000	-0.039095	-0.012217	0.008552
396	58.495239	0.174774	-10.123920	-0.235440	1.412640	-0.450746	0.391045	0.168333	-0.037874	-0.014661	0.009774
397	58.624207	0.143768	-10.006200	0.000000	1.530360	-0.455224	0.380597	0.148333	-0.028100	-0.015882	0.010996
398	58.753174	0.190857	-10.123920	-0.117720	1.294920	-0.455224	0.417910	0.178333	-0.043982	-0.015882	0.012217
399	58.882141	0.161743	-10.006200	-0.235440	1.412640	-0.455224	0.362687	0.146667	-0.036652	-0.012217	0.013439
400	59.011108	0.130737	-10.241640	-0.117720	1.412640	-0.456716	0.392537	0.213333	-0.042761	-0.010996	0.018326
401	59.140076	0.179718	-10.006200	-0.117720	1.412640	-0.456716	0.365672	0.120000	-0.037874	-0.012217	0.010996
402	59.269043	0.148712	-10.006200	0.000000	1.412640	-0.455224	0.407463	0.155000	-0.032987	-0.009774	0.013439
403	59.398010	0.197693	-10.123920	-0.117720	1.177200	-0.455224	0.422388	0.146667	-0.042761	-0.010996	0.013439
404	59.527008	0.166718	-10.006200	-0.353160	1.412640	-0.453731	0.358209	0.166667	-0.040317	-0.014661	0.010996
405	59.655975	0.135712	-10.006200	0.000000	1.177200	-0.455224	0.411940	0.165000	-0.036652	-0.013439	0.015882
406	59.784943	0.184692	-10.241640	-0.117720	1.294920	-0.456716	0.398507	0.185000	-0.036652	-0.013439	0.017104
407	59.913910	0.153687	-10.006200	-0.117720	1.412640	-0.458209	0.368657	0.158333	-0.041539	-0.008552	0.019548
408	60.042908	0.202698	-10.123920	0.000000	1.177200	-0.440299	0.392537	0.190000	-0.040317	-0.009774	0.009774
409	60.171906	0.171722	-10.006200	-0.117720	1.530360	-0.455224	0.426866	0.186667	-0.042761	-0.009774	0.014661
410	60.300873	0.140717	-10.123920	-0.117720	1.412640	-0.455224	0.401493	0.155000	-0.037874	-0.014661	0.014661
411	60.429871	0.189728	-10.123920	-0.117720	1.177200	-0.455224	0.397015	0.196667	-0.041539	-0.008552	0.010996
412	60.558868	0.158752	-10.123920	-0.117720	1.177200	-0.455224	0.411940	0.160000	-0.043982	-0.014661	0.012217
413	60.687836	0.126373	-10.123920	-0.117720	1.294920	-0.456716	0.410448	0.135000	-0.040317	-0.015882	0.015882
414	60.816803	0.176727	-10.123920	-0.117720	1.177200	-0.458209	0.368657	0.193333	-0.041539	-0.013439	0.007330
415	60.945801	0.145752	-10.006200	0.000000	1.177200	-0.459701	0.426866	0.180000	-0.045204	-0.009774	0.018326
416	61.074768	0.194733	-10.123920	-0.117720	1.294920	-0.461194	0.386567	0.266667	-0.042761	-0.012217	0.014661
417	61.203735	0.163727	-10.006200	0.000000	1.294920	-0.467164	0.371642	0.166667	-0.040317	-0.014661	0.019548
418	61.332733	0.132751	-10.123920	-0.117720	1.294920	-0.468657	0.362687	0.116667	-0.040317	-0.012217	0.014661
419	61.461700	0.181732	-10.241640	0.000000	1.294920	-0.467164	0.332836	0.210000	-0.040317	-0.010996	0.006109
420	61.590698	0.150757	-10.123920	-0.235440	1.294920	-0.467164	0.374627	0.150000	-0.039095	-0.014661	0.009774
421	61.719696	0.199768	-10.241640	-0.117720	1.412640	-0.473134	0.382090	0.181667	-0.037874	-0.008552	0.015882
422	61.848633	0.168732	-10.241640	0.000000	1.530360	-0.485075	0.359701	0.241667	-0.040317	-0.008552	0.007330
423	61.977631	0.137756	-10.006200	-0.117720	1.177200	-0.541791	0.361194	0.340000	-0.031765	-0.012217	0.003665
424	62.106598	0.186737	-10.123920	-0.117720	0.588600	-3.468657	0.128358	1.605000	-0.002443	-0.013439	0.003665
425	62.235596	0.155762	-10.241640	0.000000	0.353160	-6.113433	2.432836	-2.883333	0.054978	-0.003665	0.000000
426	62.364594	0.204773	-10.241640	-0.117720	0.824040	1.888060	-0.594030	-3.678333	0.075747	-0.007330	0.000000
427	62.493530	0.173737	-10.241640	-0.117720	0.588600	2.298507	-2.138806	-0.230000	0.113621	-0.001222	-0.009774
428	62.622498	0.142731	-10.006200	0.000000	-0.235440	2.386567	-2.604478	-0.350000	0.213803	-0.003665	-0.014661
429	62.751465	0.190857	-10.123920	0.000000	0.000000	2.405970	-2.719403	-0.343333	0.311541	0.009774	-0.024435
430	62.880768	0.161041	-10.123920	0.117720	0.706320	2.408955	-2.735821	-0.328333	0.375071	0.007330	-0.024435
431	63.009369	0.129669	-10.123920	0.235440	0.941760	2.414925	-2.714925	-0.315000	0.395841	0.017104	-0.028100
432	63.138336	0.178650	-10.241640	0.117720	0.941760	2.419403	-2.691045	-0.303333	0.433714	0.012217	-0.031765
433	63.267303	0.147644	-10.241640	0.353160	1.530360	2.420896	-2.664179	-0.290000	0.441045	0.019548	-0.034208
434	63.396271	0.196625	-10.123920	0.470880	1.177200	2.416418	-2.631343	-0.281667	0.443488	0.018326	-0.028100
435	63.525238	0.165619	-10.006200	0.353160	1.765800	2.410448	-2.602985	-0.285000	0.431271	0.020769	-0.024435
436	63.654175	0.134583	-10.006200	0.117720	1.765800	2.404478	-2.576119	-0.285000	0.389732	0.017104	-0.021991
437	63.783142	0.183563	-10.123920	0.235440	1.765800	2.398507	-2.544776	-0.291667	0.345750	0.004887	-0.019548
438	63.912140	0.152588	-10.123920	0.235440	2.118960	2.391045	-2.523881	-0.298333	0.280998	0.015882	-0.010996
439	64.041138	0.201599	-10.006200	0.000000	2.118960	2.389552	-2.501493	-0.306667	0.230907	0.007330	-0.003665
440	64.170166	0.170654	-9.888480	0.000000	2.001240	2.383582	-2.494030	-0.313333	0.174707	0.000000	-0.003665
441	64.299164	0.139679	-10.123920	0.000000	1.883520	2.377612	-2.482090	-0.321667	0.124617	-0.001222	-0.006109
442	64.428162	0.188690	-10.006200	0.000000	1.765800	2.377612	-2.474627	-0.325000	0.076969	-0.004887	0.009774
443	64.557190	0.157745	-9.888480	0.000000	1.530360	2.374627	-2.465672	-0.331667	0.054978	-0.007330	0.002443
444	64.686188	0.126404	-10.006200	-0.117720	1.412640	2.376119	-2.461194	-0.330000	0.043982	-0.009774	0.002443
445	64.815186	0.175781	-10.006200	0.000000	1.294920	2.373134	-2.456716	-0.338333	0.035430	-0.008552	0.007330
446	64.944183	0.144806	-10.006200	0.000000	1.412640	2.373134	-2.456716	-0.341667	0.021991	-0.007330	0.008552
447	65.073181	0.193817	-10.006200	-0.117720	1.294920	2.379104	-2.447761	-0.346667	0.030543	-0.010996	0.002443
448	65.202209	0.162872	-10.123920	-0.117720	1.412640	2.376119	-2.444776	-0.346667	0.015882	-0.006109	0.013439
449	65.331207	0.131897	-10.123920	-0.117720	2.118960	2.374627	-2.440299	-0.355000	-0.074526	-0.013439	0.015882
450	65.460205	0.180908	-10.123920	-0.353160	-0.117720	2.370149	-2.447761	-0.351667	-0.013439	-0.024435	0.006109
451	65.589233	0.149963	-10.123920	0.000000	1.530360	2.376119	-2.446269	-0.353333	-0.073304	-0.012217	0.020769
452	65.718231	0.198975	-10.241640	-0.235440	1.765800	2.374627	-2.441791	-0.353333	-0.026878	-0.010996	0.020769
453	65.847260	0.168030	-9.888480	0.000000	1.177200	2.376119	-2.441791	-0.356667	-0.032987	-0.014661	0.023213
454	65.976257	0.137054	-10.123920	-0.117720	1.177200	2.370149	-2.447761	-0.350000	-0.036652	-0.019548	0.015882
455	66.105255	0.186066	-10.241640	-0.117720	1.294920	2.371642	-2.444776	-0.353333	-0.030543	-0.012217	0.020769
456	66.234253	0.155090	-10.006200	-0.117720	1.294920	2.371642	-2.444776	-0.353333	-0.036652	-0.008552	0.014661
457	66.363281	0.204132	-10.123920	-0.353160	1.177200	2.374627	-2.441791	-0.355000	-0.037874	-0.012217	0.006109
458	66.492279	0.173157	-10.123920	-0.235440	1.294920	2.370149	-2.443284	-0.353333	-0.034208	-0.010996	0.010996
459	66.621307	0.142212	-10.241640	-0.117720	1.294920	2.374627	-2.444776	-0.355000	-0.040317	-0.010996	0.006109
460	66.750336	0.190948	-10.006200	-0.117720	1.177200	2.371642	-2.446269	-0.355000	-0.031765	-0.010996	0.009774
461	66.880096	0.161041	-10.123920	-0.117720	1.294920	2.374627	-2.446269	-0.353333	-0.036652	-0.010996	0.008552
462	67.008362	0.129333	-10.006200	-0.117720	1.412640	2.373134	-2.443284	-0.355000	-0.035430	-0.012217	0.019548
463	67.137390	0.178375	-10.123920	-0.117720	1.530360	2.371642	-2.441791	-0.353333	-0.041539	-0.013439	0.017104
464	67.266418	0.147430	-10.123920	-0.235440	1.412640	2.374627	-2.443284	-0.353333	-0.039095	-0.013439	0.008552
465	67.395416	0.196442	-10.006200	-0.117720	1.530360	2.371642	-2.441791	-0.351667	-0.034208	-0.010996	0.010996
466	67.524445	0.165497	-10.123920	-0.117720	1.177200	2.371642	-2.443284	-0.350000	-0.043982	-0.009774	0.017104
467	67.653442	0.134521	-10.006200	0.000000	2.001240	2.371642	-2.444776	-0.350000	-0.086743	-0.012217	0.029322
468	67.782501	0.183594	-10.123920	-0.235440	2.472120	2.371642	-2.446269	-0.346667	-0.168599	-0.023213	0.032987
469	67.911530	0.152649	-10.006200	0.000000	2.236680	2.376119	-2.456716	-0.340000	-0.257785	-0.025656	0.039095
470	68.040558	0.201691	-10.123920	0.000000	2.118960	2.374627	-2.464179	-0.326667	-0.348193	-0.032987	0.042761
471	68.169586	0.170746	-10.123920	0.117720	2.118960	2.377612	-2.485075	-0.313333	-0.405615	-0.029322	0.050091
472	68.298584	0.139771	-9.888480	0.235440	2.001240	2.389552	-2.505970	-0.305000	-0.461814	-0.032987	0.053756
473	68.427612	0.188812	-10.006200	0.117720	1.530360	2.392537	-2.535821	-0.295000	-0.498466	-0.037874	0.058643
474	68.556610	0.157837	-10.006200	0.235440	1.648080	2.400000	-2.562687	-0.290000	-0.527788	-0.036652	0.051313
475	68.685577	0.126373	-10.123920	0.588600	1.648080	2.404478	-2.597015	-0.281667	-0.552222	-0.037874	0.061087
476	68.814606	0.175873	-10.006200	0.470880	1.530360	2.413433	-2.626866	-0.286667	-0.574213	-0.037874	0.062308
477	68.943573	0.144867	-10.123920	0.470880	1.294920	2.416418	-2.661194	-0.293333	-0.580322	-0.045204	0.057421
478	69.072571	0.193878	-10.006200	0.470880	1.177200	2.414925	-2.692537	-0.305000	-0.565661	-0.039095	0.059865
479	69.201538	0.162872	-10.241640	0.353160	0.353160	2.414925	-2.719403	-0.318333	-0.526566	-0.037874	0.048869
480	69.330505	0.131866	-10.241640	0.353160	0.470880	2.407463	-2.728358	-0.331667	-0.466701	-0.034208	0.047647
481	69.459473	0.180847	-10.241640	0.117720	0.235440	2.391045	-2.671642	-0.348333	-0.394619	-0.035430	0.037874
482	69.588440	0.149841	-10.006200	-0.117720	-0.824040	2.202985	-1.805970	-0.018333	-0.263894	-0.024435	0.020769
483	69.717468	0.198883	-10.241640	-0.117720	-0.235440	0.047761	1.907463	-2.256667	-0.096517	-0.012217	0.007330
484	69.846436	0.167877	-10.123920	-0.117720	1.294920	-6.113433	-1.911940	-2.416667	-0.057421	-0.010996	0.018326
485	69.975433	0.136902	-10.006200	-0.117720	1.530360	-6.113433	-0.131343	-3.360000	-0.069639	-0.010996	0.019548
486	70.104431	0.185913	-9.888480	0.000000	-1.294920	-0.461194	0.386567	0.121667	-0.061087	-0.014661	0.010996
487	70.233459	0.154968	-10.241640	-0.235440	1.883520	-0.462687	0.371642	0.220000	-0.042761	-0.012217	0.023213
488	70.362488	0.204010	-10.123920	-0.117720	1.294920	-0.465672	0.328358	0.180000	-0.031765	-0.009774	0.009774
489	70.491486	0.173035	-10.123920	-0.117720	1.412640	-0.476119	0.352239	0.191667	-0.037874	-0.012217	0.015882
490	70.620453	0.142029	-10.123920	-0.117720	1.530360	-0.479104	0.422388	0.200000	-0.039095	-0.012217	0.006109
491	70.749481	0.190918	-10.123920	-0.117720	1.177200	-0.482090	0.405970	0.156667	-0.041539	-0.010996	0.010996
492	70.879425	0.161041	-10.123920	-0.117720	1.294920	-0.483582	0.368657	0.188333	-0.045204	-0.010996	0.007330
493	71.007477	0.129120	-10.006200	-0.117720	1.177200	-0.482090	0.371642	0.236667	-0.037874	-0.012217	0.001222
494	71.136444	0.178101	-10.006200	0.000000	1.294920	-0.483582	0.392537	0.195000	-0.036652	-0.008552	0.013439
495	71.265472	0.147156	-10.123920	0.000000	1.412640	-0.489552	0.344776	0.196667	-0.037874	-0.015882	0.012217
496	71.394440	0.196136	-10.241640	-0.235440	1.294920	-0.483582	0.443284	0.253333	-0.042761	-0.013439	0.021991
497	71.523438	0.165161	-10.241640	-0.117720	1.177200	-0.483582	0.346269	0.223333	-0.047647	-0.012217	0.019548
498	71.652435	0.134186	-10.006200	-0.353160	1.294920	-0.483582	0.376119	0.160000	-0.040317	-0.014661	0.004887
499	71.781403	0.183167	-10.123920	-0.235440	1.412640	-0.483582	0.362687	0.148333	-0.036652	-0.014661	0.015882
500	71.910400	0.152191	-10.123920	0.000000	1.177200	-0.482090	0.328358	0.211667	-0.032987	-0.017104	0.010996
501	72.039429	0.201233	-10.123920	-0.117720	1.412640	-0.482090	0.423881	0.208333	-0.041539	-0.010996	0.013439
502	72.168396	0.170227	-10.006200	0.000000	1.294920	-0.470149	0.374627	0.155000	-0.039095	-0.007330	0.017104
503	72.297394	0.139252	-10.123920	0.000000	1.177200	-0.492537	0.310448	0.261667	-0.040317	-0.008552	0.015882
504	72.426422	0.188293	-10.123920	-0.117720	0.588600	-0.965672	0.211940	0.851667	-0.008552	-0.018326	0.004887
505	72.555420	0.157318	-10.006200	-0.235440	0.235440	-6.113433	2.253731	-2.431667	0.054978	-0.010996	0.000000
506	72.684418	0.126343	-10.241640	-0.353160	0.706320	1.913433	-0.722388	-3.743333	0.098960	-0.008552	-0.002443
507	72.813385	0.175323	-10.359360	-0.117720	0.353160	2.323881	-2.304478	-0.290000	0.177151	0.000000	-0.012217
508	72.942352	0.144318	-10.241640	0.000000	-0.235440	2.392537	-2.676119	-0.350000	0.293215	-0.001222	-0.025656
509	73.071381	0.190918	-10.123920	0.117720	0.588600	2.402985	-2.731343	-0.335000	0.387289	0.015882	-0.025656
510	73.200409	0.162415	-10.241640	0.353160	0.941760	2.408955	-2.723881	-0.320000	0.422719	0.012217	-0.031765
511	73.329376	0.131409	-10.241640	0.353160	1.648080	2.413433	-2.700000	-0.306667	0.411723	0.020769	-0.021991
512	73.458374	0.180420	-10.006200	0.235440	1.883520	2.417910	-2.676119	-0.295000	0.356745	0.017104	-0.017104
513	73.587402	0.149475	-10.123920	0.000000	2.118960	2.414925	-2.653731	-0.290000	0.283441	0.012217	-0.013439
514	73.716461	0.198547	-10.123920	0.000000	2.354400	2.411940	-2.632836	-0.281667	0.210138	0.004887	0.003665
515	73.845490	0.167603	-10.123920	0.000000	2.589840	2.407463	-2.617910	-0.280000	0.112399	-0.004887	0.000000
516	73.974548	0.136688	-10.006200	-0.117720	2.236680	2.408955	-2.613433	-0.281667	0.012217	-0.007330	0.010996
517	74.103546	0.185699	-10.241640	0.000000	1.765800	2.404478	-2.613433	-0.283333	-0.046426	-0.015882	0.015882
518	74.232574	0.154755	-10.123920	-0.235440	1.412640	2.408955	-2.613433	-0.283333	-0.053756	-0.015882	0.010996
519	74.361603	0.203796	-10.123920	-0.117720	1.177200	2.408955	-2.608955	-0.281667	-0.046426	-0.013439	0.010996
520	74.490662	0.172882	-10.006200	0.000000	1.177200	2.407463	-2.613433	-0.285000	-0.042761	-0.010996	0.013439
521	74.619690	0.141937	-10.241640	-0.117720	1.294920	2.408955	-2.613433	-0.281667	-0.029322	-0.012217	0.009774
522	74.748688	0.190918	-10.123920	-0.117720	1.294920	2.405970	-2.611940	-0.281667	-0.031765	-0.010996	0.013439
523	74.877686	0.159973	-10.123920	-0.353160	1.412640	2.405970	-2.608955	-0.280000	-0.036652	-0.009774	0.014661
524	75.006653	0.126373	-10.123920	-0.235440	1.294920	2.408955	-2.607463	-0.283333	-0.037874	-0.015882	0.014661
525	75.135620	0.177948	-10.006200	-0.117720	1.294920	2.402985	-2.607463	-0.280000	-0.039095	-0.017104	0.009774
526	75.264587	0.146942	-10.123920	0.000000	1.059480	2.407463	-2.613433	-0.281667	-0.046426	-0.017104	0.009774
527	75.393555	0.195923	-10.241640	0.000000	1.412640	2.405970	-2.607463	-0.283333	-0.041539	-0.014661	0.018326
528	75.522522	0.164917	-10.241640	0.000000	1.294920	2.407463	-2.611940	-0.280000	-0.035430	-0.013439	0.012217
529	75.651520	0.133942	-10.123920	-0.117720	1.177200	2.405970	-2.611940	-0.281667	-0.036652	-0.009774	0.017104
530	75.780518	0.182953	-10.123920	-0.117720	1.294920	2.408955	-2.611940	-0.283333	-0.032987	-0.015882	0.009774
531	75.909515	0.151978	-10.006200	-0.235440	1.412640	2.405970	-2.608955	-0.281667	-0.043982	-0.013439	0.013439
532	76.038513	0.200989	-10.123920	0.000000	1.530360	2.407463	-2.611940	-0.281667	-0.056200	-0.012217	0.014661
533	76.167511	0.170013	-10.241640	-0.353160	2.236680	2.408955	-2.613433	-0.283333	-0.133169	-0.015882	0.030543
534	76.296539	0.139069	-10.006200	-0.117720	2.118960	2.407463	-2.620896	-0.280000	-0.217468	-0.024435	0.031765
535	76.425507	0.188049	-10.241640	0.000000	2.236680	2.408955	-2.632836	-0.286667	-0.304211	-0.032987	0.036652
536	76.554504	0.157074	-9.888480	0.000000	2.236680	2.411940	-2.650746	-0.290000	-0.383623	-0.026878	0.051313
537	76.683502	0.206085	-10.006200	0.117720	1.765800	2.413433	-2.671642	-0.295000	-0.431271	-0.036652	0.046426
538	76.812469	0.175079	-10.123920	0.353160	1.648080	2.411940	-2.697015	-0.303333	-0.459371	-0.040317	0.052534
539	76.941467	0.144104	-9.888480	0.117720	1.294920	2.411940	-2.717910	-0.315000	-0.467923	-0.035430	0.051313
540	77.070496	0.190918	-10.123920	0.117720	0.824040	2.408955	-2.729851	-0.331667	-0.444710	-0.035430	0.045204
541	77.199463	0.162140	-10.006200	0.000000	0.588600	2.397015	-2.713433	-0.343333	-0.387289	-0.031765	0.043982
542	77.328461	0.131165	-10.006200	-0.117720	-0.235440	2.320896	-2.325373	-0.280000	-0.312763	-0.028100	0.029322
543	77.457458	0.180176	-10.241640	0.000000	-0.824040	1.250746	0.523881	-3.400000	-0.136834	-0.017104	0.015882
544	77.586456	0.149200	-10.241640	-0.117720	0.706320	-1.629851	-1.614925	-7.621667	-0.051313	-0.009774	0.007330
545	77.715485	0.198242	-9.888480	-0.117720	1.530360	-4.337313	-6.113433	0.921667	-0.065973	-0.009774	0.009774
546	77.844482	0.167267	-10.241640	-0.117720	1.530360	-6.113433	0.910448	-2.945000	-0.083078	-0.012217	0.020769
547	77.973450	0.136261	-10.006200	-0.353160	1.294920	-0.517910	0.402985	0.306667	-0.045204	-0.015882	0.020769
548	78.102478	0.185303	-10.123920	-0.117720	1.648080	-0.488060	0.350746	0.218333	-0.046426	-0.009774	0.017104
549	78.231506	0.154358	-10.006200	0.235440	1.412640	-0.453731	0.380597	0.080000	-0.039095	-0.012217	0.015882
550	78.360535	0.203400	-10.123920	-0.117720	1.294920	-0.474627	0.371642	0.205000	-0.041539	-0.017104	0.015882
551	78.489532	0.172424	-10.123920	-0.117720	1.294920	-0.482090	0.347761	0.171667	-0.043982	-0.008552	0.018326
552	78.618530	0.141449	-10.006200	-0.235440	1.059480	-0.482090	0.444776	0.258333	-0.035430	-0.017104	0.008552
553	78.747498	0.190430	-10.123920	-0.117720	1.177200	-0.480597	0.350746	0.206667	-0.035430	-0.014661	0.009774
554	78.876526	0.159485	-10.123920	-0.117720	1.177200	-0.483582	0.392537	0.178333	-0.035430	-0.010996	0.007330
555	79.005554	0.126434	-10.006200	-0.235440	1.530360	-0.483582	0.400000	0.190000	-0.036652	-0.010996	0.017104
556	79.134552	0.177551	-9.770760	-0.117720	1.530360	-0.482090	0.350746	0.148333	-0.034208	-0.015882	0.008552
557	79.263580	0.146606	-10.123920	-0.117720	1.412640	-0.483582	0.374627	0.088333	-0.040317	-0.015882	0.008552
558	79.392578	0.195618	-10.241640	-0.235440	1.294920	-0.483582	0.343284	0.185000	-0.035430	-0.013439	0.014661
559	79.521576	0.164642	-10.006200	-0.117720	1.294920	-0.485075	0.373134	0.133333	-0.042761	-0.017104	0.018326
560	79.650543	0.133636	-10.123920	-0.117720	1.530360	-0.483582	0.371642	0.186667	-0.036652	-0.010996	0.009774
561	79.779541	0.182648	-10.123920	0.000000	1.294920	-0.483582	0.422388	0.131667	-0.034208	-0.013439	0.007330
562	79.908539	0.151672	-10.006200	0.000000	1.294920	-0.480597	0.349254	0.158333	-0.037874	-0.013439	0.015882
563	80.037567	0.200714	-10.006200	0.000000	1.294920	-0.485075	0.400000	0.183333	-0.037874	-0.014661	0.008552
564	80.166534	0.169708	-10.123920	-0.235440	1.294920	-0.482090	0.379104	0.273333	-0.035430	-0.017104	0.012217
565	80.295532	0.138733	-10.006200	-0.117720	1.412640	-0.483582	0.414925	0.210000	-0.040317	-0.015882	0.012217
566	80.424561	0.187775	-10.123920	-0.117720	1.177200	-0.483582	0.338806	0.233333	-0.040317	-0.010996	0.010996
567	80.553558	0.156799	-9.888480	-0.117720	1.177200	-0.483582	0.347761	0.175000	-0.037874	-0.010996	0.014661
568	80.682556	0.205811	-10.123920	-0.117720	1.530360	-0.485075	0.356716	0.268333	-0.040317	-0.003665	0.009774
569	80.811523	0.174805	-10.006200	-0.117720	1.177200	-0.483582	0.395522	0.185000	-0.037874	-0.012217	0.017104
570	80.940491	0.143799	-10.123920	-0.235440	1.294920	-0.483582	0.355224	0.178333	-0.036652	-0.010996	0.012217
571	81.069489	0.190887	-10.006200	-0.117720	1.412640	-0.483582	0.400000	0.271667	-0.041539	-0.013439	0.013439
572	81.198456	0.161804	-10.123920	-0.117720	1.412640	-0.482090	0.410448	0.173333	-0.031765	-0.003665	0.007330
573	81.327454	0.130829	-10.123920	-0.235440	1.177200	-0.483582	0.347761	0.218333	-0.035430	-0.013439	0.010996
574	81.456451	0.179840	-10.123920	0.000000	1.177200	-0.483582	0.397015	0.206667	-0.039095	-0.010996	0.009774
575	81.585419	0.148834	-10.241640	0.000000	1.294920	-0.485075	0.440299	0.175000	-0.041539	-0.010996	0.007330
576	81.714386	0.197815	-10.006200	-0.117720	1.294920	-0.482090	0.371642	0.276667	-0.041539	-0.007330	0.014661
577	81.843384	0.166840	-10.006200	0.000000	1.412640	-0.486567	0.419403	0.160000	-0.034208	-0.013439	0.014661
578	81.972382	0.135864	-10.123920	0.000000	1.530360	-0.482090	0.411940	0.203333	-0.037874	-0.009774	0.019548
579	82.101349	0.184845	-10.006200	-0.235440	1.530360	-0.489552	0.401493	0.188333	-0.042761	-0.013439	0.010996
580	82.230377	0.153900	-10.123920	-0.235440	1.294920	-0.483582	0.392537	0.203333	-0.032987	-0.012217	0.020769
581	82.359344	0.202881	-10.241640	-0.117720	1.294920	-0.483582	0.389552	0.166667	-0.042761	-0.009774	0.010996
582	82.488342	0.171906	-10.123920	0.000000	1.412640	-0.483582	0.337313	0.235000	-0.034208	-0.014661	0.012217
583	82.617310	0.140900	-10.241640	-0.117720	1.294920	-0.489552	0.364179	0.166667	-0.035430	-0.009774	0.017104
584	82.746277	0.189880	-10.006200	-0.117720	1.530360	-0.483582	0.316418	0.203333	-0.042761	-0.010996	0.014661
585	82.875275	0.158905	-10.123920	-0.117720	1.294920	-0.492537	0.371642	0.246667	-0.040317	-0.012217	0.014661
586	83.004272	0.126404	-10.123920	-0.117720	1.294920	-0.588060	0.428358	0.356667	-0.035430	-0.014661	0.015882
587	83.133240	0.176910	-10.123920	-0.235440	1.530360	-3.261194	-0.007463	0.788333	-0.039095	-0.015882	0.018326
588	83.262238	0.145935	-10.006200	-0.353160	1.412640	-3.025373	-3.207463	0.093333	-0.046426	-0.013439	0.006109
589	83.391205	0.194916	-10.123920	-0.235440	1.059480	0.379104	-0.355224	0.213333	-0.042761	-0.013439	0.018326
590	83.520172	0.163910	-10.006200	-0.117720	1.294920	-2.317910	-3.073134	-1.560000	-0.029322	-0.010996	0.014661
591	83.649170	0.132935	-10.241640	0.000000	1.412640	-6.113433	-2.910448	-7.621667	-0.048869	-0.012217	0.013439
592	83.778137	0.181915	-10.123920	-0.117720	1.294920	-1.774627	0.847761	-1.511667	-0.040317	-0.009774	0.010996
593	83.907135	0.150940	-10.123920	0.000000	1.294920	-1.765672	0.868657	-1.671667	-0.037874	-0.010996	0.018326
594	84.036102	0.199921	-10.123920	-0.117720	1.294920	-1.695522	0.952239	-1.593333	-0.032987	-0.012217	0.018326
595	84.165100	0.168945	-10.241640	-0.117720	1.177200	-1.711940	0.980597	-1.596667	-0.039095	-0.018326	0.017104
596	84.294098	0.137970	-10.123920	-0.235440	1.294920	-1.677612	0.973134	-1.616667	-0.048869	-0.007330	0.010996
597	84.423096	0.186981	-10.123920	-0.117720	1.412640	-1.683582	0.980597	-1.623333	-0.045204	-0.014661	0.015882
598	84.552124	0.156036	-9.888480	0.000000	1.177200	-1.737313	0.998507	-1.655000	-0.043982	-0.012217	0.010996
599	84.681122	0.205048	-10.006200	0.000000	1.412640	-1.844776	0.994030	-1.716667	-0.039095	-0.007330	0.012217
600	84.810089	0.174042	-10.123920	-0.117720	1.294920	-2.080597	0.962687	-1.798333	-0.037874	-0.010996	0.019548
601	84.939056	0.143036	-10.241640	-0.117720	1.412640	-2.186567	1.010448	-1.738333	-0.039095	-0.014661	0.013439
602	85.068085	0.190918	-10.006200	0.000000	1.530360	-2.200000	1.037313	-1.710000	-0.036652	-0.018326	0.014661
