# FOX Logger (IMU file)
# (c) INRIA 2013
## File created from file data/HIGPS00.RAW
#
# File format:
# id	t	dt	ax	ay	az	mx	my	mz	gx	gy	gz
#
# Units:
#	Time: s
#	Acceleration: m.s^-2
#	Magnetic field: gauss
#	Rotation speed: rad.s^-1
#
1	7.551331	7.551331	-10.123920	-0.235440	1.412640	-0.255224	-0.629851	-1.545000	-0.042761	-0.007330	0.012217
2	7.679962	0.150970	-10.006200	-0.117720	1.294920	-0.271642	-0.641791	-1.536667	-0.036652	-0.010996	0.019548
3	7.808563	0.199585	-9.888480	-0.235440	1.530360	-0.255224	-0.628358	-1.553333	-0.039095	-0.014661	0.013439
4	7.937195	0.168243	-9.888480	-0.353160	1.412640	-0.249254	-0.628358	-1.553333	-0.036652	-0.014661	0.013439
5	8.065796	0.136871	-10.241640	-0.235440	1.530360	-0.252239	-0.628358	-1.553333	-0.036652	-0.017104	0.009774
6	8.194427	0.185516	-10.006200	0.000000	1.648080	-0.250746	-0.628358	-1.551667	-0.036652	-0.014661	0.012217
7	8.323059	0.154175	-10.359360	-0.117720	1.530360	-0.250746	-0.629851	-1.551667	-0.043982	-0.008552	0.008552
8	8.451691	0.202820	-10.123920	-0.117720	1.530360	-0.250746	-0.625373	-1.553333	-0.042761	-0.013439	0.020769
9	8.580353	0.171509	-10.006200	-0.117720	1.412640	-0.250746	-0.626866	-1.550000	-0.040317	-0.008552	0.008552
10	8.709015	0.140198	-10.006200	-0.235440	1.294920	-0.250746	-0.629851	-1.553333	-0.029322	-0.010996	0.007330
11	8.837646	0.188843	-10.006200	-0.235440	1.412640	-0.253731	-0.629851	-1.551667	-0.040317	-0.012217	0.014661
12	8.966278	0.157501	-10.241640	-0.353160	1.530360	-0.255224	-0.631343	-1.553333	-0.035430	-0.018326	0.008552
13	9.094910	0.126038	-10.006200	-0.235440	1.412640	-0.256716	-0.632836	-1.555000	-0.041539	-0.008552	0.014661
14	9.223511	0.174774	-10.123920	-0.117720	1.530360	-0.256716	-0.629851	-1.555000	-0.035430	-0.008552	0.017104
15	9.352173	0.143463	-10.123920	0.000000	1.530360	-0.250746	-0.629851	-1.553333	-0.040317	-0.010996	0.008552
16	9.480774	0.190338	-10.123920	-0.117720	1.530360	-0.250746	-0.631343	-1.556667	-0.042761	-0.012217	0.013439
17	9.609711	0.161041	-10.123920	-0.235440	1.530360	-0.250746	-0.632836	-1.556667	-0.041539	-0.010996	0.013439
18	9.738068	0.129425	-10.006200	-0.117720	1.412640	-0.246269	-0.631343	-1.551667	-0.034208	-0.010996	0.004887
19	9.866730	0.178101	-10.006200	-0.235440	1.412640	-0.253731	-0.629851	-1.553333	-0.032987	-0.019548	0.014661
20	9.995361	0.146759	-10.006200	0.000000	1.412640	-0.249254	-0.631343	-1.551667	-0.031765	-0.013439	0.014661
21	10.123993	0.195404	-10.123920	-0.235440	1.412640	-0.249254	-0.628358	-1.553333	-0.031765	-0.019548	0.014661
22	10.252625	0.164062	-10.123920	-0.235440	1.294920	-0.247761	-0.631343	-1.551667	-0.035430	-0.017104	0.015882
23	10.381287	0.132751	-10.006200	-0.235440	1.648080	-0.249254	-0.629851	-1.550000	-0.042761	-0.013439	0.010996
24	10.509949	0.181427	-10.123920	-0.117720	1.412640	-0.250746	-0.626866	-1.551667	-0.042761	-0.013439	0.014661
25	10.638580	0.150085	-9.888480	-0.235440	1.412640	-0.247761	-0.629851	-1.553333	-0.036652	-0.015882	0.012217
26	10.767212	0.198730	-9.888480	0.000000	1.530360	-0.249254	-0.628358	-1.548333	-0.037874	-0.013439	0.010996
27	10.895844	0.167389	-10.123920	-0.470880	1.530360	-0.249254	-0.629851	-1.551667	-0.035430	-0.012217	0.010996
28	11.024506	0.136078	-10.006200	0.000000	1.530360	-0.247761	-0.628358	-1.551667	-0.042761	-0.008552	0.013439
29	11.153107	0.184692	-10.123920	-0.117720	1.648080	-0.249254	-0.629851	-1.553333	-0.041539	-0.010996	0.013439
30	11.281738	0.153351	-10.123920	-0.117720	1.412640	-0.249254	-0.629851	-1.553333	-0.036652	-0.015882	0.009774
31	11.410370	0.201996	-10.123920	0.000000	1.648080	-0.247761	-0.628358	-1.551667	-0.042761	-0.008552	0.013439
32	11.539001	0.170654	-10.123920	-0.117720	1.412640	-0.249254	-0.628358	-1.553333	-0.042761	-0.007330	0.013439
33	11.667633	0.139313	-10.241640	-0.235440	1.412640	-0.246269	-0.628358	-1.551667	-0.041539	-0.006109	0.013439
34	11.796295	0.187988	-10.123920	0.000000	1.530360	-0.246269	-0.629851	-1.551667	-0.037874	-0.013439	0.013439
35	11.924957	0.156677	-10.006200	-0.117720	1.530360	-0.249254	-0.628358	-1.551667	-0.034208	-0.009774	0.018326
36	12.053619	0.205353	-10.241640	0.000000	1.294920	-0.249254	-0.629851	-1.551667	-0.043982	-0.013439	0.007330
37	12.182281	0.174042	-10.006200	-0.117720	1.412640	-0.247761	-0.629851	-1.551667	-0.030543	-0.014661	0.007330
38	12.310913	0.142700	-10.006200	-0.117720	1.648080	-0.246269	-0.628358	-1.551667	-0.031765	-0.013439	0.009774
39	12.439606	0.190399	-10.006200	0.000000	1.530360	-0.247761	-0.629851	-1.551667	-0.041539	-0.012217	0.008552
40	12.569214	0.161041	-10.241640	-0.235440	1.530360	-0.246269	-0.626866	-1.553333	-0.036652	-0.012217	0.004887
41	12.696930	0.128784	-10.123920	-0.235440	1.412640	-0.247761	-0.628358	-1.551667	-0.037874	-0.012217	0.009774
42	12.825623	0.177490	-10.006200	0.000000	1.530360	-0.249254	-0.628358	-1.551667	-0.042761	-0.010996	0.007330
43	12.954254	0.146149	-10.123920	0.000000	1.530360	-0.249254	-0.628358	-1.550000	-0.030543	-0.012217	0.012217
44	13.082916	0.194824	-9.888480	-0.235440	1.412640	-0.250746	-0.626866	-1.551667	-0.034208	-0.013439	0.023213
45	13.211548	0.163483	-10.006200	-0.235440	1.294920	-0.250746	-0.626866	-1.551667	-0.041539	-0.009774	0.006109
46	13.340179	0.132141	-10.006200	-0.353160	1.530360	-0.247761	-0.628358	-1.550000	-0.045204	-0.012217	0.023213
47	13.468842	0.180817	-10.123920	-0.235440	1.530360	-0.249254	-0.628358	-1.550000	-0.042761	-0.012217	0.010996
48	13.597534	0.149536	-10.123920	-0.235440	1.412640	-0.249254	-0.626866	-1.551667	-0.025656	-0.014661	0.013439
49	13.726196	0.198212	-10.123920	-0.235440	1.530360	-0.249254	-0.626866	-1.551667	-0.036652	-0.014661	0.017104
50	13.854858	0.166901	-10.123920	-0.235440	1.648080	-0.247761	-0.628358	-1.551667	-0.036652	-0.009774	0.023213
51	13.983551	0.135620	-9.888480	-0.235440	1.412640	-0.247761	-0.626866	-1.551667	-0.034208	-0.012217	0.012217
52	14.112183	0.184265	-9.888480	-0.235440	1.648080	-0.247761	-0.626866	-1.551667	-0.037874	-0.012217	0.013439
53	14.240845	0.152954	-9.888480	-0.117720	1.648080	-0.249254	-0.626866	-1.551667	-0.032987	-0.008552	0.009774
54	14.369507	0.201630	-10.006200	-0.235440	1.412640	-0.249254	-0.625373	-1.553333	-0.036652	-0.015882	0.014661
55	14.498138	0.170288	-9.888480	-0.353160	1.648080	-0.243284	-0.628358	-1.551667	-0.032987	-0.010996	0.012217
56	14.626770	0.138947	-10.006200	-0.353160	1.412640	-0.246269	-0.628358	-1.551667	-0.039095	-0.015882	0.007330
57	14.755463	0.187653	-9.888480	-0.117720	1.412640	-0.249254	-0.626866	-1.550000	-0.043982	-0.007330	0.017104
58	14.884125	0.156342	-10.123920	-0.117720	1.530360	-0.247761	-0.626866	-1.551667	-0.032987	-0.015882	0.007330
59	15.012787	0.205017	-10.123920	-0.117720	1.530360	-0.249254	-0.625373	-1.550000	-0.037874	-0.007330	0.013439
60	15.141418	0.173676	-10.123920	-0.117720	1.530360	-0.250746	-0.629851	-1.550000	-0.040317	-0.015882	0.015882
61	15.270081	0.142365	-10.006200	-0.235440	1.530360	-0.252239	-0.625373	-1.553333	-0.046426	-0.010996	0.017104
62	15.398712	0.190369	-10.006200	-0.117720	1.412640	-0.249254	-0.626866	-1.550000	-0.037874	-0.013439	0.010996
63	15.527374	0.159698	-10.123920	-0.235440	1.177200	-0.249254	-0.623881	-1.551667	-0.037874	-0.013439	0.014661
64	15.656036	0.126068	-10.006200	-0.235440	1.530360	-0.249254	-0.625373	-1.550000	-0.046426	-0.008552	0.014661
65	15.784698	0.177063	-10.006200	-0.235440	1.412640	-0.246269	-0.626866	-1.550000	-0.040317	-0.013439	0.013439
66	15.913330	0.145721	-10.123920	-0.235440	1.530360	-0.249254	-0.620896	-1.550000	-0.037874	-0.014661	0.018326
67	16.041992	0.194397	-10.006200	-0.117720	1.530360	-0.247761	-0.625373	-1.550000	-0.031765	-0.013439	0.008552
68	16.170624	0.163055	-10.006200	-0.117720	1.530360	-0.246269	-0.628358	-1.548333	-0.037874	-0.008552	0.014661
69	16.299316	0.131775	-9.888480	-0.117720	1.648080	-0.247761	-0.626866	-1.550000	-0.039095	-0.013439	0.013439
70	16.427979	0.180450	-10.006200	-0.235440	1.412640	-0.250746	-0.625373	-1.551667	-0.034208	-0.013439	0.019548
71	16.556610	0.149109	-10.241640	-0.117720	1.530360	-0.247761	-0.626866	-1.550000	-0.037874	-0.013439	0.010996
72	16.685272	0.197784	-10.123920	-0.117720	1.530360	-0.249254	-0.626866	-1.550000	-0.040317	-0.014661	0.013439
73	16.813965	0.166504	-10.241640	-0.353160	1.530360	-0.246269	-0.628358	-1.550000	-0.034208	-0.018326	0.015882
74	16.942657	0.135223	-10.241640	-0.117720	1.412640	-0.247761	-0.625373	-1.548333	-0.042761	-0.014661	0.014661
75	17.071350	0.183929	-10.006200	-0.117720	1.294920	-0.249254	-0.625373	-1.548333	-0.036652	-0.010996	0.008552
76	17.200073	0.152679	-10.006200	-0.117720	1.648080	-0.249254	-0.626866	-1.550000	-0.031765	-0.012217	0.009774
77	17.328766	0.201385	-10.006200	-0.117720	1.294920	-0.247761	-0.626866	-1.550000	-0.045204	-0.010996	0.015882
78	17.457397	0.170044	-10.241640	0.000000	1.530360	-0.249254	-0.628358	-1.550000	-0.042761	-0.014661	0.017104
79	17.586060	0.138733	-10.006200	-0.117720	1.412640	-0.247761	-0.628358	-1.546667	-0.043982	-0.010996	0.012217
80	17.714691	0.187378	-10.006200	0.000000	1.412640	-0.246269	-0.626866	-1.550000	-0.035430	-0.018326	0.013439
81	17.843353	0.156067	-10.006200	-0.235440	1.648080	-0.246269	-0.626866	-1.548333	-0.031765	-0.014661	0.018326
82	17.972015	0.204742	-10.006200	-0.117720	1.530360	-0.247761	-0.625373	-1.551667	-0.048869	-0.010996	0.018326
83	18.100677	0.173431	-10.006200	-0.117720	1.412640	-0.246269	-0.625373	-1.548333	-0.035430	-0.017104	0.014661
84	18.229340	0.142120	-10.123920	-0.235440	1.412640	-0.246269	-0.628358	-1.550000	-0.036652	-0.010996	0.013439
85	18.358002	0.190399	-10.123920	-0.117720	1.412640	-0.244776	-0.623881	-1.550000	-0.034208	-0.013439	0.013439
86	18.486664	0.159485	-10.006200	-0.235440	1.530360	-0.247761	-0.622388	-1.551667	-0.035430	-0.013439	0.013439
87	18.615326	0.126068	-10.006200	-0.235440	1.294920	-0.249254	-0.625373	-1.551667	-0.030543	-0.012217	0.021991
88	18.744019	0.176880	-10.123920	-0.117720	1.530360	-0.249254	-0.625373	-1.551667	-0.040317	-0.010996	0.019548
89	18.872681	0.145569	-10.006200	-0.117720	1.530360	-0.247761	-0.632836	-1.551667	-0.036652	-0.013439	0.014661
90	19.001373	0.194275	-10.123920	-0.117720	1.530360	-0.246269	-0.625373	-1.550000	-0.043982	-0.012217	0.015882
91	19.130035	0.162964	-10.006200	-0.353160	1.412640	-0.246269	-0.626866	-1.548333	-0.032987	-0.012217	0.013439
92	19.258728	0.131683	-10.006200	-0.117720	1.412640	-0.246269	-0.625373	-1.551667	-0.042761	-0.009774	0.008552
93	19.387421	0.180389	-10.123920	-0.235440	1.530360	-0.247761	-0.622388	-1.553333	-0.036652	-0.010996	0.009774
94	19.516113	0.149109	-10.006200	-0.117720	1.412640	-0.247761	-0.626866	-1.550000	-0.041539	-0.012217	0.014661
95	19.644775	0.197784	-10.123920	-0.235440	1.530360	-0.247761	-0.626866	-1.550000	-0.034208	-0.013439	0.015882
96	19.773468	0.166504	-10.123920	-0.117720	1.412640	-0.247761	-0.622388	-1.550000	-0.041539	-0.010996	0.009774
97	19.902130	0.135193	-10.006200	-0.117720	1.294920	-0.249254	-0.626866	-1.550000	-0.041539	-0.013439	0.012217
98	20.030853	0.183929	-10.241640	0.000000	1.530360	-0.247761	-0.625373	-1.546667	-0.039095	-0.013439	0.013439
99	20.159576	0.152679	-10.123920	-0.235440	1.294920	-0.249254	-0.622388	-1.546667	-0.032987	-0.009774	0.013439
100	20.288269	0.201385	-10.123920	-0.235440	1.530360	-0.246269	-0.623881	-1.550000	-0.039095	-0.007330	0.008552
101	20.416992	0.170135	-10.123920	-0.117720	1.412640	-0.246269	-0.623881	-1.550000	-0.037874	-0.009774	0.006109
102	20.545654	0.138824	-10.006200	0.000000	1.412640	-0.243284	-0.623881	-1.548333	-0.036652	-0.012217	0.013439
103	20.674347	0.187531	-10.241640	0.000000	1.530360	-0.249254	-0.625373	-1.550000	-0.041539	-0.010996	0.015882
104	20.803040	0.156250	-10.123920	-0.117720	1.530360	-0.247761	-0.622388	-1.548333	-0.037874	-0.012217	0.018326
105	20.931763	0.204987	-9.888480	-0.117720	1.294920	-0.244776	-0.625373	-1.548333	-0.036652	-0.012217	0.013439
106	21.060486	0.173737	-10.006200	-0.117720	1.294920	-0.249254	-0.623881	-1.550000	-0.037874	-0.015882	0.008552
107	21.189178	0.142456	-10.123920	-0.117720	1.530360	-0.246269	-0.622388	-1.550000	-0.031765	-0.013439	0.008552
108	21.317902	0.190491	-10.123920	-0.117720	1.530360	-0.247761	-0.623881	-1.546667	-0.037874	-0.013439	0.007330
109	21.446625	0.159943	-10.006200	-0.117720	1.412640	-0.247761	-0.620896	-1.546667	-0.039095	-0.009774	0.009774
110	21.575317	0.126099	-10.006200	-0.235440	1.412640	-0.249254	-0.628358	-1.551667	-0.041539	-0.009774	0.013439
111	21.704071	0.177429	-10.123920	-0.235440	1.412640	-0.249254	-0.623881	-1.548333	-0.036652	-0.013439	0.008552
112	21.832764	0.146149	-10.123920	0.000000	1.412640	-0.247761	-0.620896	-1.551667	-0.045204	-0.017104	0.006109
113	21.961517	0.194916	-10.123920	-0.117720	1.530360	-0.244776	-0.625373	-1.546667	-0.035430	-0.010996	0.012217
114	22.090240	0.163666	-10.006200	0.000000	1.530360	-0.246269	-0.623881	-1.548333	-0.047647	-0.015882	0.014661
115	22.218994	0.132446	-10.123920	-0.117720	1.412640	-0.247761	-0.623881	-1.548333	-0.037874	-0.013439	0.007330
116	22.347748	0.181213	-10.006200	-0.117720	1.530360	-0.249254	-0.623881	-1.548333	-0.045204	-0.013439	0.017104
117	22.476471	0.149963	-10.123920	-0.235440	1.294920	-0.250746	-0.620896	-1.550000	-0.039095	-0.014661	0.013439
118	22.605164	0.198669	-10.123920	-0.117720	1.412640	-0.244776	-0.626866	-1.548333	-0.030543	-0.019548	0.019548
119	22.733887	0.167419	-10.241640	-0.117720	1.294920	-0.247761	-0.625373	-1.550000	-0.037874	-0.007330	0.019548
120	22.862610	0.136169	-10.123920	-0.117720	1.530360	-0.247761	-0.625373	-1.553333	-0.042761	-0.010996	0.013439
121	22.991364	0.184937	-9.888480	-0.235440	1.530360	-0.247761	-0.622388	-1.545000	-0.045204	-0.015882	0.013439
122	23.120087	0.153687	-10.123920	-0.353160	1.294920	-0.247761	-0.623881	-1.550000	-0.042761	-0.012217	0.018326
123	23.248810	0.202423	-10.006200	-0.470880	1.648080	-0.246269	-0.623881	-1.548333	-0.039095	-0.013439	0.013439
124	23.377563	0.171204	-10.006200	-0.117720	1.294920	-0.246269	-0.625373	-1.548333	-0.026878	-0.015882	0.008552
125	23.506287	0.139954	-10.123920	-0.117720	1.530360	-0.247761	-0.626866	-1.548333	-0.031765	-0.013439	0.013439
126	23.635040	0.188721	-10.123920	-0.235440	1.412640	-0.247761	-0.622388	-1.551667	-0.036652	-0.013439	0.020769
127	23.763733	0.157440	-9.888480	-0.235440	1.177200	-0.246269	-0.622388	-1.548333	-0.042761	-0.017104	0.008552
128	23.892456	0.126129	-10.123920	-0.235440	1.530360	-0.246269	-0.622388	-1.548333	-0.041539	-0.010996	0.012217
129	24.021149	0.174896	-10.006200	-0.235440	1.294920	-0.244776	-0.625373	-1.550000	-0.034208	-0.013439	0.020769
130	24.149841	0.143616	-10.123920	-0.117720	1.648080	-0.247761	-0.623881	-1.548333	-0.046426	-0.008552	0.018326
131	24.278564	0.190460	-9.888480	-0.235440	1.530360	-0.247761	-0.623881	-1.550000	-0.039095	-0.012217	0.013439
132	24.407288	0.161102	-10.241640	-0.117720	1.412640	-0.246269	-0.622388	-1.546667	-0.037874	-0.015882	0.018326
133	24.536011	0.129852	-10.006200	-0.117720	1.412640	-0.249254	-0.622388	-1.550000	-0.031765	-0.018326	0.015882
134	24.664764	0.178619	-10.006200	-0.117720	1.530360	-0.246269	-0.626866	-1.548333	-0.036652	-0.014661	0.009774
135	24.793488	0.147369	-10.241640	-0.117720	1.412640	-0.249254	-0.623881	-1.550000	-0.039095	-0.013439	0.004887
136	24.922180	0.196075	-10.123920	-0.117720	1.412640	-0.244776	-0.625373	-1.548333	-0.035430	-0.007330	0.012217
137	25.050903	0.164825	-10.241640	0.000000	1.412640	-0.246269	-0.623881	-1.548333	-0.030543	-0.010996	0.007330
138	25.179657	0.133606	-10.241640	-0.941760	1.294920	-0.247761	-0.623881	-1.546667	-0.009774	-0.026878	0.006109
139	25.308350	0.182312	-10.359360	-0.117720	0.117720	-0.249254	-0.622388	-1.548333	0.017104	-0.007330	0.002443
140	25.437103	0.151093	-10.006200	-0.235440	0.117720	-0.240299	-0.613433	-1.555000	0.118508	-0.008552	-0.009774
141	25.565826	0.199829	-10.241640	-0.117720	0.117720	-0.232836	-0.610448	-1.551667	0.190590	0.006109	-0.019548
142	25.694489	0.168518	-10.123920	0.000000	-0.588600	-0.229851	-0.601493	-1.526667	0.345750	0.017104	-0.029322
143	25.823212	0.137268	-10.241640	0.353160	-0.941760	-0.235821	-0.571642	-1.495000	0.527788	0.002443	-0.056200
144	25.951904	0.185974	-10.241640	1.059480	0.000000	-0.229851	-0.531343	-1.473333	0.671952	0.041539	-0.058643
145	26.080627	0.154724	-10.241640	1.530360	0.941760	-0.228358	-0.483582	-1.453333	0.728151	0.047647	-0.052534
146	26.209351	0.203461	-10.006200	1.648080	2.236680	-0.229851	-0.431343	-1.441667	0.663400	0.042761	-0.046426
147	26.338074	0.172211	-10.241640	1.059480	2.943000	-0.240299	-0.386567	-1.440000	0.558331	0.031765	-0.039095
148	26.466797	0.140961	-10.006200	0.470880	2.943000	-0.244776	-0.352239	-1.443333	0.422719	0.020769	-0.020769
149	26.595490	0.189667	-10.006200	0.000000	2.707560	-0.253731	-0.325373	-1.451667	0.295659	0.009774	-0.013439
150	26.724213	0.158417	-10.006200	0.000000	2.236680	-0.253731	-0.307463	-1.460000	0.216246	0.008552	0.000000
151	26.852905	0.126099	-10.006200	0.000000	2.001240	-0.261194	-0.288060	-1.468333	0.190590	0.002443	-0.002443
152	26.981628	0.175873	-10.006200	-0.117720	2.118960	-0.264179	-0.282090	-1.470000	0.130725	-0.002443	0.000000
153	27.110352	0.144623	-10.006200	0.000000	2.001240	-0.268657	-0.267164	-1.476667	0.089186	-0.003665	0.000000
154	27.239075	0.193359	-10.123920	-0.117720	1.648080	-0.267164	-0.262687	-1.483333	0.069639	-0.003665	0.002443
155	27.367767	0.162079	-10.123920	-0.117720	1.648080	-0.271642	-0.259701	-1.488333	0.057421	-0.006109	0.012217
156	27.496490	0.130829	-10.123920	0.000000	1.530360	-0.271642	-0.252239	-1.488333	0.046426	-0.006109	0.004887
157	27.625244	0.179596	-10.123920	-0.117720	1.294920	-0.274627	-0.250746	-1.493333	0.052534	-0.006109	0.000000
158	27.753967	0.148346	-10.123920	-0.117720	1.412640	-0.273134	-0.243284	-1.496667	0.062308	-0.006109	0.002443
159	27.882690	0.197083	-9.770760	-0.235440	2.943000	-0.271642	-0.241791	-1.505000	-0.118508	-0.006109	0.037874
160	28.011444	0.165863	-10.123920	-0.353160	0.588600	-0.271642	-0.243284	-1.500000	-0.057421	-0.002443	0.013439
161	28.140167	0.134613	-10.123920	-0.117720	-0.117720	-0.274627	-0.243284	-1.503333	0.030543	-0.010996	-0.001222
162	28.268951	0.183411	-10.123920	0.117720	3.413880	-0.271642	-0.238806	-1.503333	-0.080634	-0.017104	0.023213
163	28.397675	0.152161	-10.123920	-0.235440	1.412640	-0.270149	-0.243284	-1.503333	-0.031765	-0.003665	0.013439
164	28.526398	0.200897	-10.123920	-0.117720	1.883520	-0.271642	-0.243284	-1.501667	-0.103847	-0.009774	0.023213
165	28.655151	0.169678	-9.888480	-0.117720	3.060720	-0.271642	-0.247761	-1.493333	-0.290772	-0.043982	0.045204
166	28.783875	0.138428	-9.888480	0.117720	3.060720	-0.271642	-0.264179	-1.480000	-0.469145	-0.040317	0.061087
167	28.912567	0.187134	-10.006200	0.235440	2.589840	-0.265672	-0.286567	-1.463333	-0.577879	-0.045204	0.067195
168	29.041290	0.155884	-10.123920	0.706320	2.236680	-0.253731	-0.323881	-1.450000	-0.649961	-0.042761	0.076969
169	29.170044	0.204651	-10.123920	1.294920	1.883520	-0.240299	-0.359701	-1.441667	-0.700052	-0.043982	0.079412
170	29.298798	0.173431	-10.241640	1.412640	1.530360	-0.235821	-0.405970	-1.436667	-0.723264	-0.052534	0.081856
171	29.427521	0.142181	-10.241640	1.412640	0.941760	-0.229851	-0.453731	-1.443333	-0.718378	-0.047647	0.074526
172	29.556244	0.190491	-10.241640	0.941760	0.706320	-0.228358	-0.497015	-1.455000	-0.676839	-0.052534	0.064752
173	29.684998	0.159698	-10.123920	0.824040	0.117720	-0.231343	-0.534328	-1.475000	-0.587652	-0.046426	0.061087
174	29.813721	0.126129	-10.241640	0.235440	-0.235440	-0.234328	-0.570149	-1.495000	-0.461814	-0.035430	0.043982
175	29.942444	0.177185	-10.123920	0.000000	0.000000	-0.229851	-0.600000	-1.515000	-0.350637	-0.030543	0.037874
176	30.071136	0.145905	-10.123920	-0.117720	-0.470880	-0.223881	-0.607463	-1.548333	-0.201586	-0.025656	0.013439
177	30.199799	0.194580	-10.006200	-0.235440	-0.117720	-0.235821	-0.605970	-1.556667	0.096517	-0.021991	0.010996
178	30.328491	0.163300	-10.241640	-0.117720	1.765800	-0.237313	-0.610448	-1.556667	-0.057421	-0.013439	0.018326
179	30.457214	0.132050	-10.123920	-0.235440	1.648080	-0.241791	-0.610448	-1.550000	-0.065973	-0.013439	0.013439
180	30.585907	0.180756	-10.123920	-0.117720	1.294920	-0.241791	-0.613433	-1.550000	-0.073304	-0.015882	0.019548
181	30.714630	0.149506	-10.123920	-0.235440	1.765800	-0.241791	-0.619403	-1.550000	-0.085521	-0.015882	0.026878
182	30.843353	0.198242	-10.006200	-0.353160	2.354400	-0.246269	-0.622388	-1.550000	0.007330	0.000000	0.015882
183	30.972107	0.167023	-10.594800	-0.941760	1.765800	-0.247761	-0.625373	-1.543333	-0.041539	-0.015882	0.020769
184	31.100861	0.135803	-10.006200	-0.235440	1.059480	-0.246269	-0.623881	-1.545000	-0.036652	-0.010996	0.004887
185	31.229584	0.184540	-10.123920	0.000000	1.530360	-0.247761	-0.623881	-1.545000	-0.036652	-0.009774	0.015882
186	31.358276	0.153259	-10.123920	0.000000	1.530360	-0.249254	-0.623881	-1.543333	-0.036652	-0.009774	0.009774
187	31.487000	0.201996	-10.006200	-0.117720	1.412640	-0.246269	-0.622388	-1.543333	-0.042761	-0.009774	0.013439
188	31.615753	0.170776	-9.888480	-0.235440	1.530360	-0.250746	-0.623881	-1.541667	-0.039095	-0.009774	0.007330
189	31.744507	0.139557	-10.123920	-0.117720	1.412640	-0.247761	-0.622388	-1.545000	-0.042761	-0.010996	0.008552
190	31.873260	0.188324	-10.241640	-0.117720	1.530360	-0.247761	-0.625373	-1.545000	-0.043982	-0.012217	0.014661
191	32.002014	0.157104	-10.123920	-0.235440	1.412640	-0.246269	-0.622388	-1.543333	-0.045204	-0.009774	0.015882
192	32.130768	0.205872	-10.006200	-0.235440	1.648080	-0.246269	-0.625373	-1.541667	-0.039095	-0.014661	0.002443
193	32.259491	0.174622	-10.241640	-0.235440	1.412640	-0.247761	-0.622388	-1.543333	-0.048869	-0.009774	0.014661
194	32.388245	0.143402	-10.123920	-0.353160	1.412640	-0.246269	-0.623881	-1.546667	-0.040317	-0.013439	0.013439
195	32.516998	0.190521	-10.123920	-0.235440	1.530360	-0.246269	-0.622388	-1.545000	-0.039095	-0.006109	0.009774
196	32.645844	0.161041	-10.123920	-0.235440	1.530360	-0.244776	-0.619403	-1.545000	-0.034208	-0.007330	0.017104
197	32.774506	0.129730	-10.006200	-0.117720	1.530360	-0.243284	-0.622388	-1.545000	-0.037874	-0.017104	0.014661
198	32.903259	0.178497	-9.888480	-0.235440	1.530360	-0.247761	-0.622388	-1.545000	-0.042761	-0.009774	0.006109
199	33.032013	0.147278	-10.123920	-0.117720	1.412640	-0.249254	-0.622388	-1.543333	-0.048869	-0.015882	0.015882
200	33.160767	0.196045	-9.888480	-0.117720	1.412640	-0.247761	-0.622388	-1.543333	-0.040317	-0.009774	0.019548
201	33.289551	0.164856	-10.123920	-0.117720	1.412640	-0.247761	-0.623881	-1.543333	-0.037874	-0.013439	0.019548
202	33.418274	0.133606	-10.006200	-0.235440	1.412640	-0.244776	-0.623881	-1.543333	-0.046426	-0.009774	0.012217
203	33.546997	0.182343	-10.123920	-0.117720	1.412640	-0.246269	-0.625373	-1.546667	-0.042761	-0.013439	0.009774
204	33.675720	0.151093	-10.006200	-0.353160	1.412640	-0.246269	-0.623881	-1.545000	-0.035430	-0.013439	0.012217
205	33.804443	0.199829	-10.006200	-0.235440	1.294920	-0.246269	-0.622388	-1.543333	-0.035430	-0.012217	0.007330
206	33.933197	0.168610	-10.006200	-0.235440	1.412640	-0.246269	-0.623881	-1.543333	-0.036652	-0.015882	0.008552
207	34.061951	0.137390	-10.241640	0.000000	1.530360	-0.247761	-0.622388	-1.541667	-0.037874	-0.009774	0.013439
208	34.190735	0.186188	-10.123920	-0.117720	1.530360	-0.244776	-0.625373	-1.546667	-0.036652	-0.010996	0.009774
209	34.319489	0.154968	-10.123920	-0.353160	1.412640	-0.246269	-0.623881	-1.541667	-0.035430	-0.014661	0.009774
210	34.448242	0.203735	-10.241640	-0.117720	1.294920	-0.246269	-0.623881	-1.543333	-0.037874	-0.010996	0.013439
211	34.576996	0.172516	-10.006200	-0.117720	1.294920	-0.249254	-0.622388	-1.541667	-0.037874	-0.014661	0.015882
212	34.705750	0.141296	-10.123920	-0.235440	1.294920	-0.244776	-0.625373	-1.546667	-0.034208	-0.013439	0.018326
213	34.834503	0.190063	-10.006200	-0.235440	1.412640	-0.247761	-0.625373	-1.543333	-0.034208	-0.019548	0.012217
214	34.963226	0.158813	-10.123920	-0.235440	1.412640	-0.246269	-0.622388	-1.543333	-0.039095	-0.010996	0.008552
215	35.091949	0.126129	-10.123920	-0.117720	1.412640	-0.246269	-0.623881	-1.550000	-0.037874	-0.019548	0.017104
216	35.220703	0.176331	-10.123920	-0.117720	1.530360	-0.246269	-0.625373	-1.541667	-0.041539	-0.010996	0.018326
217	35.349457	0.145111	-10.006200	0.000000	1.177200	-0.246269	-0.620896	-1.545000	-0.037874	-0.008552	0.007330
218	35.478210	0.193878	-10.123920	-0.235440	1.530360	-0.246269	-0.619403	-1.543333	-0.034208	-0.015882	0.019548
219	35.606964	0.162659	-10.123920	-0.235440	1.412640	-0.246269	-0.622388	-1.546667	-0.035430	-0.014661	0.004887
220	35.735748	0.131470	-10.006200	-0.235440	1.530360	-0.243284	-0.623881	-1.543333	-0.036652	-0.010996	0.009774
221	35.864532	0.180267	-10.241640	-0.235440	1.412640	-0.247761	-0.622388	-1.543333	-0.040317	-0.015882	0.014661
222	35.993286	0.149048	-10.123920	-0.117720	1.177200	-0.244776	-0.622388	-1.541667	-0.040317	-0.014661	0.015882
223	36.122070	0.197845	-10.006200	0.000000	1.648080	-0.246269	-0.623881	-1.541667	-0.037874	-0.017104	0.015882
224	36.250824	0.166626	-10.006200	-0.235440	1.530360	-0.246269	-0.622388	-1.543333	-0.040317	-0.014661	0.014661
225	36.379578	0.135406	-10.123920	-0.117720	1.530360	-0.246269	-0.622388	-1.543333	-0.042761	-0.014661	0.017104
226	36.508301	0.184143	-10.241640	-0.117720	1.412640	-0.244776	-0.623881	-1.545000	-0.045204	-0.019548	0.018326
227	36.637054	0.152924	-10.123920	-0.117720	1.648080	-0.244776	-0.623881	-1.541667	-0.039095	-0.008552	0.015882
228	36.765808	0.201691	-10.006200	-0.235440	1.412640	-0.244776	-0.622388	-1.545000	-0.039095	-0.013439	0.017104
229	36.894531	0.170441	-10.123920	-0.235440	1.412640	-0.247761	-0.623881	-1.543333	-0.034208	-0.013439	0.008552
230	37.023315	0.139252	-10.123920	0.000000	1.765800	-0.249254	-0.622388	-1.548333	-0.048869	-0.009774	0.014661
231	37.152039	0.187988	-10.123920	-0.117720	1.530360	-0.244776	-0.625373	-1.545000	-0.035430	-0.013439	0.008552
232	37.280792	0.156769	-10.123920	0.000000	1.412640	-0.247761	-0.625373	-1.548333	-0.032987	-0.009774	0.012217
233	37.409515	0.205505	-10.123920	-0.117720	1.648080	-0.244776	-0.622388	-1.543333	-0.041539	-0.020769	0.012217
234	37.538269	0.174286	-10.123920	-0.235440	1.412640	-0.243284	-0.623881	-1.545000	-0.032987	-0.018326	0.006109
235	37.666992	0.143036	-9.888480	-0.235440	1.530360	-0.243284	-0.623881	-1.546667	-0.034208	-0.009774	0.008552
236	37.795746	0.190521	-10.123920	0.000000	1.530360	-0.246269	-0.622388	-1.546667	-0.035430	-0.009774	0.019548
237	37.924957	0.161041	-10.241640	-0.117720	1.530360	-0.247761	-0.625373	-1.545000	-0.040317	-0.015882	0.014661
238	38.053253	0.129364	-10.123920	-0.117720	1.294920	-0.244776	-0.623881	-1.543333	-0.036652	-0.008552	0.010996
239	38.182007	0.178131	-10.006200	0.000000	1.412640	-0.246269	-0.623881	-1.545000	-0.036652	-0.009774	0.012217
240	38.310760	0.146912	-10.006200	-0.117720	1.530360	-0.244776	-0.625373	-1.546667	-0.037874	-0.013439	0.014661
241	38.439484	0.195648	-10.241640	-0.235440	1.530360	-0.244776	-0.623881	-1.543333	-0.051313	-0.013439	0.013439
242	38.568268	0.164459	-9.888480	-0.117720	1.530360	-0.243284	-0.623881	-1.543333	-0.045204	-0.019548	0.008552
243	38.697021	0.133240	-10.241640	-0.117720	1.530360	-0.246269	-0.623881	-1.546667	-0.041539	-0.008552	0.013439
244	38.825775	0.182007	-10.006200	-0.117720	1.412640	-0.244776	-0.622388	-1.545000	-0.031765	-0.010996	0.013439
245	38.954559	0.150818	-10.241640	-0.235440	0.588600	-0.246269	-0.623881	-1.543333	-0.032987	-0.020769	0.009774
246	39.083313	0.199585	-10.241640	-0.353160	1.412640	-0.246269	-0.622388	-1.545000	-0.026878	-0.017104	0.010996
247	39.212067	0.168365	-10.123920	-0.117720	0.588600	-0.246269	-0.619403	-1.550000	0.009774	-0.006109	0.001222
248	39.340820	0.137146	-10.123920	-0.117720	0.000000	-0.238806	-0.613433	-1.553333	0.116064	-0.002443	-0.004887
249	39.469543	0.185883	-10.006200	-0.117720	0.000000	-0.223881	-0.610448	-1.548333	0.218690	0.007330	-0.024435
250	39.598297	0.154663	-10.477080	0.000000	-0.706320	-0.229851	-0.595522	-1.515000	0.335976	0.003665	-0.036652
251	39.727081	0.203461	-10.359360	0.117720	0.588600	-0.231343	-0.565672	-1.485000	0.428827	0.018326	-0.036652
252	39.855804	0.172211	-10.123920	0.353160	0.470880	-0.228358	-0.534328	-1.470000	0.510683	0.023213	-0.037874
253	39.984558	0.140991	-10.123920	0.470880	1.177200	-0.226866	-0.498507	-1.455000	0.543670	0.026878	-0.035430
254	40.113342	0.189789	-10.241640	0.588600	1.765800	-0.226866	-0.459701	-1.441667	0.526566	0.025656	-0.041539
255	40.242065	0.158539	-10.123920	0.470880	2.236680	-0.232836	-0.423881	-1.436667	0.467923	0.023213	-0.028100
256	40.370850	0.126190	-10.123920	0.117720	2.354400	-0.235821	-0.392537	-1.435000	0.389732	0.020769	-0.029322
257	40.499573	0.176086	-10.123920	0.117720	2.354400	-0.241791	-0.365672	-1.438333	0.312763	0.009774	-0.014661
258	40.628326	0.144867	-10.006200	0.117720	2.236680	-0.246269	-0.347761	-1.441667	0.245568	0.006109	-0.009774
259	40.757050	0.193604	-10.123920	0.000000	1.883520	-0.250746	-0.325373	-1.445000	0.188146	0.003665	-0.006109
260	40.885803	0.162384	-10.006200	0.000000	1.648080	-0.255224	-0.311940	-1.451667	0.155160	0.000000	-0.012217
261	41.014587	0.131195	-10.241640	-0.117720	1.530360	-0.256716	-0.304478	-1.455000	0.163712	0.000000	0.000000
262	41.143341	0.179962	-10.241640	0.000000	1.412640	-0.259701	-0.289552	-1.461667	0.166155	0.000000	-0.002443
263	41.272095	0.148743	-10.123920	-0.117720	1.883520	-0.264179	-0.279104	-1.468333	0.150273	-0.002443	0.000000
264	41.400848	0.197510	-10.006200	-0.117720	1.883520	-0.268657	-0.270149	-1.475000	0.100182	-0.002443	0.001222
265	41.529633	0.166321	-10.123920	-0.117720	1.883520	-0.265672	-0.259701	-1.478333	0.043982	-0.008552	0.006109
266	41.658386	0.135101	-10.006200	0.000000	1.530360	-0.268657	-0.255224	-1.480000	0.028100	-0.003665	0.006109
267	41.787140	0.183868	-10.006200	-0.117720	1.648080	-0.267164	-0.256716	-1.483333	0.014661	-0.010996	0.007330
268	41.915924	0.152679	-10.123920	0.000000	1.294920	-0.268657	-0.255224	-1.485000	0.007330	-0.008552	0.000000
269	42.044678	0.201447	-10.006200	-0.235440	1.530360	-0.268657	-0.250746	-1.490000	0.013439	-0.009774	0.008552
270	42.173462	0.170258	-9.888480	-0.117720	1.412640	-0.270149	-0.244776	-1.490000	0.021991	-0.001222	0.003665
271	42.302246	0.139069	-10.123920	-0.117720	1.294920	-0.271642	-0.244776	-1.496667	0.018326	-0.013439	0.007330
272	42.431000	0.187836	-10.123920	-0.117720	1.177200	-0.271642	-0.240299	-1.498333	0.015882	-0.004887	0.006109
273	42.559753	0.156616	-10.123920	0.235440	3.649320	-0.271642	-0.240299	-1.503333	-0.063530	-0.025656	0.015882
274	42.688507	0.205383	-10.123920	-0.117720	1.530360	-0.270149	-0.240299	-1.500000	-0.032987	-0.014661	0.014661
275	42.817291	0.174194	-10.006200	-0.235440	1.765800	-0.271642	-0.240299	-1.503333	-0.036652	-0.007330	0.015882
276	42.946045	0.142975	-10.123920	-0.235440	1.530360	-0.270149	-0.238806	-1.503333	-0.041539	-0.012217	0.014661
277	43.074799	0.190552	-10.006200	-0.470880	2.589840	-0.271642	-0.241791	-1.495000	-0.135612	-0.026878	0.034208
278	43.204071	0.161041	-10.006200	0.000000	2.707560	-0.268657	-0.249254	-1.491667	-0.252898	-0.028100	0.042761
279	43.332306	0.129303	-9.888480	0.000000	2.354400	-0.267164	-0.264179	-1.478333	-0.344528	-0.036652	0.048869
280	43.461090	0.178101	-10.123920	0.235440	2.236680	-0.265672	-0.280597	-1.466667	-0.425162	-0.036652	0.057421
281	43.589905	0.146942	-10.006200	0.117720	2.118960	-0.256716	-0.301493	-1.453333	-0.480140	-0.037874	0.054978
282	43.718658	0.195709	-10.241640	0.235440	1.648080	-0.249254	-0.331343	-1.443333	-0.519235	-0.041539	0.056200
283	43.847412	0.164490	-9.888480	0.353160	1.765800	-0.243284	-0.362687	-1.441667	-0.535118	-0.045204	0.065973
284	43.976166	0.133270	-10.006200	0.353160	1.648080	-0.235821	-0.397015	-1.436667	-0.560774	-0.046426	0.072082
285	44.104919	0.182037	-10.123920	0.470880	1.294920	-0.229851	-0.432836	-1.436667	-0.572992	-0.047647	0.065973
286	44.233673	0.150818	-10.006200	0.353160	1.059480	-0.226866	-0.468657	-1.441667	-0.554666	-0.041539	0.059865
287	44.362396	0.199554	-10.241640	0.353160	0.706320	-0.228358	-0.501493	-1.456667	-0.529009	-0.041539	0.065973
288	44.491150	0.168335	-10.123920	0.353160	0.824040	-0.229851	-0.532836	-1.473333	-0.481362	-0.036652	0.052534
289	44.619934	0.137146	-10.006200	0.000000	0.470880	-0.231343	-0.561194	-1.483333	-0.412945	-0.041539	0.047647
290	44.748718	0.185944	-10.123920	0.000000	0.353160	-0.229851	-0.591045	-1.496667	-0.344528	-0.034208	0.036652
291	44.877502	0.154755	-10.241640	0.000000	0.353160	-0.225373	-0.607463	-1.533333	-0.274889	-0.026878	0.032987
292	45.006287	0.203552	-10.123920	-0.235440	-0.235440	-0.228358	-0.608955	-1.555000	-0.142942	-0.026878	0.014661
293	45.135071	0.172363	-10.359360	-0.117720	0.353160	-0.232836	-0.610448	-1.551667	-0.056200	-0.010996	0.008552
294	45.263855	0.141174	-10.241640	-0.235440	1.648080	-0.237313	-0.607463	-1.550000	-0.065973	-0.017104	0.017104
295	45.392639	0.189972	-10.006200	-0.235440	1.648080	-0.237313	-0.611940	-1.550000	-0.078191	-0.015882	0.025656
296	45.521423	0.158783	-10.359360	-0.117720	1.412640	-0.240299	-0.610448	-1.545000	-0.069639	-0.012217	0.012217
297	45.650208	0.126190	-10.123920	-0.117720	1.412640	-0.243284	-0.616418	-1.546667	-0.061087	-0.015882	0.014661
298	45.778931	0.176331	-10.123920	-0.117720	1.648080	-0.246269	-0.619403	-1.540000	-0.068417	-0.017104	0.021991
299	45.907715	0.145142	-10.006200	-1.412640	-0.117720	-0.244776	-0.625373	-1.543333	-0.028100	-0.039095	0.002443
300	46.036530	0.193970	-10.123920	-0.117720	0.941760	-0.244776	-0.619403	-1.541667	-0.042761	-0.013439	0.013439
301	46.165283	0.162750	-10.006200	-0.353160	1.530360	-0.244776	-0.623881	-1.543333	-0.041539	-0.013439	0.013439
302	46.294037	0.131531	-10.123920	-0.235440	1.530360	-0.244776	-0.620896	-1.543333	-0.037874	-0.014661	0.014661
303	46.422852	0.180359	-10.123920	-0.117720	1.530360	-0.246269	-0.622388	-1.543333	-0.040317	-0.012217	0.010996
304	46.551605	0.149139	-10.006200	-0.117720	1.412640	-0.246269	-0.622388	-1.541667	-0.034208	-0.014661	0.012217
305	46.680389	0.197937	-10.123920	-0.117720	1.765800	-0.244776	-0.620896	-1.541667	-0.037874	-0.015882	0.015882
306	46.809174	0.166748	-10.006200	-0.235440	1.412640	-0.246269	-0.622388	-1.541667	-0.045204	-0.012217	0.012217
307	46.937927	0.135529	-10.006200	-0.470880	1.530360	-0.243284	-0.619403	-1.540000	-0.043982	-0.008552	0.003665
308	47.066711	0.184326	-10.123920	-0.117720	1.294920	-0.247761	-0.623881	-1.541667	-0.041539	-0.015882	0.009774
309	47.195496	0.153137	-10.123920	-0.235440	1.412640	-0.241791	-0.619403	-1.541667	-0.035430	-0.014661	0.013439
310	47.324310	0.201965	-10.241640	-0.353160	1.412640	-0.241791	-0.620896	-1.541667	-0.050091	-0.015882	0.010996
311	47.453064	0.170746	-10.006200	-0.117720	1.412640	-0.243284	-0.622388	-1.540000	-0.043982	-0.009774	0.018326
312	47.581848	0.139557	-10.006200	-0.117720	1.530360	-0.246269	-0.622388	-1.541667	-0.040317	-0.015882	0.018326
313	47.710632	0.188354	-10.123920	-0.235440	1.294920	-0.244776	-0.619403	-1.540000	-0.037874	-0.010996	0.009774
314	47.839417	0.157166	-9.888480	-0.117720	1.294920	-0.247761	-0.620896	-1.541667	-0.035430	-0.012217	0.015882
315	47.968231	0.205994	-10.123920	0.000000	1.412640	-0.246269	-0.619403	-1.541667	-0.043982	-0.017104	0.015882
316	48.097015	0.174805	-10.123920	-0.235440	1.412640	-0.244776	-0.622388	-1.540000	-0.036652	-0.015882	0.010996
317	48.225830	0.143646	-10.123920	-0.117720	1.412640	-0.244776	-0.623881	-1.538333	-0.041539	-0.013439	0.013439
318	48.354614	0.190613	-9.888480	-0.117720	1.412640	-0.246269	-0.619403	-1.540000	-0.043982	-0.008552	0.010996
319	48.483398	0.161255	-10.241640	0.000000	1.530360	-0.244776	-0.620896	-1.538333	-0.037874	-0.010996	0.021991
320	48.612213	0.130096	-10.241640	-0.235440	1.412640	-0.244776	-0.619403	-1.540000	-0.039095	-0.009774	0.017104
321	48.740997	0.178894	-10.241640	-0.117720	1.294920	-0.246269	-0.620896	-1.541667	-0.043982	-0.015882	0.018326
322	48.869781	0.147705	-10.006200	-0.353160	1.294920	-0.244776	-0.620896	-1.543333	-0.037874	-0.017104	0.007330
323	48.998566	0.196503	-10.006200	-0.117720	1.412640	-0.246269	-0.619403	-1.540000	-0.034208	-0.018326	0.013439
324	49.127380	0.165344	-10.241640	-0.235440	1.530360	-0.246269	-0.622388	-1.540000	-0.046426	-0.010996	0.013439
325	49.256134	0.134125	-10.123920	0.000000	1.530360	-0.243284	-0.620896	-1.540000	-0.040317	-0.014661	0.013439
326	49.384949	0.182953	-10.006200	-0.117720	1.530360	-0.246269	-0.617910	-1.541667	-0.037874	-0.013439	0.012217
327	49.513763	0.151794	-10.006200	0.000000	1.412640	-0.243284	-0.617910	-1.540000	-0.040317	-0.010996	0.018326
328	49.642548	0.200592	-10.123920	-0.235440	1.412640	-0.244776	-0.620896	-1.540000	-0.037874	-0.015882	0.018326
329	49.771301	0.169373	-10.123920	-0.117720	1.530360	-0.247761	-0.622388	-1.540000	-0.035430	-0.013439	0.017104
330	49.900055	0.138153	-10.123920	-0.117720	1.294920	-0.243284	-0.622388	-1.541667	-0.034208	-0.010996	0.010996
331	50.028839	0.186951	-10.006200	-0.235440	1.294920	-0.241791	-0.619403	-1.541667	-0.036652	-0.007330	0.008552
332	50.157593	0.155731	-10.006200	-0.117720	1.530360	-0.244776	-0.619403	-1.540000	-0.036652	-0.012217	0.018326
333	50.286377	0.204529	-9.888480	-0.117720	1.530360	-0.243284	-0.619403	-1.540000	-0.040317	-0.010996	0.018326
334	50.415161	0.173340	-10.006200	0.000000	1.530360	-0.246269	-0.619403	-1.540000	-0.039095	-0.013439	0.019548
335	50.543915	0.142120	-9.888480	0.000000	1.294920	-0.243284	-0.620896	-1.540000	-0.040317	-0.012217	0.012217
336	50.672668	0.190521	-10.123920	-0.117720	1.412640	-0.246269	-0.619403	-1.541667	-0.045204	-0.013439	0.013439
337	50.801422	0.159668	-10.006200	0.000000	1.530360	-0.244776	-0.622388	-1.538333	-0.034208	-0.009774	0.018326
338	50.930206	0.126190	-10.006200	0.000000	1.412640	-0.243284	-0.619403	-1.538333	-0.042761	-0.012217	0.014661
339	51.059021	0.177307	-10.123920	-0.117720	1.412640	-0.244776	-0.619403	-1.540000	-0.032987	-0.010996	0.010996
340	51.187836	0.146149	-10.359360	-0.235440	1.412640	-0.247761	-0.620896	-1.536667	-0.043982	-0.009774	0.010996
341	51.316620	0.194946	-10.123920	-0.235440	1.412640	-0.243284	-0.623881	-1.543333	-0.032987	-0.017104	0.013439
342	51.445435	0.163788	-10.241640	-0.235440	1.412640	-0.244776	-0.620896	-1.540000	-0.034208	-0.009774	0.012217
343	51.574219	0.132599	-10.006200	-0.117720	1.530360	-0.247761	-0.623881	-1.541667	-0.046426	-0.010996	0.015882
344	51.703003	0.181396	-10.241640	-0.117720	1.412640	-0.244776	-0.619403	-1.540000	-0.040317	-0.013439	0.015882
345	51.831787	0.150208	-10.123920	-0.235440	1.530360	-0.246269	-0.620896	-1.540000	-0.035430	-0.012217	0.015882
346	51.960602	0.199036	-10.123920	-0.235440	1.530360	-0.244776	-0.623881	-1.541667	-0.042761	-0.010996	0.008552
347	52.089386	0.167847	-10.123920	-0.117720	1.412640	-0.246269	-0.620896	-1.540000	-0.032987	-0.008552	0.007330
348	52.218201	0.136688	-10.123920	-0.117720	1.412640	-0.244776	-0.619403	-1.540000	-0.030543	-0.012217	0.009774
349	52.346954	0.185455	-10.123920	-0.117720	1.294920	-0.244776	-0.622388	-1.540000	-0.036652	-0.013439	0.006109
350	52.475739	0.154266	-10.006200	-0.117720	1.412640	-0.244776	-0.622388	-1.540000	-0.047647	-0.010996	0.017104
351	52.604523	0.203064	-10.241640	0.000000	1.530360	-0.243284	-0.622388	-1.540000	-0.039095	-0.010996	0.013439
352	52.733307	0.171875	-10.123920	-0.117720	1.530360	-0.246269	-0.620896	-1.540000	-0.036652	-0.012217	0.013439
353	52.862091	0.140686	-10.123920	-0.353160	1.530360	-0.243284	-0.622388	-1.536667	-0.036652	-0.010996	0.013439
354	52.990875	0.189484	-10.123920	-0.235440	1.412640	-0.247761	-0.620896	-1.540000	-0.041539	-0.008552	0.017104
355	53.119659	0.158295	-10.241640	-0.235440	1.294920	-0.244776	-0.619403	-1.540000	-0.043982	-0.017104	0.014661
356	53.248444	0.126190	-10.123920	-0.117720	1.530360	-0.244776	-0.622388	-1.538333	-0.035430	-0.013439	0.012217
357	53.377228	0.175903	-10.123920	-0.235440	1.530360	-0.243284	-0.622388	-1.540000	-0.037874	-0.010996	0.018326
358	53.506012	0.144714	-10.006200	-0.235440	1.294920	-0.244776	-0.619403	-1.540000	-0.043982	-0.004887	0.012217
359	53.634827	0.193542	-10.006200	-0.353160	1.412640	-0.243284	-0.623881	-1.540000	-0.032987	-0.015882	0.013439
360	53.763641	0.162384	-10.123920	-0.117720	1.294920	-0.243284	-0.620896	-1.543333	-0.034208	-0.012217	0.013439
361	53.892395	0.131165	-10.006200	-0.235440	1.530360	-0.244776	-0.619403	-1.541667	-0.034208	-0.014661	0.015882
362	54.021179	0.179962	-10.123920	-0.235440	1.412640	-0.243284	-0.622388	-1.541667	-0.046426	-0.013439	0.014661
363	54.150024	0.148834	-9.888480	-0.117720	1.530360	-0.244776	-0.619403	-1.540000	-0.031765	-0.013439	0.013439
364	54.278809	0.197632	-10.123920	-0.117720	1.412640	-0.246269	-0.622388	-1.540000	-0.040317	-0.012217	0.013439
365	54.407593	0.166443	-10.123920	0.000000	1.412640	-0.244776	-0.620896	-1.540000	-0.036652	-0.010996	0.013439
366	54.536407	0.135284	-10.123920	-0.117720	1.412640	-0.244776	-0.619403	-1.540000	-0.042761	-0.014661	0.018326
367	54.665192	0.184082	-10.123920	-0.117720	1.412640	-0.247761	-0.619403	-1.541667	-0.040317	-0.013439	0.012217
368	54.793976	0.152893	-10.006200	-0.117720	1.765800	-0.244776	-0.619403	-1.540000	-0.045204	-0.010996	0.012217
369	54.922760	0.201691	-10.006200	-0.235440	1.412640	-0.243284	-0.622388	-1.540000	-0.030543	-0.015882	0.013439
370	55.051544	0.170502	-10.006200	-0.117720	1.530360	-0.246269	-0.620896	-1.538333	-0.034208	-0.015882	0.009774
371	55.180359	0.139343	-10.006200	0.000000	1.412640	-0.243284	-0.622388	-1.538333	-0.040317	-0.012217	0.014661
372	55.309174	0.188171	-10.123920	-0.235440	1.412640	-0.246269	-0.620896	-1.536667	-0.039095	-0.013439	0.013439
373	55.437958	0.156982	-10.123920	-0.117720	1.530360	-0.246269	-0.620896	-1.538333	-0.040317	-0.012217	0.012217
374	55.566742	0.205780	-10.123920	-0.235440	1.412640	-0.246269	-0.619403	-1.538333	-0.043982	-0.010996	0.018326
375	55.695557	0.174622	-10.006200	-0.235440	1.412640	-0.240299	-0.625373	-1.538333	-0.035430	-0.017104	0.013439
376	55.824371	0.143463	-10.241640	-0.117720	1.530360	-0.244776	-0.619403	-1.540000	-0.043982	-0.017104	0.009774
377	55.953156	0.190582	-10.123920	-0.117720	1.177200	-0.247761	-0.620896	-1.536667	-0.041539	-0.010996	0.010996
378	56.081940	0.161072	-10.006200	-0.235440	1.412640	-0.243284	-0.617910	-1.540000	-0.041539	-0.013439	0.009774
379	56.210785	0.129944	-10.123920	-0.235440	1.177200	-0.246269	-0.619403	-1.540000	-0.045204	-0.010996	0.009774
380	56.339569	0.178741	-10.241640	0.000000	1.530360	-0.247761	-0.617910	-1.536667	-0.029322	-0.010996	0.015882
381	56.468414	0.147614	-10.241640	-0.235440	1.294920	-0.244776	-0.617910	-1.536667	-0.042761	-0.013439	0.007330
382	56.597229	0.196442	-10.006200	-0.117720	1.648080	-0.244776	-0.617910	-1.538333	-0.039095	-0.013439	0.018326
383	56.726074	0.165314	-10.006200	0.000000	1.412640	-0.244776	-0.620896	-1.538333	-0.036652	-0.012217	0.015882
384	56.854858	0.134125	-10.123920	-0.235440	1.412640	-0.244776	-0.620896	-1.540000	-0.039095	-0.012217	0.009774
385	56.983643	0.182922	-10.006200	-0.235440	1.412640	-0.244776	-0.619403	-1.536667	-0.042761	-0.013439	0.015882
386	57.112427	0.151733	-10.006200	-0.235440	1.530360	-0.243284	-0.620896	-1.536667	-0.048869	-0.009774	0.012217
387	57.241241	0.200562	-10.123920	-0.117720	1.412640	-0.244776	-0.620896	-1.540000	-0.035430	-0.017104	0.014661
388	57.370026	0.169373	-10.006200	-0.235440	1.412640	-0.244776	-0.620896	-1.540000	-0.037874	-0.014661	0.012217
389	57.498871	0.138245	-10.123920	0.000000	1.530360	-0.243284	-0.620896	-1.536667	-0.036652	-0.013439	0.013439
390	57.627716	0.187103	-10.006200	0.000000	1.412640	-0.244776	-0.620896	-1.538333	-0.039095	-0.013439	0.008552
391	57.756531	0.155945	-10.241640	-0.117720	1.412640	-0.246269	-0.620896	-1.538333	-0.039095	-0.012217	0.012217
392	57.885345	0.204773	-10.006200	-0.117720	1.412640	-0.247761	-0.619403	-1.538333	-0.047647	-0.008552	0.018326
393	58.014160	0.173615	-10.123920	-0.235440	1.530360	-0.244776	-0.622388	-1.536667	-0.036652	-0.012217	0.020769
394	58.142944	0.142426	-9.888480	-0.117720	1.530360	-0.243284	-0.620896	-1.538333	-0.041539	-0.008552	0.014661
395	58.271790	0.190643	-10.123920	0.000000	1.294920	-0.246269	-0.619403	-1.538333	-0.032987	-0.013439	0.009774
396	58.401520	0.161041	-10.006200	-0.117720	1.412640	-0.244776	-0.619403	-1.536667	-0.040317	-0.012217	0.009774
397	58.529388	0.128937	-10.123920	-0.117720	1.412640	-0.244776	-0.620896	-1.538333	-0.034208	-0.012217	0.009774
398	58.658234	0.177795	-10.006200	-0.235440	1.412640	-0.243284	-0.619403	-1.538333	-0.047647	-0.013439	0.014661
399	58.787048	0.146637	-10.123920	-0.235440	1.412640	-0.241791	-0.628358	-1.538333	-0.036652	-0.014661	0.014661
400	58.915894	0.195496	-10.123920	-0.117720	1.294920	-0.243284	-0.619403	-1.538333	-0.045204	-0.012217	0.014661
401	59.044678	0.164307	-10.123920	0.000000	1.412640	-0.244776	-0.620896	-1.538333	-0.028100	-0.009774	0.013439
402	59.173492	0.133148	-9.888480	-0.235440	1.294920	-0.243284	-0.620896	-1.538333	-0.036652	-0.013439	0.007330
403	59.302277	0.181946	-9.888480	-0.235440	1.412640	-0.243284	-0.616418	-1.538333	-0.040317	-0.009774	0.017104
404	59.431091	0.150787	-10.123920	0.000000	1.294920	-0.244776	-0.619403	-1.538333	-0.036652	-0.014661	0.018326
405	59.559906	0.199615	-10.123920	-0.235440	1.294920	-0.243284	-0.617910	-1.536667	-0.046426	-0.017104	0.012217
406	59.688751	0.168488	-10.123920	0.000000	1.648080	-0.243284	-0.617910	-1.538333	-0.036652	-0.010996	0.017104
407	59.817627	0.137390	-10.123920	-0.117720	1.648080	-0.246269	-0.617910	-1.541667	-0.036652	-0.012217	0.018326
408	59.946472	0.186249	-10.123920	-0.117720	1.412640	-0.243284	-0.620896	-1.540000	-0.031765	-0.015882	0.012217
409	60.075317	0.155121	-10.123920	0.000000	1.412640	-0.243284	-0.619403	-1.538333	-0.043982	-0.013439	0.012217
410	60.204163	0.203979	-10.123920	-0.117720	1.294920	-0.244776	-0.619403	-1.538333	-0.040317	-0.007330	0.015882
411	60.333008	0.172852	-10.006200	-0.117720	1.765800	-0.241791	-0.620896	-1.538333	-0.034208	-0.012217	0.013439
412	60.461853	0.141724	-10.006200	-0.235440	1.530360	-0.243284	-0.617910	-1.538333	-0.032987	-0.015882	0.012217
413	60.590729	0.190613	-10.241640	-0.117720	1.294920	-0.246269	-0.620896	-1.538333	-0.042761	-0.009774	0.008552
414	60.719543	0.159454	-10.123920	-0.117720	1.177200	-0.244776	-0.623881	-1.538333	-0.031765	-0.013439	0.017104
415	60.848419	0.126282	-10.123920	-0.117720	1.412640	-0.246269	-0.620896	-1.538333	-0.036652	-0.012217	0.018326
416	60.977234	0.177185	-10.006200	-0.117720	1.412640	-0.241791	-0.620896	-1.540000	-0.040317	-0.009774	0.008552
417	61.106079	0.146057	-9.888480	-0.235440	1.530360	-0.246269	-0.619403	-1.541667	-0.043982	-0.014661	0.015882
418	61.234955	0.194946	-10.006200	0.000000	1.294920	-0.244776	-0.622388	-1.538333	-0.037874	-0.010996	0.009774
419	61.363800	0.163818	-10.006200	-0.235440	1.412640	-0.243284	-0.622388	-1.540000	-0.039095	-0.014661	0.012217
420	61.492676	0.132721	-10.006200	-0.235440	1.294920	-0.244776	-0.619403	-1.536667	-0.032987	-0.013439	0.019548
421	61.621521	0.181580	-10.123920	-0.117720	1.412640	-0.240299	-0.617910	-1.538333	-0.042761	-0.015882	0.012217
422	61.750366	0.150452	-10.123920	0.000000	1.294920	-0.241791	-0.620896	-1.536667	-0.037874	-0.013439	0.009774
423	61.879181	0.199280	-10.241640	0.000000	1.412640	-0.243284	-0.619403	-1.536667	-0.037874	-0.013439	0.008552
424	62.008026	0.168152	-10.123920	-0.235440	1.177200	-0.243284	-0.616418	-1.540000	-0.046426	-0.012217	0.002443
425	62.136871	0.137024	-9.888480	-0.117720	1.412640	-0.244776	-0.620896	-1.536667	-0.035430	-0.012217	0.012217
426	62.265747	0.185913	-10.241640	-0.117720	1.648080	-0.244776	-0.619403	-1.538333	-0.032987	-0.012217	0.014661
427	62.394623	0.154816	-10.241640	-0.235440	1.412640	-0.244776	-0.620896	-1.540000	-0.032987	-0.010996	0.018326
428	62.523468	0.203674	-10.123920	-0.235440	1.412640	-0.243284	-0.619403	-1.536667	-0.034208	-0.014661	0.010996
429	62.652344	0.172577	-10.123920	-0.117720	1.412640	-0.243284	-0.619403	-1.536667	-0.046426	-0.013439	0.021991
430	62.781158	0.141418	-10.006200	-0.235440	1.530360	-0.243284	-0.620896	-1.538333	-0.042761	-0.010996	0.017104
431	62.910034	0.190308	-10.123920	0.000000	1.412640	-0.243284	-0.617910	-1.541667	-0.037874	-0.008552	0.015882
432	63.038910	0.159210	-10.006200	-0.117720	1.530360	-0.244776	-0.619403	-1.538333	-0.036652	-0.012217	0.015882
433	63.167786	0.126282	-10.123920	0.000000	1.412640	-0.246269	-0.620896	-1.538333	-0.031765	-0.013439	0.007330
434	63.296631	0.176971	-10.006200	-0.235440	1.530360	-0.243284	-0.617910	-1.538333	-0.036652	-0.014661	0.019548
435	63.425476	0.145844	-10.241640	-0.117720	1.412640	-0.246269	-0.616418	-1.538333	-0.041539	-0.009774	0.013439
436	63.554291	0.194672	-10.123920	-0.235440	1.412640	-0.243284	-0.622388	-1.536667	-0.031765	-0.013439	0.017104
437	63.683136	0.163544	-10.006200	-0.235440	1.294920	-0.243284	-0.617910	-1.538333	-0.042761	-0.013439	0.013439
438	63.812012	0.132446	-10.123920	-0.235440	1.530360	-0.243284	-0.620896	-1.538333	-0.040317	-0.012217	0.017104
439	63.940887	0.181335	-10.123920	-0.235440	1.412640	-0.241791	-0.619403	-1.536667	-0.043982	-0.012217	0.010996
440	64.069702	0.150177	-10.006200	-0.235440	1.294920	-0.243284	-0.619403	-1.538333	-0.042761	-0.015882	0.008552
441	64.198547	0.199036	-10.123920	-0.117720	1.530360	-0.243284	-0.619403	-1.536667	-0.037874	-0.014661	0.007330
442	64.327362	0.167877	-10.006200	-0.117720	1.648080	-0.240299	-0.619403	-1.538333	-0.042761	-0.008552	0.008552
443	64.456177	0.136719	-10.123920	-0.235440	1.530360	-0.244776	-0.619403	-1.540000	-0.037874	-0.018326	0.014661
444	64.584991	0.185547	-10.123920	-0.117720	1.530360	-0.244776	-0.619403	-1.536667	-0.041539	-0.009774	0.013439
445	64.713806	0.154388	-10.006200	-0.117720	1.530360	-0.246269	-0.620896	-1.540000	-0.040317	-0.012217	0.010996
446	64.842651	0.203247	-10.006200	-0.117720	1.530360	-0.244776	-0.617910	-1.536667	-0.041539	-0.012217	0.012217
447	64.971466	0.172089	-10.123920	-0.353160	1.530360	-0.244776	-0.619403	-1.536667	-0.039095	-0.018326	0.017104
448	65.100311	0.140961	-10.006200	-0.117720	1.412640	-0.244776	-0.617910	-1.538333	-0.037874	-0.013439	0.012217
449	65.229126	0.189789	-10.006200	-0.353160	1.530360	-0.240299	-0.620896	-1.538333	-0.031765	-0.015882	0.012217
450	65.357971	0.158661	-10.123920	0.000000	1.530360	-0.241791	-0.616418	-1.538333	-0.039095	-0.010996	0.012217
451	65.486816	0.126251	-10.123920	-0.235440	1.412640	-0.243284	-0.619403	-1.540000	-0.040317	-0.008552	0.012217
452	65.615631	0.176361	-10.123920	-0.117720	1.412640	-0.243284	-0.617910	-1.536667	-0.031765	-0.010996	0.012217
453	65.744476	0.145233	-10.123920	0.000000	1.294920	-0.244776	-0.623881	-1.540000	-0.041539	-0.009774	0.007330
454	65.873291	0.194061	-10.123920	0.000000	1.412640	-0.240299	-0.617910	-1.536667	-0.037874	-0.012217	0.007330
455	66.002106	0.162903	-9.888480	-0.117720	1.530360	-0.244776	-0.619403	-1.536667	-0.040317	-0.014661	0.008552
456	66.130951	0.131775	-10.006200	-0.235440	1.412640	-0.244776	-0.617910	-1.536667	-0.042761	-0.015882	0.014661
457	66.259766	0.180603	-10.006200	-0.117720	1.412640	-0.244776	-0.620896	-1.538333	-0.034208	-0.013439	0.010996
458	66.388611	0.149475	-10.123920	-0.235440	1.412640	-0.246269	-0.620896	-1.540000	-0.040317	-0.018326	0.018326
459	66.517426	0.198303	-10.006200	-0.117720	1.294920	-0.246269	-0.619403	-1.536667	-0.041539	-0.017104	0.007330
460	66.646301	0.167206	-10.241640	0.000000	1.412640	-0.241791	-0.617910	-1.538333	-0.039095	-0.012217	0.007330
461	66.775116	0.136047	-10.123920	-0.117720	1.530360	-0.241791	-0.616418	-1.538333	-0.043982	-0.015882	0.006109
462	66.903961	0.184906	-10.006200	-0.117720	1.412640	-0.243284	-0.619403	-1.536667	-0.040317	-0.015882	0.010996
463	67.032806	0.153778	-10.123920	-0.117720	1.412640	-0.243284	-0.617910	-1.536667	-0.039095	-0.009774	0.010996
464	67.161621	0.202606	-10.123920	-0.235440	1.412640	-0.244776	-0.614925	-1.535000	-0.032987	-0.013439	0.010996
465	67.290466	0.171478	-10.006200	-0.117720	1.530360	-0.244776	-0.617910	-1.536667	-0.036652	-0.014661	0.019548
466	67.419312	0.140350	-10.123920	-0.235440	1.412640	-0.244776	-0.617910	-1.538333	-0.047647	-0.014661	0.014661
467	67.548157	0.189209	-10.006200	-0.117720	1.294920	-0.241791	-0.619403	-1.536667	-0.042761	-0.012217	0.008552
468	67.677002	0.158081	-10.123920	0.000000	1.648080	-0.244776	-0.620896	-1.536667	-0.040317	-0.004887	0.021991
469	67.805847	0.126251	-10.241640	-0.235440	1.412640	-0.243284	-0.617910	-1.536667	-0.041539	-0.010996	0.008552
470	67.934662	0.175781	-10.123920	-0.117720	1.412640	-0.243284	-0.617910	-1.536667	-0.035430	-0.012217	0.009774
471	68.063507	0.144653	-10.123920	-0.117720	1.412640	-0.243284	-0.619403	-1.535000	-0.035430	-0.010996	0.010996
472	68.192352	0.193512	-10.123920	-0.235440	1.412640	-0.247761	-0.620896	-1.548333	-0.041539	-0.013439	0.009774
473	68.321167	0.162354	-10.123920	-0.235440	1.412640	-0.238806	-0.616418	-1.575000	-0.034208	-0.014661	0.000000
474	68.450012	0.131226	-10.123920	-0.235440	1.648080	-0.223881	-0.604478	-1.598333	-0.029322	-0.014661	0.007330
475	68.578827	0.180054	-10.006200	-0.235440	1.530360	-0.214925	-0.565672	-1.650000	-0.042761	-0.015882	0.020769
476	68.707642	0.148895	-10.006200	-0.117720	1.648080	-0.222388	-0.455224	-1.768333	-0.045204	-0.017104	0.029322
477	68.836456	0.197723	-10.123920	-0.353160	1.177200	-0.249254	-0.217910	-1.835000	-0.007330	0.002443	0.004887
478	68.965302	0.166595	-10.123920	-0.117720	1.294920	-0.147761	-0.243284	-1.818333	-0.017104	-0.006109	0.008552
479	69.094147	0.135468	-9.888480	-0.235440	1.530360	-0.129851	-0.191045	-1.828333	-0.029322	-0.004887	0.007330
480	69.222961	0.184296	-10.006200	-0.235440	1.530360	-0.105970	0.149254	-2.115000	-0.041539	-0.014661	0.019548
481	69.351837	0.153198	-10.006200	-0.353160	1.412640	-0.017910	0.143284	-2.080000	-0.047647	-0.026878	0.017104
482	69.480713	0.202087	-10.123920	-0.470880	1.177200	0.038806	-0.044776	-2.045000	-0.039095	-0.019548	0.023213
483	69.609589	0.170990	-10.123920	-0.235440	1.294920	0.014925	-0.385075	-1.926667	0.000000	0.007330	0.010996
484	69.738464	0.139893	-10.123920	-0.235440	1.294920	-0.095522	-0.374627	-1.938333	-0.054978	-0.024435	0.014661
485	69.867340	0.188782	-9.770760	-0.235440	1.294920	-0.070149	-0.174627	-1.868333	-0.026878	-0.001222	0.012217
486	69.996185	0.157654	-10.123920	-0.117720	1.294920	0.061194	-0.344776	-1.840000	-0.042761	-0.017104	0.018326
487	70.125031	0.126251	-10.123920	-0.117720	1.412640	0.182090	-0.177612	-1.875000	0.150273	0.073304	-0.019548
488	70.253876	0.175385	-10.123920	-0.235440	1.294920	0.176119	-0.086567	-1.891667	-0.019548	-0.013439	0.012217
489	70.382721	0.144257	-10.123920	-0.117720	1.530360	0.165672	-0.107463	-1.883333	-0.067195	-0.025656	0.053756
490	70.511566	0.190674	-10.241640	0.000000	1.294920	0.100000	-0.101493	-1.880000	-0.032987	-0.028100	0.026878
491	70.640411	0.161987	-10.241640	0.000000	1.294920	0.095522	-0.086567	-1.866667	-0.034208	-0.008552	0.054978
492	70.769257	0.130859	-10.241640	0.000000	1.412640	0.067164	-0.067164	-1.858333	-0.036652	-0.003665	0.006109
493	70.898163	0.179779	-10.241640	-0.117720	1.530360	0.026866	-0.089552	-1.846667	-0.042761	-0.008552	-0.050091
494	71.027069	0.148712	-10.123920	-0.117720	1.294920	-0.376119	-0.358209	-1.751667	-0.040317	-0.009774	0.006109
495	71.155914	0.197571	-10.241640	0.000000	1.412640	-0.429851	-0.458209	-1.743333	-0.042761	-0.009774	0.010996
496	71.284790	0.166473	-10.241640	-0.235440	1.177200	-0.604478	-0.113433	-1.738333	-0.042761	-0.015882	0.012217
497	71.413635	0.135345	-10.241640	-0.117720	1.412640	-0.388060	0.116418	-1.773333	-0.037874	-0.009774	0.017104
498	71.542480	0.184204	-10.123920	-0.117720	0.588600	-0.144776	0.134328	-1.805000	-0.037874	-0.013439	0.010996
499	71.671356	0.153107	-10.123920	0.000000	1.412640	-0.119403	0.094030	-1.801667	-0.001222	0.000000	0.040317
500	71.800262	0.202026	-9.888480	-0.235440	1.294920	-0.140299	0.080597	-1.898333	-0.034208	-0.007330	0.020769
501	71.929138	0.170929	-10.123920	-0.117720	1.530360	-0.064179	-0.083582	-1.938333	-0.034208	-0.021991	0.014661
502	72.058014	0.139832	-10.006200	-0.117720	1.412640	-0.020896	-0.191045	-1.885000	-0.031765	-0.009774	0.017104
503	72.186890	0.188721	-10.006200	0.000000	1.412640	-0.049254	-0.302985	-1.850000	-0.041539	-0.010996	0.013439
504	72.315735	0.157593	-10.123920	0.000000	1.412640	-0.122388	-0.271642	-1.881667	-0.039095	-0.012217	0.013439
505	72.444580	0.126251	-10.123920	-0.117720	1.294920	-0.346269	-0.279104	-1.845000	-0.039095	-0.008552	0.012217
506	72.573425	0.175323	-10.123920	-0.117720	1.530360	-0.237313	-0.368657	-1.785000	-0.032987	-0.013439	0.007330
507	72.702240	0.144165	-10.123920	0.000000	1.177200	-0.144776	-0.528358	-1.630000	-0.040317	-0.009774	0.012217
508	72.831055	0.190643	-10.123920	-0.117720	1.412640	-0.047761	-0.497015	-1.668333	-0.035430	-0.010996	0.013439
509	72.959900	0.161865	-10.123920	-0.117720	1.412640	0.002985	-0.067164	-1.895000	-0.030543	-0.019548	0.018326
510	73.088745	0.130737	-10.123920	-0.117720	1.412640	-0.656716	0.316418	-1.831667	-0.025656	-0.017104	-0.003665
511	73.217590	0.179596	-9.888480	0.000000	1.294920	-0.229851	-0.432836	-1.726667	-0.032987	-0.013439	0.013439
512	73.346436	0.148468	-10.006200	0.000000	1.412640	-0.338806	-0.671642	-1.530000	-0.045204	-0.013439	-0.010996
