# FOX Logger (IMU file)
# (c) INRIA 2013
## File created from file data/HIGPS01.RAW
#
# File format:
# id	t	dt	ax	ay	az	mx	my	mz	gx	gy	gz
#
# Units:
#	Time: s
#	Acceleration: m.s^-2
#	Magnetic field: gauss
#	Rotation speed: rad.s^-1
#
1	7.553497	-65.644470	-10.006200	-0.117720	1.294920	-0.377612	-0.386567	-1.581667	-0.036652	-0.014661	0.008552
2	7.682251	0.073273	-10.123920	-0.117720	1.294920	-0.379104	-0.382090	-1.578333	-0.040317	-0.008552	0.015882
3	7.811035	0.202057	-10.006200	-0.117720	1.530360	-0.370149	-0.379104	-1.585000	-0.041539	-0.009774	0.014661
4	7.939789	0.170837	-10.006200	-0.235440	1.294920	-0.371642	-0.380597	-1.588333	-0.041539	-0.010996	0.017104
5	8.068542	0.139618	-10.006200	-0.235440	1.294920	-0.371642	-0.379104	-1.586667	-0.037874	-0.012217	0.017104
6	8.197327	0.188416	-10.006200	-0.117720	1.530360	-0.370149	-0.377612	-1.590000	-0.037874	-0.010996	0.012217
7	8.326111	0.157227	-10.006200	0.000000	1.412640	-0.368657	-0.377612	-1.586667	-0.037874	-0.012217	0.019548
8	8.454926	0.206055	-9.888480	0.000000	1.412640	-0.370149	-0.379104	-1.588333	-0.045204	-0.017104	0.017104
9	8.583710	0.174866	-10.123920	-0.117720	1.294920	-0.373134	-0.380597	-1.588333	-0.032987	-0.012217	0.017104
10	8.712494	0.143677	-10.123920	-0.117720	1.530360	-0.368657	-0.380597	-1.586667	-0.041539	-0.013439	0.008552
11	8.841248	0.190552	-10.123920	-0.117720	1.412640	-0.368657	-0.376119	-1.591667	-0.041539	-0.009774	0.012217
12	8.970001	0.161224	-10.006200	-0.117720	1.412640	-0.371642	-0.374627	-1.588333	-0.045204	-0.010996	0.013439
13	9.098755	0.130005	-10.006200	-0.235440	1.530360	-0.368657	-0.377612	-1.591667	-0.040317	-0.012217	0.017104
14	9.227509	0.178772	-10.006200	-0.235440	1.294920	-0.368657	-0.380597	-1.588333	-0.036652	-0.013439	0.008552
15	9.356262	0.147552	-10.123920	-0.117720	1.294920	-0.371642	-0.379104	-1.586667	-0.043982	-0.014661	0.014661
16	9.485046	0.196350	-9.888480	-0.117720	1.294920	-0.368657	-0.377612	-1.588333	-0.039095	-0.015882	0.012217
17	9.613861	0.165192	-10.241640	0.000000	1.530360	-0.370149	-0.376119	-1.588333	-0.036652	-0.008552	0.010996
18	9.742645	0.134003	-9.888480	0.000000	1.648080	-0.367164	-0.377612	-1.588333	-0.040317	-0.007330	0.012217
19	9.871460	0.182831	-10.123920	-0.117720	1.294920	-0.368657	-0.377612	-1.590000	-0.045204	-0.012217	0.015882
20	10.000244	0.151642	-10.123920	-0.235440	1.412640	-0.370149	-0.379104	-1.590000	-0.032987	-0.012217	0.013439
21	10.129028	0.200439	-10.123920	0.000000	1.177200	-0.368657	-0.380597	-1.586667	-0.034208	-0.008552	0.014661
22	10.257812	0.169250	-10.123920	-0.117720	1.530360	-0.368657	-0.374627	-1.591667	-0.041539	-0.012217	0.010996
23	10.386566	0.138031	-10.241640	-0.117720	1.530360	-0.370149	-0.379104	-1.588333	-0.045204	-0.010996	0.012217
24	10.515320	0.186798	-10.123920	-0.235440	1.530360	-0.368657	-0.377612	-1.590000	-0.043982	-0.013439	0.008552
25	10.644104	0.155609	-10.123920	0.000000	1.412640	-0.367164	-0.377612	-1.588333	-0.040317	-0.014661	0.009774
26	10.772858	0.204376	-10.123920	-0.117720	1.648080	-0.368657	-0.379104	-1.586667	-0.045204	-0.013439	0.020769
27	10.901611	0.173157	-10.123920	0.000000	1.530360	-0.368657	-0.376119	-1.586667	-0.043982	-0.012217	0.007330
28	11.030334	0.141907	-10.123920	0.000000	1.412640	-0.370149	-0.379104	-1.588333	-0.041539	-0.014661	0.013439
29	11.159119	0.190552	-10.241640	-0.117720	1.412640	-0.370149	-0.377612	-1.588333	-0.045204	-0.012217	0.012217
30	11.287903	0.159515	-9.888480	0.000000	1.412640	-0.364179	-0.377612	-1.590000	-0.035430	-0.010996	0.012217
31	11.416687	0.126190	-10.123920	-0.117720	1.530360	-0.368657	-0.379104	-1.591667	-0.043982	-0.010996	0.015882
32	11.545502	0.177155	-10.006200	0.000000	1.530360	-0.367164	-0.374627	-1.590000	-0.045204	-0.014661	0.008552
33	11.674286	0.145966	-10.123920	0.000000	1.530360	-0.368657	-0.377612	-1.583333	-0.039095	-0.008552	0.012217
34	11.803070	0.194763	-9.888480	0.000000	1.530360	-0.367164	-0.379104	-1.588333	-0.039095	-0.013439	0.012217
35	11.931854	0.163574	-10.123920	0.000000	1.294920	-0.368657	-0.376119	-1.591667	-0.041539	-0.007330	0.014661
36	12.060669	0.132416	-10.006200	-0.235440	1.177200	-0.365672	-0.374627	-1.586667	-0.045204	-0.015882	0.018326
37	12.189484	0.181244	-10.123920	-0.117720	1.412640	-0.370149	-0.376119	-1.586667	-0.036652	-0.009774	0.017104
38	12.318329	0.150116	-10.241640	-0.353160	1.530360	-0.367164	-0.377612	-1.588333	-0.041539	-0.014661	0.020769
39	12.447174	0.198975	-10.006200	-0.117720	1.765800	-0.367164	-0.379104	-1.590000	-0.042761	-0.012217	0.013439
40	12.575989	0.167816	-10.123920	-0.117720	1.530360	-0.368657	-0.376119	-1.588333	-0.037874	-0.014661	0.012217
41	12.704803	0.136658	-10.123920	-0.235440	1.294920	-0.371642	-0.379104	-1.588333	-0.045204	-0.007330	0.013439
42	12.833649	0.185516	-10.123920	0.000000	1.412640	-0.367164	-0.373134	-1.588333	-0.043982	-0.009774	0.019548
43	12.962433	0.154327	-10.123920	-0.117720	1.412640	-0.370149	-0.376119	-1.588333	-0.041539	-0.009774	0.015882
44	13.091248	0.203156	-10.006200	-0.235440	1.530360	-0.367164	-0.379104	-1.588333	-0.036652	-0.015882	0.010996
45	13.220062	0.171997	-10.006200	-0.117720	1.412640	-0.368657	-0.376119	-1.590000	-0.040317	-0.010996	0.013439
46	13.348846	0.140808	-10.006200	-0.117720	1.530360	-0.367164	-0.376119	-1.588333	-0.031765	-0.014661	0.018326
47	13.477661	0.189636	-10.123920	-0.235440	1.412640	-0.368657	-0.376119	-1.586667	-0.035430	-0.014661	0.010996
48	13.606445	0.158447	-10.006200	0.000000	1.412640	-0.367164	-0.376119	-1.588333	-0.041539	-0.010996	0.009774
49	13.735260	0.126221	-10.123920	-0.235440	1.412640	-0.365672	-0.376119	-1.588333	-0.041539	-0.012217	0.014661
50	13.864044	0.176086	-10.123920	-0.117720	1.412640	-0.368657	-0.377612	-1.590000	-0.036652	-0.013439	0.015882
51	13.992798	0.144867	-10.123920	0.000000	1.412640	-0.365672	-0.374627	-1.586667	-0.043982	-0.010996	0.015882
52	14.121582	0.193665	-10.123920	-0.117720	1.648080	-0.368657	-0.376119	-1.588333	-0.039095	-0.014661	0.014661
53	14.250336	0.162445	-10.123920	0.000000	1.530360	-0.368657	-0.376119	-1.588333	-0.045204	-0.012217	0.017104
54	14.379150	0.131287	-10.123920	-0.117720	1.412640	-0.367164	-0.377612	-1.588333	-0.042761	-0.012217	0.010996
55	14.507935	0.180084	-10.123920	-0.117720	1.294920	-0.365672	-0.374627	-1.590000	-0.039095	-0.010996	0.015882
56	14.636719	0.148895	-10.241640	-0.117720	1.412640	-0.367164	-0.376119	-1.590000	-0.041539	-0.012217	0.009774
57	14.765533	0.197723	-10.123920	-0.117720	1.648080	-0.370149	-0.377612	-1.588333	-0.041539	-0.012217	0.014661
58	14.894348	0.166565	-10.006200	0.000000	1.412640	-0.365672	-0.377612	-1.591667	-0.036652	-0.012217	0.013439
59	15.023163	0.135406	-10.006200	-0.235440	1.412640	-0.365672	-0.373134	-1.590000	-0.051313	-0.010996	0.013439
60	15.151978	0.184235	-10.241640	-0.117720	1.412640	-0.367164	-0.376119	-1.588333	-0.037874	-0.013439	0.010996
61	15.280792	0.153076	-10.123920	-0.117720	1.530360	-0.368657	-0.377612	-1.591667	-0.045204	-0.012217	0.015882
62	15.409637	0.201935	-10.241640	0.000000	1.412640	-0.368657	-0.377612	-1.591667	-0.040317	-0.010996	0.020769
63	15.538452	0.170776	-10.006200	-0.117720	1.294920	-0.367164	-0.374627	-1.591667	-0.041539	-0.012217	0.009774
64	15.667267	0.139618	-10.123920	-0.117720	1.412640	-0.367164	-0.377612	-1.593333	-0.042761	-0.010996	0.007330
65	15.796143	0.188507	-10.006200	-0.117720	1.530360	-0.368657	-0.377612	-1.590000	-0.042761	-0.010996	0.012217
66	15.924988	0.157379	-10.006200	-0.235440	1.412640	-0.367164	-0.379104	-1.591667	-0.037874	-0.009774	0.009774
67	16.053833	0.126251	-10.006200	-0.117720	1.530360	-0.364179	-0.374627	-1.590000	-0.042761	-0.009774	0.008552
68	16.182678	0.175110	-10.006200	0.000000	1.412640	-0.368657	-0.379104	-1.593333	-0.043982	-0.010996	0.012217
69	16.311493	0.143951	-10.123920	0.000000	1.412640	-0.367164	-0.374627	-1.593333	-0.040317	-0.015882	0.009774
70	16.440308	0.190643	-10.123920	-0.235440	1.412640	-0.367164	-0.377612	-1.591667	-0.040317	-0.012217	0.014661
71	16.569092	0.161591	-10.123920	-0.117720	1.294920	-0.368657	-0.374627	-1.591667	-0.040317	-0.013439	0.009774
72	16.697906	0.130432	-10.123920	-0.117720	1.530360	-0.368657	-0.376119	-1.595000	-0.039095	-0.012217	0.012217
73	16.826691	0.179230	-10.006200	-0.235440	1.294920	-0.364179	-0.379104	-1.590000	-0.043982	-0.015882	0.012217
74	16.955475	0.148041	-10.123920	-0.117720	1.294920	-0.365672	-0.379104	-1.591667	-0.041539	-0.012217	0.010996
75	17.084290	0.196869	-9.888480	-0.117720	1.648080	-0.365672	-0.374627	-1.591667	-0.035430	-0.014661	0.012217
76	17.213104	0.165710	-10.123920	-0.235440	1.412640	-0.367164	-0.376119	-1.588333	-0.036652	-0.012217	0.010996
77	17.341919	0.134552	-10.123920	-0.117720	1.530360	-0.368657	-0.382090	-1.591667	-0.034208	-0.014661	0.010996
78	17.470703	0.183350	-10.123920	-0.117720	1.412640	-0.367164	-0.374627	-1.591667	-0.039095	-0.009774	0.014661
79	17.599518	0.152191	-10.006200	-0.235440	1.412640	-0.368657	-0.380597	-1.596667	-0.042761	-0.009774	0.013439
80	17.728333	0.201019	-10.123920	0.000000	1.412640	-0.367164	-0.376119	-1.593333	-0.036652	-0.009774	0.010996
81	17.857117	0.169830	-10.006200	-0.235440	1.412640	-0.367164	-0.379104	-1.591667	-0.039095	-0.013439	0.014661
82	17.985931	0.138672	-9.888480	-0.235440	1.412640	-0.368657	-0.376119	-1.591667	-0.034208	-0.014661	0.009774
83	18.114777	0.187531	-10.123920	-0.235440	1.648080	-0.367164	-0.374627	-1.591667	-0.046426	-0.009774	0.019548
84	18.243561	0.156342	-10.123920	-0.117720	1.530360	-0.367164	-0.376119	-1.593333	-0.036652	-0.012217	0.018326
85	18.372406	0.205200	-10.123920	-0.117720	1.294920	-0.367164	-0.380597	-1.591667	-0.048869	-0.010996	0.010996
86	18.501221	0.174042	-10.123920	-0.117720	1.648080	-0.368657	-0.377612	-1.588333	-0.037874	-0.015882	0.014661
87	18.630035	0.142883	-10.123920	-0.117720	1.530360	-0.367164	-0.374627	-1.590000	-0.039095	-0.010996	0.010996
88	18.758850	0.190643	-10.006200	0.000000	1.412640	-0.367164	-0.376119	-1.591667	-0.041539	-0.010996	0.010996
89	18.888153	0.161041	-10.123920	-0.235440	1.530360	-0.364179	-0.377612	-1.588333	-0.041539	-0.009774	0.017104
90	19.016449	0.129364	-10.123920	-0.117720	1.530360	-0.368657	-0.379104	-1.591667	-0.042761	-0.012217	0.014661
91	19.145233	0.178162	-10.123920	-0.117720	1.530360	-0.368657	-0.374627	-1.593333	-0.039095	-0.012217	0.014661
92	19.274048	0.147003	-10.006200	0.000000	1.530360	-0.364179	-0.379104	-1.590000	-0.039095	-0.013439	0.010996
93	19.402832	0.195801	-10.006200	0.000000	1.412640	-0.368657	-0.374627	-1.590000	-0.040317	-0.014661	0.013439
94	19.531677	0.164673	-10.123920	-0.117720	1.412640	-0.368657	-0.377612	-1.590000	-0.026878	-0.012217	0.019548
95	19.660492	0.133514	-10.123920	-0.117720	1.294920	-0.365672	-0.373134	-1.590000	-0.046426	-0.014661	0.010996
96	19.789337	0.182373	-10.123920	0.000000	1.294920	-0.367164	-0.377612	-1.595000	-0.045204	-0.014661	0.006109
97	19.918182	0.151245	-10.241640	0.000000	1.412640	-0.365672	-0.374627	-1.591667	-0.037874	-0.008552	0.007330
98	20.047028	0.200104	-10.123920	-0.235440	1.294920	-0.368657	-0.376119	-1.590000	-0.037874	-0.017104	0.012217
99	20.175873	0.168976	-10.123920	-0.117720	1.530360	-0.365672	-0.374627	-1.590000	-0.045204	-0.013439	0.012217
100	20.304688	0.137817	-10.123920	-0.117720	1.412640	-0.371642	-0.379104	-1.590000	-0.035430	-0.012217	0.014661
101	20.433533	0.186676	-10.006200	-0.117720	1.530360	-0.370149	-0.377612	-1.591667	-0.043982	-0.013439	0.012217
102	20.562378	0.155548	-10.123920	-0.117720	1.648080	-0.368657	-0.377612	-1.591667	-0.048869	-0.009774	0.018326
103	20.691193	0.204376	-10.123920	-0.117720	1.530360	-0.370149	-0.377612	-1.593333	-0.037874	-0.012217	0.013439
104	20.820038	0.173248	-10.241640	0.000000	1.059480	-0.370149	-0.377612	-1.591667	-0.064752	-0.023213	0.003665
105	20.948944	0.142181	-10.123920	0.000000	0.824040	-0.371642	-0.376119	-1.593333	0.000000	-0.003665	0.002443
106	21.077820	0.190735	-10.123920	-0.353160	0.117720	-0.367164	-0.367164	-1.595000	0.101404	-0.007330	-0.004887
107	21.206696	0.159973	-10.123920	0.000000	0.706320	-0.352239	-0.362687	-1.598333	0.160047	0.009774	-0.014661
108	21.335571	0.126312	-10.123920	0.000000	-1.059480	-0.349254	-0.359701	-1.575000	0.276111	0.102625	-0.030543
109	21.464386	0.177704	-10.359360	0.235440	-0.706320	-0.353731	-0.329851	-1.536667	0.461814	0.023213	-0.046426
110	21.593262	0.146606	-10.241640	0.588600	0.000000	-0.352239	-0.289552	-1.518333	0.580322	0.026878	-0.050091
111	21.722107	0.195465	-10.006200	1.177200	1.294920	-0.346269	-0.252239	-1.500000	0.621861	0.034208	-0.047647
112	21.850983	0.164368	-9.888480	1.294920	1.765800	-0.344776	-0.210448	-1.488333	0.588874	0.028100	-0.041539
113	21.979828	0.133240	-10.006200	0.941760	2.001240	-0.352239	-0.170149	-1.480000	0.520457	0.029322	-0.032987
114	22.108704	0.182129	-10.123920	0.824040	1.530360	-0.359701	-0.132836	-1.486667	0.487470	0.028100	-0.032987
115	22.237549	0.151001	-10.241640	0.470880	1.765800	-0.364179	-0.097015	-1.488333	0.454484	0.014661	-0.031765
116	22.366394	0.199860	-10.123920	0.353160	2.472120	-0.374627	-0.065672	-1.496667	0.392175	0.014661	-0.023213
117	22.495239	0.168732	-10.123920	0.117720	2.236680	-0.377612	-0.041791	-1.510000	0.290772	0.012217	-0.013439
118	22.624115	0.137634	-10.123920	0.000000	2.001240	-0.383582	-0.022388	-1.518333	0.222355	0.001222	-0.018326
119	22.752991	0.186523	-10.006200	-0.117720	2.118960	-0.385075	-0.010448	-1.528333	0.166155	-0.001222	-0.001222
120	22.881836	0.155396	-10.006200	0.000000	2.118960	-0.388060	0.000000	-1.535000	0.094073	-0.001222	0.004887
121	23.010742	0.204315	-10.006200	0.000000	1.412640	-0.388060	0.004478	-1.546667	0.083078	-0.002443	0.000000
122	23.139618	0.173218	-10.594800	0.000000	0.824040	-0.391045	0.008955	-1.550000	-0.129503	0.003665	0.013439
123	23.268494	0.142120	-10.241640	-0.235440	-0.588600	-0.388060	0.004478	-1.543333	-0.050091	-0.013439	0.001222
124	23.397400	0.190765	-10.006200	0.000000	0.706320	-0.388060	0.004478	-1.543333	0.009774	-0.020769	0.006109
125	23.526276	0.159943	-9.888480	-0.117720	3.178440	-0.389552	0.008955	-1.548333	0.001222	-0.037874	0.035430
126	23.655121	0.126251	-10.123920	-0.117720	-1.648080	-0.389552	0.008955	-1.550000	0.042761	-0.184481	-0.013439
127	23.783936	0.177643	-10.123920	0.000000	1.412640	-0.388060	0.008955	-1.551667	-0.018326	-0.001222	-0.009774
128	23.912781	0.146515	-9.888480	-0.117720	2.236680	-0.388060	0.007463	-1.551667	-0.003665	0.014661	0.014661
129	24.041656	0.195404	-10.006200	-0.117720	1.648080	-0.388060	0.005970	-1.550000	-0.040317	-0.014661	0.014661
130	24.170563	0.164337	-10.123920	0.000000	1.412640	-0.389552	0.007463	-1.550000	-0.052534	-0.009774	0.019548
131	24.299438	0.133240	-10.241640	-0.117720	1.177200	-0.391045	0.007463	-1.545000	-0.053756	-0.014661	0.014661
132	24.428284	0.182098	-10.241640	-0.117720	1.294920	-0.389552	0.004478	-1.550000	-0.045204	-0.010996	0.014661
133	24.557190	0.151031	-10.123920	-0.117720	1.412640	-0.391045	0.007463	-1.546667	-0.043982	-0.004887	0.013439
134	24.686035	0.199890	-10.006200	-0.235440	1.294920	-0.386567	0.004478	-1.548333	-0.036652	-0.013439	0.017104
135	24.814911	0.168793	-10.006200	-0.117720	1.412640	-0.385075	0.007463	-1.545000	-0.034208	-0.009774	0.010996
136	24.943787	0.137695	-10.241640	-0.117720	1.294920	-0.386567	0.004478	-1.545000	-0.034208	-0.017104	0.007330
137	25.072662	0.186584	-10.241640	-0.117720	1.059480	-0.385075	0.007463	-1.546667	-0.035430	-0.009774	0.008552
138	25.201538	0.155487	-10.123920	0.000000	1.530360	-0.385075	0.005970	-1.543333	-0.031765	-0.018326	0.012217
139	25.330383	0.204346	-10.006200	0.000000	1.412640	-0.385075	0.005970	-1.548333	-0.041539	-0.010996	0.012217
140	25.459229	0.173218	-10.123920	-0.117720	1.294920	-0.388060	0.004478	-1.543333	-0.041539	-0.012217	0.010996
141	25.588104	0.142120	-10.123920	0.000000	1.412640	-0.389552	0.004478	-1.546667	-0.042761	-0.012217	0.018326
142	25.716949	0.190674	-10.241640	-0.117720	1.412640	-0.388060	0.005970	-1.543333	-0.039095	-0.008552	0.015882
143	25.845764	0.159821	-10.123920	0.000000	1.412640	-0.386567	0.004478	-1.545000	-0.045204	-0.008552	0.008552
144	25.974609	0.126221	-10.123920	-0.117720	1.412640	-0.388060	0.005970	-1.545000	-0.037874	-0.014661	0.009774
145	26.103424	0.177521	-10.006200	-0.235440	1.412640	-0.386567	0.004478	-1.543333	-0.037874	-0.009774	0.013439
146	26.232269	0.146393	-10.006200	-0.117720	1.412640	-0.388060	0.008955	-1.545000	-0.040317	-0.014661	0.015882
147	26.361145	0.195282	-10.123920	-0.235440	1.412640	-0.388060	0.005970	-1.546667	-0.045204	-0.015882	0.015882
148	26.489960	0.164124	-10.006200	-0.117720	1.412640	-0.386567	0.005970	-1.543333	-0.032987	-0.018326	0.015882
149	26.618805	0.132996	-10.006200	0.000000	1.412640	-0.386567	0.007463	-1.545000	-0.043982	-0.007330	0.007330
150	26.747681	0.181885	-10.123920	-0.117720	1.412640	-0.388060	0.007463	-1.543333	-0.043982	-0.009774	0.012217
151	26.876526	0.150757	-9.888480	-0.117720	1.177200	-0.388060	0.005970	-1.543333	-0.036652	-0.012217	0.007330
152	27.005402	0.199646	-9.888480	-0.353160	1.530360	-0.388060	0.008955	-1.541667	-0.039095	-0.009774	0.017104
153	27.134247	0.168518	-10.123920	-0.235440	1.177200	-0.389552	0.007463	-1.541667	-0.032987	-0.018326	0.014661
154	27.263123	0.137421	-10.123920	-0.117720	1.412640	-0.388060	0.007463	-1.546667	-0.036652	-0.012217	0.018326
155	27.391968	0.186279	-10.123920	0.000000	1.412640	-0.388060	0.005970	-1.545000	-0.045204	-0.010996	0.014661
156	27.520844	0.155182	-10.123920	-0.353160	1.530360	-0.389552	0.005970	-1.543333	-0.039095	-0.014661	0.012217
157	27.649689	0.204041	-10.123920	-0.117720	1.294920	-0.382090	0.005970	-1.543333	-0.037874	-0.013439	0.015882
158	27.778534	0.172913	-10.123920	-0.117720	1.530360	-0.388060	0.005970	-1.548333	-0.039095	-0.014661	0.014661
159	27.907410	0.141815	-10.123920	-0.235440	1.294920	-0.388060	0.007463	-1.548333	-0.039095	-0.010996	0.004887
160	28.036285	0.190704	-10.123920	-0.235440	1.412640	-0.388060	0.005970	-1.543333	-0.040317	-0.012217	0.014661
161	28.165100	0.159546	-9.888480	-0.117720	1.530360	-0.388060	0.007463	-1.546667	-0.037874	-0.009774	0.014661
162	28.293945	0.126251	-10.006200	-0.117720	1.294920	-0.386567	0.005970	-1.543333	-0.035430	-0.014661	0.010996
163	28.422791	0.177277	-10.123920	0.000000	1.294920	-0.388060	0.005970	-1.543333	-0.043982	-0.013439	0.012217
164	28.551636	0.146149	-10.123920	-0.117720	1.412640	-0.386567	0.008955	-1.543333	-0.034208	-0.015882	0.012217
165	28.680450	0.194977	-10.006200	-0.117720	1.412640	-0.386567	0.007463	-1.548333	-0.039095	-0.013439	0.012217
166	28.809296	0.163849	-10.123920	-0.117720	1.294920	-0.391045	0.007463	-1.543333	-0.047647	-0.014661	0.014661
167	28.938110	0.132690	-10.006200	0.000000	1.412640	-0.385075	0.004478	-1.546667	-0.039095	-0.015882	0.017104
168	29.066956	0.181549	-10.123920	0.000000	1.530360	-0.388060	0.007463	-1.543333	-0.043982	-0.010996	0.013439
169	29.195831	0.150452	-10.123920	-0.117720	1.294920	-0.386567	0.004478	-1.543333	-0.043982	-0.010996	0.015882
170	29.324646	0.199280	-10.123920	0.000000	1.412640	-0.386567	0.005970	-1.546667	-0.040317	-0.009774	0.017104
171	29.453491	0.168152	-10.006200	-0.235440	1.412640	-0.388060	0.007463	-1.543333	-0.045204	-0.008552	0.013439
172	29.582306	0.136993	-10.006200	0.000000	1.294920	-0.388060	0.004478	-1.546667	-0.042761	-0.007330	0.014661
173	29.711151	0.185852	-10.123920	0.000000	1.412640	-0.389552	0.005970	-1.543333	-0.037874	-0.008552	0.017104
174	29.840027	0.154755	-10.123920	0.000000	1.412640	-0.386567	0.005970	-1.541667	-0.040317	-0.006109	0.017104
175	29.968903	0.203644	-10.123920	-0.235440	1.412640	-0.386567	0.005970	-1.543333	-0.037874	-0.012217	0.009774
176	30.097778	0.172546	-10.241640	-0.117720	1.412640	-0.388060	0.007463	-1.543333	-0.042761	-0.007330	0.009774
177	30.226685	0.141479	-10.006200	0.000000	1.412640	-0.388060	0.007463	-1.543333	-0.037874	-0.010996	0.008552
178	30.355530	0.190338	-10.006200	-0.117720	1.530360	-0.388060	0.005970	-1.543333	-0.053756	-0.012217	0.014661
179	30.484436	0.159271	-10.123920	0.000000	2.118960	-0.386567	0.005970	-1.545000	-0.090408	-0.013439	0.023213
180	30.613281	0.126251	-10.006200	0.000000	2.589840	-0.388060	0.001493	-1.540000	-0.183260	-0.017104	0.032987
181	30.742126	0.177002	-10.006200	0.000000	2.707560	-0.386567	-0.004478	-1.533333	-0.298102	-0.023213	0.043982
182	30.871033	0.145935	-9.888480	0.000000	2.589840	-0.380597	-0.023881	-1.516667	-0.409280	-0.031765	0.057421
183	30.999908	0.194824	-10.006200	0.235440	2.354400	-0.377612	-0.043284	-1.503333	-0.492357	-0.035430	0.059865
184	31.128784	0.163727	-10.006200	0.588600	2.236680	-0.370149	-0.073134	-1.493333	-0.563218	-0.026878	0.065973
185	31.257660	0.132629	-10.123920	0.706320	1.765800	-0.362687	-0.105970	-1.485000	-0.618196	-0.040317	0.067195
186	31.386566	0.181549	-10.241640	0.706320	1.648080	-0.352239	-0.146269	-1.480000	-0.648739	-0.040317	0.074526
187	31.515442	0.150452	-10.123920	1.059480	1.412640	-0.347761	-0.186567	-1.480000	-0.656069	-0.041539	0.070860
188	31.644318	0.199341	-10.123920	0.470880	0.941760	-0.344776	-0.231343	-1.491667	-0.629191	-0.040317	0.068417
189	31.773224	0.168274	-10.123920	0.353160	0.470880	-0.343284	-0.265672	-1.505000	-0.558331	-0.042761	0.056200
190	31.902100	0.137177	-10.123920	0.235440	0.353160	-0.347761	-0.292537	-1.516667	-0.467923	-0.034208	0.047647
191	32.030975	0.186066	-10.241640	0.000000	0.000000	-0.350746	-0.320896	-1.533333	-0.379958	-0.034208	0.037874
192	32.159821	0.154938	-10.123920	0.117720	0.824040	-0.349254	-0.344776	-1.553333	-0.295659	-0.025656	0.036652
193	32.288666	0.203796	-10.241640	-0.117720	0.470880	-0.343284	-0.362687	-1.581667	-0.222355	-0.028100	0.025656
194	32.417542	0.172699	-10.241640	0.000000	0.000000	-0.347761	-0.358209	-1.596667	-0.111177	-0.015882	0.015882
195	32.546387	0.141571	-10.006200	-0.117720	1.294920	-0.350746	-0.361194	-1.598333	-0.067195	-0.015882	0.017104
196	32.675262	0.190460	-10.123920	-0.117720	1.765800	-0.353731	-0.361194	-1.591667	-0.083078	-0.013439	0.021991
197	32.804169	0.159393	-10.123920	0.000000	1.294920	-0.359701	-0.364179	-1.593333	-0.081856	-0.015882	0.018326
198	32.933014	0.126251	-10.006200	-0.117720	1.530360	-0.359701	-0.367164	-1.591667	-0.078191	-0.018326	0.019548
199	33.061859	0.177124	-10.359360	-0.235440	0.706320	-0.365672	-0.371642	-1.586667	-0.089186	-0.039095	0.006109
200	33.190735	0.146027	-11.183400	-0.353160	1.765800	-0.361194	-0.370149	-1.585000	-0.018326	0.053756	0.012217
201	33.319641	0.194946	-10.123920	-0.117720	1.765800	-0.362687	-0.377612	-1.585000	-0.043982	-0.008552	0.010996
202	33.448517	0.163849	-10.123920	-0.117720	1.648080	-0.362687	-0.374627	-1.586667	-0.035430	-0.013439	0.006109
203	33.577393	0.132751	-10.241640	-0.235440	1.412640	-0.365672	-0.376119	-1.586667	-0.040317	-0.012217	0.012217
204	33.706268	0.181641	-10.241640	-0.117720	1.412640	-0.364179	-0.374627	-1.585000	-0.039095	-0.014661	0.014661
205	33.835114	0.150513	-10.123920	-0.235440	1.412640	-0.364179	-0.374627	-1.586667	-0.035430	-0.018326	0.015882
206	33.963989	0.199402	-10.241640	-0.117720	1.294920	-0.364179	-0.373134	-1.588333	-0.037874	-0.007330	0.015882
207	34.092896	0.168335	-10.123920	-0.117720	1.530360	-0.361194	-0.374627	-1.586667	-0.036652	-0.013439	0.008552
208	34.221771	0.137238	-10.123920	-0.117720	1.294920	-0.361194	-0.374627	-1.583333	-0.037874	-0.009774	0.013439
209	34.350677	0.186157	-10.123920	-0.235440	1.177200	-0.365672	-0.374627	-1.583333	-0.036652	-0.008552	0.015882
210	34.479553	0.155060	-9.888480	-0.117720	1.412640	-0.367164	-0.373134	-1.588333	-0.040317	-0.018326	0.012217
211	34.608429	0.203949	-10.006200	0.000000	1.412640	-0.361194	-0.373134	-1.586667	-0.035430	-0.010996	0.013439
212	34.737305	0.172852	-9.888480	-0.117720	1.412640	-0.364179	-0.374627	-1.585000	-0.040317	-0.012217	0.015882
213	34.866180	0.141754	-10.006200	-0.353160	1.177200	-0.364179	-0.374627	-1.588333	-0.040317	-0.012217	0.015882
214	34.995026	0.190613	-10.123920	-0.117720	1.412640	-0.364179	-0.373134	-1.585000	-0.045204	-0.012217	0.015882
215	35.123932	0.159546	-10.123920	0.000000	1.530360	-0.364179	-0.374627	-1.585000	-0.041539	-0.012217	0.015882
216	35.252808	0.126282	-10.006200	-0.117720	1.412640	-0.364179	-0.374627	-1.585000	-0.042761	-0.015882	0.010996
217	35.381744	0.177399	-10.006200	0.000000	1.530360	-0.361194	-0.374627	-1.588333	-0.036652	-0.013439	0.010996
218	35.510651	0.146332	-10.123920	-0.235440	1.294920	-0.364179	-0.370149	-1.585000	-0.042761	-0.015882	0.008552
219	35.639587	0.195282	-10.006200	0.000000	1.294920	-0.364179	-0.374627	-1.586667	-0.041539	-0.003665	0.013439
220	35.768463	0.164185	-10.123920	-0.235440	1.530360	-0.361194	-0.373134	-1.583333	-0.042761	-0.009774	0.013439
221	35.897339	0.133087	-10.006200	0.000000	1.530360	-0.364179	-0.373134	-1.586667	-0.040317	-0.010996	0.017104
222	36.026215	0.181976	-10.123920	-0.117720	1.412640	-0.365672	-0.373134	-1.585000	-0.050091	-0.014661	0.013439
223	36.155121	0.150909	-10.241640	-0.117720	1.294920	-0.365672	-0.371642	-1.583333	-0.036652	-0.010996	0.013439
224	36.283997	0.199799	-10.006200	0.000000	1.412640	-0.359701	-0.376119	-1.586667	-0.043982	-0.013439	0.009774
225	36.412903	0.168732	-10.123920	0.000000	1.648080	-0.364179	-0.376119	-1.585000	-0.039095	-0.009774	0.014661
226	36.541779	0.137634	-10.241640	-0.235440	1.412640	-0.364179	-0.374627	-1.586667	-0.043982	-0.014661	0.019548
227	36.670654	0.186523	-10.006200	-0.117720	1.294920	-0.361194	-0.373134	-1.585000	-0.041539	-0.014661	0.013439
228	36.799561	0.155457	-10.123920	-0.235440	1.412640	-0.362687	-0.373134	-1.583333	-0.040317	-0.010996	0.010996
229	36.928436	0.204346	-10.241640	0.000000	1.177200	-0.364179	-0.371642	-1.586667	-0.040317	-0.014661	0.017104
230	37.057343	0.173279	-10.006200	0.000000	1.412640	-0.361194	-0.373134	-1.585000	-0.043982	-0.009774	0.013439
231	37.186249	0.142212	-10.123920	0.000000	1.530360	-0.361194	-0.373134	-1.583333	-0.034208	-0.015882	0.008552
232	37.315155	0.190765	-10.006200	-0.235440	1.530360	-0.362687	-0.371642	-1.585000	-0.048869	-0.012217	0.015882
233	37.445038	0.161041	-10.123920	-0.117720	1.648080	-0.364179	-0.371642	-1.583333	-0.037874	-0.010996	0.020769
234	37.572998	0.129028	-10.006200	0.000000	1.412640	-0.364179	-0.371642	-1.585000	-0.035430	-0.010996	0.004887
235	37.701843	0.177887	-10.123920	0.000000	1.530360	-0.362687	-0.374627	-1.585000	-0.041539	-0.012217	0.013439
236	37.830750	0.146820	-10.006200	-0.235440	1.412640	-0.364179	-0.371642	-1.586667	-0.039095	-0.013439	0.017104
237	37.959625	0.195709	-10.006200	-0.117720	1.177200	-0.362687	-0.373134	-1.586667	-0.035430	-0.006109	0.007330
238	38.088531	0.164642	-10.123920	0.000000	1.412640	-0.361194	-0.373134	-1.585000	-0.036652	-0.013439	0.010996
239	38.217438	0.133575	-10.123920	-0.117720	1.294920	-0.362687	-0.371642	-1.583333	-0.039095	-0.010996	0.009774
240	38.346375	0.182526	-10.241640	-0.117720	1.530360	-0.359701	-0.371642	-1.588333	-0.041539	-0.015882	0.010996
241	38.475250	0.151428	-10.241640	0.000000	1.530360	-0.362687	-0.373134	-1.585000	-0.046426	-0.015882	0.014661
242	38.604156	0.200348	-10.123920	0.000000	1.294920	-0.362687	-0.374627	-1.588333	-0.050091	-0.012217	0.015882
243	38.733002	0.169220	-10.006200	-0.117720	1.648080	-0.362687	-0.374627	-1.588333	-0.036652	-0.010996	0.007330
244	38.861908	0.138153	-10.006200	0.000000	1.294920	-0.359701	-0.374627	-1.583333	-0.040317	-0.010996	0.013439
245	38.990814	0.187073	-10.123920	-0.117720	1.412640	-0.362687	-0.371642	-1.586667	-0.040317	-0.009774	0.012217
246	39.119720	0.156006	-10.123920	0.000000	1.648080	-0.362687	-0.371642	-1.585000	-0.039095	-0.013439	0.018326
247	39.248596	0.204895	-10.123920	0.000000	1.294920	-0.361194	-0.374627	-1.585000	-0.037874	-0.014661	0.015882
248	39.377472	0.173798	-10.123920	-0.117720	1.412640	-0.361194	-0.376119	-1.585000	-0.037874	-0.006109	0.015882
249	39.506378	0.142731	-10.241640	0.000000	1.412640	-0.362687	-0.373134	-1.585000	-0.039095	-0.013439	0.015882
250	39.635284	0.190765	-10.123920	-0.117720	1.412640	-0.362687	-0.373134	-1.585000	-0.035430	-0.010996	0.014661
251	39.764648	0.161041	-10.006200	-0.117720	1.530360	-0.362687	-0.379104	-1.585000	-0.030543	-0.014661	0.017104
252	39.893036	0.129456	-10.123920	-0.117720	1.412640	-0.362687	-0.373134	-1.585000	-0.032987	-0.013439	0.013439
253	40.021942	0.178375	-10.241640	-0.117720	1.412640	-0.361194	-0.371642	-1.588333	-0.037874	-0.010996	0.013439
254	40.150818	0.147278	-10.241640	-0.235440	1.530360	-0.362687	-0.376119	-1.585000	-0.037874	-0.012217	0.012217
255	40.279694	0.196167	-10.123920	0.000000	1.412640	-0.361194	-0.374627	-1.585000	-0.036652	-0.008552	0.019548
256	40.408569	0.165070	-10.123920	0.000000	1.530360	-0.361194	-0.371642	-1.585000	-0.039095	-0.017104	0.012217
257	40.537476	0.134003	-10.006200	-0.117720	1.294920	-0.362687	-0.374627	-1.586667	-0.037874	-0.009774	0.006109
258	40.666382	0.182922	-10.123920	-0.117720	1.412640	-0.364179	-0.373134	-1.583333	-0.046426	-0.017104	0.015882
259	40.795288	0.151855	-10.123920	0.000000	1.530360	-0.358209	-0.374627	-1.583333	-0.046426	-0.010996	0.012217
260	40.924164	0.200745	-10.241640	-0.117720	1.177200	-0.359701	-0.374627	-1.585000	-0.039095	-0.007330	0.010996
261	41.053070	0.169678	-10.241640	0.000000	1.648080	-0.364179	-0.373134	-1.585000	-0.031765	-0.012217	0.013439
262	41.181946	0.138580	-10.241640	-0.117720	0.941760	-0.361194	-0.373134	-1.588333	0.006109	-0.009774	-0.001222
263	41.310822	0.187469	-10.123920	0.000000	0.941760	-0.356716	-0.361194	-1.591667	0.074526	-0.002443	0.002443
264	41.439728	0.156403	-10.241640	-0.353160	0.706320	-0.347761	-0.358209	-1.590000	0.096517	-0.009774	-0.008552
265	41.568634	0.205322	-10.359360	0.000000	0.470880	-0.341791	-0.356716	-1.576667	0.185703	0.000000	-0.006109
266	41.697540	0.174255	-10.241640	0.000000	-0.117720	-0.346269	-0.341791	-1.550000	0.279776	0.013439	-0.020769
267	41.826416	0.143158	-10.241640	0.117720	0.588600	-0.349254	-0.319403	-1.526667	0.359189	0.004887	-0.026878
268	41.955292	0.190735	-10.123920	0.117720	1.059480	-0.347761	-0.289552	-1.511667	0.386067	0.020769	-0.026878
269	42.084259	0.161041	-10.123920	0.353160	1.177200	-0.347761	-0.259701	-1.501667	0.409280	0.015882	-0.030543
270	42.213104	0.129913	-10.006200	0.117720	1.765800	-0.343284	-0.237313	-1.490000	0.389732	0.012217	-0.018326
271	42.342010	0.178833	-10.006200	0.235440	1.648080	-0.346269	-0.207463	-1.480000	0.360410	0.010996	-0.018326
272	42.470917	0.147766	-10.123920	0.117720	1.883520	-0.346269	-0.180597	-1.476667	0.323759	0.008552	-0.020769
273	42.599823	0.196686	-9.888480	0.000000	1.765800	-0.349254	-0.158209	-1.476667	0.289550	0.008552	-0.017104
274	42.728729	0.165619	-10.006200	0.000000	1.765800	-0.353731	-0.135821	-1.476667	0.265116	0.006109	-0.014661
275	42.857635	0.134552	-10.123920	0.000000	1.648080	-0.358209	-0.119403	-1.480000	0.243124	0.009774	-0.009774
276	42.986572	0.183502	-10.241640	0.000000	1.412640	-0.359701	-0.098507	-1.483333	0.237016	0.009774	-0.010996
277	43.115479	0.152435	-10.123920	0.000000	1.412640	-0.365672	-0.082090	-1.488333	0.241903	0.000000	-0.017104
278	43.244415	0.201385	-10.123920	0.000000	1.648080	-0.370149	-0.062687	-1.496667	0.237016	0.010996	-0.006109
279	43.373322	0.170319	-10.006200	0.117720	1.883520	-0.377612	-0.047761	-1.505000	0.205251	0.006109	-0.001222
280	43.502228	0.139252	-10.123920	0.000000	2.001240	-0.377612	-0.034328	-1.508333	0.158825	0.001222	-0.006109
281	43.631134	0.188171	-10.123920	-0.117720	1.883520	-0.379104	-0.023881	-1.518333	0.119730	-0.001222	0.000000
282	43.760040	0.157104	-10.006200	-0.117720	1.648080	-0.382090	-0.014925	-1.521667	0.095295	-0.008552	0.003665
283	43.888947	0.206024	-10.123920	0.000000	1.412640	-0.385075	-0.007463	-1.523333	0.085521	-0.006109	0.003665
284	44.017853	0.174957	-10.123920	0.000000	1.648080	-0.386567	-0.002985	-1.533333	0.063530	-0.008552	0.003665
285	44.146759	0.143890	-10.123920	-0.117720	1.648080	-0.385075	0.002985	-1.538333	0.024435	-0.006109	0.004887
286	44.275665	0.190765	-10.123920	0.000000	1.530360	-0.386567	0.004478	-1.540000	0.015882	-0.006109	0.008552
287	44.404602	0.161774	-10.123920	0.000000	2.472120	-0.388060	0.011940	-1.543333	-0.081856	-0.024435	0.014661
288	44.533478	0.130676	-10.241640	0.000000	1.059480	-0.386567	0.005970	-1.543333	-0.037874	-0.015882	0.012217
289	44.662384	0.179596	-10.241640	-0.117720	1.530360	-0.385075	0.002985	-1.540000	-0.008552	-0.008552	0.010996
290	44.791321	0.148560	-10.006200	-0.117720	1.294920	-0.385075	0.008955	-1.543333	-0.084299	-0.156382	0.012217
291	44.920227	0.197479	-10.006200	-0.117720	2.001240	-0.385075	0.008955	-1.546667	-0.019548	-0.014661	0.025656
292	45.049133	0.166412	-10.123920	-0.353160	1.059480	-0.385075	0.010448	-1.546667	-0.014661	-0.015882	0.019548
293	45.178040	0.135345	-10.123920	-0.117720	1.059480	-0.388060	0.007463	-1.543333	-0.021991	-0.012217	0.021991
294	45.306946	0.184265	-10.123920	0.000000	1.177200	-0.385075	0.007463	-1.541667	-0.029322	-0.015882	0.019548
295	45.435852	0.153198	-10.006200	-0.235440	1.059480	-0.385075	0.005970	-1.543333	-0.040317	-0.017104	0.009774
296	45.564758	0.202118	-10.123920	0.000000	1.294920	-0.383582	0.008955	-1.545000	-0.043982	-0.010996	0.012217
297	45.693665	0.171051	-10.006200	-0.117720	1.412640	-0.386567	0.007463	-1.543333	-0.040317	-0.012217	0.012217
298	45.822571	0.139984	-10.123920	-0.117720	1.412640	-0.386567	0.007463	-1.545000	-0.043982	-0.010996	0.014661
299	45.951477	0.188904	-10.241640	0.000000	1.412640	-0.385075	0.007463	-1.541667	-0.035430	-0.015882	0.014661
300	46.080383	0.157837	-10.006200	-0.117720	1.412640	-0.385075	0.010448	-1.541667	-0.042761	-0.012217	0.018326
301	46.209290	0.126312	-10.006200	0.000000	1.412640	-0.385075	0.007463	-1.543333	-0.042761	-0.012217	0.009774
302	46.338135	0.175629	-10.006200	-0.117720	1.294920	-0.383582	0.007463	-1.540000	-0.029322	-0.013439	0.008552
303	46.467010	0.144531	-10.006200	-0.353160	1.294920	-0.386567	0.007463	-1.545000	-0.034208	-0.012217	0.010996
304	46.595917	0.193451	-10.006200	-0.117720	1.412640	-0.385075	0.007463	-1.543333	-0.035430	-0.013439	0.012217
305	46.724823	0.162384	-10.123920	0.000000	1.412640	-0.385075	0.007463	-1.541667	-0.039095	-0.010996	0.006109
306	46.853760	0.131348	-10.123920	-0.117720	1.648080	-0.385075	0.008955	-1.543333	-0.036652	-0.013439	0.012217
307	46.982635	0.180237	-10.123920	-0.235440	1.294920	-0.385075	0.008955	-1.540000	-0.039095	-0.008552	0.012217
308	47.111511	0.149139	-10.123920	0.000000	1.648080	-0.385075	0.005970	-1.541667	-0.041539	-0.008552	0.014661
309	47.240387	0.198029	-10.006200	-0.235440	1.177200	-0.388060	0.005970	-1.541667	-0.036652	-0.013439	0.017104
310	47.369324	0.166992	-10.006200	0.000000	1.412640	-0.386567	0.005970	-1.541667	-0.037874	-0.012217	0.013439
311	47.498199	0.135895	-10.241640	-0.235440	1.412640	-0.388060	0.005970	-1.538333	-0.042761	-0.009774	0.014661
312	47.627106	0.184814	-10.006200	-0.117720	1.294920	-0.385075	0.008955	-1.541667	-0.042761	-0.008552	0.007330
313	47.756012	0.153748	-10.123920	-0.235440	1.412640	-0.386567	0.007463	-1.540000	-0.045204	-0.012217	0.015882
314	47.884857	0.202606	-10.123920	-0.117720	1.412640	-0.385075	0.005970	-1.541667	-0.040317	-0.010996	0.012217
315	48.013763	0.171539	-9.888480	-0.235440	1.412640	-0.385075	0.007463	-1.540000	-0.042761	-0.010996	0.018326
316	48.142700	0.140503	-10.006200	0.000000	1.294920	-0.383582	0.007463	-1.543333	-0.045204	-0.012217	0.013439
317	48.271637	0.189453	-10.006200	0.000000	1.294920	-0.383582	0.007463	-1.540000	-0.041539	-0.008552	0.021991
318	48.400574	0.158417	-10.123920	-0.117720	1.294920	-0.388060	0.005970	-1.540000	-0.041539	-0.009774	0.008552
319	48.529480	0.126312	-10.006200	0.000000	1.648080	-0.385075	0.007463	-1.543333	-0.042761	-0.014661	0.015882
320	48.658417	0.176300	-10.123920	0.000000	1.530360	-0.382090	0.007463	-1.541667	-0.040317	-0.009774	0.009774
321	48.787354	0.145264	-10.123920	-0.235440	1.412640	-0.386567	0.010448	-1.540000	-0.042761	-0.012217	0.009774
322	48.916229	0.194153	-10.006200	0.000000	1.412640	-0.388060	0.005970	-1.540000	-0.041539	-0.013439	0.017104
323	49.045135	0.163086	-9.888480	-0.117720	1.177200	-0.383582	0.007463	-1.541667	-0.029322	-0.010996	0.012217
324	49.174011	0.131989	-10.123920	-0.117720	1.412640	-0.382090	0.008955	-1.541667	-0.046426	-0.006109	0.008552
325	49.302856	0.180847	-10.006200	0.000000	1.294920	-0.385075	0.007463	-1.540000	-0.039095	-0.012217	0.014661
326	49.431763	0.149780	-10.241640	0.000000	1.530360	-0.382090	0.007463	-1.541667	-0.042761	-0.012217	0.015882
327	49.560669	0.198700	-10.123920	-0.117720	1.412640	-0.385075	0.004478	-1.543333	-0.039095	-0.009774	0.004887
328	49.689575	0.167633	-10.241640	-0.235440	1.412640	-0.385075	0.005970	-1.541667	-0.037874	-0.013439	0.015882
329	49.818451	0.136536	-10.123920	-0.117720	1.294920	-0.385075	0.005970	-1.543333	-0.039095	-0.009774	0.014661
330	49.947357	0.185455	-10.006200	-0.117720	1.530360	-0.385075	0.005970	-1.540000	-0.039095	-0.013439	0.015882
331	50.076294	0.154419	-10.006200	-0.235440	1.294920	-0.386567	0.005970	-1.540000	-0.037874	-0.014661	0.010996
332	50.205200	0.203339	-10.006200	0.000000	1.412640	-0.385075	0.007463	-1.541667	-0.047647	-0.012217	0.010996
333	50.334106	0.172272	-10.123920	-0.117720	1.294920	-0.385075	0.005970	-1.541667	-0.039095	-0.012217	0.010996
334	50.463013	0.141205	-10.006200	-0.235440	1.294920	-0.385075	0.007463	-1.540000	-0.040317	-0.009774	0.013439
335	50.591888	0.190094	-10.006200	0.000000	1.412640	-0.388060	0.005970	-1.541667	-0.036652	-0.012217	0.013439
336	50.720795	0.159027	-10.123920	-0.117720	1.530360	-0.386567	0.005970	-1.540000	-0.034208	-0.010996	0.014661
337	50.849701	0.126312	-10.123920	-0.235440	1.412640	-0.385075	0.008955	-1.541667	-0.032987	-0.010996	0.019548
338	50.978607	0.176880	-10.006200	0.000000	1.530360	-0.385075	0.007463	-1.543333	-0.042761	-0.013439	0.010996
339	51.107513	0.145813	-10.006200	0.000000	1.530360	-0.386567	0.010448	-1.543333	-0.043982	-0.013439	0.008552
340	51.236389	0.194702	-10.006200	-0.117720	1.177200	-0.383582	0.007463	-1.541667	-0.045204	-0.009774	0.015882
341	51.365326	0.163666	-10.123920	0.000000	1.294920	-0.385075	0.010448	-1.543333	-0.039095	-0.018326	0.009774
342	51.494232	0.132599	-10.241640	-0.117720	1.294920	-0.385075	0.007463	-1.540000	-0.043982	-0.013439	0.017104
343	51.623138	0.181519	-10.006200	-0.117720	1.177200	-0.383582	0.004478	-1.541667	-0.042761	-0.009774	0.008552
344	51.752045	0.150452	-10.241640	-0.117720	1.412640	-0.385075	0.007463	-1.541667	-0.047647	-0.012217	0.013439
345	51.880951	0.199371	-10.123920	-0.235440	1.412640	-0.385075	0.005970	-1.541667	-0.039095	-0.012217	0.012217
346	52.009857	0.168304	-10.006200	-0.117720	1.294920	-0.386567	0.005970	-1.540000	-0.045204	-0.007330	0.007330
347	52.138733	0.137207	-10.006200	0.000000	1.412640	-0.382090	0.005970	-1.541667	-0.047647	-0.009774	0.017104
348	52.267639	0.186127	-10.123920	0.000000	1.294920	-0.383582	0.007463	-1.541667	-0.040317	-0.008552	0.010996
349	52.396545	0.155060	-10.006200	-0.235440	1.530360	-0.383582	0.007463	-1.541667	-0.031765	-0.014661	0.018326
350	52.525421	0.203949	-10.123920	0.000000	1.177200	-0.383582	0.005970	-1.540000	-0.028100	-0.008552	0.004887
351	52.654327	0.172882	-10.006200	-0.117720	1.412640	-0.385075	0.007463	-1.541667	-0.032987	-0.017104	0.013439
352	52.783203	0.141785	-10.123920	-0.235440	1.294920	-0.380597	0.005970	-1.540000	-0.035430	-0.017104	0.014661
353	52.912109	0.190704	-10.123920	-0.117720	1.294920	-0.385075	0.005970	-1.540000	-0.036652	-0.010996	0.020769
354	53.040985	0.159607	-10.123920	-0.235440	1.530360	-0.385075	0.007463	-1.543333	-0.036652	-0.012217	0.014661
355	53.169830	0.126251	-10.006200	0.000000	1.294920	-0.385075	0.005970	-1.541667	-0.037874	-0.008552	0.013439
356	53.298706	0.177368	-10.123920	-0.117720	1.530360	-0.382090	0.007463	-1.541667	-0.042761	-0.013439	0.014661
357	53.427582	0.146271	-10.123920	-0.235440	1.294920	-0.385075	0.005970	-1.543333	-0.047647	-0.009774	0.017104
358	53.556488	0.195190	-10.241640	0.000000	1.412640	-0.385075	0.004478	-1.541667	-0.037874	-0.008552	0.014661
359	53.685364	0.164093	-10.241640	-0.117720	1.412640	-0.388060	0.008955	-1.543333	-0.045204	-0.009774	0.024435
360	53.814270	0.133026	-10.006200	0.000000	1.412640	-0.380597	0.005970	-1.546667	-0.035430	-0.010996	0.008552
361	53.943176	0.181946	-10.241640	-0.117720	1.294920	-0.383582	0.007463	-1.541667	-0.039095	-0.009774	0.010996
362	54.072083	0.150879	-10.123920	-0.235440	1.412640	-0.386567	0.005970	-1.540000	-0.048869	-0.010996	0.019548
363	54.200989	0.199799	-10.006200	-0.117720	1.648080	-0.385075	0.005970	-1.540000	-0.075747	-0.008552	0.018326
364	54.329865	0.168701	-10.006200	-0.117720	1.765800	-0.386567	0.007463	-1.536667	-0.107512	-0.017104	0.028100
365	54.458740	0.137604	-10.006200	0.000000	2.118960	-0.386567	-0.001493	-1.535000	-0.152716	-0.014661	0.024435
366	54.587585	0.186462	-10.123920	0.000000	2.118960	-0.382090	-0.004478	-1.526667	-0.205251	-0.021991	0.032987
367	54.716492	0.155396	-10.006200	0.000000	2.236680	-0.382090	-0.014925	-1.520000	-0.261450	-0.026878	0.040317
368	54.845367	0.204285	-10.123920	0.117720	2.118960	-0.379104	-0.032836	-1.508333	-0.332311	-0.030543	0.046426
369	54.974243	0.173187	-10.123920	0.117720	1.648080	-0.374627	-0.047761	-1.501667	-0.375071	-0.030543	0.048869
370	55.103149	0.142120	-10.006200	0.117720	1.765800	-0.367164	-0.068657	-1.490000	-0.411723	-0.031765	0.054978
371	55.232025	0.190735	-10.006200	0.235440	1.883520	-0.362687	-0.091045	-1.485000	-0.452040	-0.037874	0.052534
372	55.360901	0.159912	-10.123920	0.353160	1.648080	-0.353731	-0.119403	-1.473333	-0.483805	-0.037874	0.058643
373	55.489838	0.126343	-10.123920	0.117720	1.648080	-0.352239	-0.149254	-1.475000	-0.518014	-0.035430	0.058643
374	55.618774	0.177826	-10.006200	0.353160	1.177200	-0.346269	-0.180597	-1.476667	-0.521679	-0.036652	0.059865
375	55.747650	0.146729	-9.888480	0.235440	1.177200	-0.347761	-0.211940	-1.481667	-0.504575	-0.035430	0.058643
376	55.876556	0.195648	-10.123920	0.353160	0.824040	-0.344776	-0.240299	-1.493333	-0.480140	-0.035430	0.050091
377	56.005463	0.164581	-10.241640	0.000000	0.824040	-0.344776	-0.270149	-1.505000	-0.434936	-0.035430	0.048869
378	56.134399	0.133545	-10.123920	0.117720	0.706320	-0.344776	-0.294030	-1.516667	-0.390954	-0.032987	0.046426
379	56.263275	0.182434	-10.241640	0.000000	0.588600	-0.349254	-0.316418	-1.530000	-0.342085	-0.028100	0.041539
380	56.392212	0.151398	-10.006200	0.000000	0.470880	-0.344776	-0.338806	-1.543333	-0.268781	-0.020769	0.034208
381	56.521088	0.200287	-10.123920	0.000000	0.706320	-0.340299	-0.355224	-1.563333	-0.054978	-0.017104	0.031765
382	56.649994	0.169220	-10.123920	-0.117720	0.117720	-0.340299	-0.358209	-1.580000	-0.138056	-0.014661	0.020769
383	56.778900	0.138153	-10.241640	-0.117720	0.588600	-0.346269	-0.358209	-1.590000	-0.072082	-0.013439	0.013439
384	56.907806	0.187073	-10.123920	-0.117720	1.177200	-0.349254	-0.359701	-1.588333	-0.036652	-0.012217	0.010996
385	57.036713	0.156006	-10.006200	-0.117720	1.765800	-0.346269	-0.353731	-1.590000	-0.050091	-0.014661	0.021991
386	57.165619	0.204926	-10.006200	-0.235440	1.648080	-0.347761	-0.358209	-1.590000	-0.070860	-0.018326	0.014661
387	57.294495	0.173828	-10.123920	-0.117720	1.177200	-0.347761	-0.358209	-1.590000	-0.074526	-0.012217	0.020769
388	57.423401	0.142761	-10.006200	-0.235440	1.294920	-0.353731	-0.356716	-1.590000	-0.062308	-0.013439	0.012217
389	57.552307	0.190765	-10.241640	0.000000	1.412640	-0.352239	-0.359701	-1.588333	-0.053756	-0.014661	0.008552
390	57.681641	0.161041	-10.123920	-0.117720	1.412640	-0.355224	-0.362687	-1.585000	-0.065973	-0.017104	0.014661
391	57.810089	0.129517	-10.241640	0.000000	1.412640	-0.359701	-0.365672	-1.585000	-0.067195	-0.008552	0.014661
392	57.938995	0.178436	-10.006200	-0.117720	1.177200	-0.362687	-0.371642	-1.585000	-0.070860	-0.018326	0.013439
393	58.067902	0.147369	-10.006200	0.000000	2.354400	-0.362687	-0.373134	-1.583333	-0.043982	-0.012217	0.019548
394	58.196869	0.196350	-10.123920	-0.235440	1.294920	-0.361194	-0.373134	-1.581667	-0.034208	-0.018326	0.009774
395	58.325775	0.165283	-10.006200	-0.235440	1.177200	-0.361194	-0.373134	-1.581667	-0.039095	-0.010996	0.008552
396	58.454681	0.134216	-10.006200	-0.235440	1.177200	-0.359701	-0.374627	-1.585000	-0.041539	-0.013439	0.012217
397	58.583557	0.183105	-10.123920	-0.235440	1.530360	-0.359701	-0.371642	-1.583333	-0.043982	-0.014661	0.018326
398	58.712463	0.152039	-10.006200	0.000000	1.412640	-0.358209	-0.371642	-1.581667	-0.035430	-0.007330	0.010996
399	58.841370	0.200958	-10.241640	-0.117720	1.412640	-0.359701	-0.373134	-1.580000	-0.041539	-0.010996	0.018326
400	58.970306	0.169922	-10.123920	-0.117720	1.294920	-0.358209	-0.373134	-1.581667	-0.042761	-0.009774	0.020769
401	59.099213	0.138855	-10.123920	-0.117720	1.294920	-0.359701	-0.371642	-1.583333	-0.040317	-0.008552	0.013439
402	59.228119	0.187775	-10.006200	0.000000	1.294920	-0.362687	-0.370149	-1.581667	-0.039095	-0.018326	0.013439
403	59.357056	0.156738	-10.006200	-0.353160	1.177200	-0.359701	-0.373134	-1.581667	-0.039095	-0.010996	0.008552
404	59.485931	0.205627	-10.123920	-0.117720	1.412640	-0.362687	-0.373134	-1.583333	-0.043982	-0.013439	0.019548
405	59.614838	0.174561	-10.123920	-0.117720	1.177200	-0.361194	-0.376119	-1.583333	-0.036652	-0.008552	0.009774
406	59.743713	0.143463	-10.123920	0.000000	1.294920	-0.358209	-0.373134	-1.581667	-0.041539	-0.014661	0.006109
407	59.872620	0.190765	-10.006200	0.000000	1.530360	-0.362687	-0.373134	-1.583333	-0.036652	-0.014661	0.014661
408	60.001556	0.161346	-10.241640	-0.117720	1.648080	-0.359701	-0.371642	-1.581667	-0.047647	-0.008552	0.024435
409	60.130493	0.130310	-10.123920	0.000000	1.412640	-0.361194	-0.373134	-1.583333	-0.041539	-0.015882	0.015882
410	60.259430	0.179260	-10.123920	-0.117720	1.530360	-0.361194	-0.373134	-1.581667	-0.040317	-0.013439	0.019548
411	60.388336	0.148193	-10.123920	-0.235440	1.648080	-0.362687	-0.374627	-1.580000	-0.042761	-0.010996	0.012217
412	60.517273	0.197144	-9.888480	-0.117720	1.648080	-0.358209	-0.373134	-1.581667	-0.037874	-0.013439	0.014661
413	60.646179	0.166077	-10.123920	-0.235440	1.412640	-0.359701	-0.373134	-1.583333	-0.042761	-0.013439	0.013439
414	60.775085	0.135010	-10.006200	0.000000	1.530360	-0.362687	-0.373134	-1.580000	-0.036652	-0.009774	0.014661
415	60.904022	0.183960	-10.006200	-0.117720	1.294920	-0.362687	-0.371642	-1.585000	-0.045204	-0.017104	0.010996
416	61.032959	0.152924	-10.006200	-0.117720	1.412640	-0.361194	-0.373134	-1.581667	-0.036652	-0.009774	0.012217
417	61.161896	0.201874	-10.123920	0.000000	1.294920	-0.359701	-0.371642	-1.581667	-0.035430	-0.008552	0.015882
418	61.290863	0.170868	-10.123920	-0.117720	1.530360	-0.358209	-0.373134	-1.581667	-0.031765	-0.012217	0.012217
419	61.419769	0.139801	-10.123920	-0.117720	1.294920	-0.356716	-0.374627	-1.581667	-0.039095	-0.010996	0.010996
420	61.548676	0.188721	-10.006200	-0.235440	1.294920	-0.361194	-0.371642	-1.581667	-0.045204	-0.017104	0.020769
421	61.677582	0.157654	-9.888480	-0.117720	1.294920	-0.358209	-0.373134	-1.583333	-0.045204	-0.013439	0.019548
422	61.806549	0.126343	-10.123920	-0.235440	1.530360	-0.359701	-0.371642	-1.583333	-0.037874	-0.006109	0.014661
423	61.935455	0.175568	-10.123920	-0.117720	1.530360	-0.358209	-0.371642	-1.581667	-0.042761	-0.013439	0.015882
424	62.064423	0.144562	-10.123920	0.000000	1.412640	-0.361194	-0.373134	-1.581667	-0.036652	-0.010996	0.017104
425	62.193329	0.193481	-10.123920	0.000000	1.412640	-0.358209	-0.371642	-1.581667	-0.036652	-0.014661	0.012217
426	62.322266	0.162445	-10.123920	-0.117720	1.530360	-0.362687	-0.373134	-1.581667	-0.042761	-0.009774	0.017104
427	62.451172	0.131378	-10.241640	-0.117720	1.412640	-0.359701	-0.373134	-1.583333	-0.043982	-0.010996	0.019548
428	62.580078	0.180298	-10.123920	-0.117720	1.412640	-0.359701	-0.371642	-1.580000	-0.039095	-0.010996	0.006109
429	62.708984	0.149231	-10.123920	-0.117720	1.412640	-0.361194	-0.373134	-1.578333	-0.041539	-0.017104	0.019548
430	62.837921	0.198181	-10.123920	0.000000	1.294920	-0.359701	-0.371642	-1.585000	-0.043982	-0.009774	0.009774
431	62.966827	0.167114	-10.241640	-0.117720	1.412640	-0.361194	-0.373134	-1.581667	-0.046426	-0.009774	0.010996
432	63.095764	0.136078	-10.123920	-0.117720	1.530360	-0.361194	-0.373134	-1.583333	-0.039095	-0.008552	0.017104
433	63.224701	0.185028	-10.006200	-0.117720	1.177200	-0.356716	-0.373134	-1.581667	-0.040317	-0.013439	0.007330
434	63.353638	0.153992	-10.006200	0.000000	1.530360	-0.361194	-0.371642	-1.581667	-0.041539	-0.009774	0.019548
435	63.482574	0.202942	-10.123920	-0.117720	1.294920	-0.358209	-0.371642	-1.580000	-0.035430	-0.009774	0.015882
436	63.611481	0.171875	-10.241640	-0.117720	1.530360	-0.359701	-0.371642	-1.583333	-0.048869	-0.010996	0.013439
437	63.740417	0.140839	-10.123920	0.000000	1.412640	-0.358209	-0.370149	-1.581667	-0.045204	-0.014661	0.015882
438	63.869385	0.189819	-10.123920	0.000000	1.412640	-0.359701	-0.370149	-1.580000	-0.040317	-0.010996	0.007330
439	63.998352	0.158813	-10.123920	-0.117720	1.412640	-0.359701	-0.374627	-1.585000	-0.030543	-0.013439	0.013439
440	64.127319	0.126343	-10.006200	-0.235440	1.294920	-0.359701	-0.371642	-1.581667	-0.036652	-0.017104	0.012217
441	64.256256	0.176758	-10.006200	-0.235440	1.294920	-0.362687	-0.370149	-1.583333	-0.039095	-0.013439	0.014661
442	64.385223	0.145752	-10.006200	-0.117720	1.648080	-0.362687	-0.373134	-1.581667	-0.043982	-0.004887	0.017104
443	64.514130	0.194672	-10.123920	-0.117720	1.412640	-0.361194	-0.371642	-1.581667	-0.039095	-0.015882	0.018326
444	64.643066	0.163635	-10.006200	-0.117720	1.412640	-0.361194	-0.374627	-1.583333	-0.048869	-0.007330	0.015882
445	64.772003	0.132599	-10.123920	-0.117720	1.059480	-0.356716	-0.371642	-1.581667	-0.042761	-0.012217	0.009774
446	64.900909	0.181519	-10.123920	-0.117720	1.294920	-0.364179	-0.374627	-1.581667	-0.040317	-0.009774	0.017104
447	65.029846	0.150482	-10.006200	-0.117720	1.530360	-0.358209	-0.373134	-1.583333	-0.037874	-0.013439	0.013439
448	65.158783	0.199432	-10.006200	-0.117720	1.294920	-0.359701	-0.373134	-1.581667	-0.042761	-0.012217	0.008552
449	65.287720	0.168396	-10.123920	-0.235440	1.059480	-0.361194	-0.373134	-1.583333	-0.034208	-0.013439	0.013439
450	65.416656	0.137360	-10.241640	-0.117720	1.177200	-0.359701	-0.371642	-1.583333	-0.028100	-0.009774	0.009774
451	65.545624	0.186340	-10.006200	-0.235440	0.588600	-0.358209	-0.364179	-1.585000	0.030543	-0.009774	0.004887
452	65.674561	0.155304	-9.770760	0.000000	0.824040	-0.352239	-0.359701	-1.586667	0.080634	-0.007330	0.001222
453	65.803497	0.204254	-10.006200	-0.117720	0.706320	-0.340299	-0.358209	-1.586667	0.127060	-0.004887	-0.006109
454	65.932404	0.173187	-10.123920	-0.117720	-0.117720	-0.340299	-0.355224	-1.561667	0.245568	0.003665	-0.018326
455	66.061401	0.142212	-10.123920	0.117720	-0.117720	-0.346269	-0.329851	-1.535000	0.360410	0.012217	-0.028100
456	66.190369	0.190887	-10.006200	0.235440	0.824040	-0.346269	-0.300000	-1.518333	0.430049	0.017104	-0.036652
457	66.320190	0.161041	-10.006200	0.353160	1.059480	-0.340299	-0.268657	-1.503333	0.466701	0.017104	-0.032987
458	66.448273	0.129150	-10.006200	0.470880	1.294920	-0.338806	-0.238806	-1.491667	0.471588	0.021991	-0.031765
459	66.577179	0.178070	-10.123920	0.588600	1.412640	-0.337313	-0.204478	-1.481667	0.480140	0.021991	-0.032987
460	66.706146	0.147064	-10.241640	0.470880	1.294920	-0.343284	-0.173134	-1.476667	0.482584	0.025656	-0.034208
461	66.835114	0.196045	-10.241640	0.588600	1.294920	-0.350746	-0.137313	-1.475000	0.481362	0.024435	-0.031765
462	66.964081	0.165039	-10.123920	0.470880	1.765800	-0.358209	-0.102985	-1.480000	0.463036	0.019548	-0.034208
463	67.093018	0.134003	-10.123920	0.353160	2.001240	-0.365672	-0.071642	-1.488333	0.405615	0.017104	-0.025656
464	67.222015	0.183014	-10.123920	0.235440	2.472120	-0.373134	-0.046269	-1.501667	0.334754	0.007330	-0.010996
465	67.350983	0.152008	-10.123920	0.117720	2.354400	-0.377612	-0.026866	-1.510000	0.241903	0.007330	-0.004887
466	67.479919	0.200958	-10.006200	0.000000	1.883520	-0.382090	-0.011940	-1.520000	0.186925	-0.001222	-0.010996
467	67.608826	0.169891	-10.123920	-0.117720	1.765800	-0.380597	0.000000	-1.533333	0.142942	-0.001222	-0.001222
468	67.737732	0.138824	-9.770760	-0.235440	7.063200	-0.382090	0.007463	-1.543333	0.067195	-0.069639	0.062308
469	67.866699	0.187805	-10.477080	-0.470880	-1.883520	-0.385075	0.004478	-1.540000	-0.155160	0.260229	0.012217
470	67.995605	0.156738	-10.123920	-0.117720	1.530360	-0.382090	0.002985	-1.533333	-0.054978	-0.010996	0.013439
471	68.124512	0.205658	-10.241640	-0.117720	0.941760	-0.385075	0.002985	-1.535000	-0.012217	0.001222	0.003665
472	68.253448	0.174622	-10.123920	-0.235440	0.235440	-0.380597	0.005970	-1.538333	0.047647	-0.008552	0.007330
473	68.382385	0.143585	-10.123920	-0.235440	0.706320	-0.385075	0.010448	-1.541667	-0.156382	-0.012217	0.020769
474	68.511322	0.190796	-10.123920	0.000000	0.000000	-0.385075	0.007463	-1.538333	-0.014661	-0.001222	0.002443
475	68.640228	0.161469	-9.770760	-0.235440	-1.059480	-0.383582	0.010448	-1.540000	-0.128282	0.006109	0.014661
476	68.769165	0.130432	-10.006200	-0.235440	2.118960	-0.383582	0.005970	-1.541667	0.015882	-0.047647	0.032987
477	68.898102	0.179382	-10.123920	-0.353160	-1.412640	-0.380597	0.008955	-1.541667	-0.010996	-0.085521	-0.013439
478	69.027039	0.148346	-10.123920	-0.117720	1.412640	-0.380597	0.010448	-1.545000	-0.031765	-0.002443	0.007330
479	69.155945	0.197266	-10.006200	0.000000	1.648080	-0.379104	0.005970	-1.540000	-0.057421	-0.010996	0.010996
480	69.284912	0.166260	-10.006200	-0.117720	1.177200	-0.383582	0.007463	-1.540000	-0.041539	-0.020769	0.017104
481	69.413818	0.135193	-9.888480	0.000000	1.883520	-0.383582	0.008955	-1.540000	-0.065973	-0.012217	0.020769
482	69.542786	0.184174	-10.241640	0.000000	2.001240	-0.380597	0.008955	-1.536667	-0.103847	-0.013439	0.018326
483	69.671722	0.153137	-10.123920	-0.117720	2.472120	-0.382090	0.001493	-1.535000	-0.189368	-0.018326	0.035430
484	69.800659	0.202087	-10.006200	-0.117720	2.472120	-0.382090	-0.008955	-1.525000	-0.294437	-0.024435	0.040317
485	69.929626	0.171082	-10.006200	0.000000	2.354400	-0.377612	-0.022388	-1.513333	-0.370184	-0.030543	0.051313
486	70.058563	0.140045	-10.123920	0.235440	2.354400	-0.373134	-0.041791	-1.503333	-0.454484	-0.031765	0.059865
487	70.187469	0.188965	-10.123920	0.117720	2.118960	-0.367164	-0.068657	-1.486667	-0.500909	-0.037874	0.064752
488	70.316437	0.157959	-10.123920	0.353160	1.765800	-0.356716	-0.100000	-1.481667	-0.542448	-0.034208	0.064752
489	70.445374	0.126343	-10.123920	0.588600	1.648080	-0.353731	-0.129851	-1.476667	-0.568105	-0.041539	0.062308
490	70.574310	0.175873	-10.241640	0.588600	1.530360	-0.347761	-0.164179	-1.475000	-0.591318	-0.039095	0.064752
491	70.703247	0.144836	-10.123920	0.588600	1.177200	-0.341791	-0.204478	-1.478333	-0.585209	-0.040317	0.064752
492	70.832184	0.193787	-10.241640	0.235440	0.706320	-0.341791	-0.234328	-1.490000	-0.541227	-0.041539	0.057421
493	70.961090	0.162720	-10.241640	0.353160	0.824040	-0.343284	-0.268657	-1.496667	-0.489914	-0.037874	0.047647
494	71.090027	0.131683	-10.241640	0.117720	0.588600	-0.347761	-0.294030	-1.515000	-0.434936	-0.030543	0.042761
495	71.218933	0.180603	-10.241640	0.117720	0.706320	-0.346269	-0.320896	-1.528333	-0.370184	-0.030543	0.041539
496	71.347839	0.149536	-10.123920	0.000000	0.824040	-0.344776	-0.346269	-1.550000	-0.320093	-0.031765	0.037874
497	71.476776	0.198486	-10.006200	-0.117720	0.235440	-0.343284	-0.356716	-1.580000	-0.233351	-0.024435	0.025656
498	71.605713	0.167450	-10.241640	-0.117720	-0.117720	-0.347761	-0.358209	-1.588333	-0.108734	-0.017104	0.010996
499	71.734619	0.136383	-10.006200	0.000000	1.177200	-0.352239	-0.358209	-1.588333	-0.051313	-0.018326	0.013439
500	71.863525	0.185303	-10.123920	0.000000	1.648080	-0.355224	-0.359701	-1.588333	-0.068417	-0.018326	0.018326
501	71.992432	0.154236	-10.006200	0.000000	1.412640	-0.356716	-0.368657	-1.581667	-0.085521	-0.010996	0.012217
502	72.121368	0.203186	-10.123920	-0.353160	-0.235440	-0.359701	-0.371642	-1.581667	-0.076969	0.009774	0.000000
503	72.250275	0.172119	-10.123920	0.000000	2.354400	-0.359701	-0.373134	-1.581667	-0.046426	-0.018326	0.015882
504	72.379211	0.141083	-10.123920	0.000000	1.412640	-0.358209	-0.374627	-1.580000	-0.043982	-0.010996	0.017104
505	72.508148	0.190033	-10.123920	-0.117720	1.412640	-0.358209	-0.374627	-1.580000	-0.037874	-0.013439	0.010996
506	72.637085	0.158997	-10.241640	-0.117720	1.412640	-0.359701	-0.371642	-1.581667	-0.039095	-0.009774	0.017104
507	72.766052	0.126373	-10.123920	-0.117720	1.412640	-0.359701	-0.374627	-1.581667	-0.041539	-0.013439	0.013439
508	72.895020	0.176971	-10.006200	-0.117720	1.294920	-0.359701	-0.371642	-1.578333	-0.043982	-0.013439	0.009774
509	73.023987	0.145966	-10.123920	-0.117720	1.530360	-0.361194	-0.368657	-1.580000	-0.035430	-0.014661	0.014661
510	73.152924	0.194916	-10.123920	-0.117720	1.530360	-0.361194	-0.370149	-1.580000	-0.042761	-0.007330	0.014661
511	73.281860	0.163879	-10.241640	-0.117720	1.177200	-0.361194	-0.370149	-1.581667	-0.042761	-0.014661	0.017104
512	73.410767	0.132812	-10.006200	-0.117720	1.412640	-0.362687	-0.373134	-1.581667	-0.036652	-0.013439	0.018326
513	73.539673	0.181732	-10.123920	0.000000	1.530360	-0.356716	-0.371642	-1.581667	-0.042761	-0.015882	0.013439
514	73.668640	0.150726	-10.006200	-0.235440	1.412640	-0.358209	-0.373134	-1.578333	-0.039095	-0.014661	0.020769
515	73.797607	0.199707	-10.006200	0.000000	1.412640	-0.356716	-0.374627	-1.581667	-0.043982	-0.014661	0.013439
516	73.926514	0.168640	-10.006200	-0.117720	1.412640	-0.361194	-0.373134	-1.581667	-0.035430	-0.012217	0.007330
517	74.055450	0.137604	-10.241640	0.000000	1.412640	-0.356716	-0.373134	-1.578333	-0.031765	-0.014661	0.008552
518	74.184387	0.186554	-10.123920	-0.117720	1.294920	-0.359701	-0.373134	-1.583333	-0.039095	-0.014661	0.007330
519	74.313324	0.155518	-10.006200	-0.117720	1.412640	-0.359701	-0.371642	-1.581667	-0.039095	-0.008552	0.014661
520	74.442230	0.204437	-10.123920	-0.235440	0.824040	-0.358209	-0.373134	-1.581667	-0.015882	-0.012217	0.003665
521	74.571167	0.173401	-10.123920	-0.353160	0.117720	-0.358209	-0.365672	-1.586667	0.075747	-0.007330	-0.003665
522	74.700134	0.142395	-10.241640	-0.117720	1.177200	-0.346269	-0.358209	-1.586667	0.141721	0.001222	-0.006109
523	74.829132	0.190887	-10.123920	0.117720	0.000000	-0.341791	-0.356716	-1.570000	0.250455	-0.010996	-0.031765
524	74.958740	0.161041	-10.359360	0.117720	-0.941760	-0.344776	-0.329851	-1.535000	0.405615	0.036652	-0.034208
525	75.087036	0.129364	-10.123920	0.470880	0.470880	-0.347761	-0.300000	-1.516667	0.500909	0.020769	-0.045204
526	75.216003	0.178345	-10.123920	0.706320	1.294920	-0.338806	-0.265672	-1.500000	0.516792	0.024435	-0.031765
527	75.344971	0.147339	-10.123920	0.706320	1.648080	-0.341791	-0.229851	-1.485000	0.492357	0.023213	-0.030543
528	75.473907	0.196289	-10.123920	0.470880	1.294920	-0.344776	-0.197015	-1.478333	0.485027	0.023213	-0.040317
529	75.602844	0.165253	-10.123920	0.824040	1.177200	-0.347761	-0.161194	-1.475000	0.483805	0.024435	-0.036652
530	75.731781	0.134216	-10.123920	0.470880	1.765800	-0.353731	-0.126866	-1.473333	0.474031	0.025656	-0.031765
531	75.860748	0.183197	-10.006200	0.470880	2.118960	-0.356716	-0.095522	-1.483333	0.428827	0.014661	-0.024435
532	75.989655	0.152130	-10.006200	0.117720	2.001240	-0.365672	-0.068657	-1.490000	0.375071	0.006109	-0.021991
533	76.118591	0.201080	-9.888480	0.117720	2.472120	-0.373134	-0.041791	-1.501667	0.290772	0.009774	-0.010996
534	76.247528	0.170044	-10.123920	0.000000	2.118960	-0.377612	-0.025373	-1.510000	0.199142	0.001222	-0.003665
535	76.376495	0.139038	-10.123920	0.000000	1.883520	-0.377612	-0.013433	-1.521667	0.152716	0.000000	0.000000
536	76.505402	0.187958	-10.241640	0.000000	1.530360	-0.380597	-0.001493	-1.525000	0.124617	-0.001222	-0.003665
537	76.634308	0.156891	-10.006200	0.000000	1.530360	-0.382090	0.004478	-1.538333	0.101404	-0.002443	0.006109
538	76.763184	0.205780	-9.299880	0.706320	6.121440	-0.379104	0.007463	-1.543333	-0.109956	-0.182038	-0.002443
539	76.892151	0.174774	-9.888480	-0.470880	2.707560	-0.382090	0.004478	-1.538333	-0.014661	0.010996	0.013439
540	77.021088	0.143738	-10.241640	0.000000	0.941760	-0.382090	0.005970	-1.538333	0.021991	0.002443	0.002443
541	77.150055	0.190826	-10.006200	0.000000	1.177200	-0.383582	0.005970	-1.541667	-0.134390	-0.026878	0.023213
542	77.279022	0.161713	-10.241640	-0.117720	0.235440	-0.377612	0.010448	-1.540000	0.074526	-0.125838	-0.007330
543	77.407959	0.130676	-9.888480	0.000000	0.117720	-0.385075	0.008955	-1.543333	-0.019548	-0.080634	-0.001222
544	77.536957	0.179688	-10.241640	0.000000	1.059480	-0.382090	0.007463	-1.541667	-0.017104	-0.054978	0.001222
545	77.665863	0.148621	-10.006200	-0.117720	1.765800	-0.382090	0.007463	-1.541667	-0.041539	-0.019548	0.004887
546	77.794800	0.197571	-10.123920	-0.117720	1.530360	-0.382090	0.005970	-1.538333	-0.053756	-0.009774	0.012217
547	77.923767	0.166565	-10.123920	-0.235440	1.530360	-0.380597	0.008955	-1.540000	-0.041539	-0.013439	0.017104
548	78.052673	0.135498	-10.006200	-0.117720	1.648080	-0.386567	0.007463	-1.543333	-0.053756	-0.010996	0.014661
549	78.181641	0.184479	-10.123920	0.000000	1.412640	-0.382090	0.007463	-1.541667	-0.046426	-0.010996	0.010996
550	78.310608	0.153473	-10.123920	0.000000	1.412640	-0.380597	0.008955	-1.541667	-0.042761	-0.012217	0.012217
551	78.439575	0.202454	-10.241640	-0.117720	1.412640	-0.382090	0.010448	-1.540000	-0.034208	-0.012217	0.012217
552	78.568512	0.171417	-10.006200	-0.235440	1.530360	-0.383582	0.007463	-1.541667	-0.040317	-0.015882	0.013439
553	78.697479	0.140411	-10.006200	-0.117720	1.412640	-0.383582	0.007463	-1.541667	-0.034208	-0.014661	0.008552
554	78.826416	0.189362	-10.123920	-0.117720	1.412640	-0.383582	0.005970	-1.541667	-0.050091	-0.017104	0.010996
555	78.955353	0.158325	-10.006200	0.000000	1.530360	-0.385075	0.007463	-1.540000	-0.035430	-0.006109	0.010996
556	79.084290	0.126312	-10.123920	-0.117720	1.765800	-0.382090	0.007463	-1.538333	-0.063530	-0.006109	0.019548
557	79.213257	0.176270	-10.006200	0.000000	2.589840	-0.385075	0.002985	-1.536667	-0.146608	-0.019548	0.029322
558	79.342224	0.145264	-9.888480	0.000000	2.589840	-0.379104	0.000000	-1.530000	-0.259007	-0.029322	0.047647
559	79.471191	0.194244	-9.888480	0.000000	2.354400	-0.380597	-0.016418	-1.518333	-0.359189	-0.032987	0.052534
560	79.600159	0.163239	-9.888480	0.235440	2.118960	-0.377612	-0.032836	-1.506667	-0.426384	-0.030543	0.048869
561	79.729126	0.132233	-9.888480	0.235440	2.001240	-0.367164	-0.056716	-1.496667	-0.488692	-0.034208	0.056200
562	79.858063	0.181183	-9.888480	0.353160	1.648080	-0.362687	-0.085075	-1.486667	-0.513127	-0.036652	0.057421
563	79.987061	0.150208	-10.123920	0.353160	1.412640	-0.352239	-0.114925	-1.476667	-0.530231	-0.039095	0.062308
564	80.115967	0.199127	-10.123920	0.235440	1.294920	-0.350746	-0.147761	-1.471667	-0.522901	-0.040317	0.065973
565	80.244934	0.168121	-10.123920	0.353160	1.412640	-0.343284	-0.179104	-1.475000	-0.541227	-0.046426	0.059865
566	80.373871	0.137085	-10.006200	0.235440	1.412640	-0.341791	-0.210448	-1.483333	-0.551000	-0.041539	0.062308
567	80.502808	0.186035	-10.006200	0.470880	1.294920	-0.341791	-0.244776	-1.491667	-0.541227	-0.039095	0.063530
568	80.631744	0.154999	-10.359360	0.353160	0.941760	-0.346269	-0.277612	-1.506667	-0.508240	-0.036652	0.057421
569	80.760712	0.203979	-10.006200	0.117720	0.824040	-0.347761	-0.301493	-1.520000	-0.478918	-0.041539	0.056200
570	80.889679	0.172974	-10.123920	0.117720	0.706320	-0.343284	-0.338806	-1.540000	-0.421497	-0.030543	0.045204
571	81.018616	0.141937	-10.241640	0.000000	-0.588600	-0.340299	-0.356716	-1.576667	-0.289550	-0.037874	0.021991
572	81.147552	0.190826	-10.241640	-0.117720	-0.470880	-0.349254	-0.356716	-1.588333	-0.094073	0.013439	0.014661
573	81.276520	0.159882	-10.123920	-0.117720	1.059480	-0.355224	-0.362687	-1.586667	-0.046426	-0.013439	0.021991
574	81.405518	0.126373	-10.006200	0.000000	1.765800	-0.353731	-0.362687	-1.588333	-0.085521	-0.009774	0.021991
575	81.534485	0.177887	-10.359360	-0.117720	0.470880	-0.355224	-0.368657	-1.585000	-0.056200	-0.174707	0.004887
576	81.663452	0.146881	-10.123920	0.000000	3.531600	-0.359701	-0.373134	-1.581667	-0.076969	-0.031765	0.021991
577	81.792419	0.195862	-9.770760	-0.117720	2.001240	-0.358209	-0.370149	-1.581667	-0.042761	-0.012217	0.018326
578	81.921387	0.164856	-10.123920	-0.235440	1.530360	-0.362687	-0.371642	-1.581667	-0.037874	-0.012217	0.009774
579	82.050323	0.133820	-10.123920	-0.235440	1.648080	-0.361194	-0.373134	-1.580000	-0.047647	-0.013439	0.018326
580	82.179291	0.182800	-10.006200	-0.117720	1.294920	-0.362687	-0.373134	-1.581667	-0.042761	-0.006109	0.014661
581	82.308228	0.151764	-10.123920	-0.117720	1.530360	-0.358209	-0.373134	-1.583333	-0.043982	-0.010996	0.014661
582	82.437164	0.200714	-10.006200	0.000000	1.412640	-0.358209	-0.370149	-1.581667	-0.042761	-0.012217	0.017104
583	82.566101	0.169678	-10.006200	0.000000	1.294920	-0.356716	-0.370149	-1.581667	-0.046426	-0.012217	0.014661
584	82.695038	0.138641	-10.123920	0.000000	1.530360	-0.359701	-0.373134	-1.581667	-0.039095	-0.012217	0.009774
585	82.823975	0.187592	-10.241640	-0.117720	1.412640	-0.358209	-0.371642	-1.578333	-0.043982	-0.007330	0.017104
586	82.952911	0.156555	-10.123920	-0.117720	1.294920	-0.361194	-0.373134	-1.581667	-0.036652	-0.015882	0.015882
587	83.081848	0.205505	-10.241640	0.000000	1.412640	-0.359701	-0.370149	-1.583333	-0.037874	-0.007330	0.007330
588	83.210815	0.174500	-10.123920	-0.470880	0.941760	-0.356716	-0.371642	-1.581667	-0.046426	-0.013439	0.008552
589	83.339752	0.143463	-10.123920	-0.235440	1.412640	-0.359701	-0.371642	-1.581667	-0.034208	-0.010996	0.015882
590	83.468689	0.190826	-10.123920	0.000000	1.059480	-0.361194	-0.373134	-1.581667	-0.029322	-0.010996	0.012217
591	83.597656	0.161407	-10.241640	-0.117720	0.117720	-0.361194	-0.367164	-1.585000	0.058643	-0.004887	-0.004887
592	83.726624	0.130402	-10.241640	-0.117720	0.941760	-0.346269	-0.358209	-1.590000	0.122173	0.003665	-0.006109
593	83.855560	0.179352	-10.359360	-0.235440	-0.470880	-0.340299	-0.356716	-1.580000	0.196699	-0.002443	-0.020769
594	83.984497	0.148315	-10.241640	0.117720	-0.824040	-0.344776	-0.341791	-1.545000	0.360410	0.023213	-0.030543
595	84.113434	0.197266	-10.241640	0.353160	-0.470880	-0.346269	-0.308955	-1.521667	0.485027	0.021991	-0.047647
596	84.242371	0.166229	-10.123920	0.588600	0.706320	-0.341791	-0.276119	-1.505000	0.555887	0.025656	-0.046426
597	84.371277	0.135162	-10.123920	1.294920	1.294920	-0.340299	-0.238806	-1.490000	0.572992	0.026878	-0.043982
598	84.500214	0.184113	-10.123920	0.824040	2.589840	-0.341791	-0.197015	-1.478333	0.524122	0.024435	-0.029322
599	84.629150	0.153076	-10.123920	0.235440	2.472120	-0.346269	-0.164179	-1.476667	0.409280	0.021991	-0.021991
600	84.758087	0.202026	-10.006200	0.117720	2.707560	-0.350746	-0.134328	-1.473333	0.299324	0.008552	-0.009774
601	84.887054	0.171021	-10.006200	0.000000	2.589840	-0.355224	-0.114925	-1.475000	0.164934	0.003665	0.004887
602	85.015991	0.139984	-10.006200	0.117720	2.472120	-0.356716	-0.105970	-1.478333	0.059865	-0.009774	0.012217
603	85.144958	0.188965	-10.123920	0.000000	2.236680	-0.356716	-0.097015	-1.480000	-0.018326	-0.008552	0.009774
604	85.273895	0.157928	-10.006200	-0.117720	1.530360	-0.358209	-0.098507	-1.481667	-0.041539	-0.013439	0.018326
605	85.402863	0.126373	-10.123920	-0.117720	1.530360	-0.355224	-0.098507	-1.480000	-0.062308	-0.014661	0.015882
606	85.531860	0.175934	-9.888480	0.000000	1.883520	-0.358209	-0.097015	-1.481667	-0.076969	-0.012217	0.021991
607	85.660828	0.144928	-10.006200	-0.117720	2.472120	-0.359701	-0.098507	-1.481667	-0.157603	-0.019548	0.028100
608	85.789764	0.193878	-10.006200	0.000000	2.472120	-0.355224	-0.111940	-1.480000	-0.254120	-0.020769	0.040317
609	85.918732	0.162872	-10.006200	0.000000	2.236680	-0.349254	-0.128358	-1.476667	-0.324980	-0.029322	0.043982
610	86.047668	0.131836	-10.123920	0.117720	1.883520	-0.349254	-0.147761	-1.473333	-0.376293	-0.029322	0.045204
611	86.176636	0.180817	-10.123920	0.117720	2.001240	-0.346269	-0.171642	-1.476667	-0.426384	-0.031765	0.057421
612	86.305603	0.149811	-10.006200	0.235440	1.765800	-0.344776	-0.195522	-1.480000	-0.459371	-0.036652	0.061087
613	86.434570	0.198792	-10.123920	0.235440	1.648080	-0.341791	-0.223881	-1.485000	-0.478918	-0.037874	0.056200
614	86.563538	0.167786	-9.770760	0.235440	1.059480	-0.338806	-0.250746	-1.496667	-0.478918	-0.039095	0.050091
615	86.692505	0.136780	-10.123920	0.235440	0.824040	-0.343284	-0.282090	-1.508333	-0.445932	-0.031765	0.051313
616	86.821472	0.185760	-10.006200	0.235440	1.059480	-0.344776	-0.302985	-1.521667	-0.421497	-0.031765	0.045204
617	86.950409	0.154724	-10.123920	0.117720	1.059480	-0.344776	-0.329851	-1.536667	-0.381180	-0.028100	0.040317
618	87.079376	0.203705	-10.241640	0.000000	0.470880	-0.341791	-0.356716	-1.566667	-0.316428	-0.028100	0.035430
619	87.208344	0.172699	-10.123920	-0.117720	-0.706320	-0.343284	-0.353731	-1.586667	-0.160047	-0.020769	0.012217
620	87.337280	0.141663	-10.123920	-0.117720	0.353160	-0.350746	-0.359701	-1.588333	-0.205251	-0.017104	0.015882
621	87.466248	0.190643	-10.006200	-0.117720	1.648080	-0.356716	-0.361194	-1.585000	-0.063530	-0.015882	0.018326
622	87.595184	0.159607	-10.006200	0.000000	1.530360	-0.356716	-0.361194	-1.586667	-0.083078	-0.013439	0.020769
623	87.724182	0.126373	-10.006200	0.000000	1.412640	-0.358209	-0.367164	-1.580000	-0.086743	-0.013439	0.021991
624	87.853149	0.177612	-10.123920	-0.353160	-2.589840	-0.356716	-0.371642	-1.583333	-0.036652	-0.056200	0.000000
625	87.982117	0.146606	-10.006200	-0.117720	0.588600	-0.358209	-0.376119	-1.578333	-0.036652	-0.017104	0.015882
626	88.111084	0.195587	-10.123920	-0.117720	1.412640	-0.359701	-0.373134	-1.583333	-0.041539	-0.012217	0.012217
627	88.240082	0.164612	-10.006200	0.000000	1.648080	-0.361194	-0.371642	-1.581667	-0.043982	-0.015882	0.017104
628	88.369049	0.133606	-10.123920	-0.117720	1.294920	-0.359701	-0.370149	-1.581667	-0.040317	-0.010996	0.019548
629	88.498016	0.182587	-10.006200	-0.117720	1.412640	-0.358209	-0.373134	-1.581667	-0.037874	-0.008552	0.009774
630	88.627014	0.151611	-10.006200	0.000000	1.294920	-0.361194	-0.371642	-1.580000	-0.041539	-0.009774	0.008552
631	88.755981	0.200592	-10.123920	0.000000	1.412640	-0.356716	-0.370149	-1.580000	-0.040317	-0.009774	0.012217
632	88.884949	0.169586	-10.006200	-0.117720	1.294920	-0.356716	-0.370149	-1.581667	-0.037874	-0.015882	0.013439
633	89.013885	0.138550	-10.006200	0.000000	1.294920	-0.358209	-0.373134	-1.581667	-0.042761	-0.007330	0.010996
634	89.142853	0.187531	-9.888480	-0.117720	1.412640	-0.355224	-0.371642	-1.581667	-0.032987	-0.013439	0.014661
635	89.271820	0.156525	-10.006200	0.000000	1.530360	-0.358209	-0.370149	-1.581667	-0.042761	-0.014661	0.012217
636	89.400787	0.205505	-10.006200	-0.117720	1.530360	-0.358209	-0.370149	-1.583333	-0.043982	-0.015882	0.015882
637	89.529785	0.174530	-9.888480	0.000000	1.294920	-0.358209	-0.370149	-1.581667	-0.039095	-0.010996	0.015882
638	89.658783	0.143555	-10.123920	0.000000	1.412640	-0.358209	-0.373134	-1.583333	-0.032987	-0.008552	0.007330
639	89.787750	0.190887	-10.123920	-0.235440	1.412640	-0.358209	-0.370149	-1.581667	-0.039095	-0.010996	0.015882
640	89.916718	0.161530	-10.006200	-0.117720	1.177200	-0.358209	-0.374627	-1.581667	-0.039095	-0.012217	0.008552
641	90.045685	0.130524	-10.006200	-0.117720	1.294920	-0.359701	-0.370149	-1.581667	-0.032987	-0.019548	0.017104
642	90.174622	0.179474	-10.123920	0.000000	1.412640	-0.356716	-0.370149	-1.581667	-0.043982	-0.014661	0.013439
643	90.303558	0.148438	-10.123920	0.000000	1.412640	-0.355224	-0.371642	-1.580000	-0.037874	-0.010996	0.015882
644	90.432526	0.197418	-10.241640	-0.117720	1.294920	-0.356716	-0.370149	-1.580000	-0.043982	-0.014661	0.009774
645	90.561493	0.166412	-10.006200	-0.117720	1.412640	-0.358209	-0.370149	-1.583333	-0.032987	-0.014661	0.013439
646	90.690430	0.135376	-10.123920	-0.117720	1.530360	-0.361194	-0.370149	-1.583333	-0.041539	-0.017104	0.013439
647	90.819397	0.184357	-10.241640	0.000000	1.530360	-0.359701	-0.373134	-1.583333	-0.040317	-0.012217	0.013439
648	90.948334	0.153320	-10.123920	-0.117720	1.177200	-0.359701	-0.368657	-1.581667	-0.042761	-0.010996	0.013439
649	91.077271	0.202271	-10.006200	-0.117720	1.530360	-0.358209	-0.371642	-1.583333	-0.032987	-0.006109	0.012217
650	91.206238	0.171265	-10.123920	-0.117720	1.530360	-0.358209	-0.370149	-1.581667	-0.043982	-0.010996	0.017104
651	91.335175	0.140228	-10.006200	0.000000	1.530360	-0.361194	-0.370149	-1.583333	-0.040317	-0.012217	0.015882
652	91.464111	0.189178	-10.006200	-0.235440	1.294920	-0.359701	-0.370149	-1.583333	-0.043982	-0.012217	0.013439
653	91.593079	0.158173	-10.241640	0.000000	1.412640	-0.356716	-0.370149	-1.581667	-0.037874	-0.009774	0.018326
654	91.722046	0.126373	-10.006200	-0.235440	1.412640	-0.361194	-0.374627	-1.581667	-0.042761	-0.015882	0.012217
655	91.850983	0.176117	-10.006200	0.000000	1.294920	-0.361194	-0.371642	-1.581667	-0.042761	-0.010996	0.019548
656	91.979919	0.145081	-10.006200	-0.353160	1.294920	-0.356716	-0.374627	-1.580000	-0.041539	-0.014661	0.007330
657	92.108856	0.194031	-10.006200	-0.235440	1.294920	-0.358209	-0.371642	-1.581667	-0.039095	-0.007330	0.017104
658	92.237823	0.163025	-10.006200	-0.117720	1.530360	-0.359701	-0.374627	-1.580000	-0.045204	-0.006109	0.017104
659	92.366791	0.132019	-9.888480	-0.117720	1.412640	-0.358209	-0.370149	-1.581667	-0.039095	-0.015882	0.012217
660	92.495758	0.181000	-10.123920	-0.117720	1.530360	-0.356716	-0.374627	-1.580000	-0.036652	-0.013439	0.017104
661	92.624725	0.149994	-10.123920	0.000000	1.294920	-0.359701	-0.374627	-1.580000	-0.040317	-0.006109	0.012217
662	92.753693	0.198975	-10.123920	-0.117720	1.294920	-0.355224	-0.371642	-1.580000	-0.043982	-0.013439	0.019548
663	92.882690	0.167999	-10.123920	-0.117720	1.412640	-0.359701	-0.371642	-1.580000	-0.037874	-0.012217	0.010996
664	93.011688	0.137024	-10.123920	0.000000	1.530360	-0.359701	-0.373134	-1.580000	-0.034208	-0.010996	0.014661
665	93.140625	0.185974	-10.006200	-0.235440	1.294920	-0.358209	-0.371642	-1.581667	-0.046426	-0.006109	0.020769
666	93.269623	0.154999	-10.123920	-0.117720	1.294920	-0.359701	-0.371642	-1.578333	-0.047647	-0.010996	0.018326
667	93.398621	0.204010	-10.123920	-0.235440	1.412640	-0.361194	-0.370149	-1.580000	-0.034208	-0.013439	0.010996
668	93.527588	0.173004	-10.123920	-0.117720	1.412640	-0.362687	-0.373134	-1.580000	-0.032987	-0.014661	0.009774
669	93.656555	0.141998	-10.123920	-0.117720	1.412640	-0.361194	-0.373134	-1.580000	-0.045204	-0.014661	0.013439
670	93.785522	0.190857	-10.123920	-0.117720	1.412640	-0.358209	-0.370149	-1.580000	-0.040317	-0.013439	0.010996
671	93.914490	0.159973	-10.006200	-0.117720	1.294920	-0.359701	-0.370149	-1.580000	-0.043982	-0.009774	0.018326
672	94.043427	0.126373	-10.123920	-0.235440	1.530360	-0.358209	-0.370149	-1.580000	-0.039095	-0.009774	0.010996
673	94.172424	0.177948	-10.006200	0.000000	1.412640	-0.359701	-0.371642	-1.583333	-0.032987	-0.015882	0.007330
674	94.301392	0.146942	-10.123920	-0.235440	1.294920	-0.361194	-0.374627	-1.581667	-0.045204	-0.013439	0.018326
675	94.430328	0.195892	-10.241640	-0.117720	1.412640	-0.359701	-0.373134	-1.581667	-0.042761	-0.010996	0.010996
676	94.559296	0.164886	-10.006200	-0.117720	1.412640	-0.359701	-0.376119	-1.598333	-0.047647	-0.014661	0.009774
677	94.688232	0.133850	-10.006200	-0.117720	1.412640	-0.329851	-0.371642	-1.656667	-0.039095	-0.012217	0.014661
678	94.817230	0.182861	-10.241640	-0.235440	1.412640	-0.261194	-0.314925	-1.680000	-0.039095	-0.013439	0.013439
