# FOX Logger (IMU file)
# (c) INRIA 2013
## File created from file data/HIGPS00.RAW
#
# File format:
# id	t	dt	ax	ay	az	mx	my	mz	gx	gy	gz
#
# Units:
#	Time: s
#	Acceleration: m.s^-2
#	Magnetic field: gauss
#	Rotation speed: rad.s^-1
#
1	7.555267	7.555267	-10.123920	0.353160	1.765800	-6.113433	2.571642	-1.181667	-0.036652	-0.014661	0.010996
2	7.684204	0.155212	-10.123920	0.353160	1.765800	-6.113433	2.567164	-1.171667	-0.035430	-0.010996	0.017104
3	7.813080	0.204102	-10.006200	0.353160	1.883520	-6.113433	2.577612	-1.185000	-0.032987	-0.007330	0.014661
4	7.942017	0.173065	-10.241640	0.117720	1.883520	-6.113433	2.574627	-1.185000	-0.043982	-0.012217	0.015882
5	8.070984	0.142059	-10.123920	0.117720	1.765800	-6.113433	2.574627	-1.186667	-0.034208	-0.007330	0.006109
6	8.199921	0.190826	-9.888480	0.235440	1.883520	-6.113433	2.573134	-1.186667	-0.040317	-0.006109	0.008552
7	8.329926	0.161041	-10.123920	0.117720	1.765800	-6.113433	2.571642	-1.188333	-0.039095	-0.010996	0.014661
8	8.457855	0.128998	-10.123920	0.353160	1.648080	-6.113433	2.573134	-1.185000	-0.041539	-0.013439	0.009774
9	8.586823	0.177979	-10.123920	0.235440	1.883520	-6.113433	2.574627	-1.185000	-0.039095	-0.009774	0.018326
10	8.715759	0.146942	-10.006200	0.117720	2.001240	-6.113433	2.573134	-1.186667	-0.037874	-0.010996	0.013439
11	8.844757	0.195953	-10.006200	0.235440	1.765800	-6.113433	2.573134	-1.185000	-0.045204	-0.009774	0.013439
12	8.973724	0.164948	-10.006200	0.235440	1.883520	-6.113433	2.573134	-1.188333	-0.039095	-0.013439	0.017104
13	9.102722	0.133972	-10.006200	0.353160	1.765800	-6.113433	2.570149	-1.188333	-0.032987	-0.006109	0.014661
14	9.231659	0.182922	-10.006200	0.353160	1.648080	-6.113433	2.573134	-1.186667	-0.043982	-0.013439	0.017104
15	9.360626	0.151917	-10.123920	0.235440	2.001240	-6.113433	2.573134	-1.186667	-0.040317	-0.015882	0.010996
16	9.489532	0.200836	-10.241640	0.117720	1.765800	-6.113433	2.570149	-1.190000	-0.040317	-0.009774	0.017104
17	9.618500	0.169830	-10.006200	0.235440	1.648080	-6.113433	2.574627	-1.188333	-0.031765	-0.010996	0.008552
18	9.747406	0.138763	-10.123920	0.117720	1.765800	-6.113433	2.573134	-1.190000	-0.035430	-0.010996	0.012217
19	9.876373	0.187744	-10.241640	0.235440	1.648080	-6.113433	2.571642	-1.188333	-0.042761	-0.009774	0.014661
20	10.005310	0.156708	-10.241640	0.235440	1.883520	-6.113433	2.573134	-1.188333	-0.036652	-0.008552	0.017104
21	10.134247	0.205658	-10.241640	0.117720	1.883520	-6.113433	2.573134	-1.188333	-0.045204	-0.009774	0.019548
22	10.263184	0.174622	-10.123920	0.235440	1.765800	-6.113433	2.570149	-1.188333	-0.042761	-0.010996	0.014661
23	10.392120	0.143585	-10.123920	0.117720	1.648080	-6.113433	2.574627	-1.186667	-0.035430	-0.014661	0.015882
24	10.521027	0.190796	-10.006200	0.353160	1.765800	-6.113433	2.570149	-1.188333	-0.045204	-0.006109	0.015882
25	10.649963	0.161469	-10.123920	0.235440	1.765800	-6.113433	2.567164	-1.193333	-0.052534	-0.015882	0.021991
26	10.778870	0.130402	-10.006200	0.235440	1.883520	-6.113433	2.570149	-1.190000	-0.039095	-0.004887	0.019548
27	10.907806	0.179352	-10.123920	0.235440	1.765800	-6.113433	2.570149	-1.190000	-0.042761	-0.010996	0.017104
28	11.036743	0.148315	-10.006200	0.235440	1.883520	-6.113433	2.571642	-1.188333	-0.035430	-0.012217	0.013439
29	11.165710	0.197296	-10.006200	0.117720	1.883520	-6.113433	2.570149	-1.190000	-0.037874	-0.007330	0.010996
30	11.294647	0.166260	-10.123920	0.117720	1.648080	-6.113433	2.568657	-1.191667	-0.037874	-0.004887	0.015882
31	11.423615	0.135254	-10.123920	0.117720	1.765800	-6.113433	2.568657	-1.191667	-0.040317	-0.003665	0.015882
32	11.552582	0.184235	-10.241640	0.235440	1.883520	-6.113433	2.570149	-1.193333	-0.036652	-0.007330	0.019548
33	11.681519	0.153198	-10.006200	0.117720	1.765800	-6.113433	2.568657	-1.190000	-0.036652	-0.010996	0.012217
34	11.810455	0.202148	-9.888480	0.117720	1.883520	-6.113433	2.568657	-1.191667	-0.041539	-0.008552	0.015882
35	11.939423	0.171143	-10.006200	0.117720	1.883520	-6.113433	2.565672	-1.188333	-0.042761	-0.014661	0.017104
36	12.068390	0.140137	-9.888480	0.470880	1.765800	-6.113433	2.568657	-1.195000	-0.034208	-0.012217	0.012217
37	12.197388	0.189148	-10.006200	0.117720	1.765800	-6.113433	2.570149	-1.190000	-0.037874	-0.013439	0.018326
38	12.326385	0.158173	-10.006200	0.235440	1.765800	-6.113433	2.567164	-1.191667	-0.043982	-0.009774	0.014661
39	12.455353	0.126373	-10.123920	0.117720	1.648080	-6.113433	2.568657	-1.191667	-0.042761	-0.015882	0.014661
40	12.584290	0.176117	-10.123920	0.117720	1.765800	-6.113433	2.568657	-1.190000	-0.043982	-0.012217	0.020769
41	12.713226	0.145081	-10.123920	0.117720	1.765800	-6.113433	2.565672	-1.190000	-0.034208	-0.012217	0.017104
42	12.842194	0.194061	-10.123920	0.353160	1.883520	-6.113433	2.567164	-1.191667	-0.042761	-0.006109	0.008552
43	12.971130	0.163025	-10.123920	0.353160	1.883520	-6.113433	2.571642	-1.196667	-0.030543	-0.012217	0.019548
44	13.100067	0.131989	-10.123920	0.235440	1.765800	-6.113433	2.570149	-1.191667	-0.041539	-0.009774	0.017104
45	13.229004	0.180939	-10.123920	0.117720	1.765800	-6.113433	2.565672	-1.190000	-0.036652	-0.010996	0.012217
46	13.357971	0.149933	-10.123920	0.235440	1.765800	-6.113433	2.565672	-1.191667	-0.040317	-0.006109	0.014661
47	13.486938	0.198914	-10.123920	0.117720	1.530360	-6.113433	2.565672	-1.191667	-0.035430	-0.010996	0.015882
48	13.615875	0.167877	-10.006200	0.117720	1.648080	-6.113433	2.567164	-1.193333	-0.046426	-0.010996	0.018326
49	13.744843	0.136871	-10.123920	0.235440	1.883520	-6.113433	2.564179	-1.191667	-0.040317	-0.013439	0.012217
50	13.873779	0.185822	-10.006200	0.117720	1.765800	-6.113433	2.567164	-1.195000	-0.048869	-0.007330	0.014661
51	14.002777	0.154846	-10.006200	0.235440	1.765800	-6.113433	2.564179	-1.193333	-0.037874	-0.010996	0.008552
52	14.131744	0.203827	-10.123920	0.353160	1.765800	-6.113433	2.567164	-1.190000	-0.040317	-0.012217	0.019548
53	14.260712	0.172821	-10.006200	0.235440	1.765800	-6.113433	2.568657	-1.195000	-0.040317	-0.012217	0.015882
54	14.389679	0.141815	-10.006200	0.117720	1.648080	-6.113433	2.568657	-1.190000	-0.034208	-0.007330	0.019548
55	14.518616	0.190765	-10.123920	0.117720	1.765800	-6.113433	2.567164	-1.191667	-0.046426	-0.009774	0.013439
56	14.647614	0.159790	-10.123920	0.117720	1.648080	-6.113433	2.567164	-1.191667	-0.036652	-0.012217	0.010996
57	14.776581	0.126373	-10.123920	0.235440	1.883520	-6.113433	2.567164	-1.191667	-0.040317	-0.013439	0.013439
58	14.905518	0.177734	-10.123920	0.117720	1.883520	-6.113433	2.567164	-1.195000	-0.037874	-0.008552	0.015882
59	15.034485	0.146729	-10.006200	0.353160	1.883520	-6.113433	2.565672	-1.195000	-0.037874	-0.009774	0.017104
60	15.163422	0.195679	-10.241640	0.117720	1.765800	-6.113433	2.565672	-1.193333	-0.042761	-0.004887	0.019548
61	15.292389	0.164673	-10.123920	0.235440	1.765800	-6.113433	2.568657	-1.195000	-0.039095	-0.012217	0.013439
62	15.421356	0.133667	-10.006200	0.117720	1.648080	-6.113433	2.565672	-1.191667	-0.042761	-0.010996	0.009774
63	15.550323	0.182648	-10.006200	0.235440	1.765800	-6.113433	2.564179	-1.195000	-0.036652	-0.008552	0.015882
64	15.679291	0.151642	-10.006200	0.470880	1.883520	-6.113433	2.564179	-1.193333	-0.040317	-0.008552	0.020769
65	15.808228	0.200592	-10.006200	0.235440	1.765800	-6.113433	2.567164	-1.191667	-0.037874	-0.012217	0.020769
66	15.937225	0.169617	-10.006200	0.117720	1.648080	-6.113433	2.565672	-1.191667	-0.036652	-0.008552	0.015882
67	16.066193	0.138611	-10.123920	0.235440	2.001240	-6.113433	2.568657	-1.195000	-0.041539	-0.014661	0.021991
68	16.195099	0.187531	-10.123920	0.235440	1.883520	-6.113433	2.568657	-1.191667	-0.046426	-0.010996	0.018326
69	16.324036	0.156494	-10.006200	0.117720	1.765800	-6.113433	2.565672	-1.193333	-0.040317	-0.007330	0.017104
70	16.453003	0.205475	-9.888480	0.117720	1.765800	-6.113433	2.568657	-1.198333	-0.040317	-0.006109	0.014661
71	16.581940	0.174438	-10.006200	0.353160	1.765800	-6.113433	2.564179	-1.195000	-0.035430	-0.009774	0.018326
72	16.710907	0.143433	-10.123920	0.235440	1.648080	-6.113433	2.567164	-1.196667	-0.046426	-0.007330	0.020769
73	16.839844	0.190826	-10.006200	0.235440	1.765800	-6.113433	2.567164	-1.195000	-0.034208	-0.007330	0.012217
74	16.968811	0.161377	-10.006200	0.235440	1.765800	-6.113433	2.561194	-1.193333	-0.041539	-0.010996	0.013439
75	17.097748	0.130341	-10.123920	0.235440	1.648080	-6.113433	2.562687	-1.191667	-0.031765	-0.010996	0.013439
76	17.226715	0.179321	-10.123920	0.353160	1.648080	-6.113433	2.564179	-1.195000	-0.050091	-0.008552	0.021991
77	17.355682	0.148315	-10.123920	0.235440	1.765800	-6.113433	2.562687	-1.195000	-0.043982	-0.008552	0.017104
78	17.484650	0.197296	-10.006200	0.000000	1.648080	-6.113433	2.564179	-1.191667	-0.036652	-0.012217	0.013439
79	17.613678	0.166351	-10.241640	0.353160	1.648080	-6.113433	2.564179	-1.193333	-0.032987	-0.010996	0.014661
80	17.742645	0.135345	-10.123920	0.353160	1.765800	-6.113433	2.564179	-1.196667	-0.043982	-0.014661	0.023213
81	17.871643	0.184357	-9.888480	0.235440	1.530360	-6.113433	2.567164	-1.193333	-0.041539	-0.006109	0.013439
82	18.000641	0.153381	-10.123920	0.117720	2.001240	-6.113433	2.564179	-1.196667	-0.040317	-0.004887	0.014661
83	18.129639	0.202393	-10.123920	0.235440	1.765800	-6.113433	2.565672	-1.196667	-0.031765	-0.009774	0.018326
84	18.258636	0.171417	-10.006200	0.353160	2.001240	-6.113433	2.561194	-1.193333	-0.036652	-0.010996	0.014661
85	18.387634	0.140442	-10.123920	0.235440	1.765800	-6.113433	2.564179	-1.198333	-0.035430	-0.008552	0.015882
86	18.516632	0.189453	-9.888480	0.353160	1.765800	-6.113433	2.565672	-1.198333	-0.036652	-0.008552	0.020769
87	18.645660	0.158508	-10.241640	0.235440	1.765800	-6.113433	2.561194	-1.193333	-0.043982	-0.012217	0.015882
88	18.774628	0.126373	-10.006200	0.117720	1.648080	-6.113433	2.565672	-1.198333	-0.039095	-0.010996	0.021991
89	18.903625	0.176514	-9.888480	0.353160	1.648080	-6.113433	2.561194	-1.195000	-0.037874	-0.009774	0.020769
90	19.032623	0.145538	-10.123920	0.235440	1.530360	-6.113433	2.562687	-1.196667	-0.031765	-0.008552	0.013439
91	19.161591	0.194519	-10.123920	0.235440	1.648080	-6.113433	2.564179	-1.196667	-0.035430	-0.014661	0.012217
92	19.290558	0.163513	-10.123920	0.117720	1.765800	-6.113433	2.562687	-1.198333	-0.045204	-0.010996	0.012217
93	19.419525	0.132507	-10.006200	0.000000	1.765800	-6.113433	2.564179	-1.196667	-0.034208	-0.013439	0.018326
94	19.548492	0.181488	-10.123920	0.117720	1.765800	-6.113433	2.564179	-1.200000	-0.041539	-0.012217	0.015882
95	19.677490	0.150513	-10.123920	0.117720	1.765800	-6.113433	2.564179	-1.196667	-0.050091	-0.010996	0.008552
96	19.806458	0.199493	-10.123920	0.353160	1.765800	-6.113433	2.562687	-1.198333	-0.040317	-0.006109	0.019548
97	19.935455	0.168518	-10.006200	0.117720	1.765800	-6.113433	2.564179	-1.193333	-0.034208	-0.009774	0.023213
98	20.064453	0.137543	-10.006200	0.235440	1.648080	-6.113433	2.561194	-1.196667	-0.036652	-0.007330	0.015882
99	20.193420	0.186523	-10.006200	0.470880	1.883520	-6.113433	2.561194	-1.200000	-0.040317	-0.008552	0.018326
100	20.322388	0.155518	-10.241640	0.117720	1.883520	-6.113433	2.559701	-1.193333	-0.037874	-0.009774	0.020769
101	20.451355	0.204498	-10.006200	0.117720	1.648080	-6.113433	2.562687	-1.195000	-0.048869	-0.013439	0.008552
102	20.580322	0.173492	-9.888480	0.235440	1.765800	-6.113433	2.561194	-1.198333	-0.030543	-0.009774	0.019548
103	20.709290	0.142487	-10.006200	0.235440	1.648080	-6.113433	2.564179	-1.191667	-0.042761	-0.007330	0.020769
104	20.838257	0.190887	-10.006200	0.235440	1.648080	-6.113433	2.565672	-1.193333	-0.041539	-0.014661	0.012217
105	20.967834	0.161072	-10.123920	0.235440	1.765800	-6.113433	2.564179	-1.196667	-0.035430	-0.010996	0.014661
106	21.096191	0.129456	-10.241640	0.117720	1.765800	-6.113433	2.564179	-1.198333	-0.042761	-0.009774	0.017104
107	21.225159	0.178436	-10.123920	0.235440	1.765800	-6.113433	2.559701	-1.196667	-0.042761	-0.012217	0.018326
108	21.354156	0.147461	-10.241640	0.235440	1.883520	-6.113433	2.561194	-1.196667	-0.036652	-0.008552	0.014661
109	21.483154	0.196472	-10.123920	0.235440	1.765800	-6.113433	2.559701	-1.195000	-0.035430	-0.006109	0.014661
110	21.612152	0.165497	-10.006200	0.235440	2.001240	-6.113433	2.562687	-1.201667	-0.035430	-0.009774	0.013439
111	21.741150	0.134521	-10.006200	0.353160	2.001240	-6.113433	2.561194	-1.196667	-0.053756	0.003665	0.017104
112	21.870117	0.183502	-10.006200	0.235440	1.883520	-6.113433	2.559701	-1.198333	-0.030543	-0.021991	0.014661
113	21.999115	0.152527	-10.006200	0.117720	2.118960	-6.113433	2.558209	-1.198333	-0.026878	-0.025656	0.015882
114	22.128082	0.201508	-9.888480	0.353160	1.765800	-6.113433	2.559701	-1.198333	-0.037874	-0.014661	0.013439
115	22.257080	0.170532	-10.006200	0.235440	1.648080	-6.113433	2.561194	-1.196667	-0.032987	-0.030543	0.017104
116	22.386047	0.139526	-10.006200	0.117720	1.530360	-6.113433	2.562687	-1.200000	-0.037874	-0.007330	0.017104
117	22.515015	0.188507	-10.006200	0.353160	1.648080	-6.113433	2.526866	-1.198333	-0.048869	-0.009774	0.013439
118	22.643982	0.157501	-10.123920	0.588600	1.883520	-6.113433	2.055224	-1.213333	-0.043982	-0.010996	0.013439
119	22.772980	0.126404	-10.241640	1.059480	1.530360	-2.385075	1.195522	-1.363333	-0.034208	-0.028100	0.014661
120	22.901978	0.175537	-10.359360	1.765800	1.294920	-1.779104	0.874627	-1.540000	0.034208	-0.177151	0.019548
121	23.030975	0.144562	-9.417600	0.706320	2.001240	-1.579104	0.843284	-1.615000	-0.012217	-0.079412	0.010996
122	23.159973	0.193573	-7.651800	-3.649320	3.296160	-1.534328	0.841791	-1.640000	-0.193033	-0.068417	0.001222
123	23.288971	0.162598	-9.770760	0.470880	5.532840	-1.523881	0.847761	-1.638333	-0.169821	0.227242	-0.013439
124	23.417969	0.131622	-11.772000	2.118960	0.706320	-1.529851	0.846269	-1.641667	0.343306	-0.675617	0.120951
125	23.546967	0.180634	-10.359360	0.588600	4.944240	-1.526866	0.847761	-1.636667	-0.536340	0.937067	-0.064752
126	23.675964	0.149658	-10.477080	0.588600	1.530360	-1.526866	0.844776	-1.643333	-0.160047	0.259007	-0.015882
127	23.804993	0.198700	-10.241640	0.235440	0.824040	-1.528358	0.844776	-1.643333	0.116064	-0.302989	0.029322
128	23.933960	0.167694	-10.123920	0.117720	2.354400	-1.523881	0.847761	-1.643333	-0.013439	-0.061087	0.010996
129	24.062958	0.136719	-10.006200	0.353160	1.648080	-1.523881	0.843284	-1.640000	-0.029322	-0.053756	0.021991
130	24.191895	0.185669	-10.006200	0.235440	1.648080	-1.526866	0.843284	-1.638333	-0.039095	0.000000	0.012217
131	24.320862	0.154663	-10.123920	0.235440	1.883520	-1.525373	0.843284	-1.640000	-0.032987	-0.034208	0.015882
132	24.449829	0.203644	-10.123920	0.235440	1.883520	-1.528358	0.844776	-1.640000	-0.029322	-0.051313	0.018326
133	24.578827	0.172668	-10.123920	0.353160	1.530360	-1.523881	0.844776	-1.643333	-0.048869	0.002443	0.009774
134	24.707825	0.141693	-10.123920	0.117720	1.530360	-1.525373	0.847761	-1.641667	-0.036652	-0.015882	0.013439
135	24.836792	0.190674	-10.006200	0.117720	1.648080	-1.528358	0.843284	-1.638333	-0.037874	-0.014661	0.018326
136	24.965790	0.159698	-10.006200	0.235440	1.765800	-1.525373	0.846269	-1.641667	-0.051313	-0.009774	0.008552
137	25.094788	0.126404	-10.006200	0.235440	1.648080	-1.523881	0.847761	-1.643333	-0.039095	-0.007330	0.015882
138	25.223785	0.177734	-10.006200	0.353160	1.294920	-1.523881	0.846269	-1.640000	-0.021991	-0.023213	0.018326
139	25.352783	0.146759	-10.123920	0.235440	1.294920	-1.525373	0.852239	-1.640000	0.009774	-0.123395	0.012217
140	25.481750	0.195740	-9.770760	-0.117720	0.824040	-1.522388	0.840299	-1.640000	0.023213	-0.188146	0.017104
141	25.610718	0.164734	-10.123920	0.706320	1.648080	-1.526866	0.844776	-1.641667	0.030543	-0.131947	0.013439
142	25.739685	0.133728	-10.006200	0.353160	2.472120	-1.528358	0.843284	-1.641667	-0.130725	0.146608	0.008552
143	25.868652	0.182709	-10.123920	0.117720	1.059480	-1.523881	0.843284	-1.638333	-0.098960	0.130725	0.008552
144	25.997681	0.151764	-10.123920	0.941760	2.001240	-1.523881	0.844776	-1.643333	-0.008552	-0.083078	0.014661
145	26.126678	0.200775	-10.123920	1.059480	1.648080	-1.522388	0.844776	-1.640000	-0.028100	-0.030543	0.000000
146	26.255676	0.169800	-10.123920	0.706320	1.059480	-1.519403	0.844776	-1.646667	-0.162490	0.252898	0.002443
147	26.384674	0.138824	-9.064440	0.588600	0.000000	-1.517910	0.841791	-1.646667	-0.007330	-0.037874	0.017104
148	26.513672	0.187836	-9.888480	0.117720	0.941760	-1.517910	0.835821	-1.645000	-0.105069	0.146608	0.010996
149	26.642700	0.156891	-10.241640	0.353160	1.765800	-1.516418	0.834328	-1.643333	-0.009774	-0.064752	0.019548
150	26.771698	0.205902	-9.653040	0.470880	2.118960	-1.513433	0.837313	-1.643333	-0.001222	-0.036652	0.026878
151	26.900696	0.174927	-10.241640	0.588600	2.236680	-1.511940	0.837313	-1.641667	-0.046426	0.009774	0.018326
152	27.029694	0.143951	-9.535320	0.353160	2.472120	-1.514925	0.843284	-1.638333	-0.059865	0.008552	0.020769
153	27.158722	0.190918	-9.417600	0.235440	1.412640	-1.519403	0.843284	-1.640000	0.076969	-0.234572	0.006109
154	27.287720	0.162018	-6.356880	-1.177200	1.294920	-1.519403	0.852239	-1.635000	0.043982	-0.160047	0.019548
155	27.416718	0.131042	-7.298640	-0.588600	0.941760	-1.520896	0.853731	-1.645000	0.122173	-0.311541	0.046426
156	27.545746	0.180084	-9.182160	-0.235440	1.294920	-1.523881	0.852239	-1.643333	-0.086743	0.087965	0.009774
157	27.674744	0.149109	-9.535320	0.000000	-0.117720	-1.520896	0.852239	-1.650000	0.041539	-0.166155	0.021991
158	27.803772	0.198151	-10.241640	0.000000	0.470880	-1.528358	0.853731	-1.650000	-0.208916	0.327424	0.002443
159	27.932831	0.167236	-10.123920	0.706320	1.765800	-1.529851	0.846269	-1.655000	-0.030543	-0.004887	0.017104
160	28.061859	0.136292	-9.770760	0.353160	0.706320	-1.529851	0.843284	-1.655000	-0.014661	-0.056200	0.008552
161	28.190918	0.185364	-10.241640	0.235440	0.941760	-1.528358	0.843284	-1.656667	-0.189368	0.267559	0.002443
162	28.319946	0.154419	-10.477080	0.588600	0.941760	-1.532836	0.840299	-1.651667	-0.031765	-0.019548	0.015882
163	28.448944	0.203430	-10.241640	0.235440	1.648080	-1.528358	0.835821	-1.651667	0.001222	-0.087965	0.015882
164	28.577972	0.172485	-9.653040	0.000000	1.059480	-1.534328	0.828358	-1.651667	-0.042761	0.024435	0.019548
165	28.707001	0.141541	-10.359360	0.000000	2.001240	-1.531343	0.829851	-1.653333	0.130725	-0.393397	0.034208
166	28.836029	0.190582	-10.359360	0.117720	0.706320	-1.532836	0.825373	-1.656667	0.056200	-0.223577	0.024435
167	28.965088	0.159668	-10.241640	0.117720	0.470880	-1.531343	0.823881	-1.653333	0.015882	-0.123395	0.009774
168	29.094116	0.126434	-10.123920	0.117720	1.883520	-1.529851	0.823881	-1.656667	0.062308	-0.217468	0.028100
169	29.223114	0.177734	-10.123920	0.353160	1.530360	-1.532836	0.826866	-1.651667	-0.050091	0.001222	0.020769
170	29.352173	0.146820	-10.123920	0.000000	2.118960	-1.526866	0.822388	-1.651667	-0.018326	-0.063530	0.018326
171	29.481171	0.195831	-10.006200	0.117720	2.118960	-1.531343	0.825373	-1.653333	-0.035430	-0.014661	0.021991
172	29.610168	0.164856	-10.241640	0.117720	2.118960	-1.534328	0.825373	-1.651667	-0.059865	0.021991	0.017104
173	29.739197	0.133911	-10.006200	0.000000	2.118960	-1.535821	0.823881	-1.651667	-0.065973	0.024435	0.013439
174	29.868195	0.182922	-9.888480	0.235440	1.177200	-1.532836	0.829851	-1.653333	-0.074526	0.054978	0.006109
175	29.997162	0.151917	-10.241640	0.470880	1.765800	-1.531343	0.825373	-1.653333	-0.041539	0.023213	0.014661
176	30.126160	0.200928	-10.123920	0.235440	1.059480	-1.528358	0.828358	-1.650000	0.012217	-0.085521	0.007330
177	30.255157	0.169952	-10.123920	0.000000	1.294920	-1.532836	0.825373	-1.651667	-0.004887	-0.086743	0.010996
178	30.384155	0.138977	-10.123920	0.117720	1.294920	-1.529851	0.826866	-1.651667	-0.010996	-0.073304	0.012217
179	30.513214	0.188049	-10.006200	0.235440	1.530360	-1.529851	0.829851	-1.655000	-0.036652	-0.004887	0.014661
180	30.642242	0.157104	-10.123920	0.235440	1.530360	-1.531343	0.826866	-1.650000	-0.048869	0.025656	0.007330
181	30.771271	0.206146	-10.123920	0.117720	1.530360	-1.532836	0.829851	-1.653333	-0.047647	0.000000	0.013439
182	30.900330	0.175232	-10.241640	0.117720	1.765800	-1.529851	0.828358	-1.651667	-0.043982	0.000000	0.015882
183	31.029358	0.144287	-10.006200	0.117720	1.648080	-1.534328	0.823881	-1.650000	-0.051313	0.001222	0.018326
184	31.158417	0.190979	-10.006200	0.117720	1.765800	-1.531343	0.828358	-1.651667	-0.040317	-0.007330	0.014661
185	31.287476	0.162445	-10.123920	0.117720	1.883520	-1.529851	0.826866	-1.653333	-0.039095	-0.015882	0.006109
186	31.416504	0.131500	-10.123920	0.117720	1.765800	-1.531343	0.826866	-1.653333	-0.036652	-0.015882	0.018326
187	31.545532	0.180542	-10.006200	0.235440	1.648080	-1.531343	0.828358	-1.651667	-0.047647	-0.019548	0.012217
188	31.674591	0.149628	-10.006200	0.117720	1.765800	-1.531343	0.825373	-1.650000	-0.041539	-0.007330	0.010996
189	31.803619	0.198669	-10.123920	0.353160	1.530360	-1.531343	0.828358	-1.651667	-0.043982	-0.006109	0.017104
190	31.932587	0.167664	-10.241640	0.235440	1.412640	-1.529851	0.829851	-1.651667	-0.046426	-0.013439	0.018326
191	32.061646	0.136749	-10.123920	0.235440	1.648080	-1.532836	0.828358	-1.651667	-0.046426	-0.010996	0.019548
192	32.190704	0.185822	-10.123920	0.353160	1.648080	-1.531343	0.829851	-1.651667	-0.031765	-0.010996	0.010996
193	32.319733	0.154877	-10.006200	0.235440	1.648080	-1.531343	0.825373	-1.653333	-0.035430	-0.012217	0.015882
194	32.448730	0.203888	-10.006200	0.235440	1.765800	-1.534328	0.823881	-1.650000	-0.040317	-0.009774	0.018326
195	32.577759	0.172943	-10.006200	0.353160	1.648080	-1.532836	0.826866	-1.651667	-0.031765	-0.007330	0.012217
196	32.706787	0.141998	-10.006200	0.117720	1.530360	-1.531343	0.825373	-1.650000	-0.036652	-0.003665	0.018326
197	32.835846	0.190979	-10.123920	0.235440	1.765800	-1.531343	0.828358	-1.651667	-0.041539	-0.008552	0.017104
198	32.965790	0.161041	-10.123920	0.235440	1.530360	-1.531343	0.828358	-1.655000	-0.048869	0.021991	0.013439
199	33.093872	0.129150	-10.123920	0.235440	1.883520	-1.531343	0.823881	-1.653333	-0.045204	-0.003665	0.019548
200	33.222900	0.178192	-10.123920	0.117720	1.648080	-1.534328	0.825373	-1.651667	-0.050091	0.012217	0.018326
201	33.351898	0.147217	-10.123920	0.117720	1.294920	-1.529851	0.828358	-1.651667	-0.042761	0.008552	0.004887
202	33.480927	0.196259	-10.006200	0.235440	1.530360	-1.531343	0.825373	-1.651667	-0.040317	-0.015882	0.015882
203	33.609955	0.165314	-10.006200	0.235440	1.530360	-1.531343	0.828358	-1.653333	-0.034208	-0.014661	0.010996
204	33.738953	0.134338	-10.123920	0.235440	1.765800	-1.529851	0.823881	-1.651667	-0.042761	-0.012217	0.019548
205	33.867981	0.183380	-9.888480	0.235440	1.530360	-1.529851	0.825373	-1.651667	-0.035430	-0.009774	0.008552
206	33.997070	0.152496	-10.123920	0.235440	1.765800	-1.531343	0.828358	-1.650000	-0.034208	-0.026878	0.015882
207	34.126099	0.201538	-10.241640	0.117720	1.412640	-1.528358	0.822388	-1.653333	-0.015882	-0.042761	0.017104
208	34.255127	0.170593	-10.006200	0.000000	1.294920	-1.531343	0.829851	-1.651667	-0.029322	-0.018326	0.015882
209	34.384125	0.139618	-10.241640	0.000000	1.059480	-1.531343	0.828358	-1.651667	-0.014661	-0.079412	0.015882
210	34.513153	0.188660	-9.888480	0.000000	2.118960	-1.528358	0.828358	-1.650000	-0.083078	0.047647	0.017104
211	34.642181	0.157715	-10.241640	0.235440	1.530360	-1.529851	0.834328	-1.651667	-0.113621	0.172264	0.007330
212	34.771179	0.126404	-10.477080	0.353160	2.472120	-1.529851	0.834328	-1.651667	-0.227242	0.354302	0.006109
213	34.900177	0.175751	-10.123920	0.235440	1.412640	-1.528358	0.838806	-1.653333	-0.182038	0.078191	0.010996
214	35.029205	0.144806	-10.123920	0.117720	0.235440	-1.528358	0.843284	-1.650000	0.073304	-0.248011	0.024435
215	35.158203	0.193817	-9.770760	0.117720	0.117720	-1.526866	0.844776	-1.648333	0.119730	-0.339641	0.036652
216	35.287231	0.162872	-10.006200	0.117720	0.588600	-1.525373	0.847761	-1.650000	0.026878	-0.145386	0.021991
217	35.416260	0.131927	-10.123920	0.235440	2.001240	-1.525373	0.852239	-1.648333	-0.089186	0.109956	0.003665
218	35.545258	0.180939	-10.241640	-0.117720	1.530360	-1.525373	0.852239	-1.646667	-0.085521	0.057421	0.015882
219	35.674255	0.149963	-10.006200	0.353160	1.059480	-1.519403	0.850746	-1.645000	0.053756	-0.200364	0.017104
220	35.803284	0.199005	-9.888480	0.117720	1.294920	-1.517910	0.844776	-1.638333	-0.018326	-0.053756	0.012217
221	35.932343	0.168091	-11.183400	2.001240	3.884760	-1.516418	0.843284	-1.635000	-0.514349	0.841772	-0.089186
222	36.061371	0.137146	-7.298640	-0.117720	2.707560	-1.514925	0.840299	-1.631667	0.191812	-0.412945	0.034208
223	36.190399	0.186188	-10.241640	0.470880	-0.470880	-1.511940	0.834328	-1.636667	-0.085521	0.063530	-0.003665
224	36.319427	0.155243	-9.888480	0.588600	2.354400	-1.511940	0.834328	-1.638333	0.153938	-0.393397	0.073304
225	36.448486	0.204315	-10.359360	0.000000	3.178440	-1.514925	0.834328	-1.636667	-0.021991	-0.075747	0.023213
226	36.577484	0.173340	-10.123920	-0.117720	1.530360	-1.507463	0.835821	-1.636667	-0.267559	0.443488	-0.001222
227	36.706482	0.142365	-9.770760	0.235440	1.177200	-1.513433	0.838806	-1.643333	0.032987	-0.144164	0.021991
228	36.835449	0.190887	-10.123920	1.648080	3.178440	-1.522388	0.840299	-1.635000	-0.050091	-0.052534	0.009774
229	36.965118	0.161041	-9.888480	0.706320	3.413880	-1.535821	0.841791	-1.633333	-0.180816	0.284663	-0.004887
230	37.093445	0.129395	-10.477080	0.588600	0.470880	-1.546269	0.846269	-1.620000	0.101404	-0.302989	0.026878
231	37.222443	0.178406	-9.417600	0.117720	1.530360	-1.600000	0.841791	-1.603333	-0.070860	0.046426	0.009774
232	37.351471	0.147461	-10.123920	0.588600	0.117720	-1.746269	0.864179	-1.551667	-0.076969	0.043982	0.002443
233	37.480469	0.196472	-9.888480	0.235440	1.648080	-2.207463	1.068657	-1.421667	0.084299	-0.260229	0.028100
234	37.609467	0.165497	-7.651800	1.177200	3.531600	-6.113433	2.134328	-1.278333	-0.173486	0.346971	0.002443
235	37.738495	0.134552	-10.241640	-0.470880	2.354400	-6.113433	2.331343	-1.251667	-0.321315	0.557109	-0.042761
236	37.867554	0.183624	-10.477080	0.941760	4.355640	-6.113433	2.510448	-1.261667	0.013439	-0.133169	0.039095
237	37.996582	0.152679	-10.123920	0.353160	1.059480	-6.113433	2.574627	-1.228333	0.079412	-0.226020	0.029322
238	38.125641	0.201752	-10.123920	0.117720	0.117720	-6.113433	2.562687	-1.225000	-0.018326	-0.053756	0.010996
239	38.254669	0.170807	-10.123920	0.235440	1.883520	-6.113433	2.559701	-1.233333	-0.045204	0.002443	0.014661
240	38.383698	0.139862	-10.123920	0.235440	1.177200	-6.113433	2.555224	-1.233333	-0.041539	-0.001222	0.014661
241	38.512756	0.188934	-10.006200	0.235440	1.765800	-6.113433	2.556716	-1.236667	0.095295	0.006109	0.018326
242	38.641785	0.157990	-10.123920	0.353160	1.883520	-6.113433	2.553731	-1.235000	-0.024435	-0.040317	0.009774
243	38.770813	0.126434	-9.888480	0.117720	1.412640	-6.113433	2.556716	-1.235000	-0.046426	0.002443	0.013439
244	38.899872	0.176117	-10.123920	0.235440	1.765800	-6.113433	2.550746	-1.235000	-0.041539	-0.020769	0.014661
245	39.028931	0.145203	-10.123920	0.000000	1.530360	-6.113433	2.558209	-1.235000	-0.032987	-0.013439	0.009774
246	39.157959	0.194244	-10.006200	0.117720	1.412640	-6.113433	2.556716	-1.233333	-0.035430	-0.009774	0.015882
247	39.286987	0.163300	-9.770760	0.117720	1.530360	-6.113433	2.556716	-1.235000	-0.031765	-0.019548	0.014661
248	39.415985	0.132324	-10.123920	0.353160	1.648080	-6.113433	2.558209	-1.236667	-0.030543	-0.012217	0.018326
249	39.545044	0.181396	-10.241640	0.117720	1.765800	-6.113433	2.553731	-1.236667	-0.031765	-0.012217	0.012217
250	39.674072	0.150452	-10.241640	0.353160	1.765800	-6.113433	2.556716	-1.235000	-0.036652	-0.004887	0.009774
251	39.803070	0.199463	-10.006200	0.235440	1.648080	-6.113433	2.556716	-1.233333	-0.039095	-0.010996	0.017104
252	39.932098	0.168518	-10.006200	0.117720	1.765800	-6.113433	2.559701	-1.235000	-0.036652	-0.007330	0.014661
253	40.061127	0.137573	-10.123920	0.117720	1.648080	-6.113433	2.555224	-1.235000	-0.035430	-0.006109	0.015882
254	40.190155	0.186615	-10.006200	0.235440	1.530360	-6.113433	2.553731	-1.235000	-0.041539	-0.008552	0.014661
255	40.319183	0.155670	-10.123920	0.235440	1.648080	-6.113433	2.552239	-1.236667	-0.046426	-0.013439	0.010996
256	40.448273	0.204773	-10.123920	0.117720	1.648080	-6.113433	2.552239	-1.235000	-0.034208	-0.012217	0.014661
257	40.577301	0.173828	-10.241640	0.353160	1.530360	-6.113433	2.553731	-1.236667	-0.036652	-0.006109	0.010996
258	40.706360	0.142914	-10.241640	0.235440	1.648080	-6.113433	2.556716	-1.236667	-0.045204	-0.009774	0.020769
259	40.835388	0.190948	-10.123920	0.235440	1.648080	-6.113433	2.550746	-1.235000	-0.046426	-0.008552	0.010996
260	40.964447	0.161041	-10.123920	0.235440	1.765800	-6.113433	2.553731	-1.233333	-0.053756	-0.007330	0.021991
261	41.093475	0.130096	-10.006200	0.235440	1.648080	-6.113433	2.552239	-1.233333	-0.032987	-0.010996	0.014661
262	41.222534	0.179169	-10.123920	0.117720	1.530360	-6.113433	2.552239	-1.236667	-0.036652	-0.012217	0.015882
263	41.351532	0.148193	-10.123920	0.235440	1.648080	-6.113433	2.555224	-1.238333	-0.063530	0.037874	0.014661
264	41.480560	0.197235	-10.123920	0.117720	2.001240	-6.113433	2.555224	-1.236667	-0.015882	-0.058643	0.003665
265	41.609619	0.166321	-10.123920	0.235440	1.765800	-6.113433	2.556716	-1.233333	-0.072082	0.035430	0.012217
266	41.738647	0.135376	-10.006200	0.117720	1.412640	-6.113433	2.556716	-1.235000	-0.021991	-0.062308	0.013439
267	41.867676	0.184418	-10.123920	0.235440	1.294920	-6.113433	2.555224	-1.235000	-0.047647	-0.002443	0.012217
268	41.996735	0.153503	-10.123920	0.353160	1.765800	-6.113433	2.556716	-1.238333	-0.039095	-0.002443	0.013439
269	42.125793	0.202576	-10.123920	0.235440	1.883520	-6.113433	2.550746	-1.235000	-0.040317	0.014661	0.018326
270	42.254852	0.171661	-10.006200	0.235440	1.765800	-6.113433	2.552239	-1.235000	-0.036652	-0.020769	0.013439
271	42.383911	0.140747	-10.006200	0.117720	1.530360	-6.113433	2.555224	-1.233333	-0.040317	-0.013439	0.014661
272	42.512970	0.189819	-10.123920	0.235440	1.648080	-6.113433	2.555224	-1.235000	-0.034208	-0.004887	0.013439
273	42.642029	0.158905	-10.006200	0.235440	1.530360	-6.113433	2.553731	-1.236667	-0.043982	-0.010996	0.014661
274	42.771118	0.126495	-10.006200	0.235440	1.530360	-6.113433	2.553731	-1.236667	-0.030543	-0.009774	0.015882
275	42.900177	0.177094	-9.888480	0.353160	1.530360	-6.113433	2.555224	-1.235000	-0.047647	0.001222	0.019548
276	43.029236	0.146179	-10.006200	0.235440	1.530360	-6.113433	2.549254	-1.236667	-0.036652	-0.030543	0.018326
277	43.158295	0.195251	-10.241640	0.117720	1.530360	-6.113433	2.552239	-1.235000	-0.037874	-0.002443	0.010996
278	43.287323	0.164307	-10.006200	0.706320	1.883520	-6.113433	2.359701	-1.233333	-0.035430	-0.008552	0.018326
279	43.416351	0.133362	-9.888480	0.706320	1.648080	-4.301493	1.470149	-1.305000	-0.046426	0.012217	0.018326
280	43.545410	0.182434	-9.535320	0.353160	1.177200	-1.961194	0.937313	-1.481667	-0.014661	0.006109	0.000000
281	43.674438	0.151489	-9.653040	0.235440	3.413880	-1.643284	0.844776	-1.585000	-0.294437	0.498466	-0.015882
282	43.803497	0.200562	-10.123920	-0.353160	-0.353160	-1.546269	0.840299	-1.623333	-0.111177	0.158825	0.008552
283	43.932526	0.169617	-9.888480	0.470880	1.765800	-1.525373	0.840299	-1.633333	-0.160047	0.188146	-0.001222
284	44.061584	0.138702	-10.359360	0.824040	3.060720	-1.511940	0.838806	-1.636667	-0.041539	-0.021991	0.019548
285	44.190613	0.187744	-10.477080	0.824040	1.412640	-1.507463	0.831343	-1.636667	-0.098960	0.119730	0.012217
286	44.319672	0.156830	-10.241640	0.588600	0.000000	-1.507463	0.831343	-1.636667	0.026878	-0.135612	0.012217
287	44.448761	0.205933	-10.123920	0.000000	0.824040	-1.510448	0.832836	-1.636667	-0.118508	0.186925	0.008552
288	44.577820	0.175018	-9.653040	0.235440	1.059480	-1.508955	0.835821	-1.635000	0.041539	-0.162490	0.023213
289	44.706818	0.144043	-11.301120	0.235440	1.059480	-1.514925	0.844776	-1.635000	-0.142942	0.136834	-0.002443
290	44.835876	0.190979	-10.123920	0.353160	3.884760	-1.514925	0.847761	-1.633333	-0.050091	0.035430	0.023213
291	44.964935	0.162201	-8.240400	0.000000	4.708800	-1.514925	0.843284	-1.636667	0.053756	-0.199142	0.013439
292	45.093994	0.131287	-8.358120	-0.588600	0.353160	-1.519403	0.846269	-1.643333	0.072082	-0.212581	0.024435
293	45.223083	0.180389	-9.299880	-0.588600	0.706320	-1.525373	0.846269	-1.646667	0.020769	-0.114843	0.018326
294	45.352173	0.149506	-9.535320	0.235440	0.353160	-1.522388	0.843284	-1.646667	0.105069	-0.291994	0.017104
295	45.481232	0.198578	-9.888480	0.000000	2.236680	-1.523881	0.835821	-1.650000	0.048869	-0.193033	0.023213
296	45.610291	0.167664	-9.888480	0.470880	2.589840	-1.529851	0.832836	-1.650000	-0.053756	0.018326	0.023213
297	45.739349	0.136749	-9.770760	-0.235440	1.883520	-1.526866	0.828358	-1.650000	0.001222	-0.084299	0.018326
298	45.868408	0.185822	-10.006200	-0.235440	1.765800	-1.526866	0.822388	-1.650000	-0.197920	0.250455	0.012217
299	45.997467	0.154907	-10.123920	0.000000	0.706320	-1.525373	0.823881	-1.648333	-0.195477	0.265116	-0.004887
300	46.126526	0.203979	-10.123920	0.000000	2.589840	-1.528358	0.823881	-1.646667	0.012217	-0.277333	0.017104
301	46.255585	0.173065	-9.888480	0.000000	1.294920	-1.529851	0.820896	-1.648333	-0.085521	0.053756	0.023213
302	46.384644	0.142151	-10.006200	0.235440	-0.235440	-1.528358	0.817910	-1.648333	-0.029322	0.004887	0.004887
303	46.513733	0.191010	-9.888480	0.235440	1.294920	-1.526866	0.819403	-1.650000	-0.009774	-0.073304	0.015882
304	46.643494	0.161041	-10.123920	0.117720	1.412640	-1.529851	0.828358	-1.648333	-0.041539	-0.025656	0.013439
305	46.771881	0.129456	-9.888480	0.117720	1.648080	-1.529851	0.822388	-1.650000	-0.050091	0.009774	0.008552
306	46.900970	0.178558	-10.241640	0.235440	2.001240	-1.529851	0.820896	-1.648333	-0.023213	-0.040317	0.012217
307	47.030029	0.147644	-10.006200	0.353160	1.294920	-1.529851	0.823881	-1.650000	-0.040317	0.008552	0.017104
308	47.159119	0.196747	-10.123920	0.235440	1.412640	-1.525373	0.823881	-1.648333	-0.036652	-0.021991	0.010996
309	47.288208	0.165863	-10.006200	0.235440	1.648080	-1.531343	0.820896	-1.648333	-0.046426	-0.006109	0.012217
310	47.417297	0.134979	-10.123920	0.117720	1.530360	-1.526866	0.823881	-1.650000	-0.041539	0.007330	0.009774
311	47.546387	0.184082	-10.123920	0.117720	1.648080	-1.529851	0.819403	-1.648333	-0.035430	-0.018326	0.012217
312	47.675446	0.153168	-10.241640	0.235440	1.648080	-1.528358	0.820896	-1.650000	-0.040317	-0.021991	0.012217
313	47.804504	0.202240	-10.241640	0.117720	1.648080	-1.526866	0.822388	-1.646667	-0.037874	-0.008552	0.015882
314	47.933594	0.171356	-10.123920	0.353160	1.530360	-1.528358	0.820896	-1.648333	-0.045204	-0.008552	0.012217
315	48.062653	0.140442	-10.241640	0.235440	1.648080	-1.525373	0.822388	-1.650000	-0.042761	-0.010996	0.014661
316	48.191711	0.189514	-9.888480	0.235440	1.294920	-1.528358	0.820896	-1.646667	-0.037874	-0.004887	0.020769
317	48.320770	0.158600	-10.123920	0.235440	1.530360	-1.528358	0.820896	-1.648333	-0.048869	-0.009774	0.018326
318	48.449829	0.126434	-10.006200	0.470880	1.530360	-1.525373	0.826866	-1.648333	-0.036652	-0.008552	0.013439
319	48.578888	0.176758	-10.006200	0.235440	1.648080	-1.529851	0.819403	-1.650000	-0.039095	-0.010996	0.019548
320	48.707977	0.145874	-10.241640	0.235440	1.530360	-1.529851	0.822388	-1.650000	-0.047647	-0.008552	0.014661
321	48.837097	0.195007	-10.123920	0.235440	1.765800	-1.529851	0.822388	-1.648333	-0.042761	-0.010996	0.019548
322	48.966187	0.164124	-10.241640	0.117720	1.648080	-1.529851	0.822388	-1.646667	-0.030543	-0.010996	0.019548
323	49.095245	0.133209	-10.241640	0.235440	1.648080	-1.528358	0.819403	-1.650000	-0.042761	-0.015882	0.015882
324	49.224335	0.182312	-10.006200	0.353160	1.412640	-1.528358	0.819403	-1.646667	-0.040317	-0.012217	0.013439
325	49.353363	0.151367	-10.123920	0.353160	1.530360	-1.531343	0.822388	-1.648333	-0.036652	-0.008552	0.009774
326	49.482483	0.200500	-10.006200	0.235440	1.412640	-1.531343	0.822388	-1.648333	-0.042761	-0.007330	0.012217
327	49.611572	0.169617	-10.241640	0.353160	1.530360	-1.528358	0.822388	-1.651667	-0.034208	-0.008552	0.012217
328	49.740662	0.138733	-10.241640	0.235440	1.530360	-1.525373	0.825373	-1.650000	-0.041539	-0.008552	0.020769
329	49.869751	0.187836	-10.123920	0.117720	1.648080	-1.531343	0.823881	-1.651667	-0.040317	-0.008552	0.015882
330	49.998779	0.156891	-10.006200	0.235440	1.648080	-1.525373	0.822388	-1.646667	-0.050091	-0.010996	0.014661
331	50.127838	0.205963	-10.006200	0.353160	1.648080	-1.529851	0.820896	-1.648333	-0.035430	-0.006109	0.006109
332	50.256897	0.175049	-9.888480	0.235440	1.530360	-1.526866	0.822388	-1.646667	-0.037874	-0.012217	0.010996
333	50.385956	0.144135	-10.006200	0.117720	1.648080	-1.528358	0.819403	-1.646667	-0.039095	-0.009774	0.008552
334	50.515015	0.191010	-10.123920	0.235440	1.883520	-1.525373	0.823881	-1.646667	-0.108734	0.109956	0.024435
335	50.644073	0.162292	-10.006200	0.117720	2.118960	-1.526866	0.825373	-1.646667	-0.069639	0.041539	0.026878
336	50.773132	0.131378	-10.123920	-0.117720	0.588600	-1.523881	0.823881	-1.648333	-0.064752	0.045204	0.001222
337	50.902191	0.180450	-9.770760	-0.235440	1.765800	-1.528358	0.825373	-1.650000	0.031765	-0.160047	0.020769
338	51.031281	0.149567	-9.888480	-0.117720	1.765800	-1.526866	0.828358	-1.651667	-0.167377	0.216246	0.018326
339	51.160309	0.198608	-9.888480	0.235440	0.470880	-1.526866	0.831343	-1.650000	-0.092852	0.129503	-0.002443
340	51.289368	0.167694	-9.888480	0.000000	0.000000	-1.522388	0.834328	-1.648333	0.051313	-0.177151	0.014661
341	51.418427	0.136780	-10.006200	0.000000	0.000000	-1.528358	0.841791	-1.648333	0.028100	-0.150273	0.009774
342	51.547485	0.185852	-9.888480	0.117720	1.177200	-1.523881	0.843284	-1.648333	-0.023213	-0.012217	0.009774
343	51.676575	0.154968	-10.006200	0.235440	1.648080	-1.522388	0.847761	-1.643333	-0.120951	0.163712	0.004887
344	51.805603	0.204010	-10.241640	0.353160	1.059480	-1.520896	0.849254	-1.641667	0.047647	-0.196699	0.028100
345	51.934662	0.173096	-10.006200	0.000000	0.941760	-1.516418	0.846269	-1.636667	0.036652	-0.147829	0.024435
346	52.063721	0.142181	-10.830240	0.824040	2.589840	-1.511940	0.840299	-1.633333	-0.171042	0.241903	0.004887
347	52.192810	0.191010	-8.240400	-0.117720	3.178440	-1.510448	0.838806	-1.628333	0.166155	-0.423940	0.064752
348	52.322540	0.161041	-9.299880	0.353160	0.235440	-1.510448	0.829851	-1.633333	-0.034208	-0.067195	0.014661
349	52.450989	0.129517	-10.594800	0.588600	2.943000	-1.507463	0.829851	-1.633333	0.057421	-0.174707	0.018326
350	52.580048	0.178589	-9.182160	-0.470880	2.825280	-1.510448	0.829851	-1.633333	-0.293215	0.485027	0.006109
351	52.709137	0.147705	-10.241640	0.588600	1.883520	-1.507463	0.831343	-1.635000	-0.054978	-0.007330	0.013439
352	52.838196	0.196777	-10.006200	0.470880	0.588600	-1.510448	0.835821	-1.638333	-0.029322	-0.021991	0.013439
353	52.967255	0.165863	-10.006200	0.706320	1.294920	-1.517910	0.840299	-1.631667	0.086743	-0.254120	0.042761
354	53.096313	0.134949	-9.770760	0.000000	0.353160	-1.528358	0.840299	-1.626667	0.021991	-0.133169	0.026878
355	53.225403	0.184052	-10.477080	0.353160	2.236680	-1.558209	0.841791	-1.610000	-0.207694	0.334754	0.003665
356	53.354431	0.153107	-9.888480	0.470880	0.470880	-1.617910	0.843284	-1.590000	-0.051313	0.014661	0.015882
357	53.483490	0.202179	-9.653040	0.117720	0.706320	-1.767164	0.865672	-1.538333	-0.024435	-0.037874	0.013439
358	53.612579	0.171295	-9.888480	0.706320	2.825280	-2.188060	1.049254	-1.431667	0.000000	-0.083078	0.026878
359	53.741638	0.140381	-9.653040	0.235440	2.589840	-4.441791	1.814925	-1.305000	-0.345750	0.570548	-0.048869
360	53.870697	0.189453	-9.653040	-1.177200	3.296160	-6.113433	2.332836	-1.276667	-0.185703	0.282220	-0.002443
361	53.999786	0.158569	-10.123920	0.000000	1.530360	-6.113433	2.264179	-1.271667	0.006109	-0.289550	0.023213
362	54.128845	0.126434	-10.006200	0.000000	2.236680	-6.113433	2.473134	-1.278333	-0.105069	0.101404	0.020769
363	54.257935	0.176758	-10.006200	0.117720	2.001240	-6.113433	2.532836	-1.283333	-0.048869	0.019548	0.020769
364	54.386993	0.145844	-10.006200	0.117720	0.824040	-6.113433	2.526866	-1.271667	-0.047647	-0.014661	0.010996
365	54.516052	0.194916	-10.123920	0.353160	1.530360	-6.113433	2.525373	-1.276667	-0.019548	-0.034208	0.019548
366	54.645142	0.164032	-10.123920	0.235440	1.648080	-6.113433	2.522388	-1.273333	-0.028100	-0.025656	0.012217
367	54.774231	0.133148	-10.241640	0.235440	1.530360	-6.113433	2.522388	-1.275000	-0.045204	0.000000	0.010996
368	54.903320	0.182251	-10.006200	0.235440	1.648080	-6.113433	2.519403	-1.278333	-0.035430	-0.021991	0.010996
369	55.032440	0.151398	-10.241640	0.235440	1.530360	-6.113433	2.525373	-1.276667	-0.040317	-0.012217	0.023213
370	55.161530	0.200500	-10.123920	0.117720	1.412640	-6.113433	2.522388	-1.276667	-0.042761	-0.012217	0.023213
371	55.290619	0.169617	-9.888480	0.235440	1.648080	-6.113433	2.520896	-1.275000	-0.040317	-0.007330	0.015882
372	55.419678	0.138702	-10.123920	0.235440	1.530360	-6.113433	2.522388	-1.275000	-0.040317	-0.006109	0.015882
373	55.548767	0.187805	-10.123920	0.117720	1.765800	-6.113433	2.523881	-1.275000	-0.042761	-0.009774	0.013439
374	55.677856	0.156921	-10.006200	0.235440	1.530360	-6.113433	2.520896	-1.276667	-0.034208	-0.014661	0.013439
375	55.806915	0.205994	-10.006200	0.000000	1.648080	-6.113433	2.522388	-1.276667	-0.036652	-0.010996	0.014661
376	55.935974	0.175079	-10.123920	0.235440	1.412640	-6.113433	2.522388	-1.276667	-0.046426	-0.003665	0.017104
377	56.065094	0.144226	-10.123920	0.235440	1.530360	-6.113433	2.520896	-1.275000	-0.042761	-0.006109	0.014661
378	56.194183	0.191040	-9.888480	0.235440	1.648080	-6.113433	2.526866	-1.278333	-0.041539	-0.008552	0.013439
379	56.323273	0.162445	-10.123920	0.235440	1.648080	-6.113433	2.520896	-1.276667	-0.035430	-0.010996	0.017104
380	56.452362	0.131561	-10.241640	0.117720	1.648080	-6.113433	2.520896	-1.278333	-0.045204	-0.006109	0.018326
381	56.581451	0.180664	-10.123920	0.117720	1.530360	-6.113433	2.522388	-1.276667	-0.046426	-0.009774	0.017104
382	56.710541	0.149780	-10.006200	0.117720	1.530360	-6.113433	2.520896	-1.275000	-0.036652	-0.012217	0.014661
383	56.839630	0.198883	-10.123920	0.235440	1.648080	-6.113433	2.519403	-1.276667	-0.048869	-0.003665	0.014661
384	56.968719	0.167999	-10.006200	0.000000	1.530360	-6.113433	2.522388	-1.276667	-0.030543	-0.012217	0.017104
385	57.097839	0.137146	-10.123920	0.117720	1.530360	-6.113433	2.522388	-1.278333	-0.040317	-0.012217	0.013439
386	57.226898	0.186218	-10.123920	0.235440	1.412640	-6.113433	2.520896	-1.275000	-0.040317	-0.012217	0.018326
387	57.355988	0.155334	-10.241640	0.117720	1.530360	-6.113433	2.522388	-1.275000	-0.039095	-0.012217	0.020769
388	57.485077	0.204437	-10.006200	0.117720	1.530360	-6.113433	2.523881	-1.278333	-0.036652	-0.015882	0.007330
389	57.614105	0.173492	-10.006200	0.117720	1.648080	-6.113433	2.519403	-1.278333	-0.035430	-0.008552	0.015882
390	57.743195	0.142609	-10.123920	0.117720	1.412640	-6.113433	2.522388	-1.276667	-0.037874	-0.013439	0.014661
391	57.872284	0.191040	-10.006200	0.235440	1.530360	-6.113433	2.522388	-1.276667	-0.046426	-0.010996	0.017104
392	58.001587	0.161041	-10.123920	0.235440	1.530360	-6.113433	2.522388	-1.275000	-0.036652	-0.010996	0.009774
393	58.130432	0.129913	-10.123920	0.235440	1.294920	-6.113433	2.520896	-1.276667	-0.039095	-0.007330	0.014661
394	58.259491	0.178986	-10.123920	0.117720	1.530360	-6.113433	2.517910	-1.276667	-0.043982	-0.012217	0.014661
395	58.388550	0.148071	-10.006200	0.235440	1.530360	-6.113433	2.523881	-1.278333	-0.040317	-0.007330	0.010996
396	58.517609	0.197144	-10.123920	0.235440	1.648080	-6.113433	2.522388	-1.280000	-0.036652	-0.006109	0.012217
397	58.646667	0.166229	-10.006200	0.235440	1.648080	-6.113433	2.519403	-1.276667	-0.043982	-0.009774	0.015882
398	58.775757	0.135345	-10.123920	0.000000	1.530360	-6.113433	2.522388	-1.278333	-0.039095	-0.004887	0.014661
399	58.904846	0.184448	-10.241640	0.117720	1.412640	-6.113433	2.520896	-1.276667	-0.041539	-0.009774	0.012217
400	59.033936	0.153564	-10.006200	0.117720	1.648080	-6.113433	2.520896	-1.275000	-0.034208	-0.012217	0.012217
401	59.162994	0.202637	-10.123920	0.117720	1.530360	-6.113433	2.520896	-1.280000	-0.043982	-0.009774	0.021991
402	59.292084	0.171753	-10.123920	0.353160	1.648080	-6.113433	2.517910	-1.276667	-0.039095	-0.008552	0.018326
403	59.421143	0.140839	-10.123920	0.000000	1.883520	-6.113433	2.520896	-1.276667	-0.052534	0.014661	0.020769
404	59.550232	0.189941	-10.123920	0.235440	1.294920	-6.113433	2.519403	-1.276667	-0.020769	-0.041539	0.009774
405	59.679291	0.159027	-10.006200	0.706320	1.294920	-6.113433	2.271642	-1.268333	-0.014661	-0.031765	0.009774
406	59.808319	0.126434	-10.123920	0.706320	1.648080	-4.223881	1.331343	-1.351667	-0.032987	-0.019548	0.012217
407	59.937408	0.177185	-9.888480	0.353160	0.235440	-1.861194	0.892537	-1.513333	-0.119730	0.180816	-0.003665
408	60.066498	0.146301	-9.770760	0.941760	1.530360	-1.600000	0.843284	-1.595000	0.006109	-0.095295	0.017104
409	60.195557	0.195374	-10.712520	1.059480	0.117720	-1.529851	0.838806	-1.623333	-0.037874	-0.061087	0.013439
410	60.324707	0.164551	-9.535320	0.000000	0.824040	-1.513433	0.835821	-1.631667	0.155160	-0.359189	0.014661
411	60.453796	0.133667	-10.123920	0.941760	1.530360	-1.508955	0.831343	-1.636667	0.054978	-0.211359	0.015882
412	60.582855	0.182739	-9.770760	0.000000	0.353160	-1.510448	0.828358	-1.635000	0.075747	-0.259007	0.043982
413	60.711945	0.151855	-10.241640	0.824040	2.943000	-1.511940	0.828358	-1.630000	-0.008552	-0.094073	0.025656
414	60.841003	0.200928	-10.006200	0.353160	2.354400	-1.507463	0.832836	-1.630000	-0.182038	0.150273	0.014661
415	60.970093	0.170044	-10.359360	0.470880	2.001240	-1.513433	0.837313	-1.630000	-0.046426	-0.023213	0.006109
416	61.099182	0.139160	-14.244120	1.648080	1.059480	-1.514925	0.846269	-1.633333	-0.169821	0.271224	-0.006109
417	61.228302	0.188293	-12.007440	1.530360	3.767040	-1.520896	0.846269	-1.633333	-0.153938	0.202807	-0.024435
418	61.357361	0.157379	-10.359360	0.941760	1.412640	-1.522388	0.844776	-1.636667	-0.073304	0.043982	0.003665
419	61.486450	0.126465	-9.770760	0.117720	0.941760	-1.519403	0.844776	-1.641667	0.042761	-0.184481	0.026878
420	61.615570	0.175629	-9.770760	0.000000	1.765800	-1.523881	0.837313	-1.643333	-0.153938	0.213803	0.010996
421	61.744690	0.144775	-9.770760	0.000000	2.001240	-1.523881	0.834328	-1.648333	-0.191812	0.244346	0.002443
422	61.873749	0.193848	-10.359360	0.235440	1.177200	-1.526866	0.829851	-1.645000	0.117286	-0.284663	0.025656
423	62.002838	0.162964	-10.123920	-0.117720	0.588600	-1.525373	0.829851	-1.646667	-0.074526	0.114843	0.006109
424	62.131927	0.132080	-9.888480	0.117720	1.294920	-1.526866	0.820896	-1.646667	0.153938	-0.353080	0.030543
425	62.260986	0.181152	-9.653040	-0.588600	0.941760	-1.525373	0.822388	-1.645000	-0.056200	0.004887	0.008552
426	62.390076	0.150269	-9.770760	-0.235440	0.470880	-1.526866	0.813433	-1.645000	-0.068417	0.046426	0.004887
427	62.519135	0.199341	-9.888480	0.235440	0.588600	-1.523881	0.816418	-1.643333	0.086743	-0.234572	0.021991
428	62.648193	0.168427	-10.123920	0.117720	1.883520	-1.525373	0.816418	-1.645000	-0.057421	0.001222	0.013439
429	62.777222	0.137482	-10.006200	0.235440	1.177200	-1.523881	0.817910	-1.645000	-0.074526	0.045204	0.001222
430	62.906311	0.186584	-10.123920	0.353160	1.765800	-1.525373	0.814925	-1.643333	-0.021991	-0.026878	0.008552
431	63.035370	0.155670	-10.006200	0.117720	1.530360	-1.528358	0.814925	-1.645000	-0.050091	0.012217	0.012217
432	63.164398	0.204712	-9.888480	0.235440	1.177200	-1.528358	0.816418	-1.645000	-0.059865	0.028100	0.008552
433	63.293457	0.173798	-10.123920	0.235440	1.648080	-1.526866	0.816418	-1.643333	-0.026878	-0.034208	0.013439
434	63.422516	0.142883	-10.123920	0.235440	2.001240	-1.525373	0.817910	-1.645000	-0.051313	0.023213	0.020769
435	63.551605	0.191010	-10.006200	0.235440	1.294920	-1.528358	0.814925	-1.643333	-0.050091	0.004887	0.009774
436	63.680664	0.161072	-10.006200	0.235440	1.059480	-1.526866	0.816418	-1.641667	-0.035430	-0.008552	0.019548
437	63.809753	0.130188	-10.241640	0.235440	1.294920	-1.525373	0.814925	-1.645000	-0.048869	0.006109	0.013439
438	63.938812	0.179260	-10.123920	0.000000	1.648080	-1.525373	0.814925	-1.645000	-0.056200	0.001222	0.019548
439	64.067871	0.148346	-10.006200	0.353160	1.648080	-1.525373	0.814925	-1.643333	-0.036652	-0.019548	0.020769
440	64.196930	0.197418	-10.123920	0.235440	1.648080	-1.523881	0.814925	-1.641667	-0.023213	-0.023213	0.010996
441	64.325989	0.166504	-10.006200	0.235440	1.530360	-1.528358	0.817910	-1.643333	-0.059865	0.015882	0.019548
442	64.455048	0.135590	-10.006200	0.000000	1.883520	-1.526866	0.816418	-1.643333	-0.037874	-0.024435	0.015882
443	64.584076	0.184631	-10.123920	0.000000	1.530360	-1.526866	0.816418	-1.645000	-0.045204	0.010996	0.012217
444	64.713165	0.153748	-10.123920	0.000000	1.530360	-1.526866	0.816418	-1.643333	0.008552	-0.098960	0.007330
445	64.842224	0.202820	-9.888480	0.000000	-0.588600	-1.523881	0.823881	-1.646667	-0.002443	-0.067195	-0.002443
446	64.971313	0.171936	-9.770760	0.000000	1.412640	-1.523881	0.822388	-1.646667	-0.131947	0.189368	-0.006109
447	65.100372	0.141022	-9.653040	0.000000	-0.353160	-1.522388	0.829851	-1.645000	0.017104	-0.123395	0.018326
448	65.229431	0.190094	-9.770760	-0.117720	0.824040	-1.523881	0.832836	-1.645000	0.025656	-0.123395	0.010996
449	65.358521	0.159210	-10.241640	0.117720	1.412640	-1.523881	0.843284	-1.645000	-0.123395	0.124617	0.001222
450	65.487610	0.126495	-10.477080	0.470880	1.412640	-1.523881	0.843284	-1.641667	-0.025656	-0.048869	0.012217
451	65.616699	0.177429	-10.359360	0.706320	1.177200	-1.516418	0.846269	-1.638333	0.069639	-0.255342	0.024435
452	65.745789	0.146545	-10.123920	0.353160	1.412640	-1.513433	0.840299	-1.633333	0.067195	-0.244346	0.021991
453	65.874878	0.195648	-10.006200	-0.353160	2.825280	-1.511940	0.841791	-1.630000	-0.355524	0.590096	-0.020769
454	66.003967	0.164764	-10.712520	0.353160	-0.353160	-1.508955	0.837313	-1.630000	-0.185703	0.304211	-0.024435
455	66.133057	0.133881	-11.654280	1.412640	3.060720	-1.510448	0.829851	-1.628333	-0.079412	0.058643	-0.001222
456	66.262146	0.182983	-9.299880	0.353160	0.824040	-1.504478	0.831343	-1.630000	-0.103847	0.095295	0.004887
457	66.391266	0.152130	-10.123920	0.588600	2.589840	-1.507463	0.828358	-1.630000	-0.120951	0.164934	0.012217
458	66.520386	0.201263	-10.123920	0.353160	1.883520	-1.508955	0.828358	-1.630000	-0.003665	0.001222	0.014661
459	66.649475	0.170380	-10.359360	0.117720	0.588600	-1.510448	0.834328	-1.630000	-0.078191	0.050091	0.014661
460	66.778595	0.139526	-10.006200	0.941760	2.589840	-1.516418	0.837313	-1.625000	-0.125838	0.108734	0.006109
461	66.907715	0.188660	-10.830240	1.059480	2.943000	-1.531343	0.840299	-1.620000	-0.083078	0.073304	0.008552
462	67.036804	0.157776	-10.477080	0.235440	0.824040	-1.576119	0.837313	-1.601667	0.075747	-0.215025	0.026878
463	67.165894	0.126495	-10.359360	0.941760	2.001240	-1.723881	0.855224	-1.551667	0.003665	-0.251676	0.026878
464	67.294952	0.175964	-10.477080	2.236680	1.765800	-2.153731	1.026866	-1.441667	-0.323759	0.543670	-0.098960
465	67.424042	0.145081	-10.712520	0.470880	-0.235440	-4.389552	1.604478	-1.311667	-0.246790	0.459371	-0.039095
466	67.553131	0.194183	-8.946720	0.235440	2.707560	-6.113433	2.449254	-1.296667	-0.400728	0.729373	-0.042761
467	67.682220	0.163300	-10.241640	0.235440	4.237920	-6.113433	2.329851	-1.305000	-0.125838	0.141721	0.000000
468	67.811310	0.132416	-10.241640	0.353160	2.825280	-6.113433	2.355224	-1.300000	-0.052534	0.018326	0.018326
469	67.940430	0.181549	-10.006200	0.235440	1.412640	-6.113433	2.370149	-1.291667	0.010996	-0.083078	0.006109
470	68.069519	0.150665	-10.123920	0.353160	0.588600	-6.113433	2.367164	-1.286667	-0.047647	-0.008552	0.007330
471	68.198608	0.199768	-10.123920	0.235440	1.294920	-6.113433	2.356716	-1.286667	-0.028100	-0.032987	0.013439
472	68.327698	0.168884	-10.006200	0.353160	1.294920	-6.113433	2.349254	-1.290000	-0.053756	0.023213	0.004887
473	68.456787	0.138000	-10.006200	0.117720	1.765800	-6.113433	2.340299	-1.293333	-0.047647	0.013439	0.020769
474	68.585846	0.187073	-10.123920	0.117720	1.412640	-6.113433	2.338806	-1.288333	-0.036652	-0.018326	0.006109
475	68.714935	0.156189	-10.006200	0.117720	1.412640	-6.113433	2.335821	-1.290000	-0.042761	-0.004887	0.023213
476	68.844025	0.205292	-10.006200	0.117720	1.412640	-6.113433	2.331343	-1.291667	-0.047647	-0.004887	0.013439
477	68.973114	0.174408	-10.123920	0.000000	1.412640	-6.113433	2.331343	-1.286667	-0.040317	-0.018326	0.007330
478	69.102203	0.143524	-10.123920	0.235440	1.412640	-6.113433	2.328358	-1.288333	-0.035430	-0.017104	0.017104
479	69.231293	0.191040	-10.123920	0.235440	1.412640	-6.113433	2.326866	-1.288333	-0.041539	-0.004887	0.019548
480	69.360382	0.161743	-10.006200	0.353160	1.412640	-6.113433	2.329851	-1.288333	-0.042761	-0.008552	0.014661
481	69.489471	0.130859	-10.241640	0.235440	1.412640	-6.113433	2.328358	-1.291667	-0.036652	-0.013439	0.013439
482	69.618591	0.179993	-10.006200	0.000000	1.412640	-6.113433	2.331343	-1.291667	-0.036652	-0.012217	0.013439
483	69.747681	0.149109	-10.123920	0.117720	1.648080	-6.113433	2.328358	-1.290000	-0.039095	-0.007330	0.008552
484	69.876801	0.198242	-10.123920	0.117720	1.530360	-6.113433	2.328358	-1.288333	-0.043982	-0.012217	0.012217
485	70.005890	0.167358	-10.123920	0.117720	1.412640	-6.113433	2.326866	-1.288333	-0.030543	-0.009774	0.012217
486	70.135040	0.136536	-10.006200	0.235440	1.648080	-6.113433	2.328358	-1.290000	-0.034208	-0.012217	0.014661
487	70.264160	0.185669	-10.123920	0.117720	1.530360	-6.113433	2.328358	-1.291667	-0.032987	-0.012217	0.017104
488	70.393250	0.154785	-10.241640	0.117720	1.530360	-6.113433	2.328358	-1.291667	-0.048869	-0.007330	0.012217
489	70.522400	0.203949	-10.241640	0.235440	1.412640	-6.113433	2.325373	-1.290000	-0.042761	-0.017104	0.013439
490	70.651550	0.173126	-10.123920	0.353160	1.294920	-6.113433	2.265672	-1.286667	-0.047647	-0.004887	0.008552
491	70.780701	0.142303	-10.123920	0.588600	1.765800	-6.113433	1.694030	-1.305000	-0.053756	0.013439	0.014661
492	70.909851	0.191132	-10.006200	0.941760	1.530360	-2.182090	1.038806	-1.431667	0.140499	-0.389732	0.032987
493	71.039398	0.161041	-10.241640	0.824040	1.883520	-1.705970	0.849254	-1.561667	-0.146608	0.131947	0.013439
494	71.168121	0.129791	-10.241640	0.000000	0.470880	-1.558209	0.837313	-1.610000	0.139277	-0.283441	0.051313
495	71.297241	0.178925	-11.301120	1.765800	1.648080	-1.520896	0.835821	-1.626667	-0.065973	0.035430	0.013439
496	71.426392	0.148102	-9.535320	0.000000	0.824040	-1.510448	0.831343	-1.633333	-0.106291	0.183260	0.001222
497	71.555511	0.197235	-9.888480	0.235440	0.235440	-1.507463	0.825373	-1.633333	0.114843	-0.277333	0.039095
498	71.684631	0.166382	-9.888480	0.235440	1.059480	-1.507463	0.825373	-1.630000	0.046426	-0.167377	0.014661
499	71.813751	0.135529	-9.770760	0.470880	1.530360	-1.507463	0.829851	-1.625000	-0.162490	0.223577	0.007330
500	71.942841	0.184631	-10.123920	0.470880	0.470880	-1.508955	0.834328	-1.630000	0.079412	-0.175929	0.010996
501	72.071960	0.153778	-11.065680	0.117720	-1.177200	-1.510448	0.840299	-1.631667	-0.040317	-0.036652	0.026878
502	72.201050	0.202881	-12.125160	0.706320	-0.470880	-1.514925	0.847761	-1.638333	-0.069639	0.006109	-0.009774
503	72.330109	0.171967	-11.536560	1.294920	2.589840	-1.519403	0.844776	-1.638333	-0.013439	-0.048869	0.024435
504	72.459198	0.141083	-10.712520	0.235440	2.001240	-1.522388	0.841791	-1.641667	-0.216246	0.337198	-0.002443
505	72.588287	0.190186	-10.123920	0.470880	1.059480	-1.522388	0.837313	-1.641667	-0.021991	-0.042761	0.006109
506	72.717438	0.159363	-10.359360	0.588600	2.236680	-1.522388	0.829851	-1.641667	0.041539	-0.196699	0.023213
507	72.846558	0.126526	-9.653040	0.000000	2.001240	-1.522388	0.828358	-1.645000	-0.107512	0.076969	0.019548
508	72.975677	0.177643	-9.888480	0.353160	0.824040	-1.523881	0.823881	-1.641667	0.095295	-0.285885	0.030543
509	73.104797	0.146790	-10.241640	0.706320	1.059480	-1.529851	0.817910	-1.640000	0.116064	-0.441045	0.063530
510	73.233887	0.195892	-10.359360	0.941760	2.943000	-1.525373	0.813433	-1.640000	-0.078191	0.034208	0.006109
511	73.363007	0.165039	-10.006200	0.588600	2.589840	-1.526866	0.805970	-1.636667	-0.045204	-0.029322	0.012217
512	73.492126	0.134186	-10.006200	-0.353160	0.470880	-1.522388	0.802985	-1.638333	0.076969	-0.182038	0.028100
513	73.621246	0.183319	-10.123920	0.000000	0.588600	-1.520896	0.795522	-1.636667	0.100182	-0.287107	0.026878
514	73.750366	0.152466	-10.241640	-0.117720	2.236680	-1.522388	0.789552	-1.638333	-0.135612	0.118508	0.009774
515	73.879456	0.201569	-9.888480	-0.117720	0.000000	-1.519403	0.786567	-1.636667	0.035430	-0.141721	0.015882
516	74.008575	0.170715	-10.006200	0.000000	1.412640	-1.522388	0.791045	-1.635000	-0.012217	-0.069639	0.012217
517	74.137695	0.139862	-10.241640	0.117720	1.530360	-1.522388	0.788060	-1.633333	-0.039095	-0.020769	0.012217
518	74.266785	0.188965	-10.006200	0.235440	1.765800	-1.517910	0.791045	-1.635000	-0.029322	-0.030543	0.019548
519	74.395935	0.158142	-9.888480	0.117720	1.648080	-1.523881	0.792537	-1.638333	-0.012217	-0.054978	0.012217
520	74.525085	0.126556	-10.477080	0.117720	1.530360	-1.523881	0.794030	-1.638333	-0.081856	0.046426	0.015882
521	74.654205	0.176453	-9.888480	0.588600	1.765800	-1.520896	0.797015	-1.636667	-0.042761	-0.002443	0.019548
522	74.783356	0.145630	-9.888480	0.470880	1.412640	-1.525373	0.804478	-1.641667	-0.029322	-0.028100	0.014661
523	74.912506	0.194794	-9.770760	0.235440	1.177200	-1.520896	0.802985	-1.640000	-0.040317	-0.003665	0.010996
524	75.041626	0.163940	-10.123920	0.470880	1.883520	-1.520896	0.802985	-1.641667	-0.045204	0.000000	0.023213
525	75.170746	0.133087	-10.241640	0.470880	1.765800	-1.525373	0.804478	-1.640000	-0.026878	-0.053756	0.013439
526	75.299805	0.182159	-9.888480	0.117720	1.648080	-1.523881	0.807463	-1.638333	-0.026878	-0.032987	0.015882
527	75.428925	0.151306	-10.006200	0.353160	1.648080	-1.523881	0.805970	-1.640000	-0.035430	-0.009774	0.020769
528	75.558014	0.200409	-10.006200	0.117720	1.530360	-1.525373	0.808955	-1.641667	-0.047647	-0.010996	0.019548
529	75.687164	0.169586	-10.241640	0.117720	1.530360	-1.523881	0.805970	-1.640000	-0.037874	-0.018326	0.017104
530	75.816284	0.138733	-10.123920	0.353160	1.530360	-1.522388	0.802985	-1.640000	-0.032987	-0.023213	0.018326
531	75.945404	0.187866	-10.123920	0.117720	1.530360	-1.519403	0.804478	-1.638333	-0.028100	-0.015882	0.018326
532	76.074554	0.157043	-9.888480	0.235440	1.412640	-1.519403	0.804478	-1.638333	-0.028100	-0.013439	0.013439
533	76.203705	0.206207	-10.123920	0.235440	1.648080	-1.525373	0.805970	-1.641667	-0.040317	-0.013439	0.015882
534	76.332825	0.175354	-10.123920	0.117720	1.530360	-1.523881	0.805970	-1.641667	-0.041539	-0.013439	0.019548
535	76.461945	0.144501	-9.888480	0.353160	1.412640	-1.528358	0.804478	-1.640000	-0.043982	-0.009774	0.017104
536	76.591095	0.191101	-10.123920	0.117720	1.530360	-1.526866	0.804478	-1.638333	-0.046426	-0.013439	0.012217
537	76.720184	0.162781	-10.123920	0.235440	1.412640	-1.519403	0.807463	-1.640000	-0.026878	-0.012217	0.019548
538	76.849304	0.131927	-10.123920	0.235440	1.530360	-1.523881	0.805970	-1.640000	-0.041539	-0.009774	0.012217
539	76.978394	0.181030	-10.006200	0.235440	1.530360	-1.523881	0.804478	-1.638333	-0.034208	-0.012217	0.014661
540	77.107483	0.150146	-9.888480	0.235440	1.530360	-1.525373	0.800000	-1.643333	-0.032987	-0.012217	0.012217
541	77.236633	0.199310	-10.123920	0.235440	1.530360	-1.525373	0.804478	-1.641667	-0.040317	-0.013439	0.017104
542	77.365723	0.168427	-10.006200	0.235440	1.412640	-1.525373	0.804478	-1.638333	-0.047647	-0.008552	0.009774
543	77.494812	0.137543	-10.241640	0.235440	1.412640	-1.520896	0.801493	-1.636667	-0.031765	-0.017104	0.014661
544	77.623901	0.186646	-9.888480	0.117720	1.530360	-1.522388	0.805970	-1.645000	-0.037874	-0.010996	0.007330
545	77.752991	0.155762	-10.123920	0.235440	1.530360	-1.523881	0.804478	-1.638333	-0.037874	-0.014661	0.018326
546	77.882111	0.204895	-10.123920	0.353160	1.530360	-1.525373	0.805970	-1.641667	-0.030543	-0.006109	0.012217
547	78.011200	0.174011	-10.241640	0.235440	1.294920	-1.523881	0.807463	-1.645000	-0.047647	-0.006109	0.017104
548	78.140289	0.143127	-10.006200	0.000000	1.177200	-1.520896	0.804478	-1.643333	-0.035430	-0.006109	0.012217
549	78.269409	0.191071	-10.123920	0.000000	1.059480	-1.526866	0.805970	-1.638333	-0.048869	0.006109	0.015882
550	78.398529	0.161407	-10.006200	-0.353160	1.294920	-1.523881	0.808955	-1.641667	-0.053756	0.023213	0.018326
551	78.527649	0.130554	-10.006200	-0.117720	1.177200	-1.523881	0.811940	-1.641667	-0.040317	0.009774	0.012217
552	78.656738	0.179657	-10.006200	0.000000	0.235440	-1.522388	0.814925	-1.641667	0.046426	-0.003665	0.013439
553	78.785858	0.148804	-10.006200	0.117720	1.412640	-1.522388	0.817910	-1.638333	-0.057421	-0.034208	0.023213
554	78.914948	0.197906	-10.241640	-0.117720	-0.588600	-1.523881	0.822388	-1.641667	0.035430	-0.142942	0.030543
555	79.044006	0.166992	-10.359360	0.235440	2.472120	-1.520896	0.831343	-1.645000	-0.065973	0.013439	0.010996
556	79.173126	0.136139	-10.123920	0.353160	2.118960	-1.520896	0.832836	-1.643333	-0.025656	-0.058643	0.020769
557	79.302246	0.185272	-10.241640	0.117720	1.648080	-1.519403	0.838806	-1.641667	-0.047647	-0.003665	0.019548
558	79.431366	0.154419	-10.123920	0.470880	1.883520	-1.516418	0.843284	-1.635000	-0.039095	-0.035430	0.013439
559	79.560486	0.203552	-10.006200	0.824040	2.001240	-1.513433	0.841791	-1.630000	0.111177	-0.324980	0.015882
560	79.689606	0.172699	-9.653040	0.588600	2.236680	-1.507463	0.840299	-1.628333	-0.103847	0.091630	0.019548
561	79.818756	0.141876	-12.478320	1.177200	1.648080	-1.505970	0.832836	-1.630000	-0.287107	0.425162	-0.043982
562	79.947876	0.191010	-8.711280	1.059480	2.354400	-1.505970	0.831343	-1.628333	0.149051	-0.415388	0.039095
563	80.077881	0.161041	-10.359360	0.353160	1.648080	-1.505970	0.828358	-1.628333	-0.172264	0.277333	-0.013439
564	80.206055	0.129242	-10.241640	-0.117720	0.470880	-1.505970	0.825373	-1.630000	-0.008552	-0.021991	0.014661
565	80.335144	0.178345	-10.006200	0.353160	0.353160	-1.504478	0.828358	-1.635000	0.101404	-0.287107	0.042761
566	80.464233	0.147461	-9.888480	0.470880	1.883520	-1.510448	0.834328	-1.630000	-0.161268	0.212581	0.015882
567	80.593353	0.196594	-10.006200	-0.117720	1.059480	-1.516418	0.834328	-1.623333	-0.221133	0.390954	-0.003665
568	80.722473	0.165741	-10.006200	0.470880	0.588600	-1.531343	0.835821	-1.620000	0.062308	-0.197920	0.034208
569	80.851562	0.134857	-9.770760	0.353160	2.825280	-1.555224	0.837313	-1.606667	-0.081856	0.074526	0.012217
570	80.980682	0.183990	-10.477080	1.177200	1.530360	-1.605970	0.838806	-1.590000	-0.122173	0.163712	0.007330
571	81.109802	0.153137	-10.241640	0.235440	1.059480	-1.697015	0.852239	-1.561667	-0.150273	0.230907	0.000000
572	81.238892	0.202240	-10.241640	0.588600	1.883520	-1.894030	0.900000	-1.505000	-0.015882	-0.064752	0.014661
573	81.368042	0.171417	-10.712520	2.001240	0.824040	-2.211940	1.050746	-1.425000	-0.028100	-0.056200	0.010996
574	81.497131	0.140533	-10.359360	1.059480	-0.117720	-2.391045	1.159701	-1.388333	0.221133	-0.522901	0.084299
575	81.626251	0.189667	-10.123920	0.000000	0.235440	-2.531343	1.261194	-1.363333	-0.014661	-0.073304	0.010996
576	81.755341	0.158783	-10.123920	0.000000	1.059480	-4.477612	1.752239	-1.303333	-0.098960	0.084299	0.018326
577	81.884430	0.126495	-9.770760	1.294920	2.118960	-6.113433	2.471642	-1.315000	-0.219911	0.368963	-0.019548
578	82.013550	0.177032	-10.123920	0.117720	1.059480	-6.113433	2.338806	-1.301667	-0.019548	-0.054978	0.014661
579	82.142670	0.146179	-10.123920	0.000000	0.941760	-6.113433	2.341791	-1.303333	0.026878	-0.135612	0.012217
580	82.271790	0.195312	-10.123920	0.470880	1.648080	-6.113433	2.338806	-1.303333	-0.019548	-0.037874	0.014661
581	82.400909	0.164459	-10.006200	0.235440	1.530360	-6.113433	2.334328	-1.301667	-0.054978	0.017104	0.013439
582	82.530029	0.133606	-10.123920	0.235440	1.648080	-6.113433	2.328358	-1.301667	-0.048869	-0.003665	0.017104
583	82.659149	0.182739	-10.006200	0.353160	1.294920	-6.113433	2.286567	-1.298333	-0.037874	-0.018326	0.008552
584	82.788300	0.151917	-10.123920	0.235440	1.412640	-6.113433	2.177612	-1.296667	-0.041539	0.002443	0.015882
585	82.917419	0.201050	-10.241640	0.117720	1.530360	-6.113433	2.088060	-1.295000	-0.042761	-0.014661	0.018326
586	83.046509	0.170166	-10.123920	0.353160	1.530360	-6.113433	2.083582	-1.296667	-0.045204	-0.002443	0.015882
587	83.175659	0.139343	-10.123920	0.117720	1.412640	-6.113433	2.085075	-1.295000	-0.042761	-0.009774	0.007330
588	83.304810	0.188507	-10.123920	0.235440	1.648080	-6.113433	2.082090	-1.295000	-0.041539	-0.015882	0.019548
589	83.433960	0.157684	-10.123920	0.353160	1.648080	-6.113433	2.085075	-1.296667	-0.046426	-0.003665	0.014661
590	83.563080	0.126526	-9.888480	0.353160	1.648080	-6.113433	1.980597	-1.295000	-0.035430	-0.014661	0.015882
591	83.692169	0.175934	-10.006200	0.353160	1.412640	-4.337313	1.447761	-1.336667	-0.031765	-0.017104	0.009774
592	83.821259	0.145050	-10.241640	1.648080	0.941760	-2.034328	0.961194	-1.468333	0.226020	-0.580322	0.052534
593	83.950378	0.194183	-10.359360	0.706320	-0.470880	-1.649254	0.841791	-1.575000	0.009774	-0.076969	0.012217
594	84.079498	0.163330	-10.477080	0.706320	0.470880	-1.544776	0.834328	-1.610000	0.106291	-0.252898	0.025656
595	84.208618	0.132477	-10.477080	1.059480	1.294920	-1.513433	0.834328	-1.628333	0.130725	-0.394619	0.047647
596	84.337738	0.181610	-9.770760	0.706320	-0.235440	-1.502985	0.829851	-1.630000	0.037874	-0.135612	0.010996
597	84.466888	0.150787	-9.770760	1.177200	2.354400	-1.505970	0.826866	-1.630000	-0.074526	0.062308	0.023213
598	84.595978	0.199890	-10.594800	1.530360	2.001240	-1.502985	0.829851	-1.626667	-0.091630	0.062308	-0.014661
599	84.725098	0.169037	-10.006200	0.824040	2.707560	-1.502985	0.829851	-1.626667	0.063530	-0.128282	0.020769
600	84.854187	0.138153	-11.536560	0.470880	0.235440	-1.507463	0.838806	-1.628333	-0.042761	0.036652	0.021991
601	84.983307	0.187286	-12.478320	0.353160	0.824040	-1.514925	0.840299	-1.630000	0.019548	-0.116064	0.031765
602	85.112457	0.156464	-11.065680	0.470880	1.059480	-1.516418	0.841791	-1.635000	0.218690	-0.500909	0.046426
603	85.241608	0.205627	-10.594800	0.470880	1.177200	-1.520896	0.841791	-1.641667	-0.153938	0.205251	-0.012217
604	85.370728	0.174774	-10.123920	0.706320	0.941760	-1.523881	0.831343	-1.641667	0.035430	-0.300546	0.018326
605	85.499878	0.143951	-10.123920	0.470880	2.707560	-1.523881	0.828358	-1.641667	-0.050091	0.000000	0.017104
606	85.628998	0.191101	-10.241640	-0.588600	1.412640	-1.522388	0.823881	-1.643333	-0.063530	0.065973	0.008552
607	85.758148	0.162262	-9.770760	-0.706320	0.117720	-1.517910	0.820896	-1.643333	-0.061087	0.036652	0.004887
608	85.887268	0.131409	-9.535320	-0.588600	1.765800	-1.523881	0.817910	-1.643333	0.025656	-0.174707	0.029322
609	86.016418	0.180573	-10.123920	-0.235440	2.707560	-1.520896	0.816418	-1.640000	-0.153938	0.030543	0.009774
610	86.145569	0.149750	-10.241640	0.000000	1.530360	-1.520896	0.817910	-1.638333	0.017104	-0.175929	0.021991
611	86.274689	0.198883	-10.241640	-0.353160	1.412640	-1.520896	0.822388	-1.641667	-0.067195	0.019548	0.007330
612	86.403839	0.168060	-10.241640	-0.117720	2.825280	-1.523881	0.826866	-1.643333	-0.120951	0.140499	0.004887
613	86.532928	0.137177	-9.888480	-0.235440	0.824040	-1.522388	0.832836	-1.641667	-0.173486	0.246790	-0.001222
614	86.662079	0.186340	-10.123920	0.000000	0.706320	-1.516418	0.838806	-1.638333	0.054978	-0.211359	0.014661
615	86.791229	0.155518	-10.006200	0.588600	1.059480	-1.519403	0.843284	-1.633333	-0.025656	-0.024435	0.014661
616	86.920380	0.204681	-10.123920	0.235440	0.941760	-1.514925	0.840299	-1.631667	-0.029322	-0.041539	0.000000
617	87.049561	0.173889	-9.770760	0.588600	1.765800	-1.507463	0.840299	-1.625000	0.057421	-0.197920	0.019548
618	87.178711	0.143066	-12.596040	1.294920	0.000000	-1.505970	0.829851	-1.628333	-0.300546	0.510683	-0.037874
619	87.307861	0.191101	-9.770760	0.353160	1.412640	-1.502985	0.828358	-1.625000	0.025656	-0.002443	0.025656
620	87.437042	0.161438	-10.594800	0.824040	0.706320	-1.501493	0.828358	-1.631667	-0.188146	0.296881	-0.030543
621	87.566223	0.130646	-10.006200	0.824040	0.470880	-1.505970	0.826866	-1.631667	-0.124617	0.146608	-0.002443
622	87.695343	0.179779	-8.946720	0.117720	2.001240	-1.511940	0.832836	-1.628333	-0.180816	0.259007	0.009774
623	87.824463	0.148926	-11.065680	1.883520	-0.470880	-1.523881	0.837313	-1.620000	0.194255	-0.513127	0.078191
624	87.953613	0.198090	-10.359360	0.824040	2.589840	-1.553731	0.834328	-1.606667	-0.372628	0.715934	-0.072082
625	88.082825	0.167328	-9.770760	0.235440	2.825280	-1.653731	0.843284	-1.570000	-0.094073	0.107512	0.013439
626	88.212006	0.136536	-11.301120	1.530360	1.294920	-1.997015	0.949254	-1.476667	-0.098960	0.140499	-0.006109
627	88.341156	0.185699	-10.241640	0.941760	0.706320	-4.341791	1.558209	-1.328333	0.305433	-0.643852	0.118508
628	88.470337	0.154907	-8.593560	0.941760	0.000000	-6.113433	2.452239	-1.298333	-0.179594	0.227242	-0.013439
629	88.599457	0.204041	-10.241640	0.000000	-0.235440	-6.113433	2.314925	-1.300000	0.035430	-0.150273	0.020769
630	88.728607	0.173218	-10.241640	0.353160	1.765800	-6.113433	2.300000	-1.310000	0.001222	-0.092852	0.015882
631	88.857727	0.142365	-10.006200	0.470880	1.648080	-6.113433	2.270149	-1.308333	-0.109956	0.139277	0.012217
632	88.986877	0.191101	-10.006200	0.235440	1.648080	-6.113433	2.220896	-1.303333	-0.069639	0.042761	0.015882
633	89.116394	0.161072	-10.123920	0.235440	1.648080	-6.113433	2.171642	-1.303333	0.012217	-0.130725	0.018326
634	89.245148	0.129852	-10.123920	0.235440	1.530360	-6.113433	2.153731	-1.305000	-0.036652	0.014661	0.010996
635	89.374329	0.179047	-10.123920	0.235440	1.883520	-6.113433	2.147761	-1.305000	-0.046426	0.004887	0.018326
636	89.503448	0.148193	-10.241640	0.235440	1.177200	-6.113433	2.147761	-1.300000	-0.037874	-0.008552	0.009774
637	89.632599	0.197357	-10.241640	0.235440	1.059480	-6.113433	2.140299	-1.305000	-0.035430	-0.015882	0.017104
638	89.761749	0.166534	-10.123920	0.117720	1.294920	-6.113433	2.135821	-1.303333	-0.031765	-0.017104	0.009774
639	89.890900	0.135712	-10.006200	0.235440	1.530360	-6.113433	2.135821	-1.300000	-0.034208	-0.008552	0.017104
640	90.020020	0.184845	-10.123920	0.235440	1.412640	-6.113433	2.137313	-1.301667	-0.039095	-0.003665	0.018326
641	90.149139	0.153992	-10.241640	0.235440	1.412640	-6.113433	2.137313	-1.303333	-0.046426	-0.013439	0.010996
642	90.278290	0.203156	-10.123920	0.235440	1.177200	-6.113433	2.132836	-1.303333	-0.048869	-0.006109	0.012217
643	90.407410	0.172302	-10.006200	0.235440	1.294920	-6.113433	2.134328	-1.303333	-0.042761	-0.014661	0.015882
644	90.536530	0.141449	-10.123920	0.117720	1.412640	-6.113433	2.134328	-1.306667	-0.039095	-0.013439	0.013439
645	90.665619	0.190552	-10.006200	0.117720	1.412640	-6.113433	2.138806	-1.303333	-0.039095	-0.009774	0.014661
646	90.794739	0.159698	-10.123920	0.235440	1.412640	-6.113433	2.134328	-1.303333	-0.043982	-0.017104	0.015882
647	90.923859	0.126526	-10.006200	0.117720	1.412640	-6.113433	2.134328	-1.301667	-0.036652	-0.010996	0.014661
648	91.052979	0.177979	-10.123920	0.235440	1.294920	-6.113433	2.134328	-1.300000	-0.034208	-0.010996	0.015882
649	91.182098	0.147125	-10.241640	0.117720	1.294920	-6.113433	2.134328	-1.306667	-0.043982	-0.007330	0.006109
650	91.311218	0.196259	-10.241640	0.235440	1.412640	-6.113433	2.137313	-1.301667	-0.042761	-0.008552	0.013439
651	91.440338	0.165405	-10.123920	0.117720	1.412640	-6.113433	2.137313	-1.301667	-0.043982	-0.012217	0.020769
652	91.569489	0.134583	-10.006200	0.235440	1.530360	-6.113433	2.135821	-1.303333	-0.042761	-0.014661	0.014661
653	91.698639	0.183746	-10.241640	0.235440	1.412640	-6.113433	2.135821	-1.303333	-0.036652	-0.007330	0.013439
654	91.827789	0.152924	-10.359360	0.235440	1.412640	-6.113433	2.132836	-1.306667	-0.040317	-0.013439	0.003665
655	91.956879	0.202026	-10.006200	0.353160	1.530360	-6.113433	2.134328	-1.300000	-0.039095	-0.009774	0.012217
656	92.086029	0.171204	-10.123920	0.117720	1.530360	-6.113433	2.131343	-1.303333	-0.045204	-0.010996	0.017104
657	92.215149	0.140350	-10.123920	0.117720	1.412640	-6.113433	2.134328	-1.301667	-0.045204	-0.007330	0.018326
658	92.344269	0.189484	-10.123920	0.235440	1.530360	-6.113433	2.135821	-1.301667	-0.036652	-0.009774	0.015882
659	92.473419	0.158661	-10.123920	0.117720	1.412640	-6.113433	2.134328	-1.303333	-0.037874	-0.010996	0.012217
660	92.602539	0.126526	-10.123920	0.235440	1.530360	-6.113433	2.134328	-1.300000	-0.031765	-0.009774	0.019548
661	92.731689	0.176971	-10.006200	0.235440	1.412640	-6.113433	2.132836	-1.301667	-0.029322	-0.009774	0.007330
662	92.860840	0.146149	-10.123920	0.117720	1.412640	-6.113433	2.135821	-1.301667	-0.036652	-0.010996	0.014661
663	92.989990	0.195312	-9.888480	0.117720	1.412640	-6.113433	2.131343	-1.301667	-0.034208	-0.004887	0.014661
664	93.119141	0.164490	-10.123920	0.117720	1.412640	-6.113433	2.135821	-1.303333	-0.039095	-0.009774	0.007330
665	93.248260	0.133636	-10.123920	0.235440	1.412640	-6.113433	2.134328	-1.301667	-0.031765	-0.010996	0.018326
666	93.377411	0.182800	-10.123920	0.353160	1.530360	-6.113433	2.132836	-1.300000	-0.036652	-0.007330	0.017104
667	93.506561	0.151978	-10.123920	0.235440	1.412640	-6.113433	2.131343	-1.305000	-0.034208	-0.008552	0.015882
668	93.635681	0.201111	-10.006200	0.235440	1.530360	-6.113433	2.131343	-1.305000	-0.032987	-0.009774	0.017104
669	93.764801	0.170258	-10.123920	0.117720	1.412640	-6.113433	2.129851	-1.303333	-0.046426	-0.015882	0.014661
670	93.893951	0.139435	-10.123920	0.117720	1.412640	-6.113433	2.135821	-1.303333	-0.047647	-0.009774	0.018326
671	94.023071	0.188568	-10.006200	0.235440	1.294920	-6.113433	2.132836	-1.303333	-0.045204	-0.007330	0.013439
672	94.152191	0.157715	-10.123920	0.235440	1.412640	-6.113433	2.131343	-1.306667	-0.037874	-0.012217	0.008552
673	94.281342	0.126526	-10.241640	0.353160	1.294920	-6.113433	2.135821	-1.303333	-0.028100	-0.008552	0.018326
674	94.410461	0.176025	-10.123920	0.117720	1.412640	-6.113433	2.137313	-1.301667	-0.037874	-0.009774	0.010996
675	94.539612	0.145203	-10.241640	0.235440	1.294920	-6.113433	2.135821	-1.305000	-0.037874	-0.009774	0.015882
676	94.668762	0.194366	-10.241640	0.235440	1.294920	-6.113433	2.134328	-1.301667	-0.036652	-0.012217	0.014661
677	94.797913	0.163544	-10.006200	0.235440	1.294920	-6.113433	2.135821	-1.305000	-0.025656	-0.015882	0.008552
678	94.927032	0.132690	-10.123920	0.117720	1.648080	-6.113433	2.134328	-1.316667	-0.056200	0.006109	0.019548
679	95.056183	0.181854	-10.241640	0.235440	1.530360	-6.113433	2.140299	-1.335000	-0.036652	-0.024435	0.009774
680	95.185303	0.151001	-10.006200	0.117720	1.412640	-6.113433	2.168657	-1.376667	-0.021991	-0.006109	0.009774
681	95.314423	0.200134	-10.241640	0.235440	1.412640	-6.113433	2.185075	-1.455000	-0.032987	-0.018326	0.017104
682	95.443573	0.169312	-10.123920	0.117720	1.530360	-6.113433	2.280597	-1.510000	-0.037874	-0.015882	0.019548
683	95.572723	0.138489	-10.123920	0.117720	1.177200	-6.113433	2.334328	-1.538333	-0.035430	-0.014661	0.008552
684	95.701874	0.187653	-10.123920	0.235440	1.530360	-6.113433	2.279104	-1.553333	-0.036652	-0.012217	0.017104
685	95.831024	0.156830	-10.006200	0.235440	1.530360	-6.113433	2.362687	-1.531667	-0.035430	-0.009774	0.014661
686	95.960144	0.205963	-10.006200	0.235440	1.412640	-6.113433	2.417910	-1.493333	-0.040317	-0.014661	0.009774
687	96.089294	0.175140	-10.123920	0.235440	1.412640	-6.113433	2.467164	-1.450000	-0.026878	-0.014661	0.007330
688	96.218414	0.144287	-10.241640	0.235440	1.530360	-6.113433	2.482090	-1.431667	-0.037874	0.006109	0.019548
689	96.347565	0.191101	-10.123920	0.117720	1.412640	-6.113433	2.431343	-1.381667	-0.037874	-0.004887	0.019548
690	96.476746	0.162659	-10.006200	0.235440	1.412640	-6.113433	2.214925	-1.318333	-0.042761	-0.014661	0.012217
691	96.605927	0.131866	-10.006200	0.117720	1.294920	-6.113433	2.174627	-1.311667	-0.039095	-0.009774	0.014661
692	96.735077	0.181030	-10.123920	0.117720	1.648080	-6.113433	2.147761	-1.313333	-0.039095	-0.003665	0.013439
693	96.864227	0.150208	-9.888480	0.235440	1.177200	-6.113433	2.123881	-1.311667	-0.039095	-0.004887	0.002443
694	96.993378	0.199371	-10.123920	0.117720	1.412640	-6.113433	2.097015	-1.315000	-0.043982	-0.008552	0.012217
695	97.122528	0.168549	-10.123920	0.117720	1.530360	-6.113433	2.074627	-1.315000	-0.041539	-0.009774	0.008552
696	97.251678	0.137726	-10.123920	0.353160	1.294920	-6.113433	2.073134	-1.311667	-0.037874	-0.014661	0.015882
697	97.380798	0.186859	-10.123920	0.117720	1.412640	-6.113433	2.067164	-1.313333	-0.042761	-0.006109	0.013439
698	97.509949	0.156036	-10.006200	0.117720	1.648080	-6.113433	2.064179	-1.315000	-0.045204	0.026878	0.015882
699	97.639069	0.205170	-10.123920	0.235440	1.648080	-6.113433	2.055224	-1.316667	-0.032987	-0.025656	0.007330
700	97.768250	0.174377	-10.006200	0.235440	1.765800	-6.113433	1.953731	-1.318333	-0.023213	-0.029322	0.013439
701	97.897400	0.143555	-9.770760	0.235440	0.824040	-6.113433	1.826866	-1.313333	-0.040317	-0.012217	0.007330
702	98.026520	0.191101	-10.241640	0.000000	1.412640	-6.113433	1.823881	-1.315000	-0.021991	-0.051313	0.021991
703	98.155670	0.161865	-10.241640	0.117720	1.059480	-6.113433	1.819403	-1.315000	-0.008552	-0.029322	0.019548
704	98.284790	0.131012	-10.123920	0.235440	1.294920	-6.113433	1.800000	-1.318333	-0.057421	0.023213	0.015882
705	98.413971	0.180206	-10.123920	0.235440	1.412640	-6.113433	1.634328	-1.326667	-0.032987	-0.010996	0.013439
706	98.543152	0.149414	-10.241640	0.353160	1.412640	-2.729851	1.385075	-1.350000	-0.034208	-0.013439	0.008552
707	98.672302	0.198578	-10.123920	0.235440	1.294920	-2.361194	1.120896	-1.400000	-0.042761	0.000000	0.013439
708	98.801453	0.167755	-10.006200	0.353160	1.412640	-1.995522	0.935821	-1.475000	-0.058643	0.019548	0.020769
709	98.930603	0.136932	-10.006200	0.235440	1.177200	-1.764179	0.859701	-1.533333	-0.065973	0.039095	0.020769
710	99.059784	0.186127	-10.359360	0.588600	1.883520	-1.640299	0.841791	-1.571667	-0.054978	0.006109	0.019548
711	99.188995	0.155365	-10.123920	0.470880	0.470880	-1.585075	0.835821	-1.590000	-0.028100	-0.023213	0.004887
712	99.318146	0.204529	-9.770760	0.117720	1.059480	-1.552239	0.835821	-1.601667	-0.024435	0.000000	0.000000
713	99.447327	0.173737	-10.241640	0.353160	2.472120	-1.537313	0.838806	-1.610000	-0.091630	-0.009774	0.010996
714	99.576508	0.142944	-10.359360	0.235440	1.530360	-1.528358	0.838806	-1.615000	-0.081856	0.079412	0.023213
715	99.705658	0.191132	-10.241640	0.000000	1.765800	-1.523881	0.837313	-1.615000	-0.122173	0.138056	0.018326
716	99.834808	0.161285	-10.123920	0.235440	5.415120	-1.520896	0.835821	-1.618333	0.065973	-0.271224	0.009774
717	99.963959	0.130463	-10.006200	0.470880	1.294920	-1.520896	0.832836	-1.618333	-0.041539	-0.015882	0.010996
718	100.093109	0.179626	-10.241640	0.117720	0.588600	-1.519403	0.832836	-1.616667	-0.017104	-0.081856	0.006109
719	100.222290	0.148834	-10.006200	0.235440	0.941760	-1.517910	0.832836	-1.620000	-0.006109	-0.006109	0.007330
720	100.351471	0.198029	-10.123920	0.000000	1.530360	-1.520896	0.834328	-1.618333	-0.047647	0.004887	0.014661
721	100.480652	0.167236	-9.770760	0.000000	2.707560	-1.520896	0.831343	-1.616667	-0.056200	-0.084299	0.029322
722	100.609863	0.136475	-10.006200	0.235440	2.118960	-1.520896	0.834328	-1.616667	0.029322	-0.164934	0.012217
723	100.739014	0.185638	-10.006200	0.117720	2.118960	-1.528358	0.832836	-1.613333	-0.015882	-0.068417	0.021991
724	100.868164	0.154816	-10.006200	0.235440	0.824040	-1.525373	0.831343	-1.611667	-0.019548	-0.019548	0.010996
725	100.997345	0.204010	-9.888480	0.235440	1.177200	-1.529851	0.834328	-1.608333	-0.046426	0.004887	0.012217
726	101.126495	0.173187	-9.888480	0.117720	0.235440	-1.541791	0.835821	-1.606667	0.000000	-0.100182	0.010996
727	101.255646	0.142365	-10.241640	0.117720	1.648080	-1.556716	0.832836	-1.596667	-0.123395	0.144164	0.012217
728	101.384827	0.191162	-10.241640	0.235440	1.294920	-1.614925	0.834328	-1.580000	0.012217	-0.112399	0.023213
729	101.514282	0.161041	-9.888480	0.000000	0.824040	-1.779104	0.861194	-1.531667	-0.068417	0.031765	0.020769
730	101.643188	0.129974	-9.770760	-0.117720	0.470880	-2.241791	1.055224	-1.418333	0.092852	-0.051313	-0.019548
731	101.772339	0.179138	-10.006200	0.824040	1.883520	-4.447761	1.698507	-1.325000	0.146608	-0.433714	0.029322
732	101.901489	0.148315	-11.183400	1.294920	1.530360	-6.113433	2.449254	-1.321667	0.180816	-0.585209	0.081856
733	102.030640	0.197479	-10.241640	0.706320	0.235440	-6.113433	2.467164	-1.315000	0.043982	-0.208916	0.020769
734	102.159790	0.166656	-10.123920	0.000000	-0.588600	-6.113433	2.456716	-1.291667	0.015882	-0.150273	0.018326
735	102.288940	0.135834	-10.123920	0.117720	0.000000	-6.113433	2.435821	-1.295000	-0.050091	-0.002443	0.013439
736	102.418060	0.184967	-10.123920	0.235440	1.883520	-6.113433	2.431343	-1.311667	-0.050091	0.000000	0.008552
737	102.547180	0.154114	-10.123920	0.235440	1.883520	-6.113433	2.425373	-1.310000	-0.091630	0.074526	0.015882
738	102.676300	0.203247	-10.123920	0.235440	2.001240	-6.113433	2.423881	-1.313333	-0.030543	-0.026878	0.019548
739	102.805450	0.172424	-10.006200	0.353160	1.530360	-6.113433	2.429851	-1.310000	-0.019548	-0.054978	0.009774
740	102.934601	0.141602	-10.123920	0.235440	1.412640	-6.113433	2.429851	-1.311667	-0.041539	0.007330	0.010996
741	103.063751	0.190765	-9.770760	0.117720	1.648080	-6.113433	2.426866	-1.310000	-0.025656	-0.030543	0.012217
742	103.192871	0.159912	-10.241640	0.117720	1.059480	-6.113433	2.428358	-1.310000	-0.035430	-0.003665	0.007330
743	103.322021	0.126526	-10.123920	0.117720	1.648080	-6.113433	2.428358	-1.311667	-0.036652	-0.007330	0.012217
744	103.451172	0.178253	-10.006200	0.117720	1.530360	-6.113433	2.428358	-1.310000	-0.039095	-0.010996	0.015882
745	103.580322	0.147430	-10.006200	0.235440	1.530360	-6.113433	2.428358	-1.313333	-0.030543	-0.007330	0.013439
746	103.709442	0.196564	-10.006200	0.235440	1.648080	-6.113433	2.428358	-1.310000	-0.039095	-0.013439	0.012217
747	103.838593	0.165741	-10.006200	0.470880	1.177200	-6.113433	2.426866	-1.310000	-0.040317	-0.007330	0.010996
748	103.967773	0.134949	-10.123920	0.470880	1.412640	-6.113433	2.428358	-1.308333	-0.040317	-0.007330	0.012217
749	104.096954	0.184143	-10.006200	0.353160	1.412640	-6.113433	2.428358	-1.310000	-0.043982	-0.012217	0.009774
750	104.226135	0.153351	-10.123920	0.235440	1.530360	-6.113433	2.428358	-1.311667	-0.046426	-0.006109	0.009774
751	104.355286	0.202515	-9.888480	0.117720	1.412640	-6.113433	2.426866	-1.313333	-0.039095	-0.017104	0.015882
752	104.484467	0.171722	-10.123920	0.353160	1.530360	-6.113433	2.429851	-1.311667	-0.040317	-0.014661	0.017104
753	104.613647	0.140930	-10.123920	0.235440	1.530360	-6.113433	2.429851	-1.311667	-0.039095	-0.003665	0.015882
754	104.742798	0.190094	-10.241640	0.235440	1.294920	-6.113433	2.426866	-1.310000	-0.034208	-0.004887	0.012217
755	104.871948	0.159271	-10.123920	0.235440	1.412640	-6.113433	2.429851	-1.310000	-0.039095	-0.006109	0.012217
756	105.001129	0.126556	-10.123920	0.117720	1.412640	-6.113433	2.428358	-1.308333	-0.040317	-0.004887	0.013439
757	105.130280	0.177643	-10.241640	0.353160	1.530360	-6.113433	2.428358	-1.310000	-0.042761	-0.004887	0.017104
758	105.259460	0.146851	-10.006200	0.235440	1.648080	-6.113433	2.423881	-1.311667	-0.046426	-0.007330	0.017104
759	105.388580	0.195984	-10.123920	0.235440	1.412640	-6.113433	2.426866	-1.310000	-0.045204	-0.007330	0.014661
760	105.517731	0.165161	-10.123920	0.235440	1.530360	-6.113433	2.426866	-1.311667	-0.048869	-0.009774	0.017104
761	105.646881	0.134338	-10.123920	0.235440	1.648080	-6.113433	2.426866	-1.310000	-0.037874	-0.007330	0.018326
762	105.776031	0.183502	-10.006200	0.353160	1.177200	-6.113433	2.426866	-1.308333	-0.047647	-0.008552	0.012217
763	105.905182	0.152679	-10.123920	0.235440	1.765800	-6.113433	2.428358	-1.310000	-0.042761	-0.008552	0.014661
764	106.034332	0.201843	-10.123920	0.235440	1.530360	-6.113433	2.428358	-1.310000	-0.047647	-0.006109	0.013439
765	106.163483	0.171021	-10.123920	0.235440	1.765800	-6.113433	2.426866	-1.313333	-0.042761	-0.010996	0.015882
766	106.292664	0.140228	-10.123920	0.235440	1.412640	-6.113433	2.428358	-1.310000	-0.043982	-0.012217	0.012217
767	106.421783	0.189362	-10.123920	0.235440	1.530360	-6.113433	2.423881	-1.311667	-0.043982	-0.009774	0.013439
768	106.550934	0.158539	-10.006200	0.353160	1.530360	-6.113433	2.425373	-1.311667	-0.043982	-0.010996	0.015882
769	106.680084	0.126556	-10.006200	0.235440	1.530360	-6.113433	2.429851	-1.311667	-0.042761	-0.010996	0.020769
770	106.809265	0.176910	-10.241640	0.353160	1.412640	-6.113433	2.425373	-1.310000	-0.043982	-0.008552	0.015882
771	106.938446	0.146118	-10.241640	0.117720	1.530360	-6.113433	2.431343	-1.310000	-0.035430	-0.009774	0.009774
772	107.067566	0.195251	-10.123920	0.117720	1.412640	-6.113433	2.426866	-1.308333	-0.043982	-0.009774	0.009774
773	107.196716	0.164429	-10.123920	0.235440	1.412640	-6.113433	2.423881	-1.311667	-0.051313	-0.008552	0.010996
774	107.325897	0.133636	-10.006200	0.117720	1.530360	-6.113433	2.423881	-1.311667	-0.035430	-0.018326	0.013439
775	107.455048	0.182800	-10.123920	0.235440	1.530360	-6.113433	2.425373	-1.311667	-0.035430	-0.006109	0.019548
776	107.584229	0.152008	-10.123920	0.235440	1.412640	-6.113433	2.423881	-1.311667	-0.039095	-0.014661	0.015882
777	107.713409	0.201202	-10.123920	0.000000	1.412640	-6.113433	2.423881	-1.311667	-0.045204	-0.010996	0.013439
778	107.842590	0.170410	-10.123920	0.117720	1.648080	-6.113433	2.426866	-1.310000	-0.043982	-0.007330	0.012217
779	107.971771	0.139618	-10.006200	0.117720	1.177200	-6.113433	2.428358	-1.313333	-0.041539	-0.008552	0.010996
780	108.100922	0.188782	-10.123920	0.235440	1.648080	-6.113433	2.426866	-1.310000	-0.034208	-0.008552	0.021991
781	108.230103	0.157990	-10.006200	0.588600	1.530360	-6.113433	2.423881	-1.308333	-0.040317	-0.008552	0.014661
782	108.359283	0.126556	-10.123920	0.235440	1.530360	-6.113433	2.426866	-1.310000	-0.042761	-0.014661	0.018326
783	108.488464	0.176392	-10.123920	0.117720	1.412640	-6.113433	2.426866	-1.310000	-0.039095	-0.013439	0.014661
784	108.617645	0.145599	-10.123920	0.235440	1.412640	-6.113433	2.423881	-1.308333	-0.036652	-0.009774	0.018326
785	108.746887	0.194855	-10.123920	0.353160	1.530360	-6.113433	2.425373	-1.310000	-0.040317	-0.008552	0.009774
786	108.876068	0.164062	-10.241640	0.117720	1.530360	-6.113433	2.423881	-1.310000	-0.040317	-0.013439	0.013439
787	109.005249	0.133270	-10.006200	0.353160	1.530360	-6.113433	2.425373	-1.313333	-0.039095	-0.018326	0.009774
788	109.134430	0.182465	-10.006200	0.117720	1.530360	-6.113433	2.426866	-1.311667	-0.045204	-0.006109	0.017104
789	109.263611	0.151672	-10.006200	0.235440	1.294920	-6.113433	2.426866	-1.310000	-0.036652	-0.014661	0.014661
790	109.392822	0.200897	-10.123920	0.117720	1.412640	-6.113433	2.428358	-1.310000	-0.043982	-0.006109	0.024435
791	109.522034	0.170135	-10.123920	0.235440	1.412640	-6.113433	2.420896	-1.310000	-0.047647	-0.010996	0.012217
792	109.651215	0.139343	-10.123920	0.235440	1.648080	-6.113433	2.425373	-1.311667	-0.037874	-0.012217	0.010996
793	109.780365	0.188507	-10.006200	0.235440	1.294920	-6.113433	2.425373	-1.310000	-0.037874	-0.003665	0.018326
794	109.909546	0.157715	-10.241640	0.117720	1.412640	-6.113433	2.425373	-1.310000	-0.036652	-0.012217	0.014661
795	110.038757	0.126617	-10.006200	0.353160	1.412640	-6.113433	2.423881	-1.306667	-0.041539	-0.009774	0.015882
796	110.167938	0.176147	-10.006200	0.235440	1.412640	-6.113433	2.425373	-1.311667	-0.030543	-0.012217	0.009774
797	110.297119	0.145355	-10.006200	0.117720	1.530360	-6.113433	2.423881	-1.313333	-0.043982	0.004887	0.010996
798	110.426300	0.194550	-10.006200	0.235440	1.530360	-6.113433	2.414925	-1.310000	-0.041539	-0.015882	0.015882
799	110.555511	0.163788	-10.123920	0.824040	1.530360	-6.113433	1.914925	-1.303333	-0.032987	-0.013439	0.013439
800	110.684753	0.133057	-10.006200	0.706320	2.472120	-2.270149	1.074627	-1.416667	-0.087965	0.031765	0.023213
801	110.813965	0.182281	-10.123920	1.059480	1.648080	-1.716418	0.847761	-1.546667	-0.053756	-0.019548	0.021991
802	110.943146	0.151489	-10.241640	0.588600	0.824040	-1.561194	0.831343	-1.593333	0.327424	-0.780686	0.100182
803	111.072357	0.200714	-8.711280	-0.353160	1.530360	-1.519403	0.832836	-1.611667	-0.135612	0.199142	0.014661
804	111.201538	0.169922	-10.594800	1.412640	0.824040	-1.508955	0.826866	-1.618333	0.174707	-0.485027	0.063530
805	111.330719	0.139130	-9.888480	1.177200	0.588600	-1.500000	0.823881	-1.618333	0.185703	-0.654848	0.062308
806	111.459900	0.188324	-10.006200	-0.235440	0.588600	-1.500000	0.820896	-1.618333	0.030543	-0.140499	0.028100
807	111.589081	0.157532	-10.006200	0.588600	0.353160	-1.504478	0.820896	-1.615000	0.068417	-0.217468	0.019548
808	111.718262	0.126587	-9.770760	0.470880	2.118960	-1.507463	0.825373	-1.611667	-0.012217	-0.064752	0.012217
809	111.847443	0.175934	-12.007440	1.412640	1.059480	-1.511940	0.831343	-1.615000	-0.086743	0.096517	0.015882
810	111.976624	0.145142	-12.242880	0.470880	1.530360	-1.510448	0.834328	-1.615000	-0.080634	0.041539	0.009774
811	112.105774	0.194305	-12.949200	0.588600	1.412640	-1.516418	0.838806	-1.623333	0.288328	-0.736703	0.090408
812	112.234924	0.163483	-10.123920	-0.117720	2.825280	-1.517910	0.838806	-1.626667	-0.068417	0.018326	0.018326
813	112.364044	0.132629	-9.888480	0.353160	1.059480	-1.520896	0.831343	-1.628333	-0.117286	0.124617	-0.003665
814	112.493195	0.181793	-9.653040	0.117720	2.118960	-1.519403	0.826866	-1.628333	0.050091	-0.206472	0.025656
815	112.622375	0.151001	-9.888480	-0.117720	1.177200	-1.523881	0.822388	-1.633333	-0.145386	0.186925	0.012217
816	112.751526	0.200165	-10.123920	0.000000	0.706320	-1.522388	0.816418	-1.630000	-0.151495	0.182038	0.004887
817	112.880707	0.169373	-9.417600	-0.353160	-1.059480	-1.520896	0.816418	-1.633333	0.067195	-0.223577	0.032987
818	113.009827	0.138519	-9.770760	-0.117720	-0.353160	-1.523881	0.807463	-1.628333	-0.010996	-0.057421	0.004887
819	113.139008	0.187714	-10.241640	-0.235440	1.059480	-1.523881	0.807463	-1.630000	0.068417	-0.251676	0.030543
820	113.268127	0.156860	-10.947960	0.000000	2.472120	-1.523881	0.801493	-1.630000	-0.103847	0.103847	0.002443
821	113.397278	0.206024	-10.123920	0.000000	1.177200	-1.523881	0.808955	-1.628333	-0.012217	-0.064752	0.021991
822	113.526459	0.175232	-9.888480	0.000000	1.412640	-1.523881	0.804478	-1.628333	0.017104	-0.134390	0.013439
823	113.655609	0.144409	-10.123920	0.588600	1.765800	-1.520896	0.804478	-1.630000	0.013439	-0.111177	0.017104
824	113.784760	0.191132	-9.888480	0.235440	2.001240	-1.525373	0.805970	-1.628333	-0.039095	0.004887	0.020769
825	113.913940	0.162781	-10.006200	0.353160	1.530360	-1.525373	0.805970	-1.625000	-0.020769	-0.015882	0.015882
826	114.043121	0.131989	-10.241640	0.235440	1.648080	-1.522388	0.807463	-1.628333	-0.026878	-0.046426	0.017104
827	114.172272	0.181152	-10.123920	0.235440	1.059480	-1.519403	0.805970	-1.625000	-0.035430	-0.023213	0.014661
828	114.301453	0.150360	-10.123920	0.235440	1.059480	-1.522388	0.808955	-1.630000	-0.015882	-0.047647	0.012217
829	114.430603	0.199524	-10.123920	0.235440	1.177200	-1.520896	0.807463	-1.628333	-0.017104	-0.045204	0.017104
830	114.559784	0.168732	-10.123920	0.117720	1.059480	-1.525373	0.808955	-1.628333	-0.014661	-0.053756	0.006109
831	114.688965	0.137939	-10.123920	0.235440	1.294920	-1.523881	0.802985	-1.626667	-0.042761	-0.010996	0.010996
832	114.818176	0.187164	-10.006200	0.117720	1.412640	-1.519403	0.808955	-1.626667	-0.048869	-0.003665	0.010996
833	114.947327	0.156342	-9.888480	0.235440	1.294920	-1.523881	0.807463	-1.626667	-0.041539	-0.008552	0.015882
834	115.076508	0.205536	-10.006200	0.235440	1.412640	-1.520896	0.805970	-1.628333	-0.030543	-0.025656	0.015882
835	115.205719	0.174774	-10.241640	0.117720	1.294920	-1.523881	0.807463	-1.623333	-0.042761	-0.009774	0.017104
836	115.334900	0.143982	-10.241640	0.117720	1.294920	-1.523881	0.810448	-1.628333	-0.042761	-0.008552	0.017104
837	115.464081	0.191193	-10.241640	0.117720	1.412640	-1.525373	0.805970	-1.626667	-0.035430	-0.015882	0.009774
838	115.593231	0.162354	-10.006200	0.235440	1.412640	-1.526866	0.807463	-1.630000	-0.019548	-0.008552	0.015882
839	115.722382	0.131531	-10.123920	0.117720	1.530360	-1.525373	0.805970	-1.625000	-0.034208	-0.010996	0.014661
840	115.851562	0.180725	-10.006200	0.235440	1.530360	-1.522388	0.805970	-1.626667	-0.037874	-0.015882	0.014661
841	115.980743	0.149933	-10.006200	0.117720	1.648080	-1.522388	0.808955	-1.628333	-0.039095	-0.009774	0.017104
842	116.109924	0.199127	-10.123920	0.235440	1.294920	-1.520896	0.804478	-1.625000	-0.042761	-0.003665	0.012217
843	116.239105	0.168335	-10.006200	0.235440	1.294920	-1.520896	0.805970	-1.630000	-0.040317	-0.013439	0.018326
844	116.368256	0.137512	-10.241640	0.000000	1.412640	-1.525373	0.807463	-1.630000	-0.030543	-0.010996	0.014661
845	116.497406	0.186676	-10.123920	0.235440	1.412640	-1.523881	0.804478	-1.628333	-0.037874	-0.007330	0.024435
846	116.626587	0.155884	-10.006200	0.117720	1.294920	-1.522388	0.807463	-1.628333	-0.034208	-0.008552	0.010996
847	116.755737	0.205048	-10.006200	0.117720	1.412640	-1.525373	0.808955	-1.628333	-0.043982	-0.006109	0.013439
848	116.884918	0.174255	-10.123920	0.117720	1.412640	-1.522388	0.808955	-1.630000	-0.042761	-0.003665	0.018326
849	117.014069	0.143433	-10.241640	0.235440	1.530360	-1.526866	0.805970	-1.628333	-0.041539	-0.008552	0.018326
850	117.143219	0.191132	-10.006200	0.235440	1.294920	-1.525373	0.805970	-1.630000	-0.043982	-0.010996	0.018326
851	117.272369	0.161774	-10.006200	0.235440	1.177200	-1.523881	0.807463	-1.628333	-0.040317	-0.002443	0.017104
852	117.401489	0.130920	-10.241640	0.235440	1.412640	-1.522388	0.805970	-1.630000	-0.041539	-0.010996	0.012217
853	117.530640	0.180084	-10.123920	0.235440	1.177200	-1.525373	0.808955	-1.628333	-0.032987	-0.008552	0.015882
854	117.659760	0.149231	-10.006200	0.117720	1.294920	-1.523881	0.804478	-1.626667	-0.032987	-0.008552	0.015882
855	117.788940	0.198425	-10.123920	0.117720	1.412640	-1.523881	0.805970	-1.630000	-0.039095	-0.002443	0.009774
856	117.918091	0.167603	-10.123920	0.117720	1.412640	-1.522388	0.807463	-1.628333	-0.042761	-0.001222	0.013439
857	118.047272	0.136810	-10.123920	0.117720	1.177200	-1.522388	0.805970	-1.630000	-0.064752	0.024435	0.008552
858	118.176453	0.186005	-10.123920	0.000000	1.530360	-1.522388	0.808955	-1.628333	-0.061087	0.034208	0.012217
859	118.305634	0.155212	-9.888480	0.000000	1.177200	-1.522388	0.811940	-1.630000	-0.054978	0.024435	0.020769
860	118.434814	0.204407	-10.006200	0.000000	1.059480	-1.519403	0.808955	-1.628333	-0.030543	-0.017104	0.014661
861	118.564026	0.173645	-9.653040	-0.117720	2.236680	-1.522388	0.814925	-1.626667	-0.215025	0.348193	-0.002443
862	118.693176	0.142822	-10.123920	-0.470880	-0.588600	-1.519403	0.816418	-1.630000	0.130725	-0.403171	0.065973
863	118.822357	0.191162	-10.123920	0.117720	1.412640	-1.520896	0.822388	-1.626667	-0.087965	0.111177	0.018326
864	118.951538	0.161224	-10.006200	0.235440	0.000000	-1.520896	0.817910	-1.628333	0.021991	-0.139277	0.013439
865	119.080750	0.130463	-9.888480	0.000000	2.354400	-1.522388	0.829851	-1.628333	-0.086743	0.050091	0.018326
866	119.209930	0.179657	-9.653040	0.000000	1.412640	-1.517910	0.837313	-1.626667	-0.096517	-0.013439	0.015882
867	119.339081	0.148834	-9.888480	0.117720	3.767040	-1.514925	0.835821	-1.618333	-0.204029	0.316428	0.030543
868	119.468231	0.197998	-10.830240	0.588600	2.118960	-1.508955	0.834328	-1.616667	-0.130725	0.146608	0.017104
869	119.597412	0.167206	-9.417600	0.824040	1.765800	-1.501493	0.828358	-1.616667	0.105069	-0.377515	0.028100
870	119.726593	0.136414	-8.711280	0.235440	0.353160	-1.497015	0.823881	-1.615000	0.072082	-0.219911	0.015882
871	119.855743	0.185577	-10.712520	0.470880	0.824040	-1.502985	0.819403	-1.616667	-0.042761	-0.083078	0.017104
872	119.984924	0.154785	-10.241640	0.588600	-0.117720	-1.502985	0.820896	-1.616667	0.023213	-0.101404	0.014661
873	120.114044	0.203918	-9.770760	0.353160	0.235440	-1.505970	0.825373	-1.620000	-0.046426	0.017104	0.006109
874	120.243225	0.173126	-9.888480	0.706320	1.294920	-1.505970	0.825373	-1.615000	0.043982	-0.210138	0.020769
875	120.372375	0.142303	-9.770760	0.470880	0.706320	-1.514925	0.826866	-1.615000	-0.174707	0.261450	-0.015882
876	120.501526	0.191132	-10.359360	0.470880	0.470880	-1.532836	0.831343	-1.611667	-0.140499	0.174707	0.001222
877	120.631073	0.161041	-9.182160	-0.117720	1.765800	-1.564179	0.828358	-1.593333	-0.153938	0.235794	0.003665
878	120.759827	0.129822	-9.182160	0.117720	0.000000	-1.649254	0.834328	-1.563333	0.000000	-0.094073	0.023213
879	120.888947	0.178955	-9.770760	0.000000	4.120200	-1.923881	0.902985	-1.490000	-0.063530	0.023213	0.008552
880	121.018127	0.148163	-10.123920	0.000000	-1.177200	-2.616418	1.314925	-1.356667	-0.114843	0.175929	-0.014661
881	121.147278	0.197327	-10.830240	0.000000	-0.235440	-6.113433	2.283582	-1.318333	0.162490	-0.454484	0.032987
882	121.276428	0.166504	-10.123920	0.470880	1.648080	-6.113433	2.295522	-1.320000	0.084299	-0.248011	0.025656
883	121.405579	0.135681	-10.006200	0.353160	1.412640	-6.113433	2.417910	-1.335000	0.069639	-0.227242	0.019548
884	121.534729	0.184845	-10.123920	0.235440	1.294920	-6.113433	2.440299	-1.336667	-0.032987	-0.023213	0.010996
885	121.663910	0.154053	-10.241640	0.117720	1.883520	-6.113433	2.437313	-1.335000	-0.090408	0.087965	0.008552
886	121.793060	0.203217	-10.123920	0.353160	1.059480	-6.113433	2.440299	-1.333333	-0.026878	-0.031765	0.018326
887	121.922272	0.172455	-10.006200	0.117720	1.059480	-6.113433	2.437313	-1.333333	-0.023213	-0.052534	0.006109
888	122.051453	0.141663	-10.123920	0.000000	1.530360	-6.113433	2.434328	-1.333333	-0.039095	-0.002443	0.013439
889	122.180664	0.190887	-10.006200	0.235440	1.648080	-6.113433	2.435821	-1.333333	-0.045204	0.000000	0.008552
890	122.310791	0.161041	-9.888480	0.353160	1.530360	-6.113433	2.437313	-1.333333	-0.035430	-0.012217	0.008552
891	122.439026	0.129303	-10.123920	0.235440	1.294920	-6.113433	2.435821	-1.331667	-0.046426	-0.020769	0.018326
892	122.568176	0.178467	-10.123920	0.117720	1.294920	-6.113433	2.437313	-1.331667	-0.040317	-0.019548	0.014661
893	122.697357	0.147675	-10.123920	0.235440	1.294920	-6.113433	2.435821	-1.335000	-0.039095	-0.010996	0.013439
894	122.826538	0.196869	-10.123920	0.117720	1.530360	-6.113433	2.435821	-1.331667	-0.040317	-0.010996	0.015882
895	122.955688	0.166046	-10.123920	0.117720	1.294920	-6.113433	2.438806	-1.333333	-0.024435	-0.018326	0.017104
896	123.084839	0.135223	-10.123920	0.117720	1.294920	-6.113433	2.435821	-1.333333	-0.041539	-0.004887	0.015882
897	123.214020	0.184418	-10.006200	0.235440	1.530360	-6.113433	2.435821	-1.333333	-0.043982	-0.001222	0.019548
898	123.343231	0.153656	-9.653040	0.235440	1.294920	-6.113433	2.437313	-1.333333	-0.039095	-0.012217	0.014661
899	123.472412	0.202850	-10.241640	0.117720	1.294920	-6.113433	2.435821	-1.331667	-0.028100	-0.026878	0.015882
900	123.601593	0.172058	-10.241640	0.117720	1.177200	-6.113433	2.435821	-1.330000	-0.039095	-0.009774	0.013439
901	123.730804	0.141296	-10.123920	0.117720	1.412640	-6.113433	2.434328	-1.335000	-0.050091	0.002443	0.014661
902	123.859985	0.190491	-10.241640	0.235440	1.412640	-6.113433	2.438806	-1.335000	-0.035430	-0.007330	0.018326
903	123.989197	0.159729	-10.241640	0.353160	1.294920	-6.113433	2.437313	-1.333333	-0.034208	-0.015882	0.010996
904	124.118408	0.126617	-10.006200	0.235440	1.294920	-6.113433	2.437313	-1.333333	-0.039095	-0.006109	0.013439
905	124.247559	0.178131	-10.123920	0.235440	1.412640	-6.113433	2.440299	-1.333333	-0.035430	-0.010996	0.007330
906	124.376740	0.147339	-10.006200	0.000000	1.412640	-6.113433	2.437313	-1.333333	-0.031765	-0.006109	0.015882
907	124.505920	0.196533	-9.888480	0.235440	1.294920	-6.113433	2.435821	-1.331667	-0.045204	-0.009774	0.010996
908	124.635132	0.165771	-10.123920	0.117720	1.412640	-6.113433	2.438806	-1.335000	-0.031765	-0.014661	0.013439
909	124.764313	0.134979	-10.006200	0.235440	1.412640	-6.113433	2.435821	-1.333333	-0.041539	-0.009774	0.017104
910	124.893494	0.184174	-10.123920	0.235440	1.412640	-6.113433	2.438806	-1.335000	-0.041539	-0.014661	0.017104
911	125.022675	0.153381	-10.241640	0.353160	1.294920	-6.113433	2.434328	-1.335000	-0.041539	-0.009774	0.008552
912	125.151886	0.202606	-10.123920	0.235440	1.412640	-6.113433	2.435821	-1.333333	-0.031765	-0.008552	0.014661
913	125.281067	0.171814	-10.123920	0.235440	1.530360	-6.113433	2.437313	-1.333333	-0.042761	-0.013439	0.017104
914	125.410278	0.141052	-10.123920	0.117720	1.530360	-6.113433	2.440299	-1.333333	-0.034208	-0.010996	0.012217
915	125.539490	0.190277	-10.123920	0.117720	1.294920	-6.113433	2.435821	-1.335000	-0.039095	-0.008552	0.015882
916	125.668701	0.159515	-10.006200	0.470880	1.294920	-6.113433	2.438806	-1.335000	-0.034208	-0.008552	0.013439
917	125.797882	0.126587	-10.123920	0.235440	1.412640	-6.113433	2.438806	-1.333333	-0.036652	-0.009774	0.015882
918	125.927094	0.177948	-10.006200	0.117720	1.530360	-6.113433	2.435821	-1.335000	-0.043982	-0.007330	0.023213
919	126.056274	0.147156	-10.006200	0.117720	1.412640	-6.113433	2.435821	-1.335000	-0.041539	-0.008552	0.015882
920	126.185486	0.196381	-10.241640	0.235440	1.294920	-6.113433	2.432836	-1.333333	-0.036652	-0.013439	0.013439
921	126.314636	0.165558	-10.006200	0.470880	1.412640	-6.113433	2.435821	-1.333333	-0.037874	-0.012217	0.019548
922	126.443817	0.134766	-10.123920	0.117720	1.177200	-6.113433	2.434328	-1.333333	-0.046426	-0.008552	0.020769
923	126.573029	0.183990	-9.888480	0.235440	1.294920	-6.113433	2.437313	-1.333333	-0.030543	-0.015882	0.013439
924	126.702209	0.153198	-10.123920	0.706320	1.412640	-6.113433	2.265672	-1.323333	-0.057421	0.013439	0.015882
925	126.831451	0.202454	-10.123920	0.824040	1.883520	-4.176119	1.259701	-1.378333	-0.053756	-0.003665	0.018326
926	126.960693	0.171722	-10.241640	1.530360	0.941760	-1.758209	0.856716	-1.533333	-0.008552	-0.184481	0.000000
927	127.089874	0.140930	-10.594800	1.177200	0.235440	-1.555224	0.831343	-1.595000	0.102625	-0.306654	0.020769
928	127.219055	0.190125	-11.418840	1.294920	-0.824040	-1.511940	0.829851	-1.616667	0.087965	-0.324980	0.024435
929	127.348297	0.159393	-10.123920	-0.235440	0.353160	-1.504478	0.822388	-1.616667	-0.278555	0.555887	-0.030543
930	127.477509	0.126617	-10.241640	1.765800	1.177200	-1.500000	0.817910	-1.616667	0.105069	-0.450819	0.050091
931	127.606720	0.177856	-9.653040	0.000000	2.118960	-1.500000	0.822388	-1.610000	-0.087965	0.048869	0.002443
932	127.735931	0.147095	-8.122680	-0.941760	0.706320	-1.507463	0.829851	-1.613333	0.200364	-0.445932	0.076969
933	127.865143	0.196320	-8.004960	-0.470880	0.235440	-1.508955	0.834328	-1.620000	-0.098960	0.133169	0.000000
934	127.994354	0.165558	-9.182160	-0.235440	0.000000	-1.514925	0.835821	-1.623333	-0.162490	0.251676	0.008552
935	128.123596	0.134827	-9.888480	0.000000	0.824040	-1.517910	0.831343	-1.626667	-0.043982	0.037874	0.001222
936	128.252777	0.184021	-9.888480	-0.117720	-0.470880	-1.516418	0.822388	-1.630000	-0.045204	0.008552	0.013439
937	128.382019	0.153290	-10.006200	0.000000	1.177200	-1.516418	0.820896	-1.628333	-0.072082	0.079412	-0.002443
938	128.511230	0.202515	-10.006200	-0.235440	-0.235440	-1.520896	0.814925	-1.630000	0.312763	-0.712269	0.100182
939	128.640411	0.171722	-9.770760	-0.588600	-0.470880	-1.519403	0.804478	-1.631667	-0.136834	0.172264	-0.004887
940	128.769592	0.140930	-10.123920	-0.353160	0.706320	-1.520896	0.804478	-1.628333	0.089186	-0.223577	0.045204
941	128.898804	0.190155	-10.477080	-0.235440	2.707560	-1.519403	0.801493	-1.626667	-0.061087	0.009774	0.020769
942	129.028015	0.159393	-10.006200	-0.117720	1.177200	-1.517910	0.798507	-1.626667	-0.067195	0.067195	0.012217
943	129.157227	0.126617	-10.123920	0.000000	1.530360	-1.517910	0.795522	-1.626667	-0.024435	-0.053756	0.012217
944	129.286469	0.177887	-10.123920	0.235440	2.236680	-1.520896	0.795522	-1.625000	-0.015882	-0.065973	0.017104
945	129.415649	0.147095	-9.888480	0.235440	1.059480	-1.513433	0.798507	-1.628333	-0.043982	0.006109	0.009774
946	129.544830	0.196289	-10.123920	0.117720	1.530360	-1.520896	0.801493	-1.626667	-0.034208	-0.017104	0.014661
947	129.674011	0.165497	-10.123920	0.235440	1.177200	-1.522388	0.798507	-1.628333	-0.025656	-0.029322	0.015882
948	129.803223	0.134735	-9.888480	0.117720	1.294920	-1.519403	0.805970	-1.628333	-0.035430	-0.020769	0.010996
949	129.932434	0.183960	-10.241640	0.470880	1.530360	-1.519403	0.804478	-1.626667	-0.028100	-0.024435	0.015882
950	130.061646	0.153198	-10.006200	0.353160	1.530360	-1.519403	0.804478	-1.628333	-0.048869	-0.009774	0.018326
951	130.190826	0.202393	-9.888480	0.235440	1.294920	-1.522388	0.802985	-1.626667	-0.050091	0.012217	0.009774
952	130.320068	0.171661	-10.123920	0.117720	2.354400	-1.517910	0.804478	-1.625000	-0.091630	0.080634	0.020769
953	130.449249	0.140869	-10.241640	0.117720	1.294920	-1.519403	0.804478	-1.626667	-0.100182	0.106291	0.018326
954	130.578461	0.190094	-10.006200	0.117720	1.412640	-1.520896	0.802985	-1.630000	-0.084299	0.076969	0.008552
955	130.707672	0.159332	-10.123920	0.353160	1.412640	-1.520896	0.801493	-1.626667	-0.067195	0.032987	0.019548
956	130.836853	0.126587	-10.359360	0.470880	1.412640	-1.516418	0.802985	-1.625000	-0.048869	0.007330	0.017104
957	130.966095	0.177795	-10.241640	0.117720	1.765800	-1.517910	0.802985	-1.626667	-0.001222	-0.112399	0.017104
958	131.095276	0.147003	-10.006200	0.235440	1.648080	-1.520896	0.802985	-1.626667	-0.010996	-0.059865	0.015882
959	131.224487	0.196228	-10.123920	0.235440	1.177200	-1.519403	0.804478	-1.630000	-0.048869	-0.009774	0.013439
960	131.353668	0.165436	-10.123920	0.235440	1.765800	-1.522388	0.802985	-1.626667	-0.041539	-0.030543	0.010996
961	131.482849	0.134644	-10.123920	0.117720	1.883520	-1.520896	0.802985	-1.630000	-0.029322	-0.030543	0.018326
962	131.612030	0.183838	-10.123920	0.235440	1.530360	-1.517910	0.804478	-1.628333	-0.015882	-0.051313	0.017104
963	131.741211	0.153046	-10.123920	0.235440	1.530360	-1.517910	0.801493	-1.628333	-0.039095	-0.010996	0.018326
964	131.870392	0.202240	-10.006200	0.000000	1.530360	-1.516418	0.804478	-1.626667	-0.040317	-0.013439	0.006109
965	131.999573	0.171448	-10.006200	0.117720	1.412640	-1.520896	0.802985	-1.625000	-0.031765	-0.036652	0.008552
966	132.128754	0.140656	-10.123920	0.235440	1.412640	-1.517910	0.804478	-1.626667	-0.034208	-0.013439	0.014661
967	132.257965	0.189880	-10.241640	0.117720	1.412640	-1.520896	0.802985	-1.631667	-0.046426	-0.006109	0.008552
968	132.387146	0.159088	-10.241640	0.235440	1.294920	-1.520896	0.807463	-1.625000	-0.042761	-0.006109	0.017104
969	132.516327	0.126587	-10.006200	0.117720	1.412640	-1.517910	0.804478	-1.628333	-0.032987	-0.017104	0.014661
970	132.645538	0.177521	-10.123920	0.353160	1.294920	-1.522388	0.804478	-1.626667	-0.046426	-0.013439	0.009774
971	132.774719	0.146729	-10.123920	0.000000	1.177200	-1.523881	0.795522	-1.630000	-0.041539	-0.012217	0.017104
972	132.903870	0.195892	-10.241640	0.235440	1.412640	-1.522388	0.807463	-1.626667	-0.039095	-0.013439	0.010996
973	133.033081	0.165131	-10.006200	0.235440	1.177200	-1.522388	0.801493	-1.630000	-0.031765	-0.018326	0.010996
974	133.162262	0.134338	-10.123920	0.235440	1.412640	-1.523881	0.804478	-1.630000	-0.041539	-0.008552	0.012217
975	133.291473	0.183563	-10.006200	0.353160	1.294920	-1.520896	0.802985	-1.626667	-0.032987	-0.010996	0.015882
976	133.420685	0.152802	-10.241640	0.353160	1.412640	-1.520896	0.804478	-1.625000	-0.035430	-0.010996	0.014661
977	133.549866	0.201996	-10.123920	0.235440	1.177200	-1.517910	0.804478	-1.626667	-0.051313	-0.002443	0.009774
978	133.679047	0.171204	-10.123920	0.235440	1.059480	-1.519403	0.801493	-1.630000	-0.026878	-0.021991	0.018326
979	133.808228	0.140411	-10.006200	0.235440	1.294920	-1.519403	0.801493	-1.623333	-0.024435	-0.043982	0.014661
980	133.937439	0.189636	-10.006200	0.235440	1.177200	-1.519403	0.805970	-1.628333	-0.052534	-0.003665	0.018326
981	134.066589	0.158813	-10.123920	0.117720	1.530360	-1.520896	0.804478	-1.630000	-0.046426	-0.007330	0.013439
982	134.195770	0.126587	-10.123920	0.235440	1.412640	-1.520896	0.802985	-1.625000	-0.050091	0.003665	0.012217
983	134.324921	0.177185	-9.888480	0.235440	2.001240	-1.519403	0.804478	-1.628333	-0.095295	0.118508	0.017104
984	134.454102	0.146393	-9.888480	0.117720	1.765800	-1.520896	0.802985	-1.630000	-0.043982	0.007330	0.017104
985	134.583313	0.195618	-10.123920	0.000000	1.294920	-1.519403	0.802985	-1.626667	-0.028100	-0.058643	0.007330
986	134.712494	0.164825	-10.123920	0.000000	1.530360	-1.520896	0.804478	-1.626667	-0.070860	0.034208	0.013439
987	134.841675	0.134033	-10.123920	0.000000	1.530360	-1.520896	0.805970	-1.626667	-0.036652	-0.023213	0.010996
988	134.970886	0.183258	-9.888480	0.000000	0.588600	-1.517910	0.810448	-1.628333	-0.012217	-0.056200	0.009774
989	135.100067	0.152466	-10.359360	0.000000	0.824040	-1.519403	0.811940	-1.626667	-0.119730	0.149051	0.004887
990	135.229279	0.201691	-9.888480	0.000000	0.470880	-1.520896	0.819403	-1.628333	-0.179594	0.270002	-0.006109
991	135.358459	0.170898	-10.006200	-0.117720	1.294920	-1.517910	0.822388	-1.628333	-0.106291	0.114843	0.012217
992	135.487640	0.140106	-9.770760	0.000000	0.706320	-1.517910	0.825373	-1.628333	-0.067195	0.052534	0.019548
993	135.616852	0.189331	-9.535320	0.588600	2.236680	-1.516418	0.834328	-1.623333	-0.072082	0.112399	0.030543
994	135.746033	0.158539	-10.123920	0.117720	2.001240	-1.513433	0.834328	-1.621667	-0.095295	0.095295	0.015882
995	135.875214	0.126587	-9.888480	1.059480	1.177200	-1.511940	0.834328	-1.616667	0.030543	-0.171042	0.015882
996	136.004395	0.176941	-10.123920	0.117720	1.177200	-1.510448	0.831343	-1.616667	-0.025656	-0.095295	0.021991
997	136.133575	0.146149	-9.417600	0.588600	2.001240	-1.505970	0.826866	-1.615000	0.256563	-0.609644	0.092852
998	136.262756	0.195343	-12.007440	0.706320	0.824040	-1.504478	0.825373	-1.613333	-0.239459	0.389732	-0.019548
999	136.391937	0.164551	-10.006200	0.235440	-0.470880	-1.502985	0.819403	-1.613333	0.106291	-0.268781	0.018326
1000	136.521118	0.133759	-10.123920	0.470880	2.001240	-1.501493	0.817910	-1.613333	-0.223577	0.362854	-0.010996
1001	136.650330	0.182983	-9.770760	0.470880	0.235440	-1.501493	0.819403	-1.618333	0.098960	-0.262672	0.026878
1002	136.779510	0.152191	-10.241640	0.588600	0.235440	-1.501493	0.819403	-1.615000	-0.073304	0.057421	0.012217
1003	136.908722	0.201416	-10.123920	0.353160	-0.353160	-1.501493	0.823881	-1.616667	0.063530	-0.172264	0.018326
1004	137.037933	0.170654	-9.417600	-0.235440	-0.824040	-1.504478	0.825373	-1.616667	0.217468	-0.492357	0.061087
1005	137.167145	0.139893	-10.359360	0.588600	-0.824040	-1.514925	0.828358	-1.610000	0.130725	-0.373850	0.039095
1006	137.296356	0.189117	-8.946720	-0.117720	0.706320	-1.538806	0.828358	-1.600000	-0.024435	-0.037874	0.020769
1007	137.425568	0.158356	-9.299880	0.000000	0.824040	-1.588060	0.831343	-1.585000	-0.007330	-0.047647	0.019548
1008	137.554810	0.126648	-10.006200	0.235440	1.294920	-1.756716	0.853731	-1.533333	-0.112399	0.107512	0.014661
1009	137.684021	0.176849	-9.535320	0.117720	2.001240	-2.320896	1.107463	-1.406667	-0.224798	0.356745	-0.013439
1010	137.813232	0.146088	-10.123920	2.001240	1.883520	-6.113433	2.229851	-1.331667	0.306654	-0.634078	0.102625
1011	137.942474	0.195343	-11.183400	0.706320	-0.941760	-6.113433	2.153731	-1.293333	0.156382	-0.416610	0.059865
1012	138.071686	0.164581	-10.006200	0.235440	0.117720	-6.113433	2.173134	-1.315000	-0.116064	0.136834	0.010996
1013	138.200867	0.133789	-10.123920	0.353160	1.765800	-6.113433	2.167164	-1.321667	-0.095295	0.095295	0.014661
1014	138.330048	0.182983	-10.123920	0.117720	1.177200	-6.113433	2.128358	-1.320000	-0.057421	0.004887	0.020769
1015	138.459290	0.152252	-10.123920	0.000000	1.530360	-6.113433	2.100000	-1.318333	-0.057421	0.028100	0.019548
1016	138.588470	0.201447	-10.123920	0.117720	1.765800	-6.113433	2.098507	-1.320000	-0.026878	-0.043982	0.010996
1017	138.717682	0.170685	-10.006200	0.117720	1.412640	-6.113433	2.097015	-1.316667	-0.054978	0.017104	0.015882
1018	138.846832	0.139862	-10.123920	0.000000	1.294920	-6.113433	2.091045	-1.321667	-0.045204	-0.007330	0.015882
1019	138.976013	0.189056	-10.123920	0.235440	1.294920	-6.113433	2.092537	-1.318333	-0.029322	-0.014661	0.017104
1020	139.105225	0.158295	-10.123920	0.235440	1.412640	-6.113433	2.094030	-1.321667	-0.052534	-0.004887	0.013439
1021	139.234436	0.126617	-10.006200	0.117720	1.412640	-6.113433	2.095522	-1.320000	-0.032987	-0.012217	0.017104
1022	139.363617	0.176727	-10.123920	0.117720	1.530360	-6.113433	2.091045	-1.318333	-0.045204	-0.008552	0.012217
1023	139.492859	0.145996	-10.241640	0.353160	1.412640	-6.113433	2.094030	-1.320000	-0.034208	-0.012217	0.021991
1024	139.622070	0.195221	-10.241640	0.000000	1.412640	-6.113433	2.092537	-1.316667	-0.041539	-0.024435	0.017104
1025	139.751282	0.164459	-10.006200	0.000000	1.294920	-6.113433	2.092537	-1.320000	-0.035430	-0.003665	0.013439
1026	139.880493	0.133698	-10.006200	0.235440	1.294920	-6.113433	2.089552	-1.318333	-0.045204	-0.008552	0.014661
1027	140.009705	0.182922	-10.123920	0.353160	1.412640	-6.113433	2.092537	-1.318333	-0.040317	-0.008552	0.008552
1028	140.138916	0.152161	-10.006200	0.117720	1.530360	-6.113433	2.092537	-1.321667	-0.042761	-0.007330	0.015882
1029	140.268127	0.201385	-10.006200	0.117720	1.294920	-6.113433	2.095522	-1.320000	-0.031765	-0.008552	0.012217
1030	140.397339	0.170624	-10.123920	0.235440	1.412640	-6.113433	2.092537	-1.320000	-0.046426	-0.007330	0.013439
1031	140.526550	0.139862	-10.123920	0.117720	1.412640	-6.113433	2.091045	-1.323333	-0.037874	-0.006109	0.015882
1032	140.655731	0.189056	-10.123920	0.353160	1.294920	-6.113433	2.095522	-1.318333	-0.039095	-0.012217	0.013439
1033	140.784912	0.158264	-10.006200	0.235440	1.530360	-6.113433	2.092537	-1.318333	-0.042761	-0.013439	0.018326
1034	140.914124	0.126587	-10.123920	0.235440	1.412640	-6.113433	2.094030	-1.320000	-0.040317	-0.013439	0.018326
1035	141.043365	0.176758	-10.123920	0.235440	1.412640	-6.113433	2.092537	-1.323333	-0.037874	-0.009774	0.018326
1036	141.172607	0.146027	-10.123920	0.235440	1.412640	-6.113433	2.091045	-1.318333	-0.034208	-0.010996	0.008552
1037	141.301819	0.195251	-10.006200	0.235440	1.530360	-6.113433	2.094030	-1.321667	-0.035430	-0.009774	0.008552
1038	141.431030	0.164490	-10.123920	0.117720	1.412640	-6.113433	2.092537	-1.320000	-0.030543	-0.014661	0.014661
1039	141.560242	0.133728	-10.123920	0.235440	1.412640	-6.113433	2.092537	-1.318333	-0.036652	-0.010996	0.013439
1040	141.689453	0.182953	-10.241640	0.235440	1.294920	-6.113433	2.091045	-1.318333	-0.030543	-0.012217	0.015882
1041	141.818665	0.152191	-10.123920	0.117720	1.294920	-6.113433	2.092537	-1.321667	-0.042761	-0.008552	0.014661
1042	141.947876	0.201416	-10.241640	0.235440	1.412640	-6.113433	2.094030	-1.320000	-0.036652	-0.009774	0.012217
1043	142.077087	0.170654	-10.006200	0.235440	1.294920	-6.113433	2.092537	-1.318333	-0.042761	-0.007330	0.012217
1044	142.206299	0.139893	-10.123920	0.235440	1.412640	-6.113433	2.095522	-1.321667	-0.037874	-0.007330	0.019548
1045	142.335510	0.189117	-10.123920	0.117720	1.530360	-6.113433	2.091045	-1.318333	-0.045204	-0.004887	0.017104
1046	142.464752	0.158386	-10.006200	0.117720	1.177200	-6.113433	2.091045	-1.318333	-0.036652	-0.012217	0.009774
1047	142.593964	0.126617	-10.006200	0.117720	1.412640	-6.113433	2.094030	-1.320000	-0.040317	-0.010996	0.010996
1048	142.723175	0.176849	-10.123920	0.117720	1.294920	-6.113433	2.091045	-1.318333	-0.043982	-0.015882	0.015882
1049	142.852417	0.146118	-10.241640	0.117720	1.412640	-6.113433	2.094030	-1.320000	-0.031765	-0.013439	0.019548
1050	142.981628	0.195343	-10.123920	0.235440	1.294920	-6.113433	2.092537	-1.318333	-0.042761	-0.013439	0.018326
1051	143.110870	0.164612	-9.770760	0.117720	1.294920	-6.113433	2.092537	-1.318333	-0.039095	-0.008552	0.012217
1052	143.240051	0.133820	-10.123920	0.117720	1.530360	-6.113433	2.092537	-1.321667	-0.043982	-0.007330	0.012217
1053	143.369232	0.183014	-10.123920	0.235440	1.294920	-6.113433	2.089552	-1.321667	-0.041539	-0.012217	0.018326
1054	143.498444	0.152252	-10.006200	0.117720	1.294920	-6.113433	2.091045	-1.320000	-0.034208	-0.014661	0.017104
1055	143.627625	0.201447	-10.123920	0.117720	1.530360	-6.113433	2.094030	-1.320000	-0.042761	-0.008552	0.018326
1056	143.756836	0.170685	-10.123920	0.117720	1.294920	-6.113433	2.091045	-1.321667	-0.041539	-0.012217	0.018326
1057	143.886017	0.139893	-10.123920	0.117720	1.177200	-6.113433	2.091045	-1.320000	-0.036652	-0.009774	0.009774
1058	144.015198	0.189087	-10.006200	0.235440	1.294920	-6.113433	2.092537	-1.321667	-0.039095	-0.013439	0.017104
1059	144.144409	0.158325	-10.241640	0.000000	1.294920	-6.113433	2.089552	-1.320000	-0.034208	-0.023213	0.014661
1060	144.273590	0.126587	-10.241640	0.353160	1.765800	-6.113433	2.091045	-1.321667	-0.041539	0.017104	0.018326
1061	144.402802	0.176758	-10.123920	0.235440	1.530360	-6.113433	1.967164	-1.316667	-0.032987	-0.020769	0.009774
1062	144.531982	0.145966	-9.888480	0.470880	1.412640	-4.428358	1.534328	-1.336667	-0.047647	0.006109	0.018326
1063	144.661194	0.195190	-10.006200	0.588600	1.883520	-2.231343	1.047761	-1.426667	-0.079412	-0.010996	0.015882
1064	144.790375	0.164398	-10.712520	0.706320	1.648080	-1.767164	0.850746	-1.530000	0.010996	-0.142942	0.031765
1065	144.919556	0.133606	-9.770760	0.235440	1.883520	-1.583582	0.826866	-1.583333	-0.026878	-0.025656	0.008552
1066	145.048767	0.182831	-10.359360	0.941760	4.237920	-1.532836	0.831343	-1.601667	0.094073	-0.101404	0.007330
1067	145.177979	0.152069	-8.946720	0.000000	-0.353160	-1.508955	0.823881	-1.613333	0.025656	-0.102625	0.045204
1068	145.307190	0.201294	-10.594800	0.235440	1.059480	-1.502985	0.820896	-1.611667	-0.032987	-0.114843	0.001222
1069	145.436401	0.170532	-10.359360	0.588600	1.530360	-1.501493	0.817910	-1.615000	-0.194255	0.311541	-0.008552
1070	145.565613	0.139771	-9.535320	0.117720	1.294920	-1.498507	0.817910	-1.616667	-0.091630	0.122173	-0.004887
1071	145.694855	0.189026	-10.006200	0.588600	1.883520	-1.501493	0.819403	-1.611667	-0.028100	-0.021991	0.012217
1072	145.824066	0.158264	-9.888480	0.470880	0.588600	-1.501493	0.820896	-1.611667	-0.073304	0.125838	0.008552
1073	145.953247	0.126587	-10.123920	0.117720	2.472120	-1.502985	0.825373	-1.613333	-0.012217	-0.094073	0.021991
1074	146.082428	0.176666	-12.478320	1.177200	0.706320	-1.504478	0.832836	-1.611667	-0.051313	-0.028100	0.017104
1075	146.211639	0.145905	-12.242880	1.412640	1.294920	-1.505970	0.834328	-1.618333	-0.217468	0.327424	-0.019548
1076	146.340820	0.195099	-11.654280	1.059480	0.235440	-1.511940	0.835821	-1.620000	-0.075747	0.069639	0.002443
1077	146.470062	0.164368	-10.947960	0.353160	0.235440	-1.511940	0.832836	-1.623333	-0.108734	0.138056	-0.003665
1078	146.599304	0.133636	-10.241640	0.588600	1.765800	-1.513433	0.828358	-1.626667	0.053756	-0.197920	0.018326
1079	146.728516	0.182861	-10.123920	0.000000	1.412640	-1.519403	0.828358	-1.623333	0.018326	-0.119730	0.018326
1080	146.857758	0.152130	-10.359360	0.117720	-0.470880	-1.511940	0.820896	-1.626667	-0.056200	0.031765	0.000000
