# FOX Logger (IMU file)
# (c) INRIA 2013
## File created from file data/maison.raw
#
# File format:
# id	t	dt	ax	ay	az	mx	my	mz	gx	gy	gz
#
# Units:
#	Time: s
#	Acceleration: m.s^-2
#	Magnetic field: gauss
#	Rotation speed: rad.s^-1
#
1	7.556122	7.556122	-10.006200	0.000000	1.059480	0.232836	-0.634328	0.203333	-0.042761	-0.008552	0.014661
2	7.685089	0.156097	-10.006200	0.117720	1.059480	0.220896	-0.646269	0.218333	-0.040317	-0.004887	0.012217
3	7.814117	0.205139	-10.123920	0.000000	1.177200	0.235821	-0.631343	0.198333	-0.039095	-0.012217	0.018326
4	7.943085	0.174133	-10.123920	0.000000	1.177200	0.235821	-0.631343	0.198333	-0.035430	-0.014661	0.013439
5	8.072052	0.143127	-10.006200	-0.117720	1.177200	0.235821	-0.628358	0.200000	-0.045204	-0.010996	0.013439
6	8.201050	0.190887	-10.123920	0.000000	1.412640	0.235821	-0.628358	0.198333	-0.039095	-0.013439	0.012217
7	8.330048	0.161163	-10.006200	0.000000	1.294920	0.234328	-0.631343	0.198333	-0.037874	-0.008552	0.012217
8	8.459015	0.130157	-10.006200	-0.117720	1.177200	0.234328	-0.629851	0.198333	-0.042761	-0.013439	0.013439
9	8.587952	0.179108	-10.006200	0.000000	1.177200	0.234328	-0.629851	0.198333	-0.045204	-0.007330	0.012217
10	8.716949	0.148132	-10.241640	0.000000	1.059480	0.235821	-0.631343	0.198333	-0.034208	-0.008552	0.009774
11	8.845947	0.197144	-10.241640	0.000000	1.177200	0.237313	-0.628358	0.196667	-0.039095	-0.010996	0.008552
12	8.974945	0.166168	-10.241640	-0.117720	1.294920	0.237313	-0.629851	0.200000	-0.036652	-0.013439	0.013439
13	9.103943	0.135193	-10.123920	0.000000	1.059480	0.237313	-0.628358	0.198333	-0.052534	-0.008552	0.012217
14	9.232910	0.184174	-10.123920	-0.117720	1.412640	0.235821	-0.629851	0.198333	-0.047647	-0.013439	0.008552
15	9.361908	0.153198	-10.123920	0.000000	1.294920	0.235821	-0.631343	0.200000	-0.039095	-0.014661	0.014661
16	9.490906	0.202209	-10.241640	-0.117720	1.294920	0.235821	-0.631343	0.198333	-0.037874	-0.010996	0.014661
17	9.619904	0.171234	-10.123920	0.000000	1.177200	0.235821	-0.628358	0.200000	-0.041539	-0.010996	0.010996
18	9.748901	0.140259	-10.006200	0.000000	1.177200	0.235821	-0.631343	0.201667	-0.045204	-0.008552	0.013439
19	9.877869	0.189240	-10.241640	-0.117720	1.294920	0.237313	-0.629851	0.198333	-0.042761	-0.012217	0.009774
20	10.006866	0.158264	-10.006200	0.000000	1.294920	0.235821	-0.628358	0.198333	-0.032987	-0.012217	0.015882
21	10.135864	0.126404	-10.123920	-0.117720	0.941760	0.238806	-0.631343	0.196667	-0.032987	-0.010996	0.004887
22	10.264862	0.176300	-10.241640	0.000000	1.177200	0.235821	-0.629851	0.198333	-0.035430	-0.012217	0.014661
23	10.393829	0.145294	-10.123920	0.000000	1.294920	0.235821	-0.631343	0.200000	-0.043982	-0.008552	0.013439
24	10.522797	0.194275	-10.006200	0.000000	1.177200	0.235821	-0.629851	0.198333	-0.032987	-0.013439	0.014661
25	10.651764	0.163269	-10.006200	0.000000	1.177200	0.234328	-0.631343	0.200000	-0.039095	-0.018326	0.012217
26	10.780731	0.132263	-10.123920	-0.117720	1.177200	0.237313	-0.631343	0.198333	-0.043982	-0.010996	0.010996
27	10.909729	0.181274	-9.888480	0.000000	1.177200	0.235821	-0.631343	0.200000	-0.035430	-0.015882	0.008552
28	11.038757	0.150330	-10.006200	0.000000	1.177200	0.235821	-0.629851	0.198333	-0.036652	-0.018326	0.017104
29	11.167725	0.199310	-10.123920	0.000000	1.177200	0.235821	-0.628358	0.198333	-0.040317	-0.012217	0.015882
30	11.296692	0.168304	-10.241640	0.000000	1.294920	0.235821	-0.628358	0.200000	-0.043982	-0.009774	0.009774
31	11.425690	0.137329	-10.241640	0.000000	1.177200	0.235821	-0.629851	0.198333	-0.037874	-0.010996	0.007330
32	11.554657	0.186310	-10.006200	-0.117720	1.059480	0.237313	-0.629851	0.198333	-0.041539	-0.015882	0.012217
33	11.683655	0.155334	-10.123920	-0.117720	1.059480	0.237313	-0.629851	0.198333	-0.043982	-0.013439	0.017104
34	11.812683	0.204376	-10.123920	0.000000	1.059480	0.235821	-0.631343	0.198333	-0.035430	-0.008552	0.010996
35	11.941681	0.173401	-10.123920	0.000000	1.177200	0.237313	-0.628358	0.198333	-0.039095	-0.010996	0.017104
36	12.070709	0.142456	-10.123920	0.000000	1.412640	0.235821	-0.629851	0.200000	-0.037874	-0.008552	0.006109
37	12.199738	0.190948	-10.006200	-0.235440	1.177200	0.235821	-0.629851	0.198333	-0.035430	-0.012217	0.012217
38	12.329254	0.161041	-10.123920	0.000000	1.177200	0.237313	-0.628358	0.198333	-0.053756	-0.012217	0.006109
39	12.457703	0.129517	-10.006200	0.000000	1.294920	0.235821	-0.629851	0.200000	-0.043982	-0.007330	0.015882
40	12.586700	0.178528	-10.006200	0.000000	1.177200	0.235821	-0.628358	0.200000	-0.042761	-0.002443	0.019548
41	12.715698	0.147552	-10.123920	-0.117720	1.177200	0.237313	-0.631343	0.200000	-0.035430	-0.017104	0.015882
42	12.844696	0.196564	-10.123920	-0.117720	1.177200	0.235821	-0.629851	0.198333	-0.037874	-0.013439	0.010996
43	12.973663	0.165558	-10.123920	0.000000	1.177200	0.238806	-0.628358	0.198333	-0.046426	-0.009774	0.012217
44	13.102661	0.134583	-10.006200	0.000000	1.177200	0.235821	-0.629851	0.196667	-0.047647	-0.012217	0.009774
45	13.231689	0.183624	-10.123920	0.000000	1.177200	0.235821	-0.629851	0.198333	-0.042761	-0.010996	0.019548
46	13.360687	0.152649	-10.123920	0.000000	1.177200	0.235821	-0.626866	0.196667	-0.041539	-0.008552	0.017104
47	13.489685	0.201660	-10.006200	0.000000	1.177200	0.235821	-0.632836	0.200000	-0.034208	-0.009774	0.018326
48	13.618683	0.170685	-10.006200	0.000000	1.294920	0.235821	-0.631343	0.198333	-0.030543	-0.012217	0.009774
49	13.747711	0.139740	-10.123920	0.000000	1.294920	0.235821	-0.631343	0.198333	-0.039095	-0.010996	0.010996
50	13.876709	0.188751	-10.241640	0.000000	1.177200	0.235821	-0.629851	0.200000	-0.042761	-0.013439	0.018326
51	14.005707	0.157776	-10.006200	0.000000	1.412640	0.235821	-0.629851	0.198333	-0.041539	-0.012217	0.009774
52	14.134705	0.126404	-10.123920	0.000000	1.177200	0.235821	-0.626866	0.198333	-0.043982	-0.015882	0.015882
53	14.263702	0.175812	-10.006200	0.000000	1.294920	0.238806	-0.628358	0.196667	-0.041539	-0.014661	0.006109
54	14.392670	0.144806	-10.006200	0.000000	1.177200	0.237313	-0.629851	0.198333	-0.037874	-0.008552	0.014661
55	14.521698	0.193848	-10.006200	0.000000	1.177200	0.235821	-0.629851	0.200000	-0.035430	-0.009774	0.017104
56	14.650696	0.162872	-10.241640	0.000000	1.294920	0.237313	-0.629851	0.198333	-0.036652	-0.013439	0.015882
57	14.779694	0.131897	-10.006200	0.000000	1.177200	0.235821	-0.629851	0.196667	-0.042761	-0.010996	0.012217
58	14.908691	0.180908	-10.123920	0.000000	1.177200	0.234328	-0.629851	0.200000	-0.036652	-0.010996	0.010996
59	15.037689	0.149933	-10.123920	0.000000	1.177200	0.235821	-0.629851	0.195000	-0.042761	-0.009774	0.014661
60	15.166626	0.198883	-10.123920	-0.117720	1.294920	0.237313	-0.629851	0.200000	-0.029322	-0.014661	0.010996
61	15.295624	0.167908	-10.123920	0.000000	1.059480	0.235821	-0.629851	0.198333	-0.039095	-0.007330	0.008552
62	15.424622	0.136932	-10.006200	0.000000	1.177200	0.235821	-0.628358	0.200000	-0.042761	-0.008552	0.013439
63	15.553619	0.185944	-10.006200	0.000000	1.177200	0.237313	-0.631343	0.198333	-0.042761	-0.008552	0.015882
64	15.682587	0.154938	-10.123920	0.000000	1.294920	0.235821	-0.631343	0.198333	-0.039095	-0.007330	0.014661
65	15.811554	0.203918	-10.006200	0.000000	1.177200	0.237313	-0.629851	0.200000	-0.043982	-0.013439	0.017104
66	15.940552	0.172943	-10.123920	0.000000	1.177200	0.235821	-0.628358	0.198333	-0.043982	-0.008552	0.013439
67	16.069519	0.141937	-10.006200	0.000000	1.177200	0.234328	-0.628358	0.198333	-0.037874	-0.009774	0.015882
68	16.198547	0.190918	-10.123920	0.000000	1.177200	0.237313	-0.629851	0.198333	-0.040317	-0.010996	0.014661
69	16.328583	0.161041	-10.006200	-0.117720	1.177200	0.237313	-0.628358	0.200000	-0.043982	-0.012217	0.010996
70	16.456573	0.129059	-10.006200	0.000000	1.059480	0.235821	-0.628358	0.198333	-0.037874	-0.006109	0.017104
71	16.585571	0.178070	-10.006200	0.000000	1.294920	0.234328	-0.631343	0.200000	-0.032987	-0.008552	0.015882
72	16.714569	0.147095	-10.123920	0.000000	1.294920	0.235821	-0.626866	0.200000	-0.029322	-0.010996	0.013439
73	16.843567	0.196106	-10.241640	0.000000	1.059480	0.237313	-0.629851	0.200000	-0.040317	-0.009774	0.017104
74	16.972565	0.165131	-10.123920	0.000000	1.177200	0.237313	-0.631343	0.198333	-0.042761	-0.008552	0.013439
75	17.101562	0.134155	-10.123920	-0.117720	1.059480	0.235821	-0.629851	0.200000	-0.045204	-0.009774	0.014661
76	17.230560	0.183167	-10.123920	0.000000	1.059480	0.234328	-0.629851	0.198333	-0.043982	-0.010996	0.013439
77	17.359558	0.152191	-9.888480	-0.117720	0.941760	0.235821	-0.629851	0.196667	-0.035430	-0.013439	0.013439
78	17.488556	0.201202	-10.123920	0.000000	1.177200	0.237313	-0.629851	0.200000	-0.031765	-0.014661	0.012217
79	17.617584	0.170258	-10.006200	0.000000	1.412640	0.237313	-0.629851	0.200000	-0.035430	-0.008552	0.015882
80	17.746613	0.139313	-10.123920	-0.117720	1.294920	0.237313	-0.629851	0.198333	-0.043982	-0.014661	0.012217
81	17.875610	0.188324	-10.123920	-0.117720	1.177200	0.235821	-0.628358	0.196667	-0.039095	-0.010996	0.013439
82	18.004639	0.157379	-10.123920	0.000000	1.294920	0.237313	-0.628358	0.200000	-0.032987	-0.013439	0.014661
83	18.133636	0.126404	-10.123920	-0.117720	1.059480	0.237313	-0.626866	0.198333	-0.029322	-0.015882	0.015882
84	18.262604	0.175385	-10.123920	-0.117720	1.294920	0.235821	-0.628358	0.200000	-0.040317	-0.009774	0.020769
85	18.391632	0.144440	-10.123920	-0.117720	1.177200	0.235821	-0.628358	0.198333	-0.042761	-0.015882	0.017104
86	18.520660	0.190948	-10.123920	0.000000	1.412640	0.237313	-0.628358	0.196667	-0.036652	-0.012217	0.018326
87	18.649719	0.162567	-10.006200	0.000000	1.177200	0.235821	-0.629851	0.200000	-0.029322	-0.009774	0.014661
88	18.778748	0.131622	-10.123920	0.000000	1.294920	0.235821	-0.629851	0.200000	-0.036652	-0.014661	0.015882
89	18.907776	0.180664	-10.123920	0.000000	1.412640	0.237313	-0.629851	0.198333	-0.040317	-0.009774	0.014661
90	19.036804	0.149719	-10.006200	0.000000	1.294920	0.235821	-0.626866	0.198333	-0.045204	-0.009774	0.015882
91	19.165863	0.198792	-10.241640	0.000000	1.177200	0.237313	-0.626866	0.200000	-0.040317	-0.008552	0.014661
92	19.294861	0.167816	-10.123920	0.000000	1.177200	0.235821	-0.631343	0.200000	-0.042761	-0.014661	0.013439
93	19.423859	0.136841	-10.006200	0.000000	1.177200	0.234328	-0.629851	0.200000	-0.039095	-0.009774	0.012217
94	19.552887	0.185883	-10.241640	0.000000	0.941760	0.234328	-0.631343	0.198333	-0.041539	-0.009774	0.012217
95	19.681915	0.154938	-10.006200	0.000000	1.059480	0.235821	-0.628358	0.198333	-0.046426	-0.012217	0.012217
96	19.810944	0.203979	-10.006200	-0.117720	1.177200	0.235821	-0.629851	0.198333	-0.035430	-0.014661	0.010996
97	19.939972	0.173035	-10.241640	0.000000	1.059480	0.235821	-0.628358	0.198333	-0.039095	-0.010996	0.014661
98	20.068970	0.142059	-10.006200	-0.117720	1.177200	0.235821	-0.628358	0.200000	-0.039095	-0.009774	0.010996
99	20.197998	0.190918	-10.006200	-0.117720	1.412640	0.235821	-0.628358	0.198333	-0.047647	-0.012217	0.014661
100	20.327911	0.161041	-10.123920	-0.117720	1.177200	0.235821	-0.628358	0.198333	-0.052534	-0.013439	0.012217
101	20.456024	0.129181	-10.006200	0.000000	1.177200	0.235821	-0.629851	0.200000	-0.041539	-0.012217	0.006109
102	20.585052	0.178223	-10.123920	-0.117720	1.177200	0.235821	-0.628358	0.198333	-0.048869	-0.014661	0.013439
103	20.714050	0.147247	-10.006200	0.000000	1.059480	0.235821	-0.628358	0.198333	-0.043982	-0.008552	0.009774
104	20.843079	0.196289	-10.006200	0.000000	1.059480	0.237313	-0.628358	0.196667	-0.039095	-0.014661	0.012217
105	20.972107	0.165344	-9.888480	0.000000	1.177200	0.234328	-0.628358	0.198333	-0.034208	-0.006109	0.012217
106	21.101105	0.134369	-10.006200	0.000000	1.177200	0.232836	-0.628358	0.200000	-0.046426	-0.008552	0.014661
107	21.230103	0.183380	-10.006200	0.000000	1.177200	0.234328	-0.629851	0.198333	-0.042761	-0.008552	0.010996
108	21.359131	0.152435	-10.123920	-0.117720	1.294920	0.235821	-0.626866	0.198333	-0.040317	-0.004887	0.015882
109	21.488159	0.201477	-10.123920	0.000000	1.177200	0.235821	-0.628358	0.200000	-0.040317	-0.012217	0.017104
110	21.617157	0.170502	-10.123920	0.000000	1.294920	0.234328	-0.629851	0.198333	-0.037874	-0.007330	0.013439
111	21.746185	0.139557	-10.123920	0.000000	1.059480	0.235821	-0.629851	0.198333	-0.051313	-0.012217	0.010996
112	21.875183	0.188568	-10.123920	0.000000	1.177200	0.235821	-0.629851	0.198333	-0.037874	-0.012217	0.018326
113	22.004211	0.157623	-10.123920	0.000000	1.294920	0.237313	-0.628358	0.198333	-0.047647	-0.008552	0.014661
114	22.133209	0.126404	-10.123920	-0.117720	1.177200	0.237313	-0.629851	0.198333	-0.034208	-0.009774	0.014661
115	22.262207	0.175659	-10.006200	-0.117720	1.177200	0.234328	-0.626866	0.198333	-0.034208	-0.012217	0.013439
116	22.391205	0.144684	-10.006200	0.000000	1.177200	0.234328	-0.628358	0.198333	-0.032987	-0.009774	0.019548
117	22.520203	0.193695	-10.123920	0.000000	1.294920	0.237313	-0.626866	0.200000	-0.039095	-0.007330	0.017104
118	22.649200	0.162720	-10.123920	0.000000	1.177200	0.235821	-0.629851	0.198333	-0.045204	-0.009774	0.012217
119	22.778229	0.131775	-10.006200	-0.117720	1.294920	0.234328	-0.628358	0.198333	-0.045204	-0.013439	0.014661
120	22.907227	0.180786	-10.123920	0.000000	1.294920	0.235821	-0.629851	0.198333	-0.043982	-0.010996	0.007330
121	23.036224	0.149811	-10.006200	0.000000	1.177200	0.237313	-0.629851	0.198333	-0.041539	-0.009774	0.010996
122	23.165192	0.198792	-10.123920	0.000000	1.177200	0.235821	-0.629851	0.200000	-0.030543	-0.010996	0.009774
123	23.294189	0.167816	-10.006200	0.000000	1.177200	0.235821	-0.628358	0.196667	-0.031765	-0.012217	0.014661
124	23.423218	0.136871	-9.770760	-0.117720	1.177200	0.234328	-0.629851	0.200000	-0.036652	-0.008552	0.012217
125	23.552216	0.185883	-10.123920	0.000000	1.294920	0.237313	-0.628358	0.201667	-0.035430	-0.017104	0.014661
126	23.681183	0.154877	-10.241640	0.000000	1.177200	0.235821	-0.629851	0.198333	-0.050091	-0.008552	0.010996
127	23.810181	0.203888	-10.123920	0.000000	1.294920	0.235821	-0.626866	0.201667	-0.040317	-0.012217	0.012217
128	23.939178	0.172913	-9.888480	0.000000	1.177200	0.235821	-0.626866	0.198333	-0.035430	-0.013439	0.013439
129	24.068176	0.141937	-10.006200	0.000000	1.294920	0.235821	-0.628358	0.200000	-0.040317	-0.010996	0.015882
130	24.197174	0.190918	-10.123920	0.000000	1.294920	0.238806	-0.628358	0.200000	-0.043982	-0.014661	0.014661
131	24.327271	0.161072	-10.006200	0.000000	1.177200	0.235821	-0.628358	0.200000	-0.039095	-0.013439	0.009774
132	24.455200	0.129028	-10.123920	0.000000	1.059480	0.234328	-0.629851	0.198333	-0.046426	-0.012217	0.014661
133	24.584198	0.178040	-10.006200	-0.117720	1.294920	0.234328	-0.629851	0.198333	-0.041539	-0.008552	0.014661
134	24.713257	0.147125	-10.006200	0.000000	1.412640	0.235821	-0.629851	0.198333	-0.040317	-0.007330	0.017104
135	24.842285	0.196167	-10.123920	-0.117720	1.294920	0.235821	-0.628358	0.196667	-0.031765	-0.012217	0.012217
136	24.971344	0.165253	-10.123920	-0.117720	1.177200	0.237313	-0.628358	0.198333	-0.040317	-0.006109	0.015882
137	25.100403	0.134338	-10.123920	-0.117720	1.177200	0.235821	-0.628358	0.198333	-0.045204	-0.008552	0.004887
138	25.229401	0.183350	-10.241640	-0.235440	1.177200	0.234328	-0.628358	0.200000	-0.050091	-0.012217	0.018326
139	25.358459	0.152435	-10.241640	-0.235440	1.294920	0.235821	-0.629851	0.200000	-0.042761	-0.010996	0.013439
140	25.487488	0.201477	-10.123920	0.000000	1.177200	0.235821	-0.628358	0.196667	-0.041539	-0.015882	0.015882
141	25.616516	0.170532	-10.123920	0.000000	1.294920	0.234328	-0.628358	0.200000	-0.037874	-0.014661	0.013439
142	25.745514	0.139557	-10.123920	0.000000	1.177200	0.237313	-0.628358	0.198333	-0.039095	-0.013439	0.012217
143	25.874542	0.188599	-10.006200	0.000000	1.177200	0.234328	-0.629851	0.198333	-0.032987	-0.017104	0.019548
144	26.003601	0.157684	-10.123920	0.000000	1.412640	0.234328	-0.629851	0.198333	-0.036652	-0.012217	0.015882
145	26.132629	0.126434	-10.123920	0.000000	1.294920	0.235821	-0.629851	0.200000	-0.041539	-0.012217	0.012217
146	26.261658	0.175781	-9.888480	0.000000	1.059480	0.235821	-0.631343	0.196667	-0.041539	-0.009774	0.013439
147	26.390686	0.144836	-10.241640	0.000000	1.177200	0.235821	-0.628358	0.200000	-0.053756	-0.007330	0.017104
148	26.519714	0.193878	-10.123920	-0.117720	1.294920	0.237313	-0.629851	0.198333	-0.037874	-0.009774	0.008552
149	26.648773	0.162964	-10.006200	0.000000	1.294920	0.235821	-0.629851	0.200000	-0.037874	-0.010996	0.020769
150	26.777832	0.132050	-10.123920	-0.117720	1.294920	0.237313	-0.628358	0.196667	-0.034208	-0.013439	0.017104
151	26.906860	0.181091	-10.241640	-0.117720	1.059480	0.235821	-0.629851	0.198333	-0.035430	-0.015882	0.013439
152	27.035889	0.150146	-10.123920	-0.117720	1.059480	0.235821	-0.628358	0.198333	-0.037874	-0.015882	0.014661
153	27.164917	0.199188	-10.123920	-0.117720	1.412640	0.235821	-0.629851	0.196667	-0.041539	-0.012217	0.017104
154	27.293945	0.168243	-10.241640	0.000000	1.412640	0.237313	-0.631343	0.198333	-0.045204	-0.007330	0.013439
155	27.423004	0.137329	-10.241640	0.000000	1.059480	0.234328	-0.628358	0.196667	-0.036652	-0.008552	0.013439
156	27.552032	0.186371	-10.006200	0.117720	1.177200	0.235821	-0.628358	0.198333	-0.034208	-0.008552	0.018326
157	27.681061	0.155426	-9.888480	0.000000	1.059480	0.235821	-0.629851	0.200000	-0.036652	-0.009774	0.017104
158	27.810089	0.204468	-10.006200	0.000000	1.177200	0.235821	-0.628358	0.200000	-0.035430	-0.013439	0.013439
159	27.939087	0.173492	-10.123920	0.000000	1.059480	0.237313	-0.629851	0.200000	-0.032987	-0.010996	0.013439
160	28.068115	0.142548	-9.888480	0.000000	1.059480	0.232836	-0.629851	0.200000	-0.030543	-0.009774	0.015882
161	28.197144	0.190948	-10.123920	0.000000	1.177200	0.237313	-0.628358	0.198333	-0.039095	-0.013439	0.015882
162	28.326569	0.161041	-10.123920	0.000000	1.294920	0.235821	-0.626866	0.200000	-0.036652	-0.004887	0.017104
163	28.455231	0.129730	-10.123920	0.000000	1.059480	0.235821	-0.626866	0.196667	-0.042761	-0.009774	0.018326
164	28.584229	0.178741	-10.123920	0.000000	1.059480	0.237313	-0.626866	0.198333	-0.045204	-0.012217	0.008552
165	28.713257	0.147797	-10.123920	0.000000	1.059480	0.237313	-0.628358	0.198333	-0.042761	-0.008552	0.013439
166	28.842285	0.196838	-10.123920	-0.117720	1.177200	0.234328	-0.628358	0.198333	-0.042761	-0.010996	0.012217
167	28.971313	0.165894	-10.006200	0.117720	1.177200	0.235821	-0.628358	0.200000	-0.052534	-0.006109	0.013439
168	29.100311	0.134918	-10.006200	0.000000	1.412640	0.234328	-0.626866	0.198333	-0.051313	-0.012217	0.014661
169	29.229340	0.183960	-10.241640	-0.117720	1.177200	0.234328	-0.628358	0.200000	-0.045204	-0.009774	0.018326
170	29.358368	0.153015	-10.123920	0.000000	1.177200	0.237313	-0.629851	0.198333	-0.046426	-0.009774	0.014661
171	29.487396	0.202057	-10.006200	0.000000	1.177200	0.237313	-0.628358	0.200000	-0.047647	-0.010996	0.017104
172	29.616425	0.171112	-10.123920	-0.117720	1.177200	0.235821	-0.628358	0.198333	-0.046426	-0.010996	0.013439
173	29.745483	0.140198	-10.123920	0.000000	1.294920	0.237313	-0.625373	0.198333	-0.035430	-0.010996	0.014661
174	29.874542	0.189270	-10.006200	0.000000	1.294920	0.234328	-0.628358	0.198333	-0.045204	-0.010996	0.017104
175	30.003601	0.158356	-10.006200	0.000000	1.294920	0.235821	-0.628358	0.200000	-0.042761	-0.013439	0.013439
176	30.132660	0.126465	-9.888480	-0.117720	1.177200	0.232836	-0.626866	0.201667	-0.032987	-0.013439	0.010996
177	30.261719	0.176514	-10.123920	0.117720	1.059480	0.235821	-0.628358	0.198333	-0.041539	-0.009774	0.018326
178	30.390747	0.145569	-10.123920	0.000000	1.294920	0.235821	-0.626866	0.198333	-0.039095	-0.008552	0.023213
179	30.519806	0.194641	-10.123920	-0.117720	1.059480	0.235821	-0.628358	0.198333	-0.047647	-0.008552	0.004887
180	30.648865	0.163727	-10.006200	0.000000	1.177200	0.235821	-0.628358	0.200000	-0.039095	-0.010996	0.019548
181	30.777954	0.132843	-10.006200	0.000000	1.059480	0.235821	-0.626866	0.198333	-0.045204	-0.006109	0.013439
182	30.907013	0.181915	-10.006200	-0.117720	1.177200	0.234328	-0.626866	0.200000	-0.036652	-0.009774	0.013439
183	31.036041	0.150970	-10.006200	0.000000	1.177200	0.235821	-0.629851	0.198333	-0.036652	-0.013439	0.017104
184	31.165100	0.200043	-10.123920	-0.235440	1.177200	0.237313	-0.628358	0.198333	-0.041539	-0.010996	0.013439
185	31.294159	0.169128	-10.123920	0.000000	1.059480	0.237313	-0.626866	0.198333	-0.051313	-0.009774	0.017104
186	31.423218	0.138214	-10.123920	-0.117720	1.294920	0.235821	-0.628358	0.196667	-0.039095	-0.013439	0.010996
187	31.552246	0.187256	-10.123920	0.000000	1.059480	0.234328	-0.626866	0.198333	-0.032987	-0.015882	0.015882
188	31.681305	0.156342	-10.123920	0.000000	1.177200	0.235821	-0.629851	0.200000	-0.045204	-0.009774	0.014661
189	31.810364	0.205414	-10.123920	0.000000	1.059480	0.234328	-0.626866	0.198333	-0.045204	-0.009774	0.017104
190	31.939423	0.174500	-10.123920	0.000000	1.177200	0.235821	-0.625373	0.196667	-0.034208	-0.015882	0.015882
191	32.068451	0.143555	-10.123920	-0.117720	1.177200	0.237313	-0.629851	0.195000	-0.041539	-0.013439	0.014661
192	32.197510	0.190979	-10.006200	0.000000	1.177200	0.235821	-0.628358	0.198333	-0.048869	-0.008552	0.013439
193	32.326569	0.161713	-10.006200	0.000000	1.059480	0.235821	-0.626866	0.198333	-0.032987	-0.013439	0.008552
194	32.455597	0.130768	-10.006200	0.000000	1.177200	0.234328	-0.629851	0.198333	-0.036652	-0.013439	0.017104
195	32.584656	0.179840	-10.241640	-0.235440	1.177200	0.235821	-0.628358	0.198333	-0.039095	-0.013439	0.013439
196	32.713715	0.148926	-10.006200	0.000000	1.059480	0.235821	-0.629851	0.198333	-0.036652	-0.013439	0.014661
197	32.842743	0.197968	-10.123920	0.000000	1.412640	0.235821	-0.628358	0.198333	-0.045204	-0.009774	0.014661
198	32.971802	0.167053	-10.123920	0.000000	1.177200	0.235821	-0.625373	0.198333	-0.040317	-0.008552	0.007330
199	33.100861	0.136139	-10.006200	0.000000	1.294920	0.235821	-0.626866	0.198333	-0.042761	-0.008552	0.017104
200	33.229889	0.185181	-10.241640	0.000000	1.412640	0.232836	-0.628358	0.198333	-0.034208	-0.013439	0.015882
201	33.358948	0.154266	-10.123920	-0.117720	1.177200	0.234328	-0.626866	0.200000	-0.050091	-0.008552	0.014661
202	33.488007	0.203339	-10.123920	-0.117720	0.941760	0.237313	-0.628358	0.200000	-0.035430	-0.010996	0.018326
203	33.617126	0.172485	-10.123920	-0.117720	1.177200	0.235821	-0.626866	0.196667	-0.048869	-0.008552	0.015882
204	33.746185	0.141571	-10.123920	0.000000	1.294920	0.235821	-0.628358	0.200000	-0.037874	-0.010996	0.015882
205	33.875244	0.190643	-10.006200	0.000000	1.177200	0.234328	-0.628358	0.200000	-0.041539	-0.007330	0.010996
206	34.004303	0.159729	-10.123920	-0.117720	1.294920	0.235821	-0.629851	0.198333	-0.047647	-0.012217	0.014661
207	34.133362	0.126465	-9.888480	0.000000	1.294920	0.234328	-0.629851	0.200000	-0.040317	-0.008552	0.013439
208	34.262390	0.177856	-10.006200	-0.117720	1.412640	0.234328	-0.625373	0.200000	-0.036652	-0.013439	0.019548
209	34.391449	0.146942	-10.006200	0.117720	1.177200	0.234328	-0.628358	0.198333	-0.047647	-0.012217	0.015882
210	34.520477	0.195984	-10.123920	0.000000	1.059480	0.234328	-0.626866	0.198333	-0.050091	-0.006109	0.009774
211	34.649506	0.165039	-10.006200	0.000000	1.294920	0.235821	-0.626866	0.198333	-0.037874	-0.015882	0.017104
212	34.778564	0.134125	-10.006200	-0.117720	1.294920	0.234328	-0.628358	0.198333	-0.040317	-0.013439	0.014661
213	34.907623	0.183197	-10.123920	0.000000	1.059480	0.235821	-0.626866	0.196667	-0.034208	-0.013439	0.013439
214	35.036682	0.152283	-10.123920	-0.117720	1.059480	0.234328	-0.626866	0.198333	-0.041539	-0.009774	0.015882
215	35.165741	0.201355	-10.123920	0.000000	1.177200	0.235821	-0.628358	0.200000	-0.042761	-0.010996	0.017104
216	35.294800	0.170441	-10.123920	0.000000	1.177200	0.234328	-0.629851	0.196667	-0.034208	-0.009774	0.019548
217	35.423828	0.139496	-10.241640	0.000000	1.177200	0.234328	-0.629851	0.198333	-0.041539	-0.009774	0.015882
218	35.552887	0.188568	-10.241640	-0.117720	1.059480	0.234328	-0.626866	0.198333	-0.047647	-0.012217	0.009774
219	35.681946	0.157654	-10.006200	-0.117720	1.294920	0.234328	-0.626866	0.200000	-0.040317	-0.013439	0.007330
220	35.811005	0.126465	-10.123920	0.117720	1.412640	0.235821	-0.628358	0.200000	-0.036652	-0.008552	0.012217
221	35.940063	0.175812	-10.123920	0.000000	1.177200	0.234328	-0.628358	0.198333	-0.043982	-0.010996	0.010996
222	36.069092	0.144867	-10.123920	0.000000	1.059480	0.235821	-0.626866	0.198333	-0.043982	-0.008552	0.017104
223	36.198151	0.193939	-10.123920	0.000000	1.177200	0.234328	-0.628358	0.196667	-0.039095	-0.010996	0.013439
224	36.327209	0.163025	-10.006200	0.000000	1.059480	0.235821	-0.626866	0.200000	-0.039095	-0.010996	0.012217
225	36.456299	0.132141	-10.123920	-0.117720	1.059480	0.234328	-0.628358	0.198333	-0.045204	-0.006109	0.009774
226	36.585358	0.181213	-9.888480	0.000000	1.177200	0.234328	-0.626866	0.198333	-0.032987	-0.013439	0.010996
227	36.714417	0.150299	-10.123920	-0.117720	1.059480	0.235821	-0.626866	0.198333	-0.040317	-0.012217	0.008552
228	36.843506	0.199402	-10.006200	0.000000	0.941760	0.234328	-0.628358	0.200000	-0.037874	-0.013439	0.010996
229	36.972565	0.168488	-10.123920	-0.117720	1.177200	0.235821	-0.626866	0.200000	-0.041539	-0.008552	0.017104
230	37.101654	0.137604	-10.123920	-0.117720	1.412640	0.235821	-0.626866	0.198333	-0.046426	-0.008552	0.019548
231	37.230652	0.186615	-10.006200	0.000000	1.294920	0.235821	-0.629851	0.200000	-0.041539	-0.009774	0.017104
232	37.359711	0.155701	-10.006200	-0.117720	1.412640	0.234328	-0.626866	0.200000	-0.034208	-0.013439	0.017104
233	37.488770	0.204773	-9.888480	0.000000	1.294920	0.234328	-0.626866	0.198333	-0.039095	-0.009774	0.013439
234	37.617828	0.173859	-10.123920	0.000000	1.059480	0.234328	-0.626866	0.198333	-0.046426	-0.012217	0.015882
235	37.746887	0.142944	-10.006200	-0.117720	1.177200	0.235821	-0.626866	0.198333	-0.032987	-0.009774	0.014661
236	37.875977	0.191010	-10.123920	-0.117720	1.177200	0.234328	-0.628358	0.198333	-0.041539	-0.010996	0.014661
237	38.005066	0.161163	-10.006200	-0.117720	1.294920	0.235821	-0.626866	0.196667	-0.037874	-0.007330	0.009774
238	38.134155	0.130280	-10.123920	0.000000	1.059480	0.235821	-0.628358	0.196667	-0.051313	-0.004887	0.015882
239	38.263245	0.179382	-9.888480	-0.235440	1.294920	0.235821	-0.629851	0.198333	-0.032987	-0.012217	0.012217
240	38.392334	0.148499	-10.123920	0.000000	1.177200	0.234328	-0.628358	0.196667	-0.039095	-0.009774	0.012217
241	38.521454	0.197632	-10.006200	0.000000	1.294920	0.234328	-0.626866	0.196667	-0.045204	-0.015882	0.013439
242	38.650543	0.166748	-10.241640	0.000000	1.059480	0.234328	-0.628358	0.198333	-0.039095	-0.008552	0.009774
243	38.779633	0.135864	-10.241640	-0.117720	1.177200	0.235821	-0.626866	0.200000	-0.043982	-0.007330	0.014661
244	38.908691	0.184937	-10.006200	0.000000	1.412640	0.234328	-0.626866	0.198333	-0.039095	-0.014661	0.007330
245	39.037781	0.154053	-10.123920	-0.117720	1.059480	0.234328	-0.628358	0.198333	-0.047647	-0.007330	0.007330
246	39.166840	0.203125	-10.006200	0.000000	1.059480	0.234328	-0.626866	0.200000	-0.040317	-0.007330	0.012217
247	39.295929	0.172241	-10.006200	0.000000	1.059480	0.234328	-0.629851	0.200000	-0.035430	-0.009774	0.010996
248	39.425018	0.141357	-10.006200	0.000000	1.294920	0.235821	-0.626866	0.198333	-0.037874	-0.012217	0.014661
249	39.554047	0.190399	-10.006200	0.000000	1.294920	0.234328	-0.628358	0.198333	-0.029322	-0.014661	0.009774
250	39.683136	0.159515	-10.123920	-0.117720	1.294920	0.234328	-0.628358	0.200000	-0.046426	-0.009774	0.012217
251	39.812225	0.126495	-10.006200	0.000000	1.059480	0.235821	-0.626866	0.196667	-0.036652	-0.009774	0.012217
252	39.941315	0.177734	-10.123920	0.235440	1.177200	0.234328	-0.628358	0.200000	-0.041539	-0.010996	0.014661
253	40.070404	0.146851	-10.241640	-0.117720	1.294920	0.234328	-0.625373	0.200000	-0.043982	-0.012217	0.023213
254	40.199493	0.195953	-10.006200	0.000000	1.059480	0.232836	-0.626866	0.196667	-0.042761	-0.013439	0.012217
255	40.328583	0.165070	-9.888480	-0.117720	1.294920	0.232836	-0.626866	0.198333	-0.043982	-0.012217	0.017104
256	40.457672	0.134186	-10.006200	0.000000	1.059480	0.235821	-0.626866	0.198333	-0.036652	-0.010996	0.006109
257	40.586792	0.183319	-10.006200	0.000000	1.177200	0.234328	-0.628358	0.200000	-0.042761	-0.009774	0.019548
258	40.715912	0.152466	-9.770760	-0.117720	1.059480	0.235821	-0.626866	0.196667	-0.042761	-0.009774	0.010996
259	40.845001	0.201569	-10.006200	0.000000	1.177200	0.232836	-0.628358	0.198333	-0.039095	-0.007330	0.014661
260	40.974121	0.170715	-10.123920	0.000000	1.059480	0.234328	-0.628358	0.201667	-0.036652	-0.009774	0.010996
261	41.103210	0.139832	-10.123920	-0.117720	1.177200	0.235821	-0.626866	0.200000	-0.046426	-0.013439	0.008552
262	41.232330	0.188965	-10.006200	0.000000	1.177200	0.235821	-0.628358	0.198333	-0.035430	-0.012217	0.013439
263	41.361420	0.158081	-10.241640	0.000000	1.294920	0.234328	-0.629851	0.198333	-0.034208	-0.009774	0.017104
264	41.490540	0.126526	-9.770760	0.000000	1.177200	0.234328	-0.626866	0.200000	-0.039095	-0.009774	0.012217
265	41.619598	0.176300	-10.123920	-0.117720	1.412640	0.234328	-0.626866	0.196667	-0.031765	-0.012217	0.015882
266	41.748657	0.145386	-10.123920	-0.117720	1.177200	0.234328	-0.625373	0.200000	-0.036652	-0.014661	0.018326
267	41.877716	0.194458	-10.123920	0.000000	1.294920	0.235821	-0.626866	0.200000	-0.046426	-0.007330	0.014661
268	42.006805	0.163574	-10.123920	0.000000	1.294920	0.232836	-0.628358	0.200000	-0.052534	-0.010996	0.013439
269	42.135864	0.132660	-10.241640	0.000000	0.941760	0.234328	-0.625373	0.198333	-0.039095	-0.012217	0.018326
270	42.264923	0.181732	-10.123920	0.000000	1.059480	0.235821	-0.626866	0.200000	-0.047647	-0.010996	0.009774
271	42.393982	0.150818	-10.006200	-0.117720	1.177200	0.234328	-0.629851	0.200000	-0.036652	-0.009774	0.024435
272	42.523041	0.199890	-10.123920	0.000000	1.177200	0.234328	-0.625373	0.198333	-0.040317	-0.008552	0.010996
273	42.652130	0.169006	-9.888480	0.000000	1.059480	0.235821	-0.626866	0.201667	-0.040317	-0.014661	0.007330
274	42.781219	0.138123	-10.123920	-0.235440	1.412640	0.235821	-0.625373	0.200000	-0.041539	-0.013439	0.008552
275	42.910309	0.187225	-10.123920	0.000000	1.177200	0.234328	-0.625373	0.200000	-0.039095	-0.012217	0.012217
276	43.039398	0.156342	-10.123920	0.000000	1.177200	0.234328	-0.628358	0.198333	-0.050091	-0.010996	0.013439
277	43.168457	0.205414	-10.123920	0.000000	1.177200	0.234328	-0.629851	0.200000	-0.043982	-0.012217	0.013439
278	43.297546	0.174530	-10.123920	0.000000	0.941760	0.237313	-0.628358	0.196667	-0.040317	-0.010996	0.012217
279	43.426605	0.143616	-10.123920	0.000000	1.177200	0.235821	-0.626866	0.200000	-0.045204	-0.012217	0.013439
280	43.555664	0.190979	-10.241640	-0.235440	1.177200	0.237313	-0.625373	0.200000	-0.034208	-0.010996	0.015882
281	43.684753	0.161804	-10.006200	0.000000	1.294920	0.235821	-0.626866	0.196667	-0.039095	-0.013439	0.010996
282	43.813812	0.130890	-10.006200	0.000000	1.412640	0.234328	-0.625373	0.198333	-0.041539	-0.012217	0.018326
283	43.942902	0.179993	-10.123920	0.000000	1.059480	0.234328	-0.629851	0.200000	-0.047647	-0.006109	0.014661
284	44.071991	0.149109	-9.888480	-0.117720	1.059480	0.235821	-0.628358	0.200000	-0.032987	-0.012217	0.013439
285	44.201080	0.198212	-10.006200	-0.117720	1.177200	0.235821	-0.626866	0.198333	-0.046426	-0.013439	0.012217
286	44.330200	0.167358	-10.123920	0.000000	1.177200	0.234328	-0.625373	0.198333	-0.042761	-0.012217	0.010996
287	44.459290	0.136475	-10.006200	0.000000	1.294920	0.237313	-0.626866	0.200000	-0.035430	-0.012217	0.020769
288	44.588379	0.185577	-10.123920	0.000000	1.294920	0.234328	-0.623881	0.196667	-0.042761	-0.009774	0.015882
289	44.717438	0.154663	-10.123920	-0.117720	1.059480	0.232836	-0.628358	0.200000	-0.040317	-0.013439	0.014661
290	44.846527	0.203766	-10.123920	0.000000	1.177200	0.232836	-0.625373	0.200000	-0.045204	-0.008552	0.012217
291	44.975677	0.172943	-10.241640	0.117720	1.059480	0.234328	-0.626866	0.198333	-0.041539	-0.014661	0.018326
292	45.104767	0.142059	-10.006200	-0.117720	0.824040	0.237313	-0.626866	0.198333	-0.029322	-0.013439	0.010996
293	45.233826	0.191010	-10.241640	0.000000	1.059480	0.234328	-0.625373	0.198333	-0.046426	-0.004887	0.012217
294	45.363708	0.161041	-10.123920	0.000000	1.059480	0.232836	-0.626866	0.198333	-0.025656	-0.013439	0.013439
295	45.492004	0.129364	-10.006200	0.000000	1.059480	0.234328	-0.628358	0.198333	-0.047647	-0.007330	0.008552
296	45.621094	0.178467	-10.123920	0.000000	1.059480	0.232836	-0.626866	0.198333	-0.041539	-0.006109	0.015882
297	45.750153	0.147552	-10.241640	0.000000	1.177200	0.235821	-0.625373	0.200000	-0.034208	-0.010996	0.012217
298	45.879303	0.196716	-10.006200	-0.117720	1.648080	0.234328	-0.626866	0.200000	-0.004887	-0.015882	0.015882
299	46.008392	0.165833	-10.123920	0.000000	1.412640	0.235821	-0.626866	0.201667	0.020769	-0.007330	0.004887
300	46.137512	0.134979	-10.006200	0.000000	1.648080	0.234328	-0.626866	0.208333	0.058643	-0.009774	0.001222
301	46.266602	0.184082	-10.006200	-0.117720	1.648080	0.234328	-0.626866	0.215000	0.116064	-0.009774	0.003665
302	46.395660	0.153168	-10.006200	-0.117720	2.001240	0.235821	-0.622388	0.230000	0.182038	-0.003665	-0.003665
303	46.524719	0.202240	-10.006200	-0.235440	2.001240	0.235821	-0.616418	0.245000	0.280998	-0.001222	-0.007330
304	46.653809	0.171356	-10.123920	-0.353160	1.883520	0.235821	-0.601493	0.263333	0.343306	-0.001222	-0.013439
305	46.782959	0.140533	-10.123920	-0.588600	1.530360	0.235821	-0.588060	0.283333	0.377515	0.001222	-0.020769
306	46.912079	0.189667	-10.006200	-0.588600	1.530360	0.237313	-0.567164	0.301667	0.410501	0.000000	-0.025656
307	47.041168	0.158783	-10.006200	-0.470880	1.530360	0.235821	-0.546269	0.316667	0.428827	0.003665	-0.023213
308	47.170258	0.126495	-10.123920	-0.470880	1.059480	0.235821	-0.519403	0.333333	0.441045	-0.004887	-0.029322
309	47.299347	0.177002	-10.006200	-0.588600	0.941760	0.238806	-0.495522	0.346667	0.422719	-0.003665	-0.021991
310	47.428436	0.146118	-10.241640	-0.353160	1.059480	0.238806	-0.465672	0.353333	0.401949	0.000000	-0.028100
311	47.557556	0.195251	-10.123920	-0.353160	0.588600	0.243284	-0.440299	0.360000	0.379958	0.001222	-0.021991
312	47.686676	0.164398	-10.241640	-0.117720	0.706320	0.240299	-0.411940	0.356667	0.327424	-0.004887	-0.023213
313	47.815765	0.133514	-10.123920	-0.353160	0.588600	0.241791	-0.389552	0.356667	0.271224	-0.001222	-0.019548
314	47.944885	0.182648	-10.123920	0.000000	0.941760	0.243284	-0.371642	0.355000	0.238237	0.000000	-0.014661
315	48.073975	0.151764	-10.123920	-0.117720	0.824040	0.244776	-0.352239	0.350000	0.212581	-0.006109	-0.013439
316	48.203094	0.200897	-10.241640	0.000000	0.588600	0.246269	-0.334328	0.346667	0.164934	-0.002443	-0.004887
317	48.332184	0.170013	-10.241640	0.000000	0.588600	0.243284	-0.320896	0.340000	0.117286	-0.006109	-0.007330
318	48.461304	0.139160	-10.006200	-0.117720	0.824040	0.244776	-0.310448	0.338333	0.078191	-0.009774	-0.001222
319	48.590393	0.188263	-10.006200	0.000000	0.941760	0.247761	-0.302985	0.335000	0.036652	-0.008552	0.007330
320	48.719482	0.157379	-10.123920	0.000000	0.824040	0.246269	-0.295522	0.330000	0.024435	-0.014661	0.014661
321	48.848541	0.126465	-10.123920	0.000000	1.059480	0.249254	-0.291045	0.325000	-0.003665	-0.007330	0.006109
322	48.977631	0.175568	-10.241640	0.117720	1.177200	0.246269	-0.291045	0.325000	-0.012217	-0.017104	0.017104
323	49.106720	0.144684	-10.123920	0.000000	1.177200	0.246269	-0.289552	0.321667	-0.026878	-0.010996	0.006109
324	49.235840	0.193817	-10.241640	0.000000	1.294920	0.246269	-0.286567	0.323333	-0.026878	-0.006109	0.010996
325	49.364960	0.162964	-10.006200	0.000000	1.294920	0.250746	-0.286567	0.321667	-0.020769	-0.013439	0.014661
326	49.494080	0.132111	-9.888480	0.000000	1.177200	0.247761	-0.283582	0.321667	-0.034208	-0.012217	0.019548
327	49.623169	0.181213	-10.006200	0.117720	1.294920	0.250746	-0.285075	0.320000	-0.052534	-0.014661	0.013439
328	49.752289	0.150360	-10.123920	0.000000	1.412640	0.249254	-0.283582	0.321667	-0.052534	-0.009774	0.014661
329	49.881439	0.199524	-10.006200	-0.117720	1.412640	0.247761	-0.283582	0.323333	-0.045204	-0.012217	0.009774
330	50.010529	0.168640	-10.006200	0.000000	1.294920	0.247761	-0.288060	0.323333	-0.032987	-0.012217	0.015882
331	50.139618	0.137756	-10.006200	0.000000	1.177200	0.247761	-0.283582	0.321667	-0.045204	-0.006109	0.013439
332	50.268707	0.186859	-10.006200	0.000000	1.294920	0.247761	-0.285075	0.320000	-0.035430	-0.008552	0.013439
333	50.397858	0.156036	-10.006200	0.000000	1.412640	0.249254	-0.282090	0.320000	-0.031765	-0.008552	0.010996
334	50.526947	0.205139	-10.241640	0.000000	1.412640	0.247761	-0.283582	0.321667	-0.042761	-0.008552	0.013439
335	50.656067	0.174286	-10.006200	0.000000	1.059480	0.244776	-0.285075	0.321667	-0.050091	-0.009774	0.017104
336	50.785217	0.143463	-10.006200	0.000000	1.177200	0.249254	-0.285075	0.321667	-0.035430	-0.009774	0.012217
337	50.914307	0.191071	-10.006200	0.000000	1.177200	0.249254	-0.282090	0.320000	-0.037874	-0.008552	0.007330
338	51.043427	0.161713	-10.123920	0.000000	1.412640	0.247761	-0.285075	0.323333	-0.040317	-0.009774	0.018326
339	51.172546	0.130859	-10.123920	0.000000	1.294920	0.249254	-0.286567	0.321667	-0.043982	-0.010996	0.013439
340	51.301666	0.179993	-10.241640	0.000000	1.294920	0.247761	-0.283582	0.321667	-0.041539	-0.010996	0.012217
341	51.430786	0.149139	-9.888480	0.000000	1.177200	0.249254	-0.283582	0.320000	-0.039095	-0.006109	0.010996
342	51.559875	0.198242	-10.006200	0.000000	1.294920	0.249254	-0.285075	0.320000	-0.042761	-0.012217	0.007330
343	51.688965	0.167358	-10.006200	0.000000	1.177200	0.246269	-0.285075	0.321667	-0.046426	-0.012217	0.009774
344	51.818085	0.136505	-10.006200	0.000000	1.294920	0.249254	-0.283582	0.321667	-0.030543	-0.012217	0.013439
345	51.947205	0.185638	-10.006200	0.000000	1.412640	0.249254	-0.283582	0.318333	-0.030543	-0.014661	0.014661
346	52.076294	0.154755	-10.006200	-0.117720	1.294920	0.249254	-0.285075	0.321667	-0.042761	-0.014661	0.010996
347	52.205414	0.203888	-10.123920	0.000000	1.294920	0.247761	-0.283582	0.321667	-0.042761	-0.014661	0.013439
348	52.334503	0.173004	-10.006200	0.117720	1.294920	0.247761	-0.288060	0.323333	-0.048869	-0.009774	0.010996
349	52.463654	0.142181	-10.123920	0.000000	1.177200	0.249254	-0.283582	0.323333	-0.050091	-0.008552	0.018326
350	52.592712	0.191040	-10.006200	0.000000	1.177200	0.247761	-0.283582	0.323333	-0.039095	-0.012217	0.013439
351	52.722473	0.161041	-10.123920	0.000000	1.294920	0.247761	-0.286567	0.321667	-0.051313	-0.008552	0.020769
352	52.850891	0.129486	-10.123920	0.000000	1.294920	0.247761	-0.285075	0.321667	-0.035430	-0.010996	0.017104
353	52.979980	0.178589	-10.241640	0.000000	1.177200	0.246269	-0.285075	0.323333	-0.040317	-0.009774	0.017104
354	53.109100	0.147736	-10.006200	-0.117720	1.177200	0.247761	-0.285075	0.323333	-0.052534	-0.008552	0.014661
355	53.238190	0.196838	-10.123920	0.000000	1.412640	0.247761	-0.285075	0.320000	-0.035430	-0.012217	0.009774
356	53.367310	0.165985	-10.123920	0.000000	1.294920	0.247761	-0.285075	0.321667	-0.043982	-0.013439	0.014661
357	53.496399	0.135101	-10.123920	0.000000	1.177200	0.246269	-0.285075	0.321667	-0.043982	-0.007330	0.018326
358	53.625519	0.184235	-10.006200	0.000000	1.177200	0.246269	-0.282090	0.323333	-0.032987	-0.007330	0.008552
359	53.754639	0.153381	-10.123920	0.000000	1.294920	0.246269	-0.286567	0.320000	-0.036652	-0.015882	0.012217
360	53.883728	0.202484	-10.123920	0.000000	1.530360	0.249254	-0.283582	0.321667	-0.041539	-0.012217	0.019548
361	54.012848	0.171631	-10.123920	-0.117720	1.059480	0.249254	-0.285075	0.320000	-0.042761	-0.010996	0.015882
362	54.141907	0.140717	-10.006200	0.000000	1.412640	0.247761	-0.283582	0.321667	-0.039095	-0.010996	0.013439
363	54.270996	0.189819	-9.888480	-0.117720	1.294920	0.246269	-0.285075	0.321667	-0.041539	-0.012217	0.015882
364	54.400085	0.158936	-10.006200	-0.117720	1.412640	0.247761	-0.283582	0.320000	-0.032987	-0.014661	0.012217
365	54.529205	0.126495	-10.123920	0.000000	1.294920	0.249254	-0.285075	0.320000	-0.045204	-0.009774	0.019548
366	54.658325	0.177216	-10.241640	-0.117720	1.294920	0.247761	-0.283582	0.321667	-0.047647	-0.010996	0.017104
367	54.787445	0.146362	-10.241640	0.000000	1.412640	0.247761	-0.285075	0.323333	-0.042761	-0.008552	0.013439
368	54.916565	0.195496	-10.123920	0.000000	1.177200	0.247761	-0.283582	0.320000	-0.041539	-0.012217	0.010996
369	55.045685	0.164642	-10.006200	-0.117720	1.059480	0.249254	-0.286567	0.321667	-0.056200	-0.012217	0.015882
370	55.174744	0.133728	-10.123920	0.000000	1.177200	0.247761	-0.286567	0.321667	-0.058643	-0.013439	0.013439
371	55.303864	0.182861	-10.241640	0.000000	1.177200	0.247761	-0.288060	0.323333	-0.061087	-0.010996	0.014661
372	55.432953	0.151978	-10.241640	0.000000	1.412640	0.250746	-0.288060	0.325000	-0.048869	-0.012217	0.015882
373	55.562042	0.201080	-10.123920	0.000000	1.294920	0.247761	-0.289552	0.326667	-0.040317	-0.008552	0.013439
374	55.691132	0.170197	-10.006200	-0.117720	0.470880	0.249254	-0.288060	0.326667	-0.098960	-0.009774	0.015882
375	55.820190	0.139282	-10.123920	0.000000	0.706320	0.246269	-0.295522	0.328333	-0.161268	-0.012217	0.024435
376	55.949280	0.188385	-10.123920	-0.117720	0.588600	0.246269	-0.307463	0.336667	-0.238237	-0.015882	0.028100
377	56.078369	0.157501	-10.006200	-0.117720	0.588600	0.244776	-0.320896	0.341667	-0.280998	-0.020769	0.034208
378	56.207428	0.126465	-10.241640	-0.117720	0.588600	0.244776	-0.341791	0.346667	-0.345750	-0.019548	0.037874
379	56.336487	0.175659	-10.123920	-0.353160	0.588600	0.241791	-0.362687	0.353333	-0.404393	-0.021991	0.043982
380	56.465546	0.144745	-10.123920	-0.353160	0.706320	0.241791	-0.388060	0.356667	-0.442266	-0.024435	0.047647
381	56.594635	0.193848	-10.123920	-0.470880	0.941760	0.240299	-0.410448	0.358333	-0.485027	-0.024435	0.052534
382	56.723755	0.162994	-10.123920	-0.470880	1.059480	0.238806	-0.440299	0.356667	-0.496023	-0.024435	0.056200
383	56.852844	0.132111	-10.006200	-0.588600	1.177200	0.238806	-0.470149	0.353333	-0.505796	-0.032987	0.053756
384	56.981995	0.181274	-10.006200	-0.706320	1.412640	0.238806	-0.497015	0.341667	-0.500909	-0.025656	0.054978
385	57.111084	0.150391	-10.241640	-0.470880	1.412640	0.237313	-0.520896	0.331667	-0.483805	-0.025656	0.048869
386	57.240204	0.199524	-10.123920	-0.470880	1.294920	0.235821	-0.549254	0.316667	-0.465479	-0.025656	0.047647
387	57.369293	0.168640	-10.006200	-0.235440	1.530360	0.232836	-0.565672	0.300000	-0.445932	-0.024435	0.054978
388	57.498383	0.137756	-10.123920	-0.470880	1.648080	0.235821	-0.585075	0.283333	-0.406836	-0.021991	0.051313
389	57.627472	0.186859	-9.888480	-0.235440	1.765800	0.235821	-0.600000	0.266667	-0.368963	-0.018326	0.043982
390	57.756592	0.156006	-10.006200	-0.235440	1.648080	0.234328	-0.611940	0.248333	-0.342085	-0.018326	0.040317
391	57.885742	0.205170	-10.123920	-0.117720	2.001240	0.235821	-0.620896	0.235000	-0.276111	-0.014661	0.039095
392	58.014862	0.174316	-9.888480	-0.117720	2.354400	0.234328	-0.623881	0.220000	-0.174707	-0.014661	0.036652
393	58.143982	0.143463	-9.888480	0.000000	1.883520	0.232836	-0.626866	0.210000	-0.089186	-0.014661	0.018326
394	58.273041	0.191040	-10.123920	0.000000	1.294920	0.234328	-0.628358	0.211667	-0.080634	-0.015882	0.020769
395	58.402161	0.161682	-10.123920	0.000000	1.294920	0.234328	-0.626866	0.203333	-0.064752	-0.007330	0.017104
396	58.531250	0.130798	-9.888480	-0.117720	1.177200	0.234328	-0.628358	0.203333	-0.053756	-0.017104	0.020769
397	58.660370	0.179932	-10.123920	0.000000	0.941760	0.234328	-0.626866	0.203333	-0.067195	-0.008552	0.014661
398	58.789459	0.149048	-10.241640	0.000000	1.412640	0.232836	-0.628358	0.201667	-0.062308	-0.015882	0.010996
399	58.918549	0.198151	-10.006200	-0.235440	1.177200	0.232836	-0.626866	0.198333	-0.058643	-0.013439	0.014661
400	59.047668	0.167297	-9.888480	-0.117720	1.530360	0.232836	-0.626866	0.198333	-0.046426	-0.014661	0.017104
401	59.176727	0.136383	-10.123920	0.000000	-0.353160	0.235821	-0.625373	0.198333	-0.041539	-0.018326	-0.006109
402	59.305847	0.185516	-10.006200	0.000000	1.530360	0.232836	-0.628358	0.198333	-0.042761	-0.006109	0.017104
403	59.434937	0.154633	-10.006200	0.000000	1.294920	0.234328	-0.625373	0.200000	-0.037874	-0.010996	0.015882
404	59.564056	0.203766	-10.123920	-0.117720	1.177200	0.232836	-0.626866	0.198333	-0.032987	-0.010996	0.017104
405	59.693146	0.172882	-10.123920	0.000000	0.941760	0.235821	-0.625373	0.196667	-0.048869	-0.007330	0.013439
406	59.822266	0.142029	-10.241640	0.000000	1.177200	0.235821	-0.623881	0.198333	-0.037874	-0.008552	0.010996
407	59.951355	0.191040	-10.123920	-0.117720	1.177200	0.234328	-0.626866	0.200000	-0.039095	-0.012217	0.013439
408	60.081238	0.161041	-10.123920	0.000000	1.177200	0.234328	-0.625373	0.198333	-0.048869	-0.008552	0.013439
409	60.209534	0.129364	-10.123920	0.000000	1.177200	0.234328	-0.626866	0.198333	-0.040317	-0.018326	0.009774
410	60.338623	0.178467	-10.123920	0.000000	1.294920	0.235821	-0.626866	0.196667	-0.041539	-0.004887	0.018326
411	60.467682	0.147552	-10.123920	0.000000	1.177200	0.232836	-0.625373	0.201667	-0.037874	-0.012217	0.014661
412	60.596771	0.196655	-10.123920	-0.235440	1.294920	0.234328	-0.626866	0.198333	-0.036652	-0.012217	0.010996
413	60.725891	0.165802	-10.006200	0.000000	1.294920	0.234328	-0.626866	0.196667	-0.034208	-0.009774	0.015882
414	60.855011	0.134949	-10.123920	0.000000	1.294920	0.235821	-0.625373	0.200000	-0.045204	-0.008552	0.015882
415	60.984131	0.184082	-10.123920	0.000000	1.177200	0.235821	-0.628358	0.200000	-0.046426	-0.012217	0.012217
416	61.113251	0.153229	-10.241640	0.000000	1.294920	0.235821	-0.625373	0.196667	-0.047647	-0.006109	0.017104
417	61.242340	0.202332	-10.006200	0.000000	1.177200	0.234328	-0.626866	0.198333	-0.035430	-0.009774	0.013439
418	61.371429	0.171448	-10.123920	0.000000	1.059480	0.235821	-0.625373	0.198333	-0.042761	-0.006109	0.010996
419	61.500488	0.140533	-10.123920	0.000000	1.059480	0.234328	-0.625373	0.196667	-0.042761	-0.014661	0.012217
420	61.629578	0.189636	-10.123920	0.000000	1.294920	0.234328	-0.626866	0.198333	-0.040317	-0.013439	0.014661
421	61.758667	0.158752	-10.123920	-0.117720	1.294920	0.232836	-0.625373	0.198333	-0.034208	-0.010996	0.012217
422	61.887756	0.126495	-10.241640	0.000000	1.177200	0.235821	-0.628358	0.198333	-0.047647	-0.010996	0.015882
423	62.016815	0.176941	-10.006200	0.000000	1.059480	0.234328	-0.625373	0.198333	-0.036652	-0.013439	0.012217
424	62.145966	0.146118	-10.006200	0.000000	1.412640	0.234328	-0.626866	0.198333	-0.039095	-0.013439	0.015882
425	62.275085	0.195251	-10.123920	0.000000	1.294920	0.234328	-0.625373	0.200000	-0.046426	-0.010996	0.013439
426	62.404205	0.164398	-10.006200	0.000000	1.177200	0.234328	-0.625373	0.200000	-0.034208	-0.010996	0.019548
427	62.533356	0.133575	-10.006200	0.000000	1.177200	0.232836	-0.626866	0.198333	-0.048869	-0.008552	0.009774
428	62.662506	0.182739	-10.123920	0.000000	1.177200	0.234328	-0.625373	0.200000	-0.047647	-0.009774	0.012217
429	62.791626	0.151886	-10.006200	0.000000	1.294920	0.232836	-0.625373	0.200000	-0.035430	-0.013439	0.008552
430	62.920776	0.201050	-10.123920	-0.117720	1.177200	0.232836	-0.625373	0.196667	-0.031765	-0.007330	0.012217
431	63.049896	0.170197	-10.241640	0.000000	1.177200	0.235821	-0.626866	0.200000	-0.037874	-0.008552	0.006109
432	63.178986	0.139313	-10.123920	0.000000	1.177200	0.235821	-0.625373	0.198333	-0.045204	-0.009774	0.015882
433	63.308105	0.188446	-9.888480	0.000000	1.177200	0.235821	-0.628358	0.198333	-0.042761	-0.008552	0.017104
434	63.437225	0.157593	-10.006200	0.000000	1.294920	0.234328	-0.626866	0.198333	-0.040317	-0.012217	0.019548
435	63.566315	0.126495	-10.123920	0.000000	1.294920	0.232836	-0.623881	0.198333	-0.041539	-0.015882	0.008552
436	63.695435	0.175842	-10.006200	0.000000	1.177200	0.234328	-0.626866	0.201667	-0.043982	-0.004887	0.008552
437	63.824554	0.144989	-10.006200	-0.117720	1.177200	0.232836	-0.626866	0.200000	-0.041539	-0.012217	0.013439
438	63.953674	0.194122	-10.006200	-0.117720	1.177200	0.232836	-0.625373	0.198333	-0.036652	-0.010996	0.013439
439	64.082794	0.163269	-10.123920	0.000000	1.294920	0.234328	-0.628358	0.198333	-0.039095	-0.012217	0.014661
440	64.211914	0.132416	-10.123920	0.000000	1.177200	0.235821	-0.625373	0.200000	-0.046426	-0.010996	0.017104
441	64.341034	0.181549	-10.123920	0.117720	1.294920	0.234328	-0.623881	0.198333	-0.050091	-0.008552	0.012217
442	64.470154	0.150696	-10.241640	0.000000	1.059480	0.232836	-0.625373	0.198333	-0.035430	-0.010996	0.010996
443	64.599243	0.199799	-10.123920	0.000000	1.294920	0.234328	-0.625373	0.200000	-0.039095	-0.013439	0.009774
444	64.728363	0.168945	-10.123920	0.000000	1.294920	0.235821	-0.626866	0.198333	-0.048869	-0.008552	0.012217
445	64.857452	0.138062	-10.123920	0.000000	1.294920	0.235821	-0.623881	0.198333	-0.041539	-0.013439	0.008552
446	64.986603	0.187225	-10.123920	-0.117720	1.294920	0.234328	-0.625373	0.198333	-0.031765	-0.017104	0.015882
447	65.115692	0.156342	-10.123920	0.000000	1.059480	0.234328	-0.626866	0.200000	-0.045204	-0.009774	0.009774
448	65.244812	0.205475	-10.006200	0.000000	0.941760	0.234328	-0.625373	0.200000	-0.045204	-0.010996	0.013439
449	65.373932	0.174622	-10.006200	-0.117720	1.294920	0.234328	-0.625373	0.198333	-0.037874	-0.007330	0.013439
450	65.503052	0.143768	-10.123920	0.000000	1.059480	0.235821	-0.626866	0.196667	-0.041539	-0.013439	0.012217
451	65.632141	0.191071	-10.006200	0.000000	1.177200	0.232836	-0.625373	0.198333	-0.047647	-0.008552	0.020769
452	65.761230	0.161987	-10.123920	0.000000	1.294920	0.235821	-0.623881	0.200000	-0.030543	-0.010996	0.008552
453	65.890320	0.131104	-10.006200	-0.117720	1.294920	0.232836	-0.623881	0.198333	-0.041539	-0.012217	0.014661
454	66.019379	0.180176	-10.006200	0.000000	1.412640	0.234328	-0.623881	0.196667	-0.037874	-0.013439	0.015882
455	66.148468	0.149292	-10.006200	-0.117720	1.177200	0.235821	-0.625373	0.200000	-0.050091	-0.012217	0.008552
456	66.277557	0.198395	-10.123920	0.000000	1.059480	0.234328	-0.623881	0.198333	-0.039095	-0.010996	0.015882
457	66.406647	0.167511	-10.123920	0.000000	0.941760	0.232836	-0.623881	0.198333	-0.040317	-0.012217	0.010996
458	66.535767	0.136658	-10.123920	0.000000	1.177200	0.234328	-0.626866	0.200000	-0.040317	-0.012217	0.012217
459	66.664856	0.185760	-10.123920	0.117720	1.177200	0.234328	-0.625373	0.198333	-0.029322	-0.012217	0.012217
460	66.793976	0.154907	-10.241640	0.000000	1.177200	0.232836	-0.625373	0.200000	-0.046426	-0.014661	0.010996
461	66.923096	0.204041	-10.006200	-0.235440	1.177200	0.234328	-0.626866	0.198333	-0.047647	-0.007330	0.012217
462	67.052185	0.173157	-10.006200	0.000000	1.177200	0.234328	-0.626866	0.198333	-0.039095	-0.008552	0.008552
463	67.181274	0.142273	-10.006200	0.000000	1.412640	0.234328	-0.626866	0.200000	-0.043982	-0.008552	0.014661
464	67.310364	0.191040	-9.888480	0.000000	1.294920	0.234328	-0.625373	0.198333	-0.036652	-0.010996	0.008552
465	67.440002	0.161041	-10.006200	0.000000	1.177200	0.234328	-0.625373	0.198333	-0.045204	-0.009774	0.012217
466	67.568542	0.129608	-10.006200	0.000000	1.294920	0.234328	-0.626866	0.200000	-0.046426	-0.008552	0.018326
467	67.697662	0.178741	-10.123920	0.000000	1.530360	0.234328	-0.625373	0.196667	-0.037874	-0.012217	0.014661
468	67.826782	0.147888	-10.241640	0.000000	1.412640	0.235821	-0.625373	0.200000	-0.041539	-0.009774	0.015882
469	67.955872	0.196991	-10.241640	-0.117720	1.294920	0.235821	-0.625373	0.198333	-0.040317	-0.008552	0.014661
470	68.084991	0.166138	-10.006200	0.000000	1.177200	0.234328	-0.626866	0.198333	-0.035430	-0.006109	0.013439
471	68.214081	0.135254	-10.123920	0.000000	1.177200	0.234328	-0.628358	0.198333	-0.040317	-0.009774	0.021991
472	68.343201	0.184387	-10.006200	-0.117720	1.059480	0.234328	-0.625373	0.198333	-0.042761	-0.009774	0.014661
473	68.472290	0.153503	-9.888480	0.000000	1.177200	0.235821	-0.625373	0.200000	-0.039095	-0.010996	0.018326
474	68.601410	0.202637	-10.123920	0.000000	1.294920	0.235821	-0.626866	0.200000	-0.047647	-0.006109	0.018326
475	68.730530	0.171783	-10.123920	-0.235440	1.177200	0.234328	-0.625373	0.198333	-0.051313	-0.008552	0.021991
476	68.859619	0.140900	-9.888480	-0.117720	1.059480	0.234328	-0.626866	0.198333	-0.039095	-0.015882	0.009774
477	68.988739	0.190033	-10.123920	0.000000	1.294920	0.234328	-0.625373	0.200000	-0.037874	-0.008552	0.013439
478	69.117859	0.159180	-10.123920	0.000000	1.412640	0.234328	-0.623881	0.198333	-0.046426	-0.008552	0.013439
479	69.246979	0.126526	-10.006200	0.000000	1.294920	0.232836	-0.625373	0.196667	-0.041539	-0.010996	0.015882
480	69.376129	0.177490	-10.006200	0.000000	1.177200	0.232836	-0.626866	0.196667	-0.040317	-0.007330	0.015882
481	69.505219	0.146606	-9.888480	0.000000	1.177200	0.232836	-0.626866	0.198333	-0.039095	-0.010996	0.010996
482	69.634369	0.195770	-10.123920	0.000000	1.059480	0.232836	-0.625373	0.198333	-0.040317	-0.013439	0.012217
483	69.763519	0.164948	-10.006200	-0.117720	1.177200	0.232836	-0.626866	0.200000	-0.035430	-0.017104	0.014661
484	69.892670	0.134125	-10.123920	-0.117720	1.294920	0.232836	-0.626866	0.195000	-0.030543	-0.009774	0.012217
485	70.021759	0.183228	-10.006200	0.000000	1.059480	0.234328	-0.625373	0.198333	-0.032987	-0.009774	0.012217
486	70.150879	0.152374	-10.006200	0.000000	1.294920	0.232836	-0.625373	0.198333	-0.045204	-0.008552	0.018326
487	70.279968	0.201477	-10.123920	0.000000	1.177200	0.232836	-0.625373	0.200000	-0.037874	-0.012217	0.015882
488	70.409088	0.170624	-10.123920	0.000000	0.941760	0.234328	-0.623881	0.198333	-0.042761	-0.006109	0.012217
489	70.538177	0.139740	-10.123920	0.000000	1.294920	0.234328	-0.623881	0.196667	-0.037874	-0.010996	0.020769
490	70.667267	0.188843	-10.241640	0.000000	1.059480	0.234328	-0.626866	0.198333	-0.039095	-0.010996	0.009774
491	70.796356	0.157959	-10.006200	0.000000	1.177200	0.232836	-0.625373	0.200000	-0.042761	-0.009774	0.010996
492	70.925476	0.126526	-10.123920	0.000000	1.177200	0.234328	-0.625373	0.200000	-0.032987	-0.010996	0.012217
493	71.054596	0.176239	-10.123920	0.000000	1.177200	0.234328	-0.625373	0.198333	-0.031765	-0.012217	0.015882
494	71.183716	0.145386	-10.123920	0.000000	1.294920	0.234328	-0.625373	0.198333	-0.039095	-0.008552	0.001222
495	71.312805	0.194489	-10.006200	-0.117720	1.059480	0.232836	-0.626866	0.200000	-0.047647	-0.014661	0.012217
496	71.441895	0.163605	-10.006200	0.000000	1.059480	0.234328	-0.626866	0.200000	-0.036652	-0.015882	0.017104
497	71.570984	0.132721	-10.006200	0.000000	1.177200	0.234328	-0.626866	0.198333	-0.041539	-0.009774	0.013439
498	71.700104	0.181854	-10.123920	0.000000	1.059480	0.232836	-0.626866	0.196667	-0.035430	-0.013439	0.013439
499	71.829224	0.151001	-9.888480	-0.117720	1.177200	0.234328	-0.626866	0.198333	-0.034208	-0.017104	0.013439
500	71.958313	0.200104	-10.123920	0.000000	1.412640	0.232836	-0.628358	0.201667	-0.029322	-0.015882	0.007330
501	72.087494	0.169312	-10.123920	0.000000	1.530360	0.234328	-0.626866	0.200000	-0.003665	-0.009774	0.014661
502	72.216614	0.138458	-10.123920	-0.117720	1.883520	0.232836	-0.625373	0.203333	0.045204	-0.010996	0.017104
503	72.345734	0.187592	-9.888480	-0.117720	2.001240	0.232836	-0.626866	0.213333	0.128282	-0.006109	-0.001222
504	72.474823	0.156708	-9.888480	-0.117720	2.118960	0.234328	-0.620896	0.226667	0.212581	-0.004887	-0.001222
505	72.603943	0.205841	-10.006200	-0.353160	1.883520	0.234328	-0.616418	0.241667	0.287107	-0.002443	-0.009774
506	72.733093	0.175018	-9.888480	-0.353160	1.765800	0.234328	-0.602985	0.261667	0.340863	0.000000	-0.015882
507	72.862183	0.144135	-10.006200	-0.588600	1.412640	0.235821	-0.586567	0.280000	0.370184	0.000000	-0.020769
508	72.991302	0.191071	-10.006200	-0.353160	1.294920	0.235821	-0.568657	0.298333	0.389732	-0.008552	-0.021991
509	73.120392	0.162384	-9.770760	-0.353160	1.177200	0.237313	-0.544776	0.316667	0.383623	-0.001222	-0.019548
510	73.249512	0.131531	-10.241640	-0.470880	1.412640	0.237313	-0.525373	0.328333	0.370184	0.000000	-0.021991
511	73.378662	0.180695	-10.123920	-0.353160	1.059480	0.235821	-0.501493	0.338333	0.360410	0.001222	-0.026878
512	73.507812	0.149872	-10.241640	-0.235440	0.941760	0.238806	-0.477612	0.351667	0.327424	0.001222	-0.023213
513	73.636963	0.199036	-10.006200	-0.353160	1.059480	0.238806	-0.456716	0.355000	0.305433	0.003665	-0.020769
514	73.766113	0.168213	-10.123920	-0.117720	0.706320	0.240299	-0.435821	0.356667	0.272446	-0.002443	-0.017104
515	73.895264	0.137390	-10.006200	-0.235440	0.824040	0.240299	-0.414925	0.358333	0.230907	-0.004887	-0.010996
516	74.024414	0.186554	-10.359360	-0.235440	0.824040	0.240299	-0.398507	0.358333	0.197920	-0.007330	-0.009774
517	74.153564	0.155731	-10.123920	-0.117720	0.941760	0.243284	-0.382090	0.355000	0.163712	-0.003665	-0.004887
518	74.282745	0.204926	-10.123920	-0.117720	0.941760	0.240299	-0.368657	0.353333	0.130725	-0.002443	0.000000
519	74.411865	0.174072	-10.123920	0.000000	0.824040	0.241791	-0.359701	0.353333	0.098960	-0.006109	-0.002443
520	74.540985	0.143219	-10.006200	0.000000	0.941760	0.241791	-0.350746	0.350000	0.062308	-0.004887	0.000000
521	74.670105	0.191071	-10.123920	0.000000	1.177200	0.241791	-0.341791	0.346667	0.045204	-0.014661	0.009774
522	74.799225	0.161499	-10.123920	0.000000	1.059480	0.243284	-0.338806	0.346667	0.024435	-0.004887	0.006109
523	74.928345	0.130646	-10.123920	0.000000	1.177200	0.243284	-0.332836	0.346667	0.003665	-0.006109	0.007330
524	75.057465	0.179779	-10.123920	0.000000	1.294920	0.243284	-0.332836	0.345000	-0.008552	-0.006109	0.013439
525	75.186584	0.148926	-10.123920	0.000000	1.294920	0.244776	-0.329851	0.345000	-0.009774	-0.009774	0.007330
526	75.315674	0.198029	-10.123920	-0.117720	1.059480	0.243284	-0.328358	0.345000	-0.023213	-0.007330	0.008552
527	75.444855	0.167236	-10.123920	0.000000	1.177200	0.243284	-0.328358	0.345000	-0.032987	-0.012217	0.008552
528	75.573975	0.136383	-10.006200	0.000000	1.294920	0.243284	-0.325373	0.345000	-0.039095	-0.006109	0.014661
529	75.703094	0.185516	-10.123920	0.000000	1.177200	0.243284	-0.325373	0.345000	-0.045204	-0.017104	0.013439
530	75.832214	0.154663	-10.006200	-0.117720	1.294920	0.241791	-0.325373	0.345000	-0.041539	-0.007330	0.015882
531	75.961334	0.203796	-10.006200	0.000000	1.177200	0.244776	-0.326866	0.341667	-0.036652	-0.008552	0.008552
532	76.090485	0.172974	-10.006200	0.000000	1.177200	0.244776	-0.326866	0.341667	-0.031765	-0.012217	0.012217
533	76.219574	0.142090	-10.241640	0.000000	1.412640	0.246269	-0.325373	0.343333	-0.039095	-0.013439	0.015882
534	76.348694	0.191071	-10.241640	0.117720	1.177200	0.244776	-0.325373	0.341667	-0.046426	-0.004887	0.009774
535	76.478485	0.161041	-10.123920	0.000000	1.294920	0.244776	-0.325373	0.345000	-0.039095	-0.012217	0.013439
536	76.606903	0.129486	-10.006200	0.000000	1.294920	0.243284	-0.322388	0.341667	-0.037874	-0.012217	0.018326
537	76.735992	0.178589	-10.006200	0.000000	1.177200	0.244776	-0.323881	0.341667	-0.050091	-0.008552	0.009774
538	76.865112	0.147736	-10.123920	0.000000	1.294920	0.244776	-0.325373	0.345000	-0.042761	-0.006109	0.013439
539	76.994232	0.196869	-9.888480	0.000000	1.294920	0.244776	-0.325373	0.341667	-0.040317	-0.008552	0.010996
540	77.123352	0.166016	-10.123920	0.000000	1.177200	0.241791	-0.325373	0.343333	-0.042761	-0.009774	0.008552
541	77.252472	0.135162	-10.123920	0.000000	1.177200	0.246269	-0.328358	0.343333	-0.045204	-0.012217	0.010996
542	77.381592	0.184296	-10.006200	0.000000	1.294920	0.243284	-0.326866	0.341667	-0.045204	-0.013439	0.015882
543	77.510681	0.153412	-10.006200	0.000000	1.059480	0.243284	-0.326866	0.341667	-0.026878	-0.012217	0.010996
544	77.639832	0.202576	-10.006200	0.000000	1.059480	0.243284	-0.325373	0.343333	-0.025656	-0.008552	0.013439
545	77.768951	0.171722	-10.123920	0.000000	1.294920	0.244776	-0.325373	0.343333	-0.047647	-0.006109	0.017104
546	77.898102	0.140900	-10.006200	0.000000	1.294920	0.244776	-0.325373	0.343333	-0.051313	-0.010996	0.013439
547	78.027222	0.190033	-10.006200	0.000000	1.059480	0.244776	-0.325373	0.343333	-0.059865	-0.010996	0.017104
548	78.156342	0.159180	-10.123920	0.000000	1.412640	0.244776	-0.326866	0.343333	-0.036652	-0.012217	0.012217
549	78.285461	0.126526	-10.006200	-0.117720	1.177200	0.246269	-0.325373	0.343333	-0.032987	-0.012217	0.015882
550	78.414581	0.177460	-10.123920	0.000000	1.059480	0.244776	-0.326866	0.341667	-0.039095	-0.009774	0.012217
551	78.543732	0.146637	-10.006200	0.000000	0.941760	0.244776	-0.326866	0.343333	-0.086743	-0.015882	0.012217
552	78.672882	0.195801	-9.888480	0.000000	0.470880	0.244776	-0.329851	0.343333	-0.141721	-0.013439	0.017104
553	78.801971	0.164917	-10.006200	0.000000	0.588600	0.243284	-0.338806	0.350000	-0.215025	-0.015882	0.017104
554	78.931091	0.134064	-10.006200	0.000000	0.353160	0.240299	-0.350746	0.353333	-0.266337	-0.017104	0.030543
555	79.060211	0.183197	-10.241640	-0.117720	0.706320	0.243284	-0.365672	0.355000	-0.320093	-0.015882	0.036652
556	79.189331	0.152344	-10.006200	-0.353160	0.588600	0.240299	-0.386567	0.356667	-0.367741	-0.023213	0.041539
557	79.318451	0.201477	-10.123920	-0.117720	1.059480	0.240299	-0.408955	0.358333	-0.399506	-0.021991	0.041539
558	79.447601	0.170654	-10.241640	-0.353160	1.059480	0.240299	-0.428358	0.355000	-0.416610	-0.023213	0.051313
559	79.576691	0.139771	-10.006200	-0.470880	1.294920	0.237313	-0.453731	0.355000	-0.404393	-0.023213	0.042761
560	79.705811	0.188904	-10.123920	-0.353160	1.294920	0.237313	-0.474627	0.348333	-0.401949	-0.028100	0.046426
561	79.834900	0.158020	-10.123920	-0.117720	1.412640	0.237313	-0.497015	0.340000	-0.398284	-0.018326	0.043982
562	79.964050	0.126526	-10.123920	-0.235440	0.941760	0.237313	-0.517910	0.331667	-0.401949	-0.021991	0.050091
563	80.093201	0.176361	-9.888480	-0.353160	0.941760	0.234328	-0.537313	0.321667	-0.432493	-0.019548	0.047647
564	80.222321	0.145508	-9.888480	-0.353160	1.177200	0.234328	-0.558209	0.306667	-0.437380	-0.024435	0.043982
565	80.351440	0.194641	-10.123920	-0.353160	1.530360	0.234328	-0.574627	0.288333	-0.421497	-0.024435	0.050091
566	80.480530	0.163757	-10.006200	-0.470880	1.648080	0.235821	-0.591045	0.273333	-0.387289	-0.021991	0.042761
567	80.609650	0.132904	-10.006200	-0.117720	1.648080	0.237313	-0.605970	0.256667	-0.349415	-0.019548	0.043982
568	80.738739	0.182007	-10.006200	-0.117720	1.765800	0.234328	-0.613433	0.240000	-0.295659	-0.017104	0.036652
569	80.867828	0.151123	-10.006200	0.000000	2.118960	0.234328	-0.623881	0.228333	-0.218690	-0.015882	0.039095
570	80.996948	0.200256	-10.123920	-0.117720	2.001240	0.232836	-0.623881	0.220000	-0.128282	-0.020769	0.023213
571	81.126038	0.169373	-9.888480	0.000000	1.648080	0.234328	-0.626866	0.210000	-0.089186	-0.013439	0.013439
572	81.255127	0.138489	-9.888480	0.000000	1.294920	0.232836	-0.626866	0.208333	-0.083078	-0.012217	0.020769
573	81.384216	0.187592	-10.006200	-0.117720	1.294920	0.231343	-0.626866	0.203333	-0.064752	-0.015882	0.010996
574	81.513306	0.156708	-10.006200	-0.117720	1.412640	0.232836	-0.625373	0.201667	-0.074526	-0.009774	0.017104
575	81.642456	0.205872	-10.241640	0.000000	1.177200	0.232836	-0.625373	0.198333	-0.061087	-0.012217	0.013439
576	81.771576	0.175018	-10.123920	0.000000	1.294920	0.232836	-0.625373	0.200000	-0.054978	-0.013439	0.013439
577	81.900665	0.144135	-10.006200	0.000000	0.588600	0.231343	-0.626866	0.200000	-0.065973	-0.013439	0.015882
578	82.029755	0.191040	-10.123920	0.000000	0.941760	0.234328	-0.625373	0.200000	-0.047647	-0.007330	0.015882
579	82.158875	0.162384	-10.006200	0.117720	1.765800	0.235821	-0.625373	0.196667	-0.039095	-0.014661	0.020769
580	82.287964	0.131500	-9.888480	0.000000	1.648080	0.234328	-0.623881	0.198333	-0.050091	-0.012217	0.012217
581	82.417114	0.180664	-10.006200	0.000000	1.294920	0.232836	-0.623881	0.198333	-0.039095	-0.010996	0.013439
582	82.546234	0.149811	-10.006200	0.000000	1.059480	0.234328	-0.623881	0.196667	-0.048869	-0.012217	0.008552
583	82.675323	0.198914	-10.123920	0.000000	1.059480	0.232836	-0.625373	0.198333	-0.036652	-0.012217	0.014661
584	82.804443	0.168060	-10.006200	0.000000	1.412640	0.234328	-0.625373	0.200000	-0.037874	-0.012217	0.015882
585	82.933563	0.137207	-10.123920	-0.117720	1.059480	0.234328	-0.625373	0.200000	-0.041539	-0.012217	0.014661
586	83.062714	0.186371	-10.006200	0.000000	1.177200	0.234328	-0.625373	0.198333	-0.043982	-0.003665	0.017104
587	83.191803	0.155487	-10.123920	0.000000	0.941760	0.231343	-0.626866	0.198333	-0.040317	-0.008552	0.015882
588	83.320923	0.204620	-10.123920	-0.117720	1.059480	0.232836	-0.625373	0.198333	-0.035430	-0.013439	0.006109
589	83.450073	0.173798	-10.006200	-0.117720	1.177200	0.232836	-0.625373	0.198333	-0.034208	-0.012217	0.013439
590	83.579193	0.142944	-10.006200	0.000000	1.294920	0.232836	-0.628358	0.198333	-0.036652	-0.009774	0.013439
591	83.708313	0.191071	-10.123920	-0.117720	1.059480	0.232836	-0.625373	0.196667	-0.041539	-0.007330	0.017104
592	83.837463	0.161255	-10.006200	-0.117720	1.412640	0.232836	-0.623881	0.198333	-0.047647	-0.010996	0.010996
593	83.966583	0.130402	-10.123920	0.000000	1.177200	0.235821	-0.625373	0.200000	-0.040317	-0.010996	0.012217
594	84.095703	0.179535	-10.006200	0.000000	1.177200	0.232836	-0.623881	0.200000	-0.031765	-0.017104	0.013439
595	84.224823	0.148682	-10.241640	0.000000	1.177200	0.232836	-0.625373	0.195000	-0.037874	-0.010996	0.012217
596	84.353973	0.197845	-10.006200	-0.117720	1.177200	0.232836	-0.625373	0.198333	-0.039095	-0.008552	0.015882
597	84.483093	0.166992	-10.241640	0.000000	1.059480	0.234328	-0.625373	0.198333	-0.045204	-0.009774	0.012217
598	84.612244	0.136169	-10.123920	0.000000	1.059480	0.231343	-0.623881	0.200000	-0.046426	-0.017104	0.019548
599	84.741333	0.185272	-10.123920	0.000000	1.177200	0.232836	-0.626866	0.198333	-0.037874	-0.010996	0.010996
600	84.870453	0.154419	-10.123920	0.000000	1.177200	0.234328	-0.625373	0.200000	-0.035430	-0.010996	0.014661
601	84.999542	0.203522	-9.888480	0.000000	1.177200	0.234328	-0.625373	0.200000	-0.046426	-0.003665	0.014661
602	85.128662	0.172668	-10.123920	0.000000	1.059480	0.232836	-0.626866	0.200000	-0.041539	-0.010996	0.014661
603	85.257751	0.141785	-10.123920	0.000000	1.294920	0.234328	-0.623881	0.196667	-0.035430	-0.014661	0.012217
604	85.386902	0.190948	-10.241640	0.000000	1.177200	0.234328	-0.626866	0.198333	-0.037874	-0.009774	0.010996
605	85.516968	0.161041	-10.241640	0.000000	0.824040	0.232836	-0.626866	0.200000	-0.045204	-0.003665	0.009774
606	85.645172	0.129272	-10.006200	0.000000	1.530360	0.232836	-0.623881	0.198333	-0.048869	-0.012217	0.012217
607	85.774323	0.178436	-10.006200	0.000000	1.059480	0.232836	-0.626866	0.196667	-0.045204	-0.009774	0.008552
608	85.903473	0.147614	-10.123920	0.000000	1.177200	0.234328	-0.626866	0.198333	-0.041539	-0.009774	0.012217
609	86.032623	0.196777	-10.123920	0.000000	1.294920	0.234328	-0.626866	0.196667	-0.042761	-0.014661	0.012217
610	86.161774	0.165955	-10.006200	-0.117720	1.059480	0.234328	-0.623881	0.198333	-0.045204	-0.003665	0.015882
611	86.290924	0.135132	-10.006200	0.000000	1.177200	0.232836	-0.626866	0.198333	-0.040317	-0.014661	0.018326
612	86.420105	0.184326	-10.123920	-0.117720	1.294920	0.232836	-0.626866	0.200000	-0.020769	-0.014661	0.013439
613	86.549255	0.153503	-10.123920	0.000000	1.765800	0.232836	-0.626866	0.200000	0.020769	-0.012217	0.004887
614	86.678375	0.202637	-10.123920	-0.117720	1.883520	0.232836	-0.626866	0.203333	0.083078	-0.012217	0.004887
615	86.807526	0.171814	-10.006200	-0.235440	1.883520	0.234328	-0.626866	0.216667	0.134390	-0.007330	0.002443
616	86.936646	0.140961	-10.006200	-0.117720	2.118960	0.234328	-0.620896	0.228333	0.213803	0.003665	-0.004887
617	87.065796	0.190125	-10.006200	-0.470880	2.001240	0.234328	-0.610448	0.246667	0.301767	0.002443	-0.010996
618	87.194916	0.159271	-10.006200	-0.235440	1.765800	0.234328	-0.600000	0.266667	0.348193	-0.001222	-0.018326
619	87.324036	0.126526	-10.006200	-0.470880	1.648080	0.235821	-0.580597	0.285000	0.395841	-0.002443	-0.024435
620	87.453186	0.177582	-10.123920	-0.353160	1.059480	0.235821	-0.562687	0.305000	0.393397	0.001222	-0.025656
621	87.582306	0.146729	-10.123920	-0.588600	1.059480	0.235821	-0.537313	0.318333	0.394619	0.000000	-0.017104
622	87.711456	0.195892	-10.006200	-0.824040	1.059480	0.235821	-0.514925	0.333333	0.392175	-0.003665	-0.018326
623	87.840607	0.165070	-10.123920	-0.470880	1.177200	0.237313	-0.491045	0.345000	0.376293	-0.007330	-0.020769
624	87.969727	0.134216	-10.123920	-0.353160	0.941760	0.240299	-0.465672	0.351667	0.346971	-0.002443	-0.021991
625	88.098877	0.183380	-10.123920	-0.470880	0.941760	0.237313	-0.443284	0.356667	0.318872	-0.004887	-0.018326
626	88.227997	0.152527	-10.006200	-0.470880	0.941760	0.238806	-0.420896	0.358333	0.287107	0.002443	-0.017104
627	88.357086	0.201630	-10.241640	-0.117720	0.824040	0.240299	-0.400000	0.356667	0.262672	0.000000	-0.018326
628	88.486206	0.170776	-10.123920	-0.235440	0.824040	0.240299	-0.379104	0.358333	0.235794	-0.003665	-0.015882
629	88.615326	0.139923	-10.006200	-0.117720	0.706320	0.241791	-0.364179	0.355000	0.194255	-0.002443	-0.014661
630	88.744446	0.189056	-10.123920	0.000000	0.824040	0.243284	-0.350746	0.348333	0.147829	-0.001222	-0.008552
631	88.873566	0.158203	-10.123920	0.000000	0.941760	0.243284	-0.337313	0.346667	0.109956	-0.004887	-0.002443
632	89.002655	0.126495	-10.006200	0.000000	0.824040	0.241791	-0.328358	0.343333	0.085521	-0.009774	0.000000
633	89.131744	0.176422	-10.241640	0.000000	0.824040	0.244776	-0.319403	0.340000	0.051313	-0.003665	0.001222
634	89.260864	0.145569	-10.123920	0.117720	1.059480	0.243284	-0.313433	0.338333	0.025656	-0.003665	0.000000
635	89.389984	0.194702	-10.123920	0.000000	1.177200	0.246269	-0.305970	0.336667	0.019548	-0.007330	0.010996
636	89.519104	0.163849	-10.006200	0.000000	1.294920	0.244776	-0.304478	0.335000	0.004887	-0.010996	0.009774
637	89.648224	0.132996	-10.006200	0.000000	1.177200	0.247761	-0.300000	0.331667	0.003665	-0.004887	0.014661
638	89.777374	0.182159	-10.123920	0.000000	1.294920	0.246269	-0.297015	0.330000	-0.012217	-0.006109	0.014661
639	89.906494	0.151306	-9.888480	0.117720	0.824040	0.247761	-0.294030	0.328333	-0.021991	-0.008552	0.014661
640	90.035645	0.200470	-9.888480	0.000000	1.059480	0.247761	-0.292537	0.328333	-0.042761	-0.012217	0.010996
641	90.164764	0.169617	-10.241640	0.000000	1.177200	0.246269	-0.294030	0.328333	-0.040317	-0.008552	0.017104
642	90.293915	0.138794	-10.241640	0.000000	1.412640	0.246269	-0.295522	0.328333	-0.042761	-0.009774	0.019548
643	90.423035	0.187927	-10.123920	0.000000	1.412640	0.246269	-0.292537	0.326667	-0.039095	-0.013439	0.012217
644	90.552216	0.157135	-10.006200	-0.117720	1.294920	0.247761	-0.297015	0.326667	-0.037874	-0.009774	0.009774
645	90.681335	0.206268	-10.006200	0.000000	1.177200	0.246269	-0.295522	0.328333	-0.046426	-0.007330	0.010996
646	90.810486	0.175446	-10.123920	0.000000	1.059480	0.244776	-0.294030	0.326667	-0.040317	-0.008552	0.014661
647	90.939667	0.144653	-9.888480	-0.235440	1.412640	0.246269	-0.294030	0.330000	-0.036652	-0.009774	0.010996
648	91.068787	0.193787	-10.123920	0.000000	1.059480	0.244776	-0.292537	0.326667	-0.024435	-0.006109	0.012217
649	91.197906	0.162933	-10.006200	-0.117720	1.177200	0.247761	-0.294030	0.328333	-0.034208	-0.014661	0.019548
650	91.327057	0.132111	-10.123920	-0.117720	1.294920	0.247761	-0.294030	0.326667	-0.032987	-0.014661	0.012217
651	91.456238	0.181305	-10.123920	0.000000	1.294920	0.246269	-0.292537	0.326667	-0.035430	-0.012217	0.008552
652	91.585419	0.150513	-10.123920	0.000000	1.177200	0.247761	-0.294030	0.330000	-0.052534	-0.012217	0.012217
653	91.714569	0.199677	-10.123920	0.000000	1.294920	0.247761	-0.292537	0.326667	-0.050091	-0.004887	0.009774
654	91.843750	0.168884	-10.123920	-0.235440	1.177200	0.246269	-0.294030	0.328333	-0.042761	-0.013439	0.010996
655	91.972900	0.138062	-10.006200	0.117720	1.294920	0.244776	-0.292537	0.330000	-0.034208	-0.012217	0.014661
656	92.102081	0.187256	-10.006200	0.117720	1.059480	0.249254	-0.294030	0.328333	-0.035430	-0.009774	0.010996
657	92.231232	0.156433	-10.006200	0.000000	1.530360	0.244776	-0.295522	0.328333	-0.030543	-0.013439	0.018326
658	92.360382	0.205597	-10.006200	0.000000	1.294920	0.246269	-0.294030	0.328333	-0.026878	-0.008552	0.008552
659	92.489563	0.174805	-10.123920	0.000000	1.177200	0.246269	-0.292537	0.326667	-0.042761	-0.007330	0.018326
660	92.618744	0.144012	-10.006200	0.000000	1.294920	0.246269	-0.295522	0.328333	-0.041539	-0.008552	0.018326
661	92.747894	0.191132	-10.241640	0.000000	1.294920	0.246269	-0.294030	0.330000	-0.050091	-0.010996	0.009774
662	92.877045	0.162354	-10.006200	0.000000	1.294920	0.247761	-0.294030	0.328333	-0.041539	-0.007330	0.015882
663	93.006195	0.131531	-10.006200	0.117720	1.177200	0.246269	-0.294030	0.328333	-0.048869	-0.007330	0.014661
664	93.135376	0.180725	-10.241640	0.000000	1.294920	0.244776	-0.292537	0.328333	-0.045204	-0.012217	0.010996
665	93.264557	0.149933	-10.006200	0.000000	1.294920	0.246269	-0.294030	0.328333	-0.043982	-0.010996	0.018326
666	93.393707	0.199097	-10.123920	0.000000	1.294920	0.246269	-0.295522	0.328333	-0.039095	-0.012217	0.013439
667	93.522827	0.168243	-10.006200	0.000000	1.177200	0.246269	-0.295522	0.328333	-0.036652	-0.013439	0.014661
668	93.651978	0.137421	-10.006200	0.000000	1.294920	0.244776	-0.294030	0.328333	-0.037874	-0.013439	0.013439
669	93.781158	0.186615	-10.123920	0.000000	1.177200	0.246269	-0.295522	0.328333	-0.041539	-0.013439	0.010996
670	93.910339	0.155823	-10.123920	0.000000	1.294920	0.244776	-0.294030	0.326667	-0.043982	-0.006109	0.010996
671	94.039520	0.205017	-10.123920	0.000000	1.294920	0.244776	-0.295522	0.328333	-0.043982	-0.007330	0.018326
672	94.168732	0.174255	-10.123920	0.000000	1.177200	0.244776	-0.295522	0.330000	-0.050091	-0.009774	0.012217
673	94.297852	0.143402	-10.006200	0.000000	1.294920	0.246269	-0.294030	0.328333	-0.040317	-0.009774	0.018326
674	94.427002	0.191101	-10.123920	0.000000	1.294920	0.246269	-0.295522	0.330000	-0.043982	-0.013439	0.013439
675	94.556152	0.161743	-10.006200	0.000000	1.530360	0.244776	-0.294030	0.328333	-0.039095	-0.010996	0.012217
676	94.685303	0.130920	-10.123920	0.000000	1.412640	0.247761	-0.295522	0.330000	-0.039095	-0.010996	0.012217
677	94.814484	0.180115	-10.006200	0.000000	1.294920	0.244776	-0.295522	0.330000	-0.041539	-0.007330	0.012217
678	94.943634	0.149292	-10.123920	0.000000	1.177200	0.244776	-0.297015	0.330000	-0.054978	-0.009774	0.009774
679	95.072784	0.198456	-10.123920	0.000000	1.059480	0.246269	-0.297015	0.331667	-0.081856	-0.012217	0.015882
680	95.201904	0.167603	-10.006200	0.000000	0.470880	0.246269	-0.300000	0.330000	-0.123395	-0.013439	0.019548
681	95.331024	0.136749	-10.123920	-0.117720	0.588600	0.244776	-0.307463	0.338333	-0.182038	-0.013439	0.020769
682	95.460144	0.185883	-9.888480	0.000000	0.706320	0.243284	-0.320896	0.341667	-0.245568	-0.015882	0.028100
683	95.589294	0.155060	-10.123920	0.000000	0.470880	0.243284	-0.335821	0.350000	-0.299324	-0.013439	0.035430
684	95.718414	0.204193	-10.006200	0.000000	0.824040	0.241791	-0.356716	0.353333	-0.348193	-0.017104	0.039095
685	95.847534	0.173340	-10.241640	-0.117720	0.941760	0.240299	-0.377612	0.355000	-0.373850	-0.020769	0.040317
686	95.976685	0.142517	-10.123920	-0.235440	0.824040	0.240299	-0.397015	0.355000	-0.392175	-0.021991	0.043982
687	96.105835	0.191132	-10.006200	-0.470880	1.059480	0.240299	-0.419403	0.356667	-0.410501	-0.024435	0.045204
688	96.235168	0.161041	-10.006200	-0.235440	0.941760	0.238806	-0.443284	0.353333	-0.423940	-0.019548	0.047647
689	96.364166	0.130066	-10.006200	-0.117720	1.059480	0.238806	-0.464179	0.353333	-0.422719	-0.017104	0.045204
690	96.493286	0.179199	-10.006200	-0.235440	1.412640	0.237313	-0.488060	0.345000	-0.410501	-0.020769	0.043982
691	96.622437	0.148376	-10.123920	-0.235440	1.294920	0.237313	-0.504478	0.335000	-0.398284	-0.018326	0.043982
692	96.751587	0.197540	-10.123920	-0.235440	1.294920	0.234328	-0.531343	0.326667	-0.397062	-0.020769	0.042761
693	96.880737	0.166718	-10.123920	0.000000	1.177200	0.237313	-0.546269	0.313333	-0.389732	-0.018326	0.046426
694	97.009857	0.135864	-10.006200	-0.235440	1.059480	0.232836	-0.561194	0.301667	-0.399506	-0.019548	0.045204
695	97.138977	0.184998	-10.123920	-0.353160	1.059480	0.234328	-0.580597	0.286667	-0.415388	-0.021991	0.053756
696	97.268127	0.154175	-10.123920	-0.706320	1.294920	0.235821	-0.595522	0.268333	-0.412945	-0.029322	0.047647
697	97.397217	0.203278	-10.006200	-0.353160	1.765800	0.232836	-0.607463	0.250000	-0.373850	-0.024435	0.048869
698	97.526337	0.172424	-10.006200	-0.117720	2.118960	0.232836	-0.619403	0.233333	-0.278555	-0.020769	0.037874
699	97.655457	0.141571	-10.006200	0.000000	2.472120	0.232836	-0.622388	0.218333	-0.140499	-0.014661	0.031765
700	97.784576	0.190704	-10.006200	-0.117720	1.530360	0.231343	-0.628358	0.211667	-0.084299	-0.019548	0.018326
701	97.913696	0.159851	-10.123920	0.000000	1.294920	0.231343	-0.625373	0.208333	-0.085521	-0.018326	0.019548
702	98.042816	0.126526	-10.006200	0.000000	1.412640	0.232836	-0.626866	0.205000	-0.080634	-0.008552	0.017104
703	98.171936	0.178131	-10.241640	0.000000	1.530360	0.231343	-0.625373	0.203333	-0.072082	-0.008552	0.021991
704	98.301086	0.147308	-10.123920	-0.117720	1.294920	0.232836	-0.626866	0.200000	-0.068417	-0.010996	0.017104
705	98.430206	0.196442	-10.123920	0.000000	1.412640	0.231343	-0.626866	0.201667	-0.047647	-0.013439	0.020769
706	98.559326	0.165588	-10.006200	0.000000	0.824040	0.232836	-0.625373	0.198333	-0.065973	-0.012217	0.014661
707	98.688446	0.134735	-10.006200	-0.824040	3.413880	0.234328	-0.623881	0.198333	-0.031765	-0.025656	0.037874
708	98.817596	0.183899	-10.241640	0.000000	0.706320	0.234328	-0.623881	0.198333	-0.041539	-0.008552	0.012217
709	98.946747	0.153076	-10.123920	0.000000	1.059480	0.232836	-0.625373	0.198333	-0.040317	-0.015882	0.015882
710	99.075897	0.202240	-10.006200	0.000000	1.059480	0.232836	-0.625373	0.198333	-0.046426	-0.010996	0.015882
711	99.205048	0.171417	-10.241640	0.000000	1.177200	0.232836	-0.623881	0.198333	-0.039095	-0.014661	0.015882
712	99.334137	0.140533	-10.123920	0.000000	0.824040	0.232836	-0.623881	0.196667	-0.045204	-0.009774	0.012217
713	99.463287	0.189697	-9.888480	0.000000	1.059480	0.232836	-0.625373	0.196667	-0.039095	-0.010996	0.015882
714	99.592407	0.158844	-10.123920	-0.117720	1.059480	0.232836	-0.625373	0.198333	-0.042761	-0.013439	0.012217
715	99.721527	0.126526	-10.123920	0.000000	1.294920	0.234328	-0.625373	0.200000	-0.041539	-0.012217	0.019548
716	99.850677	0.177155	-10.006200	-0.117720	1.177200	0.235821	-0.622388	0.198333	-0.042761	-0.008552	0.014661
717	99.979797	0.146301	-10.006200	0.000000	1.177200	0.234328	-0.625373	0.198333	-0.046426	-0.007330	0.010996
718	100.108917	0.195435	-10.123920	0.000000	1.294920	0.232836	-0.625373	0.198333	-0.046426	-0.009774	0.015882
719	100.238037	0.164581	-10.123920	0.000000	1.294920	0.232836	-0.625373	0.200000	-0.050091	-0.012217	0.019548
720	100.367188	0.133759	-10.123920	0.000000	1.177200	0.235821	-0.625373	0.200000	-0.043982	-0.012217	0.012217
721	100.496307	0.182892	-10.006200	0.000000	1.294920	0.234328	-0.625373	0.200000	-0.040317	-0.010996	0.020769
722	100.625427	0.152039	-10.006200	-0.117720	1.177200	0.232836	-0.625373	0.196667	-0.051313	-0.013439	0.013439
723	100.754547	0.201172	-10.006200	0.000000	1.177200	0.234328	-0.625373	0.200000	-0.048869	-0.008552	0.014661
724	100.883636	0.170288	-9.888480	0.000000	1.059480	0.232836	-0.626866	0.200000	-0.035430	-0.008552	0.012217
725	101.012787	0.139465	-10.123920	0.000000	1.177200	0.234328	-0.625373	0.198333	-0.036652	-0.012217	0.015882
726	101.141937	0.188629	-10.123920	0.000000	1.177200	0.234328	-0.622388	0.196667	-0.034208	-0.009774	0.012217
727	101.271088	0.157806	-10.123920	-0.117720	1.177200	0.234328	-0.623881	0.198333	-0.030543	-0.009774	0.012217
728	101.400208	0.126526	-10.006200	0.000000	1.059480	0.232836	-0.625373	0.198333	-0.030543	-0.007330	0.009774
729	101.529358	0.176117	-9.770760	0.117720	1.059480	0.232836	-0.625373	0.198333	-0.037874	-0.008552	0.013439
730	101.658478	0.145264	-10.123920	0.000000	1.294920	0.231343	-0.623881	0.198333	-0.048869	-0.015882	0.012217
731	101.787598	0.194397	-10.123920	0.000000	1.177200	0.232836	-0.625373	0.198333	-0.046426	-0.009774	0.017104
732	101.916748	0.163574	-10.006200	0.000000	1.177200	0.234328	-0.623881	0.198333	-0.040317	-0.008552	0.009774
733	102.045898	0.132751	-10.123920	0.000000	1.294920	0.232836	-0.623881	0.198333	-0.050091	-0.010996	0.012217
734	102.175049	0.181915	-10.123920	0.000000	1.294920	0.232836	-0.623881	0.200000	-0.045204	-0.009774	0.007330
735	102.304230	0.151123	-10.006200	0.000000	1.059480	0.232836	-0.625373	0.198333	-0.035430	-0.019548	0.007330
736	102.433411	0.200317	-10.006200	0.000000	1.059480	0.234328	-0.625373	0.198333	-0.032987	-0.013439	0.012217
737	102.562561	0.169495	-10.006200	0.000000	1.177200	0.232836	-0.622388	0.200000	-0.034208	-0.013439	0.008552
738	102.691742	0.138702	-10.123920	-0.117720	1.059480	0.234328	-0.625373	0.196667	-0.039095	-0.009774	0.015882
739	102.820862	0.187836	-10.123920	-0.117720	1.177200	0.232836	-0.623881	0.196667	-0.034208	-0.012217	0.014661
740	102.950012	0.157013	-10.123920	0.000000	0.706320	0.232836	-0.623881	0.198333	-0.023213	-0.018326	0.014661
741	103.079132	0.206146	-10.006200	0.000000	1.412640	0.234328	-0.625373	0.200000	-0.014661	-0.013439	0.014661
742	103.208313	0.175354	-10.123920	-0.117720	1.412640	0.234328	-0.625373	0.201667	0.014661	-0.009774	0.007330
743	103.337463	0.144531	-10.006200	0.000000	1.883520	0.232836	-0.625373	0.206667	0.078191	-0.007330	0.001222
744	103.466583	0.191101	-9.888480	0.000000	1.530360	0.231343	-0.623881	0.215000	0.120951	-0.008552	0.002443
745	103.595703	0.162811	-10.006200	-0.117720	1.883520	0.234328	-0.620896	0.228333	0.185703	-0.008552	-0.003665
746	103.724823	0.131958	-10.123920	0.000000	1.883520	0.235821	-0.613433	0.245000	0.244346	0.000000	-0.009774
747	103.853943	0.181091	-10.006200	-0.353160	1.530360	0.234328	-0.601493	0.261667	0.291994	-0.006109	-0.013439
748	103.983063	0.150238	-10.006200	-0.235440	1.530360	0.234328	-0.589552	0.276667	0.317650	0.000000	-0.018326
749	104.112183	0.199371	-10.123920	-0.470880	1.059480	0.234328	-0.573134	0.295000	0.321315	-0.004887	-0.023213
750	104.241272	0.168488	-10.006200	-0.117720	1.059480	0.234328	-0.556716	0.308333	0.301767	0.000000	-0.014661
751	104.370392	0.137634	-10.241640	-0.117720	0.824040	0.235821	-0.538806	0.321667	0.285885	-0.001222	-0.017104
752	104.499542	0.186798	-10.241640	-0.235440	0.706320	0.237313	-0.523881	0.328333	0.251676	-0.001222	-0.018326
753	104.628662	0.155945	-10.123920	-0.353160	0.588600	0.235821	-0.505970	0.338333	0.230907	-0.004887	-0.015882
754	104.757812	0.205109	-10.241640	0.000000	0.235440	0.234328	-0.492537	0.343333	0.136834	-0.003665	-0.010996
755	104.886963	0.174286	-10.241640	0.000000	0.353160	0.237313	-0.482090	0.348333	0.056200	-0.009774	0.000000
756	105.016113	0.143463	-10.123920	-0.117720	0.824040	0.237313	-0.477612	0.350000	0.018326	-0.012217	0.004887
757	105.145264	0.191132	-10.123920	0.000000	0.824040	0.235821	-0.477612	0.351667	-0.003665	-0.012217	0.015882
758	105.274414	0.161804	-10.123920	0.000000	1.412640	0.238806	-0.471642	0.350000	-0.014661	-0.009774	0.008552
759	105.403564	0.130981	-10.123920	0.000000	1.059480	0.237313	-0.473134	0.351667	-0.014661	-0.012217	0.008552
760	105.532715	0.180145	-10.123920	0.000000	1.177200	0.238806	-0.471642	0.350000	-0.029322	-0.010996	0.014661
761	105.661896	0.149353	-9.888480	0.000000	1.294920	0.237313	-0.473134	0.348333	-0.037874	-0.009774	0.013439
762	105.791077	0.198547	-10.006200	0.000000	1.294920	0.237313	-0.470149	0.351667	-0.045204	-0.010996	0.017104
763	105.920258	0.167755	-10.123920	0.117720	1.177200	0.237313	-0.471642	0.350000	-0.045204	-0.015882	0.015882
764	106.049438	0.136963	-10.006200	-0.117720	1.294920	0.238806	-0.471642	0.353333	-0.043982	-0.010996	0.017104
765	106.178619	0.186157	-10.123920	-0.117720	1.530360	0.237313	-0.470149	0.350000	-0.042761	-0.007330	0.017104
766	106.307800	0.155365	-10.006200	0.000000	1.294920	0.238806	-0.470149	0.351667	-0.036652	-0.007330	0.015882
767	106.436951	0.204529	-10.123920	0.000000	1.177200	0.238806	-0.470149	0.353333	-0.048869	-0.004887	0.010996
768	106.566101	0.173706	-10.123920	0.000000	1.059480	0.238806	-0.468657	0.350000	-0.045204	-0.008552	0.009774
769	106.695251	0.142883	-9.888480	0.000000	1.177200	0.237313	-0.471642	0.350000	-0.043982	-0.013439	0.017104
770	106.824432	0.191162	-9.888480	0.000000	1.294920	0.235821	-0.470149	0.353333	-0.039095	-0.007330	0.017104
771	106.953583	0.161255	-10.241640	0.000000	1.294920	0.235821	-0.471642	0.348333	-0.032987	-0.013439	0.007330
772	107.082764	0.130463	-10.006200	0.000000	1.059480	0.237313	-0.468657	0.346667	-0.042761	-0.008552	0.017104
773	107.211914	0.179626	-10.006200	0.000000	1.530360	0.238806	-0.470149	0.350000	-0.042761	-0.009774	0.017104
774	107.341064	0.148804	-10.241640	0.000000	1.412640	0.237313	-0.468657	0.350000	-0.042761	-0.009774	0.013439
775	107.470245	0.197998	-10.123920	0.000000	1.177200	0.237313	-0.473134	0.350000	-0.048869	-0.007330	0.015882
776	107.599426	0.167206	-10.006200	0.000000	1.294920	0.238806	-0.470149	0.351667	-0.037874	-0.009774	0.019548
777	107.728577	0.136383	-10.006200	0.000000	1.177200	0.238806	-0.470149	0.348333	-0.037874	-0.013439	0.014661
778	107.857727	0.185547	-9.888480	-0.117720	1.177200	0.237313	-0.471642	0.346667	-0.037874	-0.013439	0.012217
779	107.986877	0.154724	-10.006200	-0.117720	1.412640	0.238806	-0.471642	0.351667	-0.046426	-0.009774	0.017104
780	108.115997	0.203857	-10.006200	0.000000	1.294920	0.237313	-0.471642	0.351667	-0.045204	-0.012217	0.008552
781	108.245117	0.173004	-9.888480	0.000000	1.294920	0.237313	-0.470149	0.351667	-0.048869	-0.010996	0.012217
782	108.374298	0.142212	-10.123920	0.000000	1.177200	0.235821	-0.471642	0.348333	-0.051313	-0.010996	0.020769
783	108.503479	0.191193	-9.888480	0.000000	0.941760	0.237313	-0.470149	0.351667	-0.036652	-0.013439	0.015882
784	108.633087	0.161041	-10.123920	0.000000	1.412640	0.235821	-0.474627	0.350000	-0.030543	-0.012217	0.013439
785	108.761810	0.129791	-10.123920	0.000000	1.177200	0.237313	-0.471642	0.351667	-0.052534	-0.014661	0.015882
786	108.890991	0.178986	-10.241640	-0.117720	1.412640	0.237313	-0.473134	0.351667	-0.057421	-0.010996	0.014661
787	109.020172	0.148193	-10.359360	-0.117720	1.059480	0.235821	-0.471642	0.348333	-0.047647	-0.015882	0.004887
788	109.149353	0.197388	-10.123920	0.000000	0.588600	0.237313	-0.473134	0.348333	-0.070860	-0.008552	0.008552
789	109.278534	0.166595	-10.123920	0.000000	0.588600	0.237313	-0.474627	0.350000	-0.131947	-0.013439	0.020769
790	109.407654	0.135742	-10.123920	0.117720	0.235440	0.237313	-0.480597	0.345000	-0.191812	-0.013439	0.019548
791	109.536804	0.184906	-10.123920	-0.235440	0.353160	0.234328	-0.492537	0.343333	-0.262672	-0.021991	0.026878
792	109.665955	0.154083	-10.006200	0.000000	0.470880	0.234328	-0.505970	0.338333	-0.329867	-0.018326	0.030543
793	109.795105	0.203247	-10.123920	-0.117720	0.824040	0.235821	-0.520896	0.330000	-0.378736	-0.021991	0.046426
794	109.924225	0.172394	-10.006200	-0.470880	0.941760	0.234328	-0.543284	0.320000	-0.405615	-0.025656	0.043982
795	110.053406	0.141602	-9.888480	-0.470880	1.294920	0.234328	-0.559701	0.305000	-0.416610	-0.024435	0.048869
796	110.182617	0.190826	-10.123920	-0.353160	1.412640	0.232836	-0.579104	0.290000	-0.403171	-0.023213	0.048869
797	110.312805	0.161041	-10.123920	-0.470880	1.648080	0.234328	-0.591045	0.273333	-0.370184	-0.029322	0.041539
798	110.440948	0.129211	-10.006200	-0.117720	1.765800	0.235821	-0.605970	0.258333	-0.328645	-0.018326	0.046426
799	110.570099	0.178375	-9.888480	-0.117720	1.648080	0.232836	-0.613433	0.241667	-0.266337	-0.021991	0.032987
800	110.699280	0.147583	-10.006200	0.000000	1.765800	0.234328	-0.619403	0.228333	-0.219911	-0.009774	0.032987
801	110.828461	0.196777	-10.006200	0.000000	2.236680	0.234328	-0.623881	0.218333	-0.145386	-0.017104	0.031765
802	110.957642	0.165985	-10.006200	0.000000	1.765800	0.232836	-0.623881	0.210000	-0.085521	-0.009774	0.019548
803	111.086792	0.135162	-10.123920	0.000000	1.177200	0.231343	-0.626866	0.208333	-0.085521	-0.013439	0.017104
804	111.215973	0.184357	-10.123920	0.000000	1.294920	0.232836	-0.625373	0.201667	-0.079412	-0.014661	0.019548
805	111.345154	0.153564	-10.123920	-0.117720	1.412640	0.232836	-0.626866	0.198333	-0.068417	-0.010996	0.019548
806	111.474335	0.202759	-10.006200	-0.117720	1.530360	0.229851	-0.622388	0.201667	-0.045204	-0.013439	0.014661
807	111.603485	0.171936	-10.241640	-0.117720	1.059480	0.235821	-0.625373	0.200000	-0.048869	-0.013439	0.013439
808	111.732666	0.141144	-10.123920	-0.117720	1.177200	0.231343	-0.625373	0.200000	-0.063530	-0.007330	0.013439
809	111.861816	0.190308	-10.006200	0.000000	1.648080	0.234328	-0.626866	0.198333	-0.032987	-0.008552	0.018326
810	111.990997	0.159515	-10.123920	0.000000	0.117720	0.234328	-0.623881	0.200000	-0.043982	-0.008552	0.008552
811	112.120178	0.126587	-10.123920	0.000000	1.059480	0.231343	-0.623881	0.198333	-0.045204	-0.010996	0.014661
812	112.249329	0.177887	-10.006200	0.000000	1.059480	0.232836	-0.625373	0.200000	-0.041539	-0.009774	0.017104
813	112.378510	0.147095	-10.241640	-0.117720	1.177200	0.232836	-0.625373	0.196667	-0.043982	-0.008552	0.019548
814	112.507690	0.196289	-10.006200	0.000000	1.177200	0.232836	-0.623881	0.198333	-0.042761	-0.012217	0.010996
815	112.636902	0.165527	-10.241640	0.000000	1.177200	0.232836	-0.623881	0.200000	-0.050091	-0.010996	0.013439
816	112.766052	0.134705	-10.006200	0.000000	1.294920	0.232836	-0.622388	0.200000	-0.041539	-0.009774	0.015882
817	112.895233	0.183899	-10.123920	0.000000	1.294920	0.231343	-0.623881	0.198333	-0.045204	-0.010996	0.017104
818	113.024384	0.153076	-9.888480	0.000000	1.059480	0.232836	-0.628358	0.198333	-0.042761	-0.012217	0.017104
819	113.153564	0.202271	-10.123920	0.000000	1.059480	0.232836	-0.623881	0.198333	-0.032987	-0.012217	0.020769
820	113.282745	0.171478	-10.006200	0.000000	0.941760	0.232836	-0.623881	0.196667	-0.045204	-0.006109	0.012217
821	113.411926	0.140686	-10.123920	0.000000	1.177200	0.234328	-0.623881	0.200000	-0.056200	-0.009774	0.013439
822	113.541107	0.189880	-9.888480	0.000000	1.177200	0.232836	-0.623881	0.198333	-0.040317	-0.008552	0.007330
823	113.670258	0.159058	-10.006200	0.000000	1.294920	0.232836	-0.623881	0.198333	-0.040317	-0.014661	0.010996
824	113.799408	0.126556	-10.006200	0.000000	1.294920	0.234328	-0.623881	0.198333	-0.039095	-0.012217	0.006109
825	113.928558	0.177399	-10.123920	0.000000	1.177200	0.231343	-0.623881	0.196667	-0.040317	-0.017104	0.014661
826	114.057709	0.146576	-10.123920	-0.117720	1.294920	0.234328	-0.625373	0.198333	-0.046426	-0.007330	0.018326
827	114.186859	0.195740	-10.006200	-0.117720	1.294920	0.232836	-0.623881	0.198333	-0.045204	-0.012217	0.014661
828	114.316010	0.164917	-10.006200	0.000000	1.294920	0.232836	-0.623881	0.200000	-0.036652	-0.007330	0.010996
829	114.445190	0.134125	-10.006200	0.000000	1.177200	0.234328	-0.625373	0.200000	-0.035430	-0.009774	0.012217
830	114.574371	0.183319	-10.123920	0.000000	1.294920	0.232836	-0.623881	0.198333	-0.042761	-0.009774	0.012217
831	114.703552	0.152527	-10.123920	-0.117720	1.412640	0.232836	-0.625373	0.198333	-0.045204	-0.006109	0.021991
832	114.832703	0.201691	-10.006200	0.000000	1.177200	0.231343	-0.623881	0.198333	-0.046426	-0.010996	0.015882
833	114.961884	0.170898	-10.006200	0.000000	1.177200	0.232836	-0.625373	0.198333	-0.037874	-0.008552	0.007330
834	115.091034	0.140076	-10.006200	0.000000	1.177200	0.231343	-0.625373	0.198333	-0.040317	-0.007330	0.019548
835	115.220245	0.189301	-10.123920	0.000000	1.059480	0.232836	-0.623881	0.196667	-0.045204	-0.008552	0.009774
836	115.349457	0.158539	-10.006200	0.000000	1.177200	0.232836	-0.623881	0.198333	-0.036652	-0.009774	0.014661
837	115.478638	0.126587	-9.888480	0.000000	1.177200	0.231343	-0.623881	0.198333	-0.036652	-0.012217	0.013439
838	115.607788	0.176910	-9.888480	0.000000	1.294920	0.231343	-0.623881	0.198333	-0.037874	-0.009774	0.019548
839	115.736969	0.146118	-10.006200	-0.117720	0.941760	0.232836	-0.623881	0.200000	-0.050091	-0.006109	0.012217
840	115.866150	0.195312	-10.006200	0.000000	1.059480	0.232836	-0.623881	0.198333	-0.039095	-0.009774	0.012217
841	115.995361	0.164551	-10.123920	-0.117720	1.177200	0.232836	-0.622388	0.198333	-0.036652	-0.008552	0.009774
842	116.124542	0.133759	-10.123920	0.000000	1.059480	0.234328	-0.623881	0.198333	-0.046426	-0.013439	0.012217
843	116.253754	0.182983	-10.123920	0.000000	1.059480	0.232836	-0.623881	0.198333	-0.042761	-0.009774	0.012217
844	116.382935	0.152191	-10.006200	0.000000	1.294920	0.232836	-0.623881	0.198333	-0.043982	-0.008552	0.013439
845	116.512146	0.201416	-10.123920	0.000000	1.294920	0.232836	-0.625373	0.200000	-0.046426	-0.010996	0.020769
846	116.641296	0.170593	-10.123920	0.000000	1.059480	0.231343	-0.625373	0.198333	-0.045204	-0.009774	0.010996
847	116.770447	0.139771	-10.006200	0.000000	1.412640	0.232836	-0.623881	0.198333	-0.045204	-0.008552	0.010996
848	116.899597	0.188934	-10.123920	0.000000	1.177200	0.231343	-0.625373	0.200000	-0.043982	-0.013439	0.013439
849	117.028748	0.158112	-10.006200	-0.117720	1.294920	0.232836	-0.622388	0.201667	-0.036652	-0.012217	0.017104
850	117.157898	0.126556	-10.123920	-0.117720	1.059480	0.232836	-0.625373	0.201667	-0.041539	-0.013439	0.015882
851	117.287048	0.176453	-9.888480	-0.117720	1.177200	0.232836	-0.622388	0.200000	-0.039095	-0.010996	0.017104
852	117.416199	0.145630	-10.123920	0.000000	1.177200	0.234328	-0.623881	0.198333	-0.036652	-0.010996	0.018326
853	117.545380	0.194824	-10.123920	0.235440	1.648080	0.232836	-0.625373	0.198333	-0.081856	0.004887	0.021991
854	117.674530	0.164001	-10.123920	0.000000	1.412640	0.231343	-0.622388	0.198333	-0.036652	-0.009774	0.009774
855	117.803711	0.133209	-10.006200	0.000000	1.294920	0.225373	-0.619403	0.198333	-0.037874	-0.009774	0.008552
856	117.932892	0.182404	-10.241640	0.000000	1.177200	0.220896	-0.614925	0.198333	-0.045204	-0.006109	0.014661
857	118.062103	0.151642	-10.123920	0.000000	1.294920	0.217910	-0.608955	0.195000	-0.034208	-0.008552	0.013439
858	118.191284	0.200836	-10.123920	-0.117720	1.294920	0.217910	-0.605970	0.195000	-0.037874	-0.014661	0.012217
859	118.320465	0.170044	-10.006200	0.000000	1.412640	0.214925	-0.601493	0.191667	-0.031765	-0.012217	0.025656
860	118.449677	0.139282	-10.241640	0.000000	1.177200	0.217910	-0.594030	0.185000	-0.028100	-0.010996	0.013439
861	118.578857	0.188477	-10.006200	0.000000	1.059480	0.220896	-0.591045	0.183333	-0.039095	-0.012217	0.009774
862	118.708038	0.157684	-10.123920	0.000000	1.059480	0.223881	-0.585075	0.180000	-0.021991	-0.013439	0.009774
863	118.837219	0.126587	-10.241640	-0.353160	1.177200	0.225373	-0.582090	0.180000	0.017104	-0.013439	-0.001222
864	118.966370	0.176056	-10.123920	0.000000	1.059480	0.228358	-0.576119	0.178333	0.009774	-0.010996	0.008552
865	119.095520	0.145233	-10.123920	0.000000	1.177200	0.229851	-0.576119	0.173333	-0.046426	-0.004887	0.014661
866	119.224701	0.194427	-10.123920	-0.117720	1.059480	0.228358	-0.580597	0.181667	-0.046426	-0.003665	0.013439
867	119.353851	0.163605	-10.006200	0.000000	1.412640	0.223881	-0.583582	0.183333	-0.040317	-0.012217	0.008552
868	119.483002	0.132782	-10.123920	0.000000	1.059480	0.223881	-0.585075	0.181667	-0.042761	-0.014661	0.013439
869	119.612152	0.181946	-10.241640	-0.117720	1.294920	0.220896	-0.586567	0.185000	-0.041539	-0.012217	0.013439
870	119.741272	0.151093	-10.123920	-0.117720	1.294920	0.220896	-0.586567	0.186667	-0.039095	-0.014661	0.010996
871	119.870392	0.200226	-10.123920	-0.117720	1.177200	0.220896	-0.585075	0.188333	-0.058643	-0.010996	0.017104
872	119.999542	0.169403	-10.006200	0.117720	1.059480	0.220896	-0.585075	0.185000	-0.035430	-0.002443	0.013439
873	120.128693	0.138580	-10.123920	0.117720	1.059480	0.217910	-0.586567	0.185000	-0.036652	-0.007330	0.010996
874	120.257843	0.187744	-10.123920	0.000000	1.294920	0.214925	-0.588060	0.186667	-0.043982	-0.008552	0.017104
875	120.386993	0.156921	-10.006200	0.000000	1.412640	0.216418	-0.592537	0.190000	-0.052534	-0.007330	0.012217
876	120.516174	0.206116	-10.006200	0.000000	1.294920	0.219403	-0.597015	0.190000	-0.039095	-0.009774	0.014661
877	120.645355	0.175323	-10.006200	-0.117720	1.177200	0.222388	-0.601493	0.191667	-0.040317	-0.010996	0.013439
878	120.774506	0.144501	-10.006200	0.000000	1.177200	0.217910	-0.597015	0.191667	-0.046426	-0.010996	0.008552
879	120.903687	0.191162	-10.241640	0.000000	1.059480	0.214925	-0.594030	0.188333	-0.036652	-0.006109	0.012217
880	121.032867	0.162903	-10.241640	0.000000	1.294920	0.210448	-0.589552	0.186667	-0.043982	-0.004887	0.014661
881	121.162048	0.132111	-10.006200	0.000000	1.059480	0.210448	-0.586567	0.185000	-0.034208	-0.009774	0.009774
882	121.291229	0.181305	-10.006200	0.000000	1.294920	0.208955	-0.589552	0.188333	-0.039095	-0.012217	0.008552
883	121.420441	0.150543	-10.123920	0.000000	1.059480	0.210448	-0.591045	0.188333	-0.045204	-0.007330	0.012217
