# FOX Logger (IMU file)
# (c) INRIA 2013
## File created from file data/maison.raw
#
# File format:
# id	t	dt	ax	ay	az	mx	my	mz	gx	gy	gz
#
# Units:
#	Time: s
#	Acceleration: m.s^-2
#	Magnetic field: gauss
#	Rotation speed: rad.s^-1
#
1	7.556641	7.556641	0.000000	-9.535320	0.235440	0.004478	0.022388	0.250000	0.007330	-0.057421	0.008552
2	7.685669	0.156677	0.000000	-9.417600	0.000000	-0.005970	0.010448	0.265000	0.003665	-0.059865	0.007330
3	7.814758	0.205780	0.000000	-9.417600	0.235440	0.008955	0.028358	0.245000	0.015882	-0.061087	0.006109
4	7.943787	0.174835	0.117720	-9.299880	0.117720	0.010448	0.028358	0.246667	0.018326	-0.058643	0.006109
5	8.072815	0.143890	0.000000	-9.417600	0.235440	0.008955	0.026866	0.245000	0.001222	-0.058643	0.004887
6	8.201874	0.190979	-0.117720	-9.417600	0.235440	0.010448	0.028358	0.246667	0.001222	-0.057421	0.010996
7	8.330902	0.162018	0.000000	-9.417600	0.000000	0.008955	0.028358	0.246667	0.008552	-0.057421	0.004887
8	8.459961	0.131104	0.000000	-9.535320	0.000000	0.008955	0.028358	0.245000	0.014661	-0.063530	0.007330
9	8.589020	0.180176	0.000000	-9.299880	0.117720	0.010448	0.026866	0.248333	0.004887	-0.056200	0.009774
10	8.718109	0.149292	0.000000	-9.299880	0.000000	0.008955	0.026866	0.246667	0.018326	-0.058643	0.008552
11	8.847168	0.198364	0.000000	-9.299880	0.235440	0.010448	0.026866	0.246667	0.003665	-0.059865	0.007330
12	8.976227	0.167450	0.000000	-9.299880	0.235440	0.010448	0.025373	0.246667	0.009774	-0.056200	0.017104
13	9.105316	0.136566	0.117720	-9.299880	0.235440	0.010448	0.026866	0.246667	0.006109	-0.059865	0.007330
14	9.234375	0.185638	-0.117720	-9.535320	0.117720	0.010448	0.026866	0.248333	0.006109	-0.059865	0.001222
15	9.363403	0.154694	0.000000	-9.417600	0.117720	0.010448	0.023881	0.246667	0.014661	-0.061087	0.002443
16	9.492432	0.203735	0.000000	-9.417600	0.117720	0.010448	0.023881	0.245000	0.017104	-0.059865	0.007330
17	9.621521	0.172852	0.000000	-9.299880	-0.117720	0.008955	0.026866	0.245000	0.008552	-0.061087	0.006109
18	9.750610	0.141968	0.000000	-9.299880	0.000000	0.008955	0.025373	0.248333	0.013439	-0.058643	0.006109
19	9.879639	0.190979	0.000000	-9.417600	0.117720	0.010448	0.023881	0.246667	0.018326	-0.061087	0.003665
20	10.009644	0.161041	-0.117720	-9.299880	0.235440	0.010448	0.026866	0.246667	0.019548	-0.062308	0.012217
21	10.137726	0.129150	0.000000	-9.417600	0.117720	0.010448	0.026866	0.246667	0.009774	-0.057421	0.007330
22	10.266785	0.178223	0.000000	-9.417600	0.117720	0.007463	0.025373	0.245000	0.007330	-0.062308	0.013439
23	10.395782	0.147247	-0.117720	-9.535320	0.117720	0.011940	0.026866	0.248333	0.007330	-0.059865	0.004887
24	10.524872	0.196350	0.117720	-9.182160	0.000000	0.011940	0.025373	0.246667	0.021991	-0.063530	0.006109
25	10.653931	0.165436	0.117720	-9.417600	0.000000	0.011940	0.025373	0.248333	0.006109	-0.065973	0.003665
26	10.782990	0.134521	0.000000	-9.417600	0.117720	0.008955	0.023881	0.246667	0.014661	-0.056200	0.008552
27	10.912048	0.183594	0.000000	-9.417600	0.117720	0.011940	0.026866	0.248333	0.015882	-0.061087	0.008552
28	11.041107	0.152679	-0.235440	-9.299880	0.235440	0.008955	0.023881	0.246667	-0.001222	-0.062308	0.006109
29	11.170135	0.201721	0.000000	-9.417600	0.000000	0.011940	0.025373	0.246667	0.007330	-0.058643	0.006109
30	11.299225	0.170837	-0.117720	-9.535320	0.000000	0.011940	0.025373	0.248333	0.012217	-0.061087	0.006109
31	11.428314	0.139954	0.000000	-9.417600	0.000000	0.008955	0.023881	0.245000	0.002443	-0.059865	0.003665
32	11.557373	0.189026	0.000000	-9.299880	0.117720	0.010448	0.023881	0.245000	0.019548	-0.064752	0.004887
33	11.686493	0.158173	0.000000	-9.417600	0.000000	0.008955	0.025373	0.246667	0.015882	-0.068417	0.009774
34	11.815582	0.126495	0.000000	-9.535320	0.000000	0.010448	0.026866	0.248333	0.006109	-0.064752	0.015882
35	11.944641	0.176361	0.000000	-9.535320	0.000000	0.010448	0.025373	0.245000	0.008552	-0.062308	0.007330
36	12.073730	0.145477	0.000000	-9.653040	0.117720	0.008955	0.023881	0.250000	0.006109	-0.061087	0.009774
37	12.202789	0.194550	0.000000	-9.417600	0.117720	0.010448	0.023881	0.245000	0.004887	-0.059865	0.004887
38	12.331848	0.163635	0.117720	-9.417600	0.000000	0.008955	0.025373	0.245000	0.019548	-0.061087	0.008552
39	12.460938	0.132751	0.117720	-9.535320	0.117720	0.008955	0.023881	0.248333	0.004887	-0.061087	0.001222
40	12.590027	0.181854	0.000000	-9.417600	0.117720	0.010448	0.023881	0.248333	0.019548	-0.063530	0.003665
41	12.719086	0.150940	0.000000	-9.064440	0.000000	0.010448	0.022388	0.245000	0.004887	-0.053756	0.004887
42	12.848175	0.200043	0.000000	-9.417600	0.235440	0.008955	0.023881	0.246667	0.010996	-0.059865	0.006109
43	12.977234	0.169128	0.000000	-9.417600	0.235440	0.010448	0.023881	0.246667	0.008552	-0.061087	0.004887
44	13.106293	0.138214	0.000000	-9.417600	0.117720	0.010448	0.022388	0.248333	0.010996	-0.058643	0.002443
45	13.235352	0.187286	-0.235440	-9.182160	0.000000	0.010448	0.023881	0.246667	0.010996	-0.058643	0.004887
46	13.364410	0.156372	0.000000	-9.299880	0.000000	0.010448	0.023881	0.246667	0.007330	-0.059865	0.004887
47	13.493500	0.205475	0.000000	-9.299880	0.000000	0.008955	0.022388	0.248333	0.007330	-0.059865	0.001222
48	13.622528	0.174530	0.000000	-9.182160	0.117720	0.010448	0.023881	0.250000	0.020769	-0.059865	0.012217
49	13.751587	0.143616	0.000000	-9.417600	0.117720	0.011940	0.025373	0.246667	0.006109	-0.057421	0.004887
50	13.880646	0.190979	0.000000	-9.417600	0.000000	0.008955	0.020896	0.248333	0.001222	-0.053756	0.000000
51	14.009705	0.161774	0.000000	-9.535320	0.117720	0.010448	0.023881	0.243333	0.007330	-0.064752	0.002443
52	14.138733	0.130829	0.117720	-9.182160	0.000000	0.010448	0.023881	0.246667	0.019548	-0.059865	0.007330
53	14.267792	0.179901	0.117720	-9.417600	0.000000	0.008955	0.023881	0.248333	0.004887	-0.056200	0.007330
54	14.396881	0.149017	0.000000	-9.299880	0.235440	0.010448	0.023881	0.248333	0.015882	-0.058643	0.001222
55	14.525940	0.198090	0.117720	-9.535320	0.000000	0.008955	0.023881	0.248333	0.013439	-0.061087	0.012217
56	14.654999	0.167175	0.117720	-9.535320	0.117720	0.008955	0.022388	0.246667	0.006109	-0.057421	0.012217
57	14.784058	0.136261	-0.117720	-9.182160	0.000000	0.011940	0.020896	0.246667	0.008552	-0.057421	0.006109
58	14.913116	0.185333	0.000000	-9.417600	0.235440	0.010448	0.022388	0.246667	0.017104	-0.056200	0.007330
59	15.042236	0.154480	-0.117720	-9.417600	0.235440	0.013433	0.023881	0.246667	0.017104	-0.064752	0.009774
60	15.171356	0.203613	0.000000	-9.417600	0.000000	0.010448	0.022388	0.248333	0.013439	-0.061087	0.007330
61	15.300446	0.172729	0.000000	-9.535320	0.235440	0.008955	0.023881	0.248333	0.008552	-0.058643	0.006109
62	15.429565	0.141876	0.000000	-9.417600	0.117720	0.010448	0.023881	0.245000	0.015882	-0.063530	0.006109
63	15.558655	0.190979	0.000000	-9.417600	0.000000	0.013433	0.022388	0.246667	0.010996	-0.061087	0.004887
64	15.688690	0.161041	0.000000	-9.417600	0.235440	0.011940	0.022388	0.248333	0.000000	-0.057421	0.007330
65	15.816864	0.129242	0.117720	-9.417600	0.235440	0.007463	0.020896	0.246667	0.009774	-0.058643	0.008552
66	15.945953	0.178345	0.000000	-9.299880	0.117720	0.010448	0.023881	0.250000	0.000000	-0.061087	0.003665
67	16.075043	0.147461	0.000000	-9.417600	0.000000	0.010448	0.025373	0.246667	0.015882	-0.056200	0.004887
68	16.204102	0.196533	0.000000	-9.299880	0.117720	0.011940	0.020896	0.245000	0.006109	-0.056200	0.003665
69	16.333191	0.165649	0.000000	-9.417600	0.000000	0.011940	0.020896	0.245000	0.018326	-0.061087	0.004887
70	16.462280	0.134766	0.000000	-9.417600	0.235440	0.013433	0.022388	0.246667	0.009774	-0.056200	0.010996
71	16.591370	0.183868	-0.117720	-9.417600	0.117720	0.010448	0.023881	0.248333	0.013439	-0.061087	0.008552
72	16.720459	0.152985	0.000000	-9.417600	0.117720	0.008955	0.022388	0.248333	0.006109	-0.061087	0.006109
73	16.849548	0.202087	0.235440	-9.417600	0.235440	0.011940	0.023881	0.248333	0.014661	-0.058643	0.001222
74	16.978638	0.171204	0.000000	-9.535320	0.117720	0.008955	0.020896	0.246667	0.012217	-0.057421	0.006109
75	17.107758	0.140350	0.117720	-9.299880	0.117720	0.010448	0.022388	0.246667	0.007330	-0.057421	0.006109
76	17.236877	0.189484	0.000000	-9.299880	0.000000	0.011940	0.025373	0.248333	0.002443	-0.056200	0.008552
77	17.365967	0.158600	-0.117720	-9.299880	0.000000	0.011940	0.022388	0.246667	0.015882	-0.054978	0.006109
78	17.495087	0.126495	0.000000	-9.417600	0.000000	0.013433	0.020896	0.246667	0.012217	-0.059865	0.010996
79	17.624237	0.176910	0.000000	-9.299880	0.117720	0.010448	0.020896	0.248333	0.013439	-0.059865	0.012217
80	17.753326	0.146027	0.000000	-9.417600	0.235440	0.010448	0.023881	0.248333	0.004887	-0.058643	0.007330
81	17.882446	0.195160	0.000000	-9.417600	0.117720	0.008955	0.023881	0.246667	0.004887	-0.062308	0.006109
82	18.011536	0.164276	0.000000	-9.299880	0.353160	0.013433	0.022388	0.246667	0.026878	-0.052534	0.008552
83	18.140625	0.133392	0.117720	-9.653040	0.824040	0.013433	0.022388	0.246667	0.007330	0.000000	0.009774
84	18.269714	0.182495	0.117720	-9.299880	1.059480	0.008955	0.020896	0.255000	0.012217	0.081856	0.012217
85	18.398804	0.151611	0.117720	-9.299880	1.177200	0.004478	0.019403	0.265000	-0.002443	0.147829	0.025656
86	18.527924	0.200745	0.353160	-9.417600	1.530360	0.000000	0.020896	0.281667	-0.003665	0.274889	0.023213
87	18.657043	0.169891	0.588600	-9.417600	1.648080	-0.011940	0.016418	0.305000	0.001222	0.404393	0.020769
88	18.786102	0.138977	0.706320	-9.182160	1.177200	-0.029851	0.013433	0.333333	-0.017104	0.505796	0.019548
89	18.915161	0.188049	0.941760	-9.299880	0.353160	-0.055224	0.011940	0.361667	-0.006109	0.547335	0.015882
90	19.044250	0.157166	0.824040	-9.417600	-0.235440	-0.083582	0.008955	0.385000	-0.019548	0.533896	0.014661
91	19.173370	0.126312	1.059480	-9.417600	-0.235440	-0.114925	0.007463	0.406667	-0.003665	0.500909	0.021991
92	19.302460	0.175415	0.470880	-9.299880	-0.588600	-0.144776	0.010448	0.418333	-0.017104	0.450819	0.007330
93	19.431519	0.144501	0.353160	-9.535320	-0.353160	-0.173134	0.011940	0.428333	-0.006109	0.400728	0.012217
94	19.560638	0.191071	0.235440	-9.653040	-0.353160	-0.200000	0.014925	0.433333	-0.006109	0.360410	0.013439
95	19.689758	0.162781	0.235440	-9.417600	-0.706320	-0.226866	0.016418	0.433333	-0.013439	0.293215	0.013439
96	19.818848	0.131897	0.117720	-9.417600	-0.941760	-0.247761	0.017910	0.428333	-0.001222	0.202807	0.009774
97	19.947937	0.181000	0.000000	-9.653040	-0.941760	-0.262687	0.019403	0.426667	0.001222	0.101404	0.008552
98	20.076996	0.150085	-0.117720	-9.182160	-0.824040	-0.273134	0.019403	0.423333	0.013439	0.001222	0.000000
99	20.206085	0.199188	0.000000	-9.417600	-0.117720	-0.274627	0.019403	0.421667	0.000000	-0.036652	0.004887
100	20.335175	0.168304	-0.117720	-9.417600	0.117720	-0.276119	0.019403	0.421667	0.015882	-0.052534	0.006109
101	20.464294	0.137451	0.000000	-9.417600	0.235440	-0.277612	0.019403	0.421667	0.012217	-0.052534	0.014661
102	20.593353	0.186523	0.000000	-9.535320	0.117720	-0.277612	0.020896	0.423333	0.009774	-0.043982	0.007330
103	20.722412	0.155609	0.000000	-9.417600	0.000000	-0.277612	0.019403	0.421667	0.007330	-0.052534	0.007330
104	20.851532	0.204742	0.000000	-9.535320	0.235440	-0.280597	0.019403	0.421667	0.007330	-0.056200	0.009774
105	20.980591	0.173828	0.000000	-9.299880	0.235440	-0.279104	0.019403	0.425000	0.013439	-0.062308	-0.001222
106	21.109680	0.142944	0.000000	-9.417600	0.353160	-0.276119	0.019403	0.421667	0.013439	-0.064752	0.013439
107	21.238800	0.191071	-0.117720	-9.417600	0.235440	-0.277612	0.019403	0.420000	0.018326	-0.063530	0.010996
108	21.367889	0.161194	0.000000	-9.417600	0.353160	-0.280597	0.020896	0.420000	0.003665	-0.053756	0.013439
109	21.497009	0.130341	0.000000	-9.299880	0.117720	-0.279104	0.017910	0.421667	0.010996	-0.067195	0.007330
110	21.626099	0.179443	0.000000	-9.417600	-0.353160	-0.276119	0.019403	0.421667	0.012217	-0.108734	0.000000
111	21.755188	0.148560	-0.235440	-9.417600	-0.588600	-0.274627	0.017910	0.423333	0.012217	-0.183260	-0.002443
112	21.884277	0.197662	0.117720	-9.299880	-0.706320	-0.259701	0.017910	0.423333	0.029322	-0.267559	0.001222
113	22.013367	0.166779	0.117720	-9.299880	-0.470880	-0.246269	0.017910	0.430000	0.020769	-0.335976	-0.006109
114	22.142456	0.135895	0.000000	-9.299880	-0.235440	-0.228358	0.011940	0.430000	0.025656	-0.378736	-0.003665
115	22.271545	0.184998	0.117720	-9.417600	0.000000	-0.210448	0.014925	0.431667	0.030543	-0.394619	-0.002443
116	22.400665	0.154144	0.235440	-9.299880	0.235440	-0.188060	0.011940	0.426667	0.024435	-0.405615	0.001222
117	22.529724	0.203217	0.117720	-9.535320	0.000000	-0.165672	0.010448	0.426667	0.041539	-0.421497	0.003665
118	22.658813	0.172333	0.235440	-9.417600	0.117720	-0.147761	0.010448	0.420000	0.024435	-0.417832	0.000000
119	22.787872	0.141418	0.235440	-9.535320	0.470880	-0.126866	0.007463	0.411667	0.029322	-0.404393	0.002443
120	22.916992	0.190552	0.235440	-9.417600	0.235440	-0.108955	0.008955	0.403333	0.021991	-0.389732	-0.002443
121	23.046082	0.159668	0.117720	-9.535320	0.117720	-0.091045	0.007463	0.391667	0.034208	-0.384845	-0.001222
122	23.175171	0.126495	0.117720	-9.535320	0.117720	-0.074627	0.007463	0.380000	0.021991	-0.370184	0.000000
123	23.304260	0.177887	0.117720	-9.417600	0.235440	-0.059701	0.008955	0.365000	0.030543	-0.362854	-0.001222
124	23.433380	0.147034	0.117720	-9.417600	0.235440	-0.043284	0.008955	0.356667	0.032987	-0.343306	0.001222
125	23.562469	0.196136	0.235440	-9.299880	0.353160	-0.034328	0.011940	0.341667	0.020769	-0.323759	0.002443
126	23.691559	0.165253	0.353160	-9.417600	0.470880	-0.023881	0.011940	0.326667	0.032987	-0.311541	-0.001222
127	23.820648	0.134369	0.353160	-9.535320	0.235440	-0.016418	0.014925	0.311667	0.013439	-0.288328	0.001222
128	23.949768	0.183502	0.000000	-9.417600	0.353160	-0.008955	0.014925	0.295000	0.021991	-0.259007	0.001222
129	24.078857	0.152618	0.000000	-9.417600	0.470880	-0.001493	0.017910	0.288333	0.023213	-0.246790	0.006109
130	24.207916	0.201691	0.117720	-9.417600	0.353160	0.002985	0.016418	0.276667	0.012217	-0.218690	0.000000
131	24.337006	0.170807	0.117720	-9.417600	0.941760	0.004478	0.020896	0.265000	0.018326	-0.155160	0.008552
132	24.466095	0.139923	0.000000	-9.299880	0.235440	0.007463	0.022388	0.258333	0.009774	-0.116064	0.010996
133	24.595184	0.189026	0.000000	-9.417600	0.000000	0.007463	0.022388	0.256667	0.019548	-0.107512	0.004887
134	24.724304	0.158173	0.000000	-9.417600	0.353160	0.008955	0.022388	0.250000	0.013439	-0.105069	0.002443
135	24.853424	0.126526	0.117720	-9.417600	0.470880	0.013433	0.020896	0.251667	0.004887	-0.063530	0.008552
136	24.982513	0.176422	0.000000	-9.535320	-0.117720	0.010448	0.022388	0.250000	0.021991	-0.054978	0.007330
137	25.111664	0.145599	0.000000	-9.417600	0.000000	0.010448	0.020896	0.248333	0.012217	-0.072082	0.001222
138	25.240784	0.194733	0.000000	-9.417600	0.000000	0.011940	0.019403	0.246667	0.010996	-0.078191	0.003665
139	25.369934	0.163910	0.000000	-9.417600	0.353160	0.008955	0.020896	0.246667	0.019548	-0.050091	0.012217
140	25.499054	0.133057	0.000000	-9.417600	-0.941760	0.013433	0.023881	0.246667	0.013439	-0.061087	0.000000
141	25.628174	0.182190	-0.117720	-9.299880	0.353160	0.011940	0.017910	0.248333	0.000000	-0.052534	0.003665
142	25.757294	0.151337	0.000000	-9.299880	0.000000	0.011940	0.019403	0.245000	0.013439	-0.057421	0.017104
143	25.886383	0.200439	0.000000	-9.417600	0.117720	0.010448	0.020896	0.248333	0.012217	-0.061087	0.008552
144	26.015533	0.169617	0.117720	-9.653040	0.000000	0.013433	0.022388	0.248333	0.018326	-0.062308	0.002443
145	26.144684	0.138794	0.000000	-9.417600	0.117720	0.013433	0.022388	0.246667	0.019548	-0.058643	0.007330
146	26.273834	0.187958	0.117720	-9.417600	0.117720	0.013433	0.020896	0.246667	0.014661	-0.062308	0.007330
147	26.402954	0.157104	0.000000	-9.535320	0.000000	0.011940	0.020896	0.248333	0.018326	-0.058643	0.001222
148	26.532074	0.206238	0.000000	-9.182160	0.117720	0.010448	0.020896	0.246667	0.010996	-0.052534	0.012217
149	26.661163	0.175354	-0.117720	-9.417600	0.117720	0.013433	0.022388	0.246667	0.009774	-0.057421	0.004887
150	26.790314	0.144531	0.000000	-9.299880	0.000000	0.011940	0.022388	0.246667	0.009774	-0.057421	0.009774
151	26.919434	0.191101	0.000000	-9.535320	0.117720	0.013433	0.019403	0.248333	0.015882	-0.059865	0.007330
152	27.048584	0.162842	0.000000	-9.299880	0.000000	0.010448	0.020896	0.246667	0.008552	-0.057421	0.003665
153	27.177704	0.131989	0.000000	-9.299880	0.000000	0.013433	0.022388	0.246667	0.014661	-0.059865	0.003665
154	27.306824	0.181122	0.000000	-9.417600	0.117720	0.011940	0.020896	0.246667	0.003665	-0.061087	0.001222
155	27.435974	0.150299	0.117720	-9.535320	0.000000	0.010448	0.022388	0.246667	0.003665	-0.057421	0.004887
156	27.565094	0.199432	0.000000	-9.417600	0.117720	0.010448	0.019403	0.246667	0.000000	-0.052534	0.004887
157	27.694214	0.168579	0.000000	-9.535320	0.117720	0.013433	0.020896	0.248333	0.007330	-0.056200	0.001222
158	27.823334	0.137726	0.000000	-9.299880	0.000000	0.013433	0.020896	0.245000	0.012217	-0.059865	0.007330
159	27.952454	0.186859	0.000000	-9.417600	0.117720	0.013433	0.020896	0.248333	0.015882	-0.063530	0.009774
160	28.081604	0.156036	0.000000	-9.299880	0.235440	0.008955	0.019403	0.248333	0.008552	-0.059865	0.007330
161	28.210693	0.205139	0.000000	-9.535320	0.117720	0.011940	0.022388	0.246667	0.003665	-0.053756	0.004887
162	28.339874	0.174347	0.000000	-9.535320	0.117720	0.013433	0.019403	0.248333	0.013439	-0.058643	0.003665
163	28.468994	0.143494	0.235440	-9.535320	0.000000	0.011940	0.020896	0.245000	0.004887	-0.057421	0.003665
164	28.598114	0.191071	0.000000	-9.535320	0.235440	0.013433	0.022388	0.246667	0.007330	-0.062308	0.003665
165	28.727264	0.161804	0.000000	-9.417600	0.000000	0.013433	0.019403	0.248333	0.009774	-0.058643	0.007330
166	28.856415	0.130981	-0.117720	-9.535320	0.117720	0.010448	0.019403	0.248333	0.008552	-0.058643	0.003665
167	28.985535	0.180115	0.000000	-9.299880	0.117720	0.011940	0.019403	0.246667	0.014661	-0.064752	0.006109
168	29.114655	0.149261	-0.117720	-9.417600	0.117720	0.011940	0.022388	0.250000	0.018326	-0.058643	0.003665
169	29.243805	0.198425	0.000000	-9.417600	0.000000	0.011940	0.022388	0.248333	0.017104	-0.063530	0.007330
170	29.372925	0.167572	0.000000	-9.417600	0.117720	0.011940	0.020896	0.246667	0.019548	-0.059865	0.002443
171	29.502075	0.136749	0.000000	-9.417600	0.117720	0.011940	0.022388	0.246667	0.007330	-0.063530	0.007330
172	29.631195	0.185883	0.000000	-9.417600	0.117720	0.011940	0.020896	0.246667	0.012217	-0.062308	0.008552
173	29.760345	0.155060	0.000000	-9.417600	0.117720	0.013433	0.020896	0.246667	0.014661	-0.065973	0.004887
174	29.889496	0.204224	0.000000	-9.182160	0.000000	0.011940	0.023881	0.246667	0.007330	-0.058643	0.004887
175	30.018616	0.173370	0.000000	-9.299880	0.117720	0.011940	0.020896	0.248333	0.003665	-0.059865	0.001222
176	30.147736	0.142517	0.000000	-9.299880	0.000000	0.013433	0.020896	0.245000	0.013439	-0.056200	0.008552
177	30.276886	0.191132	0.000000	-9.535320	0.235440	0.010448	0.022388	0.246667	0.006109	-0.057421	0.007330
178	30.406219	0.161041	0.000000	-9.299880	0.235440	0.011940	0.019403	0.248333	0.009774	-0.059865	0.000000
179	30.535156	0.130005	-0.117720	-9.299880	0.470880	0.011940	0.019403	0.245000	-0.019548	-0.034208	0.014661
180	30.664276	0.179138	0.000000	-9.299880	0.117720	0.011940	0.017910	0.246667	0.017104	-0.042761	0.003665
181	30.793427	0.148315	0.000000	-9.417600	0.117720	0.010448	0.019403	0.248333	0.013439	-0.023213	0.004887
182	30.922516	0.197418	0.000000	-9.417600	1.177200	0.010448	0.020896	0.255000	0.003665	0.039095	0.018326
183	31.051666	0.166595	0.235440	-9.535320	0.470880	0.007463	0.019403	0.263333	0.000000	0.078191	0.006109
184	31.180786	0.135742	0.117720	-9.417600	1.294920	0.004478	0.019403	0.273333	-0.007330	0.160047	0.020769
185	31.309906	0.184875	0.235440	-9.417600	1.177200	-0.002985	0.016418	0.290000	0.001222	0.245568	0.015882
186	31.439056	0.154053	0.353160	-9.535320	0.941760	-0.011940	0.011940	0.308333	-0.008552	0.327424	0.021991
187	31.568207	0.203217	0.470880	-9.417600	0.706320	-0.026866	0.010448	0.328333	-0.012217	0.411723	0.024435
188	31.697357	0.172394	0.824040	-9.417600	0.588600	-0.047761	0.007463	0.355000	-0.012217	0.474031	0.020769
189	31.826538	0.141602	1.177200	-9.417600	0.353160	-0.071642	0.007463	0.380000	-0.021991	0.499688	0.020769
190	31.955688	0.190765	0.706320	-9.299880	-0.117720	-0.100000	0.008955	0.398333	-0.015882	0.472810	0.013439
191	32.084869	0.159973	0.706320	-9.299880	-0.470880	-0.129851	0.008955	0.416667	-0.010996	0.443488	0.009774
192	32.213989	0.126556	0.353160	-9.417600	-0.235440	-0.158209	0.011940	0.421667	-0.009774	0.400728	0.018326
193	32.343140	0.178284	0.470880	-9.417600	-0.117720	-0.185075	0.011940	0.428333	-0.014661	0.362854	0.015882
194	32.472290	0.147461	0.353160	-9.299880	-0.588600	-0.208955	0.011940	0.430000	-0.004887	0.304211	0.012217
195	32.601440	0.196625	0.117720	-9.417600	-0.588600	-0.229851	0.013433	0.430000	-0.004887	0.237016	0.012217
196	32.730591	0.165802	0.000000	-9.417600	-0.588600	-0.247761	0.014925	0.428333	0.153938	0.162490	0.017104
197	32.859741	0.134979	0.000000	-9.535320	-0.353160	-0.261194	0.014925	0.425000	0.003665	0.094073	0.009774
198	32.988892	0.184143	-0.117720	-9.535320	-0.941760	-0.270149	0.020896	0.423333	0.006109	0.010996	0.003665
199	33.118011	0.153290	-0.117720	-9.417600	-0.235440	-0.276119	0.019403	0.421667	0.006109	-0.045204	0.006109
200	33.247131	0.202423	0.000000	-9.535320	0.000000	-0.277612	0.019403	0.421667	0.000000	-0.052534	0.007330
201	33.376221	0.171539	0.000000	-9.417600	0.000000	-0.277612	0.020896	0.421667	0.008552	-0.063530	0.004887
202	33.505341	0.140686	0.000000	-9.417600	0.117720	-0.274627	0.019403	0.423333	0.012217	-0.070860	0.006109
203	33.634460	0.189819	0.000000	-9.417600	0.235440	-0.274627	0.019403	0.421667	0.002443	-0.056200	0.009774
204	33.763550	0.158936	0.000000	-9.417600	0.235440	-0.274627	0.017910	0.421667	0.014661	-0.063530	0.001222
205	33.892700	0.126556	0.000000	-9.417600	0.000000	-0.273134	0.019403	0.423333	0.015882	-0.065973	0.010996
206	34.021820	0.177246	-0.117720	-9.535320	0.117720	-0.274627	0.019403	0.423333	0.012217	-0.064752	0.018326
207	34.150940	0.146393	0.000000	-9.535320	0.117720	-0.273134	0.019403	0.423333	0.007330	-0.064752	0.006109
208	34.280029	0.195496	0.000000	-9.417600	0.353160	-0.276119	0.019403	0.423333	0.003665	-0.052534	0.007330
209	34.409180	0.164673	-0.235440	-9.417600	0.470880	-0.274627	0.019403	0.421667	0.007330	-0.051313	0.004887
210	34.538300	0.133820	0.000000	-9.417600	0.117720	-0.276119	0.017910	0.421667	0.015882	-0.056200	0.012217
211	34.667419	0.182953	0.000000	-9.535320	0.000000	-0.277612	0.019403	0.423333	0.010996	-0.057421	0.006109
212	34.796539	0.152100	0.117720	-9.299880	-0.706320	-0.276119	0.019403	0.421667	0.010996	-0.108734	0.007330
213	34.925659	0.201233	-0.117720	-9.299880	-1.177200	-0.268657	0.017910	0.423333	0.013439	-0.206472	-0.007330
214	35.054810	0.170410	0.000000	-9.299880	-0.706320	-0.261194	0.017910	0.425000	0.008552	-0.290772	-0.006109
215	35.183960	0.139587	0.000000	-9.299880	-0.470880	-0.244776	0.016418	0.430000	0.020769	-0.332311	-0.001222
216	35.313049	0.188690	0.117720	-9.535320	-0.353160	-0.226866	0.013433	0.431667	0.030543	-0.373850	-0.002443
217	35.442169	0.157837	0.235440	-9.182160	-0.588600	-0.205970	0.011940	0.431667	0.029322	-0.443488	-0.003665
218	35.571289	0.126526	0.235440	-9.299880	-0.353160	-0.179104	0.010448	0.426667	0.029322	-0.489914	-0.001222
219	35.700409	0.176117	0.117720	-9.417600	0.117720	-0.155224	0.008955	0.421667	0.025656	-0.480140	0.000000
220	35.829529	0.145264	0.353160	-9.417600	0.470880	-0.131343	0.005970	0.415000	0.032987	-0.464258	0.002443
221	35.958649	0.194397	0.235440	-9.299880	0.000000	-0.107463	0.007463	0.403333	0.039095	-0.480140	-0.002443
222	36.087799	0.163574	0.706320	-9.417600	-0.588600	-0.085075	0.008955	0.390000	0.043982	-0.504575	-0.010996
223	36.216919	0.132721	0.470880	-9.417600	-0.235440	-0.064179	0.004478	0.373333	0.043982	-0.557109	-0.007330
224	36.346069	0.181885	0.824040	-9.299880	0.000000	-0.041791	0.008955	0.348333	0.047647	-0.571770	-0.003665
225	36.475220	0.151062	0.706320	-9.417600	0.470880	-0.019403	0.011940	0.321667	0.048869	-0.540005	-0.001222
226	36.604370	0.200226	0.470880	-9.417600	1.412640	-0.002985	0.011940	0.296667	0.036652	-0.445932	0.009774
227	36.733521	0.169403	0.117720	-9.417600	2.001240	0.004478	0.016418	0.275000	0.018326	-0.272446	0.009774
228	36.862671	0.138580	0.235440	-9.653040	1.177200	0.007463	0.017910	0.261667	0.021991	-0.144164	0.007330
229	36.991821	0.187744	0.000000	-9.535320	0.117720	0.011940	0.016418	0.256667	0.017104	-0.120951	0.006109
230	37.120972	0.156921	-0.117720	-9.417600	0.353160	0.010448	0.020896	0.251667	0.019548	-0.103847	0.009774
231	37.250122	0.206085	0.000000	-9.182160	0.353160	0.010448	0.020896	0.250000	0.010996	-0.069639	0.006109
232	37.379272	0.175262	0.000000	-9.417600	-0.117720	0.011940	0.020896	0.246667	0.008552	-0.069639	0.014661
233	37.508362	0.144379	0.117720	-9.417600	0.235440	0.011940	0.022388	0.246667	0.004887	-0.052534	0.003665
234	37.637482	0.191071	0.000000	-9.182160	-0.824040	0.013433	0.019403	0.250000	-0.002443	-0.059865	-0.001222
235	37.766632	0.162689	0.000000	-9.417600	0.353160	0.010448	0.022388	0.246667	-0.149051	-0.057421	0.000000
236	37.895782	0.131866	0.000000	-9.417600	0.117720	0.011940	0.019403	0.246667	0.007330	-0.062308	0.004887
237	38.024902	0.181000	0.000000	-9.417600	0.000000	0.013433	0.020896	0.246667	0.004887	-0.054978	0.003665
238	38.154022	0.150146	0.117720	-9.417600	0.000000	0.010448	0.022388	0.246667	0.018326	-0.059865	0.009774
239	38.283142	0.199280	0.000000	-9.653040	0.000000	0.013433	0.019403	0.246667	0.014661	-0.061087	0.009774
240	38.412323	0.168488	-0.117720	-9.299880	0.117720	0.011940	0.020896	0.248333	0.012217	-0.062308	0.009774
241	38.541443	0.137634	0.000000	-9.417600	0.117720	0.013433	0.020896	0.246667	0.010996	-0.059865	0.009774
242	38.670593	0.186798	0.117720	-9.417600	0.117720	0.011940	0.019403	0.246667	0.013439	-0.057421	0.002443
243	38.799744	0.155975	-0.117720	-9.299880	0.117720	0.013433	0.022388	0.246667	0.014661	-0.057421	0.007330
244	38.928894	0.205139	0.000000	-9.299880	0.000000	0.010448	0.022388	0.248333	0.012217	-0.056200	0.008552
245	39.058014	0.174286	0.000000	-9.299880	0.000000	0.011940	0.019403	0.246667	0.013439	-0.056200	0.007330
246	39.187134	0.143433	-0.117720	-9.417600	0.000000	0.010448	0.020896	0.245000	0.003665	-0.061087	0.006109
247	39.316284	0.191132	0.000000	-9.299880	0.000000	0.013433	0.020896	0.248333	0.006109	-0.056200	0.009774
248	39.445404	0.161743	0.000000	-9.417600	0.117720	0.011940	0.020896	0.246667	0.006109	-0.057421	0.004887
249	39.574524	0.130890	0.000000	-9.417600	1.059480	0.010448	0.020896	0.246667	0.017104	-0.045204	0.017104
250	39.703644	0.180023	0.000000	-9.535320	0.353160	0.013433	0.020896	0.248333	0.012217	-0.007330	0.015882
251	39.832794	0.149200	0.117720	-9.535320	0.470880	0.010448	0.019403	0.253333	0.012217	0.024435	0.015882
252	39.961914	0.198334	0.117720	-9.535320	1.059480	0.007463	0.020896	0.261667	0.001222	0.095295	0.014661
253	40.091064	0.167511	0.000000	-9.299880	1.059480	0.004478	0.017910	0.273333	-0.001222	0.174707	0.018326
254	40.220215	0.136688	0.235440	-9.299880	1.412640	-0.002985	0.014925	0.291667	-0.010996	0.279776	0.023213
255	40.349365	0.185852	0.470880	-9.417600	1.294920	-0.019403	0.011940	0.315000	-0.007330	0.378736	0.021991
256	40.478516	0.155029	0.941760	-9.417600	1.177200	-0.034328	0.010448	0.338333	-0.008552	0.480140	0.024435
257	40.607666	0.204193	1.177200	-9.417600	0.470880	-0.055224	0.008955	0.365000	-0.007330	0.525344	0.026878
258	40.736816	0.173370	0.941760	-9.299880	-0.353160	-0.085075	0.007463	0.390000	-0.004887	0.507018	0.018326
259	40.865936	0.142517	0.706320	-9.417600	-0.824040	-0.114925	0.008955	0.406667	0.000000	0.423940	0.008552
260	40.995087	0.191132	0.470880	-9.299880	-0.824040	-0.141791	0.008955	0.418333	-0.009774	0.360410	0.012217
261	41.124420	0.161041	0.235440	-9.417600	-0.824040	-0.164179	0.008955	0.425000	-0.012217	0.260229	0.007330
262	41.253387	0.130035	0.000000	-9.299880	-0.941760	-0.182090	0.011940	0.431667	0.003665	0.147829	0.007330
263	41.382568	0.179230	-0.235440	-9.417600	-0.941760	-0.192537	0.011940	0.431667	0.009774	0.036652	0.000000
264	41.511688	0.148376	-0.117720	-9.535320	-1.412640	-0.194030	0.011940	0.430000	0.026878	-0.096517	-0.006109
265	41.640839	0.197540	-0.117720	-9.535320	-1.294920	-0.191045	0.011940	0.430000	0.009774	-0.194255	-0.007330
266	41.769989	0.166718	0.000000	-9.653040	-1.059480	-0.179104	0.010448	0.430000	0.028100	-0.331089	-0.006109
267	41.899109	0.135864	0.235440	-9.417600	-0.706320	-0.162687	0.010448	0.425000	0.035430	-0.426384	-0.003665
268	42.028259	0.185028	0.470880	-9.182160	-0.588600	-0.137313	0.008955	0.418333	0.040317	-0.511905	-0.007330
269	42.157410	0.154205	0.588600	-9.417600	-0.353160	-0.114925	0.007463	0.406667	0.045204	-0.568105	-0.004887
270	42.286591	0.203400	0.706320	-9.182160	-0.235440	-0.085075	0.005970	0.390000	0.042761	-0.618196	-0.009774
271	42.415741	0.172577	0.941760	-9.299880	0.353160	-0.058209	0.007463	0.366667	0.046426	-0.621861	-0.001222
272	42.544861	0.141724	0.706320	-9.535320	0.588600	-0.034328	0.008955	0.343333	0.046426	-0.566883	-0.004887
273	42.674011	0.190887	0.706320	-9.535320	1.294920	-0.016418	0.013433	0.316667	0.042761	-0.471588	0.004887
274	42.804138	0.161041	0.235440	-9.417600	1.294920	-0.004478	0.011940	0.291667	0.034208	-0.371406	0.004887
275	42.932373	0.129303	0.235440	-9.299880	1.412640	0.004478	0.016418	0.273333	0.020769	-0.262672	0.006109
276	43.061523	0.178467	0.235440	-9.535320	1.177200	0.007463	0.017910	0.261667	0.008552	-0.147829	0.007330
277	43.190674	0.147644	0.000000	-9.417600	0.235440	0.008955	0.017910	0.256667	0.008552	-0.103847	0.006109
278	43.319824	0.196808	0.000000	-9.417600	0.235440	0.010448	0.020896	0.251667	0.002443	-0.086743	0.012217
279	43.448975	0.165985	0.000000	-9.535320	0.117720	0.010448	0.017910	0.250000	0.007330	-0.085521	0.007330
280	43.578156	0.135193	0.000000	-9.299880	0.235440	0.010448	0.022388	0.250000	0.004887	-0.070860	0.000000
281	43.707336	0.184387	0.000000	-9.535320	-0.117720	0.011940	0.019403	0.246667	0.010996	-0.078191	0.003665
282	43.836548	0.153625	-0.470880	-9.653040	-0.706320	0.010448	0.019403	0.248333	0.013439	-0.128282	0.000000
283	43.965698	0.202789	-0.941760	-9.417600	-0.588600	0.013433	0.017910	0.246667	0.000000	-0.069639	-0.001222
284	44.094849	0.171967	0.000000	-9.417600	0.000000	0.011940	0.019403	0.246667	0.010996	-0.062308	0.004887
285	44.223969	0.141113	-0.117720	-9.535320	0.117720	0.011940	0.020896	0.246667	0.004887	-0.061087	0.004887
286	44.353088	0.190247	0.117720	-9.299880	-0.117720	0.013433	0.020896	0.246667	0.008552	-0.058643	-0.001222
287	44.482239	0.159424	0.000000	-9.417600	0.000000	0.010448	0.019403	0.246667	0.009774	-0.057421	0.008552
288	44.611389	0.126556	0.000000	-9.182160	0.000000	0.013433	0.019403	0.248333	0.017104	-0.054978	0.003665
289	44.740540	0.177765	0.000000	-9.417600	0.353160	0.011940	0.020896	0.245000	0.014661	-0.061087	0.013439
290	44.869659	0.146912	0.000000	-9.417600	0.353160	0.013433	0.019403	0.248333	0.015882	-0.063530	0.009774
291	44.998810	0.196075	0.000000	-9.535320	0.117720	0.013433	0.020896	0.246667	0.010996	-0.064752	0.006109
292	45.127991	0.165283	-0.117720	-9.182160	0.000000	0.013433	0.019403	0.246667	0.006109	-0.053756	0.008552
293	45.257141	0.134460	0.000000	-9.417600	0.117720	0.014925	0.019403	0.248333	-0.001222	-0.058643	0.012217
294	45.386322	0.183655	0.000000	-9.535320	0.000000	0.011940	0.019403	0.246667	0.004887	-0.052534	0.004887
295	45.515503	0.152863	0.000000	-9.417600	0.000000	0.013433	0.019403	0.246667	0.015882	-0.061087	0.004887
296	45.644653	0.202026	-0.117720	-9.417600	0.235440	0.011940	0.019403	0.248333	0.014661	-0.057421	0.014661
297	45.773804	0.171204	0.000000	-9.417600	0.000000	0.013433	0.022388	0.246667	0.009774	-0.059865	0.010996
298	45.902985	0.140411	0.000000	-9.299880	0.000000	0.010448	0.019403	0.246667	0.013439	-0.057421	0.004887
299	46.032135	0.189575	-0.117720	-9.417600	0.000000	0.010448	0.019403	0.248333	0.009774	-0.058643	0.003665
300	46.161285	0.158752	0.000000	-9.535320	0.235440	0.011940	0.020896	0.248333	0.012217	-0.057421	0.004887
301	46.290436	0.126556	0.000000	-9.417600	0.000000	0.013433	0.019403	0.248333	0.003665	-0.059865	0.003665
302	46.419617	0.177124	0.000000	-9.299880	0.000000	0.011940	0.020896	0.248333	0.008552	-0.058643	0.010996
303	46.548798	0.146332	-0.117720	-9.299880	0.235440	0.011940	0.020896	0.248333	0.007330	-0.054978	0.004887
304	46.677979	0.195526	0.117720	-9.417600	0.117720	0.011940	0.019403	0.246667	0.015882	-0.059865	0.012217
305	46.807129	0.164703	0.000000	-9.417600	0.000000	0.010448	0.020896	0.248333	0.015882	-0.063530	0.007330
306	46.936310	0.133911	0.000000	-9.417600	0.000000	0.013433	0.020896	0.248333	0.000000	-0.056200	0.002443
307	47.065521	0.183136	0.000000	-9.417600	0.000000	0.013433	0.020896	0.248333	0.009774	-0.061087	0.009774
308	47.194672	0.152313	0.000000	-9.535320	0.117720	0.011940	0.019403	0.248333	0.012217	-0.062308	0.007330
309	47.323853	0.201508	-0.117720	-9.299880	0.000000	0.011940	0.019403	0.246667	0.006109	-0.061087	0.012217
310	47.453064	0.170746	0.117720	-9.535320	0.235440	0.011940	0.020896	0.248333	0.001222	-0.057421	0.009774
311	47.582245	0.139954	0.000000	-9.535320	0.000000	0.013433	0.017910	0.246667	0.020769	-0.061087	0.001222
312	47.711426	0.189148	0.000000	-9.417600	0.000000	0.011940	0.019403	0.248333	0.009774	-0.057421	0.004887
313	47.840607	0.158356	0.000000	-9.417600	0.117720	0.010448	0.020896	0.248333	0.003665	-0.059865	0.004887
314	47.969788	0.126587	0.000000	-9.535320	0.117720	0.013433	0.016418	0.250000	0.013439	-0.057421	0.007330
315	48.098999	0.176788	0.000000	-9.535320	0.000000	0.013433	0.020896	0.246667	0.006109	-0.054978	0.007330
316	48.228180	0.145996	0.000000	-9.417600	0.117720	0.011940	0.020896	0.246667	0.001222	-0.056200	0.000000
317	48.357361	0.195190	0.000000	-9.299880	0.000000	0.010448	0.017910	0.248333	0.019548	-0.061087	0.009774
318	48.486572	0.164429	-0.117720	-9.417600	0.117720	0.013433	0.019403	0.246667	0.030543	-0.051313	0.012217
319	48.615723	0.133606	0.117720	-9.182160	-1.530360	0.014925	0.020896	0.240000	-0.074526	0.190590	0.019548
320	48.744904	0.182800	0.000000	-9.299880	0.117720	0.011940	0.019403	0.243333	0.012217	-0.058643	0.007330
