# FOX Logger (IMU file)
# (c) INRIA 2013
## File created from file data/maison.raw
#
# File format:
# id	t	dt	ax	ay	az	mx	my	mz	gx	gy	gz
#
# Units:
#	Time: s
#	Acceleration: m.s^-2
#	Magnetic field: gauss
#	Rotation speed: rad.s^-1
#
1	7.555725	7.555725	0.000000	-9.535320	0.117720	-0.317910	-0.013433	-0.398333	0.007330	-0.058643	0.003665
2	7.684692	0.155701	-0.235440	-9.299880	0.235440	-0.337313	-0.020896	-0.395000	0.006109	-0.061087	0.004887
3	7.813660	0.204681	0.000000	-9.299880	0.235440	-0.329851	-0.007463	-0.403333	0.021991	-0.059865	0.009774
4	7.942566	0.173615	0.000000	-9.299880	0.117720	-0.340299	-0.007463	-0.386667	0.013439	-0.057421	0.002443
5	8.071533	0.142609	0.000000	-9.417600	0.353160	-0.332836	-0.005970	-0.393333	0.010996	-0.057421	0.009774
6	8.200439	0.190796	0.000000	-9.417600	0.000000	-0.332836	0.000000	-0.395000	0.017104	-0.063530	0.012217
7	8.329926	0.161041	-0.117720	-9.299880	0.000000	-0.337313	-0.001493	-0.386667	-0.001222	-0.057421	0.010996
8	8.458344	0.129486	0.117720	-9.299880	0.117720	-0.352239	-0.001493	-0.371667	0.012217	-0.056200	0.009774
9	8.587280	0.178436	0.000000	-9.417600	0.000000	-0.355224	0.000000	-0.365000	0.007330	-0.058643	0.012217
10	8.716217	0.147400	0.000000	-9.299880	0.117720	-0.356716	-0.004478	-0.366667	0.013439	-0.056200	0.002443
11	8.845154	0.196350	-0.117720	-9.417600	0.235440	-0.361194	-0.005970	-0.361667	0.009774	-0.058643	0.015882
12	8.974060	0.165283	0.117720	-9.417600	0.000000	-0.368657	-0.007463	-0.351667	0.006109	-0.062308	0.007330
13	9.103027	0.134277	0.000000	-9.299880	0.235440	-0.365672	-0.005970	-0.353333	0.015882	-0.056200	0.008552
14	9.231964	0.183228	0.000000	-9.299880	0.117720	-0.376119	-0.008955	-0.340000	0.001222	-0.058643	0.002443
15	9.360931	0.152222	0.000000	-9.417600	0.235440	-0.380597	-0.008955	-0.330000	0.019548	-0.064752	0.003665
16	9.489868	0.201172	0.000000	-9.299880	0.235440	-0.374627	-0.005970	-0.338333	0.006109	-0.057421	0.006109
17	9.618835	0.170166	0.000000	-9.417600	0.235440	-0.368657	-0.007463	-0.341667	0.018326	-0.067195	0.003665
18	9.747742	0.139099	0.000000	-9.417600	0.117720	-0.365672	-0.004478	-0.350000	0.002443	-0.057421	0.013439
19	9.876709	0.188080	0.000000	-9.535320	0.235440	-0.359701	-0.004478	-0.350000	0.014661	-0.064752	0.003665
20	10.005676	0.157074	-0.117720	-9.535320	0.117720	-0.365672	-0.007463	-0.348333	0.003665	-0.058643	0.004887
21	10.134644	0.206055	0.000000	-9.417600	0.235440	-0.374627	-0.007463	-0.331667	0.018326	-0.062308	0.007330
22	10.263611	0.175049	0.000000	-9.417600	0.117720	-0.376119	-0.008955	-0.336667	0.010996	-0.061087	0.004887
23	10.392578	0.144043	-0.117720	-9.535320	0.117720	-0.367164	-0.013433	-0.330000	0.008552	-0.061087	0.006109
24	10.521576	0.190887	0.000000	-9.299880	0.353160	-0.361194	-0.008955	-0.328333	0.006109	-0.058643	0.009774
25	10.650574	0.162079	0.000000	-9.299880	0.117720	-0.361194	-0.008955	-0.328333	0.006109	-0.059865	0.007330
26	10.779572	0.131104	0.000000	-9.535320	0.000000	-0.353731	-0.010448	-0.335000	0.020769	-0.058643	0.008552
27	10.908539	0.180084	0.000000	-9.535320	0.117720	-0.347761	-0.010448	-0.340000	0.015882	-0.063530	0.004887
28	11.037537	0.149109	0.000000	-9.417600	0.353160	-0.347761	-0.013433	-0.341667	0.001222	-0.059865	0.012217
29	11.166504	0.198090	-0.117720	-9.653040	0.117720	-0.347761	-0.016418	-0.341667	0.002443	-0.056200	0.014661
30	11.295471	0.167084	0.000000	-9.535320	0.000000	-0.346269	-0.013433	-0.340000	0.010996	-0.061087	0.000000
31	11.424438	0.136078	0.000000	-9.299880	0.117720	-0.344776	-0.014925	-0.338333	0.017104	-0.063530	0.001222
32	11.553406	0.185059	0.000000	-9.417600	0.353160	-0.347761	-0.014925	-0.338333	0.014661	-0.061087	0.010996
33	11.682404	0.154083	0.000000	-9.417600	0.117720	-0.346269	-0.013433	-0.335000	0.019548	-0.053756	0.004887
34	11.811401	0.203094	-0.117720	-9.417600	0.235440	-0.346269	-0.013433	-0.340000	0.014661	-0.063530	0.008552
35	11.940399	0.172119	0.000000	-9.299880	0.470880	-0.341791	-0.013433	-0.345000	0.008552	-0.058643	0.009774
36	12.069397	0.141144	0.000000	-9.535320	0.235440	-0.338806	-0.014925	-0.345000	0.006109	-0.053756	0.006109
37	12.198395	0.190155	-0.117720	-9.299880	0.117720	-0.341791	-0.014925	-0.345000	-0.002443	-0.047647	0.007330
38	12.327393	0.159180	0.000000	-9.417600	0.117720	-0.344776	-0.016418	-0.341667	0.000000	-0.058643	0.009774
39	12.456390	0.126404	0.235440	-9.417600	0.235440	-0.350746	-0.016418	-0.328333	0.007330	-0.069639	0.013439
40	12.585358	0.177185	0.000000	-9.299880	0.235440	-0.350746	-0.014925	-0.326667	0.017104	-0.065973	0.009774
41	12.714386	0.146240	-0.117720	-9.417600	0.353160	-0.349254	-0.016418	-0.328333	0.012217	-0.051313	0.006109
42	12.843384	0.195251	0.000000	-9.182160	0.235440	-0.347761	-0.016418	-0.328333	0.012217	-0.058643	0.006109
43	12.972382	0.164276	-0.117720	-9.535320	0.000000	-0.344776	-0.014925	-0.333333	0.020769	-0.069639	0.010996
44	13.101349	0.133270	0.000000	-9.535320	0.235440	-0.341791	-0.013433	-0.336667	0.004887	-0.052534	0.006109
45	13.230347	0.182281	0.000000	-9.299880	0.235440	-0.340299	-0.016418	-0.335000	0.001222	-0.047647	0.003665
46	13.359314	0.151276	-0.235440	-9.535320	0.117720	-0.344776	-0.013433	-0.330000	0.013439	-0.068417	0.004887
47	13.488312	0.200287	0.000000	-9.299880	0.353160	-0.344776	-0.013433	-0.335000	0.012217	-0.056200	0.004887
48	13.617279	0.169281	0.000000	-9.535320	0.117720	-0.344776	-0.013433	-0.333333	0.004887	-0.059865	0.008552
49	13.746246	0.138275	0.000000	-9.417600	0.235440	-0.344776	-0.013433	-0.331667	0.009774	-0.059865	0.007330
50	13.875214	0.187256	-0.117720	-9.417600	0.235440	-0.343284	-0.014925	-0.330000	0.009774	-0.056200	0.008552
51	14.004211	0.156281	0.000000	-9.182160	0.117720	-0.343284	-0.014925	-0.330000	0.008552	-0.070860	0.006109
52	14.133209	0.205292	0.000000	-9.417600	0.117720	-0.344776	-0.017910	-0.328333	0.000000	-0.058643	0.007330
53	14.262207	0.174316	-0.117720	-9.417600	0.470880	-0.343284	-0.016418	-0.331667	-0.149051	-0.046426	0.003665
54	14.391174	0.143311	-0.117720	-9.299880	0.000000	-0.341791	-0.014925	-0.328333	0.008552	-0.053756	0.008552
55	14.520172	0.190887	0.000000	-9.299880	0.235440	-0.343284	-0.016418	-0.325000	0.020769	-0.063530	0.007330
56	14.649200	0.161377	-0.117720	-9.417600	0.235440	-0.344776	-0.016418	-0.325000	0.018326	-0.067195	0.006109
57	14.778229	0.130432	0.000000	-9.417600	0.117720	-0.344776	-0.016418	-0.323333	0.007330	-0.056200	0.002443
58	14.907227	0.179443	0.000000	-9.653040	0.117720	-0.344776	-0.016418	-0.326667	0.017104	-0.065973	0.007330
59	15.036224	0.148468	0.000000	-9.417600	0.117720	-0.343284	-0.016418	-0.330000	0.019548	-0.075747	0.004887
60	15.165222	0.197479	0.000000	-9.182160	0.117720	-0.338806	-0.017910	-0.328333	0.019548	-0.072082	0.008552
61	15.294281	0.166565	0.000000	-9.299880	0.117720	-0.337313	-0.016418	-0.338333	0.012217	-0.075747	0.008552
62	15.423279	0.135590	0.000000	-9.417600	0.117720	-0.328358	-0.016418	-0.341667	0.017104	-0.072082	0.006109
63	15.552277	0.184601	0.000000	-9.299880	0.117720	-0.328358	-0.014925	-0.341667	0.026878	-0.072082	0.003665
64	15.681244	0.153595	0.117720	-9.417600	0.117720	-0.329851	-0.014925	-0.343333	0.006109	-0.068417	0.006109
65	15.810272	0.202637	0.000000	-9.299880	0.117720	-0.329851	-0.014925	-0.340000	0.009774	-0.057421	0.008552
66	15.939270	0.171661	0.117720	-9.417600	0.000000	-0.328358	-0.016418	-0.340000	0.004887	-0.058643	0.001222
67	16.068268	0.140686	0.000000	-9.299880	0.117720	-0.329851	-0.013433	-0.338333	-0.001222	-0.046426	0.003665
68	16.197296	0.189728	0.000000	-9.299880	0.353160	-0.331343	-0.014925	-0.336667	0.004887	-0.052534	0.007330
69	16.326324	0.158783	0.000000	-9.535320	0.353160	-0.328358	-0.011940	-0.338333	0.008552	-0.062308	0.009774
70	16.455322	0.126404	0.000000	-9.299880	0.000000	-0.329851	-0.011940	-0.338333	0.006109	-0.064752	0.008552
71	16.584351	0.176849	0.117720	-9.417600	0.000000	-0.329851	-0.014925	-0.336667	0.008552	-0.067195	0.001222
72	16.713318	0.145844	-0.117720	-9.299880	0.000000	-0.334328	-0.016418	-0.338333	0.000000	-0.052534	0.006109
73	16.842316	0.194855	0.117720	-9.417600	0.117720	-0.341791	-0.016418	-0.325000	0.012217	-0.050091	0.002443
74	16.971313	0.163879	-0.235440	-9.535320	0.117720	-0.340299	-0.016418	-0.320000	0.000000	-0.053756	0.003665
75	17.100342	0.132935	0.000000	-9.535320	0.235440	-0.338806	-0.016418	-0.320000	0.007330	-0.062308	0.007330
76	17.229340	0.181946	0.000000	-9.535320	0.117720	-0.335821	-0.019403	-0.323333	0.017104	-0.069639	0.009774
77	17.358337	0.150970	0.000000	-9.299880	0.117720	-0.338806	-0.022388	-0.325000	0.015882	-0.070860	0.007330
78	17.487335	0.199982	0.000000	-9.417600	0.117720	-0.343284	-0.022388	-0.315000	0.008552	-0.064752	0.010996
79	17.616364	0.169037	-0.117720	-9.417600	0.117720	-0.346269	-0.022388	-0.316667	0.014661	-0.064752	0.010996
80	17.745422	0.138123	-0.117720	-9.299880	0.235440	-0.346269	-0.020896	-0.313333	0.007330	-0.059865	0.007330
81	17.874481	0.187195	0.000000	-9.535320	0.117720	-0.346269	-0.022388	-0.311667	0.006109	-0.068417	0.002443
82	18.003540	0.156281	0.000000	-9.299880	0.117720	-0.346269	-0.022388	-0.313333	0.008552	-0.062308	0.007330
83	18.132599	0.205353	0.000000	-9.535320	0.235440	-0.347761	-0.022388	-0.313333	-0.001222	-0.053756	0.008552
84	18.261658	0.174438	0.000000	-9.417600	0.000000	-0.346269	-0.023881	-0.311667	0.009774	-0.063530	0.003665
85	18.390747	0.143555	-0.117720	-9.417600	0.235440	-0.343284	-0.022388	-0.320000	0.007330	-0.061087	0.006109
86	18.519775	0.190979	0.000000	-9.417600	0.117720	-0.340299	-0.020896	-0.325000	0.004887	-0.048869	0.006109
87	18.648804	0.161652	0.000000	-9.417600	0.117720	-0.337313	-0.020896	-0.326667	0.006109	-0.061087	0.002443
88	18.777832	0.130707	0.000000	-9.299880	-0.706320	-0.331343	-0.020896	-0.330000	0.009774	-0.045204	-0.001222
89	18.906891	0.179779	-0.117720	-9.417600	-0.117720	-0.328358	-0.017910	-0.333333	0.019548	-0.068417	0.000000
90	19.035950	0.148865	-0.117720	-9.299880	0.117720	-0.277612	-0.014925	-0.370000	-0.046426	0.122173	0.021991
91	19.164978	0.197906	0.000000	-9.417600	0.117720	-0.097015	-0.007463	-0.430000	0.002443	-0.004887	-0.004887
92	19.293976	0.166931	0.000000	-9.417600	0.235440	0.125373	0.004478	-0.341667	0.008552	-0.017104	0.008552
93	19.423004	0.135986	0.000000	-9.299880	0.117720	0.297015	0.005970	-0.195000	-0.001222	0.009774	0.000000
94	19.552032	0.185028	0.000000	-9.535320	0.117720	0.383582	0.004478	-0.006667	0.013439	-0.007330	0.002443
95	19.681061	0.154083	0.000000	-9.535320	0.353160	0.368657	0.002985	0.170000	0.008552	0.018326	0.008552
96	19.810120	0.203156	0.000000	-9.299880	0.353160	0.285075	0.002985	0.303333	0.008552	0.061087	0.008552
97	19.939117	0.172180	0.000000	-9.417600	0.353160	0.183582	0.002985	0.361667	0.010996	0.079412	0.009774
98	20.068146	0.141235	0.117720	-9.417600	0.470880	0.097015	0.001493	0.370000	0.008552	0.102625	0.006109
99	20.197144	0.190247	0.000000	-9.417600	0.235440	0.043284	0.004478	0.363333	0.004887	0.133169	0.010996
100	20.326172	0.159302	0.000000	-9.299880	0.588600	0.011940	0.002985	0.356667	0.007330	0.166155	0.018326
101	20.455200	0.126434	0.117720	-9.299880	0.588600	-0.007463	0.005970	0.356667	-0.002443	0.211359	0.015882
102	20.584259	0.177429	0.117720	-9.417600	0.706320	-0.023881	0.004478	0.360000	-0.003665	0.246790	0.009774
103	20.713257	0.146454	0.117720	-9.417600	0.470880	-0.037313	0.002985	0.371667	-0.007330	0.288328	0.014661
104	20.842316	0.195526	0.235440	-9.299880	0.470880	-0.053731	0.004478	0.385000	0.000000	0.306654	0.014661
105	20.971344	0.164581	0.235440	-9.299880	-0.117720	-0.074627	0.002985	0.401667	0.000000	0.301767	0.014661
106	21.100342	0.133606	0.117720	-9.535320	0.117720	-0.091045	0.004478	0.411667	-0.008552	0.273668	0.010996
107	21.229340	0.182617	0.000000	-9.417600	0.117720	-0.108955	0.002985	0.420000	-0.003665	0.240681	0.008552
108	21.358337	0.151642	0.000000	-9.417600	-0.117720	-0.126866	0.002985	0.428333	-0.004887	0.235794	0.013439
109	21.487396	0.200714	0.000000	-9.417600	0.353160	-0.144776	0.004478	0.436667	-0.001222	0.222355	0.010996
110	21.616455	0.169800	0.000000	-9.299880	0.470880	-0.159701	0.005970	0.438333	-0.003665	0.234572	0.014661
111	21.745483	0.138855	0.117720	-9.417600	0.117720	-0.176119	0.005970	0.441667	-0.001222	0.241903	0.008552
112	21.874542	0.187927	0.117720	-9.299880	0.000000	-0.197015	0.007463	0.445000	-0.002443	0.234572	0.013439
113	22.003571	0.156982	0.117720	-9.299880	0.000000	-0.214925	0.008955	0.446667	0.001222	0.202807	0.009774
114	22.132599	0.206024	0.000000	-9.417600	-0.117720	-0.229851	0.010448	0.446667	0.002443	0.169821	0.010996
115	22.261597	0.175049	0.000000	-9.417600	-0.235440	-0.243284	0.013433	0.443333	0.001222	0.125838	0.007330
116	22.390594	0.144073	-0.117720	-9.535320	-0.117720	-0.255224	0.011940	0.441667	0.001222	0.078191	0.004887
117	22.519623	0.190918	-0.117720	-9.299880	-0.353160	-0.264179	0.013433	0.440000	0.003665	0.032987	0.003665
118	22.648621	0.162140	-0.235440	-9.417600	-0.235440	-0.270149	0.014925	0.438333	0.001222	-0.012217	0.010996
119	22.777679	0.131226	0.000000	-9.417600	0.000000	-0.270149	0.016418	0.438333	0.013439	-0.048869	0.007330
120	22.906708	0.180267	-0.117720	-9.299880	0.117720	-0.270149	0.017910	0.435000	0.015882	-0.056200	0.009774
121	23.035767	0.149353	-0.117720	-9.417600	0.353160	-0.273134	0.016418	0.438333	0.001222	-0.051313	0.009774
122	23.164825	0.198425	0.000000	-9.417600	0.353160	-0.274627	0.016418	0.438333	0.001222	-0.057421	0.010996
123	23.293884	0.167511	0.000000	-9.299880	0.353160	-0.271642	0.017910	0.435000	0.015882	-0.061087	0.009774
124	23.422913	0.136566	-0.117720	-9.182160	0.235440	-0.271642	0.014925	0.436667	0.010996	-0.053756	0.008552
125	23.551971	0.185638	-0.117720	-9.535320	0.235440	-0.273134	0.014925	0.435000	0.000000	-0.054978	0.006109
126	23.681030	0.154724	0.000000	-9.653040	0.235440	-0.271642	0.019403	0.440000	0.017104	-0.056200	0.010996
127	23.810089	0.203796	0.000000	-9.417600	0.235440	-0.271642	0.014925	0.436667	0.007330	-0.057421	0.008552
128	23.939148	0.172882	0.000000	-9.417600	0.117720	-0.273134	0.016418	0.436667	0.012217	-0.061087	0.002443
129	24.068176	0.141937	-0.117720	-9.535320	0.353160	-0.271642	0.016418	0.436667	0.017104	-0.062308	0.006109
130	24.197235	0.190979	0.000000	-9.417600	0.353160	-0.273134	0.017910	0.436667	0.015882	-0.059865	0.007330
131	24.327271	0.161072	-0.117720	-9.299880	0.235440	-0.273134	0.016418	0.436667	-0.001222	-0.057421	0.006109
132	24.455353	0.129181	0.000000	-9.417600	0.000000	-0.271642	0.016418	0.438333	0.010996	-0.061087	0.007330
133	24.584381	0.178223	-0.235440	-9.417600	0.117720	-0.271642	0.014925	0.436667	0.021991	-0.067195	0.012217
134	24.713440	0.147308	0.000000	-9.417600	0.117720	-0.273134	0.016418	0.438333	0.000000	-0.061087	0.006109
135	24.842499	0.196381	-0.117720	-9.417600	0.117720	-0.271642	0.016418	0.436667	-0.149051	-0.063530	0.008552
136	24.971558	0.165466	0.000000	-9.417600	0.235440	-0.273134	0.014925	0.438333	0.021991	-0.068417	0.003665
137	25.100586	0.134521	0.000000	-9.653040	0.353160	-0.273134	0.016418	0.438333	0.012217	-0.063530	0.008552
138	25.229614	0.183563	-0.117720	-9.299880	0.235440	-0.271642	0.016418	0.436667	0.009774	-0.058643	0.009774
139	25.358673	0.152649	0.000000	-9.299880	0.353160	-0.268657	0.016418	0.436667	0.004887	-0.052534	0.008552
140	25.487732	0.201721	0.000000	-9.417600	0.117720	-0.271642	0.014925	0.438333	0.004887	-0.058643	0.010996
141	25.616760	0.170776	-0.117720	-9.535320	0.353160	-0.271642	0.016418	0.436667	0.015882	-0.057421	0.000000
142	25.745789	0.139832	0.000000	-9.417600	0.000000	-0.273134	0.016418	0.438333	0.013439	-0.058643	0.007330
143	25.874847	0.188904	-0.117720	-9.535320	0.353160	-0.273134	0.013433	0.438333	0.004887	-0.057421	0.006109
144	26.003876	0.157959	0.000000	-9.535320	0.117720	-0.271642	0.016418	0.440000	0.003665	-0.061087	0.006109
145	26.132874	0.126404	-0.117720	-9.417600	0.117720	-0.273134	0.016418	0.440000	0.003665	-0.061087	0.010996
146	26.261902	0.176025	0.000000	-9.417600	0.235440	-0.273134	0.013433	0.438333	0.003665	-0.052534	0.003665
147	26.390961	0.145111	-0.117720	-9.417600	0.235440	-0.273134	0.014925	0.438333	0.018326	-0.058643	0.006109
148	26.519989	0.194153	0.000000	-9.535320	0.117720	-0.271642	0.016418	0.438333	0.013439	-0.061087	-0.001222
149	26.649048	0.163239	0.000000	-9.417600	0.235440	-0.270149	0.016418	0.438333	0.007330	-0.059865	0.008552
150	26.778076	0.132294	0.000000	-9.299880	0.353160	-0.268657	0.016418	0.435000	0.006109	-0.054978	0.010996
151	26.907104	0.181335	-0.117720	-9.417600	0.117720	-0.268657	0.013433	0.436667	0.000000	-0.054978	0.002443
152	27.036102	0.150360	0.000000	-9.535320	0.353160	-0.270149	0.017910	0.436667	0.006109	-0.058643	0.009774
153	27.165131	0.199402	0.000000	-9.299880	0.117720	-0.271642	0.014925	0.435000	0.004887	-0.058643	0.001222
154	27.294159	0.168457	-0.117720	-9.417600	0.117720	-0.270149	0.014925	0.438333	0.000000	-0.061087	0.008552
155	27.423187	0.137512	0.000000	-9.417600	0.353160	-0.268657	0.016418	0.436667	0.013439	-0.058643	0.009774
156	27.552246	0.186584	0.117720	-9.417600	0.117720	-0.271642	0.016418	0.436667	0.010996	-0.067195	0.008552
157	27.681305	0.155670	-0.117720	-9.417600	-0.235440	-0.268657	0.016418	0.438333	0.006109	-0.095295	0.003665
158	27.810333	0.204712	0.000000	-9.417600	0.000000	-0.265672	0.017910	0.438333	0.003665	-0.129503	0.009774
159	27.939392	0.173798	-0.117720	-9.299880	-0.117720	-0.261194	0.014925	0.440000	0.026878	-0.162490	-0.002443
160	28.068451	0.142883	0.000000	-9.417600	-0.117720	-0.253731	0.013433	0.440000	0.015882	-0.212581	0.008552
161	28.197510	0.191010	0.117720	-9.299880	0.000000	-0.241791	0.011940	0.441667	0.013439	-0.235794	0.006109
162	28.326569	0.161041	0.000000	-9.299880	-0.117720	-0.231343	0.008955	0.446667	0.018326	-0.267559	-0.003665
163	28.455597	0.130096	0.117720	-9.417600	-0.117720	-0.214925	0.010448	0.446667	0.029322	-0.310320	-0.001222
164	28.584656	0.179169	0.117720	-9.299880	0.000000	-0.201493	0.010448	0.441667	0.019548	-0.334754	-0.003665
165	28.713684	0.148224	0.000000	-9.299880	0.000000	-0.183582	0.005970	0.445000	0.023213	-0.365297	-0.008552
166	28.842712	0.197266	0.117720	-9.299880	0.117720	-0.165672	0.005970	0.440000	0.015882	-0.379958	0.002443
167	28.971771	0.166351	0.000000	-9.417600	0.117720	-0.146269	0.002985	0.435000	0.029322	-0.383623	-0.002443
168	29.100861	0.135468	0.117720	-9.417600	0.235440	-0.128358	0.002985	0.428333	0.012217	-0.384845	-0.002443
169	29.229919	0.184540	0.000000	-9.417600	0.117720	-0.108955	0.002985	0.420000	0.025656	-0.368963	0.003665
170	29.359009	0.153656	0.235440	-9.417600	0.235440	-0.092537	0.001493	0.406667	0.018326	-0.362854	0.001222
171	29.488068	0.202728	0.000000	-9.299880	0.235440	-0.076119	0.001493	0.396667	0.020769	-0.359189	0.002443
172	29.617126	0.171814	0.117720	-9.417600	0.235440	-0.061194	0.002985	0.386667	0.020769	-0.346971	0.001222
173	29.746216	0.140930	0.117720	-9.417600	0.353160	-0.050746	0.001493	0.375000	0.024435	-0.332311	0.010996
174	29.875275	0.190002	0.000000	-9.299880	0.235440	-0.038806	0.000000	0.361667	0.024435	-0.315206	0.003665
175	30.004333	0.159088	0.117720	-9.299880	0.470880	-0.028358	-0.002985	0.355000	0.014661	-0.273668	0.003665
176	30.133362	0.126434	0.117720	-9.417600	0.470880	-0.013433	-0.007463	0.346667	0.003665	-0.241903	0.003665
177	30.262421	0.177216	0.000000	-9.417600	0.588600	0.007463	-0.004478	0.348333	0.024435	-0.207694	0.004887
178	30.391479	0.146301	0.000000	-9.299880	0.117720	0.025373	-0.001493	0.343333	0.014661	-0.211359	0.008552
179	30.520508	0.195343	0.117720	-9.653040	0.235440	0.047761	-0.001493	0.336667	0.010996	-0.202807	0.001222
180	30.649536	0.164398	0.117720	-9.417600	0.588600	0.074627	0.000000	0.316667	0.008552	-0.172264	0.004887
181	30.778595	0.133484	0.000000	-9.417600	0.117720	0.098507	0.004478	0.286667	0.009774	-0.161268	0.001222
182	30.907654	0.182556	0.000000	-9.417600	0.000000	0.097015	0.011940	0.223333	0.013439	-0.166155	0.007330
183	31.036682	0.151611	0.000000	-9.535320	0.470880	0.052239	-0.016418	0.205000	0.017104	-0.139277	0.006109
184	31.165741	0.200684	0.000000	-9.653040	0.353160	0.044776	-0.055224	0.253333	0.004887	-0.106291	0.013439
185	31.294769	0.169739	0.000000	-9.299880	0.470880	0.026866	-0.056716	0.271667	0.008552	-0.078191	0.003665
186	31.423859	0.138855	0.000000	-9.417600	0.470880	0.025373	-0.058209	0.281667	0.007330	-0.051313	0.014661
187	31.552948	0.187958	0.000000	-9.417600	0.117720	0.026866	-0.067164	0.296667	0.012217	-0.041539	0.007330
188	31.681976	0.157013	0.117720	-9.417600	0.117720	0.019403	-0.077612	0.311667	0.013439	-0.052534	0.010996
189	31.811035	0.206085	-0.117720	-9.299880	0.000000	0.016418	-0.080597	0.311667	0.007330	-0.058643	0.007330
190	31.940094	0.175171	0.000000	-9.299880	0.000000	0.010448	-0.080597	0.313333	0.009774	-0.062308	0.004887
191	32.069153	0.144257	0.117720	-9.417600	0.000000	0.007463	-0.085075	0.318333	0.015882	-0.068417	0.009774
192	32.198181	0.190948	-0.117720	-9.417600	0.117720	-0.007463	-0.089552	0.310000	0.017104	-0.062308	0.006109
193	32.327209	0.162354	0.000000	-9.417600	0.117720	-0.016418	-0.097015	0.260000	0.015882	-0.062308	0.009774
194	32.456268	0.131439	0.000000	-9.417600	-0.235440	0.002985	-0.092537	0.196667	-0.001222	-0.079412	0.002443
195	32.585327	0.180511	0.000000	-9.417600	0.000000	-0.047761	-0.022388	0.125000	0.012217	-0.097738	0.008552
196	32.714355	0.149567	0.000000	-9.417600	0.235440	-0.059701	-0.008955	0.055000	0.013439	-0.097738	0.007330
197	32.843384	0.198608	0.000000	-9.653040	0.117720	0.026866	0.001493	0.038333	0.014661	-0.097738	0.007330
198	32.972443	0.167694	0.000000	-9.417600	0.117720	-0.019403	-0.002985	0.008333	0.010996	-0.096517	0.001222
199	33.101471	0.136749	0.000000	-9.417600	0.117720	-0.085075	-0.020896	-0.036667	0.010996	-0.081856	0.009774
200	33.230530	0.185822	0.000000	-9.417600	0.353160	-0.073134	-0.028358	-0.138333	0.007330	-0.062308	-0.001222
201	33.359589	0.154907	-0.117720	-9.770760	0.117720	0.043284	-0.034328	-0.143333	0.008552	-0.068417	0.008552
202	33.488647	0.203979	-0.117720	-9.535320	0.117720	0.019403	-0.026866	-0.148333	0.001222	-0.074526	0.006109
203	33.617676	0.173035	0.000000	-9.299880	0.235440	-0.035821	-0.008955	-0.143333	0.007330	-0.065973	0.010996
204	33.746735	0.142120	0.000000	-9.417600	0.000000	-0.092537	0.000000	-0.130000	-0.006109	-0.014661	0.002443
205	33.875793	0.190979	-0.117720	-9.535320	0.117720	-0.116418	0.007463	-0.121667	-0.007330	-0.024435	0.020769
206	34.005615	0.161041	0.000000	-9.299880	0.353160	-0.137313	0.010448	-0.115000	-0.031765	0.029322	0.014661
207	34.133942	0.129395	0.000000	-9.299880	0.000000	-0.146269	0.011940	-0.108333	0.012217	-0.067195	0.008552
208	34.262970	0.178436	0.000000	-9.535320	0.000000	-0.149254	0.013433	-0.106667	0.008552	-0.061087	0.008552
209	34.391998	0.147491	0.117720	-9.182160	0.117720	-0.152239	0.013433	-0.106667	-0.025656	0.048869	0.014661
210	34.521057	0.196564	0.000000	-9.299880	-0.235440	-0.161194	0.013433	-0.110000	-0.004887	-0.042761	0.009774
211	34.650085	0.165619	0.000000	-9.417600	0.000000	-0.167164	0.013433	-0.105000	0.009774	-0.043982	0.001222
212	34.779144	0.134705	0.000000	-9.417600	0.235440	-0.170149	0.011940	-0.105000	0.015882	-0.052534	0.008552
213	34.908203	0.183777	-0.117720	-9.417600	0.235440	-0.174627	0.013433	-0.100000	-0.001222	-0.059865	0.002443
214	35.037292	0.152893	0.000000	-9.417600	0.117720	-0.171642	0.011940	-0.096667	0.014661	-0.058643	0.003665
215	35.166321	0.201935	0.000000	-9.417600	0.235440	-0.176119	0.011940	-0.093333	0.008552	-0.058643	0.007330
216	35.295410	0.171051	-0.117720	-9.535320	0.235440	-0.177612	0.013433	-0.098333	0.008552	-0.058643	0.001222
217	35.424500	0.140167	-0.117720	-9.299880	0.117720	-0.176119	0.013433	-0.096667	0.008552	-0.058643	0.010996
218	35.553558	0.189240	-0.235440	-9.653040	0.117720	-0.179104	0.011940	-0.091667	0.004887	-0.054978	0.003665
219	35.682617	0.158325	0.117720	-9.417600	0.235440	-0.180597	0.013433	-0.085000	0.018326	-0.059865	0.002443
220	35.811676	0.126465	0.000000	-9.417600	0.117720	-0.180597	0.013433	-0.081667	0.009774	-0.056200	0.006109
221	35.940765	0.176514	0.000000	-9.535320	0.000000	-0.177612	0.013433	-0.083333	0.012217	-0.063530	0.000000
222	36.069794	0.145569	-0.117720	-9.417600	0.000000	-0.176119	0.013433	-0.081667	0.015882	-0.058643	0.009774
223	36.198883	0.194672	0.000000	-9.535320	0.117720	-0.173134	0.011940	-0.081667	-0.006109	-0.059865	0.002443
224	36.327911	0.163727	-0.117720	-9.299880	0.235440	-0.173134	0.014925	-0.083333	0.012217	-0.056200	0.001222
225	36.457001	0.132843	-0.235440	-9.417600	0.235440	-0.173134	0.014925	-0.083333	0.008552	-0.058643	0.008552
226	36.586090	0.181946	-0.117720	-9.299880	0.117720	-0.173134	0.013433	-0.081667	0.009774	-0.057421	0.008552
227	36.715118	0.151001	0.000000	-9.417600	0.353160	-0.173134	0.014925	-0.083333	0.010996	-0.058643	0.006109
228	36.844177	0.200073	0.000000	-9.182160	0.117720	-0.173134	0.013433	-0.085000	0.006109	-0.059865	0.004887
229	36.973236	0.169159	0.000000	-9.417600	0.353160	-0.174627	0.011940	-0.085000	0.002443	-0.057421	0.006109
230	37.102295	0.138245	0.000000	-9.417600	0.235440	-0.177612	0.013433	-0.083333	0.013439	-0.059865	0.007330
231	37.231354	0.187317	0.000000	-9.299880	0.235440	-0.177612	0.011940	-0.083333	0.007330	-0.059865	0.007330
232	37.360443	0.156433	0.117720	-9.417600	0.353160	-0.177612	0.013433	-0.081667	0.009774	-0.056200	0.004887
233	37.489502	0.205505	0.000000	-9.299880	0.235440	-0.180597	0.014925	-0.080000	0.013439	-0.062308	0.002443
234	37.618561	0.174591	0.000000	-9.182160	0.235440	-0.179104	0.011940	-0.080000	0.003665	-0.056200	0.004887
235	37.747620	0.143677	0.000000	-9.299880	0.117720	-0.182090	0.013433	-0.080000	0.003665	-0.057421	0.008552
236	37.876678	0.191010	0.000000	-9.417600	0.000000	-0.182090	0.013433	-0.080000	0.019548	-0.061087	0.009774
237	38.005737	0.161835	0.117720	-9.182160	0.117720	-0.180597	0.014925	-0.080000	0.009774	-0.052534	0.002443
238	38.134796	0.130920	0.000000	-9.182160	0.000000	-0.176119	0.013433	-0.078333	0.008552	-0.056200	0.001222
239	38.263855	0.179993	0.000000	-9.535320	0.000000	-0.179104	0.013433	-0.080000	0.013439	-0.062308	0.006109
240	38.392914	0.149078	0.000000	-9.417600	0.235440	-0.179104	0.016418	-0.076667	0.006109	-0.056200	0.006109
241	38.521973	0.198151	0.000000	-9.417600	0.235440	-0.180597	0.014925	-0.078333	0.008552	-0.062308	0.007330
242	38.651062	0.167267	0.000000	-9.417600	0.000000	-0.180597	0.013433	-0.081667	0.006109	-0.054978	0.007330
243	38.780090	0.136322	0.000000	-9.417600	0.117720	-0.180597	0.014925	-0.078333	0.003665	-0.057421	-0.001222
244	38.909180	0.185425	-0.117720	-9.299880	0.235440	-0.179104	0.013433	-0.080000	0.017104	-0.061087	0.004887
245	39.038239	0.154510	0.000000	-9.417600	0.235440	-0.176119	0.014925	-0.078333	0.006109	-0.054978	0.009774
246	39.167297	0.203583	0.000000	-9.535320	0.000000	-0.174627	0.014925	-0.083333	0.003665	-0.059865	0.010996
247	39.296326	0.172638	0.000000	-9.417600	0.235440	-0.176119	0.013433	-0.076667	0.010996	-0.058643	0.013439
248	39.425415	0.141754	-0.117720	-9.417600	0.353160	-0.179104	0.014925	-0.080000	0.003665	-0.056200	0.006109
249	39.554474	0.190826	0.000000	-9.417600	0.117720	-0.179104	0.013433	-0.078333	0.012217	-0.058643	0.010996
250	39.683594	0.159973	0.000000	-9.417600	0.117720	-0.182090	0.014925	-0.078333	-0.146608	-0.059865	0.007330
251	39.812653	0.126495	0.000000	-9.417600	0.000000	-0.182090	0.014925	-0.076667	0.012217	-0.059865	0.006109
252	39.941772	0.178192	0.000000	-9.417600	0.117720	-0.182090	0.014925	-0.070000	0.004887	-0.057421	0.012217
253	40.070831	0.147278	0.000000	-9.417600	0.000000	-0.183582	0.010448	-0.073333	0.019548	-0.061087	0.006109
254	40.199921	0.196381	0.000000	-9.535320	0.117720	-0.182090	0.011940	-0.073333	0.004887	-0.052534	0.007330
255	40.328979	0.165466	0.000000	-9.299880	0.000000	-0.185075	0.011940	-0.075000	0.009774	-0.062308	0.013439
256	40.458069	0.134583	0.000000	-9.417600	0.117720	-0.183582	0.013433	-0.075000	0.000000	-0.059865	0.002443
257	40.587158	0.183685	0.000000	-9.417600	0.117720	-0.182090	0.011940	-0.075000	0.012217	-0.057421	0.009774
258	40.716278	0.152832	-0.117720	-9.417600	0.117720	-0.182090	0.013433	-0.071667	0.008552	-0.053756	0.010996
259	40.845337	0.201904	-0.117720	-9.299880	0.117720	-0.186567	0.013433	-0.070000	0.012217	-0.056200	0.003665
260	40.974457	0.171051	0.000000	-9.299880	0.117720	-0.183582	0.010448	-0.068333	0.014661	-0.057421	0.009774
261	41.103546	0.140167	0.000000	-9.299880	0.117720	-0.182090	0.010448	-0.070000	0.008552	-0.059865	-0.002443
262	41.232635	0.189270	0.000000	-9.535320	0.235440	-0.186567	0.013433	-0.071667	0.017104	-0.058643	0.006109
263	41.361725	0.158386	-0.117720	-9.535320	0.117720	-0.185075	0.013433	-0.071667	0.000000	-0.057421	0.004887
264	41.490784	0.126465	0.000000	-9.299880	0.353160	-0.183582	0.014925	-0.075000	0.006109	-0.062308	0.003665
265	41.619843	0.176544	0.000000	-9.535320	0.117720	-0.183582	0.013433	-0.071667	0.002443	-0.057421	0.008552
266	41.748901	0.145630	0.000000	-9.299880	0.235440	-0.185075	0.011940	-0.068333	0.003665	-0.058643	0.007330
267	41.877960	0.194702	0.000000	-9.299880	0.000000	-0.185075	0.013433	-0.070000	0.015882	-0.059865	0.000000
268	42.007050	0.163818	-0.117720	-9.299880	0.353160	-0.183582	0.011940	-0.068333	0.010996	-0.058643	0.012217
269	42.136169	0.132965	0.000000	-9.417600	0.117720	-0.183582	0.011940	-0.070000	0.008552	-0.056200	0.012217
270	42.265289	0.182098	-0.235440	-9.417600	0.117720	-0.186567	0.011940	-0.068333	0.006109	-0.056200	0.009774
271	42.394379	0.151215	0.000000	-9.299880	0.117720	-0.185075	0.013433	-0.066667	0.007330	-0.057421	0.010996
272	42.523438	0.200287	-0.117720	-9.417600	0.000000	-0.185075	0.011940	-0.065000	0.012217	-0.059865	0.004887
273	42.652496	0.169373	0.000000	-9.417600	0.117720	-0.185075	0.014925	-0.066667	0.009774	-0.057421	0.002443
274	42.781555	0.138458	0.000000	-9.299880	0.000000	-0.183582	0.013433	-0.066667	0.013439	-0.058643	0.008552
275	42.910645	0.187561	-0.117720	-9.417600	0.117720	-0.182090	0.014925	-0.071667	0.000000	-0.054978	0.004887
276	43.039734	0.156677	-0.117720	-9.417600	0.235440	-0.183582	0.013433	-0.071667	0.013439	-0.058643	0.006109
277	43.168793	0.205750	-0.117720	-9.417600	0.353160	-0.183582	0.014925	-0.071667	0.006109	-0.063530	0.007330
278	43.297852	0.174835	0.000000	-9.417600	0.117720	-0.182090	0.016418	-0.068333	0.004887	-0.061087	0.009774
279	43.426910	0.143921	0.000000	-9.417600	0.117720	-0.185075	0.014925	-0.068333	0.010996	-0.062308	0.001222
280	43.555969	0.190979	0.000000	-9.417600	0.117720	-0.182090	0.013433	-0.070000	0.009774	-0.057421	0.008552
281	43.685028	0.162079	0.000000	-9.535320	0.000000	-0.180597	0.013433	-0.071667	0.004887	-0.053756	0.003665
282	43.814087	0.131165	0.000000	-9.535320	0.235440	-0.183582	0.014925	-0.071667	0.007330	-0.056200	0.008552
283	43.943176	0.180267	-0.117720	-9.535320	0.000000	-0.182090	0.014925	-0.071667	0.001222	-0.059865	0.007330
284	44.072235	0.149353	-0.117720	-9.417600	0.235440	-0.182090	0.016418	-0.073333	0.007330	-0.056200	0.000000
285	44.201294	0.198425	0.000000	-9.417600	0.235440	-0.180597	0.016418	-0.073333	0.013439	-0.062308	0.006109
286	44.330383	0.167542	0.000000	-9.417600	0.235440	-0.180597	0.016418	-0.073333	0.009774	-0.059865	0.006109
287	44.459473	0.136658	0.000000	-9.535320	0.117720	-0.182090	0.016418	-0.075000	0.004887	-0.052534	0.006109
288	44.588562	0.185760	0.000000	-9.299880	0.117720	-0.179104	0.016418	-0.078333	0.012217	-0.057421	0.004887
289	44.717651	0.154877	0.000000	-9.299880	0.117720	-0.180597	0.016418	-0.075000	0.004887	-0.058643	0.003665
290	44.846771	0.204010	0.000000	-9.417600	0.235440	-0.182090	0.014925	-0.075000	0.014661	-0.065973	0.006109
291	44.975830	0.173096	0.000000	-9.417600	0.117720	-0.180597	0.014925	-0.075000	0.002443	-0.057421	0.007330
292	45.104889	0.142181	0.000000	-9.299880	0.000000	-0.180597	0.014925	-0.076667	0.013439	-0.061087	0.009774
293	45.233978	0.191010	0.000000	-9.417600	0.000000	-0.180597	0.014925	-0.075000	-0.001222	-0.056200	0.006109
294	45.363708	0.161041	-0.117720	-9.417600	0.117720	-0.180597	0.016418	-0.073333	0.013439	-0.058643	0.010996
295	45.492126	0.129486	0.000000	-9.535320	0.235440	-0.183582	0.016418	-0.075000	0.004887	-0.059865	0.015882
296	45.621216	0.178589	0.000000	-9.417600	0.235440	-0.182090	0.017910	-0.073333	0.010996	-0.061087	0.009774
297	45.750305	0.147705	0.000000	-9.417600	0.000000	-0.185075	0.016418	-0.071667	0.006109	-0.054978	0.007330
298	45.879395	0.196808	-0.117720	-9.417600	0.117720	-0.185075	0.016418	-0.071667	0.014661	-0.064752	0.004887
299	46.008514	0.165955	0.000000	-9.417600	0.000000	-0.182090	0.016418	-0.073333	0.013439	-0.062308	0.009774
300	46.137634	0.135101	0.000000	-9.417600	0.117720	-0.183582	0.013433	-0.073333	0.007330	-0.057421	0.002443
301	46.266785	0.184265	-0.117720	-9.417600	0.000000	-0.182090	0.013433	-0.070000	-0.001222	-0.051313	0.007330
302	46.395905	0.153412	0.000000	-9.299880	0.117720	-0.182090	0.016418	-0.075000	-0.021991	0.012217	0.004887
303	46.525024	0.202545	0.000000	-9.417600	0.470880	-0.162687	0.014925	-0.086667	0.007330	-0.054978	0.009774
304	46.654144	0.171692	0.000000	-9.417600	0.470880	-0.131343	0.013433	-0.108333	0.006109	-0.010996	0.010996
305	46.783234	0.140808	0.000000	-9.535320	0.353160	-0.016418	0.001493	-0.126667	0.010996	0.000000	0.014661
306	46.912323	0.189911	0.000000	-9.417600	0.117720	0.158209	-0.005970	-0.051667	0.004887	0.037874	0.010996
307	47.041443	0.159058	0.000000	-9.417600	0.470880	0.238806	-0.011940	0.115000	0.007330	0.063530	0.012217
308	47.170563	0.126526	0.000000	-9.417600	1.412640	0.198507	-0.010448	0.275000	0.002443	0.141721	0.017104
309	47.299652	0.177307	0.117720	-9.417600	0.824040	0.094030	-0.001493	0.343333	-0.002443	0.217468	0.013439
310	47.428741	0.146423	0.235440	-9.417600	0.941760	0.025373	0.001493	0.346667	0.004887	0.279776	0.014661
311	47.557831	0.195526	0.235440	-9.417600	0.353160	-0.010448	0.001493	0.350000	-0.007330	0.321315	0.013439
312	47.686859	0.164581	0.235440	-9.417600	0.353160	-0.029851	0.002985	0.363333	-0.004887	0.342085	0.015882
313	47.815979	0.133728	0.353160	-9.299880	0.000000	-0.050746	0.002985	0.380000	-0.010996	0.365297	0.007330
314	47.945099	0.182861	0.117720	-9.417600	0.000000	-0.073134	0.004478	0.393333	-0.004887	0.342085	0.015882
315	48.074158	0.151947	0.235440	-9.417600	0.000000	-0.091045	0.004478	0.406667	-0.004887	0.321315	0.007330
316	48.203247	0.201050	0.000000	-9.535320	-0.235440	-0.110448	0.002985	0.420000	-0.003665	0.294437	0.009774
317	48.332336	0.170166	0.000000	-9.535320	0.000000	-0.128358	0.005970	0.428333	-0.004887	0.259007	0.008552
318	48.461426	0.139282	0.000000	-9.417600	0.000000	-0.147761	0.005970	0.435000	-0.002443	0.234572	0.009774
319	48.590515	0.188385	0.117720	-9.182160	-0.117720	-0.164179	0.004478	0.438333	0.000000	0.210138	0.012217
320	48.719635	0.157532	0.000000	-9.535320	-0.353160	-0.180597	0.008955	0.441667	-0.007330	0.152716	0.003665
321	48.848755	0.126526	0.000000	-9.417600	-0.588600	-0.189552	0.005970	0.446667	0.000000	0.087965	0.008552
322	48.977844	0.175781	0.000000	-9.417600	-0.117720	-0.200000	0.007463	0.443333	0.018326	0.045204	0.004887
323	49.106934	0.144897	0.000000	-9.535320	0.235440	-0.205970	0.008955	0.445000	0.002443	0.026878	0.003665
324	49.235992	0.193970	0.000000	-9.299880	-0.235440	-0.210448	0.010448	0.443333	0.008552	0.008552	0.004887
325	49.365051	0.163055	-0.235440	-9.299880	0.000000	-0.214925	0.011940	0.445000	0.002443	-0.014661	0.002443
326	49.494141	0.132172	0.000000	-9.535320	0.000000	-0.217910	0.010448	0.445000	0.000000	-0.039095	0.003665
327	49.623230	0.181274	0.000000	-9.182160	0.000000	-0.217910	0.010448	0.446667	0.006109	-0.054978	-0.002443
328	49.752350	0.150421	0.000000	-9.535320	0.117720	-0.219403	0.010448	0.445000	0.015882	-0.083078	0.015882
329	49.881439	0.199524	0.000000	-9.417600	0.117720	-0.217910	0.008955	0.445000	0.006109	-0.084299	0.008552
330	50.010559	0.168671	0.000000	-9.299880	0.235440	-0.213433	0.007463	0.443333	-0.002443	-0.080634	0.008552
331	50.139648	0.137787	-0.117720	-9.417600	0.470880	-0.214925	0.008955	0.443333	0.023213	-0.079412	0.007330
332	50.268738	0.186890	0.000000	-9.417600	0.235440	-0.211940	0.007463	0.445000	0.007330	-0.063530	0.006109
333	50.397858	0.156036	0.000000	-9.299880	0.117720	-0.211940	0.010448	0.445000	0.009774	-0.061087	0.007330
334	50.526947	0.205139	0.000000	-9.417600	0.235440	-0.211940	0.010448	0.446667	0.014661	-0.067195	0.006109
335	50.656036	0.174255	0.000000	-9.417600	0.117720	-0.211940	0.010448	0.443333	0.003665	-0.056200	0.009774
336	50.785156	0.143402	-0.117720	-9.535320	0.117720	-0.210448	0.008955	0.445000	0.002443	-0.050091	0.006109
337	50.914276	0.191101	0.000000	-9.535320	0.235440	-0.211940	0.007463	0.445000	0.008552	-0.059865	0.006109
338	51.043396	0.161682	-0.117720	-9.417600	0.117720	-0.213433	0.010448	0.443333	0.015882	-0.062308	0.015882
339	51.172516	0.130829	0.000000	-9.299880	0.235440	-0.211940	0.010448	0.443333	0.010996	-0.062308	0.014661
340	51.301636	0.179962	0.117720	-9.182160	0.000000	-0.211940	0.008955	0.445000	0.006109	-0.062308	0.002443
341	51.430786	0.149139	-0.117720	-9.417600	0.117720	-0.211940	0.010448	0.441667	0.009774	-0.056200	0.002443
342	51.559937	0.198303	0.000000	-9.535320	0.235440	-0.211940	0.010448	0.445000	0.004887	-0.054978	0.006109
343	51.689056	0.167450	-0.117720	-9.417600	0.353160	-0.211940	0.008955	0.441667	0.006109	-0.056200	0.013439
344	51.818207	0.136627	0.000000	-9.417600	0.235440	-0.213433	0.010448	0.445000	0.000000	-0.058643	0.008552
345	51.947357	0.185791	0.000000	-9.299880	0.235440	-0.213433	0.007463	0.446667	0.002443	-0.057421	0.007330
346	52.076447	0.154907	0.000000	-9.417600	0.000000	-0.213433	0.008955	0.441667	0.008552	-0.057421	0.002443
347	52.205566	0.204041	-0.117720	-9.417600	0.235440	-0.210448	0.011940	0.446667	0.008552	-0.061087	0.012217
348	52.334686	0.173187	0.000000	-9.417600	0.235440	-0.211940	0.005970	0.445000	0.013439	-0.061087	0.010996
349	52.463776	0.142303	0.000000	-9.299880	-0.117720	-0.213433	0.008955	0.443333	0.003665	-0.076969	0.001222
350	52.592896	0.191071	-0.117720	-9.182160	-1.177200	-0.207463	0.008955	0.445000	0.019548	-0.200364	-0.002443
351	52.722473	0.161041	0.000000	-9.299880	-1.177200	-0.200000	0.008955	0.441667	0.030543	-0.300546	-0.002443
352	52.851135	0.129730	0.000000	-9.299880	-0.941760	-0.182090	0.008955	0.440000	0.018326	-0.395841	0.000000
353	52.980225	0.178833	0.000000	-9.417600	-0.117720	-0.159701	0.005970	0.436667	0.018326	-0.428827	0.002443
354	53.109375	0.148010	0.117720	-9.417600	0.470880	-0.135821	0.002985	0.431667	0.019548	-0.437380	0.000000
355	53.238495	0.197144	0.117720	-9.417600	0.000000	-0.113433	0.004478	0.421667	0.026878	-0.455705	-0.001222
356	53.367615	0.166290	0.235440	-9.299880	0.000000	-0.095522	0.001493	0.410000	0.031765	-0.471588	0.003665
357	53.496735	0.135437	0.353160	-9.535320	0.235440	-0.073134	0.002985	0.395000	0.025656	-0.464258	0.002443
358	53.625854	0.184570	0.353160	-9.182160	0.235440	-0.052239	0.004478	0.380000	0.023213	-0.453262	-0.002443
359	53.754974	0.153717	0.117720	-9.535320	0.353160	-0.032836	0.004478	0.363333	0.012217	-0.430049	0.000000
360	53.884094	0.202850	0.235440	-9.417600	0.470880	-0.013433	0.002985	0.353333	0.020769	-0.414167	0.000000
361	54.013245	0.172028	0.235440	-9.299880	0.706320	0.013433	0.002985	0.346667	0.025656	-0.382402	0.002443
362	54.142365	0.141174	0.117720	-9.417600	0.706320	0.070149	-0.002985	0.346667	0.030543	-0.324980	0.004887
363	54.271515	0.190338	0.117720	-9.417600	1.059480	0.168657	-0.013433	0.305000	0.019548	-0.243124	0.006109
364	54.400665	0.159515	0.000000	-9.417600	1.059480	0.241791	-0.022388	0.141667	0.026878	-0.179594	0.006109
365	54.529816	0.126556	0.000000	-9.417600	0.706320	0.188060	-0.014925	-0.033333	0.017104	-0.120951	0.006109
366	54.658936	0.177826	-0.117720	-9.299880	0.235440	0.074627	-0.002985	-0.120000	0.009774	-0.111177	0.001222
367	54.788055	0.146973	0.000000	-9.535320	0.470880	-0.061194	0.010448	-0.135000	0.010996	-0.086743	0.009774
368	54.917145	0.196075	-0.235440	-9.299880	0.470880	-0.113433	0.019403	-0.123333	0.000000	-0.059865	0.000000
369	55.046265	0.165222	0.000000	-9.535320	-0.117720	-0.114925	0.020896	-0.125000	0.014661	-0.063530	0.006109
370	55.175385	0.134369	0.000000	-9.182160	0.117720	-0.156716	0.023881	-0.100000	-0.032987	0.070860	0.021991
371	55.304474	0.183472	-0.470880	-9.299880	-1.059480	-0.180597	0.026866	-0.091667	-0.270002	0.878424	0.091630
372	55.433594	0.152618	0.000000	-9.417600	0.353160	-0.186567	0.025373	-0.093333	-0.012217	-0.003665	-0.002443
373	55.562714	0.201752	0.000000	-9.299880	0.235440	-0.185075	0.031343	-0.100000	0.009774	-0.047647	0.007330
374	55.691833	0.170898	0.000000	-9.417600	-0.353160	-0.183582	0.029851	-0.103333	0.026878	-0.087965	0.004887
375	55.820923	0.140015	-0.117720	-9.299880	0.117720	-0.185075	0.029851	-0.101667	0.006109	-0.054978	0.008552
376	55.950012	0.189117	-0.117720	-9.417600	0.000000	-0.188060	0.029851	-0.096667	0.015882	-0.059865	0.003665
377	56.079102	0.158234	0.000000	-9.417600	0.117720	-0.189552	0.029851	-0.091667	0.009774	-0.063530	0.006109
378	56.208252	0.126556	0.000000	-9.299880	0.000000	-0.191045	0.029851	-0.091667	0.001222	-0.051313	0.009774
379	56.337372	0.176544	0.000000	-9.417600	0.117720	-0.188060	0.029851	-0.090000	0.001222	-0.063530	0.000000
380	56.466492	0.145691	0.000000	-9.535320	0.117720	-0.191045	0.032836	-0.095000	0.003665	-0.059865	0.004887
381	56.595642	0.194855	0.000000	-9.299880	0.000000	-0.191045	0.031343	-0.088333	0.008552	-0.056200	0.008552
382	56.724762	0.164001	0.000000	-9.417600	0.235440	-0.189552	0.031343	-0.090000	0.015882	-0.056200	0.006109
383	56.853912	0.133179	0.000000	-9.417600	0.235440	-0.189552	0.028358	-0.088333	0.013439	-0.057421	0.007330
384	56.983063	0.182343	0.000000	-9.417600	0.000000	-0.189552	0.034328	-0.088333	0.010996	-0.056200	0.009774
385	57.112183	0.151489	0.000000	-9.653040	0.235440	-0.188060	0.032836	-0.088333	0.013439	-0.061087	0.002443
386	57.241333	0.200653	0.117720	-9.417600	0.000000	-0.188060	0.031343	-0.095000	0.012217	-0.057421	0.000000
387	57.370453	0.169800	0.000000	-9.535320	0.000000	-0.189552	0.032836	-0.090000	0.003665	-0.057421	0.006109
388	57.499542	0.138916	0.000000	-9.417600	0.117720	-0.189552	0.028358	-0.088333	-0.003665	-0.058643	0.008552
389	57.628662	0.188049	0.000000	-9.299880	0.000000	-0.188060	0.029851	-0.090000	0.004887	-0.056200	0.015882
390	57.757751	0.157166	0.000000	-9.417600	0.000000	-0.189552	0.032836	-0.088333	0.010996	-0.057421	0.010996
391	57.886841	0.206268	0.000000	-9.299880	0.117720	-0.192537	0.028358	-0.086667	0.003665	-0.056200	0.002443
392	58.015930	0.175385	0.000000	-9.417600	0.117720	-0.191045	0.031343	-0.085000	0.015882	-0.057421	0.007330
393	58.145020	0.144501	-0.117720	-9.299880	0.117720	-0.189552	0.028358	-0.088333	0.000000	-0.057421	0.009774
394	58.274139	0.191071	-0.117720	-9.417600	0.235440	-0.189552	0.031343	-0.086667	0.012217	-0.056200	0.008552
395	58.403259	0.162781	0.000000	-9.182160	0.000000	-0.188060	0.031343	-0.086667	0.012217	-0.057421	0.001222
396	58.532379	0.131927	0.000000	-9.299880	0.117720	-0.191045	0.028358	-0.088333	0.004887	-0.062308	0.004887
397	58.661499	0.181061	0.000000	-9.299880	0.117720	-0.191045	0.028358	-0.086667	0.000000	-0.058643	0.002443
398	58.790619	0.150208	-0.117720	-9.653040	0.117720	-0.189552	0.028358	-0.085000	0.001222	-0.059865	0.006109
399	58.919769	0.199371	0.000000	-9.535320	0.117720	-0.189552	0.029851	-0.086667	0.006109	-0.054978	0.007330
400	59.048859	0.168488	0.000000	-9.299880	0.000000	-0.188060	0.031343	-0.086667	0.014661	-0.053756	0.006109
401	59.177979	0.137634	0.117720	-9.299880	0.000000	-0.186567	0.026866	-0.088333	0.014661	-0.058643	0.009774
402	59.307098	0.186768	0.000000	-9.417600	0.235440	-0.189552	0.031343	-0.090000	0.002443	-0.056200	0.008552
403	59.436249	0.155945	0.117720	-9.417600	0.117720	-0.189552	0.029851	-0.088333	0.003665	-0.058643	0.012217
404	59.565399	0.205109	0.000000	-9.299880	0.117720	-0.185075	0.029851	-0.090000	0.003665	-0.053756	0.007330
405	59.694519	0.174255	0.000000	-9.417600	0.117720	-0.185075	0.029851	-0.091667	0.001222	-0.057421	0.007330
406	59.823669	0.143433	0.000000	-9.299880	0.235440	-0.185075	0.029851	-0.091667	-0.006109	-0.050091	0.003665
407	59.952789	0.191101	0.000000	-9.417600	0.117720	-0.183582	0.028358	-0.091667	0.002443	-0.050091	0.006109
408	60.081970	0.161774	0.000000	-9.417600	-0.117720	-0.183582	0.029851	-0.098333	0.000000	-0.045204	0.009774
409	60.211121	0.130951	0.000000	-9.417600	0.000000	-0.182090	0.029851	-0.096667	0.003665	-0.047647	0.001222
410	60.340210	0.180054	-0.117720	-9.417600	0.117720	-0.185075	0.029851	-0.091667	0.002443	-0.053756	0.009774
411	60.469330	0.149200	0.000000	-9.417600	0.353160	-0.183582	0.028358	-0.090000	0.014661	-0.064752	0.010996
412	60.598419	0.198303	0.000000	-9.417600	0.117720	-0.185075	0.029851	-0.091667	0.002443	-0.059865	0.006109
413	60.727509	0.167419	-0.117720	-9.535320	0.000000	-0.180597	0.031343	-0.098333	0.012217	-0.058643	0.010996
414	60.856628	0.136566	0.000000	-9.299880	0.353160	-0.176119	0.029851	-0.101667	0.009774	-0.054978	0.004887
415	60.985779	0.185730	-0.117720	-9.417600	0.353160	-0.162687	0.026866	-0.108333	0.006109	-0.026878	0.015882
416	61.114899	0.154877	0.000000	-9.299880	0.470880	-0.058209	0.014925	-0.140000	0.003665	0.019548	0.009774
417	61.244019	0.204010	0.000000	-9.417600	0.470880	0.129851	-0.013433	-0.086667	0.001222	0.035430	0.010996
418	61.373138	0.173157	-0.117720	-9.417600	0.470880	0.243284	-0.026866	0.103333	-0.152716	0.072082	0.018326
419	61.502289	0.142334	0.117720	-9.417600	0.824040	0.198507	-0.019403	0.278333	-0.003665	0.131947	0.015882
420	61.631439	0.191132	0.117720	-9.417600	1.059480	0.097015	-0.005970	0.346667	-0.007330	0.217468	0.013439
421	61.760956	0.161041	0.117720	-9.299880	0.706320	0.025373	0.000000	0.346667	-0.007330	0.285885	0.014661
422	61.889709	0.129822	0.470880	-9.417600	0.117720	-0.008955	0.002985	0.350000	-0.009774	0.318872	0.009774
423	62.018890	0.179016	0.235440	-9.299880	0.000000	-0.028358	0.004478	0.361667	-0.012217	0.313985	0.008552
424	62.148041	0.148193	0.000000	-9.299880	0.000000	-0.049254	0.002985	0.376667	-0.012217	0.294437	0.015882
425	62.277191	0.197357	0.117720	-9.299880	-0.117720	-0.061194	0.002985	0.386667	-0.012217	0.276111	0.008552
426	62.406342	0.166534	0.117720	-9.417600	0.000000	-0.079104	0.002985	0.398333	0.002443	0.244346	0.007330
427	62.535553	0.135773	0.000000	-9.417600	-0.117720	-0.094030	0.002985	0.410000	-0.002443	0.222355	0.009774
428	62.664703	0.184937	0.117720	-9.417600	0.000000	-0.108955	0.004478	0.420000	-0.014661	0.212581	0.014661
429	62.793854	0.154114	0.000000	-9.535320	0.000000	-0.123881	0.004478	0.423333	0.002443	0.173486	0.012217
430	62.922974	0.203247	0.117720	-9.417600	-0.706320	-0.135821	0.005970	0.430000	0.008552	0.102625	0.001222
431	63.052063	0.172363	0.000000	-9.417600	-0.941760	-0.143284	0.004478	0.433333	0.003665	0.009774	0.003665
432	63.181213	0.141541	-0.117720	-9.299880	-0.353160	-0.146269	0.005970	0.433333	0.003665	-0.072082	0.000000
433	63.310394	0.190735	0.117720	-9.299880	0.117720	-0.144776	0.004478	0.435000	0.021991	-0.108734	0.000000
434	63.439514	0.159882	0.000000	-9.299880	0.000000	-0.143284	0.004478	0.433333	0.013439	-0.105069	0.004887
435	63.568695	0.126556	0.000000	-9.417600	0.117720	-0.140299	0.004478	0.431667	0.019548	-0.101404	0.000000
436	63.697845	0.178253	0.000000	-9.417600	0.117720	-0.135821	0.004478	0.433333	0.019548	-0.112399	0.007330
437	63.826996	0.147430	-0.235440	-9.417600	0.235440	-0.132836	0.004478	0.430000	0.012217	-0.105069	0.003665
438	63.956146	0.196594	0.000000	-9.535320	0.117720	-0.131343	0.004478	0.426667	0.007330	-0.094073	0.010996
439	64.085297	0.165771	0.000000	-9.182160	0.117720	-0.128358	0.004478	0.426667	0.013439	-0.084299	0.004887
440	64.214447	0.134949	0.000000	-9.417600	0.235440	-0.125373	0.004478	0.425000	0.010996	-0.079412	0.009774
441	64.343597	0.184113	-0.117720	-9.417600	0.353160	-0.125373	0.002985	0.428333	0.006109	-0.062308	0.007330
442	64.472748	0.153290	0.000000	-9.535320	0.470880	-0.126866	0.002985	0.423333	0.014661	-0.052534	0.009774
443	64.601898	0.202454	0.000000	-9.417600	0.117720	-0.125373	0.002985	0.425000	0.013439	-0.051313	0.001222
444	64.731049	0.171631	0.000000	-9.417600	0.235440	-0.128358	0.002985	0.426667	0.003665	-0.047647	0.006109
445	64.860229	0.140839	0.000000	-9.417600	0.000000	-0.128358	0.005970	0.426667	0.009774	-0.065973	0.007330
446	64.989380	0.190002	0.000000	-9.299880	-0.353160	-0.125373	0.002985	0.425000	0.014661	-0.118508	0.001222
447	65.118561	0.159210	-0.117720	-9.299880	-0.588600	-0.120896	0.002985	0.421667	0.023213	-0.201586	-0.004887
448	65.247742	0.126587	-0.117720	-9.417600	-0.588600	-0.111940	0.004478	0.420000	0.015882	-0.280998	0.003665
449	65.376892	0.177582	0.117720	-9.299880	-0.706320	-0.098507	0.001493	0.411667	0.020769	-0.371406	-0.007330
450	65.506042	0.146759	0.000000	-9.535320	-0.235440	-0.080597	0.004478	0.403333	0.021991	-0.419054	0.000000
451	65.635223	0.195953	0.117720	-9.417600	0.117720	-0.061194	0.002985	0.390000	0.015882	-0.433714	-0.001222
452	65.764374	0.165131	0.235440	-9.299880	0.235440	-0.044776	0.002985	0.373333	0.019548	-0.415388	0.004887
453	65.893524	0.134308	0.235440	-9.182160	0.117720	-0.028358	0.004478	0.358333	0.019548	-0.395841	-0.001222
454	66.022675	0.183472	0.117720	-9.417600	0.235440	-0.008955	0.002985	0.350000	0.020769	-0.397062	0.001222
455	66.151825	0.152649	0.117720	-9.417600	0.353160	0.023881	0.000000	0.350000	0.019548	-0.366519	0.009774
456	66.281006	0.201843	0.117720	-9.535320	0.824040	0.095522	-0.005970	0.343333	0.028100	-0.321315	0.003665
457	66.410156	0.171021	0.117720	-9.653040	1.059480	0.216418	-0.025373	0.248333	0.025656	-0.243124	0.008552
458	66.539307	0.140198	0.000000	-9.417600	1.412640	0.213433	-0.025373	0.010000	0.021991	-0.149051	0.013439
459	66.668457	0.189362	0.000000	-9.417600	0.235440	0.088060	-0.007463	-0.120000	0.006109	-0.109956	0.009774
460	66.797607	0.158539	0.000000	-9.417600	0.117720	-0.037313	0.007463	-0.145000	0.010996	-0.075747	0.000000
461	66.926758	0.126556	0.117720	-9.299880	0.353160	-0.097015	0.020896	-0.135000	0.004887	-0.051313	0.009774
462	67.055908	0.176880	0.000000	-9.299880	0.000000	-0.095522	0.017910	-0.136667	0.004887	-0.063530	0.007330
463	67.185028	0.146027	0.000000	-9.535320	0.117720	-0.100000	0.017910	-0.135000	0.013439	-0.072082	0.006109
464	67.314178	0.195190	-0.117720	-9.299880	0.117720	-0.123881	0.022388	-0.126667	0.018326	-0.073304	0.003665
465	67.443298	0.164337	0.000000	-9.417600	0.235440	-0.162687	0.031343	-0.106667	0.008552	-0.076969	0.004887
466	67.572418	0.133484	0.000000	-9.535320	0.941760	-0.179104	0.034328	-0.096667	-0.042761	0.097738	0.023213
467	67.701569	0.182648	-0.117720	-9.417600	0.470880	-0.188060	0.032836	-0.090000	-0.118508	0.360410	0.051313
468	67.830719	0.151825	0.000000	-9.417600	0.235440	-0.189552	0.034328	-0.086667	-0.008552	-0.008552	0.010996
469	67.959839	0.200958	-0.117720	-9.417600	0.470880	-0.186567	0.034328	-0.091667	-0.032987	0.034208	0.018326
470	68.088959	0.170105	-0.117720	-9.535320	0.117720	-0.183582	0.035821	-0.096667	0.001222	-0.064752	0.009774
471	68.218140	0.139313	0.000000	-9.417600	0.235440	-0.186567	0.032836	-0.090000	0.003665	-0.062308	0.007330
472	68.347290	0.188477	0.000000	-9.417600	0.235440	-0.188060	0.034328	-0.090000	0.003665	-0.059865	0.009774
473	68.476410	0.157623	0.000000	-9.299880	0.235440	-0.188060	0.035821	-0.085000	0.001222	-0.050091	0.004887
474	68.605560	0.126556	-0.117720	-9.535320	0.000000	-0.188060	0.032836	-0.085000	-0.151495	-0.059865	0.003665
475	68.734680	0.175934	0.000000	-9.535320	0.000000	-0.188060	0.032836	-0.086667	0.007330	-0.062308	0.006109
476	68.863861	0.145142	0.000000	-9.182160	0.117720	-0.189552	0.032836	-0.086667	0.004887	-0.061087	0.013439
477	68.993011	0.194305	-0.117720	-9.535320	0.235440	-0.186567	0.032836	-0.086667	0.006109	-0.056200	0.006109
478	69.122192	0.163513	0.000000	-9.417600	0.000000	-0.186567	0.034328	-0.088333	0.019548	-0.061087	0.002443
479	69.251373	0.132721	-0.117720	-9.299880	0.000000	-0.186567	0.034328	-0.088333	0.013439	-0.058643	0.010996
480	69.380524	0.181885	0.117720	-9.417600	0.235440	-0.185075	0.035821	-0.088333	0.004887	-0.056200	0.010996
481	69.509674	0.151062	0.000000	-9.417600	0.117720	-0.183582	0.032836	-0.090000	0.008552	-0.061087	0.004887
482	69.638794	0.200195	-0.117720	-9.417600	0.117720	-0.185075	0.034328	-0.090000	0.010996	-0.058643	0.000000
483	69.767944	0.169373	0.000000	-9.299880	0.235440	-0.185075	0.032836	-0.091667	0.019548	-0.061087	0.007330
484	69.897095	0.138550	0.000000	-9.299880	0.000000	-0.183582	0.031343	-0.093333	0.018326	-0.057421	0.002443
485	70.026184	0.187653	0.000000	-9.299880	0.000000	-0.183582	0.032836	-0.093333	0.008552	-0.056200	0.000000
486	70.155334	0.156830	-0.235440	-9.417600	0.117720	-0.185075	0.032836	-0.091667	0.003665	-0.053756	0.009774
487	70.284454	0.205963	0.000000	-9.417600	0.353160	-0.185075	0.034328	-0.090000	0.000000	-0.059865	0.004887
488	70.413574	0.175110	0.000000	-9.417600	0.235440	-0.189552	0.035821	-0.086667	0.000000	-0.054978	-0.003665
489	70.542694	0.144257	0.000000	-9.299880	0.235440	-0.192537	0.034328	-0.086667	0.013439	-0.063530	0.009774
490	70.671814	0.191101	0.000000	-9.535320	0.117720	-0.191045	0.035821	-0.083333	0.007330	-0.057421	0.003665
491	70.800964	0.162567	0.000000	-9.417600	0.235440	-0.191045	0.037313	-0.083333	0.017104	-0.062308	0.000000
492	70.930115	0.131744	0.000000	-9.417600	0.117720	-0.194030	0.034328	-0.083333	0.013439	-0.058643	0.004887
493	71.059265	0.180908	0.000000	-9.299880	0.000000	-0.194030	0.034328	-0.081667	0.017104	-0.058643	0.009774
494	71.188446	0.150116	0.000000	-9.535320	0.117720	-0.192537	0.035821	-0.081667	0.010996	-0.057421	0.009774
495	71.317566	0.199249	-0.117720	-9.299880	0.117720	-0.195522	0.034328	-0.076667	0.009774	-0.058643	0.006109
496	71.446716	0.168427	0.000000	-9.417600	0.235440	-0.198507	0.034328	-0.075000	0.017104	-0.057421	0.006109
497	71.575836	0.137573	-0.117720	-9.417600	0.117720	-0.197015	0.032836	-0.073333	0.014661	-0.056200	0.002443
498	71.704987	0.186737	0.000000	-9.535320	0.117720	-0.197015	0.035821	-0.075000	0.014661	-0.059865	0.006109
499	71.834076	0.155853	0.000000	-9.417600	0.117720	-0.195522	0.034328	-0.076667	0.001222	-0.061087	-0.002443
500	71.963196	0.204987	-0.117720	-9.417600	0.117720	-0.197015	0.032836	-0.075000	0.004887	-0.058643	0.010996
501	72.092346	0.174164	0.000000	-9.417600	0.000000	-0.194030	0.034328	-0.075000	0.006109	-0.057421	0.002443
502	72.221466	0.143311	0.000000	-9.535320	0.117720	-0.189552	0.038806	-0.078333	0.014661	-0.059865	0.010996
503	72.350586	0.191071	0.000000	-9.299880	0.235440	-0.188060	0.035821	-0.081667	0.012217	-0.059865	0.008552
504	72.479736	0.161621	0.000000	-9.417600	0.000000	-0.191045	0.037313	-0.080000	0.008552	-0.054978	0.004887
505	72.608856	0.130768	0.000000	-9.299880	0.117720	-0.192537	0.034328	-0.076667	0.006109	-0.058643	0.003665
506	72.737976	0.179901	0.000000	-9.417600	0.117720	-0.192537	0.035821	-0.075000	0.059865	-0.234572	-0.007330
507	72.867096	0.149048	0.000000	-9.299880	-0.470880	-0.192537	0.034328	-0.073333	-0.058643	0.004887	-0.006109
508	72.996216	0.198181	0.000000	-9.299880	-0.353160	-0.197015	0.038806	-0.070000	0.019548	-0.113621	-0.014661
509	73.125366	0.167358	0.000000	-9.417600	0.117720	-0.197015	0.041791	-0.066667	0.008552	-0.063530	0.009774
510	73.254517	0.136536	0.117720	-9.299880	-0.117720	-0.201493	0.047761	-0.068333	0.024435	-0.062308	0.006109
511	73.383667	0.185699	0.000000	-9.299880	0.117720	-0.200000	0.049254	-0.073333	0.024435	-0.052534	0.002443
512	73.512817	0.154877	0.000000	-9.535320	0.117720	-0.188060	0.049254	-0.076667	0.030543	-0.054978	0.003665
513	73.641998	0.204071	-0.117720	-9.417600	0.353160	-0.186567	0.056716	-0.085000	0.009774	-0.065973	0.009774
514	73.771149	0.173248	0.000000	-9.299880	0.117720	-0.188060	0.073134	-0.093333	0.046426	-0.032987	0.002443
515	73.900330	0.142456	0.000000	-9.417600	0.235440	-0.186567	0.089552	-0.101667	0.008552	-0.058643	0.008552
516	74.029510	0.191193	0.000000	-9.299880	0.353160	-0.195522	0.094030	-0.103333	-0.010996	-0.046426	0.009774
517	74.158875	0.161041	-0.117720	-9.417600	0.235440	-0.180597	0.073134	-0.093333	-0.108734	-0.103847	-0.090408
518	74.287811	0.130005	0.000000	-9.417600	0.588600	-0.180597	0.058209	-0.085000	-0.063530	0.151495	0.021991
519	74.416962	0.179169	0.000000	-9.299880	0.000000	-0.183582	0.052239	-0.085000	0.014661	-0.067195	0.008552
520	74.546082	0.148315	0.353160	-9.417600	0.353160	-0.183582	0.050746	-0.078333	-0.041539	-0.092852	0.023213
521	74.675232	0.197479	0.117720	-9.417600	-0.941760	-0.185075	0.049254	-0.076667	0.087965	-0.026878	0.026878
522	74.804382	0.166656	0.000000	-9.417600	0.000000	-0.185075	0.047761	-0.081667	0.039095	-0.239459	-0.010996
523	74.933533	0.135834	0.000000	-9.417600	0.941760	-0.185075	0.046269	-0.075000	0.017104	-0.048869	0.020769
524	75.062653	0.184967	-0.235440	-9.299880	0.000000	-0.168657	0.037313	-0.085000	0.063530	-0.020769	-0.003665
