# FOX Logger (IMU file)
# (c) HiKoB 2011-2012
#
# File created from file HIGPS01.RAW
#
# File format:
# id	t	dt	ax	ay	az	mx	my	mz	gx	gy	gz
#
# Units:
#	Time: s
#	Acceleration: m.s^-2
#	Magnetic field: gauss
#	Rotation speed: rad.s^-1
#
1	14.113220	14.113220	0.000000	-9.535320	0.000000	-0.832836	0.349254	-0.266667	0.004887	0.000000	0.010996
2	14.117767	0.004547	0.000000	-9.535320	0.000000	-0.835821	0.352239	-0.268333	-0.006109	-0.061087	0.015882
3	14.126892	0.009125	0.000000	-9.417600	0.117720	-0.853731	0.346269	-0.263333	0.009774	-0.053756	0.006109
4	14.136047	0.009155	0.117720	-9.770760	0.000000	-0.847761	0.346269	-0.256667	0.004887	-0.043982	0.009774
5	14.145172	0.009125	0.000000	-9.653040	0.000000	-0.847761	0.341791	-0.256667	0.013439	-0.042761	0.008552
6	14.154297	0.009125	0.000000	-9.535320	-0.117720	-0.853731	0.340299	-0.256667	0.007330	-0.050091	0.001222
7	14.163422	0.009125	0.000000	-9.417600	-0.117720	-0.846269	0.344776	-0.275000	-0.004887	-0.058643	0.004887
8	14.172546	0.009125	0.117720	-9.535320	0.117720	-0.831343	0.356716	-0.283333	0.003665	-0.052534	0.009774
9	14.181702	0.009155	0.000000	-9.299880	0.000000	-0.825373	0.359701	-0.290000	0.009774	-0.057421	0.008552
10	14.190826	0.009125	0.117720	-9.535320	-0.117720	-0.823881	0.359701	-0.288333	0.036652	-0.057421	0.002443
11	14.199951	0.009125	0.117720	-9.535320	0.000000	-0.825373	0.362687	-0.290000	0.007330	-0.058643	0.009774
12	14.209076	0.009125	0.117720	-9.417600	-0.117720	-0.825373	0.358209	-0.291667	0.007330	-0.050091	0.008552
13	14.218231	0.009155	0.117720	-9.417600	-0.117720	-0.825373	0.359701	-0.288333	-0.004887	-0.062308	0.002443
14	14.227356	0.009125	0.117720	-9.417600	0.000000	-0.828358	0.356716	-0.288333	0.021991	-0.045204	0.000000
15	14.236481	0.009125	0.117720	-9.653040	0.000000	-0.829851	0.358209	-0.290000	0.004887	-0.051313	0.002443
16	14.245636	0.009155	0.000000	-9.535320	0.000000	-0.825373	0.358209	-0.281667	0.012217	-0.045204	0.008552
17	14.254761	0.009125	0.000000	-9.535320	0.000000	-0.829851	0.356716	-0.286667	0.006109	-0.061087	0.009774
18	14.263885	0.009125	0.117720	-9.417600	0.000000	-0.825373	0.359701	-0.286667	0.007330	-0.051313	0.002443
19	14.273041	0.009155	0.117720	-9.299880	0.000000	-0.840299	0.346269	-0.275000	-0.001222	-0.054978	0.012217
20	14.282166	0.009125	0.000000	-9.299880	0.000000	-0.844776	0.347761	-0.268333	0.008552	-0.048869	0.004887
21	14.291290	0.009125	0.000000	-9.417600	0.235440	-0.828358	0.359701	-0.286667	0.000000	-0.048869	0.012217
22	14.300415	0.009125	0.117720	-9.299880	0.000000	-0.831343	0.362687	-0.286667	0.008552	-0.051313	0.008552
23	14.309570	0.009155	0.117720	-9.535320	-0.117720	-0.825373	0.356716	-0.288333	-0.001222	-0.061087	0.009774
24	14.318695	0.009125	0.117720	-9.535320	0.000000	-0.826866	0.358209	-0.286667	-0.002443	-0.064752	0.009774
25	14.327820	0.009125	0.117720	-9.417600	0.000000	-0.826866	0.359701	-0.288333	0.014661	-0.046426	0.001222
26	14.336945	0.009125	0.117720	-9.417600	-0.353160	-0.828358	0.358209	-0.285000	-0.003665	-0.057421	0.012217
27	14.346100	0.009155	0.235440	-9.653040	0.000000	-0.826866	0.358209	-0.293333	0.002443	-0.056200	0.006109
28	14.355225	0.009125	0.117720	-9.535320	0.117720	-0.826866	0.358209	-0.288333	-0.003665	-0.046426	0.013439
29	14.364349	0.009125	0.117720	-9.299880	0.000000	-0.829851	0.361194	-0.288333	0.001222	-0.054978	0.013439
30	14.373474	0.009125	0.000000	-9.299880	-0.235440	-0.826866	0.358209	-0.288333	-0.007330	-0.067195	0.004887
31	14.382599	0.009125	0.000000	-9.299880	0.117720	-0.828358	0.359701	-0.286667	0.006109	-0.063530	0.001222
32	14.391724	0.009125	0.117720	-9.417600	0.235440	-0.826866	0.359701	-0.285000	0.003665	-0.053756	0.010996
33	14.400848	0.009125	0.117720	-9.417600	0.000000	-0.826866	0.355224	-0.290000	0.003665	-0.050091	0.010996
34	14.409973	0.009125	0.117720	-9.417600	0.117720	-0.828358	0.361194	-0.290000	-0.001222	-0.059865	0.018326
35	14.419098	0.009125	0.117720	-9.535320	0.000000	-0.828358	0.353731	-0.286667	-0.007330	-0.061087	0.009774
36	14.428253	0.009155	0.000000	-9.417600	0.000000	-0.823881	0.361194	-0.286667	-0.006109	-0.064752	0.007330
37	14.437378	0.009125	0.000000	-9.535320	0.000000	-0.828358	0.358209	-0.288333	0.001222	-0.062308	0.004887
38	14.446503	0.009125	0.117720	-9.535320	0.117720	-0.841791	0.347761	-0.273333	0.006109	-0.053756	0.008552
39	14.455627	0.009125	0.117720	-9.535320	0.000000	-0.832836	0.355224	-0.280000	0.003665	-0.067195	0.000000
40	14.464752	0.009125	0.117720	-9.535320	-0.117720	-0.825373	0.355224	-0.288333	-0.002443	-0.050091	0.008552
41	14.473877	0.009125	0.117720	-9.417600	0.000000	-0.826866	0.358209	-0.285000	0.001222	-0.045204	0.008552
42	14.483002	0.009125	0.117720	-9.417600	-0.117720	-0.825373	0.358209	-0.290000	0.002443	-0.051313	0.006109
43	14.492157	0.009155	0.000000	-9.535320	-0.117720	-0.826866	0.358209	-0.285000	0.008552	-0.053756	0.014661
44	14.501282	0.009125	0.000000	-9.417600	-0.235440	-0.828358	0.358209	-0.291667	0.001222	-0.052534	0.017104
45	14.510406	0.009125	0.000000	-9.299880	0.117720	-0.826866	0.361194	-0.286667	0.028100	-0.056200	0.000000
46	14.519531	0.009125	0.000000	-9.417600	0.117720	-0.825373	0.359701	-0.288333	0.015882	-0.048869	0.002443
47	14.528656	0.009125	0.117720	-9.182160	0.000000	-0.829851	0.359701	-0.288333	0.000000	-0.047647	0.012217
48	14.537781	0.009125	0.000000	-9.417600	-0.117720	-0.826866	0.359701	-0.283333	0.151495	-0.050091	0.010996
49	14.546906	0.009125	0.117720	-9.417600	0.117720	-0.825373	0.358209	-0.288333	0.002443	-0.053756	0.006109
50	14.556030	0.009125	0.117720	-9.535320	0.000000	-0.828358	0.358209	-0.285000	-0.004887	-0.057421	0.009774
51	14.565155	0.009125	0.117720	-9.535320	0.235440	-0.828358	0.358209	-0.280000	-0.007330	-0.061087	0.006109
52	14.574371	0.009216	0.117720	-9.535320	0.000000	-0.829851	0.359701	-0.293333	0.004887	-0.056200	0.008552
53	14.583435	0.009064	0.000000	-9.653040	-0.117720	-0.828358	0.358209	-0.285000	0.010996	-0.054978	0.007330
54	14.592560	0.009125	0.000000	-9.417600	-0.117720	-0.825373	0.358209	-0.290000	0.006109	-0.042761	0.013439
55	14.601685	0.009125	0.000000	-9.417600	0.000000	-0.828358	0.361194	-0.286667	0.000000	-0.064752	0.000000
56	14.610809	0.009125	0.117720	-9.417600	0.000000	-0.841791	0.347761	-0.270000	0.001222	-0.063530	0.000000
57	14.619934	0.009125	0.235440	-9.299880	0.000000	-0.832836	0.356716	-0.280000	-0.002443	-0.065973	0.010996
58	14.629059	0.009125	0.117720	-9.535320	0.235440	-0.823881	0.359701	-0.285000	-0.013439	0.095295	0.013439
59	14.638184	0.009125	0.235440	-9.417600	0.000000	-0.825373	0.358209	-0.286667	0.000000	-0.059865	0.010996
60	14.647308	0.009125	0.000000	-9.299880	0.000000	-0.826866	0.358209	-0.290000	0.003665	-0.062308	0.001222
61	14.656433	0.009125	0.000000	-9.535320	0.000000	-0.822388	0.359701	-0.290000	0.002443	-0.061087	0.004887
62	14.665588	0.009155	0.117720	-9.417600	0.117720	-0.825373	0.359701	-0.286667	0.003665	-0.057421	0.012217
63	14.674713	0.009125	0.117720	-9.770760	0.117720	-0.826866	0.359701	-0.291667	0.000000	-0.057421	0.013439
64	14.683838	0.009125	0.117720	-9.299880	-0.117720	-0.828358	0.359701	-0.291667	0.008552	-0.061087	0.000000
65	14.692963	0.009125	0.117720	-9.535320	0.000000	-0.826866	0.361194	-0.290000	-0.002443	-0.058643	0.003665
66	14.702087	0.009125	0.000000	-9.535320	0.000000	-0.828358	0.358209	-0.285000	0.009774	-0.041539	0.009774
67	14.711243	0.009155	0.000000	-9.417600	-0.117720	-0.829851	0.358209	-0.288333	0.007330	-0.056200	0.006109
68	14.720367	0.009125	0.117720	-9.535320	0.000000	-0.826866	0.358209	-0.285000	0.009774	-0.056200	0.007330
69	14.729492	0.009125	0.117720	-9.417600	0.000000	-0.825373	0.361194	-0.286667	-0.006109	-0.048869	0.009774
70	14.738617	0.009125	0.117720	-9.417600	0.000000	-0.825373	0.359701	-0.286667	0.013439	-0.050091	0.001222
71	14.747772	0.009155	0.000000	-9.417600	0.000000	-0.825373	0.362687	-0.283333	0.007330	-0.043982	0.007330
72	14.756897	0.009125	0.117720	-9.417600	0.000000	-0.826866	0.355224	-0.290000	-0.001222	-0.056200	0.017104
73	14.766022	0.009125	0.000000	-9.417600	0.000000	-0.823881	0.359701	-0.285000	0.013439	-0.053756	0.006109
74	14.775146	0.009125	0.000000	-9.299880	0.117720	-0.825373	0.359701	-0.286667	-0.003665	-0.046426	0.008552
75	14.784302	0.009155	-0.117720	-9.535320	0.117720	-0.840299	0.347761	-0.271667	0.002443	-0.054978	0.010996
76	14.793427	0.009125	0.000000	-9.417600	0.000000	-0.828358	0.356716	-0.283333	0.000000	-0.056200	0.009774
77	14.802551	0.009125	0.117720	-9.535320	0.000000	-0.823881	0.361194	-0.288333	0.021991	-0.054978	0.002443
78	14.811676	0.009125	0.117720	-9.535320	0.117720	-0.825373	0.356716	-0.288333	0.024435	-0.042761	0.008552
79	14.820801	0.009125	0.000000	-9.299880	0.117720	-0.825373	0.362687	-0.286667	0.006109	-0.057421	0.006109
80	14.829926	0.009125	0.235440	-9.535320	0.000000	-0.828358	0.359701	-0.291667	0.002443	-0.052534	0.015882
81	14.839081	0.009155	0.117720	-9.299880	0.000000	-0.826866	0.358209	-0.291667	0.003665	-0.054978	0.000000
82	14.848206	0.009125	0.117720	-9.299880	-0.117720	-0.823881	0.356716	-0.288333	0.006109	-0.048869	0.008552
83	14.857330	0.009125	0.117720	-9.299880	0.000000	-0.825373	0.356716	-0.288333	0.000000	-0.043982	0.003665
84	14.866455	0.009125	0.235440	-9.417600	-0.235440	-0.828358	0.361194	-0.291667	0.006109	-0.045204	0.009774
85	14.875610	0.009155	0.000000	-9.417600	0.000000	-0.826866	0.359701	-0.293333	-0.010996	-0.067195	0.006109
86	14.884735	0.009125	0.000000	-9.535320	0.000000	-0.826866	0.359701	-0.288333	0.003665	-0.046426	0.015882
87	14.894348	0.009613	0.000000	-9.535320	0.117720	-0.828358	0.359701	-0.288333	0.004887	-0.050091	0.007330
88	14.902985	0.008636	0.000000	-9.417600	0.117720	-0.829851	0.362687	-0.291667	-0.006109	-0.062308	0.009774
89	14.912109	0.009125	0.117720	-9.417600	0.117720	-0.825373	0.362687	-0.286667	-0.009774	-0.057421	0.013439
90	14.921265	0.009155	0.117720	-9.535320	0.000000	-0.825373	0.356716	-0.288333	-0.003665	-0.053756	0.007330
91	14.930389	0.009125	0.000000	-9.417600	0.117720	-0.826866	0.359701	-0.286667	0.000000	-0.050091	0.004887
92	14.939514	0.009125	0.000000	-9.417600	0.000000	-0.825373	0.356716	-0.290000	0.001222	-0.054978	0.009774
93	14.948639	0.009125	0.117720	-9.299880	0.117720	-0.825373	0.364179	-0.283333	-0.007330	-0.056200	0.015882
94	14.957764	0.009125	0.117720	-9.417600	0.117720	-0.838806	0.350746	-0.270000	0.018326	-0.048869	0.008552
95	14.966888	0.009125	0.235440	-9.417600	-0.117720	-0.829851	0.355224	-0.283333	0.001222	-0.061087	0.012217
96	14.976013	0.009125	0.117720	-9.417600	0.235440	-0.822388	0.356716	-0.286667	-0.004887	-0.069639	0.006109
97	14.985168	0.009155	0.000000	-9.417600	0.117720	-0.823881	0.361194	-0.285000	0.008552	-0.047647	0.010996
98	14.994293	0.009125	0.000000	-9.417600	-0.117720	-0.828358	0.356716	-0.291667	0.007330	-0.046426	0.004887
99	15.003448	0.009155	0.000000	-9.417600	0.000000	-0.829851	0.359701	-0.286667	0.014661	-0.045204	0.009774
100	15.012573	0.009125	0.000000	-9.417600	0.000000	-0.825373	0.358209	-0.283333	0.003665	-0.048869	0.003665
101	15.021698	0.009125	0.000000	-9.299880	-0.117720	-0.829851	0.358209	-0.291667	0.008552	-0.050091	0.007330
102	15.030853	0.009155	0.117720	-9.417600	-0.117720	-0.825373	0.358209	-0.290000	0.003665	-0.054978	0.004887
103	15.039978	0.009125	0.000000	-9.417600	0.000000	-0.822388	0.359701	-0.290000	-0.007330	-0.059865	0.007330
104	15.049103	0.009125	0.117720	-9.299880	0.000000	-0.825373	0.359701	-0.290000	-0.003665	-0.053756	0.010996
105	15.058228	0.009125	0.000000	-9.653040	0.000000	-0.822388	0.353731	-0.291667	-0.003665	-0.059865	0.008552
106	15.067383	0.009155	0.117720	-9.535320	-0.117720	-0.828358	0.359701	-0.293333	0.003665	-0.057421	-0.001222
107	15.076508	0.009125	0.117720	-9.417600	0.000000	-0.828358	0.358209	-0.286667	0.001222	-0.051313	0.010996
108	15.085632	0.009125	0.000000	-9.535320	0.000000	-0.829851	0.359701	-0.291667	0.004887	-0.063530	0.004887
109	15.094757	0.009125	0.000000	-9.535320	0.000000	-0.831343	0.358209	-0.293333	0.035430	-0.056200	0.008552
110	15.103912	0.009155	-0.117720	-9.535320	-0.117720	-0.828358	0.358209	-0.290000	0.017104	-0.061087	0.002443
111	15.113037	0.009125	0.000000	-9.417600	-0.117720	-0.829851	0.362687	-0.288333	0.009774	-0.051313	0.010996
112	15.122162	0.009125	0.000000	-9.417600	-0.117720	-0.838806	0.347761	-0.275000	-0.002443	-0.053756	0.010996
113	15.131317	0.009155	0.000000	-9.417600	0.117720	-0.831343	0.356716	-0.283333	0.003665	-0.064752	0.004887
114	15.140442	0.009125	-0.117720	-9.535320	0.000000	-0.826866	0.359701	-0.288333	-0.002443	-0.048869	0.010996
115	15.149567	0.009125	-0.117720	-9.417600	0.000000	-0.828358	0.362687	-0.286667	-0.003665	-0.056200	0.009774
116	15.158722	0.009155	0.000000	-9.417600	0.000000	-0.828358	0.359701	-0.288333	0.003665	-0.048869	0.002443
117	15.167847	0.009125	0.000000	-9.653040	0.000000	-0.825373	0.359701	-0.288333	0.001222	-0.056200	0.008552
118	15.176971	0.009125	0.000000	-9.417600	0.000000	-0.831343	0.356716	-0.293333	0.004887	-0.048869	0.007330
119	15.186127	0.009155	0.000000	-9.417600	0.000000	-0.826866	0.359701	-0.285000	0.002443	-0.051313	0.008552
120	15.195251	0.009125	0.000000	-9.417600	0.000000	-0.826866	0.358209	-0.293333	0.004887	-0.054978	0.000000
121	15.204376	0.009125	0.000000	-9.299880	-0.117720	-0.828358	0.359701	-0.290000	0.001222	-0.045204	0.010996
122	15.214294	0.009918	-0.117720	-9.299880	0.000000	-0.825373	0.361194	-0.286667	-0.007330	-0.056200	0.010996
123	15.222656	0.008362	-0.117720	-9.299880	0.117720	-0.826866	0.361194	-0.288333	0.008552	-0.057421	0.009774
124	15.231781	0.009125	0.000000	-9.417600	0.117720	-0.831343	0.361194	-0.283333	0.002443	-0.054978	0.013439
125	15.240906	0.009125	0.000000	-9.417600	0.117720	-0.828358	0.358209	-0.288333	0.000000	-0.064752	0.012217
126	15.250031	0.009125	-0.117720	-9.535320	0.000000	-0.828358	0.356716	-0.293333	0.004887	-0.052534	0.012217
127	15.259186	0.009155	-0.235440	-9.535320	0.000000	-0.826866	0.359701	-0.286667	-0.002443	-0.067195	0.003665
128	15.268311	0.009125	0.000000	-9.417600	0.000000	-0.829851	0.359701	-0.288333	-0.008552	-0.065973	0.003665
129	15.277435	0.009125	0.000000	-9.417600	0.117720	-0.825373	0.359701	-0.291667	0.014661	-0.050091	0.003665
130	15.286591	0.009155	0.000000	-9.417600	0.117720	-0.829851	0.359701	-0.290000	-0.001222	-0.057421	0.013439
131	15.295715	0.009125	0.000000	-9.653040	0.235440	-0.834328	0.347761	-0.276667	0.004887	-0.047647	0.012217
132	15.304840	0.009125	0.000000	-9.653040	0.117720	-0.834328	0.353731	-0.280000	0.004887	-0.054978	0.002443
133	15.313965	0.009125	-0.117720	-9.417600	0.117720	-0.826866	0.356716	-0.285000	0.006109	-0.036652	0.019548
134	15.323120	0.009155	-0.117720	-9.535320	0.000000	-0.825373	0.358209	-0.285000	-0.007330	-0.063530	0.010996
135	15.332245	0.009125	0.000000	-9.535320	0.000000	-0.825373	0.356716	-0.285000	0.009774	-0.052534	0.000000
136	15.341370	0.009125	0.000000	-9.417600	-0.117720	-0.826866	0.359701	-0.286667	0.006109	-0.061087	0.003665
137	15.350525	0.009155	0.000000	-9.535320	0.000000	-0.823881	0.359701	-0.290000	0.150273	-0.057421	0.012217
138	15.359650	0.009125	0.000000	-9.770760	0.117720	-0.826866	0.359701	-0.293333	0.007330	-0.050091	0.012217
139	15.368774	0.009125	-0.117720	-9.417600	0.117720	-0.829851	0.359701	-0.285000	0.004887	-0.053756	0.017104
140	15.377899	0.009125	0.000000	-9.299880	0.588600	-0.825373	0.355224	-0.291667	0.006109	-0.064752	0.006109
141	15.387024	0.009125	-0.235440	-9.417600	2.472120	-0.825373	0.356716	-0.290000	-0.024435	-0.098960	0.037874
142	15.396179	0.009155	-0.353160	-9.653040	1.412640	-0.828358	0.355224	-0.290000	0.014661	-0.086743	0.009774
143	15.405304	0.009125	-0.117720	-9.535320	0.000000	-0.826866	0.355224	-0.286667	-0.007330	-0.067195	0.010996
144	15.414429	0.009125	-0.588600	-8.946720	-0.353160	-0.826866	0.359701	-0.286667	-0.028100	0.031765	-0.002443
145	15.423553	0.009125	0.000000	-9.299880	-0.470880	-0.826866	0.358209	-0.293333	0.135612	0.037874	-0.034208
146	15.432709	0.009155	-0.470880	-10.241640	-2.001240	-0.828358	0.356716	-0.291667	0.117286	-0.079412	-0.020769
147	15.441833	0.009125	-0.588600	-9.535320	-1.412640	-0.826866	0.359701	-0.290000	0.024435	-0.118508	0.012217
148	15.450958	0.009125	-0.706320	-10.123920	0.000000	-0.829851	0.361194	-0.288333	0.056200	-0.023213	-0.006109
149	15.460114	0.009155	-0.353160	-10.006200	-0.941760	-0.841791	0.353731	-0.273333	0.034208	-0.081856	0.002443
150	15.469238	0.009125	0.117720	-9.064440	0.353160	-0.844776	0.349254	-0.275000	0.025656	0.000000	0.008552
151	15.478363	0.009125	-0.470880	-9.770760	1.530360	-0.828358	0.359701	-0.288333	-0.075747	-0.076969	0.034208
152	15.487518	0.009155	-0.117720	-9.535320	1.177200	-0.828358	0.356716	-0.290000	0.092852	-0.065973	0.007330
153	15.496643	0.009125	0.117720	-9.182160	0.588600	-0.828358	0.358209	-0.290000	-0.036652	-0.087965	0.020769
154	15.505768	0.009125	0.000000	-9.535320	-0.353160	-0.825373	0.358209	-0.291667	-0.004887	-0.062308	0.007330
155	15.514893	0.009125	-0.235440	-9.535320	-0.824040	-0.825373	0.356716	-0.288333	-0.010996	-0.067195	0.010996
156	15.524017	0.009125	-0.353160	-9.182160	-0.588600	-0.825373	0.356716	-0.288333	-0.015882	-0.074526	0.025656
157	15.534241	0.010223	-0.706320	-10.241640	-0.588600	-0.829851	0.356716	-0.288333	-0.012217	-0.079412	0.001222
158	15.542297	0.008057	-0.117720	-10.123920	-0.235440	-0.829851	0.358209	-0.285000	-0.010996	-0.059865	0.003665
159	15.551422	0.009125	-0.117720	-9.299880	-0.353160	-0.829851	0.356716	-0.288333	0.020769	-0.032987	0.000000
160	15.560547	0.009125	-0.235440	-9.417600	-0.235440	-0.829851	0.355224	-0.288333	-0.006109	-0.037874	-0.002443
161	15.569702	0.009155	-0.353160	-9.653040	1.177200	-0.825373	0.355224	-0.286667	0.008552	-0.039095	0.021991
162	15.578827	0.009125	-0.353160	-9.535320	1.412640	-0.831343	0.356716	-0.288333	0.003665	-0.064752	0.023213
163	15.587952	0.009125	-0.235440	-9.770760	1.883520	-0.831343	0.355224	-0.283333	0.052534	-0.067195	0.010996
164	15.597076	0.009125	0.000000	-9.064440	0.000000	-0.828358	0.355224	-0.291667	0.028100	-0.047647	0.018326
165	15.606232	0.009155	-0.235440	-9.064440	-0.470880	-0.829851	0.356716	-0.293333	0.007330	-0.056200	0.001222
166	15.615356	0.009125	-0.470880	-10.477080	1.294920	-0.825373	0.352239	-0.288333	0.043982	-0.067195	0.008552
167	15.624481	0.009125	-0.353160	-9.299880	-0.353160	-0.831343	0.356716	-0.283333	0.006109	-0.056200	0.008552
168	15.633606	0.009125	-0.117720	-9.299880	0.706320	-0.843284	0.344776	-0.270000	-0.073304	-0.065973	0.014661
169	15.642761	0.009155	-0.470880	-9.653040	-1.648080	-0.835821	0.353731	-0.283333	-0.032987	0.078191	-0.014661
170	15.651886	0.009125	0.117720	-9.770760	-1.530360	-0.832836	0.355224	-0.291667	-0.010996	-0.139277	0.020769
171	15.661011	0.009125	0.000000	-9.299880	0.353160	-0.837313	0.356716	-0.288333	-0.042761	-0.058643	0.002443
172	15.670135	0.009125	-0.470880	-9.653040	0.000000	-0.832836	0.358209	-0.286667	-0.042761	-0.059865	0.004887
173	15.679291	0.009155	-0.235440	-9.653040	0.470880	-0.834328	0.353731	-0.283333	0.035430	-0.029322	0.015882
174	15.688416	0.009125	0.117720	-8.946720	0.353160	-0.831343	0.356716	-0.286667	0.063530	-0.056200	0.000000
175	15.697540	0.009125	-0.117720	-9.888480	0.353160	-0.831343	0.353731	-0.285000	0.001222	-0.070860	0.009774
176	15.706696	0.009155	-0.824040	-10.241640	0.706320	-0.831343	0.355224	-0.286667	-0.017104	-0.076969	0.010996
177	15.715820	0.009125	0.000000	-9.182160	-1.059480	-0.832836	0.355224	-0.288333	-0.020769	-0.057421	0.008552
178	15.724976	0.009155	-0.117720	-9.417600	0.000000	-0.832836	0.353731	-0.290000	-0.070860	-0.061087	0.020769
179	15.734100	0.009125	-1.059480	-10.006200	-0.588600	-0.838806	0.355224	-0.288333	-0.116064	0.000000	0.009774
180	15.743256	0.009155	0.117720	-9.064440	-0.470880	-0.831343	0.355224	-0.286667	-0.006109	-0.045204	0.006109
181	15.752380	0.009125	0.235440	-8.711280	0.235440	-0.835821	0.355224	-0.281667	-0.028100	0.015882	0.021991
182	15.761505	0.009125	-0.117720	-10.241640	1.059480	-0.832836	0.352239	-0.283333	0.047647	-0.015882	0.021991
183	15.770660	0.009155	-0.706320	-10.830240	2.001240	-0.835821	0.352239	-0.286667	0.000000	-0.056200	0.014661
184	15.779785	0.009125	0.000000	-8.711280	0.000000	-0.834328	0.353731	-0.283333	0.043982	-0.054978	-0.010996
185	15.788940	0.009155	0.000000	-7.887240	-0.706320	-0.831343	0.353731	-0.285000	0.009774	-0.048869	-0.001222
186	15.798065	0.009125	-0.235440	-10.594800	1.177200	-0.847761	0.343284	-0.270000	0.030543	-0.041539	0.010996
187	15.807190	0.009125	-0.117720	-10.477080	1.530360	-0.841791	0.350746	-0.276667	-0.039095	-0.076969	0.014661
188	15.816345	0.009155	0.235440	-8.829000	-0.353160	-0.835821	0.350746	-0.280000	-0.019548	-0.058643	0.008552
189	15.825470	0.009125	0.353160	-8.593560	-0.824040	-0.834328	0.353731	-0.285000	-0.007330	-0.061087	0.006109
190	15.834595	0.009125	-0.588600	-10.006200	0.117720	-0.835821	0.352239	-0.283333	0.034208	-0.052534	0.006109
191	15.843750	0.009155	-0.235440	-11.065680	0.235440	-0.837313	0.352239	-0.283333	0.008552	-0.053756	0.010996
192	15.852875	0.009125	0.000000	-8.829000	-0.235440	-0.834328	0.352239	-0.285000	0.041539	-0.024435	0.009774
193	15.862000	0.009125	0.000000	-8.475840	-0.941760	-0.837313	0.350746	-0.290000	0.031765	-0.034208	-0.006109
194	15.871155	0.009155	-0.117720	-10.359360	0.000000	-0.835821	0.349254	-0.283333	0.167377	-0.075747	-0.002443
195	15.880280	0.009125	-0.706320	-9.653040	1.294920	-0.837313	0.355224	-0.291667	0.102625	-0.041539	0.014661
196	15.889435	0.009155	0.588600	-8.829000	-0.235440	-0.840299	0.350746	-0.286667	0.087965	-0.047647	0.000000
197	15.898560	0.009125	0.235440	-9.182160	-0.353160	-0.841791	0.349254	-0.288333	-0.103847	-0.056200	-0.019548
198	15.907684	0.009125	-0.470880	-10.359360	2.472120	-0.832836	0.353731	-0.281667	-0.117286	-0.065973	0.035430
199	15.916809	0.009125	0.000000	-9.653040	0.353160	-0.838806	0.350746	-0.288333	-0.064752	-0.070860	0.014661
200	15.925964	0.009155	0.000000	-8.004960	0.706320	-0.841791	0.349254	-0.285000	-0.133169	-0.094073	0.025656
201	15.935089	0.009125	-0.235440	-9.653040	-0.235440	-0.837313	0.355224	-0.290000	-0.025656	-0.073304	-0.004887
202	15.944214	0.009125	-0.235440	-10.594800	-0.353160	-0.840299	0.349254	-0.285000	0.004887	-0.043982	0.014661
203	15.953339	0.009125	0.000000	-9.182160	0.000000	-0.838806	0.352239	-0.286667	0.081856	-0.035430	0.010996
204	15.962494	0.009155	0.000000	-9.064440	0.235440	-0.844776	0.349254	-0.290000	0.079412	-0.054978	0.004887
205	15.971619	0.009125	0.000000	-9.770760	-0.353160	-0.855224	0.341791	-0.271667	0.008552	-0.074526	-0.001222
206	15.980743	0.009125	-0.117720	-10.123920	0.470880	-0.849254	0.350746	-0.283333	0.045204	-0.028100	-0.002443
207	15.989868	0.009125	-0.117720	-9.535320	0.000000	-0.843284	0.352239	-0.285000	0.017104	-0.015882	0.015882
208	15.999023	0.009155	0.235440	-8.711280	0.824040	-0.840299	0.350746	-0.283333	0.025656	-0.057421	0.002443
209	16.008148	0.009125	-0.117720	-8.711280	0.588600	-0.841791	0.352239	-0.286667	-0.061087	-0.070860	0.024435
210	16.017273	0.009125	0.117720	-10.947960	-0.470880	-0.840299	0.350746	-0.290000	0.000000	-0.081856	0.000000
211	16.026398	0.009125	-0.235440	-9.770760	-0.117720	-0.844776	0.350746	-0.285000	0.040317	-0.036652	0.004887
212	16.035553	0.009155	0.117720	-8.829000	0.706320	-0.846269	0.352239	-0.285000	-0.043982	-0.058643	0.010996
213	16.044678	0.009125	-0.235440	-8.946720	-1.530360	-0.847761	0.352239	-0.286667	0.008552	-0.065973	0.003665
214	16.053802	0.009125	0.000000	-10.123920	-1.059480	-0.844776	0.352239	-0.290000	-0.024435	-0.079412	0.009774
215	16.062958	0.009155	0.117720	-10.006200	-0.235440	-0.843284	0.349254	-0.291667	-0.040317	-0.054978	0.007330
216	16.072083	0.009125	0.000000	-9.888480	0.000000	-0.844776	0.349254	-0.293333	-0.013439	-0.057421	0.013439
217	16.081207	0.009125	0.117720	-9.299880	0.117720	-0.844776	0.349254	-0.290000	-0.031765	-0.056200	0.013439
218	16.090332	0.009125	0.117720	-9.417600	-0.470880	-0.847761	0.350746	-0.288333	-0.012217	-0.064752	0.009774
219	16.099487	0.009155	-0.117720	-9.417600	0.000000	-0.846269	0.352239	-0.288333	0.035430	-0.040317	0.014661
220	16.108612	0.009125	-0.117720	-10.477080	1.177200	-0.844776	0.350746	-0.290000	-0.019548	-0.072082	0.018326
221	16.117737	0.009125	0.000000	-9.770760	0.235440	-0.847761	0.352239	-0.291667	-0.030543	-0.075747	0.023213
222	16.126862	0.009125	0.000000	-9.182160	-0.706320	-0.846269	0.352239	-0.290000	0.080634	-0.032987	-0.003665
223	16.136017	0.009155	0.000000	-9.653040	-0.235440	-0.862687	0.338806	-0.275000	0.034208	-0.048869	-0.008552
224	16.145142	0.009125	-0.235440	-9.770760	0.941760	-0.853731	0.346269	-0.286667	0.080634	-0.039095	0.009774
225	16.154266	0.009125	-0.235440	-9.064440	0.706320	-0.847761	0.349254	-0.290000	0.083078	-0.067195	-0.003665
226	16.163391	0.009125	0.000000	-10.123920	-0.353160	-0.850746	0.350746	-0.291667	-0.047647	-0.081856	0.014661
227	16.172546	0.009155	0.000000	-9.535320	0.353160	-0.847761	0.352239	-0.290000	-0.100182	-0.069639	0.007330
228	16.181671	0.009125	0.000000	-9.417600	-0.588600	-0.849254	0.353731	-0.296667	-0.063530	-0.050091	0.017104
229	16.190826	0.009155	0.000000	-9.299880	0.706320	-0.849254	0.355224	-0.293333	-0.013439	-0.034208	0.021991
230	16.199951	0.009125	0.117720	-8.829000	0.706320	-0.849254	0.350746	-0.295000	0.080634	-0.041539	-0.001222
231	16.209076	0.009125	0.117720	-9.417600	-0.706320	-0.849254	0.352239	-0.291667	0.056200	-0.073304	0.001222
232	16.218231	0.009155	0.000000	-9.888480	0.470880	-0.852239	0.353731	-0.295000	0.062308	-0.043982	-0.001222
233	16.227356	0.009125	0.000000	-10.359360	-0.470880	-0.849254	0.350746	-0.290000	0.118508	-0.025656	-0.015882
234	16.236481	0.009125	-0.353160	-9.417600	0.117720	-0.847761	0.353731	-0.293333	0.023213	-0.073304	0.017104
235	16.245636	0.009155	0.235440	-9.182160	0.353160	-0.847761	0.352239	-0.293333	-0.012217	-0.056200	0.013439
236	16.254761	0.009125	0.117720	-9.535320	-1.648080	-0.849254	0.353731	-0.295000	-0.047647	-0.050091	-0.002443
237	16.263885	0.009125	0.000000	-9.770760	0.000000	-0.847761	0.355224	-0.298333	0.035430	-0.014661	-0.010996
238	16.273041	0.009155	-0.235440	-9.770760	0.117720	-0.850746	0.355224	-0.293333	0.025656	-0.040317	0.009774
239	16.282166	0.009125	0.117720	-9.182160	0.117720	-0.852239	0.353731	-0.301667	0.040317	-0.051313	0.013439
240	16.291290	0.009125	0.117720	-9.064440	0.235440	-0.852239	0.355224	-0.298333	0.092852	-0.043982	-0.009774
241	16.300446	0.009155	0.117720	-9.770760	0.470880	-0.849254	0.355224	-0.298333	0.063530	-0.050091	0.004887
242	16.309570	0.009125	-0.235440	-9.770760	0.588600	-0.861194	0.346269	-0.283333	-0.053756	-0.059865	0.017104
243	16.318695	0.009125	0.117720	-9.888480	0.353160	-0.850746	0.352239	-0.295000	-0.031765	-0.063530	0.009774
244	16.327850	0.009155	0.117720	-9.417600	0.353160	-0.847761	0.355224	-0.295000	-0.003665	-0.053756	0.010996
245	16.336975	0.009125	-0.117720	-9.182160	0.470880	-0.846269	0.355224	-0.298333	-0.028100	-0.052534	0.018326
246	16.346100	0.009125	0.000000	-10.006200	0.235440	-0.849254	0.355224	-0.296667	-0.078191	-0.079412	0.031765
247	16.355225	0.009125	0.235440	-10.006200	0.706320	-0.849254	0.356716	-0.303333	0.117286	-0.054978	0.000000
248	16.364380	0.009155	0.000000	-9.299880	0.117720	-0.847761	0.356716	-0.303333	0.087965	-0.032987	-0.003665
249	16.373505	0.009125	-0.117720	-9.299880	0.353160	-0.847761	0.356716	-0.301667	0.076969	-0.035430	0.001222
250	16.382629	0.009125	0.000000	-9.535320	0.000000	-0.847761	0.356716	-0.303333	0.074526	-0.047647	0.006109
251	16.391754	0.009125	0.000000	-9.888480	0.235440	-0.847761	0.355224	-0.306667	0.048869	-0.047647	0.007330
252	16.400909	0.009155	-0.470880	-9.535320	0.353160	-0.852239	0.356716	-0.301667	-0.070860	-0.052534	0.021991
253	16.410034	0.009125	-0.353160	-9.417600	0.470880	-0.846269	0.359701	-0.303333	-0.080634	-0.053756	0.026878
254	16.419159	0.009125	0.000000	-9.535320	-0.941760	-0.840299	0.355224	-0.301667	-0.050091	-0.083078	0.000000
255	16.428314	0.009155	-0.353160	-9.417600	-0.235440	-0.847761	0.359701	-0.308333	0.019548	-0.043982	-0.007330
256	16.437439	0.009125	0.000000	-9.535320	0.117720	-0.847761	0.361194	-0.305000	-0.001222	-0.048869	0.021991
257	16.446594	0.009155	0.000000	-9.064440	0.000000	-0.843284	0.355224	-0.306667	0.051313	-0.057421	0.008552
258	16.455719	0.009125	0.117720	-9.417600	0.000000	-0.844776	0.356716	-0.305000	0.014661	-0.051313	-0.002443
259	16.464844	0.009125	-0.117720	-9.653040	-0.353160	-0.844776	0.358209	-0.305000	-0.068417	-0.047647	0.020769
260	16.473999	0.009155	-0.235440	-10.006200	0.470880	-0.846269	0.358209	-0.306667	-0.061087	-0.064752	0.021991
261	16.483124	0.009125	-0.353160	-9.770760	0.000000	-0.858209	0.346269	-0.290000	-0.134390	-0.065973	0.028100
262	16.492249	0.009125	-0.117720	-9.888480	1.059480	-0.850746	0.356716	-0.300000	0.041539	-0.050091	0.008552
263	16.501404	0.009155	0.353160	-9.299880	0.353160	-0.840299	0.361194	-0.310000	0.076969	-0.064752	0.020769
264	16.510559	0.009155	0.000000	-8.711280	-0.470880	-0.841791	0.358209	-0.303333	0.068417	-0.046426	0.004887
265	16.519684	0.009125	0.000000	-10.006200	0.117720	-0.846269	0.358209	-0.305000	0.062308	-0.057421	0.015882
266	16.528809	0.009125	0.000000	-10.123920	0.470880	-0.838806	0.361194	-0.306667	0.074526	-0.045204	0.006109
267	16.537933	0.009125	-0.117720	-9.299880	0.353160	-0.844776	0.361194	-0.311667	0.059865	-0.059865	-0.003665
268	16.547089	0.009155	0.000000	-9.653040	-0.470880	-0.841791	0.361194	-0.306667	0.048869	-0.042761	0.007330
269	16.556213	0.009125	0.000000	-8.593560	-0.235440	-0.840299	0.361194	-0.308333	-0.002443	-0.045204	0.017104
270	16.565338	0.009125	0.117720	-9.535320	0.706320	-0.841791	0.359701	-0.306667	0.000000	-0.045204	0.010996
271	16.574493	0.009155	-0.235440	-10.359360	0.000000	-0.846269	0.361194	-0.305000	-0.008552	-0.092852	0.009774
272	16.583618	0.009125	-0.235440	-10.359360	1.177200	-0.838806	0.359701	-0.303333	0.050091	-0.045204	0.020769
273	16.592743	0.009125	0.000000	-9.770760	0.000000	-0.835821	0.361194	-0.310000	0.029322	-0.061087	0.012217
274	16.601868	0.009125	0.000000	-8.711280	0.000000	-0.840299	0.361194	-0.311667	-0.041539	-0.052534	0.013439
275	16.611023	0.009155	0.117720	-9.299880	-0.117720	-0.837313	0.362687	-0.308333	0.028100	-0.052534	0.004887
276	16.620148	0.009125	-0.235440	-9.888480	0.000000	-0.837313	0.359701	-0.310000	0.145386	-0.050091	0.006109
277	16.629272	0.009125	0.000000	-10.123920	1.294920	-0.834328	0.359701	-0.310000	-0.094073	-0.090408	0.024435
278	16.638428	0.009155	0.000000	-9.770760	-0.353160	-0.835821	0.362687	-0.310000	-0.111177	-0.079412	0.017104
279	16.647552	0.009125	0.000000	-9.182160	-0.470880	-0.849254	0.352239	-0.291667	-0.102625	-0.069639	0.030543
280	16.656677	0.009125	0.117720	-9.182160	0.117720	-0.834328	0.359701	-0.303333	-0.078191	-0.067195	0.018326
281	16.665833	0.009155	0.000000	-9.888480	-0.588600	-0.834328	0.362687	-0.313333	0.054978	-0.057421	0.000000
282	16.674957	0.009125	0.000000	-9.888480	-0.353160	-0.832836	0.361194	-0.308333	0.004887	-0.051313	0.002443
283	16.684082	0.009125	0.000000	-9.770760	-0.117720	-0.834328	0.362687	-0.308333	-0.035430	-0.053756	0.013439
284	16.693237	0.009155	0.117720	-9.535320	0.706320	-0.831343	0.361194	-0.306667	0.000000	-0.062308	0.001222
285	16.702362	0.009125	-0.117720	-8.829000	-0.117720	-0.829851	0.361194	-0.306667	0.035430	-0.035430	0.010996
286	16.711487	0.009125	0.000000	-9.417600	1.412640	-0.831343	0.359701	-0.310000	-0.083078	-0.062308	0.029322
287	16.720642	0.009155	0.353160	-10.241640	0.117720	-0.832836	0.364179	-0.310000	-0.046426	-0.080634	0.010996
288	16.729767	0.009125	-0.117720	-9.417600	-0.353160	-0.831343	0.364179	-0.306667	-0.070860	-0.047647	0.025656
289	16.738892	0.009125	-0.470880	-9.182160	0.588600	-0.826866	0.364179	-0.305000	0.004887	-0.059865	0.015882
290	16.748047	0.009155	0.117720	-9.653040	0.470880	-0.829851	0.364179	-0.308333	0.020769	-0.069639	0.010996
291	16.757172	0.009125	0.000000	-9.535320	0.117720	-0.828358	0.362687	-0.306667	0.083078	-0.064752	0.000000
292	16.766296	0.009125	0.117720	-9.535320	-0.588600	-0.825373	0.362687	-0.310000	0.081856	-0.029322	0.008552
293	16.775452	0.009155	-0.117720	-9.417600	-0.824040	-0.828358	0.361194	-0.310000	-0.003665	-0.053756	-0.001222
294	16.784576	0.009125	0.000000	-9.770760	0.824040	-0.828358	0.362687	-0.308333	0.012217	-0.051313	0.002443
295	16.793701	0.009125	0.000000	-9.535320	-0.470880	-0.823881	0.362687	-0.306667	-0.050091	-0.064752	0.024435
296	16.802826	0.009125	0.117720	-9.064440	0.235440	-0.825373	0.364179	-0.308333	-0.008552	-0.053756	0.009774
297	16.811981	0.009155	0.470880	-9.535320	-0.235440	-0.822388	0.361194	-0.311667	0.010996	-0.050091	0.017104
298	16.821106	0.009125	0.117720	-9.535320	-0.588600	-0.843284	0.359701	-0.290000	0.026878	-0.041539	0.010996
299	16.830261	0.009155	-0.117720	-9.535320	-0.235440	-0.840299	0.355224	-0.293333	0.052534	-0.037874	0.000000
300	16.839386	0.009125	0.000000	-9.888480	0.117720	-0.819403	0.362687	-0.308333	0.128282	-0.032987	-0.001222
301	16.848541	0.009155	0.353160	-9.535320	0.470880	-0.823881	0.361194	-0.306667	0.101404	-0.058643	0.000000
302	16.857666	0.009125	0.235440	-9.182160	0.235440	-0.822388	0.361194	-0.310000	-0.050091	-0.059865	0.010996
303	16.866791	0.009125	0.235440	-9.417600	-0.824040	-0.822388	0.361194	-0.308333	-0.119730	-0.091630	0.013439
304	16.875916	0.009125	0.117720	-9.888480	0.235440	-0.819403	0.361194	-0.306667	-0.116064	-0.069639	0.023213
305	16.885071	0.009155	0.117720	-10.123920	-0.117720	-0.819403	0.362687	-0.306667	-0.098960	-0.098960	0.020769
306	16.894196	0.009125	0.000000	-9.770760	0.000000	-0.819403	0.361194	-0.313333	0.000000	-0.119730	0.025656
307	16.903320	0.009125	0.000000	-9.417600	0.000000	-0.816418	0.362687	-0.308333	0.030543	0.018326	0.017104
308	16.912476	0.009155	0.000000	-8.829000	-1.059480	-0.820896	0.361194	-0.310000	0.039095	-0.015882	0.002443
309	16.921600	0.009125	0.000000	-9.535320	0.470880	-0.813433	0.361194	-0.310000	0.043982	-0.042761	0.008552
310	16.930725	0.009125	-0.235440	-9.888480	0.470880	-0.814925	0.361194	-0.306667	0.063530	-0.062308	0.004887
311	16.939880	0.009155	0.117720	-10.006200	0.470880	-0.810448	0.361194	-0.310000	-0.006109	-0.057421	0.008552
312	16.949005	0.009125	0.000000	-9.182160	0.000000	-0.810448	0.359701	-0.306667	-0.035430	-0.056200	0.013439
313	16.958160	0.009155	0.117720	-9.182160	0.470880	-0.814925	0.362687	-0.308333	-0.083078	-0.063530	0.015882
314	16.967285	0.009125	0.470880	-9.417600	0.235440	-0.810448	0.361194	-0.306667	-0.073304	-0.070860	0.009774
315	16.976440	0.009155	0.235440	-9.535320	0.235440	-0.808955	0.362687	-0.308333	-0.090408	-0.068417	0.020769
316	16.985565	0.009125	0.235440	-10.006200	0.588600	-0.823881	0.352239	-0.286667	0.017104	-0.067195	0.034208
317	16.994690	0.009125	0.000000	-9.064440	-1.294920	-0.814925	0.359701	-0.301667	0.054978	-0.042761	0.003665
318	17.003815	0.009125	0.353160	-9.770760	0.235440	-0.811940	0.359701	-0.310000	0.030543	-0.067195	-0.003665
319	17.012970	0.009155	0.353160	-9.653040	0.117720	-0.811940	0.361194	-0.306667	0.041539	-0.043982	0.012217
320	17.022095	0.009125	0.117720	-9.770760	-0.470880	-0.807463	0.359701	-0.303333	-0.010996	-0.073304	0.007330
321	17.031219	0.009125	0.000000	-9.535320	0.000000	-0.802985	0.359701	-0.306667	0.017104	-0.206472	0.004887
322	17.040344	0.009125	0.353160	-9.299880	-0.235440	-0.804478	0.361194	-0.306667	0.010996	-0.056200	0.000000
323	17.049500	0.009155	0.588600	-9.888480	-0.588600	-0.811940	0.361194	-0.306667	0.036652	-0.059865	0.002443
324	17.058624	0.009125	0.117720	-9.535320	-0.117720	-0.811940	0.361194	-0.310000	0.001222	-0.034208	0.010996
325	17.067749	0.009125	0.117720	-9.182160	0.117720	-0.805970	0.359701	-0.310000	-0.001222	-0.046426	0.009774
326	17.076904	0.009155	0.117720	-9.535320	0.470880	-0.804478	0.358209	-0.305000	-0.034208	0.098960	0.001222
327	17.086029	0.009125	0.235440	-9.535320	-0.117720	-0.802985	0.359701	-0.300000	-0.075747	-0.074526	0.031765
328	17.095154	0.009125	0.235440	-9.535320	0.470880	-0.802985	0.361194	-0.306667	-0.006109	-0.054978	0.004887
329	17.104309	0.009155	0.000000	-9.770760	-0.117720	-0.805970	0.361194	-0.305000	-0.090408	-0.078191	0.030543
330	17.113434	0.009125	0.117720	-9.182160	1.530360	-0.804478	0.359701	-0.305000	-0.144164	-0.069639	0.039095
331	17.122589	0.009155	0.000000	-9.653040	-0.117720	-0.798507	0.362687	-0.300000	-0.052534	-0.164934	0.012217
332	17.131714	0.009125	0.000000	-9.064440	0.353160	-0.801493	0.358209	-0.308333	-0.042761	-0.056200	0.043982
333	17.140839	0.009125	0.117720	-9.653040	-0.353160	-0.800000	0.359701	-0.303333	0.000000	-0.074526	-0.002443
334	17.149994	0.009155	0.706320	-9.888480	-0.117720	-0.800000	0.359701	-0.305000	0.063530	-0.048869	0.019548
335	17.159119	0.009125	0.353160	-9.653040	0.117720	-0.811940	0.347761	-0.290000	0.094073	-0.030543	-0.007330
336	17.168274	0.009155	0.117720	-9.299880	0.706320	-0.802985	0.356716	-0.295000	0.085521	-0.023213	-0.002443
337	17.177399	0.009125	0.235440	-9.417600	0.824040	-0.800000	0.361194	-0.303333	0.025656	-0.063530	0.013439
338	17.186523	0.009125	0.117720	-9.653040	-0.235440	-0.801493	0.359701	-0.303333	-0.046426	-0.074526	0.002443
339	17.195679	0.009155	0.000000	-10.477080	1.059480	-0.798507	0.356716	-0.300000	-0.119730	-0.081856	0.031765
340	17.204803	0.009125	0.000000	-9.653040	0.235440	-0.794030	0.359701	-0.301667	-0.046426	-0.046426	0.000000
341	17.213959	0.009155	0.000000	-9.299880	-0.117720	-0.798507	0.358209	-0.308333	-0.045204	-0.204029	0.028100
342	17.223083	0.009125	0.117720	-9.064440	0.588600	-0.794030	0.358209	-0.296667	-0.006109	-0.069639	0.020769
343	17.232208	0.009125	0.000000	-9.299880	-0.470880	-0.797015	0.359701	-0.300000	0.001222	-0.073304	0.009774
344	17.241364	0.009155	0.117720	-9.535320	-0.117720	-0.792537	0.358209	-0.296667	-0.041539	-0.045204	0.021991
345	17.250488	0.009125	0.000000	-9.888480	-0.117720	-0.794030	0.361194	-0.298333	0.023213	-0.050091	0.004887
346	17.259613	0.009125	0.235440	-9.770760	0.353160	-0.792537	0.359701	-0.303333	-0.015882	-0.062308	0.006109
347	17.268738	0.009125	0.235440	-9.064440	-0.706320	-0.795522	0.359701	-0.301667	-0.001222	-0.053756	0.002443
348	17.277893	0.009155	0.000000	-8.829000	0.117720	-0.792537	0.361194	-0.298333	0.035430	-0.048869	-0.001222
349	17.287018	0.009125	0.353160	-9.535320	0.117720	-0.791045	0.362687	-0.296667	0.045204	-0.046426	-0.002443
350	17.296173	0.009155	0.470880	-9.653040	-0.353160	-0.788060	0.358209	-0.296667	0.006109	-0.041539	0.021991
351	17.305298	0.009125	0.117720	-9.770760	0.235440	-0.791045	0.358209	-0.298333	0.062308	-0.052534	-0.002443
352	17.314453	0.009155	0.000000	-9.182160	0.470880	-0.785075	0.358209	-0.298333	0.074526	-0.028100	-0.002443
353	17.323578	0.009125	0.000000	-9.182160	0.353160	-0.804478	0.350746	-0.278333	0.070860	-0.047647	0.006109
354	17.332703	0.009125	0.470880	-10.006200	0.470880	-0.795522	0.356716	-0.288333	0.026878	-0.053756	0.017104
355	17.341827	0.009125	0.470880	-9.535320	0.470880	-0.788060	0.361194	-0.291667	0.035430	-0.063530	0.004887
356	17.350952	0.009125	0.000000	-9.299880	-0.706320	-0.792537	0.361194	-0.293333	-0.053756	0.095295	0.006109
357	17.360107	0.009155	-0.235440	-9.064440	-0.353160	-0.789552	0.361194	-0.293333	-0.086743	-0.069639	0.019548
358	17.369232	0.009125	0.235440	-9.770760	0.588600	-0.791045	0.359701	-0.290000	0.009774	-0.052534	0.001222
359	17.378357	0.009125	0.235440	-10.241640	-0.470880	-0.785075	0.359701	-0.293333	0.006109	-0.068417	0.003665
360	17.387512	0.009155	0.000000	-9.417600	0.117720	-0.789552	0.361194	-0.291667	0.059865	-0.026878	0.009774
361	17.396637	0.009125	0.117720	-9.182160	0.117720	-0.783582	0.355224	-0.290000	0.052534	-0.047647	0.018326
362	17.405762	0.009125	0.588600	-9.535320	0.000000	-0.783582	0.361194	-0.291667	0.069639	-0.053756	0.004887
363	17.414917	0.009155	0.824040	-9.417600	0.941760	-0.789552	0.364179	-0.290000	0.004887	-0.061087	0.015882
364	17.424042	0.009125	0.117720	-9.299880	0.353160	-0.783582	0.358209	-0.296667	0.010996	-0.056200	0.003665
365	17.433167	0.009125	0.353160	-9.888480	0.000000	-0.785075	0.359701	-0.291667	0.015882	-0.065973	0.002443
366	17.442322	0.009155	0.117720	-9.770760	0.824040	-0.782090	0.359701	-0.295000	-0.042761	-0.058643	0.004887
367	17.451447	0.009125	0.235440	-9.417600	0.000000	-0.783582	0.361194	-0.291667	-0.040317	-0.074526	0.032987
368	17.460571	0.009125	0.000000	-9.417600	0.470880	-0.783582	0.359701	-0.291667	-0.012217	-0.064752	0.000000
369	17.469696	0.009125	0.235440	-9.888480	-0.117720	-0.783582	0.358209	-0.291667	-0.078191	-0.076969	0.028100
370	17.478851	0.009155	0.353160	-10.006200	0.000000	-0.783582	0.362687	-0.283333	0.017104	-0.041539	0.004887
371	17.487976	0.009125	0.000000	-9.770760	-0.706320	-0.780597	0.361194	-0.291667	0.032987	-0.057421	0.009774
372	17.497101	0.009125	0.000000	-9.888480	-0.235440	-0.794030	0.349254	-0.271667	0.036652	-0.034208	-0.004887
373	17.506226	0.009125	1.177200	-9.064440	0.824040	-0.785075	0.356716	-0.280000	0.127060	-0.040317	-0.007330
374	17.515381	0.009155	0.353160	-8.475840	0.000000	-0.776119	0.361194	-0.283333	0.068417	-0.042761	0.008552
375	17.524506	0.009125	0.000000	-9.535320	-0.353160	-0.780597	0.359701	-0.290000	0.053756	-0.051313	-0.001222
376	17.533875	0.009369	0.353160	-10.241640	1.059480	-0.783582	0.352239	-0.278333	0.163712	-0.039095	-0.012217
377	17.542755	0.008881	0.235440	-9.770760	-0.470880	-0.776119	0.358209	-0.278333	-0.045204	-0.086743	0.013439
378	17.551910	0.009155	0.706320	-8.829000	0.000000	-0.777612	0.358209	-0.283333	0.001222	-0.036652	-0.003665
379	17.561035	0.009125	0.235440	-8.829000	0.000000	-0.782090	0.358209	-0.280000	-0.067195	-0.061087	0.021991
380	17.570160	0.009125	0.706320	-9.888480	-0.706320	-0.776119	0.361194	-0.285000	-0.064752	-0.065973	0.012217
381	17.579285	0.009125	0.353160	-10.359360	0.588600	-0.777612	0.356716	-0.281667	-0.056200	-0.064752	0.019548
382	17.588409	0.009125	0.235440	-9.653040	0.117720	-0.777612	0.359701	-0.286667	-0.102625	-0.080634	0.034208
383	17.597565	0.009155	0.706320	-9.299880	-0.706320	-0.777612	0.356716	-0.281667	-0.029322	-0.050091	0.003665
384	17.606689	0.009125	0.706320	-9.299880	0.000000	-0.776119	0.358209	-0.278333	0.004887	-0.046426	0.014661
385	17.615814	0.009125	0.235440	-9.182160	0.470880	-0.773134	0.359701	-0.281667	0.013439	-0.072082	0.012217
386	17.624939	0.009125	0.000000	-9.770760	0.353160	-0.776119	0.358209	-0.276667	0.109956	-0.043982	0.001222
387	17.634064	0.009125	0.588600	-10.006200	0.706320	-0.780597	0.353731	-0.276667	-0.001222	-0.061087	0.028100
388	17.643219	0.009155	0.588600	-9.417600	0.706320	-0.774627	0.359701	-0.280000	0.043982	-0.037874	0.008552
389	17.652344	0.009125	0.706320	-8.829000	-0.588600	-0.774627	0.358209	-0.280000	0.054978	-0.043982	0.008552
390	17.661469	0.009125	0.353160	-9.299880	0.000000	-0.788060	0.344776	-0.263333	0.031765	-0.041539	0.013439
391	17.670593	0.009125	0.235440	-9.888480	0.235440	-0.782090	0.355224	-0.276667	0.002443	-0.052534	0.021991
392	17.679718	0.009125	0.235440	-10.241640	0.117720	-0.776119	0.355224	-0.281667	0.053756	-0.067195	0.020769
393	17.688843	0.009125	0.117720	-9.182160	-0.470880	-0.771642	0.353731	-0.281667	0.009774	-0.050091	-0.002443
394	17.697998	0.009155	0.470880	-9.064440	0.588600	-0.771642	0.349254	-0.273333	-0.009774	-0.051313	0.007330
395	17.707123	0.009125	0.235440	-9.417600	0.235440	-0.776119	0.358209	-0.276667	0.007330	-0.043982	0.023213
396	17.716248	0.009125	0.000000	-10.006200	0.000000	-0.773134	0.355224	-0.275000	0.019548	-0.052534	0.014661
397	17.725372	0.009125	0.117720	-9.653040	0.824040	-0.774627	0.356716	-0.275000	-0.004887	-0.076969	0.014661
398	17.734528	0.009155	0.941760	-9.417600	-0.353160	-0.773134	0.358209	-0.276667	0.010996	-0.058643	0.009774
399	17.743652	0.009125	0.470880	-9.182160	0.117720	-0.771642	0.355224	-0.273333	0.017104	-0.042761	0.008552
400	17.752777	0.009125	0.117720	-9.770760	0.000000	-0.774627	0.353731	-0.273333	0.013439	-0.051313	0.008552
401	17.761902	0.009125	0.117720	-9.182160	0.941760	-0.767164	0.353731	-0.276667	0.021991	-0.058643	0.015882
402	17.771057	0.009155	0.117720	-9.535320	-0.706320	-0.770149	0.355224	-0.271667	0.013439	-0.062308	0.006109
403	17.780182	0.009125	0.470880	-9.535320	0.588600	-0.768657	0.350746	-0.278333	0.058643	-0.057421	0.001222
404	17.789307	0.009125	0.117720	-9.182160	-0.588600	-0.770149	0.352239	-0.273333	-0.037874	-0.061087	0.006109
405	17.798431	0.009125	0.706320	-9.888480	0.000000	-0.773134	0.350746	-0.278333	-0.062308	-0.046426	0.012217
406	17.807556	0.009125	0.117720	-9.770760	0.353160	-0.770149	0.350746	-0.270000	-0.069639	-0.050091	0.025656
407	17.816681	0.009125	0.000000	-9.299880	0.470880	-0.768657	0.350746	-0.273333	-0.056200	-0.063530	0.028100
408	17.825836	0.009155	0.353160	-8.829000	-0.470880	-0.771642	0.350746	-0.273333	-0.001222	-0.051313	0.014661
409	17.834961	0.009125	0.353160	-9.535320	0.117720	-0.780597	0.337313	-0.256667	0.014661	-0.062308	0.010996
410	17.844086	0.009125	0.117720	-10.006200	0.824040	-0.771642	0.346269	-0.265000	0.023213	-0.045204	0.006109
411	17.853821	0.009735	0.000000	-9.770760	0.117720	-0.768657	0.352239	-0.271667	0.013439	-0.064752	0.008552
412	17.862335	0.008514	0.353160	-9.299880	0.235440	-0.767164	0.347761	-0.271667	0.023213	-0.052534	-0.002443
413	17.871490	0.009155	0.470880	-8.946720	-0.235440	-0.762687	0.349254	-0.265000	0.025656	-0.057421	0.000000
414	17.880615	0.009125	0.706320	-9.653040	-0.117720	-0.768657	0.350746	-0.270000	0.024435	-0.046426	0.009774
415	17.889740	0.009125	0.235440	-9.770760	-0.117720	-0.764179	0.346269	-0.271667	-0.019548	-0.048869	0.007330
416	17.898865	0.009125	0.470880	-9.417600	0.824040	-0.761194	0.349254	-0.271667	-0.004887	-0.045204	0.012217
417	17.907990	0.009125	0.235440	-8.711280	-0.235440	-0.761194	0.344776	-0.265000	-0.019548	-0.051313	0.001222
418	17.917114	0.009125	0.353160	-9.535320	0.353160	-0.762687	0.344776	-0.265000	-0.059865	-0.070860	0.017104
419	17.926270	0.009155	0.353160	-10.241640	0.588600	-0.762687	0.341791	-0.266667	-0.014661	-0.075747	0.015882
420	17.935394	0.009125	0.117720	-9.888480	0.117720	-0.759701	0.343284	-0.268333	0.023213	-0.041539	0.009774
421	17.944550	0.009155	0.117720	-8.593560	0.470880	-0.761194	0.343284	-0.263333	-0.039095	-0.043982	0.031765
422	17.953644	0.009094	0.588600	-9.182160	-0.470880	-0.756716	0.343284	-0.265000	-0.019548	-0.061087	0.006109
423	17.962799	0.009155	0.235440	-9.888480	0.000000	-0.761194	0.340299	-0.263333	-0.046426	-0.084299	0.019548
424	17.971924	0.009125	0.235440	-10.006200	0.470880	-0.762687	0.343284	-0.263333	-0.051313	-0.064752	0.023213
425	17.981049	0.009125	0.117720	-9.182160	0.000000	-0.756716	0.341791	-0.266667	0.056200	-0.061087	0.014661
426	17.990173	0.009125	0.235440	-8.946720	0.353160	-0.756716	0.344776	-0.261667	0.000000	-0.036652	0.009774
427	17.999298	0.009125	0.000000	-9.888480	-1.177200	-0.755224	0.340299	-0.261667	0.051313	-0.042761	0.001222
428	18.008453	0.009155	0.235440	-10.006200	0.235440	-0.768657	0.332836	-0.245000	0.083078	-0.024435	0.003665
429	18.017578	0.009125	0.353160	-9.417600	0.235440	-0.771642	0.331343	-0.243333	0.017104	-0.057421	0.015882
430	18.026703	0.009125	0.353160	-9.064440	0.117720	-0.756716	0.338806	-0.265000	-0.015882	0.100182	-0.006109
431	18.035828	0.009125	-0.117720	-10.006200	0.353160	-0.753731	0.340299	-0.265000	-0.141721	-0.119730	0.013439
432	18.044952	0.009125	0.353160	-10.241640	0.000000	-0.753731	0.338806	-0.260000	-0.007330	-0.063530	0.000000
433	18.054108	0.009155	0.470880	-9.417600	0.470880	-0.756716	0.335821	-0.261667	0.023213	-0.050091	0.015882
434	18.063232	0.009125	0.588600	-9.182160	0.588600	-0.755224	0.337313	-0.256667	0.003665	-0.050091	0.023213
435	18.072357	0.009125	0.000000	-9.417600	-0.706320	-0.753731	0.337313	-0.263333	0.029322	-0.197920	0.008552
436	18.081482	0.009125	0.353160	-10.123920	0.000000	-0.752239	0.337313	-0.256667	0.030543	-0.058643	0.003665
437	18.090607	0.009125	0.588600	-9.417600	0.000000	-0.749254	0.335821	-0.258333	0.046426	-0.045204	0.000000
438	18.099731	0.009125	0.117720	-9.417600	-0.470880	-0.753731	0.341791	-0.256667	0.006109	-0.059865	0.008552
439	18.108887	0.009155	0.470880	-8.829000	0.470880	-0.750746	0.337313	-0.256667	0.059865	-0.050091	0.006109
440	18.118011	0.009125	0.588600	-9.770760	0.470880	-0.747761	0.337313	-0.256667	-0.007330	-0.052534	-0.004887
441	18.127136	0.009125	0.117720	-10.477080	-0.353160	-0.746269	0.335821	-0.256667	-0.018326	-0.062308	-0.001222
442	18.136261	0.009125	0.353160	-9.182160	1.294920	-0.747761	0.335821	-0.251667	-0.003665	-0.053756	0.008552
443	18.145386	0.009125	0.470880	-9.182160	0.117720	-0.746269	0.334328	-0.250000	-0.018326	-0.069639	0.006109
444	18.154541	0.009155	0.117720	-9.653040	-0.353160	-0.749254	0.337313	-0.255000	-0.008552	-0.045204	0.010996
445	18.163666	0.009125	0.000000	-10.123920	0.000000	-0.744776	0.334328	-0.255000	-0.025656	-0.059865	0.014661
446	18.173767	0.010101	0.117720	-9.535320	0.000000	-0.753731	0.323881	-0.235000	0.024435	-0.048869	0.012217
447	18.181915	0.008148	0.470880	-9.182160	-0.353160	-0.747761	0.331343	-0.246667	0.046426	-0.040317	0.006109
448	18.191040	0.009125	0.000000	-9.417600	0.941760	-0.743284	0.331343	-0.255000	-0.017104	-0.045204	0.020769
449	18.200165	0.009125	0.235440	-9.653040	-0.824040	-0.740299	0.329851	-0.250000	0.028100	-0.053756	0.003665
450	18.209290	0.009125	0.353160	-9.535320	0.235440	-0.743284	0.334328	-0.251667	0.004887	-0.051313	0.015882
451	18.218414	0.009125	0.000000	-9.535320	0.941760	-0.738806	0.334328	-0.246667	0.007330	-0.064752	0.013439
452	18.227570	0.009155	0.117720	-9.653040	0.470880	-0.738806	0.332836	-0.246667	0.070860	-0.053756	-0.006109
453	18.236694	0.009125	0.706320	-9.182160	-0.470880	-0.740299	0.331343	-0.246667	0.059865	-0.046426	-0.001222
454	18.245819	0.009125	0.353160	-9.064440	0.588600	-0.737313	0.328358	-0.241667	0.043982	-0.053756	0.002443
455	18.254944	0.009125	-0.117720	-10.006200	-0.117720	-0.735821	0.332836	-0.248333	0.015882	-0.048869	-0.006109
456	18.264099	0.009155	0.824040	-9.653040	0.117720	-0.738806	0.332836	-0.245000	-0.026878	-0.063530	0.014661
457	18.273224	0.009125	0.470880	-8.829000	-0.470880	-0.734328	0.329851	-0.245000	0.029322	-0.041539	0.003665
458	18.282349	0.009125	0.117720	-9.417600	-0.235440	-0.735821	0.329851	-0.246667	0.001222	-0.056200	0.010996
459	18.291473	0.009125	0.235440	-9.888480	0.235440	-0.735821	0.328358	-0.243333	0.026878	-0.054978	0.003665
460	18.300598	0.009125	0.353160	-9.535320	0.470880	-0.732836	0.329851	-0.245000	-0.021991	-0.040317	0.012217
461	18.309753	0.009155	0.117720	-9.299880	0.000000	-0.732836	0.328358	-0.243333	0.018326	-0.040317	0.018326
462	18.318878	0.009125	0.353160	-9.770760	0.235440	-0.735821	0.328358	-0.238333	0.026878	-0.045204	0.007330
463	18.328003	0.009125	0.588600	-9.417600	0.117720	-0.728358	0.328358	-0.240000	-0.051313	-0.074526	0.018326
464	18.337128	0.009125	0.588600	-8.711280	0.470880	-0.737313	0.326866	-0.235000	0.031765	-0.062308	0.004887
465	18.346252	0.009125	0.470880	-8.946720	0.470880	-0.743284	0.317910	-0.216667	0.020769	-0.043982	0.000000
466	18.355408	0.009155	0.353160	-9.888480	0.470880	-0.732836	0.326866	-0.235000	-0.004887	-0.048869	0.029322
467	18.364532	0.009125	0.470880	-10.241640	0.588600	-0.728358	0.328358	-0.236667	0.072082	-0.052534	0.002443
468	18.373657	0.009125	0.117720	-9.653040	-1.177200	-0.725373	0.326866	-0.236667	-0.024435	-0.052534	0.002443
469	18.382782	0.009125	0.117720	-9.299880	-0.470880	-0.728358	0.325373	-0.231667	-0.002443	-0.028100	0.006109
470	18.391907	0.009125	0.470880	-9.417600	0.588600	-0.728358	0.325373	-0.230000	-0.037874	-0.063530	0.029322
471	18.401031	0.009125	0.000000	-9.770760	-0.941760	-0.728358	0.323881	-0.236667	0.017104	-0.056200	0.001222
472	18.410156	0.009125	0.000000	-10.123920	0.000000	-0.728358	0.326866	-0.233333	-0.013439	-0.051313	0.020769
473	18.419281	0.009125	0.353160	-8.358120	0.117720	-0.726866	0.325373	-0.233333	-0.003665	-0.061087	0.009774
474	18.428406	0.009125	0.588600	-9.299880	0.588600	-0.726866	0.322388	-0.231667	-0.018326	-0.052534	0.017104
475	18.437561	0.009155	0.000000	-9.770760	0.588600	-0.723881	0.326866	-0.233333	0.039095	-0.046426	0.010996
476	18.446686	0.009125	0.235440	-9.653040	0.941760	-0.722388	0.320896	-0.226667	-0.003665	-0.053756	0.021991
477	18.455811	0.009125	0.235440	-9.064440	-0.235440	-0.722388	0.323881	-0.230000	-0.019548	-0.072082	0.007330
478	18.464966	0.009155	0.117720	-9.653040	-0.470880	-0.720896	0.322388	-0.231667	0.054978	-0.051313	-0.004887
479	18.474091	0.009125	0.353160	-9.888480	0.235440	-0.719403	0.323881	-0.225000	0.109956	-0.050091	0.013439
480	18.483215	0.009125	0.824040	-9.064440	-0.117720	-0.723881	0.323881	-0.226667	-0.018326	-0.051313	0.009774
481	18.492371	0.009155	0.353160	-9.064440	-0.117720	-0.722388	0.323881	-0.228333	0.036652	-0.030543	0.004887
482	18.501495	0.009125	0.235440	-10.006200	1.294920	-0.725373	0.323881	-0.218333	-0.008552	-0.061087	0.014661
483	18.510620	0.009125	0.353160	-9.653040	0.235440	-0.731343	0.310448	-0.210000	-0.028100	-0.073304	0.013439
484	18.519745	0.009125	0.235440	-9.299880	0.117720	-0.720896	0.317910	-0.216667	0.140499	-0.053756	0.010996
485	18.528900	0.009155	0.000000	-9.182160	0.117720	-0.716418	0.320896	-0.218333	-0.034208	-0.046426	0.006109
486	18.538025	0.009125	0.000000	-9.888480	0.000000	-0.717910	0.322388	-0.220000	-0.032987	-0.047647	0.008552
487	18.547150	0.009125	0.117720	-9.535320	0.706320	-0.716418	0.319403	-0.220000	0.032987	-0.061087	0.015882
488	18.556274	0.009125	0.117720	-9.182160	0.588600	-0.717910	0.323881	-0.216667	0.013439	-0.059865	0.009774
489	18.565430	0.009155	0.117720	-9.653040	0.117720	-0.713433	0.319403	-0.228333	0.025656	-0.052534	0.013439
490	18.574554	0.009125	0.706320	-9.417600	0.000000	-0.714925	0.319403	-0.220000	0.001222	-0.064752	0.006109
491	18.583679	0.009125	0.588600	-9.417600	-0.588600	-0.714925	0.320896	-0.218333	-0.015882	-0.041539	0.007330
492	18.592804	0.009125	0.000000	-9.535320	0.353160	-0.711940	0.319403	-0.215000	0.000000	-0.037874	0.009774
493	18.601959	0.009155	0.353160	-9.535320	0.706320	-0.713433	0.319403	-0.215000	0.000000	-0.065973	0.003665
494	18.611084	0.009125	0.353160	-9.653040	-0.235440	-0.713433	0.316418	-0.215000	-0.003665	-0.065973	0.013439
495	18.620209	0.009125	-0.117720	-9.888480	-0.235440	-0.714925	0.317910	-0.210000	0.036652	-0.051313	0.001222
496	18.629333	0.009125	0.706320	-9.535320	0.588600	-0.710448	0.319403	-0.213333	-0.030543	-0.061087	0.029322
497	18.638489	0.009155	0.353160	-9.299880	0.117720	-0.705970	0.316418	-0.215000	-0.001222	-0.058643	0.007330
498	18.647614	0.009125	0.117720	-9.653040	0.706320	-0.705970	0.316418	-0.213333	0.004887	-0.059865	0.017104
499	18.656738	0.009125	0.588600	-9.299880	0.000000	-0.705970	0.311940	-0.211667	0.149051	-0.062308	0.008552
500	18.665894	0.009155	0.588600	-9.064440	0.117720	-0.707463	0.317910	-0.210000	-0.008552	-0.057421	0.007330
501	18.675018	0.009125	-0.117720	-9.653040	-0.470880	-0.705970	0.319403	-0.210000	-0.010996	-0.070860	0.002443
502	18.684143	0.009125	0.235440	-9.653040	0.000000	-0.719403	0.304478	-0.190000	-0.007330	-0.056200	0.019548
503	18.693268	0.009125	0.353160	-9.653040	-0.235440	-0.723881	0.304478	-0.196667	-0.034208	-0.051313	0.020769
504	18.702423	0.009155	0.235440	-9.182160	-0.706320	-0.707463	0.316418	-0.203333	0.034208	-0.041539	0.001222
505	18.711548	0.009125	0.117720	-9.299880	0.000000	-0.707463	0.316418	-0.206667	-0.009774	-0.058643	0.002443
506	18.720673	0.009125	0.353160	-9.535320	0.588600	-0.701493	0.314925	-0.210000	-0.004887	-0.051313	0.010996
507	18.729828	0.009155	0.470880	-9.417600	0.117720	-0.708955	0.314925	-0.203333	-0.002443	-0.045204	0.014661
508	18.738953	0.009125	0.235440	-9.535320	0.117720	-0.708955	0.316418	-0.203333	-0.025656	-0.052534	0.009774
509	18.748077	0.009125	0.353160	-9.535320	0.706320	-0.704478	0.311940	-0.203333	-0.007330	-0.043982	0.015882
510	18.757233	0.009155	0.235440	-9.417600	0.235440	-0.705970	0.313433	-0.200000	0.000000	-0.065973	0.003665
511	18.766357	0.009125	0.117720	-9.417600	0.000000	-0.707463	0.316418	-0.205000	0.003665	-0.065973	0.010996
512	18.775482	0.009125	0.353160	-9.417600	0.235440	-0.705970	0.313433	-0.205000	0.051313	-0.061087	0.000000
513	18.784637	0.009155	0.117720	-9.653040	-0.117720	-0.705970	0.313433	-0.200000	0.007330	-0.067195	0.010996
514	18.793762	0.009125	0.117720	-9.535320	0.117720	-0.705970	0.314925	-0.198333	0.004887	0.105069	0.015882
515	18.802887	0.009125	0.235440	-9.417600	0.000000	-0.707463	0.313433	-0.196667	-0.015882	-0.065973	-0.001222
516	18.812012	0.009125	0.235440	-9.417600	-0.235440	-0.702985	0.311940	-0.201667	-0.004887	-0.043982	0.015882
517	18.821167	0.009155	0.353160	-9.535320	-0.588600	-0.702985	0.319403	-0.198333	-0.007330	-0.052534	0.009774
518	18.830292	0.009125	0.235440	-9.535320	-0.353160	-0.702985	0.313433	-0.198333	-0.009774	-0.048869	0.010996
519	18.839417	0.009125	0.470880	-9.299880	0.824040	-0.700000	0.311940	-0.195000	0.001222	-0.047647	0.010996
520	18.848541	0.009125	0.235440	-9.535320	-0.117720	-0.714925	0.300000	-0.178333	0.006109	-0.053756	-0.002443
521	18.857697	0.009155	0.117720	-9.299880	0.706320	-0.701493	0.308955	-0.188333	0.006109	-0.048869	0.017104
522	18.866821	0.009125	0.117720	-9.299880	0.588600	-0.704478	0.313433	-0.193333	0.023213	-0.051313	0.010996
523	18.875946	0.009125	0.117720	-10.006200	0.000000	-0.701493	0.314925	-0.193333	-0.008552	-0.061087	0.008552
524	18.885071	0.009125	0.706320	-9.770760	0.941760	-0.702985	0.311940	-0.195000	-0.002443	-0.062308	0.020769
525	18.894196	0.009125	0.588600	-9.182160	0.117720	-0.702985	0.311940	-0.191667	0.012217	-0.048869	0.021991
526	18.903351	0.009155	0.117720	-9.299880	-0.470880	-0.702985	0.313433	-0.193333	-0.004887	-0.052534	0.007330
527	18.912476	0.009125	0.235440	-9.888480	0.117720	-0.697015	0.311940	-0.190000	0.032987	-0.053756	0.010996
528	18.921600	0.009125	0.706320	-9.299880	-0.235440	-0.698507	0.311940	-0.186667	0.025656	-0.067195	0.004887
529	18.930725	0.009125	0.235440	-9.417600	-0.235440	-0.698507	0.308955	-0.195000	-0.008552	-0.052534	0.003665
530	18.939880	0.009155	-0.117720	-9.535320	0.000000	-0.700000	0.310448	-0.190000	0.012217	-0.035430	0.008552
531	18.949005	0.009125	0.706320	-9.299880	0.117720	-0.698507	0.308955	-0.188333	-0.002443	-0.051313	0.006109
532	18.958130	0.009125	0.235440	-9.653040	0.470880	-0.698507	0.310448	-0.186667	-0.018326	-0.052534	0.010996
533	18.967285	0.009155	0.000000	-9.417600	0.353160	-0.697015	0.310448	-0.185000	0.001222	-0.058643	0.006109
534	18.976410	0.009125	0.588600	-9.182160	0.470880	-0.697015	0.310448	-0.190000	0.018326	-0.037874	0.012217
535	18.985535	0.009125	0.235440	-9.535320	0.353160	-0.698507	0.310448	-0.190000	-0.015882	-0.063530	0.012217
536	18.994690	0.009155	0.117720	-9.653040	0.353160	-0.695522	0.305970	-0.185000	0.006109	-0.063530	0.009774
537	19.003815	0.009125	0.117720	-9.182160	-0.470880	-0.697015	0.308955	-0.186667	-0.008552	-0.052534	0.013439
538	19.012939	0.009125	0.353160	-9.535320	0.353160	-0.698507	0.307463	-0.186667	-0.001222	-0.052534	0.014661
539	19.022064	0.009125	0.000000	-9.653040	0.706320	-0.707463	0.298507	-0.171667	-0.029322	-0.079412	0.012217
540	19.031219	0.009155	0.824040	-8.829000	-0.353160	-0.702985	0.307463	-0.176667	0.041539	-0.046426	0.014661
541	19.040344	0.009125	2.001240	-10.123920	1.177200	-0.697015	0.307463	-0.185000	0.146608	-0.059865	-0.017104
542	19.049469	0.009125	1.294920	-9.770760	-2.118960	-0.695522	0.313433	-0.183333	0.268781	-0.030543	-0.054978
543	19.058594	0.009125	2.825280	-10.477080	0.588600	-0.695522	0.307463	-0.186667	-0.019548	-0.040317	0.010996
544	19.067749	0.009155	0.706320	-10.123920	-2.001240	-0.701493	0.310448	-0.183333	0.146608	-0.018326	-0.015882
545	19.076874	0.009125	0.588600	-8.711280	0.000000	-0.700000	0.307463	-0.181667	0.037874	0.013439	0.000000
546	19.085999	0.009125	-0.117720	-10.123920	0.235440	-0.698507	0.307463	-0.178333	-0.092852	-0.108734	-0.006109
547	19.095154	0.009155	0.470880	-9.653040	-1.883520	-0.698507	0.310448	-0.183333	0.094073	0.061087	-0.002443
548	19.109589	0.014435	0.588600	-9.888480	2.825280	-0.697015	0.311940	-0.181667	-0.007330	-0.050091	0.032987
549	19.117981	0.008392	1.177200	-9.888480	1.294920	-0.698507	0.311940	-0.183333	-0.125838	-0.053756	0.018326
550	19.127106	0.009125	0.706320	-9.888480	0.117720	-0.697015	0.310448	-0.183333	-0.019548	-0.211359	-0.010996
551	19.136261	0.009155	0.941760	-8.593560	0.941760	-0.695522	0.310448	-0.183333	0.036652	-0.064752	-0.010996
552	19.145386	0.009125	-0.117720	-9.653040	0.000000	-0.700000	0.308955	-0.185000	-0.095295	-0.119730	0.007330
553	19.154510	0.009125	0.000000	-9.182160	-0.353160	-0.694030	0.311940	-0.185000	-0.149051	-0.043982	-0.001222
554	19.163666	0.009155	0.235440	-9.770760	0.235440	-0.697015	0.307463	-0.181667	-0.089186	-0.087965	0.046426
555	19.172791	0.009125	0.000000	-10.006200	-1.765800	-0.697015	0.310448	-0.185000	0.080634	0.155160	-0.017104
556	19.181915	0.009125	-0.117720	-9.770760	-0.470880	-0.701493	0.311940	-0.183333	0.065973	-0.160047	0.063530
557	19.191040	0.009125	-0.353160	-10.123920	0.588600	-0.711940	0.300000	-0.168333	0.012217	-0.062308	0.025656
558	19.200195	0.009155	0.235440	-9.417600	0.588600	-0.704478	0.308955	-0.180000	0.094073	-0.036652	-0.009774
559	19.209320	0.009125	0.470880	-9.770760	0.117720	-0.700000	0.308955	-0.183333	-0.020769	-0.021991	-0.007330
560	19.218445	0.009125	0.117720	-9.535320	1.412640	-0.701493	0.308955	-0.180000	-0.048869	-0.041539	0.020769
561	19.227600	0.009155	0.117720	-9.182160	0.000000	-0.698507	0.307463	-0.183333	0.007330	-0.052534	0.003665
562	19.236725	0.009125	0.000000	-9.299880	0.470880	-0.700000	0.308955	-0.183333	0.023213	-0.080634	0.018326
563	19.245850	0.009125	0.117720	-9.417600	0.000000	-0.700000	0.307463	-0.183333	0.080634	-0.069639	0.013439
564	19.255005	0.009155	0.706320	-9.653040	-1.059480	-0.700000	0.310448	-0.180000	-0.026878	-0.095295	0.021991
565	19.264130	0.009125	0.235440	-9.299880	-0.235440	-0.697015	0.308955	-0.183333	-0.050091	-0.064752	0.015882
566	19.273285	0.009155	0.000000	-9.417600	-0.235440	-0.702985	0.308955	-0.178333	-0.028100	-0.052534	0.002443
567	19.282410	0.009125	0.117720	-9.535320	0.000000	-0.697015	0.308955	-0.181667	0.006109	-0.050091	0.000000
568	19.291534	0.009125	0.117720	-9.417600	0.117720	-0.697015	0.307463	-0.185000	0.015882	-0.061087	0.012217
569	19.300690	0.009155	0.117720	-9.770760	-0.353160	-0.698507	0.310448	-0.180000	0.030543	-0.020769	0.004887
570	19.309814	0.009125	0.000000	-9.417600	1.177200	-0.697015	0.310448	-0.181667	0.001222	-0.032987	0.012217
571	19.318939	0.009125	0.000000	-9.182160	0.588600	-0.700000	0.307463	-0.181667	-0.019548	-0.050091	0.015882
572	19.328094	0.009155	0.117720	-9.535320	1.530360	-0.698507	0.311940	-0.183333	-0.051313	-0.073304	0.019548
573	19.337219	0.009125	0.117720	-9.535320	0.117720	-0.697015	0.310448	-0.186667	0.004887	-0.073304	0.008552
574	19.346344	0.009125	0.000000	-9.299880	0.353160	-0.695522	0.308955	-0.185000	0.017104	-0.063530	0.008552
575	19.355469	0.009125	0.235440	-9.417600	0.353160	-0.700000	0.310448	-0.178333	0.041539	-0.031765	0.012217
576	19.364624	0.009155	0.000000	-9.535320	0.588600	-0.708955	0.298507	-0.168333	0.032987	-0.062308	0.018326
577	19.373749	0.009125	0.000000	-9.299880	0.824040	-0.701493	0.304478	-0.175000	0.085521	-0.056200	0.000000
578	19.382874	0.009125	0.117720	-9.653040	-1.177200	-0.700000	0.310448	-0.180000	0.029322	-0.046426	-0.006109
579	19.391998	0.009125	0.235440	-9.653040	-0.588600	-0.701493	0.307463	-0.180000	-0.057421	-0.054978	0.010996
580	19.401154	0.009155	0.000000	-9.535320	-0.235440	-0.700000	0.313433	-0.180000	-0.054978	-0.061087	0.001222
581	19.410278	0.009125	0.235440	-9.535320	0.117720	-0.698507	0.308955	-0.178333	-0.025656	-0.051313	0.013439
582	19.419403	0.009125	0.117720	-9.770760	0.353160	-0.694030	0.307463	-0.183333	-0.003665	-0.050091	0.002443
583	19.428558	0.009155	0.000000	-9.770760	-0.117720	-0.697015	0.311940	-0.180000	0.028100	-0.052534	0.007330
584	19.437683	0.009125	0.000000	-9.417600	0.588600	-0.697015	0.308955	-0.181667	-0.015882	-0.062308	0.021991
585	19.446808	0.009125	-0.117720	-9.417600	0.000000	-0.700000	0.308955	-0.183333	0.012217	-0.046426	0.007330
586	19.455933	0.009125	0.000000	-9.417600	0.824040	-0.688060	0.310448	-0.181667	-0.028100	-0.067195	0.004887
587	19.465088	0.009155	0.117720	-9.417600	0.353160	-0.695522	0.308955	-0.180000	-0.041539	-0.063530	0.023213
588	19.474213	0.009125	0.235440	-9.417600	-0.706320	-0.697015	0.311940	-0.183333	0.041539	-0.067195	-0.001222
589	19.483337	0.009125	0.353160	-9.535320	0.117720	-0.694030	0.307463	-0.181667	0.023213	-0.053756	0.008552
590	19.492493	0.009155	0.353160	-9.417600	0.588600	-0.700000	0.313433	-0.181667	0.024435	-0.062308	0.014661
591	19.501617	0.009125	0.235440	-9.417600	-0.117720	-0.695522	0.310448	-0.180000	0.024435	-0.062308	0.004887
592	19.510742	0.009125	0.353160	-9.535320	-0.353160	-0.698507	0.308955	-0.186667	-0.006109	-0.056200	0.007330
593	19.519897	0.009155	0.117720	-9.535320	0.470880	-0.698507	0.307463	-0.181667	0.002443	-0.045204	0.003665
594	19.529022	0.009125	0.000000	-9.299880	0.000000	-0.698507	0.308955	-0.181667	0.004887	-0.052534	0.018326
595	19.538147	0.009125	0.117720	-9.299880	0.470880	-0.714925	0.304478	-0.166667	-0.003665	-0.057421	0.015882
596	19.547272	0.009125	0.000000	-9.417600	0.117720	-0.711940	0.300000	-0.161667	0.018326	-0.050091	0.008552
597	19.556427	0.009155	0.117720	-9.770760	-0.117720	-0.700000	0.310448	-0.180000	-0.002443	-0.045204	0.008552
598	19.565552	0.009125	0.000000	-9.535320	0.000000	-0.698507	0.310448	-0.183333	-0.002443	-0.056200	0.002443
599	19.574677	0.009125	0.117720	-9.535320	0.235440	-0.697015	0.311940	-0.181667	0.023213	-0.062308	-0.002443
600	19.583832	0.009155	0.000000	-9.653040	0.000000	-0.700000	0.310448	-0.181667	0.015882	-0.043982	0.007330
601	19.592957	0.009125	0.117720	-9.535320	1.059480	-0.698507	0.310448	-0.178333	0.012217	-0.052534	0.014661
602	19.602081	0.009125	0.235440	-9.535320	0.235440	-0.698507	0.308955	-0.183333	0.012217	-0.062308	0.014661
603	19.611206	0.009125	0.235440	-9.653040	0.000000	-0.695522	0.307463	-0.180000	0.008552	-0.058643	0.008552
604	19.620361	0.009155	0.235440	-9.535320	0.470880	-0.697015	0.311940	-0.185000	-0.004887	-0.050091	0.012217
605	19.629486	0.009125	0.235440	-9.535320	-0.117720	-0.697015	0.310448	-0.183333	0.009774	-0.043982	0.012217
606	19.638611	0.009125	0.117720	-9.535320	-0.353160	-0.698507	0.310448	-0.180000	-0.001222	-0.050091	0.010996
607	19.647736	0.009125	0.117720	-9.535320	-0.117720	-0.700000	0.311940	-0.183333	-0.013439	-0.058643	0.009774
608	19.656891	0.009155	0.117720	-9.417600	0.117720	-0.697015	0.310448	-0.183333	0.010996	-0.039095	0.006109
609	19.666016	0.009125	0.235440	-9.299880	0.588600	-0.697015	0.308955	-0.183333	0.007330	-0.043982	0.008552
610	19.675140	0.009125	0.000000	-9.535320	0.706320	-0.695522	0.310448	-0.183333	0.001222	-0.056200	0.014661
611	19.684296	0.009155	0.000000	-9.535320	0.470880	-0.697015	0.310448	-0.183333	0.020769	-0.045204	0.004887
612	19.693512	0.009216	0.000000	-9.417600	0.353160	-0.695522	0.311940	-0.180000	0.000000	-0.043982	0.017104
613	19.702545	0.009033	0.000000	-9.417600	0.353160	-0.711940	0.301493	-0.165000	-0.004887	-0.058643	0.014661
614	19.711700	0.009155	0.117720	-9.417600	0.706320	-0.704478	0.307463	-0.175000	-0.008552	-0.072082	0.008552
615	19.720825	0.009125	0.000000	-9.417600	-0.353160	-0.698507	0.313433	-0.186667	0.030543	-0.047647	0.006109
616	19.729950	0.009125	0.000000	-9.417600	-0.588600	-0.701493	0.310448	-0.186667	0.002443	-0.057421	0.007330
617	19.739105	0.009155	0.000000	-9.535320	-0.117720	-0.698507	0.308955	-0.183333	0.000000	-0.069639	0.010996
618	19.748230	0.009125	0.000000	-9.535320	-0.235440	-0.698507	0.310448	-0.186667	0.017104	-0.043982	0.003665
619	19.757355	0.009125	0.117720	-9.417600	-0.117720	-0.695522	0.308955	-0.185000	0.007330	-0.042761	0.015882
620	19.766510	0.009155	0.235440	-9.417600	0.000000	-0.697015	0.308955	-0.186667	0.014661	-0.046426	0.007330
621	19.775635	0.009125	0.117720	-9.299880	0.470880	-0.695522	0.310448	-0.178333	0.006109	-0.054978	0.014661
622	19.784760	0.009125	0.117720	-9.299880	0.353160	-0.698507	0.308955	-0.181667	0.004887	-0.042761	0.017104
623	19.793884	0.009125	0.117720	-9.299880	0.470880	-0.700000	0.311940	-0.180000	0.018326	-0.045204	0.019548
624	19.803040	0.009155	0.000000	-9.417600	0.353160	-0.697015	0.310448	-0.181667	-0.007330	-0.075747	0.004887
625	19.812164	0.009125	0.117720	-9.535320	0.235440	-0.698507	0.308955	-0.180000	0.002443	-0.046426	0.008552
626	19.821289	0.009125	0.117720	-9.417600	0.000000	-0.698507	0.310448	-0.181667	0.002443	-0.045204	0.014661
627	19.830414	0.009125	0.000000	-9.417600	0.470880	-0.701493	0.310448	-0.183333	0.008552	-0.056200	0.008552
628	19.839539	0.009125	0.235440	-9.417600	0.353160	-0.698507	0.307463	-0.181667	-0.013439	-0.065973	0.008552
629	19.848694	0.009155	0.235440	-9.535320	0.000000	-0.697015	0.308955	-0.185000	-0.018326	-0.070860	0.007330
630	19.857819	0.009125	0.470880	-9.770760	0.117720	-0.695522	0.310448	-0.183333	0.061087	-0.052534	-0.006109
631	19.866943	0.009125	0.235440	-9.417600	-0.235440	-0.714925	0.301493	-0.163333	0.015882	-0.039095	0.014661
632	19.876068	0.009125	0.000000	-9.535320	0.117720	-0.702985	0.307463	-0.181667	0.057421	-0.047647	0.006109
633	19.885193	0.009125	0.470880	-9.888480	0.235440	-0.700000	0.311940	-0.183333	0.000000	-0.061087	0.012217
634	19.894318	0.009125	0.000000	-9.535320	-0.588600	-0.698507	0.313433	-0.181667	0.001222	-0.058643	0.008552
635	19.903473	0.009155	0.000000	-9.653040	-0.235440	-0.701493	0.310448	-0.181667	0.025656	-0.042761	0.007330
636	19.912598	0.009125	0.000000	-9.417600	0.000000	-0.697015	0.308955	-0.181667	-0.009774	-0.042761	0.009774
637	19.921722	0.009125	0.000000	-9.182160	0.588600	-0.700000	0.310448	-0.181667	-0.026878	-0.052534	0.014661
638	19.930847	0.009125	0.000000	-9.417600	0.470880	-0.697015	0.313433	-0.183333	0.024435	-0.051313	0.012217
639	19.939972	0.009125	0.117720	-9.653040	0.470880	-0.700000	0.307463	-0.185000	-0.007330	-0.058643	0.026878
640	19.949127	0.009155	0.000000	-9.417600	0.353160	-0.697015	0.308955	-0.188333	0.006109	-0.052534	0.012217
641	19.958252	0.009125	0.000000	-9.417600	0.470880	-0.698507	0.310448	-0.185000	0.007330	-0.063530	0.007330
642	19.967377	0.009125	0.117720	-9.535320	0.235440	-0.700000	0.308955	-0.180000	0.010996	-0.059865	0.008552
643	19.976501	0.009125	0.117720	-9.417600	0.000000	-0.701493	0.313433	-0.180000	0.001222	-0.051313	0.009774
644	19.985626	0.009125	0.000000	-9.417600	0.000000	-0.698507	0.308955	-0.181667	0.006109	-0.067195	0.010996
645	19.994781	0.009155	0.000000	-9.535320	0.353160	-0.700000	0.308955	-0.183333	0.012217	-0.056200	0.008552
646	20.003906	0.009125	0.000000	-9.299880	0.470880	-0.698507	0.310448	-0.183333	-0.002443	-0.053756	0.018326
647	20.013458	0.009552	0.000000	-9.417600	0.000000	-0.698507	0.313433	-0.180000	-0.013439	-0.043982	0.015882
648	20.022156	0.008698	0.000000	-9.417600	-0.470880	-0.700000	0.310448	-0.181667	0.002443	-0.051313	0.002443
649	20.031281	0.009125	0.235440	-9.417600	0.235440	-0.697015	0.308955	-0.183333	-0.006109	-0.052534	0.013439
650	20.040405	0.009125	0.117720	-9.535320	0.235440	-0.711940	0.300000	-0.166667	-0.017104	-0.057421	0.012217
651	20.049530	0.009125	0.000000	-9.535320	0.470880	-0.701493	0.308955	-0.178333	0.013439	-0.059865	0.014661
652	20.058655	0.009125	0.235440	-9.299880	0.235440	-0.700000	0.311940	-0.185000	0.013439	-0.061087	0.012217
653	20.067810	0.009155	0.235440	-9.417600	0.353160	-0.700000	0.310448	-0.180000	0.030543	-0.043982	0.003665
654	20.076935	0.009125	0.117720	-9.535320	0.588600	-0.700000	0.310448	-0.183333	0.024435	-0.064752	0.009774
655	20.086060	0.009125	0.000000	-9.417600	-0.235440	-0.700000	0.308955	-0.185000	0.019548	-0.054978	0.004887
656	20.095184	0.009125	0.117720	-9.299880	-0.235440	-0.697015	0.311940	-0.181667	-0.012217	-0.048869	0.019548
657	20.104340	0.009155	0.117720	-9.535320	0.000000	-0.692537	0.311940	-0.183333	0.009774	-0.045204	0.007330
658	20.113464	0.009125	0.117720	-9.535320	-0.117720	-0.698507	0.310448	-0.185000	-0.002443	-0.057421	0.002443
659	20.122589	0.009125	0.117720	-9.299880	0.000000	-0.698507	0.310448	-0.185000	0.017104	-0.039095	0.012217
660	20.131714	0.009125	0.000000	-9.653040	0.117720	-0.698507	0.313433	-0.181667	0.013439	-0.052534	0.013439
661	20.140869	0.009155	0.000000	-9.535320	0.235440	-0.698507	0.311940	-0.185000	-0.013439	-0.054978	0.013439
662	20.149994	0.009125	0.000000	-9.417600	0.353160	-0.701493	0.308955	-0.178333	-0.020769	-0.052534	0.014661
663	20.159119	0.009125	0.000000	-9.417600	0.588600	-0.700000	0.310448	-0.183333	0.000000	-0.063530	0.013439
664	20.168243	0.009125	0.000000	-9.535320	0.235440	-0.698507	0.310448	-0.186667	0.008552	-0.051313	0.004887
665	20.177368	0.009125	0.235440	-9.417600	0.235440	-0.697015	0.308955	-0.191667	-0.004887	-0.068417	0.012217
666	20.186523	0.009155	0.235440	-9.653040	0.470880	-0.697015	0.311940	-0.181667	-0.001222	-0.058643	0.010996
667	20.195648	0.009125	0.117720	-9.417600	0.117720	-0.698507	0.308955	-0.183333	-0.001222	-0.056200	0.014661
668	20.204773	0.009125	0.117720	-9.299880	-0.117720	-0.697015	0.310448	-0.181667	0.004887	-0.051313	0.012217
669	20.213898	0.009125	0.117720	-9.535320	0.000000	-0.713433	0.300000	-0.166667	-0.009774	-0.068417	-0.001222
670	20.223053	0.009155	0.000000	-9.535320	0.000000	-0.705970	0.307463	-0.175000	0.002443	-0.048869	0.004887
671	20.232178	0.009125	0.235440	-9.417600	0.000000	-0.698507	0.311940	-0.181667	0.006109	-0.045204	0.008552
672	20.241302	0.009125	0.000000	-9.417600	0.235440	-0.698507	0.308955	-0.185000	-0.009774	-0.054978	0.013439
673	20.250427	0.009125	0.000000	-9.417600	0.353160	-0.700000	0.310448	-0.181667	0.014661	-0.046426	0.014661
674	20.259583	0.009155	0.000000	-9.535320	0.470880	-0.695522	0.313433	-0.183333	0.001222	-0.062308	0.012217
675	20.268707	0.009125	0.000000	-9.535320	0.353160	-0.700000	0.310448	-0.180000	0.001222	-0.047647	0.017104
676	20.277832	0.009125	0.000000	-9.535320	0.353160	-0.702985	0.311940	-0.181667	0.006109	-0.058643	0.010996
677	20.286957	0.009125	0.000000	-9.535320	0.117720	-0.695522	0.308955	-0.183333	-0.001222	-0.057421	0.012217
678	20.296082	0.009125	0.117720	-9.417600	0.353160	-0.701493	0.308955	-0.180000	-0.004887	-0.061087	0.017104
679	20.305206	0.009125	0.117720	-9.417600	0.117720	-0.698507	0.311940	-0.183333	0.006109	-0.047647	0.018326
680	20.314362	0.009155	0.117720	-9.417600	0.000000	-0.700000	0.308955	-0.183333	-0.001222	-0.059865	0.009774
681	20.323486	0.009125	0.117720	-9.299880	0.000000	-0.695522	0.308955	-0.180000	0.004887	-0.062308	0.008552
682	20.333405	0.009918	0.000000	-9.417600	0.117720	-0.701493	0.308955	-0.180000	0.003665	-0.058643	0.004887
683	20.341736	0.008331	0.117720	-9.417600	0.235440	-0.698507	0.311940	-0.188333	-0.002443	-0.061087	-0.001222
684	20.350861	0.009125	0.117720	-9.417600	0.353160	-0.700000	0.310448	-0.188333	0.010996	-0.046426	0.012217
685	20.360016	0.009155	0.117720	-9.535320	0.353160	-0.701493	0.311940	-0.181667	-0.001222	-0.053756	0.009774
686	20.369141	0.009125	0.117720	-9.299880	0.235440	-0.700000	0.310448	-0.183333	-0.007330	-0.061087	0.008552
687	20.378265	0.009125	0.117720	-9.535320	0.117720	-0.708955	0.297015	-0.168333	0.003665	-0.051313	0.009774
688	20.387390	0.009125	0.000000	-9.535320	0.353160	-0.702985	0.305970	-0.176667	0.010996	-0.053756	0.009774
689	20.396515	0.009125	0.117720	-9.417600	0.117720	-0.698507	0.310448	-0.181667	0.008552	-0.054978	0.006109
690	20.405670	0.009155	0.117720	-9.299880	0.000000	-0.701493	0.308955	-0.183333	0.004887	-0.052534	0.009774
691	20.414795	0.009125	0.117720	-9.299880	0.235440	-0.695522	0.311940	-0.185000	0.006109	-0.062308	0.007330
692	20.423920	0.009125	0.117720	-9.417600	0.117720	-0.698507	0.313433	-0.185000	0.000000	-0.068417	0.004887
693	20.433044	0.009125	0.235440	-9.535320	0.353160	-0.702985	0.313433	-0.183333	0.002443	-0.064752	0.000000
694	20.442200	0.009155	0.000000	-9.417600	0.000000	-0.698507	0.308955	-0.183333	0.006109	-0.039095	0.013439
695	20.451324	0.009125	0.000000	-9.653040	-0.235440	-0.697015	0.307463	-0.181667	0.003665	-0.054978	0.009774
696	20.465759	0.014435	0.000000	-9.535320	0.117720	-0.694030	0.311940	-0.180000	0.002443	-0.050091	0.009774
697	20.474152	0.008392	0.000000	-9.417600	0.470880	-0.700000	0.308955	-0.183333	0.015882	-0.037874	0.009774
698	20.483276	0.009125	0.000000	-9.417600	0.235440	-0.700000	0.313433	-0.183333	0.007330	-0.042761	0.008552
699	20.493378	0.010101	0.000000	-9.535320	0.235440	-0.697015	0.311940	-0.181667	-0.002443	-0.063530	0.001222
700	20.501526	0.008148	0.117720	-9.417600	0.353160	-0.702985	0.311940	-0.183333	-0.006109	-0.057421	0.015882
701	20.510681	0.009155	0.000000	-9.417600	0.117720	-0.695522	0.311940	-0.186667	-0.152716	-0.058643	0.004887
702	20.519806	0.009125	0.000000	-9.535320	0.000000	-0.701493	0.311940	-0.180000	0.003665	-0.059865	0.003665
703	20.528931	0.009125	0.000000	-9.535320	0.000000	-0.695522	0.308955	-0.183333	0.002443	-0.058643	0.014661
704	20.538086	0.009155	0.000000	-9.417600	0.000000	-0.697015	0.308955	-0.183333	-0.006109	-0.063530	0.012217
705	20.547211	0.009125	0.000000	-9.299880	0.000000	-0.697015	0.307463	-0.180000	-0.006109	-0.051313	0.013439
706	20.556335	0.009125	0.000000	-9.535320	0.117720	-0.711940	0.298507	-0.170000	-0.006109	-0.050091	0.015882
707	20.565491	0.009155	0.117720	-9.535320	0.235440	-0.702985	0.307463	-0.176667	0.000000	-0.048869	0.014661
708	20.574615	0.009125	0.117720	-9.535320	0.353160	-0.697015	0.307463	-0.183333	0.009774	-0.046426	0.020769
709	20.583771	0.009155	0.235440	-9.417600	0.235440	-0.697015	0.308955	-0.185000	0.003665	-0.065973	0.004887
710	20.592896	0.009125	0.117720	-9.535320	0.117720	-0.694030	0.308955	-0.185000	-0.007330	-0.068417	0.006109
711	20.602020	0.009125	0.117720	-9.182160	0.235440	-0.697015	0.308955	-0.186667	0.014661	-0.047647	0.003665
712	20.611145	0.009125	0.000000	-9.417600	0.235440	-0.694030	0.310448	-0.183333	-0.001222	-0.052534	0.012217
713	20.620300	0.009155	0.000000	-9.417600	0.000000	-0.700000	0.310448	-0.183333	-0.002443	-0.070860	0.000000
714	20.629425	0.009125	0.117720	-9.535320	0.235440	-0.697015	0.311940	-0.185000	0.001222	-0.051313	0.013439
715	20.638550	0.009125	0.117720	-9.299880	0.353160	-0.700000	0.308955	-0.185000	0.008552	-0.052534	0.010996
716	20.647675	0.009125	0.235440	-9.417600	0.235440	-0.694030	0.308955	-0.185000	0.002443	-0.056200	0.010996
717	20.656799	0.009125	0.117720	-9.535320	-0.117720	-0.692537	0.311940	-0.183333	-0.006109	-0.063530	-0.003665
718	20.665955	0.009155	0.117720	-9.535320	0.000000	-0.700000	0.311940	-0.181667	0.008552	-0.057421	0.006109
719	20.675079	0.009125	0.000000	-9.417600	0.117720	-0.700000	0.305970	-0.180000	-0.006109	-0.057421	0.010996
720	20.684204	0.009125	0.117720	-9.417600	0.235440	-0.700000	0.310448	-0.186667	-0.003665	-0.058643	0.015882
721	20.693329	0.009125	0.000000	-9.299880	0.470880	-0.695522	0.310448	-0.183333	0.015882	-0.052534	0.002443
722	20.702484	0.009155	0.117720	-9.299880	0.117720	-0.701493	0.310448	-0.181667	-0.007330	-0.061087	0.013439
723	20.711609	0.009125	0.117720	-9.417600	0.117720	-0.700000	0.308955	-0.180000	-0.006109	-0.052534	0.012217
724	20.720734	0.009125	0.117720	-9.417600	0.117720	-0.711940	0.300000	-0.166667	0.006109	-0.048869	0.010996
725	20.729889	0.009155	0.117720	-9.417600	0.000000	-0.702985	0.305970	-0.175000	0.004887	-0.064752	0.003665
726	20.739014	0.009125	0.000000	-9.535320	0.117720	-0.700000	0.313433	-0.181667	0.006109	-0.200364	0.009774
727	20.748138	0.009125	0.000000	-9.417600	0.235440	-0.698507	0.313433	-0.183333	0.007330	-0.043982	0.009774
728	20.757263	0.009125	0.117720	-9.417600	0.000000	-0.697015	0.308955	-0.185000	0.001222	-0.050091	0.010996
729	20.766388	0.009125	0.000000	-9.417600	0.117720	-0.697015	0.310448	-0.188333	-0.001222	-0.046426	0.014661
730	20.775543	0.009155	0.117720	-9.417600	0.117720	-0.698507	0.308955	-0.180000	0.000000	-0.058643	0.013439
731	20.784668	0.009125	0.117720	-9.417600	0.117720	-0.701493	0.308955	-0.185000	0.009774	-0.200364	0.009774
732	20.793793	0.009125	0.117720	-9.535320	0.235440	-0.698507	0.310448	-0.188333	-0.004887	-0.065973	0.008552
733	20.802948	0.009155	0.235440	-9.417600	0.235440	-0.700000	0.311940	-0.185000	0.009774	-0.054978	0.013439
734	20.812073	0.009125	0.000000	-9.417600	0.117720	-0.700000	0.308955	-0.186667	0.004887	-0.056200	0.001222
735	20.821198	0.009125	0.000000	-9.417600	0.353160	-0.698507	0.311940	-0.181667	0.006109	-0.046426	0.019548
736	20.830322	0.009125	0.000000	-9.417600	0.353160	-0.698507	0.310448	-0.180000	-0.002443	-0.053756	0.015882
737	20.839478	0.009155	0.117720	-9.535320	0.353160	-0.698507	0.307463	-0.183333	0.007330	-0.054978	0.004887
738	20.848602	0.009125	0.117720	-9.417600	0.117720	-0.700000	0.310448	-0.180000	0.006109	-0.068417	-0.002443
739	20.857727	0.009125	0.000000	-9.417600	0.000000	-0.694030	0.308955	-0.183333	0.000000	-0.051313	0.010996
740	20.866882	0.009155	0.000000	-9.417600	0.235440	-0.700000	0.308955	-0.185000	0.007330	-0.053756	0.010996
741	20.876007	0.009125	0.117720	-9.299880	0.000000	-0.697015	0.311940	-0.185000	0.000000	-0.062308	0.010996
742	20.885132	0.009125	0.000000	-9.535320	0.000000	-0.700000	0.310448	-0.185000	0.017104	-0.053756	0.003665
743	20.894257	0.009125	0.000000	-9.535320	0.353160	-0.708955	0.295522	-0.170000	-0.004887	-0.059865	0.013439
744	20.903412	0.009155	0.117720	-9.535320	0.117720	-0.702985	0.307463	-0.176667	-0.008552	-0.070860	0.009774
745	20.912537	0.009125	0.117720	-9.417600	0.000000	-0.700000	0.307463	-0.185000	0.000000	-0.067195	0.010996
746	20.921692	0.009155	0.117720	-9.182160	0.235440	-0.698507	0.311940	-0.180000	0.013439	-0.052534	0.009774
747	20.930817	0.009125	0.117720	-9.535320	0.235440	-0.697015	0.308955	-0.181667	0.015882	-0.054978	0.006109
748	20.939941	0.009125	0.000000	-9.417600	0.353160	-0.697015	0.311940	-0.185000	0.007330	-0.051313	0.017104
749	20.949097	0.009155	0.117720	-9.417600	0.000000	-0.695522	0.311940	-0.178333	0.001222	-0.046426	0.014661
750	20.958221	0.009125	0.117720	-9.535320	0.117720	-0.700000	0.311940	-0.181667	0.000000	-0.050091	0.014661
751	20.967377	0.009155	0.117720	-9.299880	0.000000	-0.698507	0.310448	-0.188333	-0.001222	-0.068417	0.007330
752	20.976501	0.009125	0.000000	-9.535320	0.235440	-0.697015	0.310448	-0.181667	0.003665	-0.058643	0.003665
753	20.985626	0.009125	0.000000	-9.535320	0.117720	-0.697015	0.308955	-0.183333	0.007330	-0.051313	0.001222
754	20.994781	0.009155	0.117720	-9.535320	0.470880	-0.694030	0.308955	-0.183333	0.002443	-0.059865	0.002443
755	21.003906	0.009125	0.235440	-9.417600	0.235440	-0.694030	0.310448	-0.185000	0.012217	-0.045204	0.002443
756	21.013031	0.009125	0.117720	-9.417600	0.235440	-0.697015	0.310448	-0.181667	-0.007330	-0.053756	0.014661
757	21.022186	0.009155	0.235440	-9.417600	0.470880	-0.701493	0.313433	-0.185000	-0.002443	-0.058643	0.006109
758	21.031311	0.009125	0.117720	-9.417600	0.235440	-0.697015	0.310448	-0.186667	0.000000	-0.061087	0.009774
759	21.040436	0.009125	0.235440	-9.535320	0.353160	-0.702985	0.310448	-0.183333	0.006109	-0.057421	0.008552
760	21.049591	0.009155	0.117720	-9.535320	0.235440	-0.695522	0.311940	-0.183333	0.001222	-0.052534	0.013439
761	21.058716	0.009125	0.117720	-9.299880	0.000000	-0.716418	0.304478	-0.163333	-0.001222	-0.059865	0.010996
762	21.067871	0.009155	0.000000	-9.535320	0.117720	-0.711940	0.300000	-0.168333	0.018326	-0.050091	0.004887
763	21.076996	0.009125	0.000000	-9.417600	0.235440	-0.700000	0.310448	-0.183333	0.000000	-0.057421	0.013439
764	21.086121	0.009125	0.235440	-9.417600	0.235440	-0.698507	0.311940	-0.181667	0.007330	-0.051313	0.014661
765	21.095245	0.009125	0.117720	-9.417600	0.235440	-0.698507	0.311940	-0.185000	0.002443	-0.062308	0.004887
766	21.104370	0.009125	0.117720	-9.535320	0.117720	-0.697015	0.310448	-0.185000	-0.006109	-0.067195	0.013439
767	21.113525	0.009155	0.117720	-9.417600	0.000000	-0.697015	0.310448	-0.185000	-0.001222	-0.056200	0.004887
768	21.122650	0.009125	0.117720	-9.417600	0.000000	-0.700000	0.310448	-0.186667	0.006109	-0.050091	0.012217
769	21.131775	0.009125	0.235440	-9.653040	0.117720	-0.698507	0.310448	-0.183333	0.007330	-0.048869	0.009774
770	21.140930	0.009155	-0.117720	-9.417600	0.235440	-0.701493	0.310448	-0.181667	0.004887	-0.050091	0.009774
771	21.150055	0.009125	0.000000	-9.535320	0.353160	-0.697015	0.307463	-0.191667	-0.012217	-0.053756	0.013439
772	21.159180	0.009125	0.117720	-9.417600	0.353160	-0.697015	0.307463	-0.183333	0.007330	-0.058643	0.001222
773	21.168304	0.009125	0.117720	-9.417600	0.353160	-0.691045	0.311940	-0.180000	0.002443	-0.042761	0.010996
774	21.177460	0.009155	0.117720	-9.535320	0.117720	-0.698507	0.313433	-0.183333	0.002443	-0.054978	0.010996
775	21.186584	0.009125	0.000000	-9.535320	0.353160	-0.697015	0.310448	-0.181667	-0.003665	-0.061087	0.014661
776	21.195709	0.009125	0.117720	-9.417600	0.235440	-0.700000	0.310448	-0.181667	0.012217	-0.056200	0.008552
777	21.204834	0.009125	0.000000	-9.417600	0.000000	-0.698507	0.310448	-0.186667	-0.004887	-0.063530	0.003665
778	21.213959	0.009125	0.117720	-9.417600	0.235440	-0.695522	0.311940	-0.180000	0.007330	-0.046426	0.015882
779	21.223114	0.009155	0.117720	-9.417600	0.353160	-0.700000	0.307463	-0.185000	0.004887	-0.050091	0.018326
780	21.232239	0.009125	0.000000	-9.535320	0.235440	-0.711940	0.300000	-0.165000	0.000000	-0.048869	0.017104
781	21.241364	0.009125	0.117720	-9.535320	0.353160	-0.701493	0.308955	-0.178333	0.002443	-0.054978	0.012217
782	21.250488	0.009125	0.117720	-9.535320	0.000000	-0.698507	0.310448	-0.180000	0.003665	-0.042761	0.015882
783	21.259644	0.009155	0.117720	-9.535320	0.000000	-0.697015	0.310448	-0.183333	0.014661	-0.054978	0.007330
784	21.268768	0.009125	0.117720	-9.417600	0.117720	-0.695522	0.313433	-0.186667	0.000000	-0.063530	-0.002443
785	21.277893	0.009125	0.000000	-9.535320	0.353160	-0.695522	0.308955	-0.180000	0.006109	-0.051313	0.009774
786	21.287048	0.009155	0.235440	-9.535320	0.235440	-0.700000	0.310448	-0.188333	-0.012217	-0.057421	0.004887
787	21.296173	0.009125	0.117720	-9.417600	-0.117720	-0.695522	0.308955	-0.181667	0.004887	-0.048869	0.001222
788	21.305298	0.009125	0.117720	-9.417600	-0.117720	-0.695522	0.310448	-0.178333	0.000000	-0.059865	0.007330
789	21.314453	0.009155	0.000000	-9.417600	0.000000	-0.700000	0.310448	-0.185000	-0.009774	-0.058643	0.014661
790	21.323578	0.009125	0.117720	-9.535320	-0.117720	-0.697015	0.313433	-0.183333	0.000000	-0.050091	0.007330
791	21.332703	0.009125	0.117720	-9.535320	0.000000	-0.698507	0.308955	-0.188333	-0.006109	-0.070860	0.014661
792	21.341858	0.009155	0.117720	-9.417600	0.000000	-0.695522	0.310448	-0.183333	0.003665	-0.062308	0.002443
793	21.350983	0.009125	0.235440	-9.182160	0.000000	-0.698507	0.311940	-0.181667	-0.003665	-0.061087	0.013439
794	21.360107	0.009125	0.235440	-9.535320	0.353160	-0.697015	0.308955	-0.183333	0.010996	-0.053756	0.013439
795	21.369232	0.009125	0.117720	-9.417600	0.235440	-0.697015	0.307463	-0.181667	-0.008552	-0.069639	0.007330
796	21.378387	0.009155	0.117720	-9.417600	0.235440	-0.695522	0.307463	-0.178333	0.009774	-0.042761	0.008552
797	21.387512	0.009125	0.117720	-9.417600	0.235440	-0.697015	0.308955	-0.183333	0.004887	-0.056200	0.009774
798	21.396637	0.009125	0.000000	-9.299880	0.117720	-0.710448	0.300000	-0.168333	-0.004887	-0.056200	0.012217
799	21.405762	0.009125	0.117720	-9.417600	0.000000	-0.704478	0.307463	-0.178333	0.003665	-0.054978	0.013439
800	21.414917	0.009155	0.117720	-9.417600	0.235440	-0.700000	0.308955	-0.180000	-0.001222	-0.058643	0.003665
801	21.424042	0.009125	0.353160	-9.299880	0.117720	-0.701493	0.311940	-0.181667	0.009774	-0.037874	0.020769
802	21.433167	0.009125	0.117720	-9.417600	0.235440	-0.698507	0.311940	-0.185000	-0.012217	-0.064752	0.009774
803	21.442291	0.009125	0.117720	-9.299880	0.000000	-0.698507	0.310448	-0.185000	0.000000	-0.053756	0.009774
804	21.451447	0.009155	0.117720	-9.535320	0.117720	-0.698507	0.308955	-0.181667	0.006109	-0.051313	0.002443
805	21.460571	0.009125	0.117720	-9.770760	0.235440	-0.701493	0.310448	-0.183333	0.002443	-0.058643	0.009774
806	21.469696	0.009125	0.117720	-9.535320	0.117720	-0.698507	0.308955	-0.180000	0.003665	-0.057421	0.010996
807	21.478851	0.009155	0.000000	-9.299880	0.117720	-0.700000	0.311940	-0.185000	0.009774	-0.065973	0.006109
808	21.487976	0.009125	0.235440	-9.182160	0.117720	-0.698507	0.310448	-0.185000	0.001222	-0.053756	0.013439
809	21.497101	0.009125	0.117720	-9.535320	0.117720	-0.695522	0.310448	-0.181667	0.007330	-0.053756	0.003665
810	21.506226	0.009125	0.000000	-9.535320	0.117720	-0.700000	0.310448	-0.181667	-0.010996	-0.061087	0.013439
811	21.515381	0.009155	0.117720	-9.417600	0.470880	-0.701493	0.308955	-0.186667	0.002443	-0.063530	-0.004887
812	21.524506	0.009125	0.117720	-9.417600	0.117720	-0.698507	0.310448	-0.183333	-0.006109	-0.054978	0.013439
813	21.533630	0.009125	0.117720	-9.299880	0.235440	-0.701493	0.310448	-0.186667	0.000000	-0.057421	0.008552
814	21.542786	0.009155	0.117720	-9.417600	0.117720	-0.698507	0.310448	-0.185000	0.014661	-0.048869	0.003665
815	21.551910	0.009125	0.000000	-9.535320	0.117720	-0.700000	0.311940	-0.183333	0.000000	-0.064752	0.003665
816	21.561035	0.009125	0.000000	-9.417600	0.000000	-0.700000	0.310448	-0.181667	0.008552	-0.039095	0.021991
817	21.570190	0.009155	0.000000	-9.417600	0.000000	-0.711940	0.298507	-0.170000	0.003665	-0.059865	0.008552
818	21.579315	0.009125	0.117720	-9.417600	0.235440	-0.702985	0.305970	-0.176667	-0.010996	-0.063530	0.010996
819	21.588440	0.009125	0.117720	-9.299880	0.235440	-0.697015	0.308955	-0.183333	0.002443	-0.058643	0.009774
820	21.597565	0.009125	0.235440	-9.417600	0.353160	-0.698507	0.307463	-0.185000	0.007330	-0.063530	0.004887
821	21.606720	0.009155	0.117720	-9.417600	0.235440	-0.701493	0.308955	-0.181667	0.004887	-0.064752	0.007330
822	21.615845	0.009125	0.000000	-9.299880	0.117720	-0.692537	0.308955	-0.181667	0.000000	-0.063530	0.009774
823	21.624969	0.009125	0.000000	-9.299880	0.117720	-0.698507	0.310448	-0.186667	0.007330	-0.046426	0.010996
824	21.634094	0.009125	0.117720	-9.535320	0.235440	-0.697015	0.311940	-0.185000	0.012217	-0.051313	0.004887
825	21.643219	0.009125	0.000000	-9.417600	0.117720	-0.700000	0.310448	-0.181667	0.012217	-0.054978	0.004887
826	21.652374	0.009155	0.117720	-9.417600	0.117720	-0.697015	0.313433	-0.183333	0.009774	-0.048869	0.010996
827	21.661499	0.009125	0.117720	-9.299880	0.000000	-0.698507	0.311940	-0.185000	0.000000	-0.056200	0.004887
828	21.670624	0.009125	0.117720	-9.417600	0.117720	-0.697015	0.308955	-0.185000	0.009774	-0.048869	0.012217
829	21.679779	0.009155	0.117720	-9.417600	0.000000	-0.700000	0.311940	-0.181667	0.002443	-0.053756	0.008552
830	21.688904	0.009125	0.000000	-9.535320	0.000000	-0.697015	0.310448	-0.185000	0.004887	-0.046426	0.009774
831	21.698029	0.009125	0.117720	-9.417600	0.000000	-0.701493	0.308955	-0.181667	-0.006109	-0.058643	0.010996
832	21.707153	0.009125	0.117720	-9.535320	-0.353160	-0.698507	0.310448	-0.188333	0.010996	-0.054978	-0.002443
833	21.716309	0.009155	0.000000	-9.417600	0.000000	-0.700000	0.311940	-0.183333	0.001222	-0.057421	0.015882
834	21.725433	0.009125	0.000000	-9.417600	0.117720	-0.695522	0.313433	-0.183333	0.002443	-0.063530	0.004887
835	21.734589	0.009155	0.000000	-9.535320	0.117720	-0.698507	0.311940	-0.185000	0.014661	-0.054978	0.006109
836	21.743713	0.009125	0.117720	-9.182160	0.235440	-0.710448	0.300000	-0.166667	-0.013439	-0.061087	0.013439
837	21.752838	0.009125	0.117720	-9.417600	0.117720	-0.700000	0.305970	-0.178333	0.003665	-0.061087	0.006109
838	21.761993	0.009155	0.117720	-9.417600	0.235440	-0.700000	0.311940	-0.181667	0.004887	-0.051313	0.003665
839	21.771118	0.009125	0.000000	-9.535320	0.235440	-0.698507	0.308955	-0.183333	0.006109	-0.053756	0.004887
840	21.780243	0.009125	0.000000	-9.417600	0.353160	-0.698507	0.311940	-0.180000	0.001222	-0.043982	0.013439
841	21.789398	0.009155	0.000000	-9.417600	0.235440	-0.700000	0.308955	-0.185000	-0.004887	-0.059865	0.008552
842	21.798523	0.009125	0.000000	-9.417600	0.117720	-0.692537	0.308955	-0.181667	-0.002443	-0.059865	0.015882
843	21.807648	0.009125	0.000000	-9.417600	0.353160	-0.697015	0.307463	-0.181667	0.003665	-0.052534	0.010996
844	21.816803	0.009155	0.117720	-9.535320	0.235440	-0.700000	0.311940	-0.180000	0.001222	-0.052534	0.012217
845	21.825928	0.009125	0.000000	-9.417600	0.235440	-0.700000	0.308955	-0.183333	-0.009774	-0.063530	0.013439
846	21.835052	0.009125	0.117720	-9.417600	0.000000	-0.692537	0.310448	-0.181667	0.014661	-0.056200	0.012217
847	21.844208	0.009155	0.235440	-9.417600	0.000000	-0.698507	0.308955	-0.181667	0.008552	-0.035430	0.019548
848	21.853333	0.009125	0.117720	-9.417600	0.117720	-0.695522	0.311940	-0.183333	-0.015882	-0.057421	0.018326
849	21.862457	0.009125	0.235440	-9.417600	0.117720	-0.701493	0.308955	-0.181667	0.017104	-0.052534	0.002443
850	21.871613	0.009155	0.117720	-9.417600	0.000000	-0.697015	0.311940	-0.188333	0.002443	-0.200364	0.017104
851	21.880737	0.009125	0.117720	-9.417600	0.000000	-0.697015	0.311940	-0.188333	-0.002443	-0.070860	0.008552
852	21.889862	0.009125	0.235440	-9.417600	-0.117720	-0.698507	0.311940	-0.186667	-0.012217	-0.058643	0.009774
853	21.899017	0.009155	0.117720	-9.299880	0.000000	-0.701493	0.310448	-0.183333	0.000000	-0.051313	0.002443
854	21.908142	0.009125	0.000000	-9.299880	0.353160	-0.710448	0.297015	-0.168333	-0.006109	-0.053756	0.018326
855	21.917267	0.009125	0.000000	-9.535320	0.470880	-0.702985	0.308955	-0.178333	0.007330	-0.059865	0.008552
856	21.926422	0.009155	0.000000	-9.417600	0.117720	-0.700000	0.311940	-0.181667	0.013439	-0.039095	0.012217
857	21.935547	0.009125	0.117720	-9.417600	0.117720	-0.697015	0.310448	-0.180000	0.001222	-0.062308	0.004887
858	21.944672	0.009125	0.117720	-9.417600	0.235440	-0.698507	0.311940	-0.183333	0.003665	-0.053756	0.008552
859	21.953827	0.009155	0.117720	-9.535320	0.117720	-0.700000	0.311940	-0.185000	0.020769	-0.047647	0.006109
860	21.962952	0.009125	0.000000	-9.299880	0.000000	-0.700000	0.311940	-0.185000	-0.010996	-0.048869	0.009774
861	21.972076	0.009125	0.000000	-9.417600	0.117720	-0.698507	0.307463	-0.185000	0.004887	-0.053756	0.001222
862	21.981232	0.009155	0.117720	-9.417600	0.117720	-0.697015	0.311940	-0.185000	-0.001222	-0.050091	0.009774
863	21.990356	0.009125	0.117720	-9.182160	0.000000	-0.698507	0.308955	-0.183333	-0.013439	-0.059865	0.009774
864	21.999481	0.009125	0.117720	-9.417600	0.117720	-0.697015	0.311940	-0.181667	-0.004887	-0.057421	0.004887
865	22.008636	0.009155	0.235440	-9.653040	0.235440	-0.698507	0.311940	-0.186667	0.006109	-0.045204	0.015882
866	22.017761	0.009125	0.117720	-9.417600	0.117720	-0.698507	0.305970	-0.181667	0.001222	-0.052534	0.012217
867	22.026917	0.009155	0.117720	-9.653040	0.235440	-0.695522	0.311940	-0.186667	0.000000	-0.040317	0.021991
868	22.036041	0.009125	0.117720	-9.417600	0.235440	-0.698507	0.311940	-0.183333	0.004887	-0.059865	0.010996
869	22.045197	0.009155	0.000000	-9.417600	0.353160	-0.700000	0.311940	-0.181667	0.002443	-0.063530	0.008552
870	22.054321	0.009125	0.117720	-9.299880	0.235440	-0.700000	0.310448	-0.183333	0.000000	-0.063530	0.008552
871	22.063446	0.009125	0.117720	-9.417600	0.117720	-0.697015	0.308955	-0.186667	0.009774	-0.050091	0.009774
872	22.072601	0.009155	0.117720	-9.417600	0.117720	-0.695522	0.311940	-0.183333	0.006109	-0.058643	0.002443
873	22.081726	0.009125	0.353160	-9.535320	0.000000	-0.710448	0.298507	-0.165000	-0.001222	-0.053756	0.012217
874	22.090881	0.009155	0.235440	-9.653040	0.117720	-0.705970	0.308955	-0.176667	0.002443	-0.050091	0.019548
875	22.100006	0.009125	0.353160	-9.417600	0.117720	-0.700000	0.313433	-0.183333	0.008552	-0.204029	0.014661
876	22.109131	0.009125	0.353160	-9.417600	0.117720	-0.695522	0.310448	-0.181667	-0.003665	-0.057421	0.008552
877	22.118286	0.009155	0.470880	-9.535320	0.117720	-0.698507	0.308955	-0.186667	0.014661	-0.053756	0.002443
878	22.127411	0.009125	0.470880	-9.535320	0.117720	-0.700000	0.308955	-0.181667	0.014661	-0.048869	0.007330
879	22.136536	0.009125	0.470880	-9.535320	0.235440	-0.695522	0.311940	-0.185000	0.018326	-0.050091	0.008552
880	22.145691	0.009155	0.470880	-9.417600	0.117720	-0.700000	0.308955	-0.186667	-0.008552	-0.059865	0.019548
881	22.154816	0.009125	0.470880	-9.535320	0.235440	-0.700000	0.308955	-0.183333	0.002443	-0.068417	0.004887
882	22.163971	0.009155	0.588600	-9.653040	0.000000	-0.694030	0.310448	-0.185000	-0.003665	-0.059865	0.010996
883	22.173126	0.009155	0.588600	-9.535320	0.235440	-0.701493	0.311940	-0.183333	0.002443	-0.056200	0.002443
884	22.182251	0.009125	0.588600	-9.417600	0.235440	-0.700000	0.308955	-0.186667	0.002443	-0.052534	0.020769
885	22.191376	0.009125	0.353160	-9.417600	0.470880	-0.698507	0.310448	-0.183333	0.001222	-0.052534	0.009774
886	22.200531	0.009155	0.470880	-9.417600	0.235440	-0.700000	0.308955	-0.186667	0.012217	-0.052534	0.002443
887	22.209656	0.009125	0.353160	-9.535320	0.117720	-0.700000	0.308955	-0.183333	0.009774	-0.062308	0.008552
888	22.218781	0.009125	0.470880	-9.653040	0.000000	-0.695522	0.310448	-0.188333	0.003665	-0.065973	0.010996
889	22.227936	0.009155	0.706320	-9.535320	0.117720	-0.701493	0.308955	-0.185000	0.013439	-0.050091	0.007330
890	22.237061	0.009125	0.588600	-9.417600	0.353160	-0.701493	0.310448	-0.186667	0.004887	-0.053756	0.009774
891	22.246185	0.009125	0.353160	-9.299880	0.000000	-0.711940	0.301493	-0.175000	0.010996	-0.042761	0.018326
892	22.255310	0.009125	0.353160	-9.299880	0.117720	-0.705970	0.308955	-0.181667	-0.006109	-0.056200	0.019548
893	22.264435	0.009125	0.470880	-9.299880	0.117720	-0.701493	0.311940	-0.188333	0.002443	-0.053756	0.018326
894	22.273590	0.009155	0.588600	-9.417600	0.588600	-0.701493	0.311940	-0.188333	0.002443	-0.058643	0.014661
895	22.282715	0.009125	0.588600	-9.417600	0.706320	-0.701493	0.310448	-0.191667	0.014661	-0.054978	0.014661
896	22.291840	0.009125	0.588600	-9.535320	0.235440	-0.698507	0.311940	-0.190000	0.007330	-0.059865	0.003665
897	22.300964	0.009125	0.470880	-9.535320	0.000000	-0.700000	0.311940	-0.195000	0.004887	-0.061087	-0.002443
898	22.310089	0.009125	0.470880	-9.417600	0.000000	-0.705970	0.314925	-0.193333	0.000000	-0.063530	0.004887
899	22.319244	0.009155	1.059480	-9.299880	0.235440	-0.700000	0.313433	-0.191667	0.008552	-0.050091	0.012217
900	22.328369	0.009125	0.824040	-9.417600	0.117720	-0.701493	0.313433	-0.191667	-0.003665	-0.061087	0.015882
901	22.337494	0.009125	0.470880	-9.770760	-0.470880	-0.700000	0.305970	-0.193333	0.009774	-0.064752	0.004887
902	22.346649	0.009155	1.177200	-9.182160	0.000000	-0.701493	0.314925	-0.196667	0.020769	-0.050091	0.015882
903	22.355774	0.009125	1.294920	-9.299880	0.235440	-0.702985	0.311940	-0.193333	-0.003665	-0.059865	0.008552
904	22.364899	0.009125	0.235440	-10.006200	0.470880	-0.701493	0.313433	-0.196667	-0.008552	-0.067195	0.001222
905	22.374023	0.009125	0.824040	-9.299880	0.117720	-0.704478	0.314925	-0.196667	0.029322	-0.042761	0.010996
906	22.383179	0.009155	1.059480	-9.182160	0.235440	-0.704478	0.314925	-0.198333	-0.019548	-0.059865	0.006109
907	22.392303	0.009125	0.353160	-10.123920	0.588600	-0.704478	0.314925	-0.196667	-0.015882	-0.052534	0.021991
908	22.401459	0.009155	1.059480	-9.653040	-0.117720	-0.705970	0.314925	-0.198333	0.003665	-0.057421	0.008552
909	22.410583	0.009125	1.177200	-9.417600	-0.353160	-0.705970	0.316418	-0.203333	-0.009774	-0.052534	0.008552
910	22.419708	0.009125	0.706320	-9.535320	-0.117720	-0.711940	0.310448	-0.193333	0.023213	-0.036652	0.006109
911	22.428864	0.009155	0.706320	-9.417600	0.000000	-0.731343	0.298507	-0.175000	-0.010996	-0.059865	0.018326
912	22.437988	0.009125	0.824040	-9.299880	0.824040	-0.734328	0.298507	-0.171667	0.031765	-0.043982	0.001222
913	22.447113	0.009125	0.824040	-9.299880	-0.117720	-0.728358	0.300000	-0.171667	-0.007330	-0.061087	0.003665
914	22.456268	0.009155	0.824040	-9.417600	0.470880	-0.735821	0.301493	-0.173333	0.030543	-0.040317	0.008552
915	22.465393	0.009125	0.588600	-9.653040	0.235440	-0.714925	0.311940	-0.200000	-0.034208	-0.056200	0.007330
916	22.474518	0.009125	0.588600	-9.535320	0.000000	-0.707463	0.319403	-0.206667	0.002443	-0.053756	0.002443
917	22.483673	0.009155	1.059480	-8.946720	0.117720	-0.710448	0.319403	-0.208333	0.012217	-0.042761	0.013439
918	22.493042	0.009369	0.706320	-9.299880	-0.235440	-0.707463	0.320896	-0.210000	-0.009774	-0.074526	0.000000
919	22.501953	0.008911	0.941760	-9.770760	0.000000	-0.710448	0.317910	-0.215000	0.030543	-0.058643	0.010996
920	22.511078	0.009125	0.588600	-9.653040	-0.235440	-0.708955	0.317910	-0.211667	-0.006109	-0.053756	0.004887
921	22.520203	0.009125	0.117720	-9.535320	0.353160	-0.711940	0.319403	-0.215000	-0.015882	-0.062308	0.010996
922	22.529358	0.009155	0.588600	-9.299880	0.470880	-0.711940	0.317910	-0.213333	0.000000	-0.061087	0.006109
923	22.538483	0.009125	0.588600	-9.182160	-0.353160	-0.714925	0.319403	-0.213333	0.004887	-0.040317	0.015882
924	22.547607	0.009125	0.235440	-9.653040	0.706320	-0.711940	0.320896	-0.216667	0.020769	-0.051313	0.002443
925	22.556763	0.009155	0.706320	-9.653040	0.235440	-0.714925	0.320896	-0.218333	0.039095	-0.053756	0.012217
926	22.565887	0.009125	0.824040	-9.299880	0.000000	-0.714925	0.322388	-0.221667	0.021991	-0.058643	0.008552
927	22.575012	0.009125	0.588600	-9.535320	0.000000	-0.714925	0.320896	-0.220000	0.035430	-0.036652	0.008552
928	22.584167	0.009155	1.294920	-9.299880	0.117720	-0.731343	0.311940	-0.201667	0.057421	-0.040317	0.010996
929	22.593292	0.009125	1.059480	-9.299880	1.059480	-0.720896	0.317910	-0.216667	0.028100	-0.051313	0.014661
930	22.602417	0.009125	0.470880	-9.535320	0.117720	-0.719403	0.320896	-0.225000	-0.001222	-0.058643	0.020769
931	22.611542	0.009125	1.294920	-9.299880	0.941760	-0.717910	0.322388	-0.225000	-0.020769	-0.054978	0.014661
932	22.620697	0.009155	0.706320	-9.299880	-0.824040	-0.717910	0.323881	-0.226667	0.013439	-0.035430	0.003665
933	22.629822	0.009125	0.706320	-9.535320	0.353160	-0.719403	0.325373	-0.226667	0.007330	-0.048869	0.010996
934	22.638947	0.009125	0.470880	-9.535320	0.000000	-0.720896	0.326866	-0.226667	0.045204	-0.053756	0.009774
935	22.648102	0.009155	1.412640	-8.946720	0.235440	-0.720896	0.325373	-0.230000	-0.002443	-0.058643	0.004887
936	22.657227	0.009125	0.706320	-9.182160	-0.588600	-0.723881	0.332836	-0.233333	-0.006109	-0.063530	-0.009774
937	22.666351	0.009125	1.059480	-10.241640	0.588600	-0.726866	0.325373	-0.233333	-0.028100	-0.063530	0.000000
938	22.675507	0.009155	1.177200	-9.653040	0.000000	-0.723881	0.325373	-0.231667	-0.023213	-0.067195	0.001222
939	22.684631	0.009125	0.824040	-9.299880	0.588600	-0.725373	0.326866	-0.235000	0.019548	-0.046426	0.002443
940	22.693756	0.009125	0.470880	-9.064440	-0.706320	-0.725373	0.326866	-0.236667	0.003665	-0.052534	0.000000
941	22.702911	0.009155	0.706320	-9.535320	0.000000	-0.728358	0.326866	-0.241667	-0.018326	-0.052534	0.009774
942	22.712036	0.009125	1.530360	-8.946720	0.117720	-0.728358	0.328358	-0.240000	-0.052534	-0.067195	0.014661
943	22.721191	0.009155	0.706320	-9.535320	0.353160	-0.731343	0.329851	-0.240000	-0.008552	-0.047647	0.008552
944	22.730316	0.009125	0.235440	-10.123920	-0.117720	-0.729851	0.329851	-0.243333	0.018326	-0.070860	0.009774
945	22.739441	0.009125	0.824040	-9.535320	-0.117720	-0.731343	0.331343	-0.243333	0.073304	-0.030543	0.013439
946	22.748596	0.009155	0.824040	-8.829000	-0.117720	-0.735821	0.331343	-0.243333	0.029322	-0.050091	-0.001222
947	22.757721	0.009125	0.588600	-9.535320	0.588600	-0.747761	0.317910	-0.225000	0.003665	-0.040317	0.008552
948	22.766846	0.009125	0.706320	-10.006200	0.588600	-0.741791	0.328358	-0.240000	-0.047647	-0.076969	0.034208
949	22.775970	0.009125	1.294920	-9.888480	-0.117720	-0.734328	0.332836	-0.245000	0.031765	-0.047647	-0.001222
950	22.785126	0.009155	0.706320	-8.593560	-0.706320	-0.738806	0.332836	-0.248333	0.008552	-0.069639	0.012217
951	22.794250	0.009125	1.294920	-9.064440	1.412640	-0.737313	0.335821	-0.248333	0.045204	-0.031765	0.012217
952	22.803375	0.009125	0.706320	-10.006200	1.177200	-0.741791	0.331343	-0.248333	-0.040317	-0.095295	0.029322
953	22.813019	0.009644	0.588600	-9.653040	-0.353160	-0.741791	0.338806	-0.248333	0.079412	0.018326	0.036652
954	22.821655	0.008636	1.059480	-8.946720	-0.117720	-0.744776	0.334328	-0.248333	0.047647	-0.048869	0.018326
955	22.830780	0.009125	0.706320	-9.064440	-0.117720	-0.743284	0.335821	-0.250000	0.008552	-0.063530	0.021991
956	22.839905	0.009125	0.235440	-10.123920	0.588600	-0.746269	0.337313	-0.253333	0.096517	-0.047647	-0.008552
957	22.849060	0.009155	0.706320	-10.006200	-0.117720	-0.747761	0.334328	-0.256667	0.014661	-0.052534	-0.001222
958	22.858185	0.009125	0.588600	-9.064440	0.117720	-0.747761	0.337313	-0.256667	0.065973	-0.039095	0.014661
959	22.867340	0.009155	0.588600	-9.535320	0.000000	-0.750746	0.338806	-0.255000	0.080634	-0.056200	0.003665
960	22.876465	0.009125	0.588600	-9.417600	0.000000	-0.744776	0.338806	-0.258333	-0.069639	-0.061087	0.012217
961	22.885620	0.009155	0.470880	-10.241640	-0.470880	-0.750746	0.337313	-0.261667	0.015882	-0.054978	0.013439
962	22.894745	0.009125	0.353160	-8.946720	0.941760	-0.749254	0.335821	-0.260000	-0.119730	-0.097738	0.040317
963	22.903900	0.009155	0.470880	-9.182160	-0.117720	-0.753731	0.340299	-0.260000	-0.106291	-0.063530	0.012217
964	22.913055	0.009155	0.824040	-10.241640	1.059480	-0.753731	0.341791	-0.261667	0.013439	-0.052534	-0.004887
965	22.922180	0.009125	0.235440	-9.653040	-0.117720	-0.771642	0.328358	-0.248333	-0.008552	-0.069639	0.009774
966	22.931335	0.009155	0.588600	-9.064440	0.117720	-0.761194	0.338806	-0.258333	0.024435	-0.073304	0.054978
967	22.940460	0.009125	0.941760	-9.182160	0.824040	-0.755224	0.343284	-0.263333	0.069639	-0.031765	0.020769
968	22.954163	0.013702	0.588600	-10.123920	2.354400	-0.759701	0.346269	-0.263333	0.084299	-0.032987	0.021991
969	22.963287	0.009125	0.470880	-10.006200	-0.117720	-0.758209	0.346269	-0.271667	0.037874	-0.070860	0.030543
970	22.972961	0.009674	0.706320	-9.299880	0.353160	-0.761194	0.346269	-0.265000	-0.072082	-0.076969	0.017104
971	22.981567	0.008606	0.470880	-9.299880	-0.235440	-0.762687	0.346269	-0.271667	-0.012217	-0.048869	0.021991
972	22.990692	0.009125	0.706320	-9.653040	0.117720	-0.764179	0.346269	-0.268333	0.152716	-0.028100	0.002443
973	22.999817	0.009125	0.235440	-9.417600	-0.235440	-0.762687	0.347761	-0.271667	0.070860	-0.043982	-0.006109
974	23.008972	0.009155	0.117720	-9.888480	-0.706320	-0.767164	0.347761	-0.271667	0.006109	0.100182	0.002443
975	23.018097	0.009125	0.941760	-9.653040	0.117720	-0.764179	0.349254	-0.270000	0.086743	-0.035430	-0.031765
976	23.027222	0.009125	0.353160	-9.653040	1.648080	-0.765672	0.350746	-0.270000	-0.085521	-0.223577	-0.021991
977	23.036346	0.009125	0.235440	-9.653040	-1.059480	-0.768657	0.350746	-0.273333	0.015882	-0.067195	-0.009774
978	23.045471	0.009125	0.235440	-9.770760	1.177200	-0.768657	0.349254	-0.275000	0.008552	-0.041539	-0.001222
979	23.054626	0.009155	0.706320	-9.653040	0.470880	-0.770149	0.350746	-0.273333	-0.065973	-0.070860	-0.013439
980	23.063751	0.009125	0.353160	-9.417600	0.706320	-0.770149	0.352239	-0.273333	-0.015882	-0.068417	0.002443
981	23.072876	0.009125	0.117720	-9.064440	-0.117720	-0.771642	0.355224	-0.275000	-0.074526	-0.080634	0.017104
982	23.082001	0.009125	0.235440	-9.417600	-0.235440	-0.771642	0.353731	-0.275000	0.030543	-0.061087	0.017104
983	23.091156	0.009155	0.235440	-9.535320	0.824040	-0.771642	0.353731	-0.278333	0.030543	-0.034208	-0.009774
984	23.100281	0.009125	0.235440	-9.417600	0.117720	-0.783582	0.344776	-0.258333	-0.031765	-0.068417	0.021991
985	23.109406	0.009125	0.235440	-9.535320	0.000000	-0.777612	0.352239	-0.273333	0.108734	-0.036652	-0.007330
986	23.118561	0.009155	0.000000	-9.299880	-0.470880	-0.774627	0.356716	-0.278333	-0.056200	-0.068417	0.021991
987	23.127686	0.009125	0.353160	-9.653040	-0.117720	-0.773134	0.356716	-0.280000	0.083078	-0.020769	-0.007330
988	23.136810	0.009125	0.824040	-9.770760	0.588600	-0.774627	0.358209	-0.278333	0.013439	-0.043982	-0.004887
989	23.145935	0.009125	0.117720	-9.417600	0.235440	-0.774627	0.356716	-0.280000	-0.013439	-0.050091	0.015882
990	23.155060	0.009125	0.117720	-9.770760	0.000000	-0.774627	0.358209	-0.281667	0.045204	-0.064752	-0.002443
991	23.164215	0.009155	0.470880	-9.064440	0.117720	-0.776119	0.356716	-0.280000	-0.021991	-0.065973	0.019548
992	23.173340	0.009125	0.706320	-9.299880	0.117720	-0.776119	0.361194	-0.280000	0.025656	-0.042761	0.015882
993	23.182465	0.009125	0.235440	-10.006200	0.000000	-0.774627	0.359701	-0.285000	0.032987	-0.026878	0.010996
994	23.191589	0.009125	0.470880	-10.123920	0.000000	-0.776119	0.359701	-0.280000	-0.008552	-0.063530	0.041539
995	23.200745	0.009155	0.353160	-9.417600	0.470880	-0.777612	0.359701	-0.278333	0.157603	-0.020769	0.002443
996	23.209869	0.009125	0.117720	-9.182160	0.235440	-0.780597	0.359701	-0.285000	0.040317	-0.062308	-0.006109
997	23.218994	0.009125	0.117720	-9.182160	0.353160	-0.779104	0.362687	-0.286667	0.056200	-0.042761	-0.041539
998	23.228119	0.009125	0.117720	-9.417600	0.000000	-0.777612	0.359701	-0.285000	0.041539	-0.043982	-0.023213
999	23.237244	0.009125	0.235440	-9.064440	0.824040	-0.780597	0.361194	-0.286667	-0.086743	-0.058643	0.003665
1000	23.246368	0.009125	0.117720	-9.299880	0.235440	-0.782090	0.364179	-0.283333	-0.010996	-0.045204	0.009774
1001	23.255524	0.009155	-0.353160	-9.299880	0.117720	-0.780597	0.362687	-0.291667	-0.054978	-0.072082	0.017104
1002	23.264648	0.009125	0.000000	-9.888480	-0.235440	-0.782090	0.361194	-0.283333	-0.070860	-0.073304	0.025656
1003	23.273773	0.009125	0.353160	-9.417600	-0.353160	-0.795522	0.350746	-0.273333	-0.029322	-0.047647	0.015882
1004	23.282898	0.009125	0.235440	-9.182160	0.000000	-0.786567	0.358209	-0.285000	0.009774	-0.052534	0.002443
1005	23.292908	0.010010	0.000000	-9.653040	0.000000	-0.782090	0.359701	-0.286667	0.035430	-0.051313	0.000000
1006	23.301178	0.008270	0.117720	-9.417600	0.706320	-0.785075	0.367164	-0.290000	-0.035430	-0.065973	0.023213
1007	23.310303	0.009125	0.353160	-9.417600	0.000000	-0.783582	0.359701	-0.293333	-0.001222	-0.046426	0.023213
1008	23.319427	0.009125	0.117720	-9.535320	-0.117720	-0.780597	0.362687	-0.291667	0.007330	-0.041539	0.021991
1009	23.328552	0.009125	0.000000	-9.888480	0.588600	-0.785075	0.362687	-0.291667	-0.001222	-0.061087	0.015882
1010	23.337677	0.009125	0.117720	-9.653040	0.470880	-0.785075	0.362687	-0.293333	0.050091	-0.063530	0.013439
1011	23.346832	0.009155	0.353160	-9.535320	0.117720	-0.791045	0.364179	-0.293333	0.017104	-0.063530	0.010996
1012	23.355957	0.009125	0.235440	-9.182160	0.470880	-0.786567	0.362687	-0.293333	-0.013439	-0.054978	-0.002443
1013	23.365082	0.009125	0.353160	-9.653040	-0.353160	-0.785075	0.361194	-0.295000	0.039095	-0.062308	0.000000
1014	23.374237	0.009155	0.117720	-9.653040	0.235440	-0.786567	0.364179	-0.300000	-0.036652	-0.062308	0.003665
1015	23.383362	0.009125	0.235440	-9.653040	0.588600	-0.789552	0.361194	-0.296667	0.029322	-0.053756	0.008552
1016	23.392517	0.009155	0.117720	-9.653040	0.353160	-0.786567	0.362687	-0.296667	-0.075747	-0.078191	0.030543
1017	23.401642	0.009125	0.353160	-9.653040	-0.235440	-0.788060	0.364179	-0.298333	-0.020769	-0.067195	-0.003665
1018	23.410767	0.009125	0.353160	-9.888480	-0.353160	-0.786567	0.362687	-0.296667	0.017104	-0.048869	0.015882
1019	23.419891	0.009125	0.000000	-9.653040	0.353160	-0.792537	0.361194	-0.298333	0.014661	-0.052534	0.007330
1020	23.429047	0.009155	-0.117720	-9.182160	0.706320	-0.792537	0.361194	-0.303333	0.007330	-0.050091	0.004887
1021	23.438171	0.009125	0.353160	-9.064440	1.530360	-0.804478	0.349254	-0.283333	0.042761	-0.050091	0.008552
1022	23.447296	0.009125	0.235440	-9.299880	0.117720	-0.795522	0.356716	-0.290000	0.040317	-0.045204	0.003665
1023	23.456451	0.009155	-0.353160	-9.888480	-0.235440	-0.797015	0.364179	-0.300000	0.006109	-0.063530	-0.006109
1024	23.465576	0.009125	0.117720	-9.653040	-0.353160	-0.798507	0.361194	-0.303333	-0.015882	-0.042761	0.004887
1025	23.474701	0.009125	0.706320	-9.653040	0.117720	-0.792537	0.361194	-0.300000	-0.007330	-0.062308	0.017104
1026	23.483856	0.009155	0.235440	-9.888480	0.235440	-0.794030	0.362687	-0.303333	-0.101404	-0.076969	0.020769
1027	23.492981	0.009125	0.000000	-9.417600	-0.824040	-0.795522	0.362687	-0.303333	-0.021991	-0.065973	0.001222
1028	23.502106	0.009125	0.117720	-9.182160	0.117720	-0.798507	0.361194	-0.300000	-0.019548	-0.046426	0.018326
1029	23.511230	0.009125	0.000000	-8.829000	0.353160	-0.795522	0.359701	-0.301667	0.015882	-0.048869	0.001222
1030	23.520355	0.009125	0.000000	-9.535320	0.588600	-0.797015	0.359701	-0.303333	0.002443	-0.061087	-0.008552
1031	23.529510	0.009155	0.000000	-9.770760	0.000000	-0.800000	0.361194	-0.301667	-0.043982	-0.061087	0.031765
1032	23.538635	0.009125	0.353160	-9.299880	-0.235440	-0.797015	0.364179	-0.308333	-0.050091	-0.074526	0.018326
1033	23.547760	0.009125	0.353160	-9.770760	0.588600	-0.797015	0.362687	-0.303333	0.000000	-0.062308	0.001222
1034	23.556885	0.009125	0.000000	-10.006200	-0.117720	-0.801493	0.364179	-0.301667	-0.013439	-0.052534	0.000000
1035	23.566040	0.009155	0.000000	-9.770760	0.588600	-0.798507	0.361194	-0.305000	-0.064752	-0.087965	0.035430
1036	23.575165	0.009125	0.353160	-9.064440	0.588600	-0.804478	0.365672	-0.305000	-0.025656	-0.058643	0.029322
1037	23.584290	0.009125	0.235440	-9.064440	0.353160	-0.801493	0.362687	-0.308333	-0.008552	-0.052534	0.030543
1038	23.593414	0.009125	0.117720	-9.535320	0.117720	-0.804478	0.362687	-0.310000	0.013439	-0.056200	0.017104
1039	23.602570	0.009155	0.117720	-10.241640	-0.706320	-0.804478	0.359701	-0.305000	0.000000	-0.062308	0.012217
1040	23.611725	0.009155	0.235440	-10.006200	0.706320	-0.816418	0.350746	-0.290000	-0.042761	-0.074526	0.029322
1041	23.620819	0.009094	0.000000	-9.182160	-0.353160	-0.807463	0.358209	-0.301667	-0.017104	-0.069639	0.013439
1042	23.629944	0.009125	0.000000	-9.417600	0.470880	-0.805970	0.362687	-0.303333	0.043982	-0.043982	-0.017104
1043	23.639099	0.009155	0.235440	-9.182160	0.824040	-0.808955	0.362687	-0.306667	-0.026878	-0.058643	-0.007330
1044	23.648224	0.009125	0.353160	-9.770760	-0.824040	-0.808955	0.362687	-0.306667	-0.059865	-0.074526	0.018326
1045	23.657349	0.009125	-0.117720	-9.299880	0.824040	-0.808955	0.361194	-0.308333	-0.061087	-0.062308	0.014661
1046	23.666504	0.009155	0.117720	-10.006200	-0.353160	-0.810448	0.361194	-0.311667	-0.083078	-0.084299	0.025656
1047	23.675629	0.009125	0.235440	-9.888480	0.353160	-0.810448	0.359701	-0.308333	-0.010996	-0.070860	0.020769
1048	23.684753	0.009125	0.117720	-9.417600	0.117720	-0.808955	0.362687	-0.310000	-0.139277	-0.070860	0.014661
1049	23.693878	0.009125	-0.117720	-9.182160	-0.941760	-0.810448	0.362687	-0.310000	-0.039095	-0.062308	0.017104
1050	23.703033	0.009155	0.117720	-9.417600	0.824040	-0.811940	0.362687	-0.310000	-0.010996	-0.048869	0.021991
1051	23.712158	0.009125	0.470880	-9.888480	-0.235440	-0.813433	0.362687	-0.311667	-0.085521	-0.091630	0.040317
1052	23.721313	0.009155	-0.117720	-9.182160	-0.470880	-0.811940	0.362687	-0.310000	0.017104	-0.053756	0.006109
1053	23.730438	0.009125	-0.235440	-9.182160	0.941760	-0.814925	0.362687	-0.310000	0.125838	-0.048869	0.009774
1054	23.739563	0.009125	0.000000	-9.535320	-0.706320	-0.814925	0.362687	-0.310000	0.075747	-0.028100	0.012217
1055	23.748688	0.009125	0.235440	-9.770760	0.941760	-0.814925	0.364179	-0.313333	0.141721	-0.003665	0.010996
1056	23.757812	0.009125	-0.588600	-9.535320	0.117720	-0.816418	0.362687	-0.310000	0.056200	0.006109	0.031765
1057	23.766968	0.009155	-0.235440	-9.653040	0.588600	-0.816418	0.364179	-0.311667	0.105069	-0.046426	-0.007330
1058	23.776093	0.009125	0.353160	-9.182160	-0.117720	-0.822388	0.356716	-0.298333	0.111177	-0.020769	-0.036652
1059	23.785217	0.009125	-0.353160	-9.653040	0.470880	-0.822388	0.361194	-0.305000	-0.008552	-0.109956	-0.021991
1060	23.794342	0.009125	-0.353160	-9.299880	0.588600	-0.820896	0.364179	-0.310000	-0.014661	-0.051313	-0.006109
1061	23.803467	0.009125	-0.117720	-9.770760	0.470880	-0.820896	0.364179	-0.311667	-0.076969	-0.111177	0.012217
1062	23.812622	0.009155	0.117720	-9.535320	-0.117720	-0.820896	0.362687	-0.310000	-0.057421	-0.072082	0.006109
1063	23.821747	0.009125	0.000000	-9.064440	1.059480	-0.819403	0.365672	-0.311667	-0.030543	-0.052534	0.009774
1064	23.830872	0.009125	-0.353160	-9.182160	-0.117720	-0.823881	0.361194	-0.313333	-0.105069	-0.007330	0.040317
1065	23.839996	0.009125	0.000000	-9.653040	0.117720	-0.820896	0.362687	-0.311667	0.026878	0.009774	0.035430
1066	23.849152	0.009155	-0.235440	-9.535320	0.824040	-0.822388	0.362687	-0.315000	0.089186	-0.051313	0.004887
1067	23.858276	0.009125	-0.353160	-8.829000	-0.353160	-0.823881	0.365672	-0.313333	-0.070860	-0.079412	0.019548
1068	23.867401	0.009125	0.000000	-9.535320	-0.117720	-0.828358	0.365672	-0.311667	-0.003665	-0.105069	0.006109
1069	23.876526	0.009125	0.000000	-9.535320	0.235440	-0.826866	0.365672	-0.311667	0.026878	-0.053756	0.009774
1070	23.885681	0.009155	0.000000	-9.770760	0.588600	-0.826866	0.364179	-0.310000	0.075747	-0.029322	0.003665
1071	23.894806	0.009125	-0.117720	-9.535320	0.470880	-0.828358	0.364179	-0.311667	-0.054978	-0.086743	0.017104
1072	23.903931	0.009125	-0.235440	-9.417600	-0.706320	-0.826866	0.364179	-0.311667	-0.047647	-0.075747	0.012217
1073	23.913055	0.009125	0.235440	-9.653040	-0.235440	-0.826866	0.364179	-0.313333	0.040317	-0.058643	0.004887
1074	23.922211	0.009155	0.117720	-9.417600	0.470880	-0.829851	0.364179	-0.311667	0.018326	-0.053756	0.004887
1075	23.931335	0.009125	-0.235440	-9.653040	0.000000	-0.832836	0.364179	-0.311667	0.034208	-0.063530	0.015882
1076	23.940460	0.009125	-0.353160	-9.888480	0.706320	-0.832836	0.368657	-0.313333	0.000000	-0.051313	0.008552
1077	23.949585	0.009125	-0.117720	-9.535320	0.470880	-0.843284	0.353731	-0.295000	-0.031765	-0.047647	0.013439
1078	23.958740	0.009155	0.000000	-9.417600	0.117720	-0.837313	0.361194	-0.306667	-0.010996	-0.072082	0.006109
1079	23.967865	0.009125	0.000000	-9.535320	0.353160	-0.832836	0.364179	-0.311667	0.001222	-0.062308	0.039095
1080	23.976990	0.009125	-0.470880	-9.299880	0.000000	-0.834328	0.364179	-0.308333	-0.012217	-0.046426	0.031765
1081	23.986115	0.009125	0.000000	-9.770760	1.059480	-0.834328	0.364179	-0.313333	-0.007330	-0.063530	0.024435
1082	23.995270	0.009155	0.000000	-9.182160	0.470880	-0.834328	0.365672	-0.311667	-0.045204	-0.069639	0.017104
1083	24.004395	0.009125	0.000000	-9.535320	-0.588600	-0.832836	0.365672	-0.313333	0.048869	-0.189368	0.020769
1084	24.013519	0.009125	-0.235440	-9.299880	0.000000	-0.834328	0.365672	-0.311667	0.042761	-0.050091	0.002443
1085	24.022644	0.009125	0.000000	-9.653040	0.706320	-0.838806	0.365672	-0.313333	0.010996	-0.045204	0.001222
1086	24.031799	0.009155	0.235440	-9.535320	0.117720	-0.840299	0.364179	-0.311667	-0.021991	-0.056200	0.017104
1087	24.040924	0.009125	-0.235440	-9.299880	0.000000	-0.841791	0.364179	-0.311667	-0.036652	-0.068417	0.014661
1088	24.050049	0.009125	0.117720	-9.299880	0.353160	-0.837313	0.364179	-0.311667	0.074526	-0.026878	0.021991
1089	24.059174	0.009125	0.235440	-9.535320	0.235440	-0.840299	0.364179	-0.311667	0.109956	-0.014661	0.010996
