# FOX Logger (IMU file)
# (c) HiKoB 2011-2012
#
# File created from file HIGPS00.RAW
#
# File format:
# id	t	dt	ax	ay	az	mx	my	mz	gx	gy	gz
#
# Units:
#	Time: s
#	Acceleration: m.s^-2
#	Magnetic field: gauss
#	Rotation speed: rad.s^-1
#
1	14.103882	14.103882	0.353160	-9.417600	-0.117720	-1.138806	0.374627	-0.210000	-0.001222	0.052534	0.001222
2	14.113007	0.009125	0.353160	-9.299880	0.117720	-1.149254	0.371642	-0.193333	-0.007330	0.059865	0.003665
3	14.122131	0.009125	0.235440	-9.417600	0.000000	-1.158209	0.367164	-0.191667	-0.008552	0.051313	-0.001222
4	14.131256	0.009125	0.470880	-9.653040	-0.235440	-1.153731	0.365672	-0.190000	-0.004887	0.052534	0.003665
5	14.140411	0.009155	0.235440	-8.946720	0.470880	-1.156716	0.368657	-0.193333	-0.113621	0.026878	0.029322
6	14.149536	0.009125	1.059480	-8.946720	6.003720	-1.159701	0.367164	-0.188333	0.282220	0.031765	0.013439
7	14.158661	0.009125	0.706320	-9.417600	6.945480	-1.156716	0.367164	-0.190000	-0.015882	-0.047647	0.040317
8	14.167786	0.009125	-0.235440	-10.006200	8.122680	-1.159701	0.364179	-0.188333	0.039095	-0.111177	0.043982
9	14.176941	0.009155	0.824040	-8.711280	3.060720	-1.150746	0.365672	-0.186667	0.006109	-0.136834	0.029322
10	14.186066	0.009125	0.706320	-9.299880	1.765800	-1.156716	0.367164	-0.193333	0.056200	-0.152716	0.010996
11	14.195221	0.009155	0.117720	-9.888480	-1.648080	-1.153731	0.368657	-0.198333	0.140499	-0.135612	0.001222
12	14.204346	0.009125	0.235440	-9.535320	-1.765800	-1.161194	0.371642	-0.193333	0.094073	-0.146608	0.000000
13	14.213470	0.009125	1.177200	-9.417600	-0.588600	-1.161194	0.368657	-0.191667	0.149051	-0.119730	0.008552
14	14.222595	0.009125	0.353160	-9.299880	-1.765800	-1.156716	0.368657	-0.191667	-0.010996	-0.123395	0.006109
15	14.231720	0.009125	0.117720	-9.770760	0.000000	-1.135821	0.382090	-0.213333	-0.015882	-0.122173	0.021991
16	14.240875	0.009155	0.353160	-9.299880	0.235440	-1.132836	0.382090	-0.216667	0.078191	-0.112399	0.006109
17	14.250000	0.009125	0.235440	-9.417600	-1.177200	-1.131343	0.383582	-0.220000	0.014661	-0.112399	0.002443
18	14.259125	0.009125	0.000000	-9.888480	-1.530360	-1.123881	0.388060	-0.220000	0.146608	-0.112399	0.008552
19	14.268250	0.009125	0.941760	-9.182160	-1.883520	-1.141791	0.374627	-0.203333	0.030543	-0.097738	-0.003665
20	14.277374	0.009125	0.941760	-9.535320	-2.001240	-1.129851	0.382090	-0.216667	0.010996	-0.089186	-0.009774
21	14.286499	0.009125	0.117720	-9.770760	-0.941760	-1.132836	0.385075	-0.216667	0.028100	-0.089186	-0.001222
22	14.295654	0.009155	0.706320	-9.417600	-0.706320	-1.131343	0.380597	-0.215000	0.006109	-0.079412	0.002443
23	14.304779	0.009125	0.588600	-9.653040	-1.059480	-1.131343	0.383582	-0.218333	-0.034208	-0.070860	0.009774
24	14.313904	0.009125	0.117720	-9.653040	-2.118960	-1.132836	0.383582	-0.225000	0.024435	-0.048869	-0.002443
25	14.323059	0.009155	0.470880	-9.417600	-1.883520	-1.132836	0.383582	-0.218333	0.020769	-0.035430	-0.003665
26	14.332184	0.009125	0.706320	-9.535320	-1.412640	-1.132836	0.386567	-0.223333	0.007330	-0.034208	0.004887
27	14.341309	0.009125	0.235440	-9.653040	-1.177200	-1.125373	0.385075	-0.221667	-0.007330	-0.025656	0.001222
28	14.350464	0.009155	0.353160	-9.417600	-0.588600	-1.131343	0.383582	-0.218333	0.006109	-0.023213	-0.001222
29	14.359589	0.009125	0.470880	-9.417600	-0.588600	-1.132836	0.383582	-0.220000	0.032987	0.000000	0.001222
30	14.368713	0.009125	0.117720	-9.417600	-1.648080	-1.131343	0.385075	-0.221667	-0.002443	-0.014661	-0.001222
31	14.377838	0.009125	0.588600	-9.417600	-1.648080	-1.126866	0.383582	-0.221667	-0.004887	-0.001222	-0.006109
32	14.386993	0.009155	0.470880	-9.417600	-1.648080	-1.132836	0.383582	-0.221667	-0.006109	0.024435	-0.001222
33	14.396118	0.009125	0.000000	-9.535320	-1.059480	-1.132836	0.382090	-0.223333	-0.001222	0.028100	-0.006109
34	14.405243	0.009125	0.235440	-9.535320	-0.470880	-1.132836	0.380597	-0.218333	-0.004887	0.029322	0.007330
35	14.414398	0.009155	0.235440	-9.417600	-0.941760	-1.132836	0.382090	-0.220000	-0.008552	0.018326	-0.009774
36	14.423523	0.009125	0.117720	-9.653040	-1.648080	-1.134328	0.382090	-0.221667	-0.003665	0.039095	-0.013439
37	14.432648	0.009125	0.470880	-9.064440	1.294920	-1.131343	0.386567	-0.225000	-0.239459	0.009774	0.059865
38	14.441772	0.009125	1.412640	-9.535320	4.591080	-1.147761	0.373134	-0.206667	0.266337	0.030543	0.019548
39	14.450897	0.009125	0.000000	-9.888480	6.827760	-1.140299	0.379104	-0.218333	-0.014661	-0.020769	0.045204
40	14.460022	0.009125	-0.235440	-9.417600	8.240400	-1.134328	0.385075	-0.221667	0.007330	-0.090408	0.045204
41	14.469177	0.009155	1.177200	-8.593560	3.178440	-1.134328	0.383582	-0.225000	-0.114843	-0.138056	0.041539
42	14.478302	0.009125	0.706320	-9.064440	1.059480	-1.131343	0.383582	-0.220000	0.024435	-0.133169	0.012217
43	14.487427	0.009125	0.117720	-9.535320	-1.765800	-1.129851	0.383582	-0.220000	0.080634	-0.128282	0.000000
44	14.496582	0.009155	0.470880	-9.535320	-2.354400	-1.126866	0.382090	-0.223333	0.041539	-0.116064	0.000000
45	14.505707	0.009125	0.824040	-9.653040	-1.530360	-1.129851	0.386567	-0.220000	0.073304	-0.100182	-0.006109
46	14.514832	0.009125	0.353160	-9.770760	-2.707560	-1.134328	0.383582	-0.221667	-0.015882	-0.080634	0.002443
47	14.523987	0.009155	0.235440	-9.888480	-1.648080	-1.132836	0.383582	-0.220000	-0.032987	-0.079412	0.004887
48	14.533112	0.009125	0.588600	-9.535320	-1.177200	-1.131343	0.382090	-0.221667	0.076969	-0.039095	-0.004887
49	14.542236	0.009125	0.470880	-9.535320	-1.883520	-1.132836	0.383582	-0.226667	0.001222	-0.034208	0.002443
50	14.551392	0.009155	0.117720	-9.770760	-2.236680	-1.132836	0.383582	-0.220000	-0.009774	-0.029322	0.000000
51	14.560516	0.009125	0.588600	-9.299880	-2.707560	-1.132836	0.382090	-0.225000	-0.013439	-0.006109	-0.009774
52	14.569641	0.009125	0.824040	-9.535320	-2.707560	-1.134328	0.382090	-0.220000	0.000000	0.009774	-0.009774
53	14.578796	0.009155	0.117720	-9.535320	-2.354400	-1.137313	0.389552	-0.216667	0.020769	0.023213	-0.003665
54	14.587921	0.009125	0.706320	-8.711280	2.589840	-1.131343	0.385075	-0.225000	0.035430	0.037874	0.025656
55	14.597046	0.009125	0.353160	-9.653040	4.708800	-1.132836	0.385075	-0.223333	-0.039095	-0.001222	0.036652
56	14.606171	0.009125	0.117720	-9.417600	7.063200	-1.149254	0.373134	-0.208333	-0.059865	-0.047647	0.063530
57	14.615295	0.009125	1.177200	-9.064440	4.120200	-1.135821	0.380597	-0.218333	-0.007330	-0.087965	0.037874
58	14.624420	0.009125	0.824040	-9.653040	2.707560	-1.132836	0.380597	-0.225000	0.059865	-0.109956	0.017104
59	14.633545	0.009125	0.000000	-9.417600	-0.941760	-1.132836	0.383582	-0.221667	0.078191	-0.127060	-0.008552
60	14.642700	0.009155	0.588600	-9.535320	-2.001240	-1.135821	0.383582	-0.225000	-0.009774	-0.109956	0.004887
61	14.651825	0.009125	0.470880	-9.535320	-2.943000	-1.132836	0.383582	-0.221667	0.006109	-0.095295	-0.006109
62	14.660950	0.009125	0.353160	-9.417600	-3.531600	-1.132836	0.385075	-0.225000	-0.001222	-0.069639	-0.008552
63	14.670074	0.009125	0.941760	-9.653040	-2.354400	-1.132836	0.383582	-0.223333	0.046426	-0.040317	0.000000
64	14.679199	0.009125	0.588600	-9.417600	-2.236680	-1.131343	0.385075	-0.221667	0.012217	-0.040317	-0.012217
65	14.688324	0.009125	0.117720	-9.888480	-1.648080	-1.131343	0.383582	-0.223333	-0.029322	-0.023213	0.003665
66	14.697479	0.009155	0.470880	-9.535320	-2.354400	-1.134328	0.383582	-0.221667	0.014661	-0.007330	-0.003665
67	14.706604	0.009125	0.470880	-8.829000	1.177200	-1.134328	0.382090	-0.218333	-0.012217	-0.009774	0.020769
68	14.715729	0.009125	0.000000	-9.182160	2.472120	-1.134328	0.380597	-0.221667	0.046426	-0.009774	0.017104
69	14.724854	0.009125	0.000000	-9.535320	3.413880	-1.134328	0.382090	-0.221667	-0.048869	-0.056200	0.029322
70	14.734344	0.009491	0.353160	-9.535320	2.943000	-1.129851	0.376119	-0.225000	0.031765	-0.070860	0.020769
71	14.743134	0.008789	0.588600	-9.182160	2.118960	-1.132836	0.385075	-0.221667	-0.008552	-0.102625	0.015882
72	14.752258	0.009125	0.470880	-9.535320	0.470880	-1.131343	0.385075	-0.223333	0.061087	-0.101404	0.001222
73	14.761383	0.009125	0.235440	-9.417600	-0.706320	-1.135821	0.383582	-0.220000	-0.019548	-0.085521	0.009774
74	14.770538	0.009155	0.470880	-9.770760	-0.941760	-1.132836	0.385075	-0.225000	-0.008552	-0.096517	0.001222
75	14.779663	0.009125	0.706320	-9.299880	-2.354400	-1.146269	0.371642	-0.206667	0.034208	-0.062308	-0.003665
76	14.788788	0.009125	0.470880	-9.535320	-2.001240	-1.134328	0.382090	-0.216667	0.025656	-0.051313	-0.002443
77	14.797913	0.009125	0.117720	-9.417600	-1.530360	-1.135821	0.386567	-0.223333	0.013439	-0.039095	0.006109
78	14.807037	0.009125	0.235440	-9.535320	-0.824040	-1.129851	0.385075	-0.223333	-0.012217	-0.035430	-0.004887
79	14.816193	0.009155	0.353160	-9.417600	-0.588600	-1.131343	0.379104	-0.223333	0.008552	-0.036652	0.004887
80	14.825317	0.009125	0.470880	-9.299880	-0.470880	-1.131343	0.383582	-0.223333	-0.023213	-0.035430	0.009774
81	14.834442	0.009125	1.059480	-9.417600	0.824040	-1.129851	0.383582	-0.225000	0.028100	-0.029322	0.015882
82	14.843597	0.009155	0.235440	-9.299880	0.824040	-1.134328	0.383582	-0.225000	-0.020769	-0.051313	0.010996
83	14.852722	0.009125	0.353160	-9.417600	2.472120	-1.134328	0.383582	-0.220000	0.001222	-0.051313	0.014661
84	14.861847	0.009125	0.353160	-9.417600	1.648080	-1.134328	0.383582	-0.225000	0.015882	-0.063530	0.017104
85	14.871002	0.009155	0.470880	-9.417600	0.941760	-1.132836	0.383582	-0.225000	0.015882	-0.072082	0.014661
86	14.880127	0.009125	0.353160	-9.417600	0.000000	-1.131343	0.385075	-0.225000	0.015882	-0.079412	0.012217
87	14.889252	0.009125	0.706320	-9.417600	0.000000	-1.134328	0.382090	-0.226667	0.000000	-0.074526	0.009774
88	14.898376	0.009125	0.353160	-9.770760	-0.470880	-1.126866	0.385075	-0.225000	0.018326	-0.083078	-0.001222
89	14.907532	0.009155	0.353160	-9.417600	-1.412640	-1.129851	0.386567	-0.225000	0.007330	-0.063530	0.000000
90	14.916656	0.009125	0.588600	-9.535320	-1.177200	-1.131343	0.386567	-0.220000	0.021991	-0.053756	0.002443
91	14.925781	0.009125	0.353160	-9.417600	-0.824040	-1.132836	0.383582	-0.225000	0.000000	-0.057421	0.003665
92	14.934937	0.009155	0.353160	-9.417600	-0.353160	-1.132836	0.383582	-0.220000	-0.001222	-0.057421	-0.001222
93	14.944061	0.009125	0.235440	-9.417600	-0.235440	-1.132836	0.382090	-0.221667	0.014661	-0.035430	0.013439
94	14.953186	0.009125	0.235440	-9.299880	-0.941760	-1.147761	0.371642	-0.206667	-0.013439	-0.045204	0.007330
95	14.962311	0.009125	0.353160	-9.182160	-0.235440	-1.138806	0.380597	-0.218333	0.003665	-0.034208	0.013439
96	14.971436	0.009125	0.353160	-9.417600	0.000000	-1.134328	0.383582	-0.220000	0.004887	-0.040317	0.009774
97	14.980591	0.009155	0.117720	-9.535320	0.588600	-1.126866	0.382090	-0.225000	-0.009774	-0.053756	0.003665
98	14.989716	0.009125	0.588600	-9.535320	0.706320	-1.134328	0.386567	-0.221667	0.013439	-0.047647	0.009774
99	14.998840	0.009125	0.353160	-9.535320	0.588600	-1.134328	0.385075	-0.221667	-0.009774	-0.065973	0.012217
100	15.007965	0.009125	0.353160	-9.417600	0.941760	-1.132836	0.383582	-0.221667	0.012217	-0.050091	0.017104
101	15.017090	0.009125	0.117720	-9.417600	0.470880	-1.131343	0.382090	-0.220000	0.000000	-0.058643	0.003665
102	15.026245	0.009155	0.235440	-9.535320	0.353160	-1.134328	0.385075	-0.225000	0.002443	-0.069639	0.004887
103	15.035370	0.009125	0.353160	-9.417600	-0.353160	-1.132836	0.383582	-0.223333	0.010996	-0.078191	0.001222
104	15.044495	0.009125	0.470880	-9.299880	-0.588600	-1.131343	0.383582	-0.225000	0.004887	-0.070860	0.006109
105	15.054321	0.009827	0.588600	-9.535320	-0.117720	-1.129851	0.389552	-0.223333	0.006109	-0.070860	0.010996
106	15.062744	0.008423	0.824040	-9.535320	-0.117720	-1.135821	0.383582	-0.221667	0.013439	-0.051313	0.010996
107	15.071869	0.009125	0.588600	-9.653040	-0.353160	-1.134328	0.383582	-0.220000	0.013439	-0.069639	0.000000
108	15.081024	0.009155	0.235440	-9.535320	-0.235440	-1.129851	0.385075	-0.225000	-0.003665	-0.068417	0.004887
109	15.090149	0.009125	0.117720	-9.535320	-0.235440	-1.132836	0.382090	-0.223333	0.002443	-0.052534	0.006109
110	15.099274	0.009125	0.235440	-9.417600	-0.588600	-1.128358	0.385075	-0.220000	0.003665	-0.050091	0.008552
111	15.108429	0.009155	0.353160	-9.417600	-0.470880	-1.129851	0.385075	-0.223333	-0.006109	-0.054978	0.002443
112	15.117554	0.009125	0.353160	-9.535320	-0.117720	-1.146269	0.373134	-0.210000	0.012217	-0.051313	0.008552
113	15.126678	0.009125	0.353160	-9.417600	-0.117720	-1.138806	0.382090	-0.218333	0.006109	-0.056200	0.006109
114	15.135803	0.009125	0.353160	-9.417600	-0.235440	-1.131343	0.388060	-0.223333	0.015882	-0.040317	0.008552
115	15.144928	0.009125	0.353160	-9.535320	-0.235440	-1.131343	0.385075	-0.221667	0.003665	-0.037874	0.010996
116	15.154083	0.009155	0.353160	-9.417600	-0.117720	-1.129851	0.382090	-0.221667	-0.002443	-0.046426	0.009774
117	15.163208	0.009125	0.470880	-9.417600	-0.117720	-1.134328	0.383582	-0.218333	0.013439	-0.051313	0.002443
118	15.172333	0.009125	0.235440	-9.535320	0.470880	-1.134328	0.383582	-0.220000	0.002443	-0.046426	0.017104
119	15.181488	0.009155	0.706320	-9.417600	0.588600	-1.131343	0.385075	-0.223333	0.001222	-0.058643	0.012217
120	15.190613	0.009125	0.470880	-9.417600	0.470880	-1.131343	0.385075	-0.223333	0.013439	-0.053756	0.010996
121	15.199738	0.009125	0.235440	-9.417600	0.588600	-1.132836	0.383582	-0.226667	0.004887	-0.064752	0.014661
122	15.208893	0.009155	0.470880	-9.417600	0.235440	-1.132836	0.383582	-0.221667	-0.146608	-0.065973	0.012217
123	15.218018	0.009125	0.470880	-9.535320	0.235440	-1.132836	0.388060	-0.220000	-0.001222	-0.065973	0.014661
124	15.227142	0.009125	0.235440	-9.417600	-0.117720	-1.132836	0.386567	-0.225000	0.015882	-0.061087	0.007330
125	15.236298	0.009155	0.117720	-9.417600	-0.588600	-1.132836	0.385075	-0.218333	-0.003665	-0.058643	0.008552
126	15.245422	0.009125	0.235440	-9.535320	-0.470880	-1.131343	0.385075	-0.216667	0.006109	-0.063530	0.000000
127	15.254547	0.009125	0.470880	-9.417600	0.000000	-1.132836	0.383582	-0.220000	0.017104	-0.056200	0.007330
128	15.263702	0.009155	0.824040	-9.417600	0.117720	-1.131343	0.385075	-0.225000	0.000000	-0.068417	0.018326
129	15.272827	0.009125	0.117720	-9.299880	0.000000	-1.131343	0.383582	-0.225000	0.002443	-0.070860	0.006109
130	15.281952	0.009125	0.353160	-9.417600	0.000000	-1.129851	0.383582	-0.221667	0.002443	-0.068417	0.000000
131	15.291077	0.009125	0.353160	-9.535320	-0.353160	-1.143284	0.374627	-0.206667	0.009774	-0.057421	0.008552
132	15.300232	0.009155	0.353160	-9.417600	-0.235440	-1.132836	0.383582	-0.213333	0.156382	-0.054978	0.009774
133	15.309357	0.009125	0.470880	-9.182160	0.000000	-1.129851	0.385075	-0.223333	-0.001222	-0.064752	0.013439
134	15.318481	0.009125	0.353160	-9.417600	0.117720	-1.134328	0.383582	-0.218333	0.010996	-0.059865	0.006109
135	15.327637	0.009155	0.117720	-9.299880	0.000000	-1.132836	0.383582	-0.220000	0.002443	-0.056200	0.017104
136	15.336761	0.009125	0.235440	-9.535320	0.117720	-1.131343	0.383582	-0.221667	0.010996	-0.067195	0.007330
137	15.345886	0.009125	0.353160	-9.417600	-0.117720	-1.132836	0.383582	-0.221667	0.007330	-0.059865	0.009774
138	15.355011	0.009125	0.353160	-9.417600	-0.353160	-1.131343	0.385075	-0.221667	0.015882	-0.054978	0.007330
139	15.364136	0.009125	0.353160	-9.417600	-0.353160	-1.134328	0.385075	-0.221667	0.015882	-0.058643	0.001222
140	15.374237	0.010101	0.353160	-9.535320	0.000000	-1.132836	0.385075	-0.223333	-0.004887	-0.067195	0.012217
141	15.382416	0.008179	0.353160	-9.653040	-0.117720	-1.134328	0.383582	-0.223333	-0.003665	-0.068417	0.015882
142	15.391541	0.009125	0.470880	-9.535320	-0.117720	-1.129851	0.385075	-0.220000	0.000000	-0.057421	0.013439
143	15.400665	0.009125	0.353160	-9.417600	-0.117720	-1.128358	0.382090	-0.221667	0.001222	-0.057421	0.014661
144	15.409790	0.009125	0.470880	-9.653040	-0.117720	-1.132836	0.383582	-0.221667	0.012217	-0.063530	0.012217
145	15.418915	0.009125	0.470880	-9.417600	-0.353160	-1.132836	0.385075	-0.225000	0.007330	-0.064752	-0.003665
146	15.428070	0.009155	0.353160	-9.417600	-0.117720	-1.129851	0.382090	-0.220000	0.003665	-0.061087	0.018326
147	15.437195	0.009125	0.117720	-9.417600	0.000000	-1.134328	0.385075	-0.221667	0.006109	-0.062308	0.009774
148	15.446320	0.009125	0.235440	-9.417600	0.000000	-1.131343	0.382090	-0.223333	-0.002443	-0.061087	0.012217
149	15.455444	0.009125	0.353160	-9.417600	0.000000	-1.126866	0.380597	-0.221667	0.008552	-0.052534	0.013439
150	15.464569	0.009125	0.588600	-9.417600	0.000000	-1.147761	0.373134	-0.200000	0.007330	-0.053756	0.014661
151	15.473724	0.009155	0.470880	-9.417600	0.000000	-1.134328	0.383582	-0.216667	0.001222	-0.065973	-0.001222
152	15.482849	0.009125	0.235440	-9.417600	-0.117720	-1.134328	0.383582	-0.221667	-0.003665	-0.059865	0.006109
153	15.491974	0.009125	0.117720	-9.535320	-0.117720	-1.132836	0.383582	-0.225000	0.009774	-0.056200	0.006109
154	15.501099	0.009125	0.235440	-9.417600	-0.117720	-1.132836	0.382090	-0.216667	0.007330	-0.058643	0.012217
155	15.510254	0.009155	0.470880	-9.417600	-0.235440	-1.131343	0.385075	-0.218333	0.000000	-0.065973	0.003665
156	15.519379	0.009125	0.470880	-9.299880	-0.117720	-1.131343	0.385075	-0.225000	0.001222	-0.057421	0.015882
157	15.528503	0.009125	0.470880	-9.417600	-0.117720	-1.132836	0.385075	-0.220000	0.014661	-0.047647	0.012217
158	15.537628	0.009125	0.470880	-9.535320	0.000000	-1.138806	0.386567	-0.221667	-0.010996	-0.059865	0.018326
159	15.546753	0.009125	0.353160	-9.535320	0.117720	-1.132836	0.382090	-0.220000	0.000000	-0.062308	0.012217
160	15.555878	0.009125	0.588600	-9.653040	-0.235440	-1.132836	0.385075	-0.221667	0.001222	-0.062308	0.010996
161	15.565002	0.009125	0.588600	-9.417600	-0.117720	-1.131343	0.386567	-0.223333	0.003665	-0.057421	0.008552
162	15.574127	0.009125	0.470880	-9.417600	-0.235440	-1.131343	0.383582	-0.221667	0.014661	-0.048869	0.001222
163	15.583252	0.009125	0.353160	-9.535320	-0.117720	-1.132836	0.382090	-0.221667	0.017104	-0.040317	0.008552
164	15.592407	0.009155	0.235440	-9.535320	-0.117720	-1.128358	0.385075	-0.223333	0.003665	-0.054978	0.004887
165	15.601532	0.009125	0.353160	-9.417600	0.235440	-1.129851	0.386567	-0.221667	-0.006109	-0.057421	0.014661
166	15.610657	0.009125	0.470880	-9.417600	0.235440	-1.132836	0.385075	-0.221667	0.008552	-0.058643	0.000000
167	15.619781	0.009125	0.470880	-9.417600	-0.117720	-1.128358	0.383582	-0.221667	0.002443	-0.068417	0.002443
168	15.628937	0.009155	0.353160	-9.417600	-0.117720	-1.144776	0.373134	-0.205000	-0.002443	-0.061087	0.012217
169	15.638062	0.009125	0.470880	-9.417600	0.000000	-1.135821	0.380597	-0.220000	0.001222	-0.059865	0.007330
170	15.647186	0.009125	0.353160	-9.417600	-0.117720	-1.131343	0.383582	-0.221667	0.009774	-0.052534	0.004887
171	15.656342	0.009155	0.470880	-9.417600	0.117720	-1.134328	0.385075	-0.223333	0.006109	-0.057421	0.006109
172	15.665466	0.009125	0.353160	-9.417600	0.000000	-1.132836	0.383582	-0.225000	0.002443	-0.059865	-0.001222
173	15.674591	0.009125	0.117720	-9.299880	0.000000	-1.129851	0.385075	-0.223333	0.002443	-0.052534	0.010996
174	15.683716	0.009125	0.353160	-9.535320	-0.353160	-1.135821	0.382090	-0.221667	0.014661	-0.054978	-0.001222
175	15.692841	0.009125	0.235440	-9.535320	0.000000	-1.129851	0.382090	-0.220000	0.008552	-0.058643	0.000000
176	15.701996	0.009155	0.353160	-9.417600	0.000000	-1.132836	0.382090	-0.223333	0.002443	-0.052534	0.008552
177	15.711121	0.009125	0.470880	-9.417600	0.000000	-1.131343	0.383582	-0.218333	0.001222	-0.041539	0.014661
178	15.720245	0.009125	0.470880	-9.417600	0.000000	-1.131343	0.382090	-0.225000	-0.007330	-0.058643	0.009774
179	15.729370	0.009125	0.353160	-9.417600	-0.235440	-1.129851	0.385075	-0.223333	0.006109	-0.050091	0.012217
180	15.738525	0.009155	0.470880	-9.653040	-0.235440	-1.131343	0.385075	-0.218333	0.012217	-0.048869	0.004887
181	15.747650	0.009125	0.353160	-9.653040	-0.117720	-1.132836	0.385075	-0.221667	0.004887	-0.051313	0.010996
182	15.756775	0.009125	0.117720	-9.417600	-0.117720	-1.134328	0.385075	-0.223333	0.018326	-0.037874	0.009774
183	15.765900	0.009125	0.235440	-9.417600	0.117720	-1.131343	0.383582	-0.220000	0.010996	-0.053756	0.004887
184	15.775024	0.009125	0.470880	-9.417600	0.117720	-1.128358	0.383582	-0.221667	0.013439	-0.056200	0.003665
185	15.784149	0.009125	0.470880	-9.417600	0.117720	-1.132836	0.382090	-0.221667	0.009774	-0.046426	0.002443
186	15.793274	0.009125	0.353160	-9.535320	0.000000	-1.146269	0.371642	-0.206667	0.020769	-0.046426	0.009774
187	15.802399	0.009125	0.353160	-9.535320	0.000000	-1.135821	0.382090	-0.218333	0.003665	-0.048869	0.007330
188	15.811554	0.009155	0.353160	-9.535320	0.000000	-1.132836	0.385075	-0.218333	0.001222	-0.061087	0.009774
189	15.820679	0.009125	0.235440	-9.417600	0.000000	-1.131343	0.386567	-0.225000	-0.004887	-0.050091	0.008552
190	15.829803	0.009125	0.470880	-9.535320	0.000000	-1.131343	0.382090	-0.221667	-0.004887	-0.051313	0.017104
191	15.838928	0.009125	0.235440	-9.299880	0.000000	-1.132836	0.382090	-0.218333	0.007330	-0.048869	-0.001222
192	15.848053	0.009125	0.117720	-9.417600	-0.235440	-1.132836	0.383582	-0.221667	-0.004887	-0.057421	0.013439
193	15.857208	0.009155	0.235440	-9.299880	-0.117720	-1.129851	0.383582	-0.221667	-0.003665	-0.046426	0.019548
194	15.866333	0.009125	0.235440	-9.299880	0.000000	-1.132836	0.385075	-0.221667	0.003665	-0.046426	0.007330
195	15.875458	0.009125	0.353160	-9.417600	0.117720	-1.132836	0.385075	-0.218333	0.006109	-0.054978	0.006109
196	15.884583	0.009125	0.353160	-9.535320	-0.117720	-1.131343	0.383582	-0.220000	0.006109	-0.054978	0.003665
197	15.893707	0.009125	0.588600	-9.535320	0.000000	-1.129851	0.382090	-0.221667	0.001222	-0.037874	0.006109
198	15.902863	0.009155	0.706320	-9.653040	0.117720	-1.132836	0.383582	-0.221667	0.013439	-0.042761	0.012217
199	15.911987	0.009125	0.353160	-9.417600	-0.117720	-1.135821	0.380597	-0.225000	0.010996	-0.047647	0.008552
200	15.921112	0.009125	0.470880	-9.535320	0.000000	-1.132836	0.382090	-0.218333	-0.006109	-0.048869	0.017104
201	15.930237	0.009125	0.235440	-9.417600	0.117720	-1.132836	0.382090	-0.221667	0.007330	-0.047647	0.009774
202	15.939362	0.009125	0.588600	-9.417600	-0.117720	-1.131343	0.382090	-0.223333	0.009774	-0.039095	0.006109
203	15.948486	0.009125	0.588600	-9.417600	0.000000	-1.132836	0.386567	-0.221667	0.014661	-0.042761	0.018326
204	15.957642	0.009155	0.353160	-9.535320	0.000000	-1.131343	0.383582	-0.225000	0.002443	-0.056200	0.004887
205	15.966766	0.009125	0.235440	-9.535320	0.000000	-1.143284	0.374627	-0.203333	0.004887	-0.054978	0.006109
206	15.975891	0.009125	0.588600	-9.535320	0.117720	-1.137313	0.383582	-0.220000	0.007330	-0.061087	0.001222
207	15.985016	0.009125	0.353160	-9.417600	-0.117720	-1.131343	0.383582	-0.220000	-0.001222	-0.052534	0.007330
208	15.994141	0.009125	0.588600	-9.535320	0.117720	-1.125373	0.385075	-0.221667	-0.001222	-0.048869	0.010996
209	16.003296	0.009155	0.353160	-9.535320	0.000000	-1.134328	0.386567	-0.223333	0.004887	-0.053756	0.010996
210	16.012390	0.009094	0.470880	-9.535320	-0.117720	-1.132836	0.383582	-0.216667	0.010996	-0.047647	0.010996
211	16.021545	0.009155	0.353160	-9.417600	-0.117720	-1.135821	0.386567	-0.218333	0.008552	-0.046426	0.004887
212	16.030670	0.009125	0.353160	-9.417600	-0.117720	-1.132836	0.385075	-0.221667	0.003665	-0.046426	0.012217
213	16.039795	0.009125	0.470880	-9.535320	0.235440	-1.129851	0.385075	-0.225000	0.008552	-0.040317	0.017104
214	16.048920	0.009125	0.353160	-9.299880	0.117720	-1.134328	0.385075	-0.223333	0.003665	-0.051313	0.007330
215	16.058044	0.009125	0.353160	-9.417600	0.000000	-1.131343	0.382090	-0.225000	0.003665	-0.064752	0.004887
216	16.067169	0.009125	0.470880	-9.417600	0.000000	-1.132836	0.382090	-0.225000	0.000000	-0.057421	0.000000
217	16.076324	0.009155	0.353160	-9.417600	0.000000	-1.135821	0.383582	-0.221667	0.006109	-0.046426	0.000000
218	16.085419	0.009094	0.235440	-9.653040	0.000000	-1.134328	0.383582	-0.223333	0.009774	-0.053756	0.013439
219	16.094574	0.009155	0.353160	-9.535320	0.000000	-1.132836	0.385075	-0.225000	0.000000	-0.056200	0.012217
220	16.103699	0.009125	0.117720	-9.299880	0.117720	-1.131343	0.385075	-0.223333	0.009774	-0.046426	0.010996
221	16.112823	0.009125	0.470880	-9.535320	0.000000	-1.134328	0.385075	-0.223333	-0.002443	-0.206472	0.007330
222	16.121948	0.009125	0.706320	-9.417600	0.000000	-1.134328	0.385075	-0.218333	-0.002443	-0.057421	0.015882
223	16.131073	0.009125	0.470880	-9.417600	-0.235440	-1.147761	0.371642	-0.205000	0.000000	-0.058643	0.007330
224	16.140198	0.009125	0.353160	-9.417600	-0.117720	-1.134328	0.382090	-0.216667	-0.001222	-0.054978	0.012217
225	16.149323	0.009125	0.353160	-9.299880	0.000000	-1.128358	0.383582	-0.218333	-0.002443	-0.048869	0.010996
226	16.158478	0.009155	0.353160	-9.417600	0.000000	-1.134328	0.385075	-0.223333	-0.008552	-0.063530	0.012217
227	16.167603	0.009125	0.588600	-9.653040	0.235440	-1.131343	0.382090	-0.220000	0.001222	-0.052534	0.006109
228	16.176727	0.009125	0.353160	-9.417600	0.000000	-1.125373	0.385075	-0.221667	0.008552	-0.051313	0.012217
229	16.185852	0.009125	0.353160	-9.417600	0.000000	-1.135821	0.383582	-0.223333	0.000000	-0.053756	0.013439
230	16.194977	0.009125	0.235440	-9.535320	0.000000	-1.129851	0.383582	-0.218333	0.006109	-0.056200	0.014661
231	16.204102	0.009125	0.235440	-9.417600	0.000000	-1.132836	0.385075	-0.221667	0.014661	-0.051313	0.013439
232	16.213226	0.009125	0.588600	-9.417600	0.000000	-1.126866	0.385075	-0.225000	0.001222	-0.058643	0.006109
233	16.222382	0.009155	0.353160	-9.417600	0.235440	-1.131343	0.383582	-0.218333	0.002443	-0.056200	0.018326
234	16.231506	0.009125	0.470880	-9.535320	0.235440	-1.131343	0.383582	-0.225000	0.007330	-0.053756	0.012217
235	16.240631	0.009125	0.588600	-9.417600	-0.117720	-1.129851	0.383582	-0.220000	0.007330	-0.056200	0.003665
236	16.249756	0.009125	0.588600	-9.417600	0.117720	-1.132836	0.385075	-0.221667	0.003665	-0.069639	0.006109
237	16.258911	0.009155	0.470880	-9.417600	-0.117720	-1.134328	0.389552	-0.218333	0.006109	-0.050091	0.010996
238	16.268036	0.009125	0.235440	-9.417600	-0.235440	-1.132836	0.385075	-0.223333	0.008552	-0.057421	0.007330
239	16.277161	0.009125	0.588600	-9.417600	-0.117720	-1.132836	0.383582	-0.221667	-0.004887	-0.061087	0.008552
240	16.286285	0.009125	0.706320	-9.417600	0.235440	-1.134328	0.383582	-0.221667	0.010996	-0.056200	0.008552
241	16.295441	0.009155	0.353160	-9.535320	-0.235440	-1.131343	0.383582	-0.221667	0.004887	-0.062308	-0.003665
242	16.304565	0.009125	0.470880	-9.535320	0.000000	-1.141791	0.374627	-0.205000	0.007330	-0.047647	0.018326
243	16.313690	0.009125	0.588600	-9.535320	0.000000	-1.138806	0.382090	-0.218333	0.000000	-0.070860	0.007330
244	16.322815	0.009125	0.588600	-9.535320	0.000000	-1.131343	0.382090	-0.220000	0.000000	-0.072082	0.009774
245	16.331970	0.009155	0.470880	-9.653040	0.000000	-1.134328	0.382090	-0.221667	0.013439	-0.058643	0.004887
246	16.341095	0.009125	0.470880	-9.417600	0.000000	-1.131343	0.386567	-0.223333	0.004887	-0.059865	0.015882
247	16.350220	0.009125	0.353160	-9.417600	-0.117720	-1.131343	0.385075	-0.221667	0.006109	-0.065973	0.002443
248	16.359344	0.009125	0.353160	-9.535320	0.000000	-1.132836	0.383582	-0.221667	0.009774	-0.057421	0.006109
249	16.368500	0.009155	0.353160	-9.299880	0.000000	-1.134328	0.385075	-0.218333	0.008552	-0.057421	0.003665
250	16.377625	0.009125	0.353160	-9.535320	0.000000	-1.129851	0.382090	-0.218333	0.004887	-0.062308	0.001222
251	16.386749	0.009125	0.235440	-9.535320	0.000000	-1.129851	0.388060	-0.225000	0.001222	-0.056200	0.008552
252	16.395874	0.009125	0.353160	-9.417600	-0.117720	-1.134328	0.383582	-0.221667	0.000000	-0.064752	0.004887
253	16.404999	0.009125	0.588600	-9.653040	-0.117720	-1.131343	0.382090	-0.223333	0.000000	-0.065973	0.009774
254	16.414154	0.009155	0.353160	-9.535320	0.117720	-1.128358	0.386567	-0.220000	-0.004887	-0.063530	0.009774
255	16.423279	0.009125	0.353160	-9.299880	0.117720	-1.132836	0.385075	-0.226667	0.007330	-0.059865	0.008552
256	16.432404	0.009125	0.235440	-9.299880	0.000000	-1.131343	0.385075	-0.221667	0.015882	-0.058643	0.002443
257	16.441528	0.009125	0.117720	-9.535320	-0.235440	-1.134328	0.385075	-0.221667	-0.001222	-0.063530	0.010996
258	16.450653	0.009125	0.235440	-9.417600	-0.353160	-1.129851	0.385075	-0.225000	0.002443	-0.062308	0.007330
259	16.459808	0.009155	0.470880	-9.417600	0.000000	-1.132836	0.386567	-0.223333	0.004887	-0.052534	0.010996
260	16.468933	0.009125	0.470880	-9.535320	0.000000	-1.129851	0.383582	-0.221667	0.001222	-0.063530	0.002443
261	16.478058	0.009125	0.235440	-9.417600	0.000000	-1.146269	0.371642	-0.205000	0.007330	-0.039095	0.013439
262	16.487213	0.009155	0.353160	-9.535320	0.000000	-1.137313	0.380597	-0.213333	0.003665	-0.059865	0.006109
263	16.496338	0.009125	0.235440	-9.417600	-0.235440	-1.129851	0.391045	-0.226667	0.009774	-0.057421	0.002443
264	16.505463	0.009125	0.235440	-9.299880	0.000000	-1.131343	0.383582	-0.223333	0.006109	-0.065973	0.001222
265	16.514587	0.009125	0.588600	-9.417600	-0.117720	-1.134328	0.383582	-0.223333	0.012217	-0.052534	0.001222
266	16.523712	0.009125	0.588600	-9.417600	-0.117720	-1.132836	0.383582	-0.218333	0.006109	-0.050091	0.017104
267	16.532867	0.009155	0.470880	-9.417600	-0.117720	-1.134328	0.385075	-0.225000	0.000000	-0.070860	0.012217
268	16.541992	0.009125	0.353160	-9.417600	0.000000	-1.132836	0.388060	-0.223333	-0.002443	-0.068417	0.009774
269	16.551117	0.009125	0.235440	-9.417600	-0.117720	-1.131343	0.382090	-0.221667	-0.006109	-0.070860	0.009774
270	16.560242	0.009125	0.235440	-9.299880	0.000000	-1.129851	0.385075	-0.223333	0.015882	-0.053756	0.009774
271	16.569397	0.009155	0.470880	-9.535320	-0.117720	-1.129851	0.383582	-0.220000	0.004887	-0.058643	0.004887
272	16.578522	0.009125	0.588600	-9.535320	0.000000	-1.137313	0.388060	-0.221667	0.008552	-0.059865	0.001222
273	16.587646	0.009125	0.353160	-9.417600	0.000000	-1.134328	0.385075	-0.220000	0.000000	-0.047647	0.012217
274	16.596771	0.009125	0.470880	-9.299880	0.000000	-1.129851	0.383582	-0.221667	0.009774	-0.059865	0.000000
275	16.605896	0.009125	0.353160	-9.417600	-0.117720	-1.129851	0.386567	-0.218333	0.015882	-0.050091	0.007330
276	16.615021	0.009125	0.588600	-9.535320	-0.117720	-1.131343	0.385075	-0.221667	0.003665	-0.047647	0.018326
277	16.624176	0.009155	0.588600	-9.535320	0.000000	-1.131343	0.385075	-0.221667	-0.007330	-0.062308	0.017104
278	16.633301	0.009125	0.588600	-9.535320	0.000000	-1.132836	0.385075	-0.220000	0.009774	-0.046426	0.017104
279	16.642426	0.009125	0.353160	-9.417600	-0.117720	-1.144776	0.373134	-0.208333	0.003665	-0.052534	0.017104
280	16.651550	0.009125	0.353160	-9.417600	0.000000	-1.134328	0.383582	-0.216667	0.008552	-0.067195	0.014661
281	16.660706	0.009155	0.470880	-9.535320	-0.117720	-1.128358	0.383582	-0.221667	0.021991	-0.046426	0.006109
282	16.669830	0.009125	0.588600	-9.417600	0.000000	-1.131343	0.383582	-0.218333	0.015882	-0.056200	0.004887
283	16.678955	0.009125	0.353160	-9.535320	0.000000	-1.129851	0.380597	-0.223333	0.000000	-0.056200	0.015882
284	16.688080	0.009125	0.353160	-9.653040	0.235440	-1.129851	0.382090	-0.220000	0.017104	-0.051313	0.002443
285	16.697205	0.009125	0.470880	-9.417600	-0.235440	-1.132836	0.385075	-0.218333	-0.006109	-0.051313	0.009774
286	16.706329	0.009125	0.470880	-9.535320	0.117720	-1.135821	0.383582	-0.220000	0.012217	-0.048869	0.015882
287	16.715454	0.009125	0.470880	-9.417600	-0.235440	-1.128358	0.385075	-0.223333	0.008552	-0.057421	0.000000
288	16.724609	0.009155	0.588600	-9.417600	-0.235440	-1.131343	0.383582	-0.223333	0.004887	-0.058643	0.009774
289	16.734009	0.009399	0.588600	-9.535320	0.000000	-1.129851	0.383582	-0.223333	-0.001222	-0.062308	0.008552
290	16.742859	0.008850	0.353160	-9.417600	0.000000	-1.128358	0.380597	-0.218333	0.012217	-0.059865	0.008552
291	16.751984	0.009125	0.235440	-9.535320	-0.117720	-1.132836	0.383582	-0.223333	-0.003665	-0.058643	0.009774
292	16.761108	0.009125	0.470880	-9.535320	-0.117720	-1.131343	0.382090	-0.221667	0.001222	-0.056200	0.007330
293	16.770233	0.009125	0.353160	-9.535320	-0.117720	-1.132836	0.383582	-0.218333	0.002443	-0.051313	0.004887
294	16.779388	0.009155	0.470880	-9.653040	-0.117720	-1.134328	0.382090	-0.223333	0.007330	-0.045204	0.004887
295	16.788513	0.009125	0.353160	-9.299880	0.000000	-1.131343	0.385075	-0.221667	0.013439	-0.039095	0.007330
296	16.797638	0.009125	0.353160	-9.535320	-0.117720	-1.134328	0.382090	-0.223333	-0.013439	-0.057421	0.010996
297	16.806763	0.009125	0.588600	-9.417600	0.000000	-1.134328	0.383582	-0.221667	0.004887	-0.056200	0.002443
298	16.815887	0.009125	0.470880	-9.535320	0.000000	-1.137313	0.377612	-0.208333	-0.001222	-0.064752	0.004887
299	16.825043	0.009155	0.235440	-9.417600	0.000000	-1.135821	0.380597	-0.216667	-0.001222	-0.058643	0.007330
300	16.834167	0.009125	0.353160	-9.417600	-0.117720	-1.131343	0.385075	-0.223333	0.012217	-0.043982	0.012217
301	16.843292	0.009125	0.470880	-9.535320	-0.235440	-1.131343	0.383582	-0.223333	0.001222	-0.065973	0.008552
302	16.852448	0.009155	0.470880	-9.535320	0.000000	-1.132836	0.385075	-0.221667	0.012217	-0.047647	0.013439
303	16.861572	0.009125	0.235440	-9.417600	0.235440	-1.132836	0.383582	-0.218333	0.002443	-0.040317	0.019548
304	16.870697	0.009125	0.588600	-9.417600	0.000000	-1.132836	0.383582	-0.221667	-0.004887	-0.059865	0.008552
305	16.879822	0.009125	0.588600	-9.417600	0.000000	-1.128358	0.383582	-0.220000	0.002443	-0.059865	0.008552
306	16.888977	0.009155	0.588600	-9.417600	0.117720	-1.126866	0.386567	-0.221667	0.008552	-0.052534	0.004887
307	16.898102	0.009125	0.588600	-9.653040	-0.235440	-1.132836	0.385075	-0.216667	0.000000	-0.062308	0.013439
308	16.907227	0.009125	0.588600	-9.417600	0.000000	-1.131343	0.382090	-0.221667	0.014661	-0.042761	0.014661
309	16.916351	0.009125	0.353160	-9.417600	0.000000	-1.132836	0.383582	-0.220000	-0.006109	-0.058643	0.009774
310	16.925476	0.009125	0.353160	-9.535320	0.235440	-1.132836	0.385075	-0.223333	-0.007330	-0.068417	0.009774
311	16.934601	0.009125	0.470880	-9.417600	0.000000	-1.131343	0.383582	-0.218333	-0.009774	-0.056200	0.012217
312	16.943756	0.009155	0.117720	-9.535320	0.000000	-1.129851	0.382090	-0.225000	-0.012217	-0.059865	0.014661
313	16.952881	0.009125	0.235440	-9.417600	-0.117720	-1.132836	0.385075	-0.218333	-0.002443	-0.057421	0.007330
314	16.962006	0.009125	0.235440	-9.299880	-0.117720	-1.132836	0.383582	-0.220000	-0.001222	-0.053756	0.012217
315	16.971130	0.009125	0.470880	-9.417600	-0.117720	-1.131343	0.385075	-0.220000	0.008552	-0.054978	0.004887
316	16.980255	0.009125	0.353160	-9.417600	0.000000	-1.149254	0.380597	-0.203333	-0.008552	-0.062308	0.002443
317	16.989380	0.009125	0.470880	-9.417600	-0.117720	-1.147761	0.371642	-0.206667	0.003665	-0.061087	0.001222
318	16.998505	0.009125	0.235440	-9.535320	-0.117720	-1.132836	0.385075	-0.220000	0.006109	-0.046426	0.010996
319	17.007629	0.009125	0.353160	-9.535320	-0.117720	-1.132836	0.382090	-0.220000	0.003665	-0.045204	0.010996
320	17.016785	0.009155	0.470880	-9.535320	-0.235440	-1.132836	0.382090	-0.221667	0.007330	-0.040317	0.004887
321	17.025909	0.009125	0.353160	-9.417600	-0.235440	-1.131343	0.383582	-0.223333	0.013439	-0.040317	0.012217
322	17.035034	0.009125	0.235440	-9.535320	0.000000	-1.128358	0.386567	-0.223333	0.002443	-0.047647	0.012217
323	17.044159	0.009125	0.235440	-9.535320	0.000000	-1.129851	0.385075	-0.218333	-0.003665	-0.053756	0.013439
324	17.053955	0.009796	0.235440	-9.299880	0.000000	-1.132836	0.385075	-0.226667	-0.006109	-0.063530	0.004887
325	17.062439	0.008484	0.588600	-9.417600	0.117720	-1.134328	0.382090	-0.221667	0.007330	-0.051313	0.021991
326	17.071564	0.009125	0.353160	-9.535320	0.117720	-1.132836	0.383582	-0.220000	0.000000	-0.058643	0.013439
327	17.080719	0.009155	0.235440	-9.417600	0.000000	-1.132836	0.385075	-0.218333	0.019548	-0.052534	0.000000
328	17.089844	0.009125	0.353160	-9.299880	-0.235440	-1.131343	0.386567	-0.223333	0.001222	-0.054978	0.007330
329	17.098969	0.009125	0.353160	-9.417600	-0.235440	-1.129851	0.383582	-0.221667	0.006109	-0.051313	0.008552
330	17.108093	0.009125	0.353160	-9.535320	-0.117720	-1.132836	0.383582	-0.223333	0.009774	-0.051313	0.002443
331	17.117218	0.009125	0.470880	-9.653040	0.000000	-1.129851	0.385075	-0.225000	0.002443	-0.056200	0.004887
332	17.126373	0.009155	0.353160	-9.535320	0.000000	-1.134328	0.386567	-0.223333	-0.002443	-0.045204	0.010996
333	17.135498	0.009125	0.588600	-9.535320	0.000000	-1.126866	0.380597	-0.221667	0.008552	-0.045204	0.009774
334	17.144623	0.009125	0.353160	-9.417600	-0.117720	-1.131343	0.382090	-0.218333	0.010996	-0.042761	0.013439
335	17.153748	0.009125	0.470880	-9.653040	-0.117720	-1.144776	0.373134	-0.205000	-0.004887	-0.067195	0.007330
336	17.162872	0.009125	0.353160	-9.417600	0.000000	-1.137313	0.377612	-0.216667	0.004887	-0.048869	0.006109
337	17.172028	0.009155	0.470880	-9.417600	-0.117720	-1.134328	0.385075	-0.225000	0.004887	-0.057421	0.000000
338	17.181152	0.009125	0.117720	-9.535320	-0.117720	-1.132836	0.383582	-0.221667	0.001222	-0.054978	0.010996
339	17.190277	0.009125	0.353160	-9.417600	0.000000	-1.132836	0.383582	-0.225000	0.004887	-0.056200	-0.001222
340	17.199402	0.009125	0.470880	-9.653040	0.000000	-1.134328	0.382090	-0.218333	-0.001222	-0.059865	0.006109
341	17.208527	0.009125	0.470880	-9.653040	0.000000	-1.134328	0.386567	-0.225000	0.004887	-0.052534	0.004887
342	17.217651	0.009125	0.353160	-9.417600	0.000000	-1.132836	0.382090	-0.220000	0.015882	-0.047647	0.015882
343	17.226807	0.009155	0.470880	-9.417600	-0.117720	-1.128358	0.383582	-0.223333	-0.002443	-0.057421	0.013439
344	17.235931	0.009125	0.470880	-9.417600	-0.235440	-1.132836	0.382090	-0.218333	0.001222	-0.059865	0.008552
345	17.245056	0.009125	0.470880	-9.299880	0.117720	-1.128358	0.383582	-0.223333	0.000000	-0.054978	0.013439
346	17.254181	0.009125	0.706320	-9.417600	-0.117720	-1.134328	0.383582	-0.221667	0.002443	-0.059865	0.013439
347	17.263306	0.009125	0.470880	-9.417600	-0.117720	-1.132836	0.383582	-0.221667	0.001222	-0.057421	0.007330
348	17.272461	0.009155	0.353160	-9.417600	0.000000	-1.129851	0.385075	-0.221667	0.007330	-0.053756	0.003665
349	17.281586	0.009125	0.470880	-9.535320	0.117720	-1.129851	0.386567	-0.223333	0.008552	-0.051313	0.009774
350	17.290710	0.009125	0.588600	-9.535320	0.000000	-1.132836	0.385075	-0.221667	0.000000	-0.065973	0.000000
351	17.299835	0.009125	0.470880	-9.417600	0.000000	-1.135821	0.385075	-0.226667	0.003665	-0.047647	0.012217
352	17.308960	0.009125	0.235440	-9.417600	0.235440	-1.132836	0.383582	-0.220000	0.002443	-0.061087	0.007330
353	17.318085	0.009125	0.353160	-9.299880	0.000000	-1.144776	0.374627	-0.205000	0.009774	-0.053756	0.010996
354	17.327209	0.009125	0.470880	-9.653040	0.117720	-1.137313	0.380597	-0.215000	0.017104	-0.053756	0.008552
355	17.336334	0.009125	0.235440	-9.653040	0.000000	-1.134328	0.385075	-0.221667	0.000000	-0.063530	0.009774
356	17.345490	0.009155	0.353160	-9.417600	0.117720	-1.132836	0.386567	-0.221667	0.003665	-0.059865	0.014661
357	17.354614	0.009125	0.353160	-9.653040	0.117720	-1.131343	0.383582	-0.225000	0.004887	-0.052534	0.007330
358	17.363739	0.009125	0.353160	-9.417600	0.000000	-1.131343	0.385075	-0.218333	0.004887	-0.054978	0.010996
359	17.373932	0.010193	0.470880	-9.535320	0.000000	-1.131343	0.382090	-0.225000	0.006109	-0.050091	0.012217
360	17.381989	0.008057	0.588600	-9.417600	0.000000	-1.126866	0.379104	-0.221667	0.004887	-0.048869	0.013439
361	17.391113	0.009125	0.706320	-9.417600	-0.117720	-1.132836	0.383582	-0.220000	-0.010996	-0.058643	0.008552
362	17.400269	0.009155	0.353160	-9.535320	-0.117720	-1.128358	0.382090	-0.220000	-0.006109	-0.057421	0.007330
363	17.409393	0.009125	0.353160	-9.417600	0.117720	-1.134328	0.385075	-0.225000	0.009774	-0.057421	0.008552
364	17.418518	0.009125	0.235440	-9.653040	0.000000	-1.134328	0.386567	-0.221667	0.000000	-0.061087	0.006109
365	17.427643	0.009125	0.353160	-9.653040	0.000000	-1.129851	0.383582	-0.221667	0.010996	-0.062308	0.013439
366	17.436798	0.009155	0.470880	-9.417600	0.000000	-1.132836	0.382090	-0.218333	0.006109	-0.048869	0.018326
367	17.445923	0.009125	0.117720	-9.299880	0.117720	-1.132836	0.385075	-0.223333	-0.006109	-0.064752	0.012217
368	17.455048	0.009125	0.470880	-9.417600	0.000000	-1.128358	0.377612	-0.225000	0.000000	-0.059865	0.004887
369	17.464203	0.009155	0.353160	-9.299880	0.000000	-1.132836	0.382090	-0.220000	0.008552	-0.061087	0.012217
370	17.473328	0.009125	0.353160	-9.299880	0.000000	-1.129851	0.383582	-0.218333	0.014661	-0.053756	0.001222
371	17.482483	0.009155	0.470880	-9.417600	0.000000	-1.132836	0.383582	-0.223333	0.006109	-0.048869	0.012217
372	17.491608	0.009125	0.235440	-9.417600	-0.235440	-1.144776	0.373134	-0.208333	0.003665	-0.059865	0.003665
373	17.500732	0.009125	0.235440	-9.299880	0.000000	-1.137313	0.380597	-0.216667	0.008552	-0.053756	0.008552
374	17.509857	0.009125	0.353160	-9.299880	0.000000	-1.132836	0.385075	-0.220000	0.003665	-0.056200	0.006109
375	17.518982	0.009125	0.470880	-9.299880	0.117720	-1.134328	0.385075	-0.221667	0.004887	-0.063530	0.003665
376	17.528107	0.009125	0.353160	-9.417600	0.000000	-1.131343	0.383582	-0.221667	0.001222	-0.041539	0.012217
377	17.537231	0.009125	0.470880	-9.417600	0.000000	-1.126866	0.386567	-0.225000	0.009774	-0.041539	0.006109
378	17.546356	0.009125	0.353160	-9.417600	0.000000	-1.132836	0.383582	-0.218333	0.002443	-0.057421	0.013439
379	17.555511	0.009155	0.353160	-9.417600	-0.117720	-1.132836	0.383582	-0.220000	0.007330	-0.069639	0.001222
380	17.564636	0.009125	0.353160	-9.417600	0.000000	-1.132836	0.383582	-0.221667	0.002443	-0.063530	0.012217
381	17.573761	0.009125	0.353160	-9.417600	-0.235440	-1.132836	0.385075	-0.221667	-0.001222	-0.058643	0.009774
382	17.582886	0.009125	0.353160	-9.417600	-0.117720	-1.131343	0.382090	-0.223333	0.000000	-0.054978	0.012217
383	17.592010	0.009125	0.470880	-9.535320	-0.117720	-1.131343	0.385075	-0.220000	0.010996	-0.059865	0.010996
384	17.601135	0.009125	0.470880	-9.535320	0.000000	-1.131343	0.385075	-0.220000	0.013439	-0.054978	0.007330
385	17.610291	0.009155	0.353160	-9.417600	0.235440	-1.129851	0.386567	-0.221667	0.001222	-0.062308	-0.002443
386	17.619415	0.009125	0.235440	-9.417600	0.000000	-1.129851	0.385075	-0.223333	-0.003665	-0.057421	0.009774
387	17.628540	0.009125	0.353160	-9.653040	0.000000	-1.131343	0.383582	-0.223333	0.017104	-0.054978	0.009774
388	17.637665	0.009125	0.353160	-9.535320	-0.117720	-1.132836	0.383582	-0.218333	0.007330	-0.062308	0.012217
389	17.646820	0.009155	0.353160	-9.417600	0.000000	-1.131343	0.380597	-0.225000	-0.004887	-0.061087	0.013439
390	17.655945	0.009125	0.353160	-9.417600	0.000000	-1.144776	0.371642	-0.206667	0.014661	-0.057421	0.000000
391	17.665070	0.009125	0.588600	-9.535320	0.000000	-1.134328	0.383582	-0.216667	0.003665	-0.063530	0.010996
392	17.674194	0.009125	0.470880	-9.417600	0.117720	-1.131343	0.383582	-0.218333	-0.001222	-0.058643	0.018326
393	17.683319	0.009125	0.353160	-9.535320	0.000000	-1.128358	0.383582	-0.220000	0.009774	-0.054978	0.012217
394	17.692444	0.009125	0.235440	-9.535320	0.117720	-1.135821	0.382090	-0.221667	-0.004887	-0.063530	0.009774
395	17.701569	0.009125	0.353160	-9.417600	0.000000	-1.134328	0.383582	-0.218333	-0.001222	-0.058643	0.013439
396	17.710693	0.009125	0.353160	-9.535320	0.000000	-1.132836	0.383582	-0.221667	0.014661	-0.046426	0.007330
397	17.719818	0.009125	0.470880	-9.535320	-0.117720	-1.131343	0.383582	-0.220000	0.015882	-0.051313	0.006109
398	17.728973	0.009155	0.824040	-9.535320	-0.235440	-1.132836	0.383582	-0.221667	0.017104	-0.046426	0.009774
399	17.738098	0.009125	0.588600	-9.417600	0.000000	-1.129851	0.385075	-0.223333	-0.002443	-0.069639	0.012217
400	17.747223	0.009125	0.470880	-9.299880	0.000000	-1.132836	0.383582	-0.223333	0.000000	-0.070860	0.009774
401	17.756348	0.009125	0.353160	-9.417600	0.000000	-1.134328	0.383582	-0.223333	0.008552	-0.051313	0.014661
402	17.765503	0.009155	0.588600	-9.417600	0.117720	-1.132836	0.383582	-0.223333	0.018326	-0.053756	0.003665
403	17.774628	0.009125	0.353160	-9.417600	0.000000	-1.128358	0.385075	-0.218333	-0.004887	-0.065973	0.001222
404	17.783752	0.009125	0.235440	-9.417600	0.000000	-1.135821	0.383582	-0.225000	0.003665	-0.056200	0.010996
405	17.792877	0.009125	0.353160	-9.535320	0.000000	-1.131343	0.383582	-0.220000	0.007330	-0.056200	0.002443
406	17.802032	0.009155	0.235440	-9.417600	0.000000	-1.131343	0.383582	-0.221667	-0.003665	-0.062308	0.009774
407	17.811157	0.009125	0.353160	-9.417600	0.000000	-1.129851	0.385075	-0.221667	0.008552	-0.054978	0.003665
408	17.820312	0.009155	0.235440	-9.417600	-0.117720	-1.129851	0.383582	-0.223333	0.014661	-0.048869	0.007330
409	17.829437	0.009125	0.235440	-9.417600	0.000000	-1.144776	0.371642	-0.205000	-0.010996	-0.058643	0.012217
410	17.838562	0.009125	0.117720	-9.535320	0.117720	-1.137313	0.377612	-0.218333	0.001222	-0.074526	0.004887
411	17.847717	0.009155	0.353160	-9.417600	-0.235440	-1.129851	0.386567	-0.223333	0.010996	-0.045204	0.012217
412	17.856842	0.009125	0.353160	-9.417600	0.000000	-1.126866	0.386567	-0.223333	-0.006109	-0.061087	0.013439
413	17.865967	0.009125	0.706320	-9.535320	0.000000	-1.132836	0.382090	-0.220000	-0.001222	-0.054978	0.018326
414	17.875092	0.009125	0.470880	-9.417600	0.000000	-1.134328	0.385075	-0.221667	0.012217	-0.056200	0.004887
415	17.884216	0.009125	0.353160	-9.417600	0.000000	-1.129851	0.383582	-0.223333	0.014661	-0.054978	0.002443
416	17.893372	0.009155	0.470880	-9.535320	0.000000	-1.132836	0.386567	-0.221667	0.000000	-0.064752	0.010996
417	17.902496	0.009125	0.470880	-9.535320	0.000000	-1.129851	0.382090	-0.221667	0.007330	-0.053756	0.017104
418	17.911621	0.009125	0.235440	-9.417600	0.000000	-1.132836	0.385075	-0.218333	0.006109	-0.057421	0.009774
419	17.920746	0.009125	0.470880	-9.417600	0.000000	-1.131343	0.383582	-0.218333	-0.002443	-0.057421	0.014661
420	17.929901	0.009155	0.588600	-9.770760	-0.235440	-1.131343	0.385075	-0.221667	0.017104	-0.045204	0.006109
421	17.939026	0.009125	0.353160	-9.535320	0.000000	-1.132836	0.386567	-0.220000	0.008552	-0.050091	0.004887
422	17.948151	0.009125	0.353160	-9.417600	0.000000	-1.128358	0.385075	-0.221667	0.000000	-0.056200	0.002443
423	17.957275	0.009125	0.235440	-9.535320	-0.117720	-1.134328	0.382090	-0.223333	0.000000	-0.056200	0.010996
424	17.966400	0.009125	0.470880	-9.535320	-0.117720	-1.131343	0.383582	-0.220000	0.004887	-0.048869	0.014661
425	17.975555	0.009155	0.470880	-9.417600	0.000000	-1.129851	0.385075	-0.221667	0.006109	-0.065973	0.003665
426	17.984680	0.009125	0.470880	-9.417600	-0.235440	-1.129851	0.382090	-0.221667	0.006109	-0.059865	0.015882
427	17.993805	0.009125	0.470880	-9.417600	-0.235440	-1.126866	0.382090	-0.218333	0.003665	-0.056200	0.015882
428	18.002930	0.009125	0.235440	-9.299880	0.000000	-1.143284	0.371642	-0.203333	0.008552	-0.048869	0.008552
429	18.012085	0.009155	0.235440	-9.535320	0.000000	-1.135821	0.379104	-0.215000	0.017104	-0.050091	0.004887
430	18.021210	0.009125	0.353160	-9.653040	-0.117720	-1.126866	0.386567	-0.225000	0.014661	-0.053756	0.006109
431	18.030334	0.009125	0.235440	-9.653040	-0.117720	-1.131343	0.383582	-0.220000	0.007330	-0.056200	0.002443
432	18.039459	0.009125	0.470880	-9.417600	-0.117720	-1.132836	0.383582	-0.223333	0.000000	-0.057421	0.002443
433	18.048615	0.009155	0.353160	-9.417600	-0.235440	-1.129851	0.383582	-0.221667	-0.151495	-0.043982	0.013439
434	18.057739	0.009125	0.235440	-9.417600	0.000000	-1.131343	0.383582	-0.225000	0.003665	-0.061087	0.000000
435	18.066864	0.009125	0.353160	-9.653040	0.000000	-1.131343	0.383582	-0.223333	0.000000	-0.048869	0.010996
436	18.075989	0.009125	0.470880	-9.299880	0.000000	-1.132836	0.382090	-0.220000	0.004887	-0.056200	0.007330
437	18.085144	0.009155	0.470880	-9.417600	0.000000	-1.131343	0.380597	-0.221667	-0.001222	-0.053756	0.012217
438	18.094269	0.009125	0.235440	-9.417600	-0.353160	-1.129851	0.383582	-0.223333	0.013439	-0.051313	0.006109
439	18.103394	0.009125	0.235440	-9.299880	-0.117720	-1.131343	0.383582	-0.220000	0.000000	-0.056200	0.009774
440	18.112549	0.009155	0.235440	-9.417600	0.117720	-1.131343	0.383582	-0.218333	0.002443	-0.050091	0.015882
441	18.121674	0.009125	0.588600	-9.535320	0.000000	-1.131343	0.385075	-0.218333	0.012217	-0.045204	0.010996
442	18.130798	0.009125	0.353160	-9.535320	-0.117720	-1.131343	0.385075	-0.223333	-0.002443	-0.065973	0.007330
443	18.139923	0.009125	0.235440	-9.417600	-0.235440	-1.135821	0.382090	-0.218333	0.023213	-0.051313	0.002443
444	18.149048	0.009125	0.470880	-9.299880	0.000000	-1.131343	0.382090	-0.225000	0.018326	-0.042761	0.007330
445	18.158173	0.009125	0.235440	-9.299880	0.000000	-1.125373	0.382090	-0.218333	0.003665	-0.051313	0.003665
446	18.167328	0.009155	0.353160	-9.417600	-0.117720	-1.144776	0.370149	-0.208333	-0.003665	-0.053756	0.007330
447	18.176453	0.009125	0.353160	-9.535320	-0.235440	-1.132836	0.382090	-0.218333	0.010996	-0.063530	0.001222
448	18.185577	0.009125	0.235440	-9.535320	0.000000	-1.126866	0.385075	-0.218333	0.008552	-0.039095	0.012217
449	18.194733	0.009155	0.470880	-9.417600	0.117720	-1.129851	0.386567	-0.221667	-0.002443	-0.052534	0.010996
450	18.203857	0.009125	0.353160	-9.535320	0.235440	-1.134328	0.380597	-0.220000	0.006109	-0.061087	0.002443
451	18.212982	0.009125	0.470880	-9.535320	0.000000	-1.134328	0.383582	-0.221667	0.010996	-0.041539	0.013439
452	18.222107	0.009125	0.588600	-9.535320	0.000000	-1.131343	0.383582	-0.221667	-0.006109	-0.058643	0.013439
453	18.231262	0.009155	0.588600	-9.417600	0.000000	-1.131343	0.385075	-0.216667	0.007330	-0.057421	0.006109
454	18.240387	0.009125	0.353160	-9.417600	0.000000	-1.132836	0.386567	-0.220000	0.002443	-0.051313	0.010996
455	18.249512	0.009125	0.235440	-9.417600	-0.117720	-1.134328	0.383582	-0.223333	0.004887	-0.053756	0.003665
456	18.258636	0.009125	0.353160	-9.417600	0.000000	-1.131343	0.385075	-0.223333	0.006109	-0.054978	0.002443
457	18.267761	0.009125	0.235440	-9.535320	0.000000	-1.132836	0.382090	-0.223333	0.006109	-0.052534	0.013439
458	18.276886	0.009125	0.353160	-9.417600	-0.117720	-1.131343	0.383582	-0.221667	0.009774	-0.042761	0.002443
459	18.286041	0.009155	0.588600	-9.417600	0.000000	-1.134328	0.385075	-0.221667	0.001222	-0.054978	0.012217
460	18.295166	0.009125	0.470880	-9.535320	0.235440	-1.132836	0.382090	-0.223333	0.007330	-0.046426	0.004887
461	18.304291	0.009125	0.588600	-9.417600	0.235440	-1.132836	0.382090	-0.220000	0.004887	-0.054978	0.006109
462	18.313416	0.009125	0.588600	-9.417600	0.000000	-1.131343	0.382090	-0.221667	0.006109	-0.051313	0.010996
463	18.322540	0.009125	0.235440	-9.417600	-0.117720	-1.132836	0.383582	-0.221667	0.008552	-0.054978	0.012217
464	18.331665	0.009125	0.235440	-9.535320	0.117720	-1.134328	0.385075	-0.223333	0.009774	-0.050091	0.010996
465	18.340790	0.009125	0.470880	-9.535320	0.000000	-1.147761	0.379104	-0.205000	0.009774	-0.048869	0.012217
466	18.349945	0.009155	0.353160	-9.417600	0.000000	-1.144776	0.373134	-0.208333	0.007330	-0.050091	0.008552
467	18.359070	0.009125	0.470880	-9.417600	0.000000	-1.132836	0.383582	-0.221667	-0.002443	-0.065973	0.006109
468	18.368195	0.009125	0.353160	-9.535320	-0.235440	-1.131343	0.385075	-0.218333	0.007330	-0.052534	0.001222
469	18.377350	0.009155	0.353160	-9.417600	0.000000	-1.129851	0.380597	-0.216667	0.006109	-0.047647	0.015882
470	18.386475	0.009125	0.117720	-9.417600	0.117720	-1.132836	0.385075	-0.220000	0.006109	-0.053756	0.000000
471	18.395599	0.009125	0.353160	-9.417600	0.117720	-1.132836	0.383582	-0.218333	0.003665	-0.058643	0.002443
472	18.404724	0.009125	0.353160	-9.299880	0.000000	-1.132836	0.383582	-0.223333	0.012217	-0.043982	0.008552
473	18.413849	0.009125	0.117720	-9.417600	0.000000	-1.132836	0.385075	-0.221667	0.008552	-0.059865	0.006109
474	18.423004	0.009155	0.588600	-9.299880	0.000000	-1.131343	0.383582	-0.221667	-0.003665	-0.068417	0.003665
475	18.432129	0.009125	0.353160	-9.417600	0.235440	-1.134328	0.385075	-0.223333	0.007330	-0.065973	0.003665
476	18.441254	0.009125	0.235440	-9.417600	0.000000	-1.132836	0.382090	-0.223333	0.003665	-0.061087	0.003665
477	18.450378	0.009125	0.353160	-9.535320	0.000000	-1.134328	0.383582	-0.221667	0.015882	-0.050091	0.006109
478	18.459503	0.009125	0.235440	-9.535320	0.235440	-1.128358	0.382090	-0.221667	0.002443	-0.064752	0.004887
479	18.468658	0.009155	0.353160	-9.535320	-0.117720	-1.129851	0.386567	-0.221667	0.002443	-0.051313	0.007330
480	18.477783	0.009125	0.470880	-9.535320	-0.235440	-1.129851	0.386567	-0.223333	0.009774	-0.051313	0.004887
481	18.486908	0.009125	0.470880	-9.299880	-0.117720	-1.128358	0.382090	-0.225000	0.007330	-0.061087	0.002443
482	18.496033	0.009125	0.470880	-9.299880	0.000000	-1.131343	0.386567	-0.221667	0.004887	-0.057421	0.006109
483	18.505188	0.009155	0.470880	-9.417600	0.000000	-1.144776	0.374627	-0.206667	0.001222	-0.057421	0.008552
484	18.514313	0.009125	0.353160	-9.417600	0.000000	-1.137313	0.382090	-0.215000	-0.001222	-0.059865	0.010996
485	18.523438	0.009125	0.117720	-9.299880	0.117720	-1.134328	0.382090	-0.221667	0.007330	-0.054978	0.004887
486	18.532562	0.009125	0.353160	-9.535320	0.000000	-1.129851	0.385075	-0.221667	0.006109	-0.062308	0.002443
487	18.541687	0.009125	0.353160	-9.535320	0.117720	-1.129851	0.382090	-0.220000	0.006109	-0.059865	0.003665
488	18.550842	0.009155	0.235440	-9.417600	0.117720	-1.128358	0.383582	-0.223333	0.014661	-0.057421	0.001222
489	18.559967	0.009125	0.353160	-9.417600	0.000000	-1.131343	0.383582	-0.220000	0.004887	-0.056200	0.001222
490	18.569092	0.009125	0.353160	-9.417600	-0.235440	-1.131343	0.385075	-0.221667	0.018326	-0.045204	0.003665
491	18.578217	0.009125	0.353160	-9.417600	0.000000	-1.131343	0.377612	-0.220000	-0.002443	-0.058643	0.014661
492	18.587341	0.009125	0.353160	-9.417600	0.000000	-1.132836	0.385075	-0.220000	-0.002443	-0.053756	0.006109
493	18.596497	0.009155	0.235440	-9.417600	-0.117720	-1.129851	0.383582	-0.218333	0.006109	-0.051313	0.007330
494	18.605621	0.009125	0.353160	-9.535320	0.000000	-1.131343	0.385075	-0.218333	-0.001222	-0.057421	0.006109
495	18.614746	0.009125	0.353160	-9.770760	0.000000	-1.132836	0.383582	-0.223333	0.009774	-0.039095	0.014661
496	18.623871	0.009125	0.588600	-9.535320	0.000000	-1.134328	0.382090	-0.220000	0.013439	-0.052534	0.012217
497	18.632996	0.009125	0.353160	-9.653040	-0.117720	-1.132836	0.385075	-0.221667	0.006109	-0.051313	0.009774
498	18.642120	0.009125	0.470880	-9.417600	0.000000	-1.131343	0.385075	-0.226667	0.006109	-0.046426	0.012217
499	18.651245	0.009125	0.353160	-9.653040	0.000000	-1.129851	0.385075	-0.216667	0.007330	-0.050091	0.015882
500	18.660400	0.009155	0.470880	-9.417600	0.000000	-1.131343	0.385075	-0.218333	0.008552	-0.053756	0.010996
501	18.669525	0.009125	0.588600	-9.535320	0.117720	-1.129851	0.382090	-0.223333	0.002443	-0.072082	0.007330
502	18.678650	0.009125	0.588600	-9.417600	0.000000	-1.140299	0.373134	-0.203333	0.007330	-0.053756	0.006109
503	18.687775	0.009125	0.353160	-9.417600	0.000000	-1.147761	0.371642	-0.211667	0.015882	-0.041539	0.012217
504	18.696899	0.009125	0.470880	-9.535320	0.000000	-1.131343	0.382090	-0.220000	0.006109	-0.048869	0.014661
505	18.706055	0.009155	0.470880	-9.653040	0.117720	-1.131343	0.385075	-0.225000	0.010996	-0.061087	0.007330
506	18.715179	0.009125	0.353160	-9.417600	0.000000	-1.131343	0.383582	-0.223333	0.001222	-0.054978	0.012217
507	18.724304	0.009125	0.353160	-9.417600	0.000000	-1.131343	0.385075	-0.223333	-0.001222	-0.058643	0.006109
508	18.733704	0.009399	0.235440	-9.653040	0.000000	-1.128358	0.383582	-0.216667	0.007330	-0.053756	0.008552
509	18.742584	0.008881	0.588600	-9.535320	0.000000	-1.131343	0.382090	-0.225000	-0.006109	-0.059865	0.013439
510	18.751709	0.009125	0.588600	-9.535320	0.000000	-1.131343	0.383582	-0.221667	0.007330	-0.047647	0.017104
511	18.760834	0.009125	0.470880	-9.535320	-0.235440	-1.132836	0.386567	-0.221667	0.002443	-0.063530	0.000000
512	18.769958	0.009125	0.353160	-9.417600	0.000000	-1.131343	0.383582	-0.221667	0.003665	-0.061087	0.014661
513	18.779083	0.009125	0.235440	-9.417600	-0.117720	-1.132836	0.383582	-0.225000	0.004887	-0.054978	0.012217
514	18.788239	0.009155	0.706320	-9.417600	-0.117720	-1.131343	0.383582	-0.223333	0.006109	-0.048869	0.008552
515	18.797363	0.009125	0.588600	-9.299880	0.000000	-1.132836	0.385075	-0.223333	0.009774	-0.056200	0.003665
516	18.806488	0.009125	0.353160	-9.299880	0.000000	-1.132836	0.385075	-0.221667	0.000000	-0.057421	0.002443
517	18.815643	0.009155	0.353160	-9.417600	0.117720	-1.131343	0.385075	-0.221667	0.003665	-0.058643	0.014661
518	18.824738	0.009094	0.235440	-9.417600	0.000000	-1.129851	0.383582	-0.223333	0.012217	-0.054978	0.002443
519	18.833893	0.009155	0.353160	-9.417600	0.000000	-1.131343	0.385075	-0.225000	0.014661	-0.061087	0.003665
520	18.843018	0.009125	0.235440	-9.535320	0.000000	-1.144776	0.371642	-0.203333	0.001222	-0.063530	0.003665
521	18.852142	0.009125	0.235440	-9.417600	0.000000	-1.134328	0.380597	-0.215000	0.008552	-0.056200	0.006109
522	18.861267	0.009125	0.235440	-9.299880	-0.117720	-1.132836	0.385075	-0.221667	0.155160	-0.054978	0.010996
523	18.870392	0.009125	0.235440	-9.417600	0.000000	-1.129851	0.385075	-0.226667	0.004887	-0.053756	0.015882
524	18.879547	0.009155	0.470880	-9.417600	0.235440	-1.129851	0.383582	-0.221667	0.007330	-0.059865	0.000000
525	18.888672	0.009125	0.470880	-9.653040	0.000000	-1.129851	0.382090	-0.223333	0.003665	-0.068417	0.008552
526	18.897797	0.009125	0.353160	-9.653040	0.000000	-1.131343	0.388060	-0.218333	0.012217	-0.053756	0.012217
527	18.906921	0.009125	0.353160	-9.535320	0.000000	-1.134328	0.383582	-0.218333	0.155160	-0.062308	0.003665
528	18.916046	0.009125	0.353160	-9.299880	0.000000	-1.134328	0.385075	-0.218333	0.003665	-0.051313	0.014661
529	18.925171	0.009125	0.470880	-9.417600	-0.117720	-1.134328	0.383582	-0.220000	0.001222	-0.059865	0.009774
530	18.934326	0.009155	0.353160	-9.417600	0.000000	-1.129851	0.383582	-0.220000	-0.008552	-0.062308	0.010996
531	18.943451	0.009125	0.353160	-9.417600	0.000000	-1.131343	0.383582	-0.221667	-0.001222	-0.062308	0.007330
532	18.952576	0.009125	0.353160	-9.417600	0.000000	-1.132836	0.386567	-0.220000	0.000000	-0.067195	0.007330
533	18.961700	0.009125	0.353160	-9.299880	0.000000	-1.129851	0.383582	-0.225000	0.002443	-0.063530	0.002443
534	18.970825	0.009125	0.588600	-9.535320	-0.235440	-1.128358	0.385075	-0.221667	0.001222	-0.053756	0.012217
535	18.979950	0.009125	0.706320	-9.417600	0.000000	-1.132836	0.386567	-0.225000	0.000000	-0.069639	0.002443
536	18.989105	0.009155	0.353160	-9.417600	0.000000	-1.132836	0.385075	-0.221667	0.008552	-0.056200	0.001222
537	18.998230	0.009125	0.235440	-9.653040	-0.117720	-1.125373	0.383582	-0.225000	-0.012217	-0.059865	0.008552
538	19.007355	0.009125	0.353160	-9.417600	0.000000	-1.131343	0.380597	-0.221667	0.014661	-0.057421	0.009774
539	19.016479	0.009125	0.117720	-9.417600	0.000000	-1.143284	0.373134	-0.205000	-0.001222	-0.059865	0.007330
540	19.025604	0.009125	0.235440	-9.417600	0.000000	-1.135821	0.382090	-0.216667	0.000000	-0.057421	0.006109
541	19.034760	0.009155	0.353160	-9.417600	-0.117720	-1.132836	0.382090	-0.221667	0.007330	-0.054978	0.009774
542	19.043884	0.009125	0.353160	-9.535320	-0.235440	-1.132836	0.383582	-0.218333	0.008552	-0.056200	0.001222
543	19.053619	0.009735	0.117720	-9.417600	-0.235440	-1.129851	0.385075	-0.223333	-0.004887	-0.058643	0.008552
544	19.062134	0.008514	0.353160	-9.417600	-0.353160	-1.131343	0.382090	-0.220000	0.010996	-0.047647	0.010996
545	19.071289	0.009155	0.470880	-9.535320	-0.235440	-1.128358	0.385075	-0.223333	0.002443	-0.062308	0.006109
546	19.080414	0.009125	0.235440	-9.535320	0.000000	-1.126866	0.380597	-0.218333	0.014661	-0.050091	0.002443
547	19.089539	0.009125	0.353160	-9.535320	0.117720	-1.132836	0.382090	-0.225000	0.009774	-0.201586	0.007330
548	19.098663	0.009125	0.470880	-9.299880	0.000000	-1.129851	0.382090	-0.225000	0.006109	-0.057421	0.000000
549	19.107788	0.009125	0.353160	-9.417600	-0.117720	-1.131343	0.385075	-0.221667	-0.004887	-0.067195	0.007330
550	19.116943	0.009155	0.470880	-9.417600	0.000000	-1.132836	0.385075	-0.221667	-0.004887	-0.050091	0.009774
551	19.126068	0.009125	0.470880	-9.417600	0.000000	-1.129851	0.385075	-0.220000	-0.002443	-0.056200	0.013439
552	19.135193	0.009125	0.353160	-9.417600	0.000000	-1.129851	0.385075	-0.223333	0.013439	-0.059865	0.003665
553	19.144318	0.009125	0.588600	-9.653040	-0.117720	-1.125373	0.382090	-0.218333	0.001222	-0.061087	0.015882
554	19.153442	0.009125	0.235440	-9.417600	-0.117720	-1.132836	0.385075	-0.225000	0.003665	-0.043982	0.015882
555	19.162598	0.009155	0.470880	-9.417600	-0.235440	-1.131343	0.383582	-0.220000	0.008552	-0.061087	0.003665
556	19.171722	0.009125	0.235440	-9.535320	0.000000	-1.132836	0.385075	-0.221667	-0.003665	-0.059865	0.008552
557	19.180847	0.009125	0.235440	-9.417600	-0.117720	-1.144776	0.373134	-0.206667	0.006109	-0.051313	0.002443
558	19.189972	0.009125	0.470880	-9.417600	-0.235440	-1.134328	0.382090	-0.215000	0.009774	-0.047647	0.003665
559	19.199127	0.009155	0.706320	-9.417600	0.000000	-1.131343	0.383582	-0.216667	0.014661	-0.063530	0.002443
560	19.208252	0.009125	0.470880	-9.535320	0.000000	-1.125373	0.383582	-0.218333	0.000000	-0.056200	0.010996
561	19.217377	0.009125	0.588600	-9.653040	0.000000	-1.135821	0.385075	-0.221667	0.007330	-0.046426	0.020769
562	19.226501	0.009125	0.470880	-9.535320	0.117720	-1.131343	0.383582	-0.221667	0.001222	-0.048869	0.003665
563	19.235657	0.009155	0.706320	-9.417600	0.117720	-1.129851	0.382090	-0.216667	0.010996	-0.045204	0.018326
564	19.244781	0.009125	0.470880	-9.417600	0.117720	-1.132836	0.386567	-0.221667	0.014661	-0.046426	0.006109
565	19.253906	0.009125	0.353160	-9.299880	0.000000	-1.131343	0.385075	-0.220000	0.000000	-0.058643	0.010996
566	19.263062	0.009155	0.353160	-9.417600	-0.117720	-1.126866	0.383582	-0.221667	0.000000	-0.056200	0.013439
567	19.272186	0.009125	0.588600	-9.417600	-0.117720	-1.129851	0.386567	-0.216667	0.002443	-0.042761	0.012217
568	19.281311	0.009125	0.353160	-9.535320	0.000000	-1.131343	0.385075	-0.220000	0.004887	-0.053756	0.017104
569	19.290436	0.009125	0.353160	-9.535320	0.000000	-1.128358	0.385075	-0.220000	0.002443	-0.059865	0.003665
570	19.299561	0.009125	0.235440	-9.299880	-0.117720	-1.131343	0.385075	-0.223333	0.009774	-0.056200	0.002443
571	19.308716	0.009155	0.235440	-9.182160	0.000000	-1.129851	0.383582	-0.218333	0.006109	-0.061087	0.000000
572	19.317841	0.009125	0.235440	-9.417600	-0.117720	-1.134328	0.386567	-0.221667	-0.004887	-0.061087	0.003665
573	19.326965	0.009125	0.117720	-9.417600	0.000000	-1.132836	0.382090	-0.220000	0.010996	-0.039095	0.012217
574	19.336090	0.009125	0.588600	-9.535320	0.000000	-1.131343	0.383582	-0.221667	0.007330	-0.058643	0.004887
575	19.345215	0.009125	0.470880	-9.535320	0.000000	-1.131343	0.385075	-0.221667	0.006109	-0.059865	0.000000
576	19.354370	0.009155	0.353160	-9.417600	0.117720	-1.141791	0.373134	-0.206667	0.008552	-0.059865	0.003665
577	19.363495	0.009125	0.470880	-9.417600	0.000000	-1.135821	0.382090	-0.218333	0.006109	-0.063530	0.003665
578	19.373596	0.010101	0.235440	-9.299880	0.235440	-1.128358	0.383582	-0.223333	-0.003665	-0.063530	0.006109
579	19.381744	0.008148	0.588600	-9.653040	0.000000	-1.131343	0.380597	-0.223333	0.007330	-0.054978	0.008552
580	19.390869	0.009125	0.353160	-9.535320	-0.117720	-1.132836	0.383582	-0.218333	0.002443	-0.053756	0.009774
581	19.399994	0.009125	0.353160	-9.535320	0.000000	-1.129851	0.382090	-0.221667	0.004887	-0.056200	0.009774
582	19.409119	0.009125	0.588600	-9.417600	-0.235440	-1.129851	0.383582	-0.223333	0.008552	-0.059865	0.002443
583	19.418274	0.009155	0.588600	-9.417600	-0.235440	-1.134328	0.383582	-0.221667	0.003665	-0.064752	-0.008552
584	19.427399	0.009125	0.470880	-9.535320	0.000000	-1.131343	0.385075	-0.221667	0.007330	-0.059865	0.001222
585	19.436523	0.009125	0.470880	-9.535320	0.000000	-1.129851	0.383582	-0.218333	0.007330	-0.058643	0.002443
586	19.445648	0.009125	0.353160	-9.299880	0.000000	-1.129851	0.383582	-0.226667	0.006109	-0.065973	0.000000
587	19.454803	0.009155	0.353160	-9.535320	-0.235440	-1.125373	0.383582	-0.220000	0.007330	-0.054978	0.004887
588	19.463928	0.009125	0.235440	-9.417600	-0.117720	-1.132836	0.382090	-0.221667	0.004887	-0.050091	0.009774
589	19.473053	0.009125	0.117720	-9.417600	-0.235440	-1.129851	0.385075	-0.223333	0.001222	-0.062308	0.001222
590	19.482178	0.009125	0.353160	-9.535320	-0.117720	-1.131343	0.383582	-0.223333	-0.003665	-0.052534	0.012217
591	19.491333	0.009155	0.588600	-9.535320	0.000000	-1.131343	0.382090	-0.223333	0.004887	-0.061087	0.007330
592	19.500458	0.009125	0.470880	-9.417600	0.000000	-1.128358	0.383582	-0.220000	0.003665	-0.048869	0.008552
593	19.509583	0.009125	0.117720	-9.535320	-0.235440	-1.132836	0.385075	-0.226667	0.014661	-0.045204	0.008552
594	19.518738	0.009155	0.353160	-9.417600	0.000000	-1.132836	0.382090	-0.223333	0.013439	-0.043982	0.004887
595	19.527863	0.009125	0.353160	-9.535320	-0.117720	-1.141791	0.368657	-0.203333	0.000000	-0.050091	0.009774
596	19.536987	0.009125	0.235440	-9.417600	0.117720	-1.129851	0.376119	-0.215000	0.012217	-0.052534	0.008552
597	19.546112	0.009125	0.353160	-9.535320	0.000000	-1.132836	0.382090	-0.221667	-0.003665	-0.062308	0.006109
598	19.555237	0.009125	0.588600	-9.299880	0.000000	-1.131343	0.383582	-0.221667	0.006109	-0.061087	0.007330
599	19.564362	0.009125	0.588600	-9.535320	0.000000	-1.134328	0.383582	-0.220000	0.001222	-0.063530	0.006109
600	19.573486	0.009125	0.470880	-9.417600	0.000000	-1.131343	0.383582	-0.221667	0.000000	-0.062308	0.010996
601	19.582611	0.009125	0.470880	-9.417600	-0.117720	-1.129851	0.383582	-0.220000	-0.147829	-0.054978	0.012217
602	19.591766	0.009155	0.353160	-9.535320	0.000000	-1.131343	0.383582	-0.218333	0.015882	-0.043982	0.008552
603	19.600891	0.009125	0.353160	-9.417600	0.117720	-1.131343	0.382090	-0.220000	0.015882	-0.053756	0.008552
604	19.610016	0.009125	0.706320	-9.299880	0.000000	-1.128358	0.385075	-0.223333	0.012217	-0.054978	0.002443
605	19.619141	0.009125	0.706320	-9.535320	0.000000	-1.126866	0.382090	-0.221667	0.012217	-0.052534	0.001222
606	19.628265	0.009125	0.235440	-9.417600	-0.117720	-1.131343	0.382090	-0.220000	0.156382	-0.064752	0.002443
607	19.637421	0.009155	0.353160	-9.535320	-0.117720	-1.129851	0.383582	-0.220000	0.008552	-0.048869	0.007330
608	19.646545	0.009125	0.353160	-9.417600	-0.117720	-1.132836	0.383582	-0.221667	0.001222	-0.050091	0.014661
609	19.655670	0.009125	0.470880	-9.299880	0.000000	-1.132836	0.380597	-0.223333	0.012217	-0.041539	0.019548
610	19.664795	0.009125	0.353160	-9.653040	0.000000	-1.132836	0.383582	-0.223333	0.010996	-0.058643	0.018326
611	19.673950	0.009155	0.235440	-9.417600	0.000000	-1.131343	0.382090	-0.226667	0.000000	-0.061087	0.010996
612	19.683075	0.009125	0.353160	-9.417600	-0.235440	-1.134328	0.383582	-0.221667	0.004887	-0.064752	0.008552
613	19.692200	0.009125	0.235440	-9.417600	-0.117720	-1.146269	0.373134	-0.203333	0.004887	-0.050091	0.012217
614	19.701324	0.009125	0.353160	-9.653040	0.000000	-1.134328	0.382090	-0.215000	0.006109	-0.050091	0.012217
615	19.710480	0.009155	0.588600	-9.417600	0.000000	-1.128358	0.382090	-0.225000	0.001222	-0.053756	0.008552
616	19.719604	0.009125	0.470880	-9.299880	0.117720	-1.129851	0.382090	-0.218333	0.006109	-0.052534	0.010996
617	19.728729	0.009125	0.117720	-9.417600	0.000000	-1.131343	0.385075	-0.223333	0.002443	-0.045204	0.009774
618	19.737854	0.009125	0.353160	-9.417600	-0.117720	-1.129851	0.385075	-0.218333	0.007330	-0.050091	0.007330
619	19.746979	0.009125	0.588600	-9.417600	0.000000	-1.135821	0.382090	-0.225000	0.017104	-0.054978	0.007330
620	19.756104	0.009125	0.588600	-9.653040	0.000000	-1.129851	0.383582	-0.221667	0.009774	-0.062308	0.001222
621	19.765228	0.009125	0.470880	-9.417600	-0.235440	-1.132836	0.382090	-0.216667	0.003665	-0.062308	0.001222
622	19.774384	0.009155	0.353160	-9.535320	0.000000	-1.126866	0.380597	-0.225000	0.004887	-0.058643	0.017104
623	19.783508	0.009125	0.470880	-9.417600	0.117720	-1.129851	0.382090	-0.225000	0.009774	-0.047647	0.014661
624	19.792633	0.009125	0.588600	-9.417600	0.000000	-1.134328	0.383582	-0.221667	0.007330	-0.053756	0.012217
625	19.801758	0.009125	0.353160	-9.299880	-0.117720	-1.132836	0.383582	-0.220000	0.000000	-0.059865	0.001222
626	19.810883	0.009125	0.353160	-9.299880	0.000000	-1.132836	0.385075	-0.223333	-0.001222	-0.061087	-0.001222
627	19.820038	0.009155	0.353160	-9.299880	0.000000	-1.129851	0.383582	-0.218333	0.014661	-0.041539	0.008552
628	19.829163	0.009125	0.470880	-9.417600	-0.117720	-1.128358	0.382090	-0.221667	0.014661	-0.048869	0.009774
629	19.838287	0.009125	0.353160	-9.417600	0.000000	-1.132836	0.383582	-0.218333	0.002443	-0.064752	0.003665
630	19.847412	0.009125	0.588600	-9.299880	0.000000	-1.131343	0.383582	-0.218333	0.006109	-0.053756	0.008552
631	19.856537	0.009125	0.353160	-9.535320	-0.117720	-1.125373	0.380597	-0.223333	0.006109	-0.202807	0.012217
632	19.865692	0.009155	0.353160	-9.417600	-0.117720	-1.144776	0.377612	-0.201667	0.017104	-0.047647	0.006109
633	19.874817	0.009125	0.117720	-9.417600	-0.117720	-1.135821	0.380597	-0.215000	0.013439	-0.061087	0.001222
634	19.883942	0.009125	0.117720	-9.299880	0.000000	-1.132836	0.382090	-0.221667	0.012217	-0.058643	0.002443
635	19.893066	0.009125	0.235440	-9.535320	0.117720	-1.131343	0.380597	-0.221667	0.009774	-0.058643	-0.001222
636	19.902191	0.009125	0.470880	-9.535320	0.000000	-1.132836	0.382090	-0.223333	-0.002443	-0.061087	0.003665
637	19.911346	0.009155	0.235440	-9.417600	0.000000	-1.129851	0.382090	-0.216667	0.002443	-0.063530	0.004887
638	19.920471	0.009125	0.235440	-9.535320	-0.117720	-1.129851	0.382090	-0.221667	0.006109	-0.059865	0.001222
639	19.929596	0.009125	0.470880	-9.535320	0.000000	-1.134328	0.383582	-0.221667	0.009774	-0.058643	0.001222
640	19.938721	0.009125	0.470880	-9.653040	-0.117720	-1.134328	0.385075	-0.220000	0.004887	-0.051313	0.009774
641	19.947845	0.009125	0.353160	-9.417600	0.000000	-1.132836	0.385075	-0.223333	0.009774	-0.045204	0.004887
642	19.956970	0.009125	0.353160	-9.417600	0.117720	-1.129851	0.385075	-0.223333	0.008552	-0.043982	0.019548
643	19.966095	0.009125	0.470880	-9.417600	0.117720	-1.128358	0.382090	-0.221667	0.003665	-0.053756	0.019548
644	19.975250	0.009155	0.353160	-9.535320	0.000000	-1.128358	0.382090	-0.218333	0.013439	-0.050091	0.015882
645	19.984375	0.009125	0.235440	-9.417600	-0.117720	-1.131343	0.382090	-0.220000	0.007330	-0.053756	0.008552
646	19.993500	0.009125	0.353160	-9.417600	0.000000	-1.128358	0.382090	-0.221667	0.003665	-0.058643	0.019548
647	20.002625	0.009125	0.353160	-9.417600	0.000000	-1.131343	0.382090	-0.218333	0.000000	-0.070860	0.000000
648	20.011780	0.009155	0.470880	-9.417600	0.000000	-1.129851	0.385075	-0.221667	0.009774	-0.046426	0.010996
649	20.020905	0.009125	0.353160	-9.299880	0.000000	-1.131343	0.385075	-0.223333	0.009774	-0.053756	0.003665
650	20.030029	0.009125	0.588600	-9.417600	0.000000	-1.144776	0.373134	-0.203333	0.015882	-0.050091	0.003665
651	20.039154	0.009125	0.470880	-9.417600	0.000000	-1.134328	0.379104	-0.218333	0.002443	-0.046426	0.006109
652	20.048279	0.009125	0.353160	-9.299880	-0.117720	-1.132836	0.383582	-0.223333	0.001222	-0.050091	0.013439
653	20.057404	0.009125	0.235440	-9.535320	-0.117720	-1.126866	0.383582	-0.220000	0.002443	-0.045204	0.019548
654	20.066528	0.009125	0.235440	-9.417600	0.000000	-1.131343	0.383582	-0.221667	0.001222	-0.046426	0.013439
655	20.075684	0.009155	0.117720	-9.417600	0.000000	-1.134328	0.382090	-0.216667	0.000000	-0.054978	0.006109
656	20.084808	0.009125	0.470880	-9.417600	-0.117720	-1.132836	0.385075	-0.225000	0.000000	-0.057421	0.004887
657	20.093933	0.009125	0.353160	-9.417600	-0.235440	-1.128358	0.386567	-0.218333	0.013439	-0.051313	0.007330
658	20.103058	0.009125	0.235440	-9.417600	-0.235440	-1.131343	0.382090	-0.218333	0.017104	-0.050091	0.001222
659	20.112183	0.009125	0.235440	-9.535320	0.000000	-1.132836	0.382090	-0.221667	0.000000	-0.052534	0.007330
660	20.121338	0.009155	0.353160	-9.535320	0.000000	-1.131343	0.385075	-0.218333	0.006109	-0.062308	0.000000
661	20.130463	0.009125	0.353160	-9.299880	-0.117720	-1.134328	0.380597	-0.220000	0.008552	-0.052534	-0.003665
662	20.139587	0.009125	0.353160	-9.417600	0.117720	-1.132836	0.383582	-0.216667	-0.004887	-0.051313	0.009774
663	20.148712	0.009125	0.353160	-9.417600	0.117720	-1.128358	0.382090	-0.221667	0.009774	-0.056200	0.008552
664	20.157867	0.009155	0.470880	-9.417600	0.000000	-1.131343	0.385075	-0.218333	-0.008552	-0.062308	0.010996
665	20.166992	0.009125	0.470880	-9.299880	0.000000	-1.132836	0.382090	-0.223333	0.003665	-0.053756	0.009774
666	20.176117	0.009125	0.353160	-9.299880	0.000000	-1.126866	0.383582	-0.225000	0.003665	-0.063530	0.006109
667	20.185272	0.009155	0.353160	-9.417600	0.235440	-1.134328	0.383582	-0.221667	0.003665	-0.043982	0.015882
668	20.194397	0.009125	0.470880	-9.299880	0.000000	-1.132836	0.383582	-0.221667	-0.002443	-0.064752	0.007330
669	20.203522	0.009125	0.353160	-9.417600	0.235440	-1.143284	0.371642	-0.205000	-0.003665	-0.062308	0.006109
670	20.212646	0.009125	0.353160	-9.417600	0.117720	-1.134328	0.380597	-0.216667	0.001222	-0.054978	0.004887
671	20.221802	0.009155	0.706320	-9.417600	0.000000	-1.132836	0.380597	-0.220000	0.017104	-0.048869	0.007330
672	20.230927	0.009125	0.706320	-9.417600	0.000000	-1.129851	0.383582	-0.223333	-0.002443	-0.059865	0.008552
673	20.240051	0.009125	0.353160	-9.299880	-0.117720	-1.134328	0.385075	-0.221667	0.008552	-0.045204	0.008552
674	20.249176	0.009125	0.470880	-9.417600	0.000000	-1.131343	0.380597	-0.223333	0.000000	-0.058643	0.021991
675	20.258301	0.009125	0.353160	-9.299880	0.117720	-1.131343	0.386567	-0.221667	0.010996	-0.052534	0.008552
676	20.267456	0.009155	0.353160	-9.417600	0.000000	-1.128358	0.385075	-0.221667	-0.006109	-0.058643	0.009774
677	20.276581	0.009125	0.353160	-9.417600	-0.235440	-1.128358	0.382090	-0.223333	0.002443	-0.036652	0.019548
678	20.285706	0.009125	0.353160	-9.417600	-0.235440	-1.131343	0.380597	-0.220000	0.008552	-0.046426	0.013439
679	20.294830	0.009125	0.353160	-9.417600	0.117720	-1.132836	0.385075	-0.221667	0.003665	-0.051313	0.004887
680	20.303955	0.009125	0.235440	-9.299880	0.235440	-1.128358	0.382090	-0.223333	-0.150273	-0.052534	0.009774
681	20.313110	0.009155	0.235440	-9.535320	0.000000	-1.131343	0.383582	-0.221667	0.008552	-0.063530	0.003665
682	20.322235	0.009125	0.470880	-9.535320	-0.117720	-1.131343	0.383582	-0.223333	0.013439	-0.047647	0.010996
683	20.331360	0.009125	0.588600	-9.535320	-0.117720	-1.132836	0.382090	-0.225000	0.004887	-0.057421	0.010996
684	20.340515	0.009155	0.353160	-9.417600	0.117720	-1.137313	0.382090	-0.221667	0.001222	-0.052534	0.009774
685	20.349640	0.009125	0.353160	-9.299880	0.000000	-1.132836	0.382090	-0.218333	-0.009774	-0.063530	0.008552
686	20.358765	0.009125	0.470880	-9.417600	-0.235440	-1.131343	0.380597	-0.223333	-0.001222	-0.065973	-0.001222
687	20.367920	0.009155	0.353160	-9.653040	0.000000	-1.144776	0.371642	-0.205000	-0.001222	-0.061087	0.008552
688	20.377045	0.009125	0.117720	-9.417600	0.117720	-1.137313	0.382090	-0.216667	-0.002443	-0.053756	0.008552
689	20.386169	0.009125	0.470880	-9.417600	0.000000	-1.132836	0.382090	-0.220000	0.004887	-0.047647	0.013439
690	20.395294	0.009125	0.353160	-9.417600	0.000000	-1.132836	0.383582	-0.226667	0.008552	-0.059865	0.002443
691	20.404449	0.009155	0.353160	-9.417600	-0.117720	-1.134328	0.382090	-0.221667	-0.009774	-0.058643	0.010996
692	20.413574	0.009125	0.235440	-9.417600	-0.117720	-1.129851	0.385075	-0.221667	0.013439	-0.046426	0.007330
693	20.422699	0.009125	0.588600	-9.535320	-0.117720	-1.132836	0.382090	-0.225000	-0.004887	-0.064752	0.004887
694	20.431854	0.009155	0.235440	-9.535320	0.000000	-1.128358	0.383582	-0.221667	0.004887	-0.052534	0.015882
695	20.440979	0.009125	0.235440	-9.535320	-0.117720	-1.128358	0.385075	-0.220000	0.008552	-0.059865	0.001222
696	20.450104	0.009125	0.353160	-9.417600	0.117720	-1.132836	0.386567	-0.218333	0.006109	-0.057421	0.002443
697	20.459229	0.009125	0.353160	-9.417600	0.117720	-1.129851	0.383582	-0.220000	0.000000	-0.054978	0.007330
698	20.468353	0.009125	0.235440	-9.417600	0.117720	-1.132836	0.383582	-0.226667	0.004887	-0.054978	0.006109
699	20.477478	0.009125	0.117720	-9.653040	0.117720	-1.128358	0.382090	-0.220000	-0.006109	-0.061087	0.017104
700	20.486603	0.009125	0.235440	-9.417600	0.000000	-1.131343	0.383582	-0.221667	0.002443	-0.057421	0.008552
701	20.495758	0.009155	0.235440	-9.417600	0.000000	-1.131343	0.385075	-0.225000	0.008552	-0.058643	0.002443
702	20.504883	0.009125	0.353160	-9.535320	-0.117720	-1.129851	0.382090	-0.220000	0.002443	-0.051313	0.012217
703	20.514008	0.009125	0.588600	-9.417600	0.117720	-1.122388	0.383582	-0.223333	0.004887	-0.056200	0.010996
704	20.523132	0.009125	0.470880	-9.417600	0.235440	-1.132836	0.382090	-0.220000	0.004887	-0.061087	0.008552
705	20.532257	0.009125	0.353160	-9.417600	-0.235440	-1.132836	0.380597	-0.221667	0.004887	-0.047647	0.013439
706	20.541412	0.009155	0.353160	-9.535320	0.000000	-1.144776	0.371642	-0.203333	0.007330	-0.046426	0.003665
707	20.550537	0.009125	0.588600	-9.535320	0.000000	-1.137313	0.380597	-0.218333	0.002443	-0.056200	0.015882
708	20.559662	0.009125	0.353160	-9.299880	0.000000	-1.131343	0.382090	-0.221667	0.008552	-0.040317	0.010996
709	20.568787	0.009125	0.353160	-9.417600	-0.117720	-1.131343	0.383582	-0.220000	0.004887	-0.058643	0.009774
710	20.577942	0.009155	0.235440	-9.535320	-0.117720	-1.128358	0.383582	-0.218333	0.002443	-0.054978	0.004887
711	20.587067	0.009125	0.470880	-9.417600	0.000000	-1.128358	0.380597	-0.221667	-0.004887	-0.056200	0.010996
712	20.596191	0.009125	0.470880	-9.417600	0.000000	-1.132836	0.382090	-0.218333	0.010996	-0.047647	0.006109
713	20.605316	0.009125	0.235440	-9.535320	-0.235440	-1.129851	0.382090	-0.218333	0.000000	-0.062308	0.006109
714	20.614441	0.009125	0.235440	-9.417600	-0.117720	-1.129851	0.380597	-0.216667	0.008552	-0.057421	0.006109
715	20.623596	0.009155	0.235440	-9.299880	-0.235440	-1.132836	0.382090	-0.225000	0.006109	-0.051313	0.007330
716	20.632721	0.009125	0.470880	-9.535320	-0.117720	-1.131343	0.383582	-0.221667	0.012217	-0.050091	0.020769
717	20.641846	0.009125	0.470880	-9.417600	-0.117720	-1.129851	0.383582	-0.218333	0.015882	-0.057421	0.006109
718	20.650970	0.009125	0.470880	-9.417600	0.117720	-1.132836	0.386567	-0.221667	0.008552	-0.063530	0.000000
719	20.660095	0.009125	0.470880	-9.417600	0.000000	-1.131343	0.383582	-0.223333	0.007330	-0.063530	0.002443
720	20.669250	0.009155	0.470880	-9.417600	0.000000	-1.134328	0.383582	-0.225000	0.034208	-0.046426	0.004887
721	20.678375	0.009125	0.706320	-9.653040	0.117720	-1.128358	0.386567	-0.223333	0.024435	-0.048869	0.006109
722	20.687500	0.009125	0.470880	-9.653040	-0.117720	-1.131343	0.380597	-0.223333	0.004887	-0.059865	0.009774
723	20.696625	0.009125	0.353160	-9.417600	-0.117720	-1.132836	0.383582	-0.220000	0.010996	-0.056200	0.007330
724	20.705750	0.009125	0.235440	-9.417600	0.000000	-1.143284	0.373134	-0.206667	0.006109	-0.052534	0.012217
725	20.714905	0.009155	0.235440	-9.535320	-0.117720	-1.135821	0.383582	-0.218333	0.014661	-0.052534	0.006109
726	20.724030	0.009125	0.353160	-9.417600	0.000000	-1.131343	0.382090	-0.220000	0.009774	-0.062308	0.002443
727	20.733337	0.009308	0.353160	-9.417600	0.000000	-1.131343	0.386567	-0.225000	0.002443	-0.059865	0.012217
728	20.742279	0.008942	0.353160	-9.417600	-0.235440	-1.129851	0.380597	-0.223333	0.013439	-0.047647	0.017104
729	20.751404	0.009125	0.470880	-9.417600	-0.353160	-1.129851	0.383582	-0.220000	0.003665	-0.046426	0.013439
730	20.760559	0.009155	0.588600	-9.417600	0.117720	-1.131343	0.383582	-0.225000	0.020769	-0.048869	0.006109
731	20.769684	0.009125	0.353160	-9.535320	0.000000	-1.134328	0.385075	-0.228333	0.000000	-0.042761	0.007330
732	20.778809	0.009125	0.470880	-9.535320	0.000000	-1.129851	0.383582	-0.223333	0.015882	-0.050091	0.006109
733	20.787933	0.009125	0.353160	-9.417600	0.117720	-1.129851	0.386567	-0.225000	0.009774	-0.050091	0.009774
734	20.797058	0.009125	0.470880	-9.535320	-0.117720	-1.135821	0.385075	-0.226667	0.012217	-0.045204	0.014661
735	20.806183	0.009125	0.588600	-9.417600	0.117720	-1.131343	0.382090	-0.225000	0.007330	-0.043982	0.014661
736	20.815338	0.009155	0.353160	-9.535320	0.117720	-1.119403	0.386567	-0.223333	0.012217	-0.043982	0.009774
737	20.824463	0.009125	0.470880	-9.535320	0.000000	-1.129851	0.385075	-0.220000	-0.003665	-0.064752	0.014661
738	20.833588	0.009125	0.353160	-9.417600	0.000000	-1.132836	0.385075	-0.223333	0.008552	-0.051313	0.013439
739	20.842712	0.009125	0.470880	-9.535320	0.117720	-1.131343	0.382090	-0.226667	0.012217	-0.052534	0.015882
740	20.851837	0.009125	0.353160	-9.417600	0.117720	-1.132836	0.383582	-0.221667	-0.002443	-0.059865	0.007330
741	20.860962	0.009125	0.353160	-9.417600	0.000000	-1.129851	0.385075	-0.225000	-0.007330	-0.059865	0.014661
742	20.870087	0.009125	0.470880	-9.417600	-0.117720	-1.129851	0.385075	-0.223333	0.007330	-0.048869	0.009774
743	20.879211	0.009125	0.706320	-9.417600	0.117720	-1.143284	0.374627	-0.208333	0.002443	-0.052534	0.009774
744	20.888367	0.009155	0.588600	-9.417600	0.000000	-1.134328	0.380597	-0.213333	0.006109	-0.054978	0.008552
745	20.897491	0.009125	0.470880	-9.299880	0.000000	-1.134328	0.382090	-0.216667	0.006109	-0.051313	0.019548
746	20.906616	0.009125	0.353160	-9.417600	0.000000	-1.132836	0.383582	-0.223333	0.014661	-0.058643	-0.002443
747	20.915741	0.009125	0.235440	-9.653040	0.000000	-1.131343	0.382090	-0.218333	0.001222	-0.058643	0.006109
748	20.924896	0.009155	0.706320	-9.535320	-0.117720	-1.131343	0.385075	-0.221667	0.004887	-0.050091	0.015882
749	20.934021	0.009125	0.353160	-9.535320	0.000000	-1.129851	0.383582	-0.226667	-0.004887	-0.068417	0.004887
750	20.943146	0.009125	0.470880	-9.417600	0.000000	-1.129851	0.382090	-0.220000	0.007330	-0.051313	0.013439
751	20.952271	0.009125	0.470880	-9.535320	-0.117720	-1.126866	0.383582	-0.220000	0.007330	-0.058643	0.001222
752	20.961395	0.009125	0.235440	-9.535320	-0.235440	-1.128358	0.383582	-0.221667	0.017104	-0.047647	0.004887
753	20.970520	0.009125	0.470880	-9.417600	0.000000	-1.134328	0.386567	-0.225000	0.007330	-0.056200	0.003665
754	20.979675	0.009155	0.470880	-9.417600	0.000000	-1.134328	0.385075	-0.220000	0.001222	-0.058643	0.010996
755	20.988800	0.009125	0.353160	-9.535320	0.117720	-1.134328	0.383582	-0.221667	-0.008552	-0.061087	0.008552
756	20.997925	0.009125	0.353160	-9.417600	0.000000	-1.129851	0.383582	-0.225000	-0.001222	-0.056200	0.003665
757	21.007050	0.009125	0.235440	-9.299880	0.117720	-1.131343	0.385075	-0.221667	0.001222	-0.056200	0.017104
758	21.016174	0.009125	0.353160	-9.417600	0.000000	-1.131343	0.388060	-0.223333	0.002443	-0.061087	0.013439
759	21.025299	0.009125	0.353160	-9.299880	0.000000	-1.126866	0.383582	-0.221667	0.001222	-0.062308	0.008552
760	21.034424	0.009125	0.117720	-9.299880	0.000000	-1.131343	0.382090	-0.220000	0.007330	-0.056200	0.004887
761	21.043579	0.009155	0.235440	-9.299880	0.000000	-1.132836	0.383582	-0.225000	0.019548	-0.059865	0.008552
762	21.053284	0.009705	0.353160	-9.299880	0.000000	-1.143284	0.376119	-0.208333	0.008552	-0.053756	0.002443
763	21.061829	0.008545	0.353160	-9.535320	0.235440	-1.137313	0.379104	-0.220000	0.017104	-0.054978	0.008552
764	21.070953	0.009125	0.117720	-9.299880	0.117720	-1.134328	0.385075	-0.223333	0.010996	-0.050091	0.007330
765	21.080078	0.009125	0.235440	-9.535320	0.117720	-1.132836	0.382090	-0.221667	0.002443	-0.048869	0.012217
766	21.089203	0.009125	0.353160	-9.535320	0.117720	-1.129851	0.385075	-0.221667	0.006109	-0.054978	0.021991
767	21.098328	0.009125	0.353160	-9.535320	0.117720	-1.132836	0.383582	-0.221667	0.009774	-0.045204	0.018326
768	21.107452	0.009125	0.353160	-9.535320	0.117720	-1.132836	0.383582	-0.221667	-0.001222	-0.067195	0.010996
769	21.116608	0.009155	0.235440	-9.535320	0.000000	-1.132836	0.383582	-0.225000	0.003665	-0.059865	0.010996
770	21.125732	0.009125	0.470880	-9.417600	0.235440	-1.129851	0.383582	-0.220000	0.000000	-0.064752	0.004887
771	21.134857	0.009125	0.353160	-9.299880	0.000000	-1.132836	0.385075	-0.225000	0.014661	-0.057421	0.004887
772	21.143982	0.009125	0.235440	-9.417600	0.000000	-1.131343	0.382090	-0.221667	0.009774	-0.063530	-0.003665
773	21.153107	0.009125	0.235440	-9.535320	0.000000	-1.131343	0.383582	-0.220000	0.001222	-0.064752	0.002443
774	21.162231	0.009125	0.235440	-9.417600	0.117720	-1.132836	0.383582	-0.225000	-0.004887	-0.067195	0.004887
775	21.171387	0.009155	0.353160	-9.653040	0.235440	-1.131343	0.385075	-0.225000	0.010996	-0.065973	0.015882
776	21.180511	0.009125	0.470880	-9.417600	0.235440	-1.128358	0.388060	-0.223333	0.008552	-0.046426	0.015882
777	21.189636	0.009125	0.353160	-9.535320	0.235440	-1.132836	0.385075	-0.221667	0.000000	-0.064752	0.014661
778	21.198761	0.009125	0.235440	-9.417600	0.000000	-1.132836	0.385075	-0.221667	0.002443	-0.070860	0.009774
779	21.207886	0.009125	0.353160	-9.417600	0.000000	-1.132836	0.383582	-0.221667	0.021991	-0.052534	0.007330
780	21.217010	0.009125	0.353160	-9.417600	0.000000	-1.138806	0.371642	-0.205000	0.010996	-0.075747	0.009774
781	21.226135	0.009125	0.470880	-9.535320	0.000000	-1.132836	0.382090	-0.213333	0.010996	-0.063530	0.009774
782	21.235260	0.009125	0.470880	-9.417600	0.117720	-1.131343	0.385075	-0.221667	0.004887	-0.064752	0.013439
783	21.244385	0.009125	0.353160	-9.417600	0.000000	-1.128358	0.383582	-0.226667	0.003665	-0.064752	0.003665
784	21.253510	0.009125	0.353160	-9.417600	0.117720	-1.131343	0.383582	-0.220000	-0.002443	-0.064752	0.008552
785	21.262665	0.009155	0.235440	-9.417600	0.000000	-1.129851	0.383582	-0.223333	0.002443	-0.062308	0.015882
786	21.271790	0.009125	0.470880	-9.535320	0.117720	-1.132836	0.383582	-0.221667	0.008552	-0.057421	0.018326
787	21.280914	0.009125	0.470880	-9.417600	0.117720	-1.132836	0.383582	-0.225000	0.004887	-0.064752	0.018326
788	21.290039	0.009125	0.470880	-9.299880	0.117720	-1.132836	0.385075	-0.221667	0.006109	-0.067195	0.014661
789	21.299164	0.009125	0.117720	-9.417600	0.000000	-1.132836	0.385075	-0.220000	0.010996	-0.076969	0.009774
790	21.308289	0.009125	0.353160	-9.535320	0.000000	-1.131343	0.383582	-0.225000	0.002443	-0.072082	0.000000
791	21.317413	0.009125	0.235440	-9.417600	-0.117720	-1.129851	0.383582	-0.223333	0.013439	-0.061087	0.009774
792	21.326538	0.009125	0.235440	-9.417600	0.000000	-1.131343	0.385075	-0.220000	-0.012217	-0.075747	0.010996
793	21.335663	0.009125	0.117720	-9.417600	0.000000	-1.129851	0.383582	-0.218333	-0.009774	-0.075747	0.010996
794	21.344788	0.009125	0.117720	-9.535320	-0.117720	-1.129851	0.386567	-0.220000	-0.006109	-0.083078	0.010996
795	21.353943	0.009155	0.235440	-9.299880	0.117720	-1.132836	0.383582	-0.223333	0.001222	-0.078191	0.018326
796	21.363068	0.009125	0.235440	-9.535320	0.235440	-1.132836	0.383582	-0.223333	0.019548	-0.069639	0.012217
797	21.373230	0.010162	0.470880	-9.535320	0.117720	-1.129851	0.385075	-0.218333	0.000000	-0.076969	0.021991
798	21.381317	0.008087	0.235440	-9.417600	0.000000	-1.138806	0.377612	-0.201667	0.007330	-0.063530	0.010996
799	21.390472	0.009155	0.470880	-9.535320	0.235440	-1.146269	0.373134	-0.210000	0.000000	-0.087965	0.008552
800	21.399597	0.009125	0.470880	-9.653040	0.353160	-1.129851	0.383582	-0.226667	0.004887	-0.081856	0.010996
801	21.408722	0.009125	0.470880	-9.770760	0.353160	-1.128358	0.385075	-0.221667	0.007330	-0.075747	0.010996
802	21.417847	0.009125	0.235440	-9.535320	0.117720	-1.131343	0.385075	-0.221667	0.002443	-0.074526	0.008552
803	21.426971	0.009125	0.353160	-9.535320	0.235440	-1.126866	0.382090	-0.221667	0.017104	-0.073304	0.012217
804	21.436127	0.009155	0.000000	-9.299880	0.353160	-1.132836	0.383582	-0.218333	-0.010996	-0.095295	0.019548
805	21.445251	0.009125	0.235440	-9.299880	0.588600	-1.131343	0.382090	-0.221667	0.012217	-0.085521	0.014661
806	21.454376	0.009125	0.353160	-9.299880	0.588600	-1.129851	0.383582	-0.221667	-0.008552	-0.084299	0.024435
807	21.463531	0.009155	0.470880	-9.299880	0.353160	-1.128358	0.386567	-0.223333	0.013439	-0.086743	0.014661
808	21.472656	0.009125	0.353160	-9.535320	0.353160	-1.128358	0.388060	-0.223333	0.001222	-0.108734	0.013439
809	21.481781	0.009125	0.353160	-9.417600	0.353160	-1.126866	0.383582	-0.223333	0.017104	-0.098960	0.013439
810	21.490906	0.009125	0.353160	-9.417600	0.470880	-1.129851	0.386567	-0.221667	0.008552	-0.103847	0.013439
811	21.500061	0.009155	0.470880	-9.299880	0.235440	-1.128358	0.385075	-0.218333	0.008552	-0.102625	0.019548
812	21.509186	0.009125	0.235440	-9.417600	0.470880	-1.126866	0.383582	-0.218333	0.007330	-0.109956	0.008552
813	21.518311	0.009125	0.117720	-9.417600	0.353160	-1.125373	0.385075	-0.220000	0.003665	-0.112399	0.024435
814	21.527435	0.009125	0.235440	-9.417600	0.470880	-1.129851	0.385075	-0.218333	0.002443	-0.125838	0.010996
815	21.536560	0.009125	0.235440	-9.535320	0.588600	-1.126866	0.388060	-0.221667	0.002443	-0.125838	0.009774
816	21.545715	0.009155	0.235440	-9.535320	0.706320	-1.129851	0.385075	-0.221667	0.015882	-0.111177	0.019548
817	21.554840	0.009125	0.235440	-9.417600	0.824040	-1.140299	0.374627	-0.203333	0.006109	-0.133169	0.018326
818	21.563965	0.009125	0.353160	-9.417600	0.941760	-1.134328	0.382090	-0.216667	0.000000	-0.145386	0.020769
819	21.573090	0.009125	0.353160	-9.417600	0.706320	-1.126866	0.385075	-0.218333	0.018326	-0.139277	0.018326
820	21.582245	0.009155	0.353160	-9.417600	0.941760	-1.128358	0.386567	-0.216667	0.025656	-0.150273	0.015882
821	21.591370	0.009125	0.235440	-9.417600	0.706320	-1.123881	0.385075	-0.216667	0.007330	-0.157603	0.028100
822	21.600494	0.009125	0.353160	-9.417600	0.824040	-1.126866	0.383582	-0.215000	0.007330	-0.169821	0.019548
823	21.609619	0.009125	0.353160	-9.417600	0.941760	-1.122388	0.385075	-0.218333	0.009774	-0.163712	0.026878
824	21.618744	0.009125	0.353160	-9.417600	0.941760	-1.125373	0.388060	-0.220000	0.017104	-0.178373	0.012217
825	21.627899	0.009155	0.235440	-9.299880	0.706320	-1.125373	0.385075	-0.220000	0.008552	-0.190590	0.009774
826	21.637024	0.009125	0.353160	-9.417600	0.941760	-1.123881	0.388060	-0.218333	0.007330	-0.194255	0.009774
827	21.646149	0.009125	0.235440	-9.535320	0.824040	-1.123881	0.386567	-0.215000	0.013439	-0.196699	0.014661
828	21.655273	0.009125	0.117720	-9.417600	0.941760	-1.125373	0.386567	-0.213333	0.008552	-0.211359	0.021991
829	21.664398	0.009125	0.235440	-9.535320	0.824040	-1.122388	0.385075	-0.213333	0.023213	-0.195477	0.031765
830	21.673523	0.009125	0.588600	-9.417600	0.588600	-1.119403	0.386567	-0.215000	0.010996	-0.218690	0.030543
831	21.682678	0.009155	0.117720	-9.417600	0.824040	-1.120896	0.385075	-0.211667	0.008552	-0.229685	0.025656
832	21.691803	0.009125	0.353160	-9.417600	1.177200	-1.120896	0.385075	-0.216667	0.020769	-0.229685	0.030543
833	21.700928	0.009125	0.235440	-9.299880	1.059480	-1.122388	0.385075	-0.210000	0.015882	-0.245568	0.024435
834	21.710052	0.009125	0.353160	-9.299880	1.059480	-1.120896	0.386567	-0.213333	0.036652	-0.238237	0.026878
835	21.719177	0.009125	0.353160	-9.299880	1.177200	-1.120896	0.388060	-0.213333	0.026878	-0.249233	0.026878
836	21.728333	0.009155	0.235440	-9.299880	1.177200	-1.132836	0.377612	-0.195000	0.013439	-0.268781	0.030543
837	21.737457	0.009125	0.353160	-9.299880	1.059480	-1.120896	0.385075	-0.206667	0.020769	-0.272446	0.030543
838	21.746582	0.009125	0.353160	-9.417600	0.941760	-1.113433	0.386567	-0.215000	0.017104	-0.279776	0.019548
839	21.755707	0.009125	0.353160	-9.417600	1.177200	-1.113433	0.386567	-0.208333	0.013439	-0.278555	0.037874
840	21.764862	0.009155	0.235440	-9.299880	1.294920	-1.114925	0.386567	-0.211667	0.019548	-0.307876	0.030543
841	21.773987	0.009125	0.117720	-9.299880	1.177200	-1.110448	0.392537	-0.210000	0.026878	-0.294437	0.034208
842	21.783112	0.009125	0.353160	-9.535320	1.177200	-1.114925	0.388060	-0.210000	0.024435	-0.315206	0.036652
843	21.792267	0.009155	0.235440	-9.299880	1.412640	-1.110448	0.389552	-0.210000	0.025656	-0.326202	0.029322
844	21.801392	0.009125	0.235440	-9.299880	1.177200	-1.113433	0.389552	-0.211667	0.019548	-0.335976	0.036652
845	21.810516	0.009125	0.117720	-9.417600	1.294920	-1.110448	0.391045	-0.206667	0.018326	-0.349415	0.042761
846	21.819672	0.009155	0.235440	-9.417600	1.412640	-1.108955	0.389552	-0.208333	0.018326	-0.361632	0.035430
847	21.828796	0.009125	0.235440	-9.417600	1.177200	-1.105970	0.388060	-0.203333	0.028100	-0.361632	0.036652
848	21.837921	0.009125	0.117720	-9.417600	1.059480	-1.107463	0.389552	-0.203333	0.034208	-0.367741	0.030543
849	21.847046	0.009125	0.353160	-9.417600	1.294920	-1.102985	0.386567	-0.206667	0.026878	-0.372628	0.035430
850	21.856201	0.009155	0.235440	-9.299880	1.177200	-1.098507	0.389552	-0.206667	0.020769	-0.387289	0.037874
851	21.865326	0.009125	0.235440	-9.535320	1.177200	-1.101493	0.391045	-0.203333	0.030543	-0.405615	0.029322
852	21.874451	0.009125	0.117720	-9.535320	1.059480	-1.101493	0.389552	-0.205000	0.030543	-0.411723	0.030543
853	21.883575	0.009125	0.117720	-9.417600	0.941760	-1.097015	0.392537	-0.201667	0.028100	-0.400728	0.034208
854	21.892731	0.009155	0.117720	-9.535320	1.059480	-1.110448	0.380597	-0.185000	0.024435	-0.410501	0.045204
855	21.901855	0.009125	0.117720	-9.417600	0.941760	-1.100000	0.389552	-0.193333	0.035430	-0.430049	0.039095
856	21.910980	0.009125	0.235440	-9.535320	1.059480	-1.098507	0.392537	-0.198333	0.036652	-0.431271	0.043982
857	21.920105	0.009125	0.117720	-9.299880	0.824040	-1.095522	0.391045	-0.200000	0.030543	-0.448375	0.039095
858	21.929230	0.009125	0.235440	-9.417600	0.706320	-1.091045	0.392537	-0.200000	0.028100	-0.455705	0.037874
859	21.938385	0.009155	0.117720	-9.535320	0.824040	-1.088060	0.392537	-0.201667	0.046426	-0.444710	0.045204
860	21.947510	0.009125	0.000000	-9.653040	0.941760	-1.091045	0.394030	-0.198333	0.047647	-0.459371	0.036652
861	21.956635	0.009125	0.000000	-9.417600	1.059480	-1.089552	0.394030	-0.200000	0.021991	-0.476475	0.047647
862	21.965759	0.009125	0.000000	-9.417600	0.824040	-1.086567	0.394030	-0.195000	0.045204	-0.476475	0.037874
863	21.974915	0.009155	0.117720	-9.182160	0.824040	-1.085075	0.394030	-0.195000	0.034208	-0.487470	0.036652
864	21.984039	0.009125	0.117720	-9.417600	0.706320	-1.080597	0.395522	-0.193333	0.029322	-0.489914	0.040317
865	21.993164	0.009125	0.000000	-9.417600	0.706320	-1.079104	0.394030	-0.196667	0.032987	-0.483805	0.045204
866	22.002289	0.009125	0.000000	-9.299880	0.941760	-1.080597	0.395522	-0.196667	0.030543	-0.504575	0.040317
867	22.011444	0.009155	0.117720	-9.535320	0.941760	-1.077612	0.395522	-0.193333	0.029322	-0.511905	0.046426
868	22.020569	0.009125	0.000000	-9.417600	0.824040	-1.070149	0.397015	-0.195000	0.026878	-0.367741	0.042761
869	22.029724	0.009155	0.117720	-9.417600	0.824040	-1.073134	0.398507	-0.190000	0.051313	-0.521679	0.041539
870	22.038849	0.009125	-0.117720	-9.535320	0.941760	-1.073134	0.395522	-0.193333	0.020769	-0.535118	0.047647
871	22.047974	0.009125	0.000000	-9.299880	0.941760	-1.070149	0.397015	-0.193333	0.031765	-0.546114	0.041539
872	22.057129	0.009155	0.000000	-9.417600	0.706320	-1.070149	0.397015	-0.190000	0.045204	-0.549779	0.036652
873	22.066254	0.009125	0.000000	-9.653040	0.824040	-1.074627	0.388060	-0.173333	0.032987	-0.538783	0.045204
874	22.075378	0.009125	0.000000	-9.535320	0.941760	-1.067164	0.395522	-0.188333	0.040317	-0.564439	0.042761
875	22.084534	0.009155	0.000000	-9.535320	0.824040	-1.056716	0.397015	-0.188333	0.051313	-0.559553	0.042761
876	22.093658	0.009125	-0.117720	-9.535320	0.941760	-1.058209	0.400000	-0.188333	0.039095	-0.566883	0.043982
877	22.102783	0.009125	0.000000	-9.417600	0.824040	-1.055224	0.400000	-0.191667	0.054978	-0.568105	0.041539
878	22.111938	0.009155	-0.117720	-9.417600	0.824040	-1.056716	0.400000	-0.193333	0.029322	-0.581544	0.052534
879	22.121063	0.009125	0.000000	-9.535320	0.706320	-1.052239	0.398507	-0.186667	0.039095	-0.598648	0.032987
880	22.130219	0.009155	0.000000	-9.535320	0.470880	-1.049254	0.401493	-0.190000	0.054978	-0.579100	0.041539
881	22.139343	0.009125	0.000000	-9.417600	0.470880	-1.049254	0.398507	-0.190000	0.036652	-0.599870	0.046426
882	22.148468	0.009125	0.000000	-9.417600	0.353160	-1.044776	0.400000	-0.185000	0.050091	-0.593761	0.037874
883	22.157593	0.009125	0.000000	-9.653040	0.470880	-1.041791	0.401493	-0.188333	0.047647	-0.594983	0.037874
884	22.166748	0.009155	-0.235440	-9.417600	0.588600	-1.038806	0.401493	-0.190000	0.051313	-0.605978	0.046426
885	22.175873	0.009125	0.000000	-9.417600	0.235440	-1.032836	0.405970	-0.188333	0.046426	-0.604757	0.042761
886	22.184998	0.009125	0.000000	-9.417600	0.353160	-1.032836	0.400000	-0.186667	0.035430	-0.608422	0.046426
887	22.194153	0.009155	-0.235440	-9.417600	0.117720	-1.031343	0.401493	-0.193333	0.052534	-0.598648	0.047647
888	22.203278	0.009125	-0.235440	-9.417600	0.235440	-1.026866	0.401493	-0.186667	0.039095	-0.620639	0.045204
889	22.212402	0.009125	-0.235440	-9.417600	0.235440	-1.026866	0.401493	-0.190000	0.039095	-0.613309	0.048869
890	22.221527	0.009125	-0.117720	-9.535320	0.000000	-1.022388	0.404478	-0.186667	0.046426	-0.604757	0.048869
891	22.230682	0.009155	0.000000	-9.535320	0.235440	-1.034328	0.392537	-0.171667	0.040317	-0.615752	0.042761
892	22.239807	0.009125	0.000000	-9.653040	0.000000	-1.023881	0.401493	-0.178333	0.046426	-0.613309	0.043982
893	22.248932	0.009125	0.000000	-9.535320	-0.117720	-1.016418	0.407463	-0.188333	0.045204	-0.620639	0.048869
894	22.258057	0.009125	0.000000	-9.653040	0.117720	-1.014925	0.405970	-0.186667	0.045204	-0.620639	0.039095
895	22.267212	0.009155	0.000000	-9.417600	0.117720	-1.010448	0.405970	-0.181667	0.053756	-0.604757	0.048869
896	22.276337	0.009125	-0.117720	-9.299880	0.353160	-1.007463	0.405970	-0.185000	0.041539	-0.623083	0.039095
897	22.285461	0.009125	-0.117720	-9.535320	0.353160	-1.007463	0.407463	-0.185000	0.039095	-0.629191	0.051313
898	22.294586	0.009125	-0.117720	-9.417600	0.117720	-1.002985	0.407463	-0.183333	0.039095	-0.624304	0.045204
899	22.303741	0.009155	-0.117720	-9.299880	0.117720	-1.001493	0.407463	-0.186667	0.050091	-0.629191	0.043982
900	22.312866	0.009125	-0.117720	-9.417600	0.353160	-0.998507	0.408955	-0.185000	0.046426	-0.637743	0.043982
901	22.321991	0.009125	-0.235440	-9.535320	0.235440	-0.997015	0.407463	-0.186667	0.051313	-0.621861	0.058643
902	22.331116	0.009125	-0.117720	-9.535320	0.117720	-0.992537	0.407463	-0.186667	0.041539	-0.645074	0.046426
903	22.340271	0.009155	-0.117720	-9.535320	-0.117720	-0.988060	0.410448	-0.188333	0.048869	-0.627969	0.050091
904	22.349396	0.009125	-0.117720	-9.299880	0.000000	-0.986567	0.408955	-0.191667	0.045204	-0.629191	0.052534
905	22.358521	0.009125	-0.235440	-9.417600	0.000000	-0.985075	0.410448	-0.185000	0.037874	-0.637743	0.058643
906	22.367645	0.009125	-0.353160	-9.535320	-0.117720	-0.985075	0.408955	-0.186667	0.046426	-0.632856	0.050091
907	22.376801	0.009155	0.000000	-9.417600	0.000000	-0.980597	0.408955	-0.188333	0.057421	-0.642630	0.048869
908	22.385925	0.009125	0.000000	-9.535320	0.000000	-0.977612	0.410448	-0.195000	0.065973	-0.629191	0.046426
909	22.395050	0.009125	-0.117720	-9.653040	-0.235440	-0.973134	0.411940	-0.193333	0.101404	-0.625526	0.046426
910	22.404175	0.009125	-0.235440	-9.770760	-0.353160	-0.985075	0.400000	-0.175000	0.046426	-0.641409	0.039095
911	22.413330	0.009155	-0.235440	-9.417600	-0.588600	-0.973134	0.414925	-0.188333	0.040317	-0.627969	0.048869
912	22.422455	0.009125	-0.117720	-9.535320	-0.235440	-0.964179	0.410448	-0.190000	0.048869	-0.630413	0.048869
913	22.431580	0.009125	0.000000	-9.417600	-0.235440	-0.961194	0.411940	-0.195000	0.042761	-0.626748	0.046426
914	22.440704	0.009125	0.000000	-9.653040	-0.235440	-0.959701	0.410448	-0.193333	0.041539	-0.630413	0.043982
915	22.449829	0.009125	-0.235440	-9.653040	-0.117720	-0.956716	0.414925	-0.196667	0.041539	-0.615752	0.054978
916	22.458984	0.009155	-0.117720	-9.653040	-0.235440	-0.952239	0.408955	-0.198333	0.040317	-0.630413	0.043982
917	22.468109	0.009125	-0.117720	-9.535320	-0.353160	-0.952239	0.411940	-0.198333	0.048869	-0.621861	0.034208
918	22.477234	0.009125	-0.117720	-9.535320	-0.235440	-0.950746	0.414925	-0.198333	0.034208	-0.618196	0.053756
919	22.486389	0.009155	-0.117720	-9.535320	-0.470880	-0.943284	0.411940	-0.196667	0.043982	-0.603535	0.039095
920	22.495514	0.009125	0.000000	-9.417600	-0.117720	-0.944776	0.414925	-0.198333	0.043982	-0.604757	0.048869
921	22.504639	0.009125	-0.117720	-9.299880	-0.353160	-0.940299	0.408955	-0.201667	0.040317	-0.610865	0.043982
922	22.513763	0.009125	0.000000	-9.417600	-0.470880	-0.941791	0.411940	-0.200000	0.046426	-0.612087	0.040317
923	22.522919	0.009155	0.000000	-9.417600	-0.235440	-0.937313	0.410448	-0.203333	0.034208	-0.609644	0.036652
924	22.532043	0.009125	0.000000	-9.417600	-0.470880	-0.935821	0.410448	-0.203333	0.042761	-0.610865	0.032987
925	22.541168	0.009125	-0.117720	-9.535320	-0.470880	-0.934328	0.413433	-0.205000	0.037874	-0.599870	0.042761
926	22.550293	0.009125	0.000000	-9.535320	-0.470880	-0.928358	0.414925	-0.208333	0.051313	-0.594983	0.046426
927	22.559448	0.009155	0.000000	-9.535320	-0.235440	-0.926866	0.413433	-0.208333	0.045204	-0.591318	0.048869
928	22.568573	0.009125	0.000000	-9.535320	-0.353160	-0.923881	0.413433	-0.210000	0.050091	-0.599870	0.041539
929	22.577698	0.009125	0.000000	-9.417600	-0.470880	-0.941791	0.407463	-0.205000	0.037874	-0.608422	0.039095
930	22.586823	0.009125	-0.117720	-9.417600	-0.470880	-0.934328	0.401493	-0.196667	0.037874	-0.593761	0.042761
931	22.595947	0.009125	0.000000	-9.535320	-0.353160	-0.919403	0.413433	-0.210000	0.051313	-0.576657	0.042761
932	22.605103	0.009155	-0.117720	-9.535320	-0.353160	-0.913433	0.411940	-0.211667	0.046426	-0.583987	0.045204
933	22.614227	0.009125	0.000000	-9.417600	-0.353160	-0.913433	0.413433	-0.213333	0.030543	-0.581544	0.047647
934	22.623352	0.009125	0.117720	-9.535320	-0.235440	-0.910448	0.414925	-0.215000	0.041539	-0.571770	0.047647
935	22.632477	0.009125	0.000000	-9.653040	-0.706320	-0.908955	0.414925	-0.216667	0.046426	-0.568105	0.026878
936	22.641602	0.009125	0.000000	-9.535320	-0.706320	-0.904478	0.413433	-0.218333	0.042761	-0.576657	0.034208
937	22.650757	0.009155	0.000000	-9.653040	-0.353160	-0.905970	0.413433	-0.218333	0.036652	-0.564439	0.042761
938	22.659882	0.009125	0.117720	-9.535320	-0.706320	-0.898507	0.416418	-0.223333	0.047647	-0.549779	0.045204
939	22.669006	0.009125	0.000000	-9.653040	-0.470880	-0.898507	0.411940	-0.221667	0.021991	-0.576657	0.042761
940	22.678131	0.009125	0.000000	-9.299880	-0.470880	-0.900000	0.411940	-0.225000	0.041539	-0.555887	0.045204
941	22.687286	0.009155	-0.117720	-9.417600	-0.941760	-0.892537	0.411940	-0.226667	0.037874	-0.551000	0.034208
942	22.696411	0.009125	0.000000	-9.535320	-0.706320	-0.895522	0.414925	-0.228333	0.059865	-0.536340	0.035430
943	22.705536	0.009125	0.117720	-9.417600	-0.941760	-0.892537	0.411940	-0.230000	0.039095	-0.549779	0.041539
944	22.714661	0.009125	0.000000	-9.417600	-0.824040	-0.892537	0.411940	-0.230000	0.041539	-0.549779	0.025656
945	22.723785	0.009125	0.000000	-9.535320	-0.706320	-0.886567	0.411940	-0.231667	0.035430	-0.530231	0.034208
946	22.733002	0.009216	0.000000	-9.653040	-0.706320	-0.886567	0.410448	-0.231667	0.053756	-0.515570	0.034208
947	22.742065	0.009064	-0.117720	-9.653040	-0.706320	-0.895522	0.402985	-0.211667	0.037874	-0.526566	0.032987
948	22.751190	0.009125	0.000000	-9.299880	-0.470880	-0.886567	0.407463	-0.228333	0.047647	-0.514349	0.037874
949	22.760315	0.009125	0.235440	-9.417600	-0.706320	-0.877612	0.410448	-0.238333	0.041539	-0.519235	0.028100
950	22.769440	0.009125	0.235440	-9.653040	-0.706320	-0.876119	0.413433	-0.238333	0.037874	-0.503353	0.040317
951	22.778564	0.009125	0.000000	-9.535320	-0.824040	-0.877612	0.411940	-0.240000	0.042761	-0.504575	0.028100
952	22.787689	0.009125	0.000000	-9.417600	-0.706320	-0.874627	0.411940	-0.240000	0.050091	-0.493579	0.032987
953	22.796814	0.009125	0.117720	-9.535320	-0.941760	-0.870149	0.411940	-0.248333	0.041539	-0.487470	0.031765
954	22.805969	0.009155	0.000000	-9.417600	-0.824040	-0.864179	0.413433	-0.245000	0.043982	-0.483805	0.031765
955	22.815094	0.009125	0.000000	-9.535320	-0.588600	-0.870149	0.414925	-0.248333	0.031765	-0.492357	0.037874
956	22.824219	0.009125	0.117720	-9.535320	-0.588600	-0.868657	0.413433	-0.246667	0.035430	-0.472810	0.031765
957	22.833344	0.009125	0.117720	-9.417600	-0.941760	-0.862687	0.413433	-0.250000	0.023213	-0.471588	0.031765
958	22.842468	0.009125	0.117720	-9.535320	-0.824040	-0.862687	0.411940	-0.250000	0.017104	-0.475253	0.037874
959	22.851593	0.009125	0.117720	-9.417600	-0.706320	-0.861194	0.410448	-0.253333	0.026878	-0.472810	0.029322
960	22.860718	0.009125	0.117720	-9.417600	-0.941760	-0.859701	0.411940	-0.250000	0.029322	-0.460592	0.030543
961	22.869873	0.009155	0.117720	-9.417600	-0.824040	-0.858209	0.413433	-0.255000	0.025656	-0.452040	0.032987
962	22.878998	0.009125	0.000000	-9.535320	-0.706320	-0.858209	0.411940	-0.253333	0.045204	-0.434936	0.028100
963	22.888123	0.009125	0.000000	-9.299880	-0.824040	-0.858209	0.408955	-0.260000	0.023213	-0.442266	0.032987
964	22.897278	0.009155	0.000000	-9.417600	-0.588600	-0.859701	0.411940	-0.260000	0.035430	-0.433714	0.031765
965	22.906403	0.009125	0.235440	-9.417600	-0.706320	-0.867164	0.402985	-0.240000	0.030543	-0.433714	0.023213
966	22.915527	0.009125	0.235440	-9.417600	-0.588600	-0.856716	0.408955	-0.258333	0.037874	-0.410501	0.035430
967	22.924652	0.009125	0.235440	-9.299880	-0.706320	-0.850746	0.411940	-0.266667	0.026878	-0.415388	0.031765
968	22.933777	0.009125	0.235440	-9.417600	-0.588600	-0.850746	0.411940	-0.265000	0.029322	-0.419054	0.025656
969	22.942932	0.009155	0.235440	-9.299880	-0.706320	-0.847761	0.408955	-0.265000	0.025656	-0.411723	0.029322
970	22.952057	0.009125	0.235440	-9.535320	-0.235440	-0.850746	0.411940	-0.268333	0.025656	-0.404393	0.031765
971	22.961182	0.009125	0.117720	-9.653040	-0.353160	-0.846269	0.410448	-0.273333	0.036652	-0.403171	0.026878
972	22.970306	0.009125	0.117720	-9.417600	-0.588600	-0.846269	0.407463	-0.270000	0.026878	-0.386067	0.031765
973	22.979462	0.009155	0.117720	-9.535320	-0.588600	-0.840299	0.410448	-0.275000	0.028100	-0.404393	0.028100
974	22.988586	0.009125	0.117720	-9.299880	-0.824040	-0.846269	0.410448	-0.275000	0.041539	-0.387289	0.015882
975	22.997711	0.009125	0.117720	-9.535320	-0.353160	-0.838806	0.411940	-0.276667	0.017104	-0.386067	0.036652
976	23.006866	0.009155	0.117720	-9.535320	-0.235440	-0.843284	0.410448	-0.280000	0.025656	-0.382402	0.035430
977	23.015991	0.009125	0.117720	-9.417600	-0.470880	-0.840299	0.411940	-0.280000	0.036652	-0.381180	0.018326
978	23.025116	0.009125	0.117720	-9.417600	-0.470880	-0.835821	0.410448	-0.280000	0.032987	-0.372628	0.026878
979	23.034241	0.009125	0.117720	-9.299880	-0.235440	-0.837313	0.411940	-0.286667	0.034208	-0.371406	0.030543
980	23.043396	0.009155	0.235440	-9.299880	-0.117720	-0.837313	0.411940	-0.283333	0.012217	-0.373850	0.032987
981	23.052948	0.009552	0.117720	-9.417600	-0.706320	-0.832836	0.405970	-0.283333	0.025656	-0.368963	0.030543
982	23.061646	0.008698	0.235440	-9.653040	-0.470880	-0.837313	0.407463	-0.280000	0.040317	-0.365297	0.031765
983	23.070770	0.009125	0.117720	-9.653040	-0.470880	-0.834328	0.410448	-0.286667	0.035430	-0.360410	0.026878
984	23.079895	0.009125	0.117720	-9.535320	-0.706320	-0.846269	0.400000	-0.271667	0.019548	-0.370184	0.028100
985	23.089050	0.009155	0.353160	-9.417600	-0.824040	-0.835821	0.405970	-0.285000	0.029322	-0.357967	0.023213
986	23.098175	0.009125	0.117720	-9.535320	-0.824040	-0.831343	0.410448	-0.290000	0.019548	-0.359189	0.024435
987	23.107300	0.009125	0.000000	-9.653040	-0.706320	-0.831343	0.405970	-0.291667	0.032987	-0.346971	0.017104
988	23.116455	0.009155	0.235440	-9.535320	-0.470880	-0.829851	0.407463	-0.293333	0.019548	-0.337198	0.034208
989	23.125580	0.009125	0.235440	-9.535320	-0.117720	-0.828358	0.405970	-0.293333	0.009774	-0.346971	0.019548
990	23.134705	0.009125	0.235440	-9.299880	-0.470880	-0.825373	0.405970	-0.293333	0.023213	-0.326202	0.028100
991	23.143829	0.009125	0.117720	-9.299880	-0.706320	-0.825373	0.405970	-0.298333	0.035430	-0.315206	0.025656
992	23.152954	0.009125	0.117720	-9.417600	-0.588600	-0.828358	0.407463	-0.295000	0.024435	-0.312763	0.021991
993	23.162109	0.009155	0.353160	-9.535320	-0.588600	-0.825373	0.407463	-0.298333	0.015882	-0.301767	0.026878
994	23.171234	0.009125	0.235440	-9.535320	-0.941760	-0.825373	0.407463	-0.301667	0.030543	-0.305433	0.018326
995	23.180359	0.009125	0.117720	-9.535320	-0.588600	-0.823881	0.405970	-0.301667	0.031765	-0.306654	0.023213
996	23.189484	0.009125	0.117720	-9.417600	-0.470880	-0.822388	0.405970	-0.308333	0.021991	-0.305433	0.023213
997	23.198608	0.009125	0.353160	-9.417600	-0.588600	-0.822388	0.407463	-0.303333	0.021991	-0.304211	0.024435
998	23.207733	0.009125	0.117720	-9.417600	-0.706320	-0.823881	0.404478	-0.303333	0.020769	-0.296881	0.018326
999	23.216858	0.009125	0.117720	-9.417600	-0.353160	-0.820896	0.404478	-0.308333	0.025656	-0.274889	0.015882
1000	23.226013	0.009155	0.353160	-9.535320	-0.470880	-0.816418	0.405970	-0.308333	0.018326	-0.283441	0.021991
1001	23.235138	0.009125	0.470880	-9.535320	-0.706320	-0.822388	0.407463	-0.306667	0.035430	-0.265116	0.019548
1002	23.244263	0.009125	0.470880	-9.535320	-0.824040	-0.822388	0.404478	-0.311667	0.007330	-0.277333	0.020769
1003	23.253418	0.009155	0.353160	-9.417600	-0.706320	-0.831343	0.395522	-0.295000	0.025656	-0.256563	0.019548
1004	23.262543	0.009125	0.588600	-9.417600	-0.706320	-0.825373	0.404478	-0.306667	0.028100	-0.260229	0.014661
1005	23.271667	0.009125	0.588600	-9.417600	-0.588600	-0.820896	0.404478	-0.311667	0.023213	-0.254120	0.015882
1006	23.280792	0.009125	0.470880	-9.299880	-0.706320	-0.813433	0.404478	-0.310000	0.031765	-0.234572	0.020769
1007	23.289917	0.009125	0.470880	-9.417600	-1.059480	-0.816418	0.405970	-0.313333	0.009774	-0.249233	0.014661
1008	23.299072	0.009155	0.353160	-9.535320	-0.706320	-0.819403	0.405970	-0.313333	0.014661	-0.241903	0.014661
1009	23.308197	0.009125	0.117720	-9.535320	-1.059480	-0.813433	0.407463	-0.313333	0.024435	-0.228464	0.010996
1010	23.317322	0.009125	0.117720	-9.417600	-0.941760	-0.816418	0.404478	-0.315000	0.024435	-0.218690	0.010996
1011	23.326447	0.009125	0.117720	-9.535320	-1.177200	-0.813433	0.404478	-0.321667	0.013439	-0.211359	0.013439
1012	23.335571	0.009125	0.353160	-9.299880	-0.941760	-0.813433	0.404478	-0.318333	0.007330	-0.202807	0.019548
1013	23.344727	0.009155	0.353160	-9.535320	-0.941760	-0.819403	0.402985	-0.320000	0.013439	-0.217468	0.004887
1014	23.353851	0.009125	0.353160	-9.535320	-0.824040	-0.814925	0.404478	-0.315000	0.018326	-0.189368	0.007330
1015	23.362976	0.009125	0.470880	-9.417600	-0.824040	-0.811940	0.404478	-0.318333	0.013439	-0.189368	0.009774
1016	23.372894	0.009918	0.353160	-9.417600	-1.059480	-0.816418	0.405970	-0.318333	0.017104	-0.173486	0.007330
1017	23.381226	0.008331	0.353160	-9.417600	-1.294920	-0.813433	0.408955	-0.321667	0.018326	-0.171042	0.004887
1018	23.390350	0.009125	0.117720	-9.299880	-1.177200	-0.813433	0.402985	-0.321667	0.012217	-0.167377	0.003665
1019	23.399506	0.009155	0.353160	-9.417600	-1.059480	-0.816418	0.404478	-0.321667	0.010996	-0.147829	0.004887
1020	23.408630	0.009125	0.470880	-9.417600	-0.824040	-0.813433	0.404478	-0.325000	0.015882	-0.145386	0.006109
1021	23.417755	0.009125	0.588600	-9.535320	-0.824040	-0.825373	0.394030	-0.305000	0.021991	-0.130725	0.006109
1022	23.426880	0.009125	0.470880	-9.653040	-1.059480	-0.817910	0.400000	-0.316667	0.001222	-0.119730	0.014661
1023	23.436005	0.009125	0.117720	-9.417600	-0.824040	-0.810448	0.405970	-0.320000	0.020769	-0.116064	0.013439
1024	23.445160	0.009155	0.470880	-9.417600	-0.824040	-0.811940	0.404478	-0.321667	0.014661	-0.106291	0.008552
1025	23.454285	0.009125	0.353160	-9.417600	-0.824040	-0.808955	0.405970	-0.325000	0.004887	-0.102625	0.008552
1026	23.463409	0.009125	0.470880	-9.417600	-0.706320	-0.816418	0.402985	-0.325000	0.017104	-0.095295	0.006109
1027	23.472565	0.009155	0.353160	-9.299880	-0.706320	-0.814925	0.405970	-0.321667	-0.006109	-0.092852	0.009774
1028	23.481689	0.009125	0.353160	-9.653040	-0.706320	-0.814925	0.405970	-0.323333	0.009774	-0.083078	0.009774
1029	23.490814	0.009125	0.235440	-9.653040	-0.706320	-0.813433	0.405970	-0.323333	-0.003665	-0.086743	0.004887
1030	23.499939	0.009125	0.353160	-9.417600	-0.235440	-0.813433	0.404478	-0.325000	0.000000	-0.083078	0.018326
1031	23.509094	0.009155	0.353160	-9.653040	-0.353160	-0.813433	0.402985	-0.328333	0.017104	-0.075747	0.013439
1032	23.518219	0.009125	0.353160	-9.417600	-0.117720	-0.814925	0.404478	-0.325000	0.013439	-0.079412	0.009774
1033	23.527344	0.009125	0.353160	-9.299880	0.000000	-0.810448	0.407463	-0.326667	0.001222	-0.067195	0.012217
1034	23.536469	0.009125	0.353160	-9.299880	0.000000	-0.811940	0.404478	-0.331667	0.014661	-0.057421	0.010996
1035	23.545593	0.009125	0.235440	-9.417600	0.117720	-0.810448	0.407463	-0.326667	0.000000	-0.075747	0.007330
1036	23.554718	0.009125	0.353160	-9.417600	0.117720	-0.814925	0.404478	-0.323333	-0.001222	-0.074526	0.003665
1037	23.563843	0.009125	0.470880	-9.535320	0.117720	-0.808955	0.402985	-0.325000	0.004887	-0.084299	0.009774
1038	23.572998	0.009155	0.470880	-9.417600	0.117720	-0.813433	0.405970	-0.330000	-0.004887	-0.083078	0.013439
1039	23.582123	0.009125	0.353160	-9.417600	0.117720	-0.811940	0.401493	-0.325000	0.001222	-0.085521	0.008552
1040	23.591248	0.009125	0.470880	-9.653040	0.000000	-0.822388	0.395522	-0.313333	0.002443	-0.090408	0.012217
1041	23.600372	0.009125	0.353160	-9.535320	0.235440	-0.831343	0.395522	-0.303333	0.006109	-0.092852	0.010996
1042	23.609497	0.009125	0.235440	-9.417600	0.000000	-0.808955	0.404478	-0.325000	-0.003665	-0.100182	0.012217
1043	23.618622	0.009125	0.353160	-9.417600	0.000000	-0.810448	0.407463	-0.326667	-0.001222	-0.106291	0.002443
1044	23.627747	0.009125	0.470880	-9.535320	0.353160	-0.813433	0.405970	-0.326667	0.024435	-0.075747	0.012217
1045	23.636871	0.009125	0.470880	-9.299880	0.235440	-0.811940	0.408955	-0.330000	0.010996	-0.081856	0.014661
1046	23.646027	0.009155	0.353160	-9.417600	0.353160	-0.813433	0.401493	-0.326667	-0.001222	-0.097738	0.006109
1047	23.655151	0.009125	0.353160	-9.299880	0.353160	-0.807463	0.402985	-0.326667	-0.001222	-0.090408	0.009774
1048	23.664276	0.009125	0.470880	-9.535320	0.235440	-0.811940	0.402985	-0.325000	0.002443	-0.089186	0.012217
1049	23.673401	0.009125	0.588600	-9.417600	0.235440	-0.810448	0.404478	-0.325000	0.013439	-0.081856	0.018326
1050	23.682526	0.009125	0.588600	-9.417600	0.000000	-0.810448	0.405970	-0.325000	0.013439	-0.092852	0.012217
1051	23.691681	0.009155	0.353160	-9.535320	0.117720	-0.811940	0.404478	-0.326667	0.001222	-0.102625	0.014661
1052	23.700806	0.009125	0.353160	-9.417600	-0.117720	-0.810448	0.402985	-0.325000	0.012217	-0.085521	0.017104
1053	23.709930	0.009125	0.588600	-9.299880	-0.117720	-0.810448	0.402985	-0.330000	0.025656	-0.085521	0.010996
1054	23.719055	0.009125	0.470880	-9.299880	-0.117720	-0.810448	0.405970	-0.328333	0.010996	-0.086743	0.008552
1055	23.728210	0.009155	0.470880	-9.417600	-0.117720	-0.807463	0.402985	-0.328333	-0.001222	-0.090408	0.012217
1056	23.737335	0.009125	0.353160	-9.535320	-0.117720	-0.811940	0.404478	-0.330000	0.007330	-0.098960	0.008552
1057	23.746460	0.009125	0.353160	-9.417600	0.235440	-0.810448	0.404478	-0.331667	-0.001222	-0.097738	0.001222
1058	23.755585	0.009125	0.470880	-9.417600	0.000000	-0.825373	0.395522	-0.310000	0.012217	-0.075747	0.008552
1059	23.764709	0.009125	0.353160	-9.417600	0.117720	-0.814925	0.401493	-0.321667	-0.003665	-0.085521	0.013439
1060	23.773834	0.009125	0.353160	-9.653040	-0.235440	-0.807463	0.408955	-0.330000	0.000000	-0.085521	0.009774
1061	23.782959	0.009125	0.470880	-9.417600	-0.235440	-0.805970	0.402985	-0.328333	0.002443	-0.094073	0.009774
1062	23.792084	0.009125	0.235440	-9.535320	0.000000	-0.813433	0.402985	-0.325000	0.009774	-0.086743	0.008552
1063	23.801239	0.009155	0.353160	-9.535320	-0.117720	-0.810448	0.404478	-0.331667	0.015882	-0.089186	0.007330
1064	23.810364	0.009125	0.235440	-9.417600	0.000000	-0.808955	0.404478	-0.331667	0.000000	-0.092852	0.002443
1065	23.819489	0.009125	0.353160	-9.417600	0.000000	-0.807463	0.404478	-0.328333	0.012217	-0.076969	0.008552
1066	23.828613	0.009125	0.588600	-9.299880	-0.235440	-0.808955	0.402985	-0.326667	0.008552	-0.072082	0.004887
1067	23.837738	0.009125	0.353160	-9.417600	0.000000	-0.810448	0.401493	-0.331667	0.000000	-0.073304	0.013439
1068	23.846863	0.009125	0.470880	-9.535320	0.000000	-0.810448	0.402985	-0.330000	0.014661	-0.070860	0.015882
1069	23.856018	0.009155	0.706320	-9.535320	0.353160	-0.811940	0.407463	-0.328333	0.006109	-0.076969	0.008552
1070	23.865143	0.009125	0.235440	-9.417600	0.000000	-0.811940	0.404478	-0.330000	0.012217	-0.085521	0.000000
1071	23.874268	0.009125	0.353160	-9.417600	0.117720	-0.808955	0.404478	-0.331667	0.006109	-0.096517	0.009774
1072	23.883392	0.009125	0.353160	-9.417600	0.117720	-0.811940	0.404478	-0.328333	0.004887	-0.089186	0.012217
1073	23.892517	0.009125	0.353160	-9.653040	0.000000	-0.813433	0.404478	-0.328333	0.006109	-0.081856	0.026878
1074	23.901672	0.009155	0.235440	-9.417600	0.117720	-0.810448	0.404478	-0.330000	0.012217	-0.090408	0.008552
1075	23.910797	0.009125	0.353160	-9.535320	-0.117720	-0.805970	0.404478	-0.330000	0.000000	-0.091630	0.015882
1076	23.919922	0.009125	0.353160	-9.417600	0.235440	-0.804478	0.401493	-0.335000	0.003665	-0.084299	0.007330
1077	23.929077	0.009155	0.588600	-9.535320	0.117720	-0.822388	0.392537	-0.315000	-0.001222	-0.081856	0.024435
1078	23.938202	0.009125	0.235440	-9.417600	0.117720	-0.832836	0.391045	-0.296667	0.013439	-0.086743	0.010996
1079	23.947327	0.009125	0.353160	-9.417600	0.117720	-0.834328	0.386567	-0.303333	0.010996	-0.091630	0.003665
1080	23.956451	0.009125	0.353160	-9.417600	0.000000	-0.829851	0.391045	-0.313333	0.009774	-0.097738	0.009774
1081	23.965576	0.009125	0.470880	-9.417600	0.000000	-0.813433	0.400000	-0.326667	0.007330	-0.086743	0.012217
1082	23.974701	0.009125	0.470880	-9.417600	0.117720	-0.810448	0.400000	-0.331667	0.004887	-0.080634	0.020769
1083	23.983856	0.009155	0.470880	-9.417600	0.117720	-0.811940	0.401493	-0.330000	0.008552	-0.078191	0.020769
1084	23.992981	0.009125	0.117720	-9.417600	0.000000	-0.813433	0.404478	-0.333333	0.010996	-0.090408	0.012217
1085	24.002106	0.009125	0.353160	-9.417600	0.000000	-0.810448	0.404478	-0.336667	0.000000	-0.090408	0.007330
1086	24.011230	0.009125	0.470880	-9.653040	0.117720	-0.811940	0.402985	-0.336667	0.008552	-0.101404	0.008552
1087	24.020355	0.009125	0.235440	-9.417600	0.000000	-0.808955	0.405970	-0.328333	0.000000	-0.098960	0.001222
1088	24.029480	0.009125	0.470880	-9.417600	0.000000	-0.805970	0.405970	-0.335000	0.010996	-0.090408	0.004887
1089	24.038605	0.009125	0.470880	-9.535320	0.000000	-0.807463	0.400000	-0.331667	0.006109	-0.092852	0.003665
1090	24.047760	0.009155	0.588600	-9.417600	0.000000	-0.807463	0.404478	-0.335000	0.013439	-0.090408	0.006109
1091	24.056885	0.009125	0.470880	-9.299880	0.117720	-0.814925	0.402985	-0.333333	0.000000	-0.095295	0.006109
1092	24.066010	0.009125	0.235440	-9.535320	0.235440	-0.811940	0.401493	-0.338333	0.000000	-0.098960	0.009774
