# FOX Logger (IMU file)
# (c) HiKoB 2011-2012
#
# File created from file HIGPS00.RAW
#
# File format:
# id	t	dt	ax	ay	az	mx	my	mz	gx	gy	gz
#
# Units:
#	Time: s
#	Acceleration: m.s^-2
#	Magnetic field: gauss
#	Rotation speed: rad.s^-1
#
1	14.089355	14.089355	-0.470880	0.000000	-10.123920	-0.795522	0.098507	0.053333	0.037874	0.009774	0.021991
2	14.094452	0.005096	-0.235440	0.000000	-10.241640	-0.795522	0.097015	0.060000	-0.006109	-0.015882	-0.050091
3	14.103058	0.008606	-0.235440	0.117720	-10.359360	-0.804478	0.091045	0.058333	0.001222	-0.001222	-0.041539
4	14.112183	0.009125	-0.353160	0.117720	-10.241640	-0.808955	0.094030	0.066667	0.001222	-0.002443	-0.036652
5	14.121307	0.009125	-0.706320	0.000000	-10.359360	-0.788060	0.102985	0.045000	0.007330	-0.001222	-0.042761
6	14.130463	0.009155	-0.588600	0.117720	-10.477080	-0.785075	0.107463	0.041667	-0.002443	0.001222	-0.039095
7	14.139587	0.009125	-0.588600	0.117720	-10.477080	-0.783582	0.104478	0.045000	-0.001222	-0.017104	-0.048869
8	14.148712	0.009125	-0.470880	0.117720	-10.359360	-0.785075	0.104478	0.043333	0.001222	0.002443	-0.037874
9	14.157867	0.009155	-0.588600	0.235440	-10.241640	-0.785075	0.107463	0.048333	-0.004887	-0.007330	-0.037874
10	14.166992	0.009125	-0.706320	0.117720	-10.241640	-0.783582	0.102985	0.045000	-0.008552	-0.010996	-0.039095
11	14.176117	0.009125	-0.353160	0.000000	-10.359360	-0.783582	0.108955	0.045000	0.006109	0.001222	-0.035430
12	14.185242	0.009125	-0.824040	-0.117720	-10.359360	-0.779104	0.105970	0.043333	-0.003665	-0.014661	-0.046426
13	14.194366	0.009125	-0.706320	0.000000	-10.359360	-0.786567	0.107463	0.041667	0.000000	-0.003665	-0.037874
14	14.203522	0.009155	-0.353160	0.000000	-10.359360	-0.783582	0.108955	0.041667	0.000000	-0.002443	-0.042761
15	14.212646	0.009125	-0.470880	0.235440	-10.359360	-0.785075	0.104478	0.045000	0.015882	0.006109	-0.036652
16	14.221771	0.009125	-0.588600	0.235440	-10.359360	-0.783582	0.105970	0.045000	-0.007330	-0.009774	-0.043982
17	14.230896	0.009125	-0.470880	0.117720	-10.359360	-0.783582	0.105970	0.041667	-0.003665	0.004887	-0.034208
18	14.240051	0.009155	-0.588600	0.000000	-10.241640	-0.780597	0.104478	0.041667	0.002443	-0.001222	-0.041539
19	14.249176	0.009125	-0.117720	0.000000	-10.359360	-0.797015	0.092537	0.053333	0.010996	0.004887	-0.043982
20	14.258301	0.009125	-0.588600	0.235440	-10.477080	-0.798507	0.094030	0.061667	-0.007330	0.009774	-0.042761
21	14.267426	0.009125	-0.470880	0.000000	-10.241640	-0.782090	0.107463	0.040000	-0.002443	-0.006109	-0.042761
22	14.276550	0.009125	-0.588600	0.117720	-10.123920	-0.785075	0.107463	0.046667	-0.002443	-0.009774	-0.052534
23	14.285675	0.009125	-0.706320	0.117720	-10.359360	-0.785075	0.105970	0.040000	0.004887	-0.003665	-0.046426
24	14.294830	0.009155	-0.941760	0.117720	-10.359360	-0.783582	0.102985	0.038333	0.001222	-0.001222	-0.048869
25	14.303955	0.009125	-0.706320	0.117720	-10.359360	-0.785075	0.104478	0.041667	-0.007330	-0.008552	-0.043982
26	14.313080	0.009125	-0.706320	0.000000	-10.241640	-0.783582	0.105970	0.041667	0.004887	0.003665	-0.037874
27	14.322205	0.009125	-0.588600	0.000000	-10.359360	-0.785075	0.104478	0.043333	-0.002443	-0.013439	-0.045204
28	14.331329	0.009125	-0.470880	0.000000	-10.123920	-0.780597	0.102985	0.041667	-0.012217	-0.015882	-0.047647
29	14.340485	0.009155	-0.588600	0.000000	-10.241640	-0.786567	0.107463	0.046667	0.004887	-0.002443	-0.046426
30	14.349609	0.009125	-0.588600	0.117720	-10.359360	-0.785075	0.104478	0.045000	-0.002443	-0.009774	-0.052534
31	14.358734	0.009125	-0.588600	0.000000	-10.241640	-0.785075	0.105970	0.041667	-0.007330	-0.012217	-0.043982
32	14.367859	0.009125	-0.353160	0.000000	-10.477080	-0.785075	0.107463	0.040000	-0.004887	-0.013439	-0.046426
33	14.377014	0.009155	-0.588600	0.000000	-10.359360	-0.783582	0.104478	0.045000	0.010996	-0.004887	-0.051313
34	14.386139	0.009125	-0.706320	0.000000	-10.359360	-0.782090	0.102985	0.046667	-0.001222	-0.007330	-0.040317
35	14.395264	0.009125	-0.706320	0.117720	-10.359360	-0.783582	0.104478	0.041667	-0.013439	-0.020769	-0.045204
36	14.404419	0.009155	-0.706320	0.235440	-10.359360	-0.786567	0.105970	0.040000	0.004887	0.002443	-0.050091
37	14.414398	0.009979	-1.059480	-0.117720	-10.359360	-0.783582	0.104478	0.040000	0.001222	0.003665	-0.041539
38	14.422668	0.008270	-0.353160	0.000000	-10.477080	-0.789552	0.102985	0.061667	-0.001222	-0.010996	-0.051313
39	14.431793	0.009125	-0.588600	0.000000	-10.359360	-0.786567	0.102985	0.048333	-0.010996	0.001222	-0.032987
40	14.440948	0.009155	-0.353160	0.000000	-10.241640	-0.783582	0.104478	0.038333	-0.009774	-0.012217	-0.058643
41	14.450073	0.009125	-0.588600	0.000000	-10.359360	-0.780597	0.105970	0.043333	-0.007330	-0.021991	-0.051313
42	14.459198	0.009125	-0.470880	0.117720	-10.359360	-0.783582	0.104478	0.043333	-0.004887	-0.015882	-0.052534
43	14.468323	0.009125	-0.588600	0.117720	-10.241640	-0.785075	0.105970	0.045000	-0.001222	0.000000	-0.043982
44	14.477448	0.009125	-0.706320	0.000000	-10.359360	-0.785075	0.104478	0.043333	0.000000	0.000000	-0.048869
45	14.486572	0.009125	-0.470880	0.000000	-10.241640	-0.782090	0.107463	0.040000	-0.009774	-0.008552	-0.042761
46	14.495697	0.009125	-0.470880	0.000000	-10.241640	-0.785075	0.107463	0.040000	0.003665	0.010996	-0.040317
47	14.504852	0.009155	-0.588600	-0.117720	-10.359360	-0.782090	0.108955	0.043333	-0.007330	-0.009774	-0.042761
48	14.513977	0.009125	-0.588600	0.000000	-10.241640	-0.785075	0.104478	0.045000	0.000000	-0.006109	-0.043982
49	14.523132	0.009155	-0.588600	0.117720	-10.241640	-0.785075	0.104478	0.038333	0.144164	0.000000	-0.040317
50	14.532257	0.009125	-1.059480	0.117720	-10.241640	-0.785075	0.105970	0.043333	0.003665	0.001222	-0.041539
51	14.541382	0.009125	-0.588600	0.235440	-10.241640	-0.785075	0.104478	0.046667	0.003665	-0.014661	-0.051313
52	14.550507	0.009125	-0.588600	0.235440	-10.123920	-0.785075	0.104478	0.040000	-0.006109	-0.015882	-0.051313
53	14.559631	0.009125	-0.588600	0.000000	-10.359360	-0.785075	0.105970	0.041667	0.006109	0.000000	-0.043982
54	14.568787	0.009155	-0.353160	0.117720	-10.359360	-0.786567	0.105970	0.043333	0.009774	-0.001222	-0.050091
55	14.577911	0.009125	-0.470880	0.235440	-10.477080	-0.788060	0.104478	0.045000	0.002443	-0.014661	-0.051313
56	14.587036	0.009125	-0.588600	0.117720	-10.359360	-0.795522	0.095522	0.068333	-0.003665	-0.003665	-0.035430
57	14.596161	0.009125	-0.588600	0.000000	-10.359360	-0.789552	0.102985	0.050000	-0.001222	-0.003665	-0.037874
58	14.605286	0.009125	-0.588600	0.235440	-10.477080	-0.780597	0.107463	0.041667	-0.008552	-0.008552	-0.042761
59	14.614410	0.009125	-0.588600	0.235440	-10.359360	-0.785075	0.102985	0.043333	-0.010996	-0.007330	-0.045204
60	14.623535	0.009125	-0.353160	0.000000	-10.123920	-0.785075	0.105970	0.040000	0.001222	-0.013439	-0.053756
61	14.632660	0.009125	-0.470880	0.117720	-10.359360	-0.782090	0.104478	0.041667	0.008552	-0.002443	-0.043982
62	14.641785	0.009125	-0.588600	0.117720	-10.359360	-0.780597	0.104478	0.041667	0.002443	-0.003665	-0.046426
63	14.650940	0.009155	-0.588600	0.117720	-10.359360	-0.782090	0.104478	0.041667	-0.004887	-0.004887	-0.046426
64	14.660065	0.009125	-0.588600	-0.117720	-10.123920	-0.776119	0.108955	0.040000	0.003665	-0.014661	-0.045204
65	14.669189	0.009125	-0.353160	0.000000	-10.359360	-0.783582	0.107463	0.043333	0.001222	-0.012217	-0.047647
66	14.678314	0.009125	-0.470880	0.000000	-10.241640	-0.786567	0.104478	0.040000	0.002443	-0.014661	-0.047647
67	14.687439	0.009125	-0.470880	0.000000	-10.359360	-0.786567	0.104478	0.040000	0.002443	0.008552	-0.036652
68	14.696564	0.009125	-0.353160	0.000000	-10.359360	-0.786567	0.104478	0.045000	-0.001222	-0.004887	-0.045204
69	14.705719	0.009155	-0.470880	0.000000	-10.241640	-0.782090	0.105970	0.048333	0.000000	-0.004887	-0.043982
70	14.714844	0.009125	-0.470880	0.000000	-10.359360	-0.783582	0.105970	0.043333	0.001222	-0.009774	-0.047647
71	14.723969	0.009125	-0.470880	0.117720	-10.477080	-0.785075	0.105970	0.038333	0.001222	-0.008552	-0.054978
72	14.733093	0.009125	-0.588600	0.235440	-10.359360	-0.786567	0.107463	0.043333	0.001222	-0.008552	-0.046426
73	14.742218	0.009125	-0.706320	0.000000	-10.359360	-0.782090	0.108955	0.043333	-0.004887	-0.001222	-0.041539
74	14.751343	0.009125	-0.588600	0.117720	-10.477080	-0.783582	0.105970	0.046667	0.003665	0.000000	-0.042761
75	14.760468	0.009125	-0.353160	-0.117720	-10.359360	-0.795522	0.097015	0.061667	0.003665	-0.003665	-0.051313
76	14.769592	0.009125	-0.588600	0.000000	-10.359360	-0.788060	0.101493	0.048333	0.007330	-0.007330	-0.046426
77	14.778748	0.009155	-0.353160	0.117720	-10.123920	-0.782090	0.105970	0.043333	0.006109	-0.012217	-0.048869
78	14.787872	0.009125	-0.588600	0.235440	-10.359360	-0.782090	0.104478	0.043333	-0.002443	-0.012217	-0.052534
79	14.796997	0.009125	-0.824040	0.000000	-10.359360	-0.783582	0.105970	0.041667	-0.006109	-0.009774	-0.046426
80	14.806122	0.009125	-0.588600	0.000000	-10.241640	-0.785075	0.104478	0.041667	-0.006109	-0.006109	-0.032987
81	14.815247	0.009125	-0.588600	0.117720	-10.359360	-0.789552	0.105970	0.038333	-0.006109	0.002443	-0.039095
82	14.824402	0.009155	-0.706320	0.000000	-10.477080	-0.783582	0.104478	0.043333	0.008552	-0.002443	-0.046426
83	14.833527	0.009125	-0.353160	0.000000	-10.359360	-0.785075	0.105970	0.048333	-0.004887	-0.004887	-0.040317
84	14.842651	0.009125	-0.470880	0.235440	-10.241640	-0.783582	0.105970	0.043333	0.003665	0.004887	-0.041539
85	14.851776	0.009125	-0.470880	0.117720	-10.123920	-0.783582	0.105970	0.043333	0.009774	0.001222	-0.036652
86	14.860901	0.009125	-0.824040	0.117720	-10.359360	-0.782090	0.104478	0.041667	-0.013439	-0.003665	-0.041539
87	14.870056	0.009155	-0.588600	0.117720	-10.359360	-0.785075	0.105970	0.043333	0.002443	-0.004887	-0.043982
88	14.879181	0.009125	-0.588600	0.000000	-10.477080	-0.785075	0.107463	0.043333	0.004887	-0.006109	-0.043982
89	14.888306	0.009125	-0.824040	0.117720	-10.359360	-0.782090	0.105970	0.043333	0.006109	0.001222	-0.048869
90	14.897430	0.009125	-0.706320	0.000000	-10.359360	-0.783582	0.108955	0.040000	0.004887	-0.003665	-0.053756
91	14.906555	0.009125	-0.706320	0.117720	-10.359360	-0.785075	0.105970	0.043333	0.000000	0.001222	-0.045204
92	14.915680	0.009125	-0.588600	0.117720	-10.241640	-0.782090	0.104478	0.043333	-0.004887	-0.004887	-0.036652
93	14.924805	0.009125	-0.706320	0.235440	-10.123920	-0.797015	0.095522	0.061667	0.001222	-0.003665	-0.042761
94	14.933929	0.009125	-0.353160	0.235440	-10.359360	-0.785075	0.104478	0.050000	-0.002443	-0.015882	-0.046426
95	14.943054	0.009125	-0.588600	0.117720	-10.359360	-0.785075	0.104478	0.041667	0.007330	-0.002443	-0.050091
96	14.952179	0.009125	-0.470880	0.117720	-10.359360	-0.785075	0.102985	0.043333	0.007330	-0.007330	-0.052534
97	14.961334	0.009155	-0.824040	0.117720	-10.359360	-0.783582	0.105970	0.041667	0.000000	-0.008552	-0.041539
98	14.970459	0.009125	-0.588600	0.117720	-10.241640	-0.783582	0.110448	0.043333	0.003665	0.000000	-0.051313
99	14.979584	0.009125	-0.706320	0.235440	-10.123920	-0.786567	0.105970	0.043333	0.003665	-0.003665	-0.046426
100	14.988708	0.009125	-0.470880	0.117720	-10.241640	-0.783582	0.104478	0.038333	0.000000	0.004887	-0.045204
101	14.997833	0.009125	-0.588600	0.000000	-10.241640	-0.783582	0.104478	0.045000	0.000000	-0.007330	-0.048869
102	15.006958	0.009125	-0.235440	0.000000	-10.359360	-0.782090	0.104478	0.041667	-0.001222	-0.008552	-0.043982
103	15.016083	0.009125	-0.470880	-0.117720	-10.359360	-0.782090	0.105970	0.045000	-0.008552	-0.003665	-0.047647
104	15.025238	0.009155	-0.353160	0.000000	-10.241640	-0.786567	0.104478	0.043333	-0.008552	-0.008552	-0.043982
105	15.034363	0.009125	-0.706320	0.117720	-10.241640	-0.786567	0.105970	0.041667	0.008552	0.000000	-0.052534
106	15.043488	0.009125	-0.706320	0.117720	-10.241640	-0.785075	0.104478	0.038333	0.000000	-0.007330	-0.036652
107	15.052612	0.009125	-0.706320	0.235440	-10.241640	-0.785075	0.105970	0.043333	0.007330	0.006109	-0.041539
108	15.061768	0.009155	-0.353160	0.117720	-10.241640	-0.782090	0.105970	0.041667	0.003665	-0.001222	-0.045204
109	15.070892	0.009125	-0.470880	0.000000	-10.241640	-0.783582	0.104478	0.043333	-0.012217	-0.012217	-0.045204
110	15.080017	0.009125	-0.470880	0.117720	-10.359360	-0.782090	0.105970	0.041667	0.003665	-0.002443	-0.046426
111	15.089142	0.009125	-0.706320	0.000000	-10.359360	-0.782090	0.104478	0.043333	-0.009774	-0.007330	-0.048869
112	15.098267	0.009125	-0.588600	0.000000	-10.359360	-0.795522	0.094030	0.060000	-0.001222	-0.004887	-0.045204
113	15.107391	0.009125	-0.470880	0.117720	-10.477080	-0.788060	0.102985	0.050000	-0.002443	-0.004887	-0.050091
114	15.116547	0.009155	-0.470880	0.235440	-10.477080	-0.780597	0.105970	0.043333	0.006109	-0.002443	-0.043982
115	15.125671	0.009125	-0.588600	0.000000	-10.359360	-0.780597	0.104478	0.041667	-0.012217	-0.007330	-0.036652
116	15.134796	0.009125	-0.470880	0.000000	-10.477080	-0.782090	0.108955	0.050000	-0.007330	-0.013439	-0.043982
117	15.143921	0.009125	-0.588600	0.235440	-10.359360	-0.783582	0.105970	0.043333	-0.003665	-0.004887	-0.042761
118	15.153046	0.009125	-0.588600	-0.117720	-10.241640	-0.783582	0.104478	0.045000	0.000000	-0.004887	-0.042761
119	15.162201	0.009155	-0.470880	0.235440	-10.241640	-0.783582	0.102985	0.045000	0.000000	0.000000	-0.039095
120	15.171326	0.009125	-0.470880	0.000000	-10.359360	-0.786567	0.102985	0.043333	0.014661	-0.001222	-0.053756
121	15.180450	0.009125	-0.235440	0.117720	-10.359360	-0.782090	0.107463	0.045000	-0.002443	-0.013439	-0.043982
122	15.189575	0.009125	-0.588600	0.000000	-10.241640	-0.782090	0.107463	0.041667	-0.002443	-0.001222	-0.037874
123	15.198700	0.009125	-0.588600	0.000000	-10.359360	-0.783582	0.107463	0.043333	-0.007330	-0.006109	-0.042761
124	15.207825	0.009125	-0.824040	0.000000	-10.241640	-0.786567	0.105970	0.040000	-0.008552	0.001222	-0.032987
125	15.216949	0.009125	-0.470880	0.117720	-10.359360	-0.785075	0.107463	0.041667	-0.010996	-0.001222	-0.034208
126	15.226105	0.009155	-0.470880	0.000000	-10.359360	-0.780597	0.108955	0.043333	0.000000	-0.006109	-0.041539
127	15.235229	0.009125	-0.588600	-0.117720	-10.241640	-0.785075	0.105970	0.041667	0.000000	-0.006109	-0.042761
128	15.244354	0.009125	-0.824040	0.000000	-10.241640	-0.786567	0.104478	0.043333	0.008552	-0.002443	-0.052534
129	15.253479	0.009125	-0.588600	0.000000	-10.241640	-0.783582	0.102985	0.043333	0.004887	-0.006109	-0.054978
130	15.262604	0.009125	-0.824040	0.000000	-10.359360	-0.797015	0.097015	0.060000	0.004887	-0.002443	-0.051313
131	15.271729	0.009125	-0.706320	0.000000	-10.359360	-0.789552	0.102985	0.048333	-0.002443	0.001222	-0.037874
132	15.280884	0.009155	-0.235440	0.000000	-10.359360	-0.780597	0.105970	0.040000	-0.006109	0.000000	-0.043982
133	15.290009	0.009125	-0.235440	0.000000	-10.359360	-0.785075	0.104478	0.040000	-0.004887	-0.012217	-0.048869
134	15.299133	0.009125	-0.588600	0.000000	-10.477080	-0.782090	0.107463	0.045000	-0.010996	-0.006109	-0.039095
135	15.308258	0.009125	-0.588600	0.117720	-10.241640	-0.783582	0.105970	0.043333	-0.010996	-0.006109	-0.035430
136	15.317383	0.009125	-0.588600	0.117720	-10.241640	-0.785075	0.104478	0.043333	0.002443	-0.008552	-0.047647
137	15.326508	0.009125	-0.588600	0.117720	-10.359360	-0.785075	0.104478	0.043333	0.000000	0.000000	-0.041539
138	15.335632	0.009125	-0.941760	0.000000	-10.359360	-0.783582	0.105970	0.045000	-0.009774	-0.014661	-0.047647
139	15.344757	0.009125	-0.470880	0.117720	-10.359360	-0.783582	0.107463	0.043333	0.004887	0.003665	-0.047647
140	15.353882	0.009125	-0.353160	0.117720	-10.359360	-0.780597	0.105970	0.041667	0.007330	-0.003665	-0.056200
141	15.363037	0.009155	-0.353160	0.117720	-10.477080	-0.783582	0.105970	0.041667	-0.003665	-0.010996	-0.057421
142	15.372162	0.009125	-0.470880	0.235440	-10.477080	-0.785075	0.105970	0.043333	0.004887	-0.001222	-0.048869
143	15.381287	0.009125	-0.470880	0.117720	-10.359360	-0.782090	0.105970	0.045000	-0.003665	0.000000	-0.040317
144	15.390442	0.009155	-0.470880	0.117720	-10.359360	-0.785075	0.104478	0.043333	0.000000	-0.008552	-0.050091
145	15.399567	0.009125	-0.353160	0.117720	-10.359360	-0.780597	0.105970	0.043333	-0.003665	-0.014661	-0.046426
146	15.408691	0.009125	-0.353160	0.000000	-10.359360	-0.786567	0.107463	0.041667	0.006109	-0.003665	-0.047647
147	15.417816	0.009125	-0.353160	0.117720	-10.477080	-0.783582	0.107463	0.041667	0.004887	-0.002443	-0.045204
148	15.426941	0.009125	-0.470880	0.000000	-10.359360	-0.786567	0.107463	0.040000	0.003665	-0.004887	-0.045204
149	15.436066	0.009125	-0.706320	0.000000	-10.359360	-0.794030	0.097015	0.061667	0.000000	-0.010996	-0.047647
150	15.445221	0.009155	-0.235440	0.000000	-10.359360	-0.788060	0.102985	0.046667	0.000000	-0.010996	-0.045204
151	15.454346	0.009125	-0.353160	0.117720	-10.241640	-0.786567	0.107463	0.045000	0.001222	-0.007330	-0.048869
152	15.463470	0.009125	-0.353160	0.000000	-10.359360	-0.780597	0.105970	0.041667	-0.007330	0.001222	-0.037874
153	15.472595	0.009125	-0.235440	-0.117720	-10.359360	-0.783582	0.104478	0.041667	0.002443	-0.007330	-0.042761
154	15.481720	0.009125	-0.470880	0.000000	-10.359360	-0.783582	0.107463	0.043333	-0.003665	-0.002443	-0.046426
155	15.490845	0.009125	-0.470880	0.000000	-10.359360	-0.782090	0.102985	0.038333	-0.006109	-0.006109	-0.045204
156	15.499969	0.009125	-0.470880	0.000000	-10.359360	-0.782090	0.107463	0.040000	0.001222	-0.007330	-0.057421
157	15.509125	0.009155	-0.470880	0.000000	-10.359360	-0.783582	0.107463	0.043333	0.004887	-0.007330	-0.058643
158	15.518250	0.009125	-0.588600	0.000000	-10.359360	-0.783582	0.104478	0.040000	0.000000	0.002443	-0.037874
159	15.527374	0.009125	-0.235440	0.117720	-10.359360	-0.783582	0.104478	0.043333	0.000000	-0.015882	-0.041539
160	15.536499	0.009125	-0.353160	0.000000	-10.359360	-0.788060	0.107463	0.038333	-0.007330	-0.002443	-0.039095
161	15.545624	0.009125	-0.470880	0.117720	-10.477080	-0.785075	0.104478	0.043333	-0.013439	-0.008552	-0.042761
162	15.554779	0.009155	-0.235440	0.235440	-10.241640	-0.785075	0.107463	0.041667	-0.002443	-0.004887	-0.048869
163	15.563904	0.009125	-0.353160	0.000000	-10.241640	-0.783582	0.105970	0.041667	0.008552	-0.008552	-0.053756
164	15.573029	0.009125	-0.470880	0.353160	-10.359360	-0.783582	0.105970	0.046667	0.008552	0.007330	-0.048869
165	15.582153	0.009125	-0.470880	0.117720	-10.359360	-0.785075	0.105970	0.040000	0.010996	-0.002443	-0.046426
166	15.591278	0.009125	-0.235440	0.117720	-10.359360	-0.785075	0.105970	0.041667	0.007330	-0.001222	-0.047647
167	15.600403	0.009125	-0.235440	0.117720	-10.241640	-0.782090	0.105970	0.043333	0.003665	0.000000	-0.042761
168	15.609558	0.009155	-0.824040	0.235440	-10.477080	-0.797015	0.094030	0.060000	-0.015882	-0.015882	-0.040317
169	15.618683	0.009125	-0.588600	0.000000	-10.477080	-0.786567	0.104478	0.051667	0.003665	0.009774	-0.037874
170	15.627808	0.009125	-0.353160	0.000000	-10.359360	-0.783582	0.102985	0.043333	-0.001222	-0.009774	-0.042761
171	15.636932	0.009125	-0.470880	0.235440	-10.241640	-0.785075	0.107463	0.041667	-0.004887	-0.002443	-0.040317
172	15.646057	0.009125	-0.588600	0.117720	-10.241640	-0.780597	0.104478	0.041667	-0.002443	-0.001222	-0.046426
173	15.655182	0.009125	-0.706320	0.235440	-10.241640	-0.783582	0.107463	0.040000	-0.004887	-0.008552	-0.040317
174	15.664307	0.009125	-0.706320	0.117720	-10.123920	-0.782090	0.105970	0.041667	0.007330	0.006109	-0.045204
175	15.673431	0.009125	-0.588600	0.117720	-10.359360	-0.782090	0.105970	0.043333	0.000000	0.001222	-0.045204
176	15.682587	0.009155	-0.588600	0.117720	-10.241640	-0.783582	0.104478	0.041667	0.009774	0.001222	-0.046426
177	15.691711	0.009125	-0.588600	0.117720	-10.123920	-0.780597	0.105970	0.043333	0.000000	0.001222	-0.039095
178	15.700836	0.009125	-0.588600	0.117720	-10.359360	-0.780597	0.108955	0.045000	-0.007330	-0.002443	-0.043982
179	15.709961	0.009125	-0.470880	0.117720	-10.359360	-0.783582	0.104478	0.043333	-0.007330	-0.015882	-0.045204
180	15.719086	0.009125	-0.470880	0.117720	-10.359360	-0.785075	0.104478	0.041667	-0.001222	-0.003665	-0.043982
181	15.728241	0.009155	-0.470880	0.117720	-10.241640	-0.782090	0.104478	0.040000	-0.007330	-0.002443	-0.042761
182	15.737366	0.009125	-0.706320	0.117720	-10.359360	-0.782090	0.107463	0.046667	0.002443	-0.001222	-0.041539
183	15.746490	0.009125	-0.706320	0.117720	-10.241640	-0.782090	0.105970	0.043333	-0.009774	-0.008552	-0.046426
184	15.755615	0.009125	-0.706320	0.235440	-10.241640	-0.783582	0.105970	0.045000	-0.009774	0.002443	-0.035430
185	15.764740	0.009125	-0.235440	0.117720	-10.359360	-0.785075	0.104478	0.038333	-0.004887	0.000000	-0.042761
186	15.774170	0.009430	-0.470880	0.117720	-10.359360	-0.802985	0.095522	0.063333	-0.001222	-0.001222	-0.039095
187	15.783020	0.008850	-0.470880	0.117720	-10.241640	-0.788060	0.102985	0.050000	0.008552	-0.001222	-0.041539
188	15.792145	0.009125	-0.706320	0.117720	-10.477080	-0.783582	0.105970	0.045000	-0.001222	-0.015882	-0.052534
189	15.801270	0.009125	-0.588600	0.117720	-10.477080	-0.785075	0.105970	0.041667	0.004887	-0.009774	-0.053756
190	15.810394	0.009125	-0.588600	0.117720	-10.359360	-0.782090	0.107463	0.041667	-0.001222	-0.013439	-0.046426
191	15.819519	0.009125	-0.588600	0.117720	-10.359360	-0.783582	0.104478	0.048333	0.002443	-0.006109	-0.050091
192	15.828644	0.009125	-0.824040	0.117720	-10.359360	-0.783582	0.105970	0.041667	0.000000	-0.001222	-0.047647
193	15.837799	0.009155	-0.706320	0.117720	-10.359360	-0.785075	0.105970	0.040000	-0.008552	-0.009774	-0.045204
194	15.846924	0.009125	-0.588600	0.000000	-10.123920	-0.783582	0.104478	0.043333	-0.006109	-0.010996	-0.051313
195	15.856049	0.009125	-0.470880	0.000000	-10.241640	-0.783582	0.105970	0.043333	-0.010996	-0.004887	-0.039095
196	15.865204	0.009155	-0.470880	0.000000	-10.241640	-0.780597	0.105970	0.043333	0.012217	-0.007330	-0.052534
197	15.874329	0.009125	-0.588600	0.117720	-10.241640	-0.782090	0.105970	0.040000	0.001222	0.153938	-0.042761
198	15.883453	0.009125	-0.353160	0.117720	-10.359360	-0.785075	0.105970	0.046667	0.000000	-0.004887	-0.040317
199	15.892578	0.009125	-0.235440	0.235440	-10.359360	-0.780597	0.104478	0.045000	-0.004887	-0.007330	-0.045204
200	15.901703	0.009125	-0.588600	0.235440	-10.241640	-0.783582	0.105970	0.043333	0.009774	-0.008552	-0.047647
201	15.910828	0.009125	-0.470880	0.117720	-10.359360	-0.786567	0.105970	0.043333	0.008552	-0.004887	-0.050091
202	15.919952	0.009125	-0.824040	0.117720	-10.359360	-0.783582	0.105970	0.045000	0.002443	-0.003665	-0.045204
203	15.929108	0.009155	-0.706320	0.000000	-10.477080	-0.785075	0.104478	0.040000	-0.007330	-0.007330	-0.040317
204	15.938232	0.009125	-0.588600	0.000000	-10.359360	-0.789552	0.100000	0.041667	-0.012217	0.003665	-0.034208
205	15.947357	0.009125	-0.470880	0.117720	-10.241640	-0.797015	0.097015	0.065000	-0.002443	0.002443	-0.042761
206	15.956482	0.009125	-0.470880	0.000000	-10.241640	-0.789552	0.102985	0.046667	0.001222	-0.001222	-0.050091
207	15.965607	0.009125	-0.588600	0.117720	-10.123920	-0.785075	0.105970	0.041667	-0.014661	-0.006109	-0.045204
208	15.974762	0.009155	-0.706320	0.117720	-10.359360	-0.783582	0.104478	0.041667	0.003665	-0.001222	-0.050091
209	15.983887	0.009125	-0.470880	0.235440	-10.359360	-0.785075	0.102985	0.041667	0.001222	-0.012217	-0.054978
210	15.993011	0.009125	-0.470880	0.117720	-10.241640	-0.783582	0.105970	0.045000	0.001222	-0.013439	-0.050091
211	16.002136	0.009125	-0.470880	0.117720	-10.241640	-0.782090	0.102985	0.041667	0.009774	-0.003665	-0.043982
212	16.011261	0.009125	-0.588600	0.117720	-10.594800	-0.783582	0.105970	0.040000	-0.012217	-0.014661	-0.040317
213	16.020386	0.009125	-0.588600	0.000000	-10.359360	-0.785075	0.108955	0.040000	-0.009774	-0.019548	-0.048869
214	16.029510	0.009125	-0.588600	0.117720	-10.359360	-0.783582	0.107463	0.041667	-0.010996	-0.017104	-0.051313
215	16.038635	0.009125	-0.588600	0.235440	-10.359360	-0.783582	0.104478	0.041667	-0.009774	-0.013439	-0.046426
216	16.047760	0.009125	-0.470880	0.117720	-10.359360	-0.779104	0.107463	0.041667	-0.002443	-0.013439	-0.051313
217	16.056885	0.009125	-0.588600	0.235440	-10.359360	-0.783582	0.102985	0.040000	-0.004887	-0.003665	-0.040317
218	16.066010	0.009125	-0.470880	0.117720	-10.477080	-0.780597	0.105970	0.048333	-0.018326	-0.009774	-0.042761
219	16.075134	0.009125	-0.470880	0.235440	-10.359360	-0.783582	0.105970	0.041667	-0.003665	-0.004887	-0.036652
220	16.084290	0.009155	-0.706320	0.000000	-10.359360	-0.785075	0.105970	0.040000	0.003665	-0.010996	-0.057421
221	16.094116	0.009827	-0.353160	0.117720	-10.241640	-0.785075	0.102985	0.045000	-0.001222	-0.013439	-0.048869
222	16.102539	0.008423	-0.470880	0.235440	-10.359360	-0.780597	0.102985	0.046667	0.000000	-0.004887	-0.051313
223	16.111664	0.009125	-0.353160	0.117720	-10.477080	-0.797015	0.095522	0.060000	-0.012217	-0.008552	-0.046426
224	16.120789	0.009125	-0.588600	0.000000	-10.359360	-0.786567	0.101493	0.048333	-0.010996	-0.009774	-0.031765
225	16.129913	0.009125	-0.588600	0.000000	-10.359360	-0.782090	0.107463	0.045000	0.000000	-0.002443	-0.041539
226	16.139069	0.009155	-0.470880	0.117720	-10.359360	-0.785075	0.104478	0.045000	-0.003665	-0.004887	-0.041539
227	16.148193	0.009125	-0.353160	0.117720	-10.359360	-0.785075	0.105970	0.041667	0.006109	0.003665	-0.040317
228	16.157318	0.009125	-0.470880	0.117720	-10.241640	-0.783582	0.104478	0.046667	-0.002443	-0.017104	-0.047647
229	16.166443	0.009125	-0.470880	0.117720	-10.359360	-0.783582	0.104478	0.038333	0.001222	0.001222	-0.046426
230	16.175568	0.009125	-0.706320	0.000000	-10.359360	-0.783582	0.107463	0.043333	0.001222	0.008552	-0.036652
231	16.184723	0.009155	-0.588600	0.000000	-10.477080	-0.785075	0.105970	0.041667	0.000000	-0.006109	-0.047647
232	16.193848	0.009125	-0.824040	-0.117720	-10.359360	-0.782090	0.107463	0.041667	0.000000	-0.003665	-0.043982
233	16.202972	0.009125	-0.470880	0.117720	-10.359360	-0.785075	0.105970	0.040000	-0.007330	-0.002443	-0.035430
234	16.212097	0.009125	-0.588600	0.117720	-10.241640	-0.782090	0.105970	0.045000	-0.008552	0.000000	-0.040317
235	16.221222	0.009125	-0.470880	0.000000	-10.241640	-0.783582	0.105970	0.043333	-0.004887	-0.004887	-0.048869
236	16.230347	0.009125	-0.824040	0.117720	-10.241640	-0.783582	0.104478	0.045000	0.002443	0.002443	-0.042761
237	16.239471	0.009125	-0.588600	0.117720	-10.241640	-0.783582	0.104478	0.043333	0.004887	-0.001222	-0.042761
238	16.254089	0.014618	-0.588600	0.117720	-10.477080	-0.782090	0.108955	0.041667	0.000000	-0.004887	-0.052534
239	16.262299	0.008209	-0.588600	0.000000	-10.241640	-0.785075	0.105970	0.040000	0.003665	0.000000	-0.047647
240	16.271423	0.009125	-0.588600	0.000000	-10.241640	-0.785075	0.107463	0.041667	0.007330	0.001222	-0.041539
241	16.280548	0.009125	-0.353160	0.117720	-10.123920	-0.785075	0.107463	0.041667	0.000000	-0.006109	-0.041539
242	16.289673	0.009125	-0.588600	0.000000	-10.477080	-0.795522	0.094030	0.061667	0.002443	0.001222	-0.042761
243	16.298828	0.009155	-0.588600	0.117720	-10.477080	-0.789552	0.101493	0.050000	-0.012217	-0.009774	-0.043982
244	16.307953	0.009125	-0.470880	0.000000	-10.359360	-0.782090	0.104478	0.040000	0.009774	-0.013439	-0.050091
245	16.317078	0.009125	-0.588600	0.000000	-10.359360	-0.783582	0.105970	0.041667	0.003665	0.006109	-0.037874
246	16.326233	0.009155	-0.235440	0.000000	-10.359360	-0.783582	0.107463	0.043333	-0.010996	-0.010996	-0.036652
247	16.335358	0.009125	-0.235440	0.235440	-10.359360	-0.788060	0.108955	0.040000	0.004887	-0.001222	-0.054978
248	16.344482	0.009125	-0.706320	0.000000	-10.123920	-0.782090	0.107463	0.041667	0.000000	0.002443	-0.042761
249	16.353607	0.009125	-0.470880	0.000000	-10.241640	-0.785075	0.104478	0.040000	0.006109	-0.002443	-0.051313
250	16.362732	0.009125	-0.470880	0.117720	-10.359360	-0.783582	0.104478	0.040000	-0.006109	-0.003665	-0.042761
251	16.371887	0.009155	-0.824040	0.117720	-10.359360	-0.785075	0.105970	0.041667	-0.009774	-0.019548	-0.045204
252	16.381012	0.009125	-0.588600	0.235440	-10.359360	-0.783582	0.105970	0.041667	-0.003665	-0.018326	-0.056200
253	16.390137	0.009125	-0.235440	0.000000	-10.359360	-0.785075	0.104478	0.041667	0.000000	-0.020769	-0.054978
254	16.399261	0.009125	-0.353160	0.000000	-10.359360	-0.785075	0.105970	0.043333	0.002443	-0.013439	-0.046426
255	16.408417	0.009155	-0.353160	0.117720	-10.241640	-0.785075	0.105970	0.038333	0.001222	-0.003665	-0.039095
256	16.417542	0.009125	-0.824040	0.000000	-10.241640	-0.780597	0.102985	0.040000	0.001222	-0.007330	-0.046426
257	16.426666	0.009125	-0.353160	0.000000	-10.241640	-0.785075	0.104478	0.045000	-0.002443	-0.009774	-0.047647
258	16.435791	0.009125	-0.353160	0.000000	-10.477080	-0.782090	0.105970	0.045000	-0.001222	-0.009774	-0.043982
259	16.444916	0.009125	-0.470880	0.000000	-10.241640	-0.782090	0.102985	0.043333	-0.009774	-0.012217	-0.046426
260	16.454041	0.009125	-0.824040	0.000000	-10.123920	-0.797015	0.095522	0.060000	-0.012217	-0.015882	-0.045204
261	16.463165	0.009125	-0.588600	0.000000	-10.241640	-0.786567	0.102985	0.048333	-0.002443	-0.013439	-0.043982
262	16.472321	0.009155	-0.353160	0.000000	-10.359360	-0.782090	0.104478	0.043333	0.004887	0.001222	-0.048869
263	16.481445	0.009125	-0.588600	0.000000	-10.359360	-0.783582	0.105970	0.045000	0.004887	-0.007330	-0.041539
264	16.490570	0.009125	-0.588600	0.000000	-10.359360	-0.782090	0.105970	0.041667	0.006109	-0.003665	-0.048869
265	16.499695	0.009125	-0.470880	0.117720	-10.359360	-0.779104	0.108955	0.040000	0.006109	-0.003665	-0.048869
266	16.508820	0.009125	-0.588600	0.117720	-10.359360	-0.780597	0.107463	0.046667	-0.015882	-0.014661	-0.043982
267	16.517975	0.009155	-0.353160	0.117720	-10.477080	-0.785075	0.107463	0.040000	-0.014661	-0.010996	-0.042761
268	16.527100	0.009125	-0.588600	0.000000	-10.359360	-0.782090	0.107463	0.043333	0.001222	-0.003665	-0.050091
269	16.536224	0.009125	-0.588600	0.117720	-10.359360	-0.783582	0.104478	0.045000	0.004887	-0.002443	-0.046426
270	16.545349	0.009125	-0.588600	0.117720	-10.241640	-0.780597	0.104478	0.041667	-0.003665	-0.007330	-0.045204
271	16.559784	0.014435	-0.353160	0.117720	-10.359360	-0.783582	0.104478	0.043333	0.004887	-0.006109	-0.051313
272	16.568176	0.008392	-0.470880	0.235440	-10.359360	-0.777612	0.104478	0.041667	-0.006109	-0.014661	-0.051313
273	16.577301	0.009125	-0.588600	0.235440	-10.359360	-0.780597	0.104478	0.043333	-0.023213	-0.010996	-0.046426
274	16.586426	0.009125	-0.588600	0.117720	-10.359360	-0.780597	0.105970	0.038333	-0.006109	-0.014661	-0.043982
275	16.595551	0.009125	-0.353160	0.000000	-10.359360	-0.782090	0.105970	0.046667	-0.001222	-0.019548	-0.041539
276	16.604675	0.009125	-0.235440	0.000000	-10.359360	-0.782090	0.104478	0.045000	-0.006109	-0.019548	-0.051313
277	16.613800	0.009125	-0.353160	0.000000	-10.359360	-0.782090	0.105970	0.043333	0.000000	-0.017104	-0.046426
278	16.622955	0.009155	-0.470880	0.000000	-10.477080	-0.782090	0.105970	0.043333	-0.001222	-0.002443	-0.039095
279	16.632080	0.009125	-0.588600	0.000000	-10.359360	-0.795522	0.094030	0.060000	0.002443	-0.008552	-0.040317
280	16.641205	0.009125	-0.588600	0.000000	-10.359360	-0.786567	0.104478	0.046667	0.002443	0.003665	-0.042761
281	16.650330	0.009125	-0.470880	0.117720	-10.359360	-0.783582	0.104478	0.040000	0.004887	-0.002443	-0.047647
282	16.659454	0.009125	-0.706320	0.117720	-10.359360	-0.786567	0.105970	0.043333	-0.010996	-0.013439	-0.043982
283	16.668610	0.009155	-0.588600	0.000000	-10.477080	-0.782090	0.104478	0.041667	0.002443	-0.003665	-0.046426
284	16.677734	0.009125	-0.235440	0.000000	-10.241640	-0.782090	0.105970	0.041667	0.003665	-0.004887	-0.052534
285	16.686859	0.009125	-0.353160	0.117720	-10.241640	-0.782090	0.107463	0.043333	-0.008552	-0.004887	-0.046426
286	16.695984	0.009125	-0.353160	0.117720	-10.359360	-0.782090	0.105970	0.043333	-0.015882	-0.004887	-0.039095
287	16.705139	0.009155	-0.588600	0.117720	-10.241640	-0.782090	0.104478	0.045000	-0.002443	-0.014661	-0.051313
288	16.714264	0.009125	-0.470880	0.117720	-10.241640	-0.783582	0.105970	0.041667	-0.006109	-0.010996	-0.045204
289	16.723389	0.009125	-0.706320	0.117720	-10.241640	-0.782090	0.104478	0.040000	-0.002443	-0.017104	-0.046426
290	16.732513	0.009125	-0.470880	0.000000	-10.123920	-0.783582	0.107463	0.043333	0.001222	-0.015882	-0.047647
291	16.741638	0.009125	-0.588600	0.000000	-10.241640	-0.780597	0.104478	0.043333	-0.002443	0.006109	-0.034208
292	16.750763	0.009125	-0.353160	0.117720	-10.359360	-0.782090	0.102985	0.040000	0.012217	0.008552	-0.041539
293	16.759918	0.009155	-0.470880	0.117720	-10.359360	-0.782090	0.104478	0.043333	0.004887	-0.009774	-0.041539
294	16.769043	0.009125	-0.588600	0.117720	-10.359360	-0.783582	0.105970	0.040000	-0.003665	-0.004887	-0.046426
295	16.778168	0.009125	-0.824040	0.117720	-10.477080	-0.782090	0.104478	0.041667	-0.006109	-0.014661	-0.036652
296	16.787292	0.009125	-0.470880	0.117720	-10.241640	-0.783582	0.104478	0.040000	-0.006109	-0.014661	-0.050091
297	16.796417	0.009125	-0.470880	0.117720	-10.359360	-0.797015	0.095522	0.060000	0.002443	-0.001222	-0.047647
298	16.805542	0.009125	-0.353160	0.000000	-10.477080	-0.786567	0.102985	0.046667	-0.008552	-0.015882	-0.048869
299	16.814697	0.009155	-0.941760	0.000000	-10.359360	-0.782090	0.105970	0.041667	0.017104	0.003665	-0.041539
300	16.823822	0.009125	-0.588600	0.000000	-10.359360	-0.783582	0.104478	0.043333	-0.010996	-0.007330	-0.046426
301	16.832947	0.009125	-0.235440	0.235440	-10.359360	-0.783582	0.104478	0.045000	-0.002443	-0.002443	-0.046426
302	16.842102	0.009155	-0.470880	0.000000	-10.477080	-0.786567	0.104478	0.043333	0.001222	-0.004887	-0.045204
303	16.851227	0.009125	-0.470880	0.117720	-10.477080	-0.782090	0.105970	0.043333	0.008552	0.000000	-0.034208
304	16.860352	0.009125	-0.353160	0.235440	-10.359360	-0.785075	0.104478	0.045000	-0.003665	-0.007330	-0.042761
305	16.869476	0.009125	-0.235440	0.117720	-10.241640	-0.782090	0.105970	0.041667	-0.006109	-0.007330	-0.043982
306	16.878601	0.009125	-0.353160	0.000000	-10.241640	-0.785075	0.105970	0.043333	-0.001222	-0.004887	-0.039095
307	16.887726	0.009125	-0.353160	0.117720	-10.241640	-0.783582	0.105970	0.040000	-0.002443	-0.013439	-0.052534
308	16.896851	0.009125	-0.588600	0.000000	-10.241640	-0.786567	0.110448	0.041667	-0.004887	-0.006109	-0.042761
309	16.905975	0.009125	-0.706320	0.117720	-10.359360	-0.782090	0.105970	0.043333	0.000000	-0.003665	-0.039095
310	16.915131	0.009155	-0.824040	0.117720	-10.359360	-0.785075	0.107463	0.046667	0.000000	-0.002443	-0.041539
311	16.924255	0.009125	-0.588600	0.000000	-10.359360	-0.783582	0.104478	0.041667	-0.001222	-0.012217	-0.054978
312	16.933380	0.009125	-0.706320	0.117720	-10.359360	-0.783582	0.104478	0.038333	-0.002443	-0.008552	-0.043982
313	16.942505	0.009125	-0.470880	0.000000	-10.359360	-0.783582	0.107463	0.045000	0.010996	0.006109	-0.041539
314	16.951630	0.009125	-0.824040	0.000000	-10.359360	-0.782090	0.105970	0.041667	-0.002443	0.000000	-0.041539
315	16.960785	0.009155	-0.588600	0.000000	-10.359360	-0.783582	0.105970	0.043333	-0.015882	-0.017104	-0.043982
316	16.969910	0.009125	-0.588600	0.000000	-10.241640	-0.795522	0.097015	0.061667	-0.003665	-0.006109	-0.040317
317	16.979034	0.009125	-0.588600	0.117720	-10.241640	-0.786567	0.102985	0.048333	0.000000	-0.002443	-0.040317
318	16.988159	0.009125	-0.706320	0.235440	-10.359360	-0.783582	0.107463	0.046667	-0.008552	-0.001222	-0.051313
319	16.997314	0.009155	-0.706320	0.117720	-10.594800	-0.783582	0.104478	0.046667	-0.155160	-0.002443	-0.046426
320	17.006439	0.009125	-0.470880	0.117720	-10.359360	-0.782090	0.104478	0.043333	-0.003665	-0.019548	-0.050091
321	17.015564	0.009125	-0.470880	0.117720	-10.477080	-0.785075	0.104478	0.043333	0.000000	-0.018326	-0.054978
322	17.024689	0.009125	-0.588600	0.235440	-10.241640	-0.782090	0.105970	0.043333	0.001222	-0.004887	-0.039095
323	17.033813	0.009125	-0.706320	0.117720	-10.359360	-0.783582	0.105970	0.041667	0.000000	-0.003665	-0.042761
324	17.042938	0.009125	-0.470880	0.000000	-10.359360	-0.783582	0.104478	0.041667	0.152716	-0.002443	-0.046426
325	17.052063	0.009125	-0.588600	0.000000	-10.359360	-0.782090	0.105970	0.041667	-0.008552	-0.012217	-0.043982
326	17.061188	0.009125	-0.706320	0.000000	-10.359360	-0.779104	0.105970	0.046667	-0.014661	-0.007330	-0.039095
327	17.070343	0.009155	-0.824040	0.117720	-10.359360	-0.782090	0.102985	0.041667	-0.008552	-0.006109	-0.047647
328	17.079468	0.009125	-0.824040	0.117720	-10.123920	-0.782090	0.102985	0.041667	-0.003665	-0.006109	-0.041539
329	17.088593	0.009125	-0.470880	0.117720	-10.359360	-0.783582	0.104478	0.045000	0.010996	0.002443	-0.048869
330	17.097717	0.009125	-0.588600	0.117720	-10.359360	-0.783582	0.107463	0.038333	-0.009774	0.002443	-0.037874
331	17.106873	0.009155	-0.588600	0.000000	-10.359360	-0.783582	0.104478	0.043333	0.007330	-0.007330	-0.052534
332	17.115997	0.009125	-0.470880	0.000000	-10.241640	-0.779104	0.104478	0.043333	0.007330	-0.002443	-0.050091
333	17.125122	0.009125	-0.353160	0.000000	-10.241640	-0.782090	0.104478	0.041667	0.012217	0.000000	-0.041539
334	17.134247	0.009125	-0.470880	0.117720	-10.477080	-0.785075	0.107463	0.040000	0.007330	-0.002443	-0.041539
335	17.143372	0.009125	-0.588600	0.117720	-10.241640	-0.795522	0.095522	0.065000	0.004887	0.010996	-0.036652
336	17.152496	0.009125	-0.588600	0.000000	-10.359360	-0.788060	0.101493	0.046667	0.001222	0.004887	-0.037874
337	17.161621	0.009125	-0.588600	0.117720	-10.359360	-0.783582	0.105970	0.041667	-0.002443	0.010996	-0.040317
338	17.170746	0.009125	-0.588600	0.117720	-10.359360	-0.783582	0.102985	0.041667	-0.006109	-0.001222	-0.039095
339	17.179901	0.009155	-0.588600	0.117720	-10.477080	-0.782090	0.105970	0.041667	-0.008552	-0.003665	-0.041539
340	17.189026	0.009125	-0.470880	0.117720	-10.477080	-0.783582	0.105970	0.041667	-0.008552	-0.001222	-0.037874
341	17.198151	0.009125	-0.235440	0.117720	-10.477080	-0.782090	0.107463	0.043333	-0.012217	-0.006109	-0.040317
342	17.207275	0.009125	-0.353160	0.117720	-10.359360	-0.782090	0.105970	0.040000	0.002443	-0.009774	-0.040317
343	17.216400	0.009125	-0.470880	0.000000	-10.477080	-0.779104	0.101493	0.045000	0.006109	0.001222	-0.036652
344	17.225525	0.009125	-0.706320	0.000000	-10.359360	-0.783582	0.104478	0.043333	-0.007330	-0.008552	-0.041539
345	17.234650	0.009125	-0.470880	0.000000	-10.359360	-0.783582	0.105970	0.048333	0.003665	-0.012217	-0.046426
346	17.243774	0.009125	-0.470880	0.235440	-10.241640	-0.786567	0.104478	0.041667	0.000000	-0.002443	-0.042761
347	17.252899	0.009125	-0.588600	0.235440	-10.359360	-0.782090	0.104478	0.040000	0.000000	-0.007330	-0.042761
348	17.262024	0.009125	-0.353160	0.117720	-10.359360	-0.783582	0.107463	0.040000	0.001222	-0.004887	-0.041539
349	17.271179	0.009155	-0.353160	0.117720	-10.359360	-0.783582	0.107463	0.045000	-0.003665	0.002443	-0.039095
350	17.280304	0.009125	-0.470880	0.117720	-10.359360	-0.782090	0.105970	0.043333	-0.012217	-0.008552	-0.041539
351	17.289429	0.009125	-0.706320	0.117720	-10.477080	-0.785075	0.105970	0.046667	0.007330	-0.001222	-0.043982
352	17.298553	0.009125	-0.706320	0.117720	-10.241640	-0.786567	0.104478	0.041667	0.001222	-0.004887	-0.047647
353	17.307678	0.009125	-0.470880	0.000000	-10.241640	-0.797015	0.097015	0.066667	0.002443	0.004887	-0.039095
354	17.316803	0.009125	-0.353160	0.000000	-10.241640	-0.785075	0.101493	0.050000	-0.003665	-0.010996	-0.040317
355	17.325928	0.009125	-0.353160	0.000000	-10.359360	-0.782090	0.104478	0.041667	0.001222	-0.006109	-0.051313
356	17.335052	0.009125	-0.706320	0.117720	-10.359360	-0.783582	0.105970	0.043333	-0.002443	0.008552	-0.042761
357	17.344177	0.009125	-0.588600	0.117720	-10.241640	-0.782090	0.104478	0.043333	-0.004887	0.001222	-0.037874
358	17.353302	0.009125	-0.824040	-0.117720	-10.359360	-0.783582	0.108955	0.040000	0.004887	-0.006109	-0.048869
359	17.362427	0.009125	-0.706320	0.117720	-10.241640	-0.780597	0.105970	0.040000	0.012217	-0.001222	-0.039095
360	17.371582	0.009155	-0.588600	0.117720	-10.359360	-0.783582	0.104478	0.041667	0.004887	-0.003665	-0.043982
361	17.380707	0.009125	-0.588600	-0.117720	-10.359360	-0.782090	0.108955	0.045000	-0.002443	-0.009774	-0.051313
362	17.389832	0.009125	-0.824040	0.000000	-10.359360	-0.780597	0.104478	0.041667	0.001222	-0.009774	-0.043982
363	17.398956	0.009125	-0.588600	0.000000	-10.359360	-0.782090	0.104478	0.041667	0.003665	0.002443	-0.042761
364	17.408112	0.009155	-0.941760	0.000000	-10.359360	-0.783582	0.105970	0.040000	-0.012217	-0.012217	-0.048869
365	17.417236	0.009125	-0.706320	-0.117720	-10.359360	-0.785075	0.110448	0.045000	-0.007330	-0.015882	-0.050091
366	17.426361	0.009125	-0.470880	0.000000	-10.359360	-0.785075	0.104478	0.041667	-0.003665	-0.001222	-0.040317
367	17.435486	0.009125	-0.588600	0.117720	-10.241640	-0.780597	0.105970	0.038333	0.000000	-0.002443	-0.046426
368	17.444611	0.009125	-0.470880	0.117720	-10.123920	-0.783582	0.105970	0.043333	0.003665	0.000000	-0.043982
369	17.453888	0.009277	-0.706320	0.000000	-10.359360	-0.785075	0.108955	0.040000	-0.018326	-0.008552	-0.041539
370	17.462891	0.009003	-0.706320	0.117720	-10.359360	-0.783582	0.104478	0.041667	-0.009774	-0.004887	-0.034208
371	17.472015	0.009125	-0.470880	0.235440	-10.241640	-0.797015	0.094030	0.061667	0.003665	0.003665	-0.042761
372	17.481171	0.009155	-0.470880	0.117720	-10.359360	-0.788060	0.102985	0.045000	0.001222	-0.006109	-0.045204
373	17.490295	0.009125	-0.353160	0.117720	-10.359360	-0.783582	0.107463	0.041667	0.006109	0.006109	-0.048869
374	17.499451	0.009155	-0.353160	0.117720	-10.477080	-0.785075	0.105970	0.041667	0.001222	-0.007330	-0.046426
375	17.508575	0.009125	-0.470880	0.000000	-10.477080	-0.783582	0.107463	0.041667	-0.006109	-0.012217	-0.043982
376	17.517700	0.009125	-0.706320	0.353160	-10.359360	-0.782090	0.105970	0.043333	0.002443	0.000000	-0.041539
377	17.526855	0.009155	-0.588600	0.117720	-10.477080	-0.780597	0.105970	0.041667	-0.010996	-0.010996	-0.042761
378	17.535980	0.009125	-0.706320	0.117720	-10.359360	-0.783582	0.105970	0.041667	-0.003665	-0.007330	-0.047647
379	17.545105	0.009125	-0.588600	0.117720	-10.477080	-0.783582	0.104478	0.043333	-0.007330	-0.015882	-0.050091
380	17.554230	0.009125	-0.706320	0.117720	-10.477080	-0.782090	0.105970	0.045000	-0.003665	-0.004887	-0.040317
381	17.563385	0.009155	-0.470880	0.117720	-10.359360	-0.782090	0.104478	0.043333	-0.001222	0.000000	-0.042761
382	17.572510	0.009125	-0.706320	0.117720	-10.359360	-0.783582	0.105970	0.041667	-0.006109	0.000000	-0.046426
383	17.581635	0.009125	-0.470880	0.117720	-10.359360	-0.780597	0.105970	0.043333	0.002443	-0.006109	-0.047647
384	17.590759	0.009125	-0.470880	0.000000	-10.123920	-0.782090	0.104478	0.040000	-0.006109	-0.001222	-0.030543
385	17.599915	0.009155	-0.470880	0.000000	-10.241640	-0.782090	0.104478	0.041667	-0.002443	-0.004887	-0.050091
386	17.609039	0.009125	-0.588600	0.117720	-10.359360	-0.782090	0.104478	0.041667	0.009774	0.002443	-0.052534
387	17.618164	0.009125	-0.353160	0.000000	-10.477080	-0.785075	0.101493	0.041667	0.004887	-0.001222	-0.043982
388	17.627319	0.009155	-0.353160	0.000000	-10.477080	-0.783582	0.105970	0.040000	-0.006109	-0.003665	-0.040317
389	17.636444	0.009125	-0.235440	0.117720	-10.359360	-0.780597	0.104478	0.040000	0.010996	-0.001222	-0.053756
390	17.645569	0.009125	-0.353160	0.117720	-10.359360	-0.795522	0.094030	0.058333	0.003665	-0.006109	-0.046426
391	17.654694	0.009125	-0.235440	0.117720	-10.359360	-0.788060	0.102985	0.051667	-0.003665	-0.013439	-0.037874
392	17.663818	0.009125	-0.588600	0.117720	-10.241640	-0.783582	0.105970	0.045000	-0.010996	-0.009774	-0.039095
393	17.672943	0.009125	-0.117720	0.000000	-10.359360	-0.785075	0.102985	0.045000	-0.006109	-0.006109	-0.047647
394	17.682068	0.009125	-0.470880	0.000000	-10.241640	-0.782090	0.105970	0.043333	0.012217	0.001222	-0.045204
395	17.691193	0.009125	-0.470880	0.235440	-10.359360	-0.780597	0.104478	0.041667	0.002443	0.006109	-0.045204
396	17.700348	0.009155	-0.235440	0.353160	-10.241640	-0.780597	0.108955	0.043333	0.002443	0.002443	-0.042761
397	17.709473	0.009125	-0.353160	0.000000	-10.359360	-0.782090	0.105970	0.041667	0.006109	0.000000	-0.045204
398	17.718597	0.009125	-0.588600	0.000000	-10.241640	-0.783582	0.105970	0.041667	0.004887	0.000000	-0.051313
399	17.727722	0.009125	-0.588600	0.000000	-10.359360	-0.782090	0.104478	0.043333	0.003665	0.010996	-0.041539
400	17.736847	0.009125	-0.588600	0.000000	-10.359360	-0.780597	0.105970	0.045000	0.004887	-0.007330	-0.043982
401	17.745972	0.009125	-0.706320	0.117720	-10.359360	-0.779104	0.105970	0.041667	-0.002443	-0.008552	-0.046426
402	17.755127	0.009155	-1.177200	0.235440	-10.477080	-0.782090	0.104478	0.043333	-0.015882	-0.009774	-0.047647
403	17.769531	0.014404	-0.824040	0.117720	-10.477080	-0.777612	0.104478	0.043333	0.000000	-0.004887	-0.039095
404	17.777954	0.008423	-0.470880	0.353160	-10.241640	-0.776119	0.108955	0.050000	0.003665	0.002443	-0.035430
405	17.787079	0.009125	-0.588600	0.117720	-10.241640	-0.777612	0.105970	0.040000	-0.002443	-0.003665	-0.041539
406	17.796204	0.009125	-0.353160	0.235440	-10.359360	-0.780597	0.105970	0.040000	0.006109	-0.014661	-0.053756
407	17.805328	0.009125	-0.470880	0.117720	-10.359360	-0.780597	0.105970	0.043333	-0.012217	-0.008552	-0.040317
408	17.814453	0.009125	-0.588600	0.117720	-10.594800	-0.779104	0.104478	0.040000	0.001222	0.001222	-0.039095
409	17.823608	0.009155	-0.353160	0.235440	-10.241640	-0.792537	0.095522	0.060000	-0.002443	0.004887	-0.047647
410	17.832733	0.009125	-0.588600	0.117720	-10.359360	-0.785075	0.101493	0.048333	-0.002443	0.001222	-0.036652
411	17.841858	0.009125	-0.470880	0.000000	-10.359360	-0.780597	0.102985	0.041667	-0.010996	-0.018326	-0.046426
412	17.850983	0.009125	-0.353160	0.000000	-10.359360	-0.780597	0.105970	0.043333	0.006109	-0.004887	-0.040317
413	17.860107	0.009125	-0.470880	0.000000	-10.241640	-0.777612	0.107463	0.043333	0.006109	0.007330	-0.041539
414	17.869263	0.009155	-0.353160	0.117720	-10.359360	-0.777612	0.105970	0.043333	-0.012217	-0.010996	-0.045204
415	17.878387	0.009125	-0.588600	0.000000	-10.359360	-0.782090	0.105970	0.040000	-0.008552	-0.010996	-0.043982
416	17.887512	0.009125	-0.353160	0.117720	-10.594800	-0.780597	0.107463	0.038333	0.003665	-0.002443	-0.046426
417	17.896637	0.009125	-0.470880	0.117720	-10.359360	-0.779104	0.104478	0.041667	0.000000	-0.004887	-0.041539
418	17.905762	0.009125	-0.470880	0.117720	-10.359360	-0.779104	0.104478	0.041667	0.007330	-0.002443	-0.050091
419	17.914886	0.009125	-0.824040	0.235440	-10.359360	-0.779104	0.105970	0.043333	-0.001222	0.000000	-0.057421
420	17.924011	0.009125	-0.824040	0.000000	-10.241640	-0.776119	0.104478	0.041667	-0.007330	-0.007330	-0.048869
421	17.933807	0.009796	-0.588600	0.000000	-10.359360	-0.779104	0.107463	0.043333	0.000000	-0.003665	-0.042761
422	17.942291	0.008484	-0.470880	0.000000	-10.241640	-0.780597	0.104478	0.043333	0.009774	-0.004887	-0.047647
423	17.951416	0.009125	-0.588600	0.000000	-10.359360	-0.780597	0.107463	0.043333	0.006109	-0.002443	-0.037874
424	17.960541	0.009125	-0.588600	0.000000	-10.359360	-0.780597	0.107463	0.040000	0.003665	0.000000	-0.039095
425	17.969666	0.009125	-0.470880	0.000000	-10.123920	-0.779104	0.105970	0.041667	0.001222	0.009774	-0.039095
426	17.978790	0.009125	-0.588600	0.000000	-10.241640	-0.779104	0.104478	0.043333	0.000000	0.008552	-0.034208
427	17.987946	0.009155	-0.706320	-0.117720	-10.359360	-0.791045	0.095522	0.060000	0.147829	0.010996	-0.041539
428	17.997070	0.009125	-0.470880	0.000000	-10.241640	-0.786567	0.102985	0.048333	-0.003665	-0.008552	-0.041539
429	18.006195	0.009125	-0.470880	0.235440	-10.359360	-0.780597	0.104478	0.045000	-0.015882	-0.012217	-0.039095
430	18.015320	0.009125	-0.470880	0.117720	-10.477080	-0.782090	0.107463	0.040000	-0.004887	-0.008552	-0.050091
431	18.024445	0.009125	-0.470880	0.117720	-10.359360	-0.779104	0.105970	0.043333	-0.002443	-0.002443	-0.042761
432	18.033569	0.009125	-0.353160	0.117720	-10.477080	-0.780597	0.107463	0.038333	0.003665	-0.002443	-0.042761
433	18.042694	0.009125	-0.470880	0.117720	-10.359360	-0.779104	0.104478	0.041667	0.003665	0.000000	-0.037874
434	18.051849	0.009155	-0.824040	0.000000	-10.359360	-0.777612	0.107463	0.043333	0.009774	0.004887	-0.031765
435	18.060974	0.009125	-0.706320	0.235440	-10.241640	-0.777612	0.102985	0.041667	0.012217	0.003665	-0.045204
436	18.070099	0.009125	-0.941760	0.117720	-10.359360	-0.779104	0.104478	0.041667	0.006109	-0.001222	-0.051313
437	18.079224	0.009125	-0.588600	0.117720	-10.359360	-0.782090	0.104478	0.041667	0.000000	-0.001222	-0.048869
438	18.088348	0.009125	-0.706320	0.117720	-10.359360	-0.780597	0.107463	0.040000	-0.008552	-0.018326	-0.052534
439	18.097473	0.009125	-0.706320	0.117720	-10.359360	-0.779104	0.104478	0.040000	-0.007330	-0.004887	-0.051313
440	18.106598	0.009125	-0.353160	0.117720	-10.359360	-0.779104	0.107463	0.038333	-0.004887	-0.012217	-0.042761
441	18.115723	0.009125	-0.588600	0.235440	-10.359360	-0.780597	0.107463	0.040000	-0.001222	-0.008552	-0.048869
442	18.124878	0.009155	-0.353160	0.117720	-10.359360	-0.777612	0.105970	0.043333	-0.001222	0.000000	-0.045204
443	18.134003	0.009125	-0.353160	0.000000	-10.359360	-0.779104	0.105970	0.040000	0.000000	-0.001222	-0.041539
444	18.143127	0.009125	-0.353160	0.117720	-10.359360	-0.777612	0.105970	0.038333	0.003665	-0.009774	-0.052534
445	18.152252	0.009125	-0.470880	0.117720	-10.359360	-0.779104	0.105970	0.043333	0.001222	-0.008552	-0.040317
446	18.161377	0.009125	-0.588600	0.117720	-10.477080	-0.791045	0.095522	0.060000	0.000000	-0.006109	-0.046426
447	18.170502	0.009125	-0.470880	0.000000	-10.594800	-0.782090	0.102985	0.045000	-0.004887	-0.013439	-0.047647
448	18.179626	0.009125	-0.470880	0.000000	-10.123920	-0.779104	0.105970	0.041667	-0.007330	-0.018326	-0.041539
449	18.188751	0.009125	-0.470880	0.117720	-10.477080	-0.779104	0.104478	0.038333	-0.002443	-0.007330	-0.056200
450	18.197876	0.009125	-0.588600	0.000000	-10.359360	-0.779104	0.104478	0.043333	0.006109	-0.013439	-0.052534
451	18.207001	0.009125	-0.588600	0.117720	-10.359360	-0.777612	0.107463	0.043333	0.002443	-0.012217	-0.047647
452	18.216156	0.009155	-0.470880	0.117720	-10.359360	-0.780597	0.105970	0.041667	-0.001222	-0.010996	-0.050091
453	18.225281	0.009125	-0.588600	0.117720	-10.359360	-0.782090	0.104478	0.040000	-0.002443	-0.004887	-0.043982
454	18.234406	0.009125	-0.470880	0.117720	-10.359360	-0.777612	0.102985	0.041667	0.006109	0.006109	-0.039095
455	18.243530	0.009125	-0.353160	0.000000	-10.241640	-0.779104	0.105970	0.045000	0.004887	-0.009774	-0.042761
456	18.252686	0.009155	-0.588600	0.117720	-10.359360	-0.780597	0.105970	0.043333	-0.006109	-0.008552	-0.047647
457	18.261810	0.009125	-0.470880	0.117720	-10.359360	-0.776119	0.102985	0.043333	-0.007330	-0.015882	-0.045204
458	18.270935	0.009125	-0.353160	0.117720	-10.477080	-0.779104	0.107463	0.041667	-0.001222	-0.004887	-0.047647
459	18.280060	0.009125	-0.235440	0.117720	-10.359360	-0.779104	0.102985	0.043333	-0.003665	-0.013439	-0.050091
460	18.289185	0.009125	-0.588600	0.000000	-10.241640	-0.779104	0.104478	0.041667	0.000000	-0.014661	-0.052534
461	18.298309	0.009125	-0.470880	0.117720	-10.477080	-0.779104	0.104478	0.043333	-0.001222	-0.009774	-0.051313
462	18.307434	0.009125	-0.706320	0.000000	-10.359360	-0.777612	0.104478	0.041667	0.007330	-0.009774	-0.050091
463	18.316559	0.009125	-0.588600	0.000000	-10.359360	-0.779104	0.104478	0.041667	0.001222	-0.010996	-0.051313
464	18.325684	0.009125	-0.588600	0.117720	-10.359360	-0.789552	0.095522	0.060000	0.010996	-0.010996	-0.052534
465	18.334839	0.009155	-0.470880	0.235440	-10.477080	-0.783582	0.100000	0.048333	-0.004887	-0.008552	-0.047647
466	18.343964	0.009125	-0.470880	0.117720	-10.359360	-0.780597	0.107463	0.041667	0.000000	0.000000	-0.048869
467	18.353088	0.009125	-0.588600	0.000000	-10.241640	-0.779104	0.105970	0.038333	0.000000	-0.003665	-0.035430
468	18.362213	0.009125	-0.470880	0.117720	-10.359360	-0.776119	0.104478	0.041667	-0.001222	-0.014661	-0.051313
469	18.371338	0.009125	-0.470880	0.235440	-10.241640	-0.779104	0.105970	0.043333	0.003665	0.006109	-0.041539
470	18.380493	0.009155	-0.470880	0.000000	-10.359360	-0.777612	0.104478	0.043333	0.006109	-0.001222	-0.045204
471	18.389618	0.009125	-0.824040	0.117720	-10.241640	-0.777612	0.107463	0.041667	0.004887	0.000000	-0.042761
472	18.398743	0.009125	-0.588600	0.000000	-10.359360	-0.779104	0.104478	0.041667	0.007330	-0.003665	-0.041539
473	18.407867	0.009125	-0.353160	0.117720	-10.241640	-0.779104	0.105970	0.045000	-0.012217	-0.010996	-0.043982
474	18.416992	0.009125	-0.470880	0.117720	-10.359360	-0.782090	0.108955	0.041667	0.001222	0.000000	-0.035430
475	18.426117	0.009125	-0.706320	0.117720	-10.123920	-0.776119	0.105970	0.043333	0.002443	-0.008552	-0.046426
476	18.435272	0.009155	-0.470880	0.235440	-10.241640	-0.779104	0.105970	0.045000	0.001222	-0.004887	-0.052534
477	18.444397	0.009125	-0.353160	0.117720	-10.241640	-0.780597	0.102985	0.041667	0.009774	0.000000	-0.050091
478	18.453522	0.009125	-0.588600	0.117720	-10.359360	-0.780597	0.105970	0.043333	-0.004887	-0.012217	-0.050091
479	18.462646	0.009125	-0.706320	0.235440	-10.359360	-0.779104	0.102985	0.043333	-0.008552	-0.001222	-0.039095
480	18.471802	0.009155	-0.588600	0.000000	-10.241640	-0.779104	0.104478	0.041667	0.000000	-0.002443	-0.048869
481	18.480927	0.009125	-0.353160	0.117720	-10.477080	-0.779104	0.107463	0.040000	0.000000	0.000000	-0.041539
482	18.490051	0.009125	-0.588600	0.117720	-10.241640	-0.779104	0.105970	0.043333	-0.009774	0.000000	-0.035430
483	18.499176	0.009125	-0.470880	0.000000	-10.477080	-0.789552	0.100000	0.056667	-0.002443	-0.012217	-0.051313
484	18.508301	0.009125	-0.470880	0.000000	-10.359360	-0.794030	0.095522	0.056667	0.012217	-0.012217	-0.050091
485	18.517426	0.009125	-0.824040	0.000000	-10.123920	-0.779104	0.104478	0.043333	0.006109	-0.008552	-0.051313
486	18.526550	0.009125	-0.706320	0.000000	-10.359360	-0.779104	0.104478	0.041667	0.008552	-0.009774	-0.056200
487	18.535675	0.009125	-0.470880	0.000000	-10.241640	-0.779104	0.104478	0.046667	0.014661	-0.008552	-0.048869
488	18.544830	0.009155	-0.706320	0.000000	-10.241640	-0.779104	0.102985	0.041667	0.009774	0.000000	-0.050091
489	18.553955	0.009125	-0.470880	0.000000	-10.359360	-0.779104	0.107463	0.041667	0.002443	-0.006109	-0.047647
490	18.563080	0.009125	-0.235440	0.117720	-10.241640	-0.779104	0.105970	0.040000	-0.002443	0.002443	-0.040317
491	18.572205	0.009125	-0.470880	0.117720	-10.241640	-0.780597	0.105970	0.041667	-0.004887	-0.002443	-0.039095
492	18.581329	0.009125	-0.353160	0.117720	-10.123920	-0.776119	0.108955	0.041667	-0.017104	-0.013439	-0.039095
493	18.590454	0.009125	-0.706320	0.235440	-10.359360	-0.777612	0.107463	0.043333	-0.010996	-0.004887	-0.047647
494	18.599609	0.009155	-0.824040	0.117720	-10.477080	-0.777612	0.102985	0.041667	-0.014661	-0.015882	-0.045204
495	18.608704	0.009094	-0.470880	0.117720	-10.477080	-0.777612	0.102985	0.046667	-0.014661	-0.003665	-0.042761
496	18.617859	0.009155	-0.470880	0.000000	-10.477080	-0.779104	0.104478	0.046667	-0.007330	-0.007330	-0.042761
497	18.626984	0.009125	-0.235440	0.000000	-10.359360	-0.777612	0.102985	0.041667	0.008552	-0.009774	-0.046426
498	18.636108	0.009125	-0.824040	0.117720	-10.477080	-0.779104	0.105970	0.041667	0.000000	0.002443	-0.041539
499	18.645233	0.009125	-0.588600	0.117720	-10.359360	-0.779104	0.104478	0.040000	0.001222	-0.004887	-0.040317
500	18.654358	0.009125	-0.706320	0.000000	-10.359360	-0.779104	0.107463	0.041667	0.001222	0.002443	-0.037874
501	18.663483	0.009125	-0.353160	0.000000	-10.477080	-0.789552	0.094030	0.063333	-0.010996	-0.009774	-0.042761
502	18.672607	0.009125	-0.235440	0.117720	-10.477080	-0.792537	0.094030	0.056667	-0.007330	-0.004887	-0.039095
503	18.681732	0.009125	-0.117720	0.117720	-10.359360	-0.780597	0.104478	0.043333	0.002443	0.001222	-0.047647
504	18.690857	0.009125	-0.353160	0.117720	-10.241640	-0.779104	0.102985	0.041667	-0.001222	-0.002443	-0.043982
505	18.700012	0.009155	-0.470880	0.117720	-10.359360	-0.776119	0.104478	0.043333	-0.004887	-0.010996	-0.051313
506	18.709137	0.009125	-0.470880	0.235440	-10.359360	-0.777612	0.104478	0.040000	0.012217	-0.150273	-0.050091
507	18.718262	0.009125	-0.470880	0.117720	-10.359360	-0.779104	0.105970	0.043333	0.000000	-0.003665	-0.051313
508	18.727386	0.009125	-0.824040	0.117720	-10.359360	-0.780597	0.105970	0.041667	-0.010996	-0.009774	-0.042761
509	18.736511	0.009125	-0.588600	0.117720	-10.241640	-0.777612	0.107463	0.040000	-0.007330	-0.010996	-0.040317
510	18.745636	0.009125	-0.353160	0.235440	-10.359360	-0.779104	0.105970	0.041667	-0.001222	0.006109	-0.040317
511	18.754791	0.009155	-0.353160	0.235440	-10.241640	-0.776119	0.105970	0.041667	0.006109	-0.013439	-0.046426
512	18.763916	0.009125	-0.588600	0.117720	-10.241640	-0.777612	0.105970	0.043333	0.006109	0.000000	-0.042761
513	18.773041	0.009125	-0.588600	0.000000	-10.241640	-0.779104	0.104478	0.041667	0.007330	-0.012217	-0.054978
514	18.782166	0.009125	-0.470880	-0.117720	-10.359360	-0.780597	0.107463	0.041667	0.001222	-0.007330	-0.045204
515	18.791321	0.009155	-0.353160	0.117720	-10.241640	-0.779104	0.104478	0.041667	-0.013439	0.003665	-0.048869
516	18.800446	0.009125	-0.824040	0.235440	-10.359360	-0.780597	0.105970	0.041667	0.018326	-0.029322	-0.051313
517	18.809570	0.009125	-0.588600	0.117720	-10.477080	-0.780597	0.107463	0.043333	0.004887	-0.001222	-0.045204
518	18.824005	0.014435	-0.588600	0.000000	-10.359360	-0.780597	0.107463	0.038333	-0.002443	-0.003665	-0.046426
519	18.832397	0.008392	-0.588600	0.235440	-10.359360	-0.782090	0.105970	0.040000	0.008552	-0.014661	-0.040317
520	18.841522	0.009125	-0.706320	0.117720	-10.123920	-0.791045	0.094030	0.058333	0.002443	0.004887	-0.045204
521	18.850647	0.009125	-0.706320	0.235440	-10.241640	-0.782090	0.102985	0.046667	-0.010996	0.009774	-0.036652
522	18.859772	0.009125	-0.470880	0.117720	-10.241640	-0.777612	0.105970	0.038333	0.006109	-0.007330	-0.047647
523	18.868896	0.009125	-0.235440	0.117720	-10.359360	-0.776119	0.104478	0.040000	0.006109	-0.002443	-0.046426
524	18.878021	0.009125	-0.588600	0.117720	-10.477080	-0.779104	0.108955	0.041667	-0.007330	-0.002443	-0.041539
525	18.887146	0.009125	-0.588600	0.000000	-10.359360	-0.777612	0.104478	0.041667	-0.007330	-0.004887	-0.039095
526	18.896301	0.009155	-0.706320	0.117720	-10.477080	-0.779104	0.105970	0.040000	0.009774	-0.001222	-0.043982
527	18.905426	0.009125	-0.824040	0.235440	-10.359360	-0.779104	0.105970	0.041667	0.000000	-0.002443	-0.037874
528	18.914551	0.009125	-0.706320	0.235440	-10.241640	-0.780597	0.104478	0.041667	0.003665	-0.008552	-0.054978
529	18.923676	0.009125	-0.588600	0.117720	-10.241640	-0.777612	0.105970	0.041667	0.000000	0.009774	-0.035430
530	18.932831	0.009155	-0.470880	0.117720	-10.241640	-0.776119	0.105970	0.043333	0.001222	-0.007330	-0.041539
531	18.941956	0.009125	-0.706320	0.117720	-10.241640	-0.779104	0.104478	0.040000	-0.013439	-0.006109	-0.041539
532	18.951080	0.009125	-0.235440	0.000000	-10.359360	-0.779104	0.105970	0.041667	-0.001222	0.000000	-0.047647
533	18.960205	0.009125	-0.353160	0.000000	-10.359360	-0.780597	0.105970	0.040000	0.002443	0.003665	-0.036652
534	18.969330	0.009125	-0.588600	0.117720	-10.359360	-0.779104	0.105970	0.041667	-0.002443	-0.003665	-0.036652
535	18.978485	0.009155	-0.588600	0.117720	-10.477080	-0.776119	0.104478	0.045000	0.002443	0.145386	-0.045204
536	18.987610	0.009125	-0.706320	0.117720	-10.477080	-0.779104	0.104478	0.041667	-0.006109	-0.015882	-0.047647
537	18.996735	0.009125	-0.706320	0.235440	-10.123920	-0.777612	0.104478	0.041667	-0.010996	-0.010996	-0.046426
538	19.005859	0.009125	-0.706320	0.117720	-10.359360	-0.791045	0.095522	0.061667	0.001222	-0.007330	-0.041539
539	19.014984	0.009125	-0.470880	0.117720	-10.241640	-0.783582	0.101493	0.050000	0.002443	-0.008552	-0.046426
540	19.024109	0.009125	-0.470880	0.235440	-10.241640	-0.780597	0.102985	0.040000	0.004887	0.000000	-0.043982
541	19.033234	0.009125	-0.470880	0.117720	-10.477080	-0.780597	0.107463	0.043333	-0.002443	-0.003665	-0.045204
542	19.042358	0.009125	-0.588600	0.117720	-10.594800	-0.779104	0.107463	0.041667	-0.008552	-0.010996	-0.052534
543	19.051483	0.009125	-0.588600	0.117720	-10.359360	-0.780597	0.104478	0.040000	-0.006109	-0.008552	-0.045204
544	19.060638	0.009155	-0.470880	0.117720	-10.359360	-0.779104	0.108955	0.040000	0.000000	-0.001222	-0.045204
545	19.069763	0.009125	-0.706320	0.353160	-10.241640	-0.776119	0.104478	0.040000	-0.002443	-0.003665	-0.046426
546	19.078888	0.009125	-0.824040	0.235440	-10.359360	-0.779104	0.105970	0.043333	0.000000	-0.004887	-0.043982
547	19.088013	0.009125	-0.470880	0.117720	-10.241640	-0.779104	0.105970	0.043333	-0.002443	0.004887	-0.037874
548	19.097168	0.009155	-0.470880	0.117720	-10.359360	-0.780597	0.105970	0.041667	0.006109	-0.004887	-0.053756
549	19.106293	0.009125	-0.588600	-0.117720	-10.359360	-0.777612	0.105970	0.040000	0.001222	-0.007330	-0.048869
550	19.115417	0.009125	-0.588600	0.117720	-10.359360	-0.780597	0.105970	0.041667	0.002443	-0.001222	-0.041539
551	19.124542	0.009125	-0.470880	0.000000	-10.477080	-0.779104	0.105970	0.041667	0.000000	-0.004887	-0.048869
552	19.133667	0.009125	-0.470880	0.117720	-10.477080	-0.777612	0.107463	0.041667	0.007330	-0.003665	-0.056200
553	19.142792	0.009125	-0.588600	0.117720	-10.359360	-0.780597	0.107463	0.043333	-0.003665	-0.009774	-0.046426
554	19.151947	0.009155	-0.353160	0.000000	-10.477080	-0.774627	0.102985	0.043333	-0.004887	-0.002443	-0.037874
555	19.161072	0.009125	-0.353160	0.117720	-10.359360	-0.779104	0.104478	0.040000	-0.012217	-0.014661	-0.043982
556	19.170197	0.009125	-0.353160	0.117720	-10.359360	-0.780597	0.108955	0.041667	-0.007330	0.000000	-0.047647
557	19.179321	0.009125	-0.706320	0.117720	-10.123920	-0.792537	0.095522	0.060000	0.006109	0.004887	-0.040317
558	19.188446	0.009125	-0.353160	0.000000	-10.359360	-0.782090	0.104478	0.048333	0.010996	0.004887	-0.039095
559	19.197601	0.009155	-0.588600	0.000000	-10.359360	-0.777612	0.105970	0.043333	-0.001222	0.000000	-0.047647
560	19.206726	0.009125	-0.470880	0.235440	-10.359360	-0.780597	0.102985	0.043333	-0.013439	-0.008552	-0.040317
561	19.215851	0.009125	-0.353160	0.000000	-10.477080	-0.780597	0.104478	0.040000	-0.012217	-0.010996	-0.045204
562	19.224976	0.009125	-0.470880	0.000000	-10.359360	-0.780597	0.107463	0.045000	-0.007330	-0.008552	-0.039095
563	19.234131	0.009155	-0.470880	0.117720	-10.241640	-0.777612	0.102985	0.041667	0.006109	-0.001222	-0.050091
564	19.243256	0.009125	-0.588600	0.000000	-10.241640	-0.777612	0.104478	0.043333	-0.009774	-0.012217	-0.042761
565	19.252380	0.009125	-0.588600	0.117720	-10.359360	-0.779104	0.104478	0.041667	-0.007330	-0.017104	-0.045204
566	19.261505	0.009125	-0.470880	0.117720	-10.477080	-0.779104	0.105970	0.041667	0.002443	-0.009774	-0.052534
567	19.270660	0.009155	-0.588600	0.235440	-10.359360	-0.777612	0.105970	0.043333	-0.017104	-0.015882	-0.054978
568	19.279755	0.009094	-0.588600	0.117720	-10.241640	-0.780597	0.104478	0.040000	-0.004887	-0.014661	-0.047647
569	19.288879	0.009125	-0.235440	0.117720	-10.123920	-0.779104	0.104478	0.043333	0.013439	-0.004887	-0.045204
570	19.298004	0.009125	-0.470880	0.117720	-10.359360	-0.779104	0.100000	0.043333	0.008552	-0.004887	-0.047647
571	19.307159	0.009155	-0.706320	0.117720	-10.123920	-0.780597	0.105970	0.041667	0.018326	0.002443	-0.051313
572	19.316284	0.009125	-0.588600	0.117720	-10.359360	-0.779104	0.105970	0.043333	0.002443	-0.004887	-0.039095
573	19.325409	0.009125	-0.706320	0.235440	-10.359360	-0.779104	0.105970	0.043333	0.000000	-0.014661	-0.045204
574	19.334534	0.009125	-0.706320	0.235440	-10.359360	-0.779104	0.107463	0.040000	0.001222	-0.001222	-0.039095
575	19.343658	0.009125	-0.353160	0.117720	-10.241640	-0.776119	0.105970	0.043333	-0.007330	0.004887	-0.034208
576	19.352783	0.009125	-0.588600	0.117720	-10.241640	-0.791045	0.092537	0.060000	-0.015882	-0.007330	-0.041539
577	19.361908	0.009125	-0.824040	0.117720	-10.241640	-0.783582	0.104478	0.050000	-0.008552	-0.009774	-0.046426
578	19.371033	0.009125	-0.588600	0.117720	-10.241640	-0.780597	0.105970	0.043333	-0.006109	-0.003665	-0.041539
579	19.380157	0.009125	-0.706320	0.117720	-10.359360	-0.776119	0.105970	0.045000	-0.018326	-0.008552	-0.037874
580	19.389282	0.009125	-0.470880	0.117720	-10.359360	-0.776119	0.105970	0.041667	-0.017104	-0.019548	-0.040317
581	19.398407	0.009125	-0.470880	0.117720	-10.241640	-0.779104	0.105970	0.041667	-0.008552	-0.010996	-0.040317
582	19.407562	0.009155	-0.706320	0.000000	-10.477080	-0.776119	0.105970	0.040000	-0.004887	-0.009774	-0.042761
583	19.416687	0.009125	-0.706320	0.235440	-10.477080	-0.779104	0.105970	0.040000	-0.010996	-0.008552	-0.045204
584	19.425812	0.009125	-0.706320	0.235440	-10.477080	-0.780597	0.104478	0.045000	-0.006109	-0.012217	-0.047647
585	19.434937	0.009125	-0.706320	0.117720	-10.359360	-0.779104	0.104478	0.041667	0.001222	0.001222	-0.042761
586	19.444061	0.009125	-0.706320	0.117720	-10.359360	-0.779104	0.104478	0.043333	0.015882	0.007330	-0.042761
587	19.453583	0.009521	-0.353160	0.000000	-10.241640	-0.774627	0.104478	0.048333	0.001222	-0.003665	-0.035430
588	19.462341	0.008759	-0.470880	0.117720	-10.359360	-0.780597	0.104478	0.040000	0.007330	-0.003665	-0.043982
589	19.471466	0.009125	-0.470880	0.000000	-10.359360	-0.779104	0.104478	0.043333	0.013439	-0.007330	-0.048869
590	19.480591	0.009125	-0.824040	0.117720	-10.241640	-0.780597	0.107463	0.040000	0.002443	-0.009774	-0.053756
591	19.489716	0.009125	-0.706320	0.235440	-10.359360	-0.777612	0.104478	0.040000	0.009774	-0.003665	-0.050091
592	19.498840	0.009125	-0.706320	0.117720	-10.359360	-0.777612	0.107463	0.041667	0.004887	0.000000	-0.051313
593	19.507965	0.009125	-0.706320	0.117720	-10.241640	-0.780597	0.104478	0.045000	-0.001222	-0.006109	-0.046426
594	19.517090	0.009125	-0.588600	0.000000	-10.241640	-0.792537	0.095522	0.061667	0.009774	-0.003665	-0.051313
595	19.526245	0.009155	-0.588600	0.000000	-10.359360	-0.782090	0.102985	0.046667	0.008552	0.004887	-0.041539
596	19.535370	0.009125	-0.470880	0.117720	-10.359360	-0.783582	0.105970	0.041667	0.004887	0.008552	-0.046426
597	19.544495	0.009125	-0.470880	-0.117720	-10.241640	-0.777612	0.105970	0.043333	0.002443	-0.001222	-0.045204
598	19.553619	0.009125	-0.706320	0.000000	-10.241640	-0.782090	0.105970	0.041667	0.003665	0.003665	-0.042761
599	19.562744	0.009125	-0.588600	0.117720	-10.359360	-0.779104	0.105970	0.045000	0.000000	-0.146608	-0.043982
600	19.571869	0.009125	-0.824040	0.000000	-10.359360	-0.779104	0.105970	0.041667	0.003665	0.009774	-0.040317
601	19.580994	0.009125	-0.588600	0.000000	-10.477080	-0.780597	0.105970	0.041667	0.000000	0.004887	-0.037874
602	19.590118	0.009125	-0.353160	0.117720	-10.241640	-0.777612	0.105970	0.041667	-0.007330	-0.002443	-0.036652
603	19.599274	0.009155	-0.470880	0.000000	-10.359360	-0.780597	0.105970	0.041667	-0.002443	-0.006109	-0.037874
604	19.608398	0.009125	-0.588600	0.000000	-10.477080	-0.779104	0.104478	0.043333	-0.002443	-0.001222	-0.051313
605	19.617523	0.009125	-0.470880	0.235440	-10.241640	-0.777612	0.105970	0.048333	0.009774	0.000000	-0.058643
606	19.626648	0.009125	-0.588600	0.000000	-10.241640	-0.777612	0.107463	0.041667	0.002443	-0.015882	-0.051313
607	19.635773	0.009125	-0.470880	0.117720	-10.241640	-0.779104	0.107463	0.040000	0.000000	-0.012217	-0.045204
608	19.644897	0.009125	-0.470880	0.117720	-10.241640	-0.780597	0.107463	0.040000	0.003665	-0.010996	-0.043982
609	19.654022	0.009125	-0.353160	0.000000	-10.359360	-0.779104	0.107463	0.043333	0.001222	-0.012217	-0.050091
610	19.663177	0.009155	-0.706320	0.117720	-10.477080	-0.780597	0.104478	0.041667	-0.002443	-0.007330	-0.043982
611	19.672302	0.009125	-0.588600	0.000000	-10.359360	-0.779104	0.105970	0.043333	-0.006109	-0.018326	-0.043982
612	19.681427	0.009125	-0.588600	0.117720	-10.241640	-0.779104	0.105970	0.041667	-0.002443	-0.001222	-0.040317
613	19.690552	0.009125	-0.588600	0.235440	-10.241640	-0.791045	0.095522	0.060000	-0.001222	-0.006109	-0.048869
614	19.699677	0.009125	-0.588600	0.117720	-10.359360	-0.782090	0.104478	0.046667	0.007330	0.002443	-0.045204
615	19.708801	0.009125	-0.470880	0.000000	-10.241640	-0.779104	0.104478	0.041667	0.010996	0.002443	-0.041539
616	19.717926	0.009125	-0.470880	0.000000	-10.359360	-0.782090	0.107463	0.041667	0.002443	0.001222	-0.046426
617	19.727051	0.009125	-0.470880	0.000000	-10.359360	-0.779104	0.105970	0.041667	0.008552	-0.002443	-0.040317
618	19.736176	0.009125	-0.353160	0.000000	-10.359360	-0.777612	0.105970	0.043333	0.006109	0.002443	-0.042761
619	19.745300	0.009125	-0.353160	0.117720	-10.241640	-0.777612	0.107463	0.038333	0.000000	-0.014661	-0.051313
620	19.754425	0.009125	-0.588600	0.117720	-10.359360	-0.776119	0.102985	0.043333	-0.002443	-0.010996	-0.048869
621	19.763580	0.009155	-0.470880	0.000000	-10.359360	-0.780597	0.104478	0.041667	-0.014661	-0.015882	-0.037874
622	19.773499	0.009918	-0.470880	0.235440	-10.241640	-0.776119	0.104478	0.043333	0.001222	-0.009774	-0.052534
623	19.781830	0.008331	-0.588600	0.117720	-10.359360	-0.777612	0.104478	0.040000	0.002443	0.000000	-0.041539
624	19.790985	0.009155	-0.588600	0.235440	-10.359360	-0.779104	0.105970	0.043333	-0.010996	-0.006109	-0.048869
625	19.800110	0.009125	-0.588600	0.117720	-10.359360	-0.780597	0.105970	0.041667	-0.009774	-0.007330	-0.041539
626	19.809235	0.009125	-0.706320	0.117720	-10.359360	-0.779104	0.107463	0.040000	-0.006109	-0.007330	-0.037874
627	19.818359	0.009125	-0.824040	0.117720	-10.241640	-0.780597	0.105970	0.041667	-0.002443	0.000000	-0.042761
628	19.827484	0.009125	-0.824040	0.000000	-10.241640	-0.774627	0.104478	0.043333	-0.003665	-0.002443	-0.040317
629	19.836609	0.009125	-0.706320	0.000000	-10.241640	-0.780597	0.104478	0.040000	0.008552	-0.013439	-0.041539
630	19.845764	0.009155	-0.706320	0.000000	-10.241640	-0.779104	0.105970	0.041667	0.000000	-0.008552	-0.053756
631	19.854889	0.009125	-0.706320	0.235440	-10.359360	-0.786567	0.098507	0.055000	-0.007330	-0.006109	-0.046426
632	19.864014	0.009125	-0.588600	0.117720	-10.359360	-0.783582	0.104478	0.046667	-0.008552	-0.009774	-0.050091
633	19.873138	0.009125	-0.470880	0.000000	-10.359360	-0.777612	0.105970	0.041667	0.001222	-0.007330	-0.048869
634	19.882263	0.009125	-0.470880	0.000000	-10.123920	-0.777612	0.105970	0.041667	-0.012217	-0.009774	-0.039095
635	19.891388	0.009125	-0.353160	0.235440	-10.241640	-0.777612	0.104478	0.041667	-0.006109	-0.001222	-0.043982
636	19.900513	0.009125	-0.470880	0.117720	-10.359360	-0.779104	0.105970	0.043333	-0.003665	-0.010996	-0.050091
637	19.909637	0.009125	-0.588600	0.117720	-10.477080	-0.777612	0.107463	0.041667	0.007330	0.003665	-0.035430
638	19.918793	0.009155	-0.706320	0.235440	-10.359360	-0.780597	0.105970	0.041667	0.002443	-0.006109	-0.043982
639	19.927917	0.009125	-0.824040	0.117720	-10.359360	-0.777612	0.105970	0.041667	0.003665	0.002443	-0.037874
640	19.937042	0.009125	-0.470880	0.000000	-10.477080	-0.777612	0.105970	0.041667	-0.003665	-0.004887	-0.040317
641	19.946167	0.009125	-0.353160	0.000000	-10.477080	-0.777612	0.102985	0.040000	0.000000	-0.006109	-0.050091
642	19.955292	0.009125	-0.706320	0.000000	-10.241640	-0.779104	0.104478	0.041667	-0.002443	-0.004887	-0.041539
643	19.964417	0.009125	-0.588600	0.000000	-10.241640	-0.780597	0.105970	0.043333	0.000000	-0.008552	-0.046426
644	19.973541	0.009125	-0.824040	0.235440	-10.359360	-0.779104	0.105970	0.043333	0.003665	-0.014661	-0.053756
645	19.982697	0.009155	-0.706320	0.000000	-10.477080	-0.780597	0.104478	0.043333	0.000000	0.010996	-0.045204
646	19.991821	0.009125	-0.470880	0.117720	-10.359360	-0.779104	0.104478	0.041667	-0.001222	-0.014661	-0.045204
647	20.000946	0.009125	-0.706320	0.000000	-10.359360	-0.776119	0.104478	0.045000	0.001222	-0.004887	-0.050091
648	20.010071	0.009125	-0.470880	0.000000	-10.241640	-0.780597	0.104478	0.041667	0.152716	-0.003665	-0.042761
649	20.019196	0.009125	-0.588600	0.117720	-10.477080	-0.792537	0.102985	0.061667	-0.004887	-0.008552	-0.037874
650	20.028320	0.009125	-0.588600	0.117720	-10.594800	-0.794030	0.095522	0.055000	-0.001222	0.002443	-0.034208
651	20.037445	0.009125	-0.470880	0.588600	-10.241640	-0.780597	0.105970	0.043333	-0.030543	0.029322	-0.039095
652	20.046600	0.009155	-0.706320	0.000000	-10.241640	-0.777612	0.104478	0.040000	0.029322	-0.020769	-0.039095
653	20.055725	0.009125	-0.588600	0.117720	-10.359360	-0.779104	0.102985	0.041667	0.019548	-0.010996	-0.045204
654	20.064850	0.009125	-0.706320	0.117720	-10.359360	-0.777612	0.104478	0.040000	-0.009774	-0.006109	-0.053756
655	20.073975	0.009125	-0.588600	0.000000	-10.477080	-0.779104	0.104478	0.041667	0.001222	0.001222	-0.050091
656	20.083099	0.009125	-0.470880	0.000000	-10.477080	-0.779104	0.104478	0.043333	0.014661	-0.012217	-0.054978
657	20.092224	0.009125	-0.353160	0.117720	-10.477080	-0.779104	0.104478	0.041667	0.000000	-0.004887	-0.046426
658	20.101349	0.009125	-0.353160	0.117720	-10.359360	-0.779104	0.110448	0.040000	-0.015882	-0.006109	-0.045204
659	20.110504	0.009155	-0.470880	0.117720	-10.359360	-0.779104	0.105970	0.043333	-0.002443	-0.007330	-0.052534
660	20.119629	0.009125	-0.941760	0.117720	-10.359360	-0.776119	0.107463	0.043333	-0.001222	-0.004887	-0.041539
661	20.128754	0.009125	-0.706320	0.117720	-10.359360	-0.780597	0.107463	0.045000	-0.001222	-0.010996	-0.051313
662	20.137878	0.009125	-0.470880	0.000000	-10.359360	-0.780597	0.104478	0.041667	0.001222	-0.009774	-0.045204
663	20.147003	0.009125	-0.706320	0.117720	-10.359360	-0.777612	0.105970	0.041667	-0.008552	-0.010996	-0.045204
664	20.156128	0.009125	-0.588600	0.117720	-10.477080	-0.776119	0.104478	0.041667	0.001222	0.001222	-0.041539
665	20.165253	0.009125	-0.470880	0.000000	-10.359360	-0.777612	0.105970	0.040000	-0.004887	-0.012217	-0.048869
666	20.174408	0.009155	-0.588600	0.235440	-10.241640	-0.779104	0.105970	0.040000	0.004887	0.002443	-0.042761
667	20.183533	0.009125	-0.824040	0.000000	-10.241640	-0.779104	0.105970	0.043333	0.000000	-0.007330	-0.045204
668	20.192657	0.009125	-0.706320	-0.117720	-10.359360	-0.791045	0.095522	0.060000	-0.002443	-0.004887	-0.046426
669	20.201782	0.009125	-0.588600	-0.117720	-10.359360	-0.783582	0.102985	0.048333	-0.003665	-0.007330	-0.041539
670	20.210907	0.009125	-0.588600	0.235440	-10.359360	-0.776119	0.104478	0.041667	0.010996	0.006109	-0.045204
671	20.220032	0.009125	-0.588600	0.117720	-10.359360	-0.779104	0.104478	0.040000	0.002443	-0.003665	-0.042761
672	20.229156	0.009125	-0.588600	0.117720	-10.477080	-0.779104	0.104478	0.041667	0.000000	-0.006109	-0.041539
673	20.238312	0.009155	-0.588600	0.117720	-10.241640	-0.780597	0.107463	0.040000	-0.010996	-0.009774	-0.040317
674	20.247437	0.009125	-0.588600	0.117720	-10.359360	-0.777612	0.107463	0.040000	-0.003665	-0.009774	-0.036652
675	20.256561	0.009125	-0.470880	0.000000	-10.359360	-0.779104	0.108955	0.041667	-0.003665	-0.002443	-0.035430
676	20.265686	0.009125	-0.588600	0.000000	-10.359360	-0.777612	0.105970	0.043333	0.004887	-0.010996	-0.047647
677	20.274811	0.009125	-0.706320	0.000000	-10.477080	-0.774627	0.104478	0.045000	0.000000	-0.012217	-0.048869
678	20.283966	0.009155	-0.706320	0.235440	-10.477080	-0.776119	0.107463	0.043333	-0.004887	0.001222	-0.048869
679	20.293091	0.009125	-0.588600	0.117720	-10.477080	-0.776119	0.104478	0.043333	-0.004887	0.007330	-0.034208
680	20.302216	0.009125	-0.588600	0.117720	-10.477080	-0.779104	0.104478	0.041667	-0.007330	-0.002443	-0.039095
681	20.311340	0.009125	-0.353160	0.117720	-10.359360	-0.777612	0.108955	0.040000	-0.004887	-0.014661	-0.050091
682	20.320465	0.009125	-0.353160	0.000000	-10.241640	-0.776119	0.105970	0.040000	-0.003665	-0.013439	-0.047647
683	20.329620	0.009155	-0.470880	0.000000	-10.123920	-0.779104	0.105970	0.041667	0.006109	0.002443	-0.039095
684	20.338745	0.009125	-0.706320	0.000000	-10.359360	-0.783582	0.105970	0.041667	0.004887	-0.003665	-0.048869
685	20.347870	0.009125	-0.588600	0.353160	-10.477080	-0.780597	0.105970	0.043333	-0.008552	-0.006109	-0.036652
686	20.357025	0.009155	-0.588600	0.235440	-10.359360	-0.779104	0.105970	0.043333	0.000000	-0.010996	-0.048869
687	20.366150	0.009125	-0.353160	0.117720	-10.359360	-0.791045	0.095522	0.056667	0.003665	-0.008552	-0.048869
688	20.375275	0.009125	-0.470880	0.117720	-10.241640	-0.783582	0.101493	0.048333	-0.007330	0.000000	-0.046426
689	20.384399	0.009125	-0.706320	0.235440	-10.241640	-0.777612	0.104478	0.041667	-0.002443	-0.004887	-0.040317
690	20.393524	0.009125	-0.588600	0.117720	-10.359360	-0.779104	0.105970	0.040000	0.004887	-0.003665	-0.039095
691	20.402679	0.009155	-0.470880	0.000000	-10.359360	-0.780597	0.105970	0.041667	-0.009774	-0.012217	-0.048869
692	20.411804	0.009125	-0.470880	0.000000	-10.359360	-0.780597	0.107463	0.043333	-0.007330	-0.012217	-0.048869
693	20.420929	0.009125	-0.706320	0.000000	-10.359360	-0.777612	0.105970	0.045000	-0.006109	-0.020769	-0.041539
694	20.430054	0.009125	-0.824040	0.117720	-10.359360	-0.777612	0.104478	0.043333	-0.012217	-0.021991	-0.054978
695	20.439178	0.009125	-0.470880	0.000000	-10.241640	-0.779104	0.107463	0.043333	0.004887	-0.003665	-0.045204
696	20.448303	0.009125	-0.353160	0.117720	-10.241640	-0.779104	0.104478	0.041667	0.010996	0.000000	-0.042761
697	20.457428	0.009125	-0.470880	0.117720	-10.241640	-0.779104	0.105970	0.040000	0.007330	-0.004887	-0.043982
698	20.466583	0.009155	-0.824040	0.000000	-10.241640	-0.777612	0.107463	0.041667	0.000000	0.003665	-0.039095
699	20.475708	0.009125	-0.588600	0.235440	-10.477080	-0.777612	0.105970	0.041667	0.000000	-0.002443	-0.046426
700	20.484833	0.009125	-0.353160	0.117720	-10.359360	-0.777612	0.105970	0.041667	0.009774	-0.001222	-0.045204
701	20.493988	0.009155	-0.824040	0.235440	-10.359360	-0.782090	0.104478	0.040000	-0.001222	0.008552	-0.040317
702	20.503113	0.009125	-0.706320	0.235440	-10.241640	-0.780597	0.105970	0.041667	-0.010996	-0.010996	-0.042761
703	20.512238	0.009125	-0.470880	0.000000	-10.359360	-0.780597	0.104478	0.041667	-0.003665	-0.002443	-0.042761
704	20.521362	0.009125	-0.353160	0.000000	-10.241640	-0.777612	0.105970	0.041667	-0.001222	0.008552	-0.036652
705	20.530487	0.009125	-0.588600	0.000000	-10.241640	-0.789552	0.094030	0.060000	0.003665	0.001222	-0.043982
706	20.539642	0.009155	-0.588600	0.117720	-10.359360	-0.782090	0.102985	0.046667	0.009774	0.000000	-0.043982
707	20.548767	0.009125	-0.470880	0.235440	-10.359360	-0.777612	0.107463	0.043333	0.000000	-0.004887	-0.043982
708	20.557892	0.009125	-0.470880	0.117720	-10.359360	-0.777612	0.107463	0.040000	0.000000	-0.001222	-0.045204
709	20.567017	0.009125	-0.588600	0.117720	-10.241640	-0.779104	0.107463	0.040000	0.001222	-0.015882	-0.043982
710	20.576172	0.009155	-0.353160	0.117720	-10.241640	-0.780597	0.107463	0.041667	0.008552	0.003665	-0.045204
711	20.585297	0.009125	-0.824040	0.117720	-10.359360	-0.779104	0.105970	0.043333	0.006109	-0.002443	-0.043982
712	20.594421	0.009125	-0.470880	0.000000	-10.359360	-0.780597	0.104478	0.041667	0.145386	-0.008552	-0.041539
713	20.603546	0.009125	-0.706320	0.000000	-10.359360	-0.779104	0.104478	0.040000	-0.003665	-0.010996	-0.047647
714	20.612671	0.009125	-0.588600	0.117720	-10.359360	-0.782090	0.104478	0.040000	-0.008552	-0.002443	-0.037874
715	20.621796	0.009125	-0.824040	0.000000	-10.359360	-0.779104	0.104478	0.041667	-0.002443	0.003665	-0.035430
716	20.630920	0.009125	-0.470880	0.353160	-10.241640	-0.777612	0.105970	0.041667	-0.009774	-0.002443	-0.037874
717	20.640045	0.009125	-0.706320	0.117720	-10.477080	-0.779104	0.105970	0.043333	0.013439	-0.002443	-0.048869
718	20.649170	0.009125	-0.706320	0.117720	-10.477080	-0.780597	0.105970	0.043333	0.001222	0.001222	-0.037874
719	20.658295	0.009125	-0.588600	0.000000	-10.359360	-0.776119	0.107463	0.041667	0.002443	-0.006109	-0.035430
720	20.667419	0.009125	-0.588600	0.000000	-10.241640	-0.779104	0.102985	0.043333	-0.006109	-0.004887	-0.035430
721	20.676544	0.009125	-0.588600	0.000000	-10.477080	-0.780597	0.105970	0.045000	-0.003665	-0.014661	-0.048869
722	20.685699	0.009155	-0.470880	0.117720	-10.359360	-0.779104	0.105970	0.041667	0.009774	0.001222	-0.040317
723	20.694824	0.009125	-0.235440	0.117720	-10.123920	-0.777612	0.105970	0.041667	-0.009774	-0.004887	-0.030543
724	20.703949	0.009125	-0.235440	0.117720	-10.359360	-0.792537	0.095522	0.061667	0.002443	-0.002443	-0.045204
725	20.713074	0.009125	-0.588600	0.000000	-10.712520	-0.783582	0.102985	0.048333	0.000000	-0.008552	-0.046426
726	20.722198	0.009125	-0.706320	0.117720	-10.359360	-0.779104	0.107463	0.040000	0.001222	-0.009774	-0.042761
727	20.731354	0.009155	-0.470880	0.117720	-10.359360	-0.779104	0.107463	0.041667	0.001222	-0.010996	-0.045204
728	20.740479	0.009125	-0.353160	0.117720	-10.359360	-0.777612	0.107463	0.041667	0.003665	-0.003665	-0.047647
729	20.749603	0.009125	-0.353160	0.117720	-10.359360	-0.779104	0.102985	0.043333	-0.003665	-0.013439	-0.047647
730	20.758728	0.009125	-0.353160	0.117720	-10.477080	-0.779104	0.108955	0.043333	0.009774	-0.003665	-0.036652
731	20.767883	0.009155	-0.470880	0.000000	-10.359360	-0.779104	0.105970	0.040000	0.000000	-0.007330	-0.042761
732	20.777008	0.009125	-0.588600	0.117720	-10.359360	-0.779104	0.104478	0.043333	-0.007330	-0.008552	-0.040317
733	20.786133	0.009125	-0.588600	-0.117720	-10.359360	-0.777612	0.105970	0.041667	-0.006109	-0.007330	-0.040317
734	20.795258	0.009125	-0.706320	0.117720	-10.477080	-0.779104	0.107463	0.040000	0.007330	-0.003665	-0.047647
735	20.804382	0.009125	-0.470880	0.117720	-10.241640	-0.779104	0.107463	0.041667	-0.008552	-0.002443	-0.046426
736	20.813507	0.009125	-0.706320	0.117720	-10.477080	-0.774627	0.105970	0.043333	-0.009774	-0.009774	-0.045204
737	20.822662	0.009155	-0.588600	0.117720	-10.359360	-0.779104	0.104478	0.041667	0.003665	-0.002443	-0.043982
738	20.831787	0.009125	-0.470880	0.000000	-10.359360	-0.777612	0.104478	0.043333	0.007330	0.000000	-0.043982
739	20.840912	0.009125	-0.706320	0.000000	-10.359360	-0.780597	0.105970	0.041667	0.001222	-0.012217	-0.050091
740	20.850037	0.009125	-0.588600	0.117720	-10.359360	-0.779104	0.105970	0.041667	-0.001222	-0.004887	-0.045204
741	20.859161	0.009125	-0.588600	0.117720	-10.241640	-0.776119	0.107463	0.041667	0.004887	0.004887	-0.041539
742	20.868317	0.009155	-0.588600	0.235440	-10.359360	-0.777612	0.105970	0.041667	0.000000	-0.008552	-0.039095
743	20.877441	0.009125	-0.470880	0.000000	-10.477080	-0.792537	0.097015	0.060000	-0.004887	0.000000	-0.046426
744	20.886566	0.009125	-0.706320	0.117720	-10.359360	-0.785075	0.102985	0.050000	-0.001222	-0.003665	-0.042761
745	20.895691	0.009125	-0.588600	0.117720	-10.359360	-0.777612	0.107463	0.043333	0.000000	-0.012217	-0.050091
746	20.904846	0.009155	-0.588600	0.117720	-10.241640	-0.779104	0.104478	0.040000	0.006109	-0.002443	-0.050091
747	20.913971	0.009125	-0.353160	0.117720	-10.359360	-0.779104	0.102985	0.041667	-0.004887	-0.007330	-0.047647
748	20.923096	0.009125	-0.706320	0.000000	-10.359360	-0.777612	0.105970	0.043333	0.014661	0.001222	-0.041539
749	20.932220	0.009125	-0.706320	0.235440	-10.359360	-0.779104	0.107463	0.040000	0.012217	0.004887	-0.039095
750	20.941345	0.009125	-0.470880	0.117720	-10.359360	-0.780597	0.105970	0.041667	0.006109	0.006109	-0.037874
751	20.950470	0.009125	-0.588600	0.000000	-10.359360	-0.780597	0.105970	0.043333	0.008552	-0.004887	-0.045204
752	20.959595	0.009125	-0.588600	0.000000	-10.477080	-0.779104	0.107463	0.040000	-0.009774	-0.014661	-0.046426
753	20.968750	0.009155	-0.470880	0.117720	-10.241640	-0.779104	0.104478	0.043333	-0.013439	-0.017104	-0.042761
754	20.977875	0.009125	-0.470880	0.117720	-10.241640	-0.780597	0.108955	0.046667	-0.004887	0.000000	-0.036652
755	20.987000	0.009125	-0.706320	0.000000	-10.359360	-0.779104	0.105970	0.043333	0.002443	-0.001222	-0.054978
756	20.996124	0.009125	-0.706320	0.000000	-10.359360	-0.777612	0.105970	0.038333	-0.002443	-0.002443	-0.047647
757	21.005249	0.009125	-0.824040	0.000000	-10.477080	-0.779104	0.107463	0.043333	0.000000	-0.004887	-0.051313
758	21.014374	0.009125	-0.706320	0.000000	-10.359360	-0.777612	0.107463	0.043333	-0.007330	-0.008552	-0.045204
759	21.023529	0.009155	-0.588600	0.117720	-10.359360	-0.780597	0.104478	0.041667	-0.007330	-0.017104	-0.042761
760	21.032654	0.009125	-0.470880	0.117720	-10.359360	-0.777612	0.105970	0.041667	0.002443	-0.008552	-0.052534
761	21.041779	0.009125	-0.353160	0.117720	-10.477080	-0.788060	0.094030	0.061667	0.001222	-0.007330	-0.041539
762	21.050903	0.009125	-0.588600	0.117720	-10.359360	-0.782090	0.102985	0.050000	0.007330	-0.001222	-0.048869
763	21.060028	0.009125	-0.588600	0.117720	-10.123920	-0.779104	0.105970	0.045000	0.000000	-0.009774	-0.039095
764	21.069153	0.009125	-0.706320	0.353160	-10.241640	-0.776119	0.104478	0.040000	-0.003665	-0.002443	-0.043982
765	21.078278	0.009125	-0.941760	0.000000	-10.123920	-0.774627	0.104478	0.041667	0.003665	-0.001222	-0.045204
766	21.087402	0.009125	-1.059480	-0.117720	-10.123920	-0.779104	0.104478	0.041667	-0.003665	0.006109	-0.040317
767	21.096527	0.009125	-0.470880	0.353160	-10.359360	-0.776119	0.107463	0.043333	0.003665	-0.008552	-0.051313
768	21.105652	0.009125	-0.470880	0.117720	-10.241640	-0.780597	0.104478	0.045000	0.006109	-0.004887	-0.053756
769	21.114807	0.009155	-0.470880	0.117720	-10.241640	-0.779104	0.105970	0.043333	0.012217	0.001222	-0.041539
770	21.123932	0.009125	-0.588600	0.000000	-10.359360	-0.777612	0.105970	0.041667	0.004887	-0.013439	-0.047647
771	21.133270	0.009338	-0.353160	0.000000	-10.241640	-0.776119	0.108955	0.043333	0.009774	-0.007330	-0.040317
772	21.142181	0.008911	-0.353160	0.000000	-10.123920	-0.777612	0.104478	0.048333	0.002443	-0.015882	-0.047647
773	21.151306	0.009125	-0.588600	0.117720	-10.359360	-0.777612	0.105970	0.043333	0.004887	0.010996	-0.036652
774	21.160461	0.009155	-0.824040	0.117720	-10.359360	-0.779104	0.105970	0.041667	0.000000	0.000000	-0.042761
775	21.169586	0.009125	-0.824040	0.000000	-10.241640	-0.776119	0.107463	0.043333	0.001222	-0.003665	-0.048869
776	21.178711	0.009125	-0.706320	0.000000	-10.359360	-0.776119	0.105970	0.041667	-0.004887	0.001222	-0.034208
777	21.187866	0.009155	-0.235440	0.117720	-10.241640	-0.780597	0.105970	0.043333	0.004887	-0.012217	-0.052534
778	21.196991	0.009125	-0.353160	0.117720	-10.359360	-0.777612	0.107463	0.043333	-0.004887	-0.012217	-0.045204
779	21.206116	0.009125	-0.470880	0.000000	-10.359360	-0.777612	0.107463	0.040000	-0.012217	-0.014661	-0.043982
780	21.215240	0.009125	-0.588600	0.000000	-10.241640	-0.788060	0.100000	0.055000	0.003665	0.002443	-0.047647
781	21.224365	0.009125	-0.470880	0.000000	-10.123920	-0.783582	0.101493	0.045000	0.001222	0.003665	-0.040317
782	21.233521	0.009155	-0.470880	0.000000	-10.359360	-0.779104	0.102985	0.041667	-0.001222	-0.013439	-0.045204
783	21.242645	0.009125	-0.470880	0.117720	-10.359360	-0.779104	0.105970	0.040000	-0.007330	-0.010996	-0.046426
784	21.251770	0.009125	-0.470880	0.353160	-10.359360	-0.776119	0.104478	0.040000	0.003665	-0.003665	-0.041539
785	21.260895	0.009125	-0.353160	0.000000	-10.359360	-0.777612	0.107463	0.041667	0.007330	-0.008552	-0.046426
786	21.270020	0.009125	-0.117720	0.000000	-10.477080	-0.779104	0.104478	0.041667	0.010996	-0.006109	-0.046426
787	21.279175	0.009155	-0.588600	0.000000	-10.477080	-0.777612	0.104478	0.043333	-0.009774	-0.004887	-0.035430
788	21.288300	0.009125	-0.706320	0.117720	-10.594800	-0.782090	0.104478	0.043333	-0.003665	-0.002443	-0.048869
789	21.297424	0.009125	-0.588600	0.117720	-10.359360	-0.779104	0.104478	0.041667	-0.007330	-0.004887	-0.034208
790	21.306549	0.009125	-0.470880	0.235440	-10.241640	-0.777612	0.104478	0.041667	0.009774	0.004887	-0.045204
791	21.315704	0.009155	-0.706320	0.000000	-10.241640	-0.779104	0.105970	0.040000	0.001222	-0.006109	-0.045204
792	21.324829	0.009125	-0.588600	0.000000	-10.241640	-0.777612	0.107463	0.040000	-0.012217	-0.008552	-0.046426
793	21.333954	0.009125	-0.470880	0.117720	-10.241640	-0.779104	0.104478	0.043333	-0.001222	-0.014661	-0.051313
794	21.343079	0.009125	-0.470880	0.000000	-10.241640	-0.777612	0.102985	0.040000	0.006109	0.000000	-0.039095
795	21.352203	0.009125	-0.588600	0.000000	-10.359360	-0.777612	0.105970	0.038333	0.000000	0.002443	-0.040317
796	21.361328	0.009125	-1.059480	0.117720	-10.359360	-0.777612	0.104478	0.043333	-0.003665	0.000000	-0.039095
797	21.370453	0.009125	-0.824040	0.000000	-10.477080	-0.782090	0.105970	0.045000	-0.009774	-0.014661	-0.046426
798	21.379578	0.009125	-0.470880	0.000000	-10.477080	-0.791045	0.098507	0.065000	0.004887	0.007330	-0.041539
799	21.388733	0.009155	-0.235440	0.000000	-10.359360	-0.794030	0.094030	0.053333	-0.002443	0.002443	-0.041539
800	21.397858	0.009125	-0.588600	0.117720	-10.359360	-0.777612	0.105970	0.041667	0.000000	-0.006109	-0.050091
801	21.406982	0.009125	-0.706320	0.117720	-10.359360	-0.776119	0.105970	0.041667	-0.008552	-0.012217	-0.047647
802	21.416107	0.009125	-0.588600	0.117720	-10.359360	-0.779104	0.107463	0.040000	-0.004887	-0.012217	-0.048869
803	21.425232	0.009125	-0.470880	0.235440	-10.477080	-0.776119	0.104478	0.040000	0.003665	-0.010996	-0.051313
804	21.434357	0.009125	-0.353160	0.117720	-10.241640	-0.777612	0.105970	0.040000	0.003665	-0.006109	-0.037874
805	21.443481	0.009125	-0.470880	0.353160	-10.359360	-0.777612	0.107463	0.041667	0.000000	-0.006109	-0.042761
806	21.453217	0.009735	-0.235440	0.235440	-10.359360	-0.777612	0.104478	0.045000	0.010996	-0.001222	-0.052534
807	21.461761	0.008545	-0.588600	0.117720	-10.477080	-0.776119	0.104478	0.040000	-0.008552	-0.008552	-0.042761
808	21.470886	0.009125	-0.470880	0.000000	-10.477080	-0.779104	0.104478	0.043333	-0.003665	-0.006109	-0.032987
809	21.480011	0.009125	-0.706320	0.000000	-10.359360	-0.777612	0.105970	0.040000	-0.008552	0.000000	-0.031765
810	21.489136	0.009125	-0.824040	0.117720	-10.359360	-0.779104	0.105970	0.041667	0.003665	0.000000	-0.048869
811	21.498291	0.009155	-0.588600	0.117720	-10.477080	-0.777612	0.105970	0.041667	-0.002443	-0.003665	-0.052534
812	21.507416	0.009125	-0.470880	0.117720	-10.241640	-0.779104	0.105970	0.040000	0.010996	0.004887	-0.041539
813	21.516541	0.009125	-0.470880	0.000000	-10.359360	-0.780597	0.104478	0.045000	-0.004887	-0.006109	-0.036652
814	21.525696	0.009155	-0.470880	0.117720	-10.123920	-0.782090	0.104478	0.041667	0.012217	-0.002443	-0.045204
815	21.534821	0.009125	-0.706320	0.117720	-10.241640	-0.783582	0.107463	0.040000	-0.002443	-0.013439	-0.053756
816	21.543945	0.009125	-0.824040	0.117720	-10.359360	-0.791045	0.097015	0.063333	0.006109	-0.003665	-0.046426
817	21.553070	0.009125	-0.824040	0.117720	-10.359360	-0.783582	0.104478	0.046667	-0.001222	-0.004887	-0.035430
818	21.562195	0.009125	-0.353160	0.117720	-10.359360	-0.780597	0.104478	0.041667	-0.004887	-0.007330	-0.036652
819	21.571320	0.009125	-0.706320	0.117720	-10.123920	-0.780597	0.107463	0.041667	-0.004887	-0.002443	-0.046426
820	21.580444	0.009125	-0.706320	0.235440	-10.241640	-0.779104	0.105970	0.041667	-0.001222	-0.004887	-0.050091
821	21.589600	0.009155	-0.353160	0.000000	-10.359360	-0.777612	0.104478	0.041667	-0.007330	-0.006109	-0.040317
822	21.598724	0.009125	-0.588600	0.000000	-10.477080	-0.779104	0.104478	0.041667	0.003665	-0.003665	-0.047647
823	21.607849	0.009125	-0.353160	0.235440	-10.359360	-0.776119	0.105970	0.040000	0.000000	0.002443	-0.042761
824	21.616974	0.009125	-0.353160	0.235440	-10.241640	-0.777612	0.108955	0.041667	-0.007330	0.001222	-0.035430
825	21.626099	0.009125	-0.470880	0.000000	-10.123920	-0.776119	0.107463	0.043333	0.003665	-0.004887	-0.037874
826	21.635223	0.009125	-0.353160	0.117720	-10.241640	-0.777612	0.105970	0.041667	0.006109	-0.004887	-0.050091
827	21.644379	0.009155	-0.235440	0.000000	-10.241640	-0.779104	0.102985	0.041667	0.009774	-0.020769	-0.046426
828	21.653503	0.009125	-0.470880	0.235440	-10.241640	-0.776119	0.105970	0.041667	-0.026878	-0.007330	-0.048869
829	21.662628	0.009125	-0.353160	0.235440	-10.359360	-0.777612	0.104478	0.041667	0.000000	-0.009774	-0.040317
830	21.671753	0.009125	-0.470880	0.117720	-10.359360	-0.777612	0.104478	0.041667	0.000000	0.000000	-0.041539
831	21.680878	0.009125	-0.470880	0.000000	-10.477080	-0.782090	0.105970	0.041667	-0.004887	-0.003665	-0.043982
832	21.690002	0.009125	-0.588600	0.117720	-10.359360	-0.776119	0.104478	0.041667	0.000000	-0.006109	-0.050091
833	21.699158	0.009155	-0.235440	0.117720	-10.359360	-0.777612	0.108955	0.041667	0.002443	-0.014661	-0.042761
834	21.708282	0.009125	-0.470880	0.235440	-10.359360	-0.779104	0.108955	0.043333	-0.004887	-0.009774	-0.042761
835	21.717407	0.009125	-0.470880	0.117720	-10.359360	-0.792537	0.098507	0.060000	0.002443	0.002443	-0.045204
836	21.726532	0.009125	-0.470880	0.000000	-10.359360	-0.782090	0.102985	0.048333	0.006109	-0.003665	-0.043982
837	21.735687	0.009155	-0.353160	0.117720	-10.359360	-0.779104	0.102985	0.040000	0.012217	-0.003665	-0.057421
838	21.744812	0.009125	-0.588600	0.000000	-10.241640	-0.779104	0.104478	0.043333	0.002443	-0.006109	-0.047647
839	21.753937	0.009125	-0.588600	0.000000	-10.241640	-0.776119	0.104478	0.043333	0.004887	0.002443	-0.040317
840	21.763062	0.009125	-0.588600	0.000000	-10.359360	-0.777612	0.102985	0.045000	-0.003665	0.000000	-0.046426
841	21.773163	0.010101	-0.588600	0.000000	-10.477080	-0.777612	0.105970	0.041667	-0.004887	-0.001222	-0.046426
842	21.781342	0.008179	-0.470880	0.000000	-10.477080	-0.785075	0.107463	0.045000	0.007330	-0.007330	-0.043982
843	21.790466	0.009125	-0.706320	0.000000	-10.477080	-0.777612	0.105970	0.041667	0.002443	-0.003665	-0.048869
844	21.799591	0.009125	-0.470880	0.117720	-10.477080	-0.779104	0.108955	0.041667	-0.001222	-0.014661	-0.047647
845	21.808716	0.009125	-0.588600	0.000000	-10.241640	-0.779104	0.104478	0.041667	0.001222	-0.002443	-0.042761
846	21.817841	0.009125	-0.824040	0.117720	-10.241640	-0.777612	0.104478	0.041667	-0.001222	0.006109	-0.041539
847	21.826996	0.009155	-0.941760	0.117720	-10.359360	-0.780597	0.104478	0.043333	-0.012217	-0.018326	-0.041539
848	21.836121	0.009125	-0.588600	0.000000	-10.359360	-0.779104	0.102985	0.043333	-0.002443	-0.002443	-0.042761
849	21.845245	0.009125	-0.353160	0.117720	-10.123920	-0.776119	0.104478	0.043333	-0.008552	-0.004887	-0.046426
850	21.854370	0.009125	-0.353160	0.117720	-10.359360	-0.782090	0.108955	0.041667	-0.004887	-0.008552	-0.048869
851	21.863495	0.009125	-0.470880	0.235440	-10.359360	-0.777612	0.105970	0.040000	-0.002443	-0.004887	-0.039095
852	21.872620	0.009125	-0.353160	0.117720	-10.241640	-0.777612	0.105970	0.040000	-0.009774	-0.009774	-0.043982
853	21.881775	0.009155	-0.353160	0.117720	-10.241640	-0.779104	0.107463	0.041667	0.010996	0.000000	-0.050091
854	21.890900	0.009125	-0.470880	0.000000	-10.359360	-0.789552	0.094030	0.061667	-0.009774	-0.001222	-0.039095
855	21.900024	0.009125	-0.353160	0.000000	-10.241640	-0.782090	0.102985	0.046667	-0.001222	0.000000	-0.046426
856	21.909149	0.009125	-0.706320	0.000000	-10.359360	-0.779104	0.104478	0.041667	-0.013439	-0.006109	-0.043982
857	21.918274	0.009125	-0.588600	0.000000	-10.241640	-0.777612	0.105970	0.043333	-0.007330	-0.015882	-0.043982
858	21.927399	0.009125	-0.706320	0.117720	-10.359360	-0.780597	0.104478	0.041667	-0.006109	-0.007330	-0.045204
859	21.936554	0.009155	-0.470880	0.235440	-10.359360	-0.780597	0.107463	0.043333	0.000000	-0.014661	-0.054978
860	21.945679	0.009125	-0.353160	0.235440	-10.241640	-0.777612	0.104478	0.041667	0.002443	-0.010996	-0.042761
861	21.954803	0.009125	-0.470880	0.235440	-10.241640	-0.779104	0.105970	0.041667	-0.007330	-0.009774	-0.043982
862	21.963928	0.009125	-0.470880	0.117720	-10.359360	-0.777612	0.104478	0.040000	-0.007330	-0.020769	-0.052534
863	21.973053	0.009125	-0.470880	0.117720	-10.359360	-0.779104	0.105970	0.043333	-0.003665	0.000000	-0.039095
864	21.982178	0.009125	-0.706320	0.117720	-10.477080	-0.779104	0.105970	0.043333	-0.006109	-0.006109	-0.043982
865	21.991302	0.009125	-0.706320	0.000000	-10.359360	-0.779104	0.104478	0.045000	0.006109	0.000000	-0.047647
866	22.000427	0.009125	-0.588600	0.117720	-10.359360	-0.776119	0.105970	0.041667	0.000000	0.007330	-0.043982
867	22.009583	0.009155	-0.353160	0.000000	-10.477080	-0.779104	0.104478	0.043333	-0.012217	-0.007330	-0.039095
868	22.018707	0.009125	-0.588600	0.000000	-10.359360	-0.776119	0.107463	0.040000	0.000000	-0.004887	-0.041539
869	22.027832	0.009125	-0.235440	0.000000	-10.359360	-0.780597	0.105970	0.043333	0.000000	0.000000	-0.036652
870	22.036957	0.009125	-0.470880	0.235440	-10.241640	-0.779104	0.105970	0.041667	0.001222	0.001222	-0.037874
871	22.046082	0.009125	-0.353160	0.117720	-10.359360	-0.777612	0.107463	0.041667	-0.008552	-0.009774	-0.051313
872	22.055237	0.009155	-0.353160	0.000000	-10.359360	-0.792537	0.095522	0.061667	-0.003665	-0.018326	-0.045204
873	22.064362	0.009125	-0.706320	0.117720	-10.359360	-0.782090	0.102985	0.048333	-0.006109	0.000000	-0.048869
874	22.073486	0.009125	-0.706320	0.117720	-10.241640	-0.779104	0.102985	0.040000	-0.004887	0.000000	-0.037874
875	22.082611	0.009125	-0.470880	0.117720	-10.241640	-0.780597	0.104478	0.043333	0.012217	-0.149051	-0.042761
876	22.091736	0.009125	-0.470880	0.117720	-10.477080	-0.779104	0.105970	0.041667	0.002443	0.000000	-0.046426
877	22.100861	0.009125	-0.706320	0.117720	-10.359360	-0.777612	0.108955	0.041667	-0.020769	-0.014661	-0.039095
878	22.110016	0.009155	-0.470880	0.000000	-10.359360	-0.780597	0.105970	0.043333	0.000000	-0.009774	-0.045204
879	22.119141	0.009125	-0.470880	0.117720	-10.359360	-0.779104	0.104478	0.043333	-0.009774	-0.007330	-0.047647
880	22.128265	0.009125	-0.588600	0.117720	-10.241640	-0.776119	0.105970	0.040000	-0.014661	-0.009774	-0.041539
881	22.137390	0.009125	-0.588600	0.117720	-10.359360	-0.780597	0.104478	0.041667	-0.004887	0.000000	-0.039095
882	22.146515	0.009125	-0.353160	0.000000	-10.359360	-0.777612	0.105970	0.041667	0.009774	0.002443	-0.048869
883	22.155640	0.009125	-0.588600	0.117720	-10.359360	-0.776119	0.105970	0.043333	0.008552	0.007330	-0.037874
884	22.164764	0.009125	-0.470880	0.000000	-10.241640	-0.777612	0.105970	0.043333	0.002443	-0.002443	-0.050091
885	22.173920	0.009155	-0.353160	0.000000	-10.241640	-0.776119	0.107463	0.041667	0.009774	-0.008552	-0.050091
886	22.183044	0.009125	-0.470880	0.117720	-10.359360	-0.780597	0.105970	0.041667	-0.003665	-0.010996	-0.046426
887	22.192169	0.009125	-0.588600	0.117720	-10.477080	-0.780597	0.107463	0.041667	-0.007330	-0.008552	-0.037874
888	22.201294	0.009125	-0.824040	0.000000	-10.359360	-0.779104	0.105970	0.041667	-0.012217	-0.012217	-0.040317
889	22.210419	0.009125	-0.588600	0.117720	-10.477080	-0.776119	0.105970	0.041667	-0.004887	-0.008552	-0.046426
890	22.219574	0.009155	-0.706320	0.117720	-10.359360	-0.777612	0.104478	0.043333	-0.003665	-0.008552	-0.048869
891	22.228699	0.009125	-0.824040	0.235440	-10.359360	-0.791045	0.097015	0.056667	0.001222	0.006109	-0.040317
892	22.237823	0.009125	-0.706320	0.235440	-10.359360	-0.782090	0.102985	0.051667	-0.012217	0.012217	-0.043982
893	22.246948	0.009125	-0.588600	0.235440	-10.359360	-0.780597	0.104478	0.043333	-0.019548	-0.012217	-0.046426
894	22.256104	0.009155	-0.588600	0.117720	-10.359360	-0.780597	0.107463	0.040000	-0.051313	0.017104	-0.035430
895	22.265228	0.009125	-0.470880	0.235440	-10.123920	-0.777612	0.107463	0.041667	-0.003665	0.000000	-0.023213
896	22.274353	0.009125	-0.353160	0.235440	-10.477080	-0.779104	0.107463	0.041667	0.029322	-0.014661	-0.021991
897	22.283478	0.009125	-0.706320	0.000000	-10.477080	-0.779104	0.104478	0.041667	0.006109	-0.023213	-0.017104
898	22.292633	0.009155	-0.941760	-0.353160	-10.241640	-0.779104	0.104478	0.046667	0.019548	-0.008552	-0.024435
899	22.301758	0.009125	-0.706320	-0.117720	-10.359360	-0.777612	0.102985	0.045000	-0.012217	0.000000	-0.047647
900	22.310883	0.009125	-0.470880	-0.117720	-10.241640	-0.776119	0.105970	0.038333	0.000000	-0.010996	-0.048869
901	22.320007	0.009125	-0.470880	0.117720	-10.241640	-0.777612	0.105970	0.041667	-0.034208	0.009774	-0.037874
902	22.329132	0.009125	-0.235440	0.000000	-10.241640	-0.779104	0.102985	0.040000	-0.002443	-0.007330	-0.048869
903	22.338257	0.009125	-0.353160	0.117720	-10.123920	-0.776119	0.107463	0.045000	0.006109	-0.010996	-0.036652
904	22.347412	0.009155	-0.588600	0.000000	-10.123920	-0.777612	0.104478	0.046667	-0.007330	0.006109	-0.037874
905	22.356537	0.009125	-0.706320	0.117720	-10.123920	-0.779104	0.104478	0.041667	-0.007330	0.001222	-0.036652
906	22.365662	0.009125	-0.588600	0.235440	-10.359360	-0.779104	0.105970	0.045000	0.001222	-0.006109	-0.048869
907	22.374786	0.009125	-0.470880	0.000000	-10.359360	-0.780597	0.102985	0.041667	-0.001222	-0.014661	-0.046426
908	22.383911	0.009125	-0.470880	0.000000	-10.359360	-0.777612	0.104478	0.041667	0.000000	-0.006109	-0.048869
909	22.393066	0.009155	-0.706320	0.235440	-10.359360	-0.777612	0.104478	0.041667	0.003665	-0.001222	-0.040317
910	22.402191	0.009125	-0.470880	0.117720	-10.359360	-0.792537	0.095522	0.061667	0.000000	-0.006109	-0.041539
911	22.411316	0.009125	-0.470880	0.000000	-10.477080	-0.780597	0.102985	0.046667	0.000000	-0.006109	-0.040317
912	22.420441	0.009125	-0.588600	0.117720	-10.359360	-0.779104	0.107463	0.041667	0.003665	0.003665	-0.040317
913	22.429565	0.009125	-0.588600	0.117720	-10.477080	-0.776119	0.104478	0.043333	-0.002443	-0.001222	-0.045204
914	22.438690	0.009125	-0.353160	0.000000	-10.359360	-0.779104	0.104478	0.041667	-0.009774	-0.007330	-0.041539
915	22.447815	0.009125	-0.824040	0.000000	-10.359360	-0.779104	0.102985	0.043333	-0.008552	0.000000	-0.035430
916	22.456940	0.009125	-0.824040	0.000000	-10.359360	-0.777612	0.101493	0.041667	-0.008552	0.000000	-0.030543
917	22.466064	0.009125	-0.353160	0.000000	-10.359360	-0.779104	0.105970	0.041667	-0.006109	-0.010996	-0.047647
918	22.475189	0.009125	-0.235440	0.000000	-10.359360	-0.779104	0.105970	0.041667	0.006109	-0.008552	-0.041539
919	22.484344	0.009155	-0.470880	0.117720	-10.359360	-0.777612	0.105970	0.041667	-0.002443	-0.007330	-0.048869
920	22.493469	0.009125	-0.588600	0.000000	-10.123920	-0.779104	0.105970	0.040000	0.010996	0.004887	-0.041539
921	22.502594	0.009125	-0.706320	0.000000	-10.477080	-0.780597	0.104478	0.045000	0.006109	-0.004887	-0.056200
922	22.511719	0.009125	-0.588600	0.117720	-10.359360	-0.776119	0.102985	0.041667	-0.001222	0.007330	-0.034208
923	22.520844	0.009125	-0.588600	0.235440	-10.359360	-0.780597	0.102985	0.043333	-0.001222	0.002443	-0.041539
924	22.529968	0.009125	-0.706320	0.117720	-10.477080	-0.779104	0.105970	0.041667	-0.013439	0.001222	-0.042761
925	22.539093	0.009125	-0.470880	0.117720	-10.359360	-0.779104	0.104478	0.045000	0.001222	-0.003665	-0.048869
926	22.548248	0.009155	-0.235440	0.235440	-10.241640	-0.779104	0.104478	0.040000	0.008552	0.002443	-0.042761
927	22.557373	0.009125	-0.117720	0.000000	-10.359360	-0.777612	0.107463	0.040000	0.017104	-0.002443	-0.043982
928	22.566498	0.009125	-0.824040	0.353160	-9.888480	-0.789552	0.094030	0.058333	-0.002443	-0.009774	-0.050091
929	22.575623	0.009125	-0.588600	0.588600	-9.535320	-0.785075	0.102985	0.048333	0.006109	-0.017104	-0.054978
930	22.584747	0.009125	-0.353160	0.117720	-10.241640	-0.779104	0.104478	0.043333	-0.021991	-0.001222	-0.063530
931	22.593872	0.009125	-0.824040	0.353160	-9.770760	-0.777612	0.101493	0.043333	-0.023213	0.002443	-0.048869
932	22.602997	0.009125	-0.353160	0.117720	-10.241640	-0.780597	0.102985	0.043333	-0.006109	-0.019548	-0.052534
933	22.612122	0.009125	-0.235440	0.000000	-10.477080	-0.776119	0.102985	0.043333	0.004887	-0.021991	-0.051313
934	22.621246	0.009125	-0.470880	0.000000	-10.359360	-0.782090	0.105970	0.040000	-0.004887	-0.017104	-0.043982
935	22.630371	0.009125	-0.588600	0.000000	-10.241640	-0.779104	0.105970	0.040000	-0.002443	-0.010996	-0.052534
936	22.639496	0.009125	-0.470880	0.000000	-10.359360	-0.779104	0.107463	0.040000	0.013439	-0.012217	-0.052534
937	22.648621	0.009125	-0.588600	0.117720	-10.359360	-0.777612	0.104478	0.041667	-0.001222	-0.009774	-0.041539
938	22.657745	0.009125	-0.706320	0.117720	-10.241640	-0.780597	0.105970	0.040000	-0.009774	-0.003665	-0.041539
939	22.666870	0.009125	-0.588600	0.000000	-10.359360	-0.779104	0.104478	0.041667	-0.007330	-0.015882	-0.043982
940	22.675995	0.009125	-0.470880	0.000000	-10.359360	-0.780597	0.104478	0.041667	0.000000	-0.015882	-0.051313
941	22.685150	0.009155	-0.588600	0.000000	-10.123920	-0.779104	0.104478	0.041667	-0.007330	-0.012217	-0.052534
942	22.694275	0.009125	-0.470880	0.117720	-10.241640	-0.779104	0.104478	0.041667	0.003665	-0.012217	-0.053756
943	22.703400	0.009125	-0.588600	0.000000	-10.241640	-0.777612	0.105970	0.041667	-0.002443	-0.004887	-0.048869
944	22.712524	0.009125	-0.353160	0.000000	-10.477080	-0.779104	0.105970	0.043333	0.002443	0.001222	-0.048869
945	22.721649	0.009125	-0.588600	0.000000	-10.241640	-0.779104	0.104478	0.043333	0.002443	-0.006109	-0.046426
946	22.730774	0.009125	-0.588600	0.000000	-10.123920	-0.776119	0.104478	0.041667	-0.013439	-0.015882	-0.041539
947	22.739899	0.009125	-0.706320	0.000000	-10.359360	-0.798507	0.100000	0.056667	-0.015882	-0.007330	-0.039095
948	22.749023	0.009125	-0.588600	0.235440	-10.359360	-0.792537	0.094030	0.055000	-0.003665	-0.007330	-0.050091
949	22.758148	0.009125	-0.470880	0.117720	-10.477080	-0.779104	0.105970	0.038333	-0.001222	-0.018326	-0.042761
950	22.767273	0.009125	-0.588600	0.235440	-10.359360	-0.776119	0.104478	0.038333	0.007330	-0.019548	-0.052534
951	22.776398	0.009125	-0.706320	0.117720	-10.477080	-0.774627	0.105970	0.043333	0.006109	-0.013439	-0.050091
952	22.785522	0.009125	-0.706320	0.000000	-10.477080	-0.777612	0.105970	0.043333	0.004887	-0.003665	-0.046426
953	22.794647	0.009125	-0.824040	0.000000	-10.241640	-0.777612	0.104478	0.036667	0.004887	0.000000	-0.039095
954	22.803772	0.009125	-0.588600	0.000000	-10.241640	-0.774627	0.105970	0.041667	0.000000	-0.018326	-0.039095
955	22.812988	0.009216	-0.353160	0.117720	-10.123920	-0.777612	0.105970	0.040000	-0.004887	-0.004887	-0.045204
956	22.822021	0.009033	-0.235440	0.117720	-10.241640	-0.779104	0.105970	0.041667	0.003665	0.002443	-0.045204
957	22.831146	0.009125	-0.353160	0.117720	-10.359360	-0.777612	0.102985	0.043333	0.000000	0.006109	-0.040317
958	22.840271	0.009125	-0.353160	0.235440	-10.359360	-0.777612	0.104478	0.040000	0.000000	0.000000	-0.036652
959	22.849396	0.009125	-0.353160	0.117720	-10.241640	-0.777612	0.105970	0.045000	-0.008552	-0.018326	-0.047647
960	22.858521	0.009125	-0.470880	0.000000	-10.477080	-0.777612	0.104478	0.040000	-0.009774	-0.015882	-0.046426
961	22.867676	0.009155	-0.588600	0.117720	-10.241640	-0.779104	0.105970	0.043333	-0.020769	-0.004887	-0.042761
962	22.876801	0.009125	-0.588600	0.000000	-10.359360	-0.779104	0.105970	0.043333	0.006109	-0.010996	-0.040317
963	22.885925	0.009125	-0.588600	0.117720	-10.359360	-0.780597	0.104478	0.041667	-0.014661	-0.004887	-0.041539
964	22.895050	0.009125	-0.353160	0.000000	-10.359360	-0.774627	0.107463	0.041667	-0.009774	0.001222	-0.039095
965	22.904175	0.009125	-0.588600	0.000000	-10.241640	-0.792537	0.097015	0.063333	0.012217	-0.024435	-0.042761
966	22.913300	0.009125	-0.470880	0.117720	-10.123920	-0.782090	0.100000	0.048333	-0.002443	0.010996	-0.042761
967	22.922424	0.009125	-0.353160	0.000000	-10.359360	-0.779104	0.107463	0.041667	0.006109	0.004887	-0.043982
968	22.931549	0.009125	-0.235440	0.000000	-10.359360	-0.777612	0.104478	0.038333	0.017104	-0.017104	-0.050091
969	22.940704	0.009155	-0.706320	0.117720	-10.477080	-0.780597	0.105970	0.041667	-0.002443	-0.014661	-0.041539
970	22.949829	0.009125	-0.706320	0.235440	-10.359360	-0.776119	0.105970	0.041667	-0.004887	0.001222	-0.032987
971	22.958954	0.009125	-0.588600	0.117720	-10.359360	-0.776119	0.104478	0.041667	0.000000	-0.008552	-0.047647
972	22.968079	0.009125	-0.588600	0.000000	-10.477080	-0.777612	0.105970	0.043333	0.000000	-0.008552	-0.041539
973	22.977203	0.009125	-0.824040	0.000000	-10.359360	-0.779104	0.105970	0.040000	-0.010996	-0.004887	-0.042761
974	22.986328	0.009125	-0.588600	0.117720	-10.359360	-0.777612	0.107463	0.041667	-0.001222	0.004887	-0.042761
975	22.995453	0.009125	-0.470880	0.000000	-10.241640	-0.774627	0.104478	0.043333	-0.006109	0.003665	-0.032987
976	23.004578	0.009125	-0.470880	0.117720	-10.359360	-0.779104	0.105970	0.041667	-0.003665	-0.003665	-0.042761
977	23.013702	0.009125	-0.353160	0.117720	-10.477080	-0.779104	0.105970	0.043333	-0.006109	-0.001222	-0.045204
978	23.022858	0.009155	-0.353160	0.000000	-10.359360	-0.777612	0.107463	0.040000	-0.006109	-0.008552	-0.045204
979	23.031982	0.009125	-0.353160	0.117720	-10.241640	-0.779104	0.105970	0.043333	-0.010996	-0.009774	-0.045204
980	23.041107	0.009125	-0.470880	0.117720	-10.241640	-0.777612	0.102985	0.045000	0.010996	-0.002443	-0.050091
981	23.050232	0.009125	-0.588600	0.235440	-10.241640	-0.776119	0.105970	0.043333	-0.001222	-0.008552	-0.048869
982	23.059357	0.009125	-0.706320	0.000000	-10.359360	-0.777612	0.107463	0.041667	-0.001222	-0.007330	-0.050091
983	23.068481	0.009125	-0.588600	0.000000	-10.359360	-0.789552	0.094030	0.060000	0.003665	-0.002443	-0.048869
984	23.077637	0.009155	-0.824040	0.117720	-10.359360	-0.782090	0.102985	0.048333	-0.010996	-0.007330	-0.045204
985	23.086761	0.009125	-0.706320	0.000000	-10.359360	-0.777612	0.104478	0.043333	-0.008552	-0.014661	-0.039095
986	23.095886	0.009125	-0.353160	0.000000	-10.359360	-0.779104	0.105970	0.043333	0.003665	-0.008552	-0.054978
987	23.105011	0.009125	-0.824040	0.000000	-10.359360	-0.777612	0.104478	0.041667	-0.003665	-0.006109	-0.047647
988	23.114136	0.009125	-0.706320	0.235440	-10.477080	-0.777612	0.102985	0.043333	-0.010996	-0.014661	-0.040317
989	23.123260	0.009125	-0.706320	0.117720	-10.359360	-0.780597	0.104478	0.043333	-0.008552	-0.012217	-0.040317
990	23.132935	0.009674	-0.706320	0.117720	-10.359360	-0.782090	0.107463	0.038333	-0.015882	-0.012217	-0.043982
991	23.141510	0.008575	-0.588600	0.000000	-10.359360	-0.779104	0.107463	0.041667	-0.003665	-0.015882	-0.048869
992	23.150665	0.009155	-0.588600	0.000000	-10.477080	-0.779104	0.104478	0.041667	-0.009774	-0.012217	-0.042761
993	23.159790	0.009125	-0.588600	0.117720	-10.359360	-0.776119	0.107463	0.043333	0.000000	-0.003665	-0.046426
994	23.168915	0.009125	-0.470880	0.117720	-10.359360	-0.779104	0.107463	0.041667	0.004887	0.002443	-0.040317
995	23.178040	0.009125	-0.353160	0.117720	-10.241640	-0.779104	0.104478	0.045000	0.000000	0.002443	-0.042761
996	23.187164	0.009125	-0.706320	0.117720	-10.359360	-0.780597	0.104478	0.041667	-0.003665	-0.013439	-0.048869
997	23.196289	0.009125	-0.470880	0.117720	-10.359360	-0.780597	0.104478	0.038333	0.006109	0.002443	-0.045204
998	23.205414	0.009125	-0.470880	0.000000	-10.241640	-0.780597	0.105970	0.041667	-0.004887	-0.007330	-0.046426
999	23.214569	0.009155	-0.824040	-0.117720	-10.477080	-0.782090	0.104478	0.041667	0.002443	-0.008552	-0.050091
1000	23.223694	0.009125	-0.588600	0.000000	-10.477080	-0.776119	0.107463	0.043333	-0.010996	-0.007330	-0.045204
1001	23.232819	0.009125	-0.470880	0.000000	-10.241640	-0.777612	0.104478	0.043333	-0.009774	-0.010996	-0.039095
1002	23.241943	0.009125	-0.470880	0.117720	-10.241640	-0.792537	0.097015	0.056667	-0.002443	0.001222	-0.042761
1003	23.251099	0.009155	-0.470880	0.117720	-10.359360	-0.780597	0.102985	0.046667	-0.012217	-0.006109	-0.036652
1004	23.260223	0.009125	-0.588600	0.117720	-10.359360	-0.779104	0.102985	0.043333	-0.001222	-0.007330	-0.042761
1005	23.269348	0.009125	-0.588600	0.235440	-10.359360	-0.779104	0.104478	0.041667	0.000000	-0.012217	-0.052534
1006	23.278473	0.009125	-0.588600	0.117720	-10.477080	-0.779104	0.105970	0.043333	-0.003665	-0.008552	-0.052534
1007	23.287598	0.009125	-0.235440	0.235440	-10.241640	-0.776119	0.104478	0.043333	0.007330	0.003665	-0.039095
1008	23.296753	0.009155	-0.353160	0.000000	-10.359360	-0.773134	0.105970	0.041667	-0.012217	-0.019548	-0.045204
1009	23.305878	0.009125	-0.353160	-0.117720	-10.359360	-0.780597	0.105970	0.041667	-0.002443	0.002443	-0.042761
1010	23.315002	0.009125	-0.588600	0.235440	-10.359360	-0.777612	0.107463	0.043333	-0.006109	-0.008552	-0.042761
1011	23.324127	0.009125	-0.470880	0.117720	-10.359360	-0.780597	0.107463	0.041667	-0.012217	-0.018326	-0.040317
1012	23.333282	0.009155	-0.588600	0.117720	-10.359360	-0.776119	0.107463	0.041667	0.000000	-0.006109	-0.047647
1013	23.342407	0.009125	-0.588600	0.235440	-10.359360	-0.777612	0.105970	0.040000	0.002443	-0.002443	-0.051313
1014	23.351532	0.009125	-0.470880	0.117720	-10.241640	-0.777612	0.102985	0.043333	-0.004887	0.000000	-0.037874
1015	23.360657	0.009125	-0.470880	0.000000	-10.359360	-0.780597	0.102985	0.041667	0.002443	0.002443	-0.039095
1016	23.369812	0.009155	-0.235440	0.235440	-10.477080	-0.779104	0.105970	0.040000	0.002443	-0.009774	-0.050091
1017	23.378937	0.009125	-0.470880	0.235440	-10.241640	-0.780597	0.108955	0.045000	0.003665	0.000000	-0.045204
1018	23.388062	0.009125	-0.588600	0.235440	-10.359360	-0.779104	0.105970	0.041667	0.002443	0.007330	-0.039095
1019	23.397186	0.009125	-0.706320	0.117720	-10.241640	-0.777612	0.105970	0.041667	0.004887	-0.004887	-0.043982
1020	23.406311	0.009125	-0.706320	0.117720	-10.241640	-0.776119	0.107463	0.041667	0.006109	-0.003665	-0.048869
1021	23.415466	0.009155	-0.706320	0.235440	-10.123920	-0.791045	0.094030	0.061667	0.007330	-0.007330	-0.046426
1022	23.424591	0.009125	-0.706320	0.000000	-10.241640	-0.780597	0.101493	0.046667	0.004887	-0.004887	-0.039095
1023	23.433716	0.009125	-0.706320	0.000000	-10.241640	-0.779104	0.105970	0.043333	0.000000	-0.001222	-0.045204
1024	23.442841	0.009125	-0.470880	0.000000	-10.359360	-0.777612	0.104478	0.045000	0.007330	0.006109	-0.053756
1025	23.452881	0.010040	-0.470880	0.000000	-10.477080	-0.779104	0.104478	0.040000	-0.004887	-0.007330	-0.043982
1026	23.461090	0.008209	-0.470880	0.000000	-10.477080	-0.774627	0.107463	0.041667	-0.009774	-0.015882	-0.045204
1027	23.470215	0.009125	-0.470880	0.000000	-10.359360	-0.774627	0.104478	0.043333	-0.008552	-0.004887	-0.045204
1028	23.479340	0.009125	-0.470880	0.000000	-10.241640	-0.780597	0.104478	0.041667	-0.006109	-0.013439	-0.053756
1029	23.488495	0.009155	-0.353160	0.117720	-10.123920	-0.780597	0.104478	0.041667	0.003665	-0.009774	-0.047647
1030	23.497620	0.009125	-0.588600	0.117720	-10.359360	-0.780597	0.104478	0.043333	-0.003665	0.002443	-0.039095
1031	23.506744	0.009125	-0.706320	0.117720	-10.477080	-0.779104	0.102985	0.043333	0.006109	-0.001222	-0.040317
1032	23.515869	0.009125	-0.706320	0.353160	-10.477080	-0.779104	0.104478	0.043333	0.149051	-0.003665	-0.050091
1033	23.524994	0.009125	-0.706320	0.235440	-10.359360	-0.776119	0.104478	0.043333	-0.015882	-0.012217	-0.048869
1034	23.534149	0.009155	-0.235440	0.117720	-10.477080	-0.777612	0.107463	0.040000	-0.007330	-0.006109	-0.041539
1035	23.543274	0.009125	-0.235440	0.117720	-10.241640	-0.780597	0.104478	0.041667	-0.007330	-0.004887	-0.043982
1036	23.552399	0.009125	-0.588600	0.117720	-10.241640	-0.777612	0.105970	0.036667	0.003665	0.002443	-0.051313
1037	23.561523	0.009125	-0.353160	0.235440	-10.241640	-0.777612	0.108955	0.041667	0.152716	-0.008552	-0.046426
1038	23.570648	0.009125	-0.353160	0.117720	-10.359360	-0.777612	0.104478	0.041667	-0.009774	-0.002443	-0.032987
1039	23.579803	0.009155	-0.470880	0.235440	-10.359360	-0.789552	0.094030	0.060000	0.003665	0.003665	-0.045204
1040	23.588928	0.009125	-0.470880	0.117720	-10.359360	-0.783582	0.100000	0.046667	-0.001222	-0.015882	-0.046426
1041	23.598053	0.009125	-0.353160	0.117720	-10.241640	-0.779104	0.105970	0.041667	0.002443	0.003665	-0.039095
1042	23.607178	0.009125	-0.588600	0.235440	-10.241640	-0.779104	0.102985	0.043333	-0.002443	0.007330	-0.042761
1043	23.616302	0.009125	-0.470880	0.117720	-10.359360	-0.776119	0.107463	0.041667	-0.008552	-0.004887	-0.041539
1044	23.625427	0.009125	-0.235440	0.235440	-10.359360	-0.776119	0.105970	0.041667	0.004887	0.008552	-0.037874
1045	23.634583	0.009155	-0.588600	0.000000	-10.359360	-0.779104	0.105970	0.040000	0.001222	0.001222	-0.045204
1046	23.643707	0.009125	-0.824040	0.117720	-10.359360	-0.779104	0.104478	0.040000	-0.001222	0.004887	-0.037874
1047	23.652832	0.009125	-0.824040	0.117720	-10.359360	-0.779104	0.102985	0.043333	0.001222	0.003665	-0.041539
1048	23.661957	0.009125	-0.470880	0.235440	-10.477080	-0.777612	0.104478	0.043333	-0.008552	-0.006109	-0.048869
1049	23.671082	0.009125	-0.706320	0.117720	-10.359360	-0.777612	0.104478	0.041667	-0.006109	-0.007330	-0.051313
1050	23.680237	0.009155	-0.706320	0.000000	-10.359360	-0.779104	0.104478	0.043333	-0.007330	-0.002443	-0.045204
1051	23.689362	0.009125	-0.941760	0.000000	-10.477080	-0.777612	0.104478	0.041667	-0.001222	-0.010996	-0.051313
1052	23.698486	0.009125	-1.059480	0.000000	-10.359360	-0.773134	0.105970	0.041667	0.001222	-0.001222	-0.040317
1053	23.707611	0.009125	-0.588600	0.000000	-10.359360	-0.777612	0.105970	0.043333	-0.013439	-0.014661	-0.050091
1054	23.716766	0.009155	-0.470880	0.117720	-10.241640	-0.779104	0.105970	0.040000	0.006109	0.008552	-0.041539
1055	23.725891	0.009125	-0.588600	0.117720	-10.241640	-0.779104	0.104478	0.041667	0.001222	-0.004887	-0.045204
1056	23.735016	0.009125	-0.588600	0.235440	-10.241640	-0.779104	0.104478	0.041667	-0.006109	-0.006109	-0.042761
1057	23.744141	0.009125	-0.470880	0.117720	-10.123920	-0.779104	0.105970	0.041667	-0.007330	-0.006109	-0.036652
1058	23.753296	0.009155	-0.588600	0.235440	-10.241640	-0.789552	0.094030	0.060000	0.006109	-0.001222	-0.037874
1059	23.762421	0.009125	-0.470880	0.117720	-10.359360	-0.783582	0.104478	0.048333	0.010996	0.004887	-0.046426
1060	23.771545	0.009125	-0.353160	0.117720	-10.359360	-0.773134	0.104478	0.041667	0.010996	-0.001222	-0.047647
1061	23.780670	0.009125	-0.353160	0.117720	-10.477080	-0.776119	0.105970	0.040000	-0.006109	-0.002443	-0.039095
1062	23.789795	0.009125	-0.353160	0.000000	-10.359360	-0.774627	0.104478	0.040000	0.004887	-0.007330	-0.045204
1063	23.798950	0.009155	-0.588600	0.000000	-10.359360	-0.776119	0.107463	0.043333	0.001222	0.000000	-0.043982
1064	23.808075	0.009125	-0.470880	0.117720	-10.359360	-0.779104	0.105970	0.040000	0.003665	-0.007330	-0.054978
1065	23.817200	0.009125	-0.470880	0.117720	-10.241640	-0.777612	0.105970	0.043333	-0.001222	-0.008552	-0.052534
1066	23.826324	0.009125	-0.353160	0.117720	-10.477080	-0.776119	0.104478	0.043333	-0.002443	-0.012217	-0.048869
1067	23.835449	0.009125	-0.353160	0.117720	-10.477080	-0.779104	0.105970	0.045000	-0.002443	-0.004887	-0.047647
1068	23.844604	0.009155	-0.470880	0.000000	-10.241640	-0.777612	0.104478	0.038333	0.006109	-0.002443	-0.050091
1069	23.853729	0.009125	-0.706320	0.235440	-10.359360	-0.780597	0.105970	0.043333	-0.013439	-0.010996	-0.046426
1070	23.862854	0.009125	-0.588600	0.235440	-10.359360	-0.777612	0.105970	0.041667	0.003665	0.004887	-0.040317
1071	23.872009	0.009155	-0.470880	0.117720	-10.359360	-0.779104	0.107463	0.041667	-0.008552	0.001222	-0.032987
1072	23.881134	0.009125	-0.588600	0.117720	-10.359360	-0.779104	0.104478	0.043333	0.001222	-0.015882	-0.041539
1073	23.890259	0.009125	-0.706320	-0.117720	-10.477080	-0.779104	0.102985	0.041667	0.000000	0.002443	-0.035430
1074	23.899384	0.009125	-0.470880	0.000000	-10.241640	-0.777612	0.104478	0.045000	0.003665	-0.014661	-0.054978
1075	23.908508	0.009125	-0.706320	0.117720	-10.359360	-0.777612	0.101493	0.043333	-0.003665	-0.006109	-0.047647
1076	23.917633	0.009125	-0.353160	0.117720	-10.241640	-0.774627	0.105970	0.043333	0.004887	0.000000	-0.045204
