# FOX Logger (IMU file)
# (c) INRIA 2011-2014
# File created from file sensbiotk output
#
# File format:
# id	t	dt	ax	ay	az	mx	my	mz	gx	gy	gz
#
# Units:
#	Time: s
#	Acceleration: m.s^-2
#	Magneto: gauss
#	Gyrometer: rad/s
#
1	0.004669	0.004669	9.309690	0.794610	-1.540170	-0.732836	0.095522	-1.308333	-0.017913	0.000731	-0.003716
2	0.009669	0.005000	9.285090	0.880336	-1.694715	-0.733609	0.095412	-1.305498	-0.017929	-0.008760	0.012484
3	0.014669	0.005000	9.299880	0.829425	-1.687320	-0.734382	0.095301	-1.302662	-0.014241	-0.000537	-0.000427
4	0.019669	0.005000	9.257594	0.827086	-1.762754	-0.735154	0.095191	-1.299827	-0.014641	-0.015406	0.003371
5	0.024669	0.005000	9.260640	0.706320	-1.767055	-0.735927	0.095081	-1.296991	-0.016258	-0.003218	0.002443
6	0.029669	0.005000	9.260640	0.782168	-1.806356	-0.736700	0.094970	-1.294156	-0.010726	-0.003470	0.003611
7	0.034669	0.005000	9.374640	0.930599	-1.737721	-0.737473	0.094860	-1.291321	-0.009472	-0.007177	-0.000766
8	0.039669	0.005000	9.326988	0.824040	-1.792908	-0.738246	0.094749	-1.288485	-0.018257	-0.009833	-0.004611
9	0.044669	0.005000	9.214482	0.745560	-1.742721	-0.739019	0.094639	-1.285650	-0.009885	-0.006431	0.003227
10	0.049669	0.005000	9.200425	0.735073	-1.737047	-0.739791	0.094529	-1.282814	-0.012606	-0.007733	0.005775
11	0.054669	0.005000	9.313646	0.731794	-1.648080	-0.740564	0.094418	-1.279979	-0.008697	-0.001754	0.003676
12	0.059669	0.005000	9.260640	0.681916	-1.662916	-0.741337	0.094308	-1.277144	-0.018224	-0.006143	0.004038
13	0.064669	0.005000	9.238648	0.828784	-1.621344	-0.742110	0.094198	-1.274308	-0.016948	-0.007160	-0.003024
14	0.069669	0.005000	9.241610	0.882703	-1.746377	-0.742883	0.094087	-1.271473	-0.012111	-0.007515	0.014521
15	0.074669	0.005000	9.356757	0.902520	-1.844280	-0.742647	0.094189	-1.271481	-0.006374	-0.009691	0.007108
16	0.079669	0.005000	9.308665	0.902520	-1.835495	-0.741322	0.094520	-1.274563	-0.008289	-0.005320	0.008827
17	0.084669	0.005000	9.221400	0.967870	-1.818170	-0.739998	0.094851	-1.277645	-0.017795	0.000222	-0.000439
18	0.089669	0.005000	9.199660	0.880780	-1.833410	-0.738673	0.095183	-1.280727	-0.006776	-0.005147	0.007930
19	0.094669	0.005000	9.246790	0.784800	-1.813503	-0.737348	0.095514	-1.283809	-0.005703	-0.005937	0.007838
20	0.099669	0.005000	9.293436	0.784800	-1.805040	-0.736023	0.095845	-1.286892	-0.009412	-0.002783	-0.008571
21	0.104669	0.005000	9.308086	0.776594	-1.769903	-0.734698	0.096176	-1.289974	-0.009902	-0.009661	0.009621
22	0.109669	0.005000	9.376661	0.672176	-1.842581	-0.733373	0.096507	-1.293056	-0.015214	0.011224	0.001012
23	0.114669	0.005000	9.183140	0.784800	-1.805040	-0.732048	0.096838	-1.296138	-0.010509	-0.005608	0.014747
24	0.119669	0.005000	9.336457	0.860617	-1.802377	-0.730724	0.097170	-1.299220	-0.022044	-0.015539	0.015973
25	0.124669	0.005000	9.255572	0.794935	-1.789837	-0.729399	0.097501	-1.302302	-0.022749	-0.018394	-0.007965
26	0.129669	0.005000	9.292498	0.887756	-1.805040	-0.728074	0.097832	-1.305384	-0.020159	-0.012217	0.005192
27	0.134669	0.005000	9.290464	0.725152	-1.814456	-0.726749	0.098163	-1.308466	-0.011474	-0.000823	-0.010625
28	0.139669	0.005000	9.327427	0.824040	-1.765800	-0.725424	0.098494	-1.311548	-0.002742	-0.002051	0.003413
29	0.144669	0.005000	9.313948	0.784800	-1.855383	-0.725373	0.098613	-1.311074	-0.015691	-0.000125	-0.001000
30	0.149669	0.005000	9.293006	0.761743	-1.687320	-0.725373	0.098724	-1.310458	-0.010116	-0.000212	0.004416
31	0.154669	0.005000	9.260640	0.844685	-1.745155	-0.725373	0.098834	-1.309841	-0.015392	-0.003528	0.010424
32	0.159669	0.005000	9.239885	0.805555	-1.747315	-0.725373	0.098944	-1.309225	-0.016176	-0.007036	0.000792
33	0.164669	0.005000	9.244350	0.817380	-1.687320	-0.725373	0.099055	-1.308609	-0.011334	-0.012252	0.002442
34	0.169669	0.005000	9.260640	0.863280	-1.765800	-0.725373	0.099165	-1.307992	-0.024015	-0.003333	-0.003061
35	0.174669	0.005000	9.350919	0.824040	-1.620639	-0.725373	0.099276	-1.307376	-0.019759	-0.006373	0.003940
36	0.179669	0.005000	9.368837	0.853757	-1.677797	-0.725373	0.099386	-1.306759	-0.010719	0.001574	0.002571
37	0.184669	0.005000	9.292764	0.881171	-1.812156	-0.725373	0.099497	-1.306143	-0.007934	-0.004214	-0.004694
38	0.189669	0.005000	9.250414	0.863280	-1.765800	-0.725373	0.099607	-1.305526	-0.015686	0.001331	0.007897
39	0.194669	0.005000	9.297124	0.782044	-1.684564	-0.725373	0.099718	-1.304910	-0.014762	-0.002849	0.002874
40	0.199669	0.005000	9.260640	0.824392	-1.726560	-0.725373	0.099828	-1.304293	-0.011335	-0.009096	0.003730
41	0.204669	0.005000	9.335937	0.787983	-1.839505	-0.725373	0.099938	-1.303677	-0.005296	0.002293	0.010309
42	0.209669	0.005000	9.225396	0.784800	-1.734552	-0.725519	0.099902	-1.303715	-0.007740	-0.003215	0.003551
43	0.214669	0.005000	9.260640	0.856942	-1.699997	-0.725851	0.099682	-1.304578	-0.019029	-0.002325	0.008391
44	0.219669	0.005000	9.299880	0.824040	-1.796684	-0.726182	0.099461	-1.305441	-0.005602	0.003598	-0.000699
45	0.224669	0.005000	9.299880	0.852517	-1.619603	-0.726513	0.099240	-1.306304	-0.008785	-0.006871	0.011943
46	0.229669	0.005000	9.312905	0.810849	-1.765800	-0.726844	0.099019	-1.307167	-0.018680	-0.005344	0.005126
47	0.234669	0.005000	9.284480	0.808640	-1.852721	-0.727176	0.098798	-1.308030	-0.022805	-0.006008	-0.001327
48	0.239669	0.005000	9.356650	0.859100	-1.787510	-0.727507	0.098578	-1.308893	-0.013634	-0.001452	0.007763
49	0.244669	0.005000	9.280581	0.804099	-1.745216	-0.727838	0.098357	-1.309755	-0.007042	-0.000776	-0.001490
50	0.249669	0.005000	9.294949	0.958914	-1.822194	-0.728169	0.098136	-1.310618	-0.017902	-0.003602	0.014057
51	0.254669	0.005000	9.299880	0.833395	-1.765800	-0.728501	0.097915	-1.311481	-0.017549	0.004573	0.003835
52	0.259669	0.005000	9.259002	0.824040	-1.765800	-0.728832	0.097694	-1.312344	-0.005473	-0.008739	0.015713
53	0.264669	0.005000	9.281576	0.881584	-1.726560	-0.729163	0.097474	-1.313207	-0.010550	-0.004870	-0.001379
54	0.269669	0.005000	9.330944	0.745560	-1.827929	-0.729494	0.097253	-1.314070	-0.009846	-0.010584	-0.000036
55	0.274669	0.005000	9.333348	0.857508	-1.760028	-0.729825	0.097032	-1.314933	-0.000521	-0.008974	0.010307
56	0.279669	0.005000	9.299880	0.784800	-1.758236	-0.729647	0.096913	-1.314659	-0.008358	-0.006989	0.001451
57	0.284669	0.005000	9.411907	0.783377	-1.684473	-0.729426	0.096803	-1.314289	-0.010931	-0.007384	0.009967
58	0.289669	0.005000	9.337153	0.860330	-1.647097	-0.729206	0.096692	-1.313919	-0.010241	-0.004243	0.000140
59	0.294669	0.005000	9.336182	0.902520	-1.759923	-0.728985	0.096582	-1.313549	-0.010145	-0.007248	-0.003069
60	0.299669	0.005000	9.305223	0.907863	-1.721217	-0.728764	0.096471	-1.313179	-0.010742	-0.001222	0.006939
61	0.304669	0.005000	9.229069	0.870949	-1.758131	-0.728543	0.096361	-1.312809	-0.010561	0.002887	0.000957
62	0.309669	0.005000	9.260640	0.833743	-1.834577	-0.728322	0.096250	-1.312440	-0.014556	-0.001618	-0.004146
63	0.314669	0.005000	9.311846	0.851314	-1.711251	-0.728102	0.096140	-1.312070	-0.011981	0.000939	-0.008018
64	0.319669	0.005000	9.235455	0.849225	-1.648080	-0.727881	0.096030	-1.311700	-0.004003	-0.007565	-0.000505
65	0.324669	0.005000	9.306185	0.886053	-1.693625	-0.727660	0.095919	-1.311330	-0.006490	0.004685	0.006879
66	0.329669	0.005000	9.241763	0.825525	-1.765800	-0.727439	0.095809	-1.310960	-0.011406	-0.002744	0.002927
67	0.334669	0.005000	9.341524	0.863280	-1.705738	-0.727218	0.095698	-1.310590	-0.009650	-0.005577	0.012928
68	0.339669	0.005000	9.283872	0.854495	-1.742568	-0.726998	0.095588	-1.310221	-0.007672	-0.003273	-0.000918
69	0.344669	0.005000	9.274542	0.851844	-1.765800	-0.726821	0.095477	-1.310050	-0.011492	-0.004781	0.008810
70	0.349669	0.005000	9.316066	0.890993	-1.715033	-0.726711	0.095367	-1.310173	-0.011166	0.004789	0.007230
71	0.354669	0.005000	9.339120	0.893273	-1.657327	-0.726601	0.095257	-1.310296	-0.009528	-0.007625	0.006349
72	0.359669	0.005000	9.286198	0.791641	-1.726560	-0.726490	0.095146	-1.310420	-0.013970	0.000772	0.004966
73	0.364669	0.005000	9.187001	0.775119	-1.726560	-0.726380	0.095036	-1.310543	-0.016319	0.000828	-0.001611
74	0.369669	0.005000	9.260640	0.745560	-1.655521	-0.726269	0.094926	-1.310666	-0.011679	-0.015939	0.013023
75	0.374669	0.005000	9.221929	0.746089	-1.687320	-0.726159	0.094815	-1.310790	-0.009927	-0.000493	0.004811
76	0.379669	0.005000	9.260640	0.859544	-1.762064	-0.726048	0.094705	-1.310913	-0.017033	-0.007165	0.010584
77	0.384669	0.005000	9.221400	0.863280	-1.687320	-0.725938	0.094595	-1.311036	-0.013831	-0.001124	0.004986
78	0.389669	0.005000	9.313101	0.837261	-1.739781	-0.725828	0.094484	-1.311160	-0.010892	0.002374	-0.004547
79	0.394669	0.005000	9.317150	0.915855	-1.748530	-0.725717	0.094374	-1.311283	-0.009175	-0.007090	0.009343
80	0.399669	0.005000	9.378360	0.806899	-1.698370	-0.725607	0.094263	-1.311406	-0.016361	0.002211	0.005926
81	0.404669	0.005000	9.379010	0.784800	-1.647430	-0.725496	0.094153	-1.311529	-0.013308	-0.011107	0.005713
82	0.409669	0.005000	9.221400	0.824040	-1.781202	-0.725386	0.094043	-1.311653	-0.012138	-0.004466	-0.000062
83	0.414669	0.005000	9.239214	0.824040	-1.822854	-0.725568	0.094518	-1.311994	-0.009786	-0.005766	-0.001838
84	0.419669	0.005000	9.299880	0.863280	-1.883520	-0.725789	0.095070	-1.312364	0.001144	0.002732	0.002749
85	0.424669	0.005000	9.316762	0.846398	-1.821922	-0.726010	0.095622	-1.312734	-0.010276	-0.003357	-0.001025
86	0.429669	0.005000	9.270546	0.917187	-1.716654	-0.726231	0.096174	-1.313104	-0.006639	-0.007636	0.014976
87	0.434669	0.005000	9.299880	0.865744	-1.738819	-0.726451	0.096726	-1.313473	-0.017634	-0.000199	0.006206
88	0.439669	0.005000	9.299880	0.707863	-1.784649	-0.726672	0.097278	-1.313843	-0.010415	-0.007806	0.006774
89	0.444669	0.005000	9.237200	0.824040	-1.812940	-0.726893	0.097830	-1.314213	-0.010062	0.002309	0.004234
90	0.449669	0.005000	9.305764	0.841693	-1.726560	-0.727114	0.098382	-1.314583	-0.007856	-0.009110	-0.004336
91	0.454669	0.005000	9.303431	0.838242	-1.694421	-0.727335	0.098934	-1.314953	-0.006737	-0.007854	0.009168
92	0.459669	0.005000	9.335721	0.902520	-1.844280	-0.727555	0.099486	-1.315323	-0.012693	-0.000625	-0.012976
93	0.464669	0.005000	9.259829	0.864091	-1.844280	-0.727776	0.100038	-1.315692	-0.002820	-0.007333	0.003147
94	0.469669	0.005000	9.293527	0.820863	-1.732913	-0.727997	0.100590	-1.316062	-0.014487	0.002574	-0.001164
95	0.474669	0.005000	9.231719	0.829200	-1.823642	-0.728218	0.101142	-1.316432	-0.018267	-0.006863	-0.000220
96	0.479669	0.005000	9.253152	0.784800	-1.827504	-0.728318	0.101453	-1.316622	-0.011849	-0.006160	0.000879
97	0.484669	0.005000	9.310562	0.805002	-1.853799	-0.728207	0.101342	-1.316499	-0.011629	0.003124	0.002797
98	0.489669	0.005000	9.272567	0.851353	-1.789653	-0.728097	0.101232	-1.316375	-0.009052	-0.014069	0.011282
99	0.494669	0.005000	9.221400	0.827277	-1.712401	-0.727986	0.101121	-1.316252	-0.013803	-0.012970	0.000516
100	0.499669	0.005000	9.221400	0.768525	-1.726560	-0.727876	0.101011	-1.316129	-0.010721	-0.014813	0.010520
101	0.504669	0.005000	9.262939	0.747859	-1.747330	-0.727766	0.100900	-1.316005	-0.011641	-0.016033	0.006370
102	0.509669	0.005000	9.415580	0.782780	-1.823650	-0.727655	0.100790	-1.315882	-0.019710	-0.004247	0.009707
103	0.514669	0.005000	9.345964	0.863280	-1.788842	-0.727545	0.100679	-1.315758	-0.008585	-0.012835	0.011002
104	0.519669	0.005000	9.353203	0.812967	-1.701403	-0.727434	0.100569	-1.315635	-0.016932	-0.002602	-0.003312
105	0.524669	0.005000	9.296176	0.824040	-1.765800	-0.727324	0.100458	-1.315512	-0.010540	-0.015499	0.010154
106	0.529669	0.005000	9.309311	0.902520	-1.726560	-0.727214	0.100348	-1.315388	-0.014453	0.001418	-0.002921
107	0.534669	0.005000	9.307277	0.831437	-1.797643	-0.727103	0.100237	-1.315265	-0.008633	-0.003354	-0.006362
108	0.539669	0.005000	9.422681	0.868361	-1.794878	-0.726993	0.100127	-1.315142	-0.009399	-0.006012	0.014491
109	0.544669	0.005000	9.375696	0.824040	-1.726560	-0.726882	0.100016	-1.315018	-0.009320	0.000939	0.000546
110	0.549669	0.005000	9.338409	0.862569	-1.727982	-0.726866	0.099812	-1.315000	-0.019914	-0.015300	0.008733
111	0.554669	0.005000	9.262324	0.824040	-1.692372	-0.726866	0.099591	-1.315000	-0.012584	-0.003030	-0.000666
112	0.559669	0.005000	9.370252	0.855172	-1.722506	-0.726866	0.099370	-1.315000	-0.005494	-0.015645	0.002751
113	0.564669	0.005000	9.339120	0.685177	-1.792976	-0.726866	0.099149	-1.315000	-0.018114	-0.000251	0.006754
114	0.569669	0.005000	9.198860	0.854930	-1.844280	-0.726866	0.098928	-1.315000	-0.013241	-0.015890	-0.003900
115	0.574669	0.005000	9.307945	0.784800	-1.765800	-0.726866	0.098707	-1.315000	-0.001732	-0.006007	0.015243
116	0.579669	0.005000	9.221400	0.719961	-1.712919	-0.726866	0.098486	-1.315000	-0.014001	-0.002572	0.009200
117	0.584669	0.005000	9.324084	0.824040	-1.765800	-0.726866	0.098266	-1.315000	-0.007383	-0.007801	0.014758
118	0.589669	0.005000	9.351348	0.801956	-1.726560	-0.726866	0.098045	-1.315000	-0.007503	-0.005576	0.002577
119	0.594669	0.005000	9.319213	0.725653	-1.765225	-0.726866	0.097824	-1.315000	-0.003997	-0.017570	0.001915
120	0.599669	0.005000	9.278369	0.841769	-1.805040	-0.726866	0.097603	-1.315000	-0.002298	-0.015493	-0.002774
121	0.604669	0.005000	9.308481	0.839360	-1.789720	-0.726866	0.097382	-1.315000	-0.015805	-0.007498	-0.012620
122	0.609669	0.005000	9.286659	0.758781	-1.674522	-0.726866	0.097161	-1.315000	-0.013494	-0.003389	0.008297
123	0.614669	0.005000	9.367398	0.795762	-1.737522	-0.726866	0.097127	-1.314917	-0.004577	-0.012137	0.008707
124	0.619669	0.005000	9.417600	0.793355	-1.805040	-0.726866	0.097458	-1.314670	-0.008711	-0.009078	0.009924
125	0.624669	0.005000	9.339120	0.758783	-1.759189	-0.726866	0.097790	-1.314423	-0.018552	-0.004424	0.009505
126	0.629669	0.005000	9.256445	0.819845	-1.765800	-0.726866	0.098121	-1.314177	-0.012271	-0.008091	0.006503
127	0.634669	0.005000	9.260640	0.863280	-1.724321	-0.726866	0.098452	-1.313930	-0.017537	-0.005124	0.008799
128	0.639669	0.005000	9.299727	0.785106	-1.726407	-0.726866	0.098783	-1.313684	-0.015228	0.000916	0.001308
129	0.644669	0.005000	9.223926	0.902520	-1.768326	-0.726866	0.099115	-1.313437	-0.010874	-0.011989	0.004243
130	0.649669	0.005000	9.299880	0.789301	-1.774802	-0.726866	0.099446	-1.313191	-0.018205	0.006010	0.002907
131	0.654669	0.005000	9.246805	0.817122	-1.687320	-0.726866	0.099777	-1.312944	-0.015901	-0.011313	0.001484
132	0.659669	0.005000	9.260640	0.911732	-1.726560	-0.726866	0.100108	-1.312698	-0.017672	-0.012917	0.006132
133	0.664669	0.005000	9.271908	0.852012	-1.754532	-0.726866	0.100439	-1.312451	-0.012746	-0.001954	0.001771
134	0.669669	0.005000	9.313562	0.771118	-1.699196	-0.726866	0.100771	-1.312205	-0.011631	-0.016273	0.014505
135	0.674669	0.005000	9.339120	0.784800	-1.734197	-0.726866	0.101102	-1.311958	-0.010835	-0.004623	0.014661
136	0.679669	0.005000	9.342289	0.766765	-1.768969	-0.726866	0.101433	-1.311712	-0.016255	0.003753	0.009968
137	0.684669	0.005000	9.380720	0.822860	-1.825250	-0.726866	0.101403	-1.311667	-0.017702	-0.001892	0.006374
138	0.689669	0.005000	9.283030	0.947300	-1.821890	-0.726866	0.101292	-1.311667	-0.011859	-0.017188	-0.007298
139	0.694669	0.005000	9.250275	0.824040	-1.769873	-0.726866	0.101182	-1.311667	-0.006916	-0.012568	0.014576
140	0.699669	0.005000	9.233744	0.902520	-1.778144	-0.726866	0.101071	-1.311667	-0.013298	0.000495	-0.006387
141	0.704669	0.005000	9.260640	0.853191	-1.803922	-0.726866	0.100961	-1.311667	-0.015419	-0.011952	0.008047
142	0.709669	0.005000	9.284515	0.831723	-1.663445	-0.726866	0.100850	-1.311667	-0.025904	-0.010504	-0.001838
143	0.714669	0.005000	9.254967	0.756905	-1.732233	-0.726866	0.100740	-1.311667	-0.019924	-0.021615	0.005588
144	0.719669	0.005000	9.270607	0.817395	-1.762478	-0.726866	0.100629	-1.311667	-0.019536	-0.004769	0.017697
145	0.724669	0.005000	9.377442	0.783882	-1.688238	-0.726866	0.100519	-1.311667	-0.008328	-0.012751	-0.004503
146	0.729669	0.005000	9.300906	0.745560	-1.802988	-0.726866	0.100409	-1.311667	-0.009228	-0.012512	0.006908
147	0.734669	0.005000	9.335677	0.820597	-1.805040	-0.726866	0.100298	-1.311667	-0.013975	-0.006143	0.003889
148	0.739669	0.005000	9.237561	0.824040	-1.810427	-0.726866	0.100188	-1.311667	0.001732	-0.010783	0.008641
149	0.744669	0.005000	9.299880	0.792593	-1.805040	-0.726866	0.100077	-1.311667	-0.011794	-0.008427	0.019679
150	0.749669	0.005000	9.309970	0.725380	-1.815130	-0.727363	0.099702	-1.310742	-0.018291	-0.014257	0.006397
151	0.754669	0.005000	9.351272	0.824040	-1.753648	-0.729019	0.098708	-1.307660	-0.008866	-0.008944	0.016930
152	0.759669	0.005000	9.314440	0.799360	-1.819600	-0.730675	0.097715	-1.304578	-0.017885	-0.007585	-0.000042
153	0.764669	0.005000	9.344808	0.801576	-1.844280	-0.732331	0.096721	-1.301496	-0.010257	-0.019051	0.011073
154	0.769669	0.005000	9.279556	0.822632	-1.883520	-0.733987	0.095727	-1.298414	-0.013104	-0.002510	0.003725
155	0.774669	0.005000	9.206137	0.802968	-1.826112	-0.735643	0.094734	-1.295332	-0.004213	-0.011090	0.007088
156	0.779669	0.005000	9.237378	0.824040	-1.789062	-0.737299	0.093740	-1.292250	-0.008633	-0.014269	0.011831
157	0.784669	0.005000	9.327010	0.810475	-1.726560	-0.738955	0.092747	-1.289168	-0.009207	-0.009604	0.005660
158	0.789669	0.005000	9.260640	0.790187	-1.732330	-0.740611	0.091753	-1.286086	-0.010941	-0.001501	0.007520
159	0.794669	0.005000	9.399174	0.775587	-1.738161	-0.742267	0.090759	-1.283004	-0.014501	-0.006879	0.003266
160	0.799669	0.005000	9.293082	0.759155	-1.648080	-0.743923	0.089766	-1.279922	-0.012655	-0.013193	0.002881
161	0.804669	0.005000	9.255845	0.848894	-1.608840	-0.745579	0.088772	-1.276840	-0.015077	-0.000586	0.006570
162	0.809669	0.005000	9.258191	0.752906	-1.729009	-0.747235	0.087778	-1.273758	-0.014038	-0.009311	0.008144
163	0.814669	0.005000	9.261638	0.785299	-1.766798	-0.748891	0.086785	-1.270676	-0.014396	-0.012732	0.011929
164	0.819669	0.005000	9.376447	0.824040	-1.806953	-0.748392	0.087343	-1.271636	-0.009211	-0.013969	-0.000387
165	0.824669	0.005000	9.444042	0.784800	-1.695852	-0.747288	0.088336	-1.273732	-0.021040	-0.024121	0.001223
166	0.829669	0.005000	9.423862	0.745560	-1.720298	-0.746184	0.089330	-1.275828	-0.017016	-0.003775	0.001872
167	0.834669	0.005000	9.251963	0.837248	-1.757123	-0.745080	0.090324	-1.277924	-0.009948	-0.009465	-0.003529
168	0.839669	0.005000	9.289259	0.716941	-1.747802	-0.743976	0.091317	-1.280019	-0.018909	-0.008567	0.006313
169	0.844669	0.005000	9.391389	0.797982	-1.831098	-0.742872	0.092311	-1.282115	-0.012470	0.000821	-0.011566
170	0.849669	0.005000	9.269384	0.745560	-1.805040	-0.741768	0.093304	-1.284211	-0.005666	-0.014739	0.006023
171	0.854669	0.005000	9.295394	0.845903	-1.748423	-0.740664	0.094298	-1.286306	-0.017196	-0.006644	0.004524
172	0.859669	0.005000	9.280428	0.882395	-1.765800	-0.739560	0.095292	-1.288402	-0.010716	-0.004364	0.003110
173	0.864669	0.005000	9.204094	0.767494	-1.699997	-0.738456	0.096285	-1.290498	-0.009737	-0.009080	0.009493
174	0.869669	0.005000	9.197256	0.784800	-1.820136	-0.737352	0.097279	-1.292594	-0.004273	-0.009590	0.007531
175	0.874669	0.005000	9.234394	0.784800	-1.818034	-0.736247	0.098273	-1.294689	-0.009594	-0.006120	0.009053
176	0.879669	0.005000	9.299880	0.817031	-1.783553	-0.735143	0.099266	-1.296785	-0.009852	0.000509	-0.003266
177	0.884669	0.005000	9.322463	0.815711	-1.757471	-0.734241	0.099942	-1.298623	-0.016348	-0.008729	0.005015
178	0.889669	0.005000	9.306188	0.758176	-1.674704	-0.733910	0.099721	-1.299733	-0.009124	-0.006362	-0.005276
179	0.894669	0.005000	9.331162	0.867259	-1.656038	-0.733579	0.099501	-1.300842	-0.013885	0.001015	0.000206
180	0.899669	0.005000	9.298318	0.863280	-1.765800	-0.733248	0.099280	-1.301952	-0.005553	-0.003331	0.004582
181	0.904669	0.005000	9.260640	0.863280	-1.688085	-0.732917	0.099059	-1.303061	-0.015286	-0.004097	-0.011179
182	0.909669	0.005000	9.297094	0.824040	-1.648080	-0.732586	0.098838	-1.304171	-0.008480	-0.003102	0.002050
183	0.914669	0.005000	9.226131	0.671811	-1.800309	-0.732254	0.098618	-1.305280	-0.017112	0.001014	0.006164
184	0.919669	0.005000	9.260640	0.692051	-1.812175	-0.731923	0.098397	-1.306390	-0.010096	-0.005663	0.005808
185	0.924669	0.005000	9.290441	0.715759	-1.844280	-0.731592	0.098176	-1.307499	-0.015214	-0.004078	0.008260
186	0.929669	0.005000	9.366867	0.801053	-1.715067	-0.731261	0.097955	-1.308609	-0.012088	0.004581	-0.001459
187	0.934669	0.005000	9.403864	0.824040	-1.777569	-0.730930	0.097734	-1.309718	-0.007137	0.006768	0.008714
188	0.939669	0.005000	9.348257	0.784800	-1.788914	-0.730599	0.097514	-1.310828	-0.011277	-0.003534	0.001304
189	0.944669	0.005000	9.341844	0.826764	-1.765800	-0.730268	0.097293	-1.311937	-0.011387	-0.010354	0.006587
190	0.949669	0.005000	9.260640	0.824040	-1.767897	-0.729936	0.097072	-1.313047	-0.017314	-0.001371	-0.000759
191	0.954669	0.005000	9.333134	0.840667	-1.788413	-0.729769	0.097179	-1.313333	-0.006755	0.000260	-0.017802
192	0.959669	0.005000	9.339120	0.888302	-1.712342	-0.729659	0.097400	-1.313333	-0.008294	-0.007008	0.007765
193	0.964669	0.005000	9.275616	0.772668	-1.708740	-0.729548	0.097620	-1.313333	-0.011915	-0.005856	-0.002799
194	0.969669	0.005000	9.270500	0.833900	-1.883520	-0.729438	0.097841	-1.313333	-0.018081	-0.010840	0.004028
195	0.974669	0.005000	9.299880	0.895067	-1.883520	-0.729327	0.098062	-1.313333	-0.008002	0.004877	0.003808
196	0.979669	0.005000	9.378360	0.824040	-1.833261	-0.729217	0.098283	-1.313333	-0.005538	-0.001321	0.004484
197	0.984669	0.005000	9.417600	0.787893	-1.681135	-0.729106	0.098504	-1.313333	-0.007562	0.002770	0.006909
198	0.989669	0.005000	9.301028	0.862132	-1.645783	-0.728996	0.098724	-1.313333	-0.017144	-0.001990	-0.001102
199	0.994669	0.005000	9.263121	0.786040	-1.683599	-0.728886	0.098945	-1.313333	-0.014606	-0.009698	0.010615
200	0.999669	0.005000	9.368764	0.850486	-1.723361	-0.728775	0.099166	-1.313333	-0.019797	-0.004674	-0.001292
201	1.004669	0.005000	9.310953	0.790337	-1.754727	-0.728665	0.099387	-1.313333	0.000823	0.006579	0.002397
202	1.009669	0.005000	9.354216	0.831588	-1.734108	-0.728554	0.099608	-1.313333	-0.014013	-0.005212	0.003527
203	1.014669	0.005000	9.339120	0.814077	-1.805040	-0.728444	0.099828	-1.313333	-0.014047	-0.007107	0.000985
204	1.019669	0.005000	9.335600	0.863280	-1.774187	-0.728358	0.099852	-1.313333	-0.010583	-0.021647	0.014112
205	1.024669	0.005000	9.285565	0.842060	-1.751485	-0.728358	0.099190	-1.313333	-0.012685	-0.003791	-0.000515
206	1.029669	0.005000	9.299880	0.784800	-1.654252	-0.728358	0.098528	-1.313333	-0.002278	-0.009782	0.011447
207	1.034669	0.005000	9.182160	0.803471	-1.745231	-0.728358	0.097865	-1.313333	-0.016269	0.003568	0.010527
208	1.039669	0.005000	9.221400	0.821620	-1.744970	-0.728358	0.097203	-1.313333	-0.007477	0.001527	-0.002469
209	1.044669	0.005000	9.299880	0.902520	-1.648080	-0.728358	0.096540	-1.313333	-0.015744	-0.009933	0.003442
210	1.049669	0.005000	9.260640	0.902520	-1.636449	-0.728358	0.095878	-1.313333	-0.006269	0.000293	-0.006077
211	1.054669	0.005000	9.350844	0.824040	-1.738284	-0.728358	0.095216	-1.313333	-0.016293	-0.007720	0.011532
212	1.059669	0.005000	9.339120	0.882173	-1.666973	-0.728358	0.094553	-1.313333	-0.008962	-0.002971	0.000292
213	1.064669	0.005000	9.292837	0.759645	-1.687320	-0.728358	0.093891	-1.313333	0.004631	-0.002779	0.007997
214	1.069669	0.005000	9.383397	0.868317	-1.755725	-0.728358	0.093229	-1.313333	-0.014732	-0.004035	-0.002586
215	1.074669	0.005000	9.302574	0.821346	-1.616921	-0.728358	0.092566	-1.313333	-0.014982	-0.017362	-0.001227
216	1.079669	0.005000	9.376878	0.747042	-1.805781	-0.728358	0.091904	-1.313333	-0.008367	-0.009909	0.009854
217	1.084669	0.005000	9.375024	0.824040	-1.693993	-0.728358	0.091241	-1.313333	-0.018904	-0.000644	-0.011016
218	1.089669	0.005000	9.343144	0.886425	-1.722536	-0.728436	0.091511	-1.313246	-0.011391	0.002620	0.003003
219	1.094669	0.005000	9.411583	0.757594	-1.620874	-0.728546	0.092174	-1.313123	-0.011952	-0.003238	0.005552
220	1.099669	0.005000	9.386793	0.714753	-1.653590	-0.728657	0.092837	-1.313000	-0.001761	-0.007602	-0.004702
221	1.104669	0.005000	9.406890	0.784800	-1.715850	-0.728767	0.093499	-1.312876	-0.009067	-0.001360	0.010429
222	1.109669	0.005000	9.391144	0.732776	-1.765800	-0.728878	0.094162	-1.312753	-0.012063	-0.004270	0.002893
223	1.114669	0.005000	9.329923	0.769779	-1.780821	-0.728988	0.094825	-1.312630	-0.012433	-0.012182	0.007923
224	1.119669	0.005000	9.194342	0.858321	-1.809999	-0.729099	0.095487	-1.312507	-0.011772	-0.007648	-0.000483
225	1.124669	0.005000	9.181884	0.902382	-1.746249	-0.729209	0.096150	-1.312383	-0.011201	-0.009085	0.008447
226	1.129669	0.005000	9.196154	0.884775	-1.844280	-0.729320	0.096813	-1.312260	-0.006863	-0.000808	0.002613
227	1.134669	0.005000	9.221400	0.902520	-1.711219	-0.729430	0.097475	-1.312137	-0.014988	0.005003	0.002064
228	1.139669	0.005000	9.247404	0.836807	-1.753033	-0.729541	0.098138	-1.312013	-0.018459	0.002342	0.007360
229	1.144669	0.005000	9.271628	0.745560	-1.833292	-0.729651	0.098801	-1.311890	-0.007976	0.000400	-0.003621
230	1.149669	0.005000	9.308820	0.745560	-1.726560	-0.729762	0.099463	-1.311767	-0.016448	-0.015092	0.011478
231	1.154669	0.005000	9.260640	0.784800	-1.687320	-0.729809	0.099979	-1.311690	-0.005828	-0.003850	0.006587
232	1.159669	0.005000	9.260640	0.784800	-1.683096	-0.729588	0.099869	-1.311814	-0.005777	-0.011771	0.001323
233	1.164669	0.005000	9.186721	0.821760	-1.728840	-0.729367	0.099758	-1.311937	-0.014132	-0.005597	0.009164
234	1.169669	0.005000	9.260640	0.784800	-1.726696	-0.729147	0.099648	-1.312060	-0.011594	-0.007373	0.000289
235	1.174669	0.005000	9.339120	0.782719	-1.691483	-0.728926	0.099537	-1.312183	-0.012375	-0.009753	0.001562
236	1.179669	0.005000	9.308852	0.793772	-1.708616	-0.728705	0.099427	-1.312307	-0.016003	-0.001970	0.000484
237	1.184669	0.005000	9.241867	0.791622	-1.837458	-0.728484	0.099316	-1.312430	-0.006378	-0.010307	0.006530
238	1.189669	0.005000	9.312582	0.832886	-1.805040	-0.728263	0.099206	-1.312553	-0.007207	-0.003719	0.002205
239	1.194669	0.005000	9.355854	0.913773	-1.777053	-0.728043	0.099095	-1.312676	-0.020421	-0.002325	0.004233
240	1.199669	0.005000	9.325611	0.810531	-1.767086	-0.727822	0.098985	-1.312800	-0.016170	-0.003868	0.016349
241	1.204669	0.005000	9.315481	0.832078	-1.679282	-0.727601	0.098875	-1.312923	-0.016810	0.006025	-0.004570
242	1.209669	0.005000	9.317893	0.923747	-1.633281	-0.727380	0.098764	-1.313046	-0.008268	-0.003848	0.005832
243	1.214669	0.005000	9.320060	0.864399	-1.845399	-0.727159	0.098654	-1.313169	-0.012166	0.004474	-0.001479
244	1.219669	0.005000	9.277512	0.868776	-1.732056	-0.726939	0.098543	-1.313292	-0.010706	-0.011375	0.004847
245	1.224669	0.005000	9.260640	0.824040	-1.687320	-0.727014	0.098507	-1.312837	-0.018019	-0.013925	0.006101
246	1.229669	0.005000	9.260640	0.784800	-1.741052	-0.727235	0.098507	-1.312097	-0.015085	0.005385	-0.005877
247	1.234669	0.005000	9.339120	0.805009	-1.637975	-0.727456	0.098507	-1.311357	-0.006834	-0.002831	0.004822
248	1.239669	0.005000	9.244494	0.917916	-1.687320	-0.727677	0.098507	-1.310617	-0.011263	0.002311	-0.004965
249	1.244669	0.005000	9.311389	0.896766	-1.620349	-0.727897	0.098507	-1.309878	-0.011556	-0.012699	0.004449
250	1.249669	0.005000	9.339120	0.791475	-1.840942	-0.728118	0.098507	-1.309138	-0.010430	-0.008903	0.006830
251	1.254669	0.005000	9.339120	0.937630	-1.727937	-0.728339	0.098507	-1.308398	-0.004945	-0.015249	0.003391
252	1.259669	0.005000	9.300890	0.747581	-1.804030	-0.728560	0.098507	-1.307659	-0.006701	-0.011678	0.010457
253	1.264669	0.005000	9.299880	0.896610	-1.844280	-0.728781	0.098507	-1.306919	-0.015427	-0.011778	0.010372
254	1.269669	0.005000	9.232144	0.818668	-1.630327	-0.729001	0.098507	-1.306179	-0.002119	-0.010936	0.007468
255	1.274669	0.005000	9.213715	0.886334	-1.640395	-0.729222	0.098507	-1.305440	-0.023584	0.000105	0.011584
256	1.279669	0.005000	9.260640	0.824040	-1.765800	-0.729443	0.098507	-1.304700	-0.004593	-0.014155	0.005804
257	1.284669	0.005000	9.326994	0.878269	-1.648080	-0.729664	0.098507	-1.303960	-0.006755	-0.012006	0.011610
258	1.289669	0.005000	9.246269	0.824040	-1.751429	-0.729834	0.098473	-1.303333	-0.014140	-0.004384	-0.002677
259	1.294669	0.005000	9.283397	0.817765	-1.641805	-0.729724	0.098253	-1.303333	-0.013577	-0.014762	0.009361
260	1.299669	0.005000	9.299880	0.805147	-1.765800	-0.729613	0.098032	-1.303333	-0.012737	-0.008032	-0.003368
261	1.304669	0.005000	9.281697	0.824040	-1.750491	-0.729503	0.097811	-1.303333	-0.009226	-0.008804	0.002831
262	1.309669	0.005000	9.371106	0.840033	-1.680066	-0.729392	0.097590	-1.303333	-0.007877	-0.002233	0.003234
263	1.314669	0.005000	9.339120	0.837620	-1.752220	-0.729282	0.097369	-1.303333	-0.010998	0.001525	0.003275
264	1.319669	0.005000	9.267387	0.784800	-1.765800	-0.729171	0.097148	-1.303333	-0.006482	-0.010441	0.007296
265	1.324669	0.005000	9.378360	0.854052	-1.814268	-0.729061	0.096927	-1.303333	-0.010133	-0.001975	-0.000608
266	1.329669	0.005000	9.385173	0.830853	-1.805040	-0.728950	0.096706	-1.303333	-0.013597	-0.009605	0.002154
267	1.334669	0.005000	9.324689	0.858470	-1.839470	-0.728840	0.096485	-1.303333	-0.010394	-0.003717	0.003045
268	1.339669	0.005000	9.179696	0.865744	-1.733952	-0.728729	0.096265	-1.303333	-0.011868	-0.014749	0.000829
269	1.344669	0.005000	9.299880	0.941714	-1.765800	-0.728619	0.096044	-1.303333	-0.003805	-0.008150	0.003435
270	1.349669	0.005000	9.299880	0.902520	-1.765800	-0.728508	0.095823	-1.303333	-0.016585	-0.009681	-0.004877
271	1.354669	0.005000	9.221400	0.832541	-1.770051	-0.728398	0.095602	-1.303333	-0.010795	-0.011536	0.016088
272	1.359669	0.005000	9.293636	0.718808	-1.778288	-0.728358	0.095593	-1.303963	-0.008919	0.001624	0.003364
273	1.364669	0.005000	9.251990	0.767499	-1.704621	-0.728358	0.095703	-1.304950	-0.017242	-0.012168	-0.002642
274	1.369669	0.005000	9.243274	0.819532	-1.715623	-0.728358	0.095814	-1.305937	-0.015547	0.004118	0.003370
275	1.374669	0.005000	9.273649	0.824040	-1.779023	-0.728358	0.095924	-1.306923	-0.020176	-0.001492	0.000519
276	1.379669	0.005000	9.299880	0.856268	-1.828863	-0.728358	0.096034	-1.307910	-0.013375	-0.005733	0.012474
277	1.384669	0.005000	9.221400	0.824040	-1.726560	-0.728358	0.096145	-1.308897	-0.013966	-0.001438	-0.003498
278	1.389669	0.005000	9.280107	0.784800	-1.766106	-0.728358	0.096255	-1.309884	-0.010471	-0.012659	0.008321
279	1.394669	0.005000	9.260640	0.762616	-1.765800	-0.728358	0.096366	-1.310870	-0.009491	0.000506	0.001746
280	1.399669	0.005000	9.226952	0.769869	-1.829349	-0.728358	0.096476	-1.311857	-0.018598	-0.004560	-0.003695
281	1.404669	0.005000	9.299880	0.837875	-1.779635	-0.728358	0.096587	-1.312844	-0.007330	-0.004377	0.002641
282	1.409669	0.005000	9.299880	0.824040	-1.797703	-0.728358	0.096697	-1.313831	-0.012588	-0.001174	-0.006006
283	1.414669	0.005000	9.268984	0.840728	-1.827592	-0.728358	0.096808	-1.314817	0.001853	-0.009989	0.010875
284	1.419669	0.005000	9.333180	0.829980	-1.793159	-0.728358	0.096918	-1.315804	-0.007678	-0.003023	0.004033
285	1.424669	0.005000	9.268536	0.749508	-1.655976	-0.728386	0.097029	-1.316605	-0.006647	-0.011741	0.009490
286	1.429669	0.005000	9.262232	0.824040	-1.726560	-0.728606	0.097139	-1.316112	-0.014497	-0.001848	0.006382
287	1.434669	0.005000	9.338768	0.824040	-1.726560	-0.728827	0.097249	-1.315619	-0.009608	-0.006959	-0.002608
288	1.439669	0.005000	9.187700	0.790340	-1.650850	-0.729048	0.097360	-1.315126	-0.006020	-0.013047	0.008536
289	1.444669	0.005000	9.289654	0.789913	-1.721447	-0.729268	0.097470	-1.314633	-0.009053	0.005015	0.003999
290	1.449669	0.005000	9.260640	0.777681	-1.694439	-0.729489	0.097580	-1.314141	-0.004312	-0.001713	0.001115
291	1.454669	0.005000	9.240469	0.794335	-1.687320	-0.729710	0.097691	-1.313648	-0.003665	0.014518	0.003001
292	1.459669	0.005000	9.209601	0.835839	-1.730402	-0.729931	0.097801	-1.313155	-0.006866	-0.007556	-0.007542
293	1.464669	0.005000	9.207514	0.874747	-1.791154	-0.730151	0.097911	-1.312662	-0.014714	-0.007962	0.012095
294	1.469669	0.005000	9.290223	0.840339	-1.788741	-0.730372	0.098022	-1.312169	-0.010329	0.007960	-0.000012
295	1.474669	0.005000	9.239885	0.782531	-1.768069	-0.730593	0.098132	-1.311676	-0.006415	-0.006718	0.011929
296	1.479669	0.005000	9.394880	0.803387	-1.726560	-0.730813	0.098242	-1.311183	-0.014467	0.004536	0.005835
297	1.484669	0.005000	9.440663	0.817153	-1.788863	-0.731034	0.098353	-1.310690	-0.009347	-0.004280	-0.002309
298	1.489669	0.005000	9.285812	0.824040	-1.858348	-0.731255	0.098463	-1.310197	-0.001565	-0.004275	0.001862
299	1.494669	0.005000	9.221400	0.851450	-1.844280	-0.731277	0.098706	-1.309778	-0.009653	-0.002983	0.000064
300	1.499669	0.005000	9.249647	0.784800	-1.805040	-0.731166	0.099037	-1.309408	-0.011923	-0.018198	0.013844
301	1.504669	0.005000	9.260640	0.863280	-1.758329	-0.731056	0.099368	-1.309038	-0.006786	0.003755	-0.002379
302	1.509669	0.005000	9.299880	0.834171	-1.815171	-0.730946	0.099699	-1.308669	-0.007890	-0.003054	-0.000866
303	1.514669	0.005000	9.299880	0.938638	-1.795674	-0.730835	0.100031	-1.308299	-0.009931	0.002487	0.008758
304	1.519669	0.005000	9.338416	0.941760	-1.764391	-0.730725	0.100362	-1.307929	-0.013126	-0.002711	-0.000912
305	1.524669	0.005000	9.261880	0.865759	-1.611319	-0.730615	0.100693	-1.307559	-0.010067	-0.000310	0.003376
306	1.529669	0.005000	9.413956	0.792088	-1.726560	-0.730504	0.101024	-1.307189	-0.017970	-0.010643	-0.002017
307	1.534669	0.005000	9.312001	0.811919	-1.720500	-0.730394	0.101356	-1.306819	-0.008874	-0.007915	0.014361
308	1.539669	0.005000	9.299880	0.902520	-1.765800	-0.730284	0.101687	-1.306449	-0.014542	-0.003391	0.004244
309	1.544669	0.005000	9.328709	0.844862	-1.705738	-0.730173	0.102018	-1.306080	-0.008044	-0.011301	0.000268
310	1.549669	0.005000	9.340330	0.850603	-1.751913	-0.730063	0.102349	-1.305710	-0.015547	-0.002834	0.012449
311	1.554669	0.005000	9.402831	0.872983	-1.702089	-0.729952	0.102681	-1.305340	-0.020631	-0.002155	0.000336
312	1.559669	0.005000	9.312174	0.902520	-1.726560	-0.729869	0.102940	-1.304910	-0.013661	-0.016096	0.005046
313	1.564669	0.005000	9.319228	0.784800	-1.746452	-0.730090	0.102388	-1.303800	-0.019800	-0.003232	0.004653
314	1.569669	0.005000	9.360646	0.745560	-1.726560	-0.730311	0.101836	-1.302690	-0.011912	-0.004334	0.008866
315	1.574669	0.005000	9.378360	0.769219	-1.687320	-0.730532	0.101284	-1.301580	-0.011650	-0.001876	-0.002017
316	1.579669	0.005000	9.247279	0.810679	-1.712358	-0.730752	0.100731	-1.300470	-0.005588	-0.006208	-0.009636
317	1.584669	0.005000	9.260640	0.784800	-1.659365	-0.730973	0.100179	-1.299360	-0.008675	-0.010623	0.007880
318	1.589669	0.005000	9.299880	0.833042	-1.696322	-0.731194	0.099627	-1.298250	-0.020028	-0.002916	0.002293
319	1.594669	0.005000	9.273832	0.889328	-1.883520	-0.731415	0.099074	-1.297140	-0.005780	-0.008726	-0.001888
320	1.599669	0.005000	9.373761	0.784800	-1.809639	-0.731636	0.098522	-1.296030	-0.005446	-0.003338	0.006424
321	1.604669	0.005000	9.339120	0.750031	-1.689555	-0.731857	0.097970	-1.294920	-0.010385	-0.004331	0.005934
322	1.609669	0.005000	9.300046	0.745893	-1.687486	-0.732078	0.097418	-1.293810	-0.015173	-0.004953	0.016068
323	1.614669	0.005000	9.227738	0.861167	-1.726560	-0.732299	0.096865	-1.292700	-0.011778	-0.005265	-0.004199
324	1.619669	0.005000	9.299880	0.946290	-1.839750	-0.732520	0.096313	-1.291590	-0.001477	-0.006185	0.013476
325	1.624669	0.005000	9.319699	0.764981	-1.890392	-0.732740	0.095761	-1.290480	-0.007346	0.005322	0.003553
326	1.629669	0.005000	9.251760	0.784800	-1.813920	-0.732899	0.095397	-1.290420	0.000598	-0.008199	0.005110
327	1.634669	0.005000	9.277582	0.869074	-1.748858	-0.733009	0.095176	-1.291160	-0.012398	-0.003052	0.000117
328	1.639669	0.005000	9.260640	0.862836	-1.752572	-0.733119	0.094955	-1.291899	-0.011728	-0.008173	-0.003099
329	1.644669	0.005000	9.276281	0.761201	-1.695278	-0.733230	0.094734	-1.292639	-0.009478	-0.011388	0.014619
330	1.649669	0.005000	9.321285	0.802635	-1.687320	-0.733340	0.094513	-1.293379	-0.004725	-0.006842	0.007544
331	1.654669	0.005000	9.299880	0.784050	-1.785045	-0.733450	0.094293	-1.294118	-0.009291	-0.004227	0.014582
332	1.659669	0.005000	9.260640	0.751131	-1.793776	-0.733561	0.094072	-1.294858	-0.009287	-0.003781	-0.001450
333	1.664669	0.005000	9.236119	0.814238	-1.697122	-0.733671	0.093851	-1.295598	-0.014484	-0.010923	0.003079
334	1.669669	0.005000	9.285596	0.836518	-1.699798	-0.733782	0.093630	-1.296337	-0.004384	-0.008416	0.003917
335	1.674669	0.005000	9.329050	0.784800	-1.902620	-0.733892	0.093410	-1.297077	-0.010424	-0.005044	-0.004992
336	1.679669	0.005000	9.299880	0.871313	-1.757767	-0.734002	0.093189	-1.297817	-0.015344	-0.005803	0.006822
337	1.684669	0.005000	9.305591	0.829751	-1.799329	-0.734113	0.092968	-1.298556	-0.009894	0.007198	0.006918
338	1.689669	0.005000	9.335814	0.778189	-1.759189	-0.734223	0.092747	-1.299296	-0.018616	-0.010918	0.009742
339	1.694669	0.005000	9.260640	0.750945	-1.763107	-0.734328	0.092553	-1.300048	-0.013228	-0.004003	0.011849
340	1.699669	0.005000	9.260640	0.826152	-1.725504	-0.734328	0.092884	-1.301034	-0.008578	-0.007666	0.003774
341	1.704669	0.005000	9.260640	0.798475	-1.765800	-0.734328	0.093215	-1.302020	-0.008306	-0.009262	0.007040
342	1.709669	0.005000	9.226802	0.880910	-1.799638	-0.734328	0.093547	-1.303006	-0.006386	0.005451	-0.015121
343	1.714669	0.005000	9.339120	0.941760	-1.867904	-0.734328	0.093878	-1.303993	-0.013454	-0.003011	0.009560
344	1.719669	0.005000	9.358150	0.951865	-1.892445	-0.734328	0.094209	-1.304979	-0.013983	0.010008	0.006134
345	1.724669	0.005000	9.272807	0.836207	-1.856447	-0.734328	0.094540	-1.305965	-0.004412	-0.001169	0.005751
346	1.729669	0.005000	9.309969	0.902520	-1.780375	-0.734328	0.094872	-1.306951	-0.010818	-0.004255	0.012743
347	1.734669	0.005000	9.355911	0.885729	-1.670529	-0.734328	0.095203	-1.307937	-0.007175	0.000355	0.001453
348	1.739669	0.005000	9.318811	0.901143	-1.667011	-0.734328	0.095534	-1.308924	-0.007097	-0.011260	0.004981
349	1.744669	0.005000	9.320967	0.848062	-1.781018	-0.734328	0.095865	-1.309910	-0.009213	-0.003891	0.007921
350	1.749669	0.005000	9.244687	0.854660	-1.820993	-0.734328	0.096197	-1.310896	-0.006979	-0.004176	0.014859
351	1.754669	0.005000	9.247096	0.796952	-1.699472	-0.734328	0.096528	-1.311882	-0.008502	-0.004531	0.013385
352	1.759669	0.005000	9.276947	0.796266	-1.793574	-0.734328	0.096859	-1.312868	-0.007277	-0.010903	-0.000505
353	1.764669	0.005000	9.239772	0.884148	-1.714878	-0.734094	0.097132	-1.313464	-0.013836	-0.000282	0.008672
354	1.769669	0.005000	9.332340	0.824040	-1.733340	-0.733653	0.097353	-1.313710	-0.020884	-0.002828	0.003339
355	1.774669	0.005000	9.309440	0.780020	-1.765800	-0.733211	0.097574	-1.313957	-0.016247	-0.019238	0.006122
356	1.779669	0.005000	9.299880	0.821607	-1.763367	-0.732769	0.097795	-1.314204	-0.005751	-0.004140	0.008095
357	1.784669	0.005000	9.299926	0.784785	-1.726529	-0.732327	0.098015	-1.314450	-0.012962	-0.011466	-0.002549
358	1.789669	0.005000	9.305665	0.894807	-1.685392	-0.731885	0.098236	-1.314697	-0.011912	-0.005797	0.012113
359	1.794669	0.005000	9.339120	0.893854	-1.757134	-0.731444	0.098457	-1.314944	-0.013702	-0.005167	-0.006758
360	1.799669	0.005000	9.254363	0.869557	-1.693597	-0.731002	0.098678	-1.315191	-0.012690	-0.013966	0.011381
361	1.804669	0.005000	9.243254	0.732398	-1.774493	-0.730560	0.098899	-1.315437	-0.010546	0.003803	-0.003801
362	1.809669	0.005000	9.328153	0.830378	-1.794073	-0.730118	0.099120	-1.315684	-0.004756	0.000593	0.000506
363	1.814669	0.005000	9.286729	0.797844	-1.765800	-0.729676	0.099341	-1.315931	-0.012064	-0.007560	0.005040
364	1.819669	0.005000	9.245183	0.808583	-1.765800	-0.729235	0.099562	-1.316177	-0.017328	-0.000794	-0.001894
365	1.824669	0.005000	9.260640	0.745560	-1.748399	-0.728793	0.099783	-1.316424	-0.006389	-0.003936	0.017114
366	1.829669	0.005000	9.280834	0.804611	-1.726560	-0.728355	0.099997	-1.316661	-0.000932	-0.002215	-0.004749
367	1.834669	0.005000	9.255951	0.780111	-1.704595	-0.728134	0.099776	-1.316291	-0.014164	-0.006920	0.010830
368	1.839669	0.005000	9.369269	0.863280	-1.780875	-0.727913	0.099555	-1.315922	-0.009179	-0.002476	-0.000766
369	1.844669	0.005000	9.299880	0.916437	-1.701237	-0.727692	0.099334	-1.315552	-0.006860	0.002929	0.003273
370	1.849669	0.005000	9.339120	0.870369	-1.747994	-0.727472	0.099114	-1.315182	0.001919	-0.003404	0.010562
371	1.854669	0.005000	9.339120	0.824040	-1.805040	-0.727251	0.098893	-1.314813	-0.007554	0.000122	0.005702
372	1.859669	0.005000	9.293973	0.778893	-1.844280	-0.727030	0.098672	-1.314443	-0.004999	-0.009213	0.005416
373	1.864669	0.005000	9.248749	0.824040	-1.805040	-0.726810	0.098452	-1.314073	-0.011022	-0.003740	-0.001030
374	1.869669	0.005000	9.147559	0.941760	-1.805040	-0.726589	0.098231	-1.313704	-0.002833	-0.003604	0.004811
375	1.874669	0.005000	9.144114	0.864076	-1.766198	-0.726368	0.098010	-1.313334	-0.018162	-0.003941	0.007815
376	1.879669	0.005000	9.257838	0.894115	-1.765800	-0.726148	0.097790	-1.312964	-0.006070	-0.003727	0.002231
377	1.884669	0.005000	9.339120	0.912837	-1.687320	-0.725927	0.097569	-1.312595	-0.007885	-0.017778	0.013169
378	1.889669	0.005000	9.203647	0.909682	-1.719398	-0.725706	0.097348	-1.312225	-0.011576	-0.005938	0.009191
379	1.894669	0.005000	9.182160	0.803709	-1.795585	-0.725485	0.097127	-1.311855	-0.006188	-0.008543	0.016142
380	1.899669	0.005000	9.249127	0.840253	-1.811853	-0.725535	0.097069	-1.311365	-0.009457	-0.009153	0.013411
381	1.904669	0.005000	9.246713	0.874666	-1.816426	-0.725867	0.097179	-1.310748	-0.007390	-0.011540	0.001143
382	1.909669	0.005000	9.306839	0.902520	-1.798081	-0.726198	0.097290	-1.310132	-0.002079	-0.005515	0.010242
383	1.914669	0.005000	9.284279	0.923480	-1.784080	-0.726529	0.097400	-1.309515	-0.009734	0.005146	-0.001622
384	1.919669	0.005000	9.260640	0.844492	-1.883520	-0.726860	0.097511	-1.308899	-0.008110	-0.016548	0.002337
385	1.924669	0.005000	9.277053	0.863280	-1.837866	-0.727192	0.097621	-1.308282	-0.021077	-0.001595	0.011367
386	1.929669	0.005000	9.271475	0.824040	-1.805040	-0.727523	0.097731	-1.307666	-0.012092	0.005260	0.005561
387	1.934669	0.005000	9.327003	0.824040	-1.675203	-0.727854	0.097842	-1.307049	-0.018130	0.002175	0.014807
388	1.939669	0.005000	9.378360	0.824040	-1.765800	-0.728185	0.097952	-1.306433	-0.017401	-0.000296	0.003145
389	1.944669	0.005000	9.339120	0.855842	-1.670394	-0.728517	0.098062	-1.305817	-0.002992	-0.009977	0.005066
390	1.949669	0.005000	9.339120	0.779369	-1.838849	-0.728848	0.098173	-1.305200	-0.019792	0.004232	0.000655
391	1.954669	0.005000	9.375283	0.817885	-1.762723	-0.729179	0.098283	-1.304584	-0.016459	-0.015060	0.005528
392	1.959669	0.005000	9.224094	0.784800	-1.764453	-0.729510	0.098393	-1.303967	-0.010593	-0.002359	0.008383
393	1.964669	0.005000	9.264452	0.708861	-1.611381	-0.729841	0.098504	-1.303351	-0.008212	-0.010664	0.006519
394	1.969669	0.005000	9.189451	0.816749	-1.580537	-0.729958	0.098400	-1.303932	-0.006449	-0.003830	0.014309
395	1.974669	0.005000	9.148552	0.891256	-1.687320	-0.730069	0.098289	-1.304548	-0.013357	0.007397	0.001106
396	1.979669	0.005000	9.190198	0.910558	-1.718522	-0.730179	0.098179	-1.305165	-0.011444	-0.006720	0.004969
397	1.984669	0.005000	9.279916	0.775507	-1.775782	-0.730289	0.098069	-1.305781	-0.025033	0.000352	0.007852
398	1.989669	0.005000	9.287484	0.784800	-1.672873	-0.730400	0.097958	-1.306397	-0.009871	-0.015354	0.001560
399	1.994669	0.005000	9.324492	0.853296	-1.726560	-0.730510	0.097848	-1.307014	-0.014995	-0.009286	-0.000168
400	1.999669	0.005000	9.350108	0.863280	-1.788297	-0.730620	0.097738	-1.307630	-0.017921	-0.007592	0.003622
401	2.004669	0.005000	9.259706	0.864214	-1.745713	-0.730731	0.097627	-1.308247	-0.010883	-0.014073	0.008842
402	2.009669	0.005000	9.284692	0.866235	-1.726560	-0.730841	0.097517	-1.308863	-0.016337	-0.004900	-0.000735
403	2.014669	0.005000	9.268598	0.855505	-1.773575	-0.730951	0.097407	-1.309480	-0.007021	-0.017526	0.008226
404	2.019669	0.005000	9.364730	0.861631	-1.687320	-0.731062	0.097296	-1.310096	-0.006105	-0.000263	0.011665
405	2.024669	0.005000	9.372098	0.768311	-1.732822	-0.731172	0.097186	-1.310713	-0.002404	-0.008565	-0.005148
406	2.029669	0.005000	9.239337	0.815072	-1.805040	-0.731283	0.097075	-1.311329	-0.014917	-0.004558	0.006654
407	2.034669	0.005000	9.281470	0.810153	-1.772743	-0.731193	0.096965	-1.311834	-0.012847	-0.003232	0.007685
408	2.039669	0.005000	9.265248	0.902520	-1.721952	-0.730862	0.096855	-1.312204	-0.010148	-0.017415	0.000780
409	2.044669	0.005000	9.258008	0.858016	-1.682056	-0.730531	0.096744	-1.312574	-0.009226	0.001159	0.009741
410	2.049669	0.005000	9.260380	0.745560	-1.687580	-0.730200	0.096634	-1.312944	-0.010765	-0.012868	0.007590
411	2.054669	0.005000	9.258507	0.745560	-1.800774	-0.729869	0.096523	-1.313313	-0.014661	-0.002010	0.008367
412	2.059669	0.005000	9.264742	0.749662	-1.871215	-0.729538	0.096413	-1.313683	-0.011343	-0.000006	0.002017
413	2.064669	0.005000	9.293373	0.778293	-1.824560	-0.729206	0.096302	-1.314053	-0.005656	-0.001833	0.014488
414	2.069669	0.005000	9.169332	0.854476	-1.796236	-0.728875	0.096192	-1.314423	-0.005874	0.002522	0.006332
415	2.074669	0.005000	9.238930	0.738885	-1.726560	-0.728544	0.096082	-1.314793	-0.010515	-0.007773	0.001663
416	2.079669	0.005000	9.325851	0.719022	-1.648080	-0.728213	0.095971	-1.315163	-0.001332	-0.004164	0.016465
417	2.084669	0.005000	9.308139	0.745560	-1.687320	-0.727882	0.095861	-1.315533	-0.008664	-0.014535	0.006053
418	2.089669	0.005000	9.374364	0.745560	-1.677690	-0.727551	0.095750	-1.315902	-0.012545	-0.013395	0.007312
419	2.094669	0.005000	9.359153	0.804007	-1.805866	-0.727219	0.095640	-1.316272	-0.016603	0.000702	0.000507
420	2.099669	0.005000	9.265753	0.824040	-1.782864	-0.726888	0.095529	-1.316642	-0.003644	-0.007043	-0.000211
421	2.104669	0.005000	9.245789	0.784800	-1.687320	-0.726969	0.095934	-1.316322	-0.012752	-0.003584	0.009313
422	2.109669	0.005000	9.326678	0.772358	-1.633725	-0.727079	0.096375	-1.315953	-0.012894	0.000759	0.001973
423	2.114669	0.005000	9.320635	0.774423	-1.726560	-0.727189	0.096817	-1.315583	-0.009956	-0.000026	0.000065
424	2.119669	0.005000	9.331036	0.761728	-1.702309	-0.727300	0.097258	-1.315213	-0.014827	-0.000926	0.008062
425	2.124669	0.005000	9.293814	0.766602	-1.648080	-0.727410	0.097700	-1.314844	-0.015596	-0.009181	0.006100
426	2.129669	0.005000	9.296146	0.717523	-1.765800	-0.727520	0.098141	-1.314474	-0.020786	0.002436	-0.002168
427	2.134669	0.005000	9.184793	0.824040	-1.803723	-0.727631	0.098583	-1.314104	-0.014013	-0.005237	0.006888
428	2.139669	0.005000	9.183385	0.785412	-1.727172	-0.727741	0.099024	-1.313735	-0.011716	0.002669	0.008655
429	2.144669	0.005000	9.142920	0.781805	-1.690315	-0.727851	0.099465	-1.313365	-0.012437	-0.005693	-0.000098
430	2.149669	0.005000	9.221400	0.863280	-1.574574	-0.727962	0.099907	-1.312995	-0.005112	-0.002876	0.011080
431	2.154669	0.005000	9.238766	0.855989	-1.680029	-0.728072	0.100348	-1.312625	-0.024190	0.007267	-0.006816
432	2.159669	0.005000	9.290556	0.794124	-1.657404	-0.728182	0.100790	-1.312256	-0.022609	-0.004041	0.012462
433	2.164669	0.005000	9.350858	0.784800	-1.710797	-0.728293	0.101231	-1.311886	-0.010965	-0.001250	0.001509
434	2.169669	0.005000	9.352802	0.875156	-1.738436	-0.728358	0.100998	-1.311215	-0.008751	0.002024	-0.000725
435	2.174669	0.005000	9.308913	0.824040	-1.742651	-0.728358	0.099784	-1.310106	-0.009894	-0.002792	0.011187
436	2.179669	0.005000	9.320831	0.899858	-1.689982	-0.728358	0.098570	-1.308996	-0.012912	-0.000172	0.003453
437	2.184669	0.005000	9.339120	0.902520	-1.728213	-0.728358	0.097355	-1.307887	-0.011641	-0.008776	0.000852
438	2.189669	0.005000	9.238055	0.813315	-1.765800	-0.728358	0.096141	-1.306777	-0.009302	-0.002820	0.000930
439	2.194669	0.005000	9.235838	0.819967	-1.740998	-0.728358	0.094926	-1.305668	-0.014047	-0.002135	0.004611
440	2.199669	0.005000	9.275822	0.784800	-1.663262	-0.728358	0.093712	-1.304558	-0.008630	0.001425	0.015272
441	2.204669	0.005000	9.309969	0.775828	-1.668259	-0.728358	0.092498	-1.303448	-0.006564	-0.005315	0.010213
442	2.209669	0.005000	9.331437	0.800992	-1.844280	-0.728358	0.091283	-1.302339	-0.007564	-0.010070	0.009167
443	2.214669	0.005000	9.221400	0.779061	-1.715082	-0.728358	0.090069	-1.301229	-0.007997	-0.007336	-0.007636
444	2.219669	0.005000	9.224722	0.752205	-1.658047	-0.728358	0.088854	-1.300120	-0.005577	-0.014956	0.010365
445	2.224669	0.005000	9.299880	0.902520	-1.805040	-0.728358	0.087640	-1.299010	-0.011253	0.004217	0.002465
446	2.229669	0.005000	9.376308	0.864306	-1.843254	-0.728358	0.086425	-1.297901	-0.010531	-0.001629	0.001117
447	2.234669	0.005000	9.159938	0.827444	-1.726560	-0.728358	0.085211	-1.296791	-0.020949	-0.003391	0.010910
448	2.239669	0.005000	9.255253	0.829427	-1.810427	-0.728652	0.085663	-1.297543	-0.017855	-0.002282	0.004263
449	2.244669	0.005000	9.292180	0.887120	-1.844280	-0.728984	0.086326	-1.298530	-0.005531	-0.005125	0.014892
450	2.249669	0.005000	9.201635	0.833777	-1.706795	-0.729315	0.086989	-1.299516	-0.008663	0.004448	-0.001441
451	2.254669	0.005000	9.221400	0.839258	-1.781018	-0.729646	0.087652	-1.300503	-0.002138	-0.004838	0.004013
452	2.259669	0.005000	9.221400	0.838426	-1.805040	-0.729978	0.088314	-1.301490	-0.003350	0.009274	0.011862
453	2.264669	0.005000	9.244136	0.768296	-1.815313	-0.730309	0.088977	-1.302476	-0.016357	0.006584	0.005532
454	2.269669	0.005000	9.279556	0.803716	-1.745476	-0.730641	0.089640	-1.303463	-0.005376	-0.006636	0.008885
455	2.274669	0.005000	9.239568	0.857471	-1.823208	-0.730972	0.090302	-1.304450	-0.014683	0.004626	-0.004124
456	2.279669	0.005000	9.283902	0.902520	-1.749822	-0.731303	0.090965	-1.305436	-0.005990	-0.000953	0.002621
457	2.284669	0.005000	9.222854	0.796910	-1.711541	-0.731635	0.091628	-1.306423	-0.014016	0.003387	-0.000780
458	2.289669	0.005000	9.299880	0.757180	-1.620460	-0.731966	0.092290	-1.307410	-0.011380	-0.004406	0.004201
459	2.294669	0.005000	9.320694	0.842466	-1.726560	-0.732297	0.092953	-1.308396	-0.009085	-0.009927	0.009469
460	2.299669	0.005000	9.142920	0.870550	-1.758530	-0.732629	0.093616	-1.309383	-0.010396	-0.003855	-0.002838
461	2.304669	0.005000	9.299880	0.902520	-1.721707	-0.732753	0.094278	-1.310046	-0.002146	-0.007628	0.009405
462	2.309669	0.005000	9.369737	0.860406	-1.729434	-0.732533	0.094940	-1.310169	-0.007262	-0.002533	0.002877
463	2.314669	0.005000	9.222410	0.902015	-1.726055	-0.732312	0.095602	-1.310293	-0.015668	-0.008076	0.008716
464	2.319669	0.005000	9.413283	0.787678	-1.800723	-0.732091	0.096264	-1.310416	-0.014830	-0.005558	0.003827
465	2.324669	0.005000	9.331407	0.714033	-1.765800	-0.731870	0.096927	-1.310539	-0.009657	-0.011219	-0.000194
466	2.329669	0.005000	9.306067	0.784800	-1.654267	-0.731650	0.097589	-1.310662	-0.008671	-0.012546	0.010534
467	2.334669	0.005000	9.308086	0.698114	-1.695526	-0.731429	0.098251	-1.310786	-0.015549	-0.000842	0.005387
468	2.339669	0.005000	9.260640	0.774179	-1.765800	-0.731208	0.098913	-1.310909	-0.011574	-0.013777	0.012903
469	2.344669	0.005000	9.301426	0.758125	-1.740670	-0.730988	0.099575	-1.311032	-0.007913	0.004713	0.001857
470	2.349669	0.005000	9.324152	0.769832	-1.717255	-0.730767	0.100237	-1.311155	-0.006078	0.003426	0.010462
471	2.354669	0.005000	9.334219	0.762729	-1.687320	-0.730546	0.100899	-1.311279	-0.012461	-0.002689	0.006903
472	2.359669	0.005000	9.280559	0.823443	-1.707836	-0.730326	0.101561	-1.311402	-0.018957	0.002600	0.002600
473	2.364669	0.005000	9.282121	0.863280	-1.787281	-0.730105	0.102223	-1.311525	-0.006464	-0.000646	0.009230
474	2.369669	0.005000	9.236784	0.902520	-1.711176	-0.729884	0.102885	-1.311648	-0.000627	0.001181	0.010734
475	2.374669	0.005000	9.260640	0.836977	-1.674169	-0.730414	0.102047	-1.310620	0.002259	-0.016074	-0.003245
476	2.379669	0.005000	9.306889	0.752569	-1.822793	-0.731076	0.100943	-1.309387	-0.008173	-0.006750	0.001024
477	2.384669	0.005000	9.291182	0.667080	-1.835582	-0.731738	0.099839	-1.308154	-0.011055	-0.003319	0.002335
478	2.389669	0.005000	9.227784	0.712704	-1.844280	-0.732401	0.098735	-1.306921	-0.011795	-0.014304	0.014823
479	2.394669	0.005000	9.299880	0.784800	-1.691707	-0.733063	0.097631	-1.305689	-0.016903	-0.003537	-0.005861
480	2.399669	0.005000	9.337085	0.708355	-1.765800	-0.733726	0.096527	-1.304456	-0.000964	-0.010710	0.000910
481	2.404669	0.005000	9.260640	0.784709	-1.765800	-0.734388	0.095423	-1.303223	-0.012466	-0.009363	0.015520
482	2.409669	0.005000	9.297554	0.782474	-1.691972	-0.735050	0.094320	-1.301990	-0.017142	-0.009341	0.015941
483	2.414669	0.005000	9.230749	0.784800	-1.761126	-0.735713	0.093216	-1.300757	-0.009927	-0.014722	0.008566
484	2.419669	0.005000	9.235504	0.888416	-1.765800	-0.736375	0.092112	-1.299524	-0.013981	0.000293	-0.000219
485	2.424669	0.005000	9.339120	0.923602	-1.835201	-0.737037	0.091008	-1.298292	-0.009406	-0.003223	0.012523
486	2.429669	0.005000	9.299880	0.807521	-1.860799	-0.737700	0.089904	-1.297059	-0.017738	-0.004441	0.006528
487	2.434669	0.005000	9.287514	0.771363	-1.818477	-0.738362	0.088800	-1.295826	-0.008343	-0.001756	0.004168
488	2.439669	0.005000	9.260640	0.800646	-1.812588	-0.738842	0.088024	-1.294552	-0.010967	0.001332	0.008969
489	2.444669	0.005000	9.299880	0.809140	-1.805040	-0.738953	0.087913	-1.293196	-0.002183	-0.000961	0.005718
490	2.449669	0.005000	9.241602	0.765762	-1.805040	-0.739063	0.087803	-1.291840	-0.007330	-0.011265	0.015685
491	2.454669	0.005000	9.204773	0.875253	-1.687320	-0.739174	0.087692	-1.290484	-0.012968	-0.005565	0.004612
492	2.459669	0.005000	9.275147	0.770293	-1.672813	-0.739284	0.087582	-1.289128	-0.004797	-0.009014	0.014799
493	2.464669	0.005000	9.302298	0.772526	-1.768218	-0.739395	0.087471	-1.287772	-0.014150	0.006308	0.011921
494	2.469669	0.005000	9.192371	0.834251	-1.805040	-0.739505	0.087361	-1.286416	-0.003726	-0.000501	0.010803
495	2.474669	0.005000	9.237231	0.808546	-1.757885	-0.739615	0.087251	-1.285060	-0.008974	-0.001061	0.010685
496	2.479669	0.005000	9.305780	0.902520	-1.805040	-0.739726	0.087140	-1.283704	-0.013943	0.007083	0.004160
497	2.484669	0.005000	9.267689	0.898995	-1.808565	-0.739836	0.087030	-1.282348	-0.004037	-0.007022	0.009350
498	2.489669	0.005000	9.261788	0.901372	-1.688468	-0.739947	0.086919	-1.280992	-0.009265	0.001126	-0.000822
499	2.494669	0.005000	9.376798	0.747902	-1.688101	-0.740057	0.086809	-1.279636	-0.005358	0.002640	0.001593
500	2.499669	0.005000	9.371963	0.742361	-1.798643	-0.740168	0.086698	-1.278280	-0.014488	-0.000592	0.005989
501	2.504669	0.005000	9.266177	0.829577	-1.732097	-0.740278	0.086588	-1.276924	-0.025529	-0.010291	0.001935
502	2.509669	0.005000	9.292332	0.855732	-1.694868	-0.739762	0.086925	-1.278066	-0.011206	-0.006519	0.011635
503	2.514669	0.005000	9.329272	0.755408	-1.677472	-0.739099	0.087367	-1.279792	-0.008418	-0.006539	0.007850
504	2.519669	0.005000	9.327213	0.878707	-1.793133	-0.738437	0.087808	-1.281518	-0.019046	-0.013753	0.020006
505	2.524669	0.005000	9.299880	0.970390	-1.740875	-0.737775	0.088250	-1.283244	-0.013439	-0.000665	0.007882
506	2.529669	0.005000	9.277174	0.885986	-1.693492	-0.737112	0.088691	-1.284970	-0.010559	-0.010243	0.001364
507	2.534669	0.005000	9.245764	0.898725	-1.666751	-0.736450	0.089133	-1.286696	-0.002487	-0.001132	0.016150
508	2.539669	0.005000	9.224324	0.826964	-1.651004	-0.735787	0.089575	-1.288422	-0.009201	0.006378	0.004810
509	2.544669	0.005000	9.315900	0.784800	-1.655281	-0.735125	0.090016	-1.290148	-0.012638	-0.010862	0.013744
510	2.549669	0.005000	9.352924	0.810236	-1.689493	-0.734462	0.090458	-1.291873	-0.012260	0.006371	0.006505
511	2.554669	0.005000	9.339120	0.745560	-1.737951	-0.733800	0.090899	-1.293599	-0.016386	-0.006109	0.001988
512	2.559669	0.005000	9.309213	0.745560	-1.775133	-0.733137	0.091341	-1.295325	-0.016604	0.002278	0.006208
513	2.564669	0.005000	9.292837	0.770715	-1.844280	-0.732475	0.091783	-1.297051	-0.011009	0.004362	0.000293
514	2.569669	0.005000	9.363248	0.784800	-1.824131	-0.731812	0.092224	-1.298777	-0.010327	-0.005547	0.008479
515	2.574669	0.005000	9.260640	0.826734	-1.650774	-0.731214	0.092473	-1.300287	-0.015026	-0.000602	-0.001556
516	2.579669	0.005000	9.261191	0.824316	-1.531187	-0.730773	0.092252	-1.301274	-0.008863	-0.004823	-0.000112
517	2.584669	0.005000	9.301548	0.863280	-1.760796	-0.730331	0.092031	-1.302260	-0.009377	0.003146	0.005295
518	2.589669	0.005000	9.225473	0.824040	-1.761727	-0.729890	0.091810	-1.303246	-0.017592	-0.004295	0.000708
519	2.594669	0.005000	9.260640	0.863280	-1.589067	-0.729448	0.091589	-1.304232	-0.008871	-0.009461	0.023805
520	2.599669	0.005000	9.299880	0.824040	-1.578033	-0.729006	0.091369	-1.305219	-0.023593	-0.007486	-0.007993
521	2.604669	0.005000	9.310720	0.891680	-1.715720	-0.728565	0.091148	-1.306205	-0.024240	-0.009756	0.007246
522	2.609669	0.005000	9.260640	0.863280	-1.778900	-0.728123	0.090927	-1.307191	-0.025649	-0.008891	0.005855
523	2.614669	0.005000	9.221400	0.784800	-1.765800	-0.727682	0.090706	-1.308177	-0.007739	-0.012966	0.006685
524	2.619669	0.005000	9.299880	0.741113	-1.722113	-0.727240	0.090485	-1.309163	-0.018742	-0.008521	0.010559
525	2.624669	0.005000	9.299880	0.745698	-1.687458	-0.726798	0.090265	-1.310150	-0.014371	-0.002120	-0.003036
526	2.629669	0.005000	9.321588	0.684612	-1.783332	-0.726357	0.090044	-1.311136	-0.016909	-0.013196	0.012985
527	2.634669	0.005000	9.299880	0.736635	-1.820197	-0.725915	0.089823	-1.312122	-0.017406	-0.001320	-0.000715
528	2.639669	0.005000	9.286948	0.811108	-1.818416	-0.725474	0.089602	-1.313108	-0.007517	-0.004666	0.004624
529	2.644669	0.005000	9.328259	0.834901	-1.761595	-0.726055	0.089808	-1.313238	-0.023544	-0.003107	0.007014
530	2.649669	0.005000	9.330546	0.736986	-1.774374	-0.726938	0.090139	-1.313115	-0.012429	-0.002519	-0.015628
531	2.654669	0.005000	9.332952	0.745560	-1.759632	-0.727821	0.090470	-1.312991	-0.006340	0.001342	-0.007532
532	2.659669	0.005000	9.339120	0.749311	-1.687320	-0.728705	0.090801	-1.312868	-0.015913	-0.001222	0.011904
533	2.664669	0.005000	9.378360	0.822233	-1.608840	-0.729588	0.091133	-1.312745	-0.011807	-0.005192	0.010012
534	2.669669	0.005000	9.378360	0.784800	-1.647490	-0.730471	0.091464	-1.312622	-0.000967	0.002416	0.001841
535	2.674669	0.005000	9.339120	0.858197	-1.692403	-0.731354	0.091795	-1.312498	-0.009359	-0.004429	0.002157
536	2.679669	0.005000	9.314756	0.863280	-1.677403	-0.732237	0.092126	-1.312375	-0.013816	-0.002645	0.012325
537	2.684669	0.005000	9.292604	0.784800	-1.687320	-0.733120	0.092458	-1.312252	-0.009508	-0.003422	0.007214
538	2.689669	0.005000	9.369051	0.775491	-1.648080	-0.734004	0.092789	-1.312129	-0.004001	-0.011035	0.016286
539	2.694669	0.005000	9.354914	0.773077	-1.738283	-0.734887	0.093120	-1.312006	-0.013699	0.005989	0.005580
540	2.699669	0.005000	9.288565	0.784800	-1.715245	-0.735770	0.093451	-1.311882	-0.013544	-0.000790	0.001675
541	2.704669	0.005000	9.346209	0.807964	-1.742636	-0.736653	0.093783	-1.311759	-0.003488	0.006277	0.012523
542	2.709669	0.005000	9.297599	0.881759	-1.749602	-0.737173	0.094114	-1.311729	0.003802	0.007622	0.013590
543	2.714669	0.005000	9.299880	0.764151	-1.707969	-0.736622	0.094445	-1.311976	-0.007233	0.001493	0.014661
544	2.719669	0.005000	9.316286	0.784800	-1.720132	-0.736070	0.094776	-1.312222	-0.006068	-0.001454	0.011345
545	2.724669	0.005000	9.285886	0.784800	-1.779794	-0.735518	0.095107	-1.312469	0.001053	-0.004458	0.010767
546	2.729669	0.005000	9.217875	0.796705	-1.781230	-0.734966	0.095438	-1.312715	0.002290	0.008107	0.009468
547	2.734669	0.005000	9.319837	0.853638	-1.756158	-0.734414	0.095770	-1.312962	-0.005755	0.001413	0.014373
548	2.739669	0.005000	9.235853	0.863280	-1.844280	-0.733862	0.096101	-1.313209	-0.006165	-0.014216	0.019299
549	2.744669	0.005000	9.289442	0.824040	-1.844280	-0.733310	0.096432	-1.313455	-0.010847	0.003831	0.004841
550	2.749669	0.005000	9.263517	0.824040	-1.950491	-0.732758	0.096763	-1.313702	-0.001225	-0.009737	0.023251
551	2.754669	0.005000	9.299880	0.862821	-1.804121	-0.732206	0.097094	-1.313948	0.003372	0.005953	0.012654
552	2.759669	0.005000	9.262125	0.861795	-1.726560	-0.731654	0.097425	-1.314195	-0.001441	-0.006319	0.020523
553	2.764669	0.005000	9.225242	0.855595	-1.832753	-0.731102	0.097756	-1.314441	-0.002253	-0.001127	0.015350
554	2.769669	0.005000	9.170494	0.857447	-1.693153	-0.730550	0.098088	-1.314688	0.000327	-0.003106	0.011002
555	2.774669	0.005000	9.213151	0.925262	-1.827782	-0.729998	0.098419	-1.314934	-0.010262	0.002224	0.016628
556	2.779669	0.005000	9.339120	0.884337	-1.786857	-0.729851	0.098669	-1.315000	-0.007061	-0.005192	0.015250
557	2.784669	0.005000	9.260640	0.797395	-1.765800	-0.729851	0.098890	-1.315000	-0.001836	-0.014657	0.023826
558	2.789669	0.005000	9.284876	0.706320	-1.726560	-0.729851	0.099111	-1.315000	-0.009934	0.003360	0.027754
559	2.794669	0.005000	9.238615	0.671890	-1.648080	-0.729851	0.099332	-1.315000	0.001625	-0.007538	0.021321
560	2.799669	0.005000	9.319760	0.726200	-1.687320	-0.729851	0.099553	-1.315000	-0.000812	-0.007292	0.024784
561	2.804669	0.005000	9.286713	0.688851	-1.748331	-0.729851	0.099773	-1.315000	-0.010155	0.002989	0.017606
562	2.809669	0.005000	9.245301	0.776238	-1.671981	-0.729851	0.099994	-1.315000	0.002500	-0.008396	0.023625
563	2.814669	0.005000	9.365244	0.745560	-1.805040	-0.729851	0.100215	-1.315000	0.003330	0.001930	0.020969
564	2.819669	0.005000	9.299880	0.688484	-1.755098	-0.729851	0.100436	-1.315000	0.003496	-0.006651	0.035433
565	2.824669	0.005000	9.378360	0.767494	-1.695973	-0.729851	0.100657	-1.315000	-0.002070	0.009989	0.032127
566	2.829669	0.005000	9.312582	0.830391	-1.693671	-0.729851	0.100878	-1.315000	-0.005420	-0.004231	0.023911
567	2.834669	0.005000	9.378360	0.859345	-1.761865	-0.729851	0.101099	-1.315000	-0.002458	0.004234	0.031271
568	2.839669	0.005000	9.368408	0.828021	-1.767790	-0.729851	0.101319	-1.315000	-0.009394	0.003053	0.033482
569	2.844669	0.005000	9.220992	0.863688	-1.766208	-0.729780	0.101564	-1.315000	-0.005969	-0.004717	0.030072
570	2.849669	0.005000	9.297081	0.782001	-1.729359	-0.729449	0.101895	-1.315000	-0.011004	0.009414	0.035040
571	2.854669	0.005000	9.343881	0.784800	-1.809801	-0.729118	0.102226	-1.315000	-0.001663	-0.002375	0.032003
572	2.859669	0.005000	9.299880	0.841996	-1.623029	-0.728786	0.102557	-1.315000	-0.007863	-0.003813	0.038560
573	2.864669	0.005000	9.299880	0.824040	-1.617961	-0.728455	0.102889	-1.315000	-0.010106	-0.008515	0.033262
574	2.869669	0.005000	9.366831	0.745560	-1.703503	-0.728124	0.103220	-1.315000	-0.010231	-0.015354	0.040106
575	2.874669	0.005000	9.403819	0.810259	-1.726560	-0.727793	0.103551	-1.315000	-0.014004	-0.009529	0.027389
576	2.879669	0.005000	9.433486	0.847394	-1.663966	-0.727461	0.103882	-1.315000	-0.010670	-0.013915	0.030706
577	2.884669	0.005000	9.339120	0.745560	-1.587896	-0.727130	0.104213	-1.315000	-0.010151	-0.027922	0.036693
578	2.889669	0.005000	9.279413	0.805267	-1.644692	-0.726799	0.104544	-1.315000	-0.015986	-0.028711	0.032682
579	2.894669	0.005000	9.260640	0.756089	-1.703910	-0.726468	0.104876	-1.315000	-0.008371	-0.029423	0.038507
580	2.899669	0.005000	9.378360	0.824040	-1.762508	-0.726136	0.105207	-1.315000	-0.011010	-0.013071	0.021570
581	2.904669	0.005000	9.393427	0.808973	-1.777887	-0.725805	0.105538	-1.315000	-0.011274	-0.017289	0.030332
582	2.909669	0.005000	9.319531	0.902520	-1.883520	-0.725474	0.105869	-1.315000	-0.015433	-0.005450	0.035567
583	2.914669	0.005000	9.370569	0.847699	-1.836489	-0.725373	0.105510	-1.314657	-0.020392	-0.022184	0.021295
584	2.919669	0.005000	9.299880	0.706320	-1.760334	-0.725373	0.104847	-1.314164	-0.019879	-0.009365	0.045163
585	2.924669	0.005000	9.302942	0.830164	-1.850404	-0.725373	0.104185	-1.313671	-0.016357	-0.019039	0.031324
586	2.929669	0.005000	9.298776	0.822936	-1.842071	-0.725373	0.103522	-1.313178	-0.019616	-0.016315	0.028552
587	2.934669	0.005000	9.298594	0.746846	-1.727846	-0.725373	0.102860	-1.312685	-0.020503	-0.005763	0.019740
588	2.939669	0.005000	9.339120	0.667080	-1.840619	-0.725373	0.102198	-1.312192	-0.013817	-0.022258	0.021036
589	2.944669	0.005000	9.378360	0.672727	-1.771447	-0.725373	0.101535	-1.311698	-0.022278	-0.006383	0.021880
590	2.949669	0.005000	9.355226	0.776747	-1.867414	-0.725373	0.100873	-1.311205	-0.020551	-0.004874	0.017777
591	2.954669	0.005000	9.357666	0.766254	-1.836081	-0.725373	0.100211	-1.310712	-0.015955	-0.012101	0.019781
592	2.959669	0.005000	9.405188	0.799217	-1.780217	-0.725373	0.099548	-1.310219	-0.012972	-0.005946	0.016941
593	2.964669	0.005000	9.299880	0.721140	-1.775399	-0.725373	0.098886	-1.309726	-0.019751	-0.016808	0.016965
594	2.969669	0.005000	9.339120	0.672791	-1.816094	-0.725373	0.098223	-1.309233	-0.024558	-0.001181	0.023801
595	2.974669	0.005000	9.299880	0.707208	-1.785864	-0.725373	0.097561	-1.308739	-0.012239	0.002848	0.015827
596	2.979669	0.005000	9.317791	0.845369	-1.805040	-0.725354	0.097073	-1.308398	-0.005716	-0.005575	0.014477
597	2.984669	0.005000	9.260640	0.729852	-1.710852	-0.725243	0.097404	-1.308768	-0.019688	0.004541	-0.000396
598	2.989669	0.005000	9.326479	0.784142	-1.674679	-0.725133	0.097736	-1.309138	-0.013863	-0.006029	0.008711
599	2.994669	0.005000	9.288656	0.829607	-1.659304	-0.725023	0.098067	-1.309508	-0.023576	0.004327	0.003430
600	2.999669	0.005000	9.357026	0.745560	-1.657033	-0.724912	0.098398	-1.309877	-0.014189	-0.005912	0.001435
601	3.004669	0.005000	9.378360	0.745560	-1.648080	-0.724802	0.098729	-1.310247	-0.015971	0.002350	0.004821
602	3.009669	0.005000	9.382898	0.775724	-1.726560	-0.724691	0.099061	-1.310617	-0.013494	-0.006752	-0.010958
603	3.014669	0.005000	9.304257	0.671457	-1.759234	-0.724581	0.099392	-1.310987	-0.017340	-0.015255	0.001688
604	3.019669	0.005000	9.339347	0.706547	-1.609067	-0.724471	0.099723	-1.311357	-0.022587	-0.003836	-0.000616
605	3.024669	0.005000	9.258467	0.664907	-1.573946	-0.724360	0.100054	-1.311727	-0.018505	-0.004540	0.006176
606	3.029669	0.005000	9.290725	0.706320	-1.712827	-0.724250	0.100386	-1.312096	-0.021984	0.002098	0.002976
607	3.034669	0.005000	9.371447	0.770974	-1.726560	-0.724140	0.100717	-1.312466	-0.034445	-0.009694	-0.005358
608	3.039669	0.005000	9.269578	0.724195	-1.783675	-0.724029	0.101048	-1.312836	-0.030998	-0.009067	0.001811
609	3.044669	0.005000	9.350465	0.717665	-1.693459	-0.723919	0.101379	-1.313206	-0.025793	0.002947	-0.004585
610	3.049669	0.005000	9.287839	0.771201	-1.687320	-0.724026	0.101710	-1.313252	-0.032801	-0.019992	-0.004942
611	3.054669	0.005000	9.260640	0.784800	-1.561764	-0.724247	0.102042	-1.313129	-0.027763	0.000420	-0.008915
612	3.059669	0.005000	9.296431	0.720766	-1.573049	-0.724468	0.102373	-1.313006	-0.034493	-0.006261	-0.011887
613	3.064669	0.005000	9.299007	0.706320	-1.627151	-0.724688	0.102704	-1.312882	-0.032831	-0.007235	-0.001030
614	3.069669	0.005000	9.328020	0.717420	-1.659180	-0.724909	0.103035	-1.312759	-0.033846	-0.006344	-0.000567
615	3.074669	0.005000	9.275298	0.838698	-1.711902	-0.725130	0.103366	-1.312636	-0.033529	-0.009780	0.000418
616	3.079669	0.005000	9.287453	0.799186	-1.738987	-0.725351	0.103697	-1.312513	-0.037670	-0.010582	-0.010789
617	3.084669	0.005000	9.330966	0.735198	-1.637718	-0.725572	0.104028	-1.312389	-0.031920	-0.013519	-0.006334
618	3.089669	0.005000	9.488012	0.721355	-1.703457	-0.725792	0.104360	-1.312266	-0.037596	0.005924	-0.016150
619	3.094669	0.005000	9.445515	0.672743	-1.659405	-0.726013	0.104691	-1.312143	-0.045357	0.001650	-0.025718
620	3.099669	0.005000	9.342796	0.599628	-1.805040	-0.726234	0.105022	-1.312020	-0.041454	-0.009094	-0.019837
621	3.104669	0.005000	9.456840	0.669652	-1.649366	-0.726455	0.105353	-1.311897	-0.047342	-0.015086	-0.027211
622	3.109669	0.005000	9.418702	0.745560	-1.649182	-0.726675	0.105684	-1.311773	-0.047307	-0.024326	-0.023131
623	3.114669	0.005000	9.302927	0.630887	-1.651127	-0.726881	0.105909	-1.311650	-0.045583	-0.025720	-0.035212
624	3.119669	0.005000	9.350047	0.672544	-1.653544	-0.726992	0.105468	-1.311527	-0.052721	-0.033249	-0.038313
625	3.124669	0.005000	9.441289	0.674855	-1.632529	-0.727102	0.105026	-1.311403	-0.061609	-0.032078	-0.027842
626	3.129669	0.005000	9.348934	0.745560	-1.638266	-0.727212	0.104585	-1.311280	-0.051150	-0.035777	-0.052283
627	3.134669	0.005000	9.432384	0.730776	-1.660308	-0.727323	0.104143	-1.311157	-0.053885	-0.054430	-0.042835
628	3.139669	0.005000	9.456840	0.731098	-1.594378	-0.727433	0.103701	-1.311034	-0.065397	-0.047126	-0.055286
629	3.144669	0.005000	9.479506	0.722894	-1.687320	-0.727543	0.103260	-1.310910	-0.063202	-0.051947	-0.057116
630	3.149669	0.005000	9.477095	0.726575	-1.529089	-0.727654	0.102818	-1.310787	-0.062606	-0.058133	-0.069354
631	3.154669	0.005000	9.378360	0.769764	-1.466916	-0.727764	0.102377	-1.310664	-0.059296	-0.062481	-0.081655
632	3.159669	0.005000	9.433501	0.706320	-1.507021	-0.727874	0.101935	-1.310540	-0.065055	-0.083532	-0.072008
633	3.164669	0.005000	9.535320	0.679343	-1.466593	-0.727985	0.101494	-1.310417	-0.080875	-0.082871	-0.090425
634	3.169669	0.005000	9.496080	0.572448	-1.615776	-0.728095	0.101052	-1.310294	-0.070347	-0.093760	-0.094216
635	3.174669	0.005000	9.484250	0.657943	-1.805040	-0.728205	0.100610	-1.310170	-0.070256	-0.080345	-0.097436
636	3.179669	0.005000	9.542430	0.659970	-1.730251	-0.728316	0.100169	-1.310047	-0.069936	-0.063992	-0.118569
637	3.184669	0.005000	9.579337	0.706320	-1.599286	-0.728699	0.098909	-1.310228	-0.058051	-0.052234	-0.131322
638	3.189669	0.005000	9.794482	0.583856	-1.532732	-0.729251	0.097142	-1.310598	-0.024170	-0.052209	-0.153325
639	3.194669	0.005000	10.517591	0.274256	-1.449762	-0.729803	0.095376	-1.310968	-0.001009	-0.026347	-0.186845
640	3.199669	0.005000	10.596790	0.235440	-1.069428	-0.730355	0.093609	-1.311338	0.017235	0.029850	-0.263340
641	3.204669	0.005000	11.227314	0.248465	-0.924394	-0.730907	0.091843	-1.311708	0.068346	0.008848	-0.329200
642	3.209669	0.005000	11.707406	-0.465751	-1.866924	-0.731459	0.090076	-1.312078	0.113980	-0.027400	-0.379704
643	3.214669	0.005000	12.334175	-1.259753	-3.217282	-0.732011	0.088310	-1.312448	0.117593	-0.067633	-0.490778
644	3.219669	0.005000	13.163870	-1.794012	-3.935028	-0.732563	0.086544	-1.312817	0.060415	-0.013113	-0.687465
645	3.224669	0.005000	12.910144	-1.569661	-2.878049	-0.733115	0.084777	-1.313187	-0.005306	-0.016257	-0.833508
646	3.229669	0.005000	12.005572	-1.152535	-1.976575	-0.733667	0.083011	-1.313557	-0.139364	-0.141273	-0.911716
647	3.234669	0.005000	11.321300	-0.391054	-2.001240	-0.734219	0.081244	-1.313927	-0.290854	-0.204208	-1.000492
648	3.239669	0.005000	10.968315	0.233481	-2.020615	-0.734771	0.079478	-1.314297	-0.343840	-0.200309	-1.059075
649	3.244669	0.005000	10.791000	0.527350	-1.922760	-0.735323	0.077711	-1.314667	-0.348414	-0.158636	-1.088199
650	3.249669	0.005000	10.745942	0.510120	-1.844280	-0.736050	0.075803	-1.315024	-0.289566	-0.145189	-1.152323
651	3.254669	0.005000	10.726539	0.419029	-1.831669	-0.738368	0.072602	-1.315271	-0.214396	-0.132139	-1.208850
652	3.259669	0.005000	10.655127	0.381856	-1.857758	-0.740686	0.069400	-1.315517	-0.164142	-0.095869	-1.286991
653	3.264669	0.005000	10.720772	0.369664	-2.065237	-0.743005	0.066199	-1.315764	-0.133322	-0.088022	-1.357485
654	3.269669	0.005000	10.785154	0.476726	-2.091412	-0.745323	0.062997	-1.316010	-0.143681	-0.061985	-1.427806
655	3.274669	0.005000	10.822525	0.592457	-2.126675	-0.747642	0.059795	-1.316257	-0.171067	-0.064445	-1.489852
656	3.279669	0.005000	10.745820	0.703350	-2.073780	-0.749960	0.056594	-1.316504	-0.204822	-0.059943	-1.520999
657	3.284669	0.005000	10.671465	0.589508	-1.769431	-0.752278	0.053392	-1.316750	-0.228436	-0.052686	-1.554587
658	3.289669	0.005000	10.746036	0.742698	-1.838556	-0.754597	0.050191	-1.316997	-0.236121	-0.071824	-1.584111
659	3.294669	0.005000	10.615867	0.706320	-1.844280	-0.756915	0.046989	-1.317243	-0.224169	-0.110894	-1.635478
660	3.299669	0.005000	10.587589	0.755956	-1.979607	-0.759234	0.043787	-1.317490	-0.218958	-0.109473	-1.687516
661	3.304669	0.005000	10.388239	0.912881	-2.099707	-0.761552	0.040586	-1.317736	-0.231923	-0.108158	-1.724547
662	3.309669	0.005000	10.135954	0.981000	-2.291092	-0.763870	0.037384	-1.317983	-0.237811	-0.111310	-1.766211
663	3.314669	0.005000	9.851935	1.020240	-2.317855	-0.766189	0.034183	-1.318229	-0.252273	-0.111674	-1.792540
664	3.319669	0.005000	9.528862	1.105178	-2.635538	-0.766972	0.030981	-1.319619	-0.262338	-0.079246	-1.845853
665	3.324669	0.005000	9.337032	1.414728	-2.686896	-0.766641	0.027779	-1.321838	-0.272188	-0.064133	-1.898205
666	3.329669	0.005000	9.011206	1.449629	-2.825280	-0.766310	0.024578	-1.324057	-0.258014	-0.031945	-1.919502
667	3.334669	0.005000	8.819986	1.878393	-2.944944	-0.765979	0.021376	-1.326276	-0.260845	0.008960	-1.911167
668	3.339669	0.005000	8.536996	2.026339	-3.153341	-0.765648	0.018174	-1.328495	-0.269065	0.061610	-1.914932
669	3.344669	0.005000	8.177705	1.930430	-3.088232	-0.765316	0.014973	-1.330714	-0.274847	0.124802	-1.926196
670	3.349669	0.005000	8.043625	2.089386	-3.021480	-0.764985	0.011771	-1.332933	-0.288029	0.171853	-1.863686
671	3.354669	0.005000	8.426878	2.018341	-2.913482	-0.764654	0.008570	-1.335152	-0.287842	0.235587	-1.797105
672	3.359669	0.005000	8.913005	1.809463	-2.648425	-0.764323	0.005368	-1.337371	-0.287766	0.267922	-1.682695
673	3.364669	0.005000	9.579674	1.193429	-2.346730	-0.763992	0.002166	-1.339590	-0.299960	0.277513	-1.564994
674	3.369669	0.005000	9.694117	0.625390	-2.039868	-0.763661	-0.001035	-1.341809	-0.336875	0.246213	-1.490781
675	3.374669	0.005000	9.734183	0.281337	-1.925423	-0.763329	-0.004237	-1.344028	-0.386428	0.142037	-1.437525
676	3.379669	0.005000	9.432543	0.306449	-2.001240	-0.762998	-0.007438	-1.346247	-0.445930	0.051895	-1.404600
677	3.384669	0.005000	9.115040	0.476560	-2.213960	-0.762780	-0.010501	-1.348377	-0.492880	-0.041160	-1.357364
678	3.389669	0.005000	9.134824	0.650888	-2.315160	-0.764325	-0.011384	-1.349117	-0.547273	-0.102727	-1.284643
679	3.394669	0.005000	8.985960	0.755937	-2.286297	-0.765871	-0.012267	-1.349857	-0.588993	-0.167903	-1.191143
680	3.399669	0.005000	8.853894	0.731214	-2.038582	-0.767416	-0.013151	-1.350596	-0.612620	-0.219794	-1.080806
681	3.404669	0.005000	8.795101	1.033937	-1.971519	-0.768962	-0.014034	-1.351336	-0.635548	-0.287872	-0.990746
682	3.409669	0.005000	8.487012	1.743548	-2.219968	-0.770508	-0.014917	-1.352076	-0.646164	-0.384053	-0.881694
683	3.414669	0.005000	8.277206	2.356834	-2.472120	-0.772053	-0.015800	-1.352816	-0.644065	-0.443515	-0.721507
684	3.419669	0.005000	7.890750	2.661301	-2.468610	-0.773599	-0.016683	-1.353555	-0.646562	-0.460163	-0.502843
685	3.424669	0.005000	7.722487	2.754685	-2.534922	-0.775144	-0.017566	-1.354295	-0.623973	-0.461034	-0.258463
686	3.429669	0.005000	7.455600	2.773338	-2.446149	-0.776690	-0.018450	-1.355035	-0.600390	-0.473552	-0.032399
687	3.434669	0.005000	7.359734	2.864520	-2.500035	-0.778236	-0.019333	-1.355774	-0.569642	-0.466857	0.214488
688	3.439669	0.005000	7.355701	2.837788	-2.472120	-0.779781	-0.020216	-1.356514	-0.510439	-0.431968	0.441702
689	3.444669	0.005000	7.462483	2.647671	-2.432880	-0.781327	-0.021099	-1.357254	-0.455150	-0.405869	0.651002
690	3.449669	0.005000	7.416360	2.506799	-2.449317	-0.782872	-0.021982	-1.357993	-0.374363	-0.359985	0.843124
691	3.454669	0.005000	7.534080	2.350113	-2.269490	-0.785672	-0.021672	-1.357200	-0.309116	-0.324480	0.995248
692	3.459669	0.005000	7.534473	2.197047	-2.196653	-0.789536	-0.020347	-1.355104	-0.230790	-0.305900	1.144107
693	3.464669	0.005000	7.760701	2.044889	-2.003445	-0.793400	-0.019022	-1.353008	-0.164503	-0.268983	1.253579
694	3.469669	0.005000	7.769520	1.895967	-1.875222	-0.797264	-0.017697	-1.350912	-0.093498	-0.277928	1.321472
695	3.474669	0.005000	8.017938	1.772366	-1.778931	-0.801128	-0.016373	-1.348817	-0.024412	-0.259250	1.378381
696	3.479669	0.005000	8.213806	1.796175	-1.478474	-0.804992	-0.015048	-1.346721	0.059459	-0.262947	1.406784
697	3.484669	0.005000	8.229484	1.737476	-1.484628	-0.808856	-0.013723	-1.344625	0.139763	-0.269402	1.423099
698	3.489669	0.005000	8.357370	1.674740	-1.386730	-0.812720	-0.012398	-1.342530	0.213794	-0.291304	1.409314
699	3.494669	0.005000	8.421326	1.545634	-1.279646	-0.816584	-0.011073	-1.340434	0.298420	-0.314667	1.401830
700	3.499669	0.005000	8.575884	1.551924	-1.151749	-0.820448	-0.009749	-1.338338	0.358989	-0.322393	1.360983
701	3.504669	0.005000	8.593560	1.471500	-1.098720	-0.824312	-0.008424	-1.336242	0.413872	-0.351556	1.313326
702	3.509669	0.005000	8.515080	1.429849	-1.115929	-0.828176	-0.007099	-1.334147	0.472572	-0.377940	1.276212
703	3.514669	0.005000	8.548314	1.506202	-1.171194	-0.832040	-0.005774	-1.332051	0.522080	-0.391657	1.217744
704	3.519669	0.005000	8.423744	1.464736	-1.137960	-0.835871	-0.004438	-1.330000	0.576316	-0.403423	1.175125
705	3.524669	0.005000	8.336549	1.580386	-1.166414	-0.838189	-0.002561	-1.330000	0.619457	-0.400087	1.118160
706	3.529669	0.005000	8.310383	1.578097	-1.177200	-0.840507	-0.000684	-1.330000	0.644684	-0.400026	1.076494
707	3.534669	0.005000	8.273549	1.602749	-1.222531	-0.842826	0.001193	-1.330000	0.663341	-0.378669	1.035918
708	3.539669	0.005000	8.244499	1.546758	-1.255680	-0.845144	0.003070	-1.330000	0.682455	-0.369656	0.975042
709	3.544669	0.005000	8.240400	1.574790	-1.253950	-0.847463	0.004947	-1.330000	0.700069	-0.354908	0.950450
710	3.549669	0.005000	8.278974	1.764469	-1.332163	-0.849781	0.006823	-1.330000	0.719947	-0.322115	0.917979
711	3.554669	0.005000	8.355502	1.692556	-1.148432	-0.852099	0.008700	-1.330000	0.725427	-0.300817	0.890220
712	3.559669	0.005000	8.392383	1.765800	-0.966644	-0.854418	0.010577	-1.330000	0.722529	-0.245715	0.852644
713	3.564669	0.005000	8.383403	1.726560	-0.974021	-0.856736	0.012454	-1.330000	0.722664	-0.226447	0.829337
714	3.569669	0.005000	8.466455	1.657465	-0.872665	-0.859055	0.014331	-1.330000	0.704633	-0.203292	0.800719
715	3.574669	0.005000	8.598825	1.687320	-0.863280	-0.861373	0.016208	-1.330000	0.692417	-0.177437	0.766931
716	3.579669	0.005000	8.672040	1.763840	-0.849547	-0.863691	0.018085	-1.330000	0.683828	-0.150174	0.755722
717	3.584669	0.005000	8.852281	1.890842	-0.761519	-0.866010	0.019962	-1.330000	0.660945	-0.138270	0.725848
718	3.589669	0.005000	8.931691	2.022390	-0.745560	-0.868384	0.021783	-1.329938	0.654718	-0.127228	0.710498
719	3.594669	0.005000	9.142920	2.117199	-0.609100	-0.870813	0.023549	-1.329815	0.628438	-0.093855	0.702007
720	3.599669	0.005000	9.165565	2.158200	-0.526715	-0.873241	0.025316	-1.329691	0.613140	-0.094341	0.679008
721	3.604669	0.005000	9.089294	2.186972	-0.613454	-0.875670	0.027082	-1.329568	0.595297	-0.078649	0.675541
722	3.609669	0.005000	9.130947	2.287893	-0.549360	-0.878099	0.028848	-1.329445	0.574647	-0.055379	0.653570
723	3.614669	0.005000	9.093772	2.364308	-0.558875	-0.880528	0.030615	-1.329322	0.568318	-0.037131	0.658453
724	3.619669	0.005000	8.946720	2.581086	-0.494877	-0.882957	0.032381	-1.329198	0.543325	-0.010217	0.652042
725	3.624669	0.005000	8.917891	2.707560	-0.465675	-0.885385	0.034148	-1.329075	0.519509	0.017173	0.637552
726	3.629669	0.005000	8.949981	2.707560	-0.474141	-0.887814	0.035914	-1.328952	0.504417	0.035194	0.641378
727	3.634669	0.005000	8.942435	2.745943	-0.549360	-0.890243	0.037680	-1.328828	0.497004	0.065665	0.636776
728	3.639669	0.005000	8.788673	2.745713	-0.587513	-0.892672	0.039447	-1.328705	0.479295	0.095774	0.632416
729	3.644669	0.005000	8.678938	2.639427	-0.660182	-0.895101	0.041213	-1.328582	0.454039	0.141333	0.620394
730	3.649669	0.005000	8.672040	2.707560	-0.583165	-0.897529	0.042979	-1.328458	0.446024	0.155622	0.624078
731	3.654669	0.005000	8.711280	2.723262	-0.580749	-0.899958	0.044746	-1.328335	0.407577	0.187318	0.617323
732	3.659669	0.005000	8.730869	2.727149	-0.549360	-0.901519	0.044342	-1.328818	0.403710	0.216765	0.604402
733	3.664669	0.005000	8.657204	2.734598	-0.537158	-0.903065	0.043900	-1.329311	0.377991	0.236444	0.589135
734	3.669669	0.005000	8.696834	2.761246	-0.499773	-0.904610	0.043459	-1.329804	0.355861	0.269030	0.554718
735	3.674669	0.005000	8.845559	2.684879	-0.477002	-0.906156	0.043017	-1.330297	0.334148	0.294793	0.521093
736	3.679669	0.005000	8.927977	2.548845	-0.489623	-0.907702	0.042576	-1.330790	0.307919	0.311510	0.504211
737	3.684669	0.005000	8.946720	2.532274	-0.507533	-0.909247	0.042134	-1.331283	0.292727	0.327498	0.453697
738	3.689669	0.005000	9.026302	2.566516	-0.533444	-0.910793	0.041692	-1.331777	0.268734	0.337374	0.423215
739	3.694669	0.005000	9.089869	2.534595	-0.484691	-0.912339	0.041251	-1.332270	0.238912	0.367510	0.380391
740	3.699669	0.005000	9.048318	2.444439	-0.510120	-0.913884	0.040809	-1.332763	0.228674	0.367114	0.324284
741	3.704669	0.005000	9.025200	2.481620	-0.579100	-0.915430	0.040368	-1.333256	0.213730	0.381242	0.266678
742	3.709669	0.005000	9.078862	2.415273	-0.635051	-0.916976	0.039926	-1.333749	0.201118	0.384091	0.211138
743	3.714669	0.005000	9.094069	2.428074	-0.583794	-0.918521	0.039484	-1.334242	0.169551	0.410691	0.155784
744	3.719669	0.005000	8.985960	2.323646	-0.639155	-0.920067	0.039043	-1.334735	0.162490	0.424500	0.082546
745	3.724669	0.005000	9.024756	2.275476	-0.745116	-0.920896	0.039829	-1.335628	0.136062	0.442699	0.034610
746	3.729669	0.005000	9.023700	2.312160	-0.744060	-0.920896	0.042036	-1.336984	0.120035	0.459368	-0.025435
747	3.734669	0.005000	8.950624	2.244488	-0.741656	-0.920896	0.044243	-1.338339	0.120627	0.473470	-0.072007
748	3.739669	0.005000	8.940472	2.209935	-0.667080	-0.920896	0.046450	-1.339695	0.093351	0.507480	-0.133734
749	3.744669	0.005000	8.915744	2.259391	-0.706320	-0.920896	0.048657	-1.341050	0.086013	0.518073	-0.194741
750	3.749669	0.005000	8.928822	2.286591	-0.734889	-0.920896	0.050864	-1.342406	0.058615	0.536042	-0.235525
751	3.754669	0.005000	8.920414	2.171572	-0.745560	-0.920896	0.053071	-1.343761	0.042032	0.555876	-0.291511
752	3.759669	0.005000	8.985960	2.206623	-0.778954	-0.920896	0.055278	-1.345117	0.033512	0.557632	-0.324192
753	3.764669	0.005000	9.020420	2.253910	-0.824040	-0.920896	0.057485	-1.346472	0.010208	0.581719	-0.365949
754	3.769669	0.005000	9.084297	2.178057	-0.764943	-0.920896	0.059692	-1.347827	-0.003540	0.586020	-0.391066
755	3.774669	0.005000	9.121379	2.222823	-0.780958	-0.920896	0.061900	-1.349183	-0.034141	0.589460	-0.410523
756	3.779669	0.005000	9.127411	2.158200	-0.824040	-0.920896	0.064107	-1.350538	-0.051762	0.586047	-0.442266
757	3.784669	0.005000	9.064440	2.210479	-0.837140	-0.920896	0.066314	-1.351894	-0.073786	0.576944	-0.446127
758	3.789669	0.005000	9.193188	2.158200	-0.930732	-0.920896	0.068521	-1.353249	-0.111659	0.575381	-0.457692
759	3.794669	0.005000	9.234414	2.110218	-0.893778	-0.921414	0.068864	-1.355763	-0.134095	0.532554	-0.455125
760	3.799669	0.005000	9.117113	2.184007	-0.974284	-0.921966	0.069085	-1.358353	-0.146624	0.563588	-0.441526
761	3.804669	0.005000	9.168983	2.084112	-1.024632	-0.922518	0.069306	-1.360943	-0.171612	0.530090	-0.431336
762	3.809669	0.005000	9.027175	2.044430	-1.134010	-0.923071	0.069527	-1.363533	-0.187668	0.518708	-0.393237
763	3.814669	0.005000	9.064501	2.158200	-1.059480	-0.923623	0.069748	-1.366123	-0.207061	0.505867	-0.379724
764	3.819669	0.005000	9.032319	2.121333	-1.170081	-0.924175	0.069969	-1.368713	-0.225107	0.481293	-0.334914
765	3.824669	0.005000	8.916950	2.187970	-1.315221	-0.924727	0.070190	-1.371303	-0.255350	0.482838	-0.305264
766	3.829669	0.005000	8.803228	2.158200	-1.327426	-0.925279	0.070411	-1.373893	-0.274849	0.466519	-0.270250
767	3.834669	0.005000	8.702140	2.028661	-1.472840	-0.925832	0.070631	-1.376483	-0.284014	0.457450	-0.223969
768	3.839669	0.005000	8.672040	2.040480	-1.462965	-0.926384	0.070852	-1.379074	-0.303251	0.458269	-0.196502
769	3.844669	0.005000	8.658542	1.727815	-1.478877	-0.926936	0.071073	-1.381664	-0.303784	0.452305	-0.150510
770	3.849669	0.005000	8.844611	1.601034	-1.553883	-0.927488	0.071294	-1.384254	-0.335606	0.447785	-0.138874
771	3.854669	0.005000	9.028751	1.469725	-1.512515	-0.928040	0.071515	-1.386844	-0.357315	0.425205	-0.095299
772	3.859669	0.005000	9.064440	1.491120	-1.509560	-0.928264	0.072299	-1.389171	-0.387385	0.409821	-0.070207
773	3.864669	0.005000	9.042240	1.547400	-1.709520	-0.928043	0.073844	-1.391144	-0.408591	0.382431	-0.043908
774	3.869669	0.005000	9.089049	1.501098	-1.569600	-0.927823	0.075390	-1.393116	-0.428194	0.350155	-0.015802
775	3.874669	0.005000	8.971801	1.542900	-1.583759	-0.927602	0.076936	-1.395089	-0.459584	0.328428	0.002316
776	3.879669	0.005000	8.897207	1.540633	-1.451880	-0.927381	0.078481	-1.397061	-0.484163	0.294586	0.029345
777	3.884669	0.005000	8.923938	1.600611	-1.348712	-0.927160	0.080027	-1.399034	-0.487106	0.270437	0.047274
778	3.889669	0.005000	8.777915	1.654003	-1.430408	-0.926939	0.081572	-1.401006	-0.497521	0.228912	0.068001
779	3.894669	0.005000	8.629294	1.648080	-1.448374	-0.926719	0.083118	-1.402979	-0.503091	0.209006	0.095407
780	3.899669	0.005000	8.549691	1.688863	-1.492663	-0.926498	0.084664	-1.404952	-0.513242	0.179438	0.107310
781	3.904669	0.005000	8.398202	1.764958	-1.491962	-0.926277	0.086209	-1.406924	-0.506176	0.176087	0.142151
782	3.909669	0.005000	8.289306	1.880298	-1.415862	-0.926056	0.087755	-1.408897	-0.496059	0.179221	0.153003
783	3.914669	0.005000	8.240400	1.815447	-1.271290	-0.925835	0.089300	-1.410869	-0.479168	0.166914	0.165787
784	3.919669	0.005000	8.184475	1.836762	-1.255680	-0.925615	0.090846	-1.412842	-0.451580	0.186216	0.195836
785	3.924669	0.005000	8.132230	1.902620	-1.294920	-0.925394	0.092391	-1.414814	-0.439930	0.199752	0.209922
786	3.929669	0.005000	8.052789	1.883520	-1.204483	-0.925573	0.094837	-1.416787	-0.411614	0.200283	0.230507
787	3.934669	0.005000	8.040827	2.015444	-1.155538	-0.925794	0.097376	-1.418759	-0.376502	0.230296	0.255368
788	3.939669	0.005000	7.982034	2.096034	-1.121646	-0.926015	0.099916	-1.420732	-0.349936	0.239490	0.277166
789	3.944669	0.005000	8.045991	2.159991	-1.158476	-0.926235	0.102455	-1.422704	-0.325653	0.269518	0.299824
790	3.949669	0.005000	8.060008	2.139851	-1.161392	-0.926456	0.104994	-1.424677	-0.298941	0.275907	0.313021
791	3.954669	0.005000	8.161920	2.102799	-1.114881	-0.926677	0.107533	-1.426649	-0.273490	0.292732	0.343972
792	3.959669	0.005000	8.069691	2.079720	-1.163451	-0.926898	0.110072	-1.428622	-0.242757	0.311793	0.370661
793	3.964669	0.005000	8.138594	2.091383	-1.165537	-0.927119	0.112612	-1.430594	-0.215003	0.324212	0.398638
794	3.969669	0.005000	8.092837	2.040480	-1.207043	-0.927339	0.115151	-1.432567	-0.199531	0.333295	0.423778
795	3.974669	0.005000	8.129661	2.079720	-1.177200	-0.927560	0.117690	-1.434539	-0.184833	0.333323	0.456782
796	3.979669	0.005000	8.201160	2.089794	-1.108794	-0.927781	0.120229	-1.436512	-0.165683	0.361321	0.483220
797	3.984669	0.005000	8.161920	2.111063	-1.258312	-0.928002	0.122769	-1.438484	-0.159821	0.362650	0.508628
798	3.989669	0.005000	8.278279	2.003282	-1.254999	-0.928223	0.125308	-1.440457	-0.143574	0.376517	0.541431
799	3.994669	0.005000	8.276211	2.081435	-1.216440	-0.927974	0.128188	-1.442429	-0.135088	0.378823	0.564443
800	3.999669	0.005000	8.314796	2.001240	-1.142044	-0.926981	0.131609	-1.444400	-0.143160	0.382455	0.609297
801	4.004669	0.005000	8.261413	2.040480	-1.110872	-0.925988	0.135029	-1.446372	-0.160597	0.399991	0.633419
802	4.009669	0.005000	8.388878	1.992758	-0.997964	-0.924995	0.138450	-1.448343	-0.149404	0.406321	0.660157
803	4.014669	0.005000	8.436600	1.933186	-1.001852	-0.924002	0.141871	-1.450315	-0.169099	0.403060	0.696790
804	4.019669	0.005000	8.488680	2.001240	-1.059480	-0.923008	0.145292	-1.452287	-0.189062	0.407895	0.706577
805	4.024669	0.005000	8.602667	2.049587	-1.225547	-0.922015	0.148713	-1.454258	-0.197681	0.398724	0.743593
806	4.029669	0.005000	8.598413	2.084573	-1.233633	-0.921022	0.152134	-1.456230	-0.216354	0.408504	0.760625
807	4.034669	0.005000	8.652405	2.079720	-1.118355	-0.920029	0.155554	-1.458201	-0.237848	0.400103	0.783629
808	4.039669	0.005000	8.728767	2.118960	-1.076967	-0.919036	0.158975	-1.460173	-0.265100	0.420334	0.806977
809	4.044669	0.005000	8.805040	2.166881	-1.168519	-0.918043	0.162396	-1.462144	-0.280387	0.411052	0.811146
810	4.049669	0.005000	8.803223	2.145312	-1.268568	-0.917049	0.165817	-1.464116	-0.311639	0.423646	0.849731
811	4.054669	0.005000	8.935793	2.186513	-1.199054	-0.916056	0.169238	-1.466087	-0.339298	0.435298	0.853369
812	4.059669	0.005000	8.885265	2.236680	-1.163497	-0.915063	0.172659	-1.468059	-0.363521	0.437370	0.871763
813	4.064669	0.005000	8.940152	2.413344	-1.294920	-0.915020	0.175701	-1.466847	-0.388821	0.439528	0.882048
814	4.069669	0.005000	9.112009	2.428716	-1.303249	-0.915131	0.178681	-1.465121	-0.418189	0.450127	0.879903
815	4.074669	0.005000	9.142920	2.432880	-1.409120	-0.915241	0.181662	-1.463395	-0.446966	0.448779	0.889453
816	4.079669	0.005000	9.260089	2.510993	-1.334160	-0.915351	0.184643	-1.461669	-0.479494	0.450909	0.887323
817	4.084669	0.005000	9.299880	2.511360	-1.334160	-0.915462	0.187624	-1.459943	-0.506081	0.444137	0.884858
818	4.089669	0.005000	9.304425	2.707560	-1.343251	-0.915572	0.190605	-1.458217	-0.550143	0.444640	0.872102
819	4.094669	0.005000	9.299880	2.772138	-1.366449	-0.915683	0.193586	-1.456491	-0.567958	0.439584	0.867653
820	4.099669	0.005000	9.279156	2.894502	-1.620306	-0.915793	0.196567	-1.454766	-0.601667	0.445482	0.853030
821	4.104669	0.005000	9.428910	2.998860	-1.821660	-0.915904	0.199548	-1.453040	-0.645274	0.434349	0.835688
822	4.109669	0.005000	9.417600	3.125482	-1.856084	-0.916014	0.202528	-1.451314	-0.670234	0.430373	0.824422
823	4.114669	0.005000	9.371008	3.310864	-1.867576	-0.916124	0.205509	-1.449588	-0.697319	0.435769	0.802100
824	4.119669	0.005000	9.459931	3.513526	-1.983166	-0.916235	0.208490	-1.447862	-0.710673	0.419971	0.779481
825	4.124669	0.005000	9.515080	3.686079	-2.040480	-0.916345	0.211471	-1.446136	-0.736578	0.425509	0.754364
826	4.129669	0.005000	9.552131	3.800661	-2.001240	-0.915927	0.214415	-1.446096	-0.750788	0.427436	0.734679
827	4.134669	0.005000	9.471241	4.031283	-2.083684	-0.914491	0.217286	-1.449303	-0.756491	0.406404	0.705230
828	4.139669	0.005000	9.378360	4.287174	-2.143587	-0.913056	0.220158	-1.452509	-0.760103	0.388155	0.675701
829	4.144669	0.005000	9.436730	4.601135	-2.099830	-0.911620	0.223030	-1.455716	-0.742296	0.366098	0.653566
830	4.149669	0.005000	9.331480	4.834160	-2.244320	-0.910184	0.225901	-1.458923	-0.725713	0.356565	0.610942
831	4.154669	0.005000	9.311135	5.033975	-2.309533	-0.908748	0.228773	-1.462130	-0.694000	0.329467	0.586253
832	4.159669	0.005000	9.378360	5.225501	-2.279210	-0.907312	0.231645	-1.465336	-0.664108	0.315834	0.542421
833	4.164669	0.005000	9.418473	5.301763	-2.195695	-0.905876	0.234517	-1.468543	-0.607346	0.278291	0.490107
834	4.169669	0.005000	9.342334	5.608106	-2.080791	-0.904440	0.237388	-1.471750	-0.559190	0.227715	0.437961
835	4.174669	0.005000	9.378360	5.868623	-1.962000	-0.903005	0.240260	-1.474957	-0.503208	0.182183	0.367628
836	4.179669	0.005000	9.423424	5.896120	-2.028832	-0.901569	0.243132	-1.478163	-0.445076	0.118175	0.316071
837	4.184669	0.005000	9.159318	5.894199	-1.947357	-0.900133	0.246003	-1.481370	-0.377122	0.062837	0.213881
838	4.189669	0.005000	8.811975	6.012232	-1.933003	-0.898697	0.248875	-1.484577	-0.300261	-0.004752	0.111492
839	4.194669	0.005000	8.538391	5.964480	-2.133180	-0.897261	0.251747	-1.487783	-0.234498	-0.054370	0.023551
840	4.199669	0.005000	8.269600	6.032920	-2.104360	-0.898296	0.251324	-1.485371	-0.157215	-0.108119	-0.096851
841	4.204669	0.005000	18.679924	3.783376	-3.671382	-0.899841	0.250220	-1.481796	-0.057820	-0.206173	-0.190878
842	4.209669	0.005000	25.419049	-2.767418	-2.539300	-0.901387	0.249116	-1.478221	0.220132	-0.683882	-0.063369
843	4.214669	0.005000	19.936324	-6.262539	1.703243	-0.902932	0.248012	-1.474645	0.052562	-1.138302	-0.213686
844	4.219669	0.005000	13.324061	-7.732514	2.762273	-0.904478	0.246908	-1.471070	-0.376660	-1.601673	-0.844112
845	4.224669	0.005000	7.496309	-6.009168	1.112310	-0.906023	0.245804	-1.467495	-0.942226	-2.036579	-1.111026
846	4.229669	0.005000	3.829184	-4.609437	-1.135939	-0.907569	0.244700	-1.463920	-1.250652	-2.093956	-0.976889
847	4.234669	0.005000	10.272348	-1.895425	-3.655386	-0.909115	0.243596	-1.460345	-1.275967	-1.764322	-0.705203
848	4.239669	0.005000	16.561974	-1.258312	-0.736163	-0.910660	0.242492	-1.456770	-0.770200	-1.576209	-0.194073
849	4.244669	0.005000	17.179541	-5.912639	3.854218	-0.912206	0.241388	-1.453195	-0.320135	-0.850663	0.392176
850	4.249669	0.005000	13.583409	-8.035366	6.404893	-0.913751	0.240284	-1.449620	-0.205164	-0.710314	0.056951
851	4.254669	0.005000	12.164400	-5.297400	2.550600	-0.915297	0.239180	-1.446045	-0.273686	-1.643659	-0.747937
852	4.259669	0.005000	9.312786	0.024741	-2.777374	-0.916842	0.238076	-1.442470	-0.370976	-2.421731	-1.205022
853	4.264669	0.005000	6.069207	5.820452	-3.862951	-0.917978	0.237347	-1.439657	-0.431591	-2.223753	-1.091823
854	4.269669	0.005000	4.389949	12.101259	-3.936495	-0.918199	0.237458	-1.438547	-0.571421	-1.581465	-0.777538
855	4.274669	0.005000	5.877518	10.703043	-5.236496	-0.918420	0.237568	-1.437438	-0.400116	-1.177306	-0.306835
856	4.279669	0.005000	7.428680	2.435650	-5.414523	-0.918641	0.237678	-1.436328	0.155168	-0.907646	0.221283
857	4.284669	0.005000	9.174264	-2.863854	-4.047862	-0.918862	0.237789	-1.435219	0.519625	-0.477650	0.301089
858	4.289669	0.005000	10.958489	-2.384702	-2.170321	-0.919083	0.237899	-1.434109	0.604689	-0.121811	-0.108508
859	4.294669	0.005000	10.695143	0.732608	-1.726560	-0.919304	0.238010	-1.433000	0.493002	-0.219785	-0.493083
860	4.299669	0.005000	9.231929	3.211538	-2.777266	-0.919524	0.238120	-1.431890	0.289803	-0.499266	-0.432785
861	4.304669	0.005000	7.834930	2.613408	-4.049556	-0.919745	0.238231	-1.430781	0.119820	-0.439258	-0.150091
862	4.309669	0.005000	8.184579	0.752082	-4.640379	-0.919966	0.238341	-1.429671	-0.002620	-0.206937	0.028265
863	4.314669	0.005000	8.854292	0.182252	-3.958402	-0.920187	0.238452	-1.428562	-0.044689	-0.034981	0.009941
864	4.319669	0.005000	8.730043	0.670508	-2.722895	-0.920408	0.238562	-1.427452	-0.039600	0.052241	-0.078006
865	4.324669	0.005000	8.766918	1.232838	-2.148246	-0.920629	0.238672	-1.426343	-0.042153	0.096855	-0.063799
866	4.329669	0.005000	8.925117	1.069324	-1.973758	-0.920850	0.238783	-1.425233	-0.053542	0.136208	-0.019467
867	4.334669	0.005000	9.135972	0.670554	-2.369322	-0.920896	0.238806	-1.425292	-0.019996	0.140102	0.002142
868	4.339669	0.005000	9.028261	0.591661	-2.038950	-0.920896	0.238806	-1.425662	-0.014235	0.182485	-0.001326
869	4.344669	0.005000	9.180405	0.667080	-1.847790	-0.920896	0.238806	-1.426032	-0.013049	0.219309	-0.020888
870	4.349669	0.005000	9.333457	0.748391	-1.645249	-0.920896	0.238806	-1.426402	-0.028747	0.218639	-0.010959
871	4.354669	0.005000	9.485608	0.648784	-1.321100	-0.920896	0.238806	-1.426772	-0.055838	0.222207	-0.002849
872	4.359669	0.005000	9.505126	0.579554	-0.893474	-0.920896	0.238806	-1.427142	-0.089425	0.193542	0.012947
873	4.364669	0.005000	9.663527	0.658399	-0.567625	-0.920896	0.238806	-1.427512	-0.099815	0.166250	0.025043
874	4.369669	0.005000	9.641041	0.721563	-0.385911	-0.920896	0.238806	-1.427882	-0.101073	0.106924	0.021222
875	4.374669	0.005000	9.706515	0.742096	-0.274680	-0.920896	0.238806	-1.428252	-0.083406	0.055611	0.015718
876	4.379669	0.005000	9.715169	0.840391	-0.297569	-0.920896	0.238806	-1.428622	-0.059138	-0.005261	-0.004792
877	4.384669	0.005000	9.673517	0.824040	-0.472594	-0.920896	0.238806	-1.428992	-0.024781	-0.044071	0.007722
878	4.389669	0.005000	9.712987	0.706320	-0.526480	-0.920896	0.238806	-1.429362	-0.012217	-0.078417	0.009537
879	4.394669	0.005000	9.620797	0.683202	-0.556357	-0.920896	0.238806	-1.429732	-0.007086	-0.132852	0.016127
880	4.399669	0.005000	9.549033	0.708218	-0.616025	-0.920957	0.238775	-1.429898	-0.017845	-0.183571	0.014520
881	4.404669	0.005000	9.512054	0.745560	-0.773167	-0.921178	0.238665	-1.429528	-0.020836	-0.215408	0.005910
882	4.409669	0.005000	9.397069	0.685789	-1.048304	-0.921399	0.238555	-1.429158	-0.014615	-0.243959	0.012328
883	4.414669	0.005000	9.307202	0.792122	-1.299609	-0.921620	0.238444	-1.428788	-0.001377	-0.263220	0.002915
884	4.419669	0.005000	9.167147	0.848267	-1.555382	-0.921840	0.238334	-1.428418	0.012801	-0.265832	0.005194
885	4.424669	0.005000	9.061853	0.742973	-1.959413	-0.922061	0.238223	-1.428048	0.013387	-0.237184	0.019173
886	4.429669	0.005000	8.949322	0.628490	-2.084924	-0.922282	0.238113	-1.427679	0.014236	-0.220569	0.022648
887	4.434669	0.005000	9.178640	0.667080	-2.393640	-0.922503	0.238002	-1.427309	-0.003990	-0.187741	0.039286
888	4.439669	0.005000	9.103680	0.793029	-2.432880	-0.922723	0.237892	-1.426939	-0.011546	-0.140666	0.030889
889	4.444669	0.005000	9.287662	0.932130	-2.302942	-0.922944	0.237782	-1.426569	-0.020085	-0.096401	0.031406
890	4.449669	0.005000	9.347644	0.754084	-2.118960	-0.923165	0.237671	-1.426199	-0.047667	-0.039334	0.031623
891	4.454669	0.005000	9.378360	0.745560	-2.033642	-0.923386	0.237561	-1.425829	-0.041279	-0.007886	0.027964
892	4.459669	0.005000	9.391236	0.600863	-1.962612	-0.923607	0.237450	-1.425459	-0.037268	0.033580	0.026271
893	4.464669	0.005000	9.496080	0.627840	-1.811136	-0.923827	0.237340	-1.425090	-0.029578	0.053764	0.014314
894	4.469669	0.005000	9.435087	0.531873	-1.809306	-0.923714	0.237480	-1.424907	-0.022369	0.079918	0.008228
895	4.474669	0.005000	9.417554	0.549360	-1.726606	-0.923493	0.237701	-1.424783	-0.014377	0.104481	-0.010063
896	4.479669	0.005000	9.491723	0.510120	-1.556515	-0.923272	0.237922	-1.424660	-0.012385	0.111341	-0.006556
897	4.484669	0.005000	9.480837	0.549360	-1.406151	-0.923051	0.238143	-1.424537	-0.014646	0.140590	-0.016505
898	4.489669	0.005000	9.535320	0.562190	-1.216440	-0.922831	0.238364	-1.424413	-0.024061	0.131519	-0.026466
899	4.494669	0.005000	9.546206	0.521006	-1.266566	-0.922610	0.238585	-1.424290	-0.033509	0.107725	-0.031128
900	4.499669	0.005000	9.496080	0.510120	-1.233404	-0.922389	0.238806	-1.424167	-0.036006	0.120676	-0.045095
901	4.504669	0.005000	9.378360	0.627840	-1.314782	-0.922168	0.239026	-1.424043	-0.018407	0.112728	-0.054159
902	4.509669	0.005000	9.456840	0.671212	-1.071876	-0.921947	0.239247	-1.423920	-0.007643	0.118041	-0.069598
903	4.514669	0.005000	9.419315	0.704605	-1.175485	-0.921727	0.239468	-1.423797	-0.005390	0.104777	-0.063746
904	4.519669	0.005000	9.534861	0.667080	-1.137960	-0.921506	0.239689	-1.423674	-0.003296	0.095844	-0.058016
905	4.524669	0.005000	9.532687	0.625207	-1.051580	-0.921285	0.239910	-1.423550	-0.006078	0.088652	-0.076907
906	4.529669	0.005000	9.501072	0.769824	-1.142952	-0.921064	0.240131	-1.423427	-0.010917	0.062500	-0.067894
907	4.534669	0.005000	9.346114	0.688062	-1.223434	-0.920922	0.240194	-1.423392	-0.000520	0.055769	-0.073318
908	4.539669	0.005000	9.380448	0.756936	-1.119384	-0.921033	0.239752	-1.423638	0.001710	0.029112	-0.071731
909	4.544669	0.005000	9.433484	0.796478	-1.031918	-0.921143	0.239310	-1.423885	0.006312	0.028575	-0.059627
910	4.549669	0.005000	9.445117	0.798558	-1.071203	-0.921253	0.238869	-1.424132	0.008072	0.015241	-0.065251
911	4.554669	0.005000	9.276614	0.736877	-1.216440	-0.921364	0.238427	-1.424378	0.000613	0.008884	-0.060158
912	4.559669	0.005000	9.299880	0.769704	-1.113816	-0.921474	0.237985	-1.424625	0.004469	0.008643	-0.059711
913	4.564669	0.005000	9.359643	0.943566	-1.117437	-0.921584	0.237544	-1.424871	0.008822	-0.026417	-0.055796
914	4.569669	0.005000	9.417600	0.879859	-1.036819	-0.921695	0.237102	-1.425118	-0.010134	-0.023985	-0.055644
915	4.574669	0.005000	9.417600	0.995371	-1.141832	-0.921805	0.236660	-1.425365	-0.010712	-0.041439	-0.058525
916	4.579669	0.005000	9.315205	0.914477	-1.044155	-0.921916	0.236219	-1.425611	0.003908	-0.050455	-0.043187
917	4.584669	0.005000	9.329560	0.794693	-1.069373	-0.922026	0.235777	-1.425858	0.012426	-0.073770	-0.053225
918	4.589669	0.005000	9.394781	0.855674	-1.248074	-0.922136	0.235335	-1.426104	0.020759	-0.095493	-0.035796
919	4.594669	0.005000	9.305070	0.740370	-1.289730	-0.922247	0.234894	-1.426351	0.018557	-0.088747	-0.047275
920	4.599669	0.005000	9.339120	0.781554	-1.330914	-0.922357	0.234452	-1.426598	0.030047	-0.106405	-0.041500
921	4.604669	0.005000	9.338278	0.704637	-1.333318	-0.922150	0.234249	-1.426490	0.018186	-0.100566	-0.028765
922	4.609669	0.005000	9.338018	0.704115	-1.294920	-0.921818	0.234138	-1.426243	0.017715	-0.115529	-0.032291
923	4.614669	0.005000	9.189119	0.738601	-1.334160	-0.921487	0.234028	-1.425996	0.017951	-0.110927	-0.021837
924	4.619669	0.005000	9.182160	0.751024	-1.440953	-0.921156	0.233917	-1.425749	0.015829	-0.113397	-0.035322
925	4.624669	0.005000	9.276272	0.824040	-1.428379	-0.920824	0.233807	-1.425503	0.029316	-0.121253	-0.028409
926	4.629669	0.005000	9.280268	0.784800	-1.481306	-0.920493	0.233697	-1.425256	0.009252	-0.121400	-0.019820
927	4.634669	0.005000	9.363576	0.797028	-1.451880	-0.920161	0.233586	-1.425009	0.015601	-0.131725	-0.033204
928	4.639669	0.005000	9.339120	0.819895	-1.394034	-0.919830	0.233476	-1.424763	0.011962	-0.132886	-0.025489
929	4.644669	0.005000	9.322546	0.807466	-1.503302	-0.919499	0.233365	-1.424516	0.018030	-0.128439	-0.032108
930	4.649669	0.005000	9.378360	0.765815	-1.489849	-0.919167	0.233255	-1.424269	0.027780	-0.128901	-0.027158
931	4.654669	0.005000	9.399508	0.824040	-1.412640	-0.918836	0.233145	-1.424022	0.016845	-0.130875	-0.029407
932	4.659669	0.005000	9.362459	0.800701	-1.310821	-0.918505	0.233034	-1.423776	0.020241	-0.135888	-0.023122
933	4.664669	0.005000	9.405337	0.875543	-1.321897	-0.918173	0.232924	-1.423529	0.011817	-0.142864	-0.017859
934	4.669669	0.005000	9.327714	0.768372	-1.311348	-0.918024	0.232904	-1.423181	0.010863	-0.150598	-0.016692
935	4.674669	0.005000	9.348257	0.793937	-1.283090	-0.918576	0.233235	-1.422441	0.013656	-0.170271	-0.011577
936	4.679669	0.005000	9.410490	0.784800	-1.294920	-0.919128	0.233566	-1.421701	0.016188	-0.172763	-0.015022
937	4.684669	0.005000	9.334343	0.711097	-1.221217	-0.919680	0.233898	-1.420962	0.029267	-0.168942	-0.017443
938	4.689669	0.005000	9.339120	0.745560	-1.179572	-0.920232	0.234229	-1.420222	0.042181	-0.177334	-0.026165
939	4.694669	0.005000	9.300304	0.746831	-1.295344	-0.920784	0.234560	-1.419482	0.048891	-0.178871	-0.023344
940	4.699669	0.005000	9.339120	0.788779	-1.371410	-0.921336	0.234891	-1.418743	0.045078	-0.189456	-0.034821
941	4.704669	0.005000	9.370494	0.745560	-1.373400	-0.921888	0.235222	-1.418003	0.046122	-0.196622	-0.034744
942	4.709669	0.005000	9.463178	0.706320	-1.412640	-0.922440	0.235553	-1.417263	0.051926	-0.198120	-0.043311
943	4.714669	0.005000	9.487442	0.736922	-1.443242	-0.922992	0.235885	-1.416524	0.056604	-0.188353	-0.051605
944	4.719669	0.005000	9.360493	0.699140	-1.451880	-0.923544	0.236216	-1.415784	0.062402	-0.211879	-0.048762
945	4.724669	0.005000	9.339120	0.732521	-1.425679	-0.924096	0.236547	-1.415044	0.063950	-0.208539	-0.054149
946	4.729669	0.005000	9.332388	0.786661	-1.404048	-0.924648	0.236878	-1.414305	0.063153	-0.214226	-0.066609
947	4.734669	0.005000	9.317334	0.780467	-1.539026	-0.925200	0.237209	-1.413565	0.062871	-0.207218	-0.061115
948	4.739669	0.005000	9.086754	0.706810	-1.393265	-0.925297	0.236707	-1.412995	0.059655	-0.203692	-0.076558
949	4.744669	0.005000	8.628020	0.602941	-1.140849	-0.925187	0.235824	-1.412502	0.073589	-0.202172	-0.061722
950	4.749669	0.005000	9.175393	0.633658	-1.560399	-0.925077	0.234941	-1.412009	0.063758	-0.201395	-0.072969
951	4.754669	0.005000	9.742986	0.666112	-1.713157	-0.924966	0.234059	-1.411516	0.066383	-0.209337	-0.083092
952	4.759669	0.005000	10.092289	0.884367	-2.097873	-0.924856	0.233176	-1.411023	0.074515	-0.228285	-0.087302
953	4.764669	0.005000	9.595275	0.956243	-1.945496	-0.924746	0.232293	-1.410530	0.074351	-0.218988	-0.096487
954	4.769669	0.005000	9.135390	0.767261	-1.865981	-0.924635	0.231410	-1.410038	0.078624	-0.201052	-0.095232
955	4.774669	0.005000	8.762092	0.627840	-1.691177	-0.924525	0.230528	-1.409545	0.070258	-0.167816	-0.115487
956	4.779669	0.005000	8.954145	0.587115	-1.684350	-0.924415	0.229645	-1.409052	0.084139	-0.169392	-0.109395
957	4.784669	0.005000	9.372914	0.702689	-1.647172	-0.924304	0.228762	-1.408559	0.083532	-0.149406	-0.112250
958	4.789669	0.005000	9.801414	0.812592	-1.496844	-0.924194	0.227879	-1.408066	0.085961	-0.162845	-0.139302
959	4.794669	0.005000	9.736787	0.829307	-1.627013	-0.924084	0.226996	-1.407573	0.093110	-0.167613	-0.146461
960	4.799669	0.005000	9.423923	0.768342	-1.703778	-0.923974	0.226114	-1.407081	0.102762	-0.163028	-0.169214
961	4.804669	0.005000	9.348746	0.667080	-1.776161	-0.924005	0.225266	-1.406588	0.108359	-0.172664	-0.180163
962	4.809669	0.005000	9.366326	0.612668	-1.871486	-0.924778	0.224604	-1.406094	0.100273	-0.151608	-0.176933
963	4.814669	0.005000	9.481800	0.642120	-1.844280	-0.925551	0.223942	-1.405601	0.106445	-0.130837	-0.185022
964	4.819669	0.005000	9.581018	0.604991	-1.684336	-0.926324	0.223279	-1.405108	0.095026	-0.133389	-0.192037
965	4.824669	0.005000	9.535320	0.648279	-1.448604	-0.927096	0.222617	-1.404615	0.088952	-0.142257	-0.226870
966	4.829669	0.005000	9.436095	0.805545	-1.511865	-0.927869	0.221954	-1.404122	0.086622	-0.178295	-0.222917
967	4.834669	0.005000	9.535320	0.800885	-1.569600	-0.928642	0.221292	-1.403629	0.085835	-0.177253	-0.224046
968	4.839669	0.005000	9.482408	0.902520	-1.532136	-0.929415	0.220630	-1.403136	0.087868	-0.185679	-0.218666
969	4.844669	0.005000	9.429187	0.925695	-1.805040	-0.930187	0.219967	-1.402642	0.084966	-0.194728	-0.222261
970	4.849669	0.005000	9.428879	0.863280	-1.648080	-0.930960	0.219305	-1.402149	0.068407	-0.200598	-0.229659
971	4.854669	0.005000	9.346411	0.909811	-1.669954	-0.931733	0.218642	-1.401656	0.047578	-0.216444	-0.219833
972	4.859669	0.005000	9.496080	0.931812	-1.702242	-0.932506	0.217980	-1.401163	0.008646	-0.219000	-0.210617
973	4.864669	0.005000	9.496080	0.975886	-1.841723	-0.933278	0.217318	-1.400670	0.004132	-0.237670	-0.193472
974	4.869669	0.005000	9.418825	0.902520	-1.804428	-0.934051	0.216655	-1.400177	-0.028024	-0.231654	-0.215682
975	4.874669	0.005000	9.458610	0.827580	-1.728330	-0.934470	0.215284	-1.398338	-0.030193	-0.238364	-0.220908
976	4.879669	0.005000	9.491920	0.772320	-1.722400	-0.934691	0.213518	-1.395750	-0.015875	-0.226020	-0.218169
977	4.884669	0.005000	9.640735	0.790952	-1.831975	-0.934911	0.211751	-1.393161	-0.008749	-0.236099	-0.235477
978	4.889669	0.005000	9.661496	0.947176	-1.748888	-0.935132	0.209985	-1.390572	0.004124	-0.239433	-0.235303
979	4.894669	0.005000	9.564057	0.952263	-1.637577	-0.935353	0.208218	-1.387983	0.001634	-0.220217	-0.262161
980	4.899669	0.005000	9.771250	0.955656	-1.503547	-0.935574	0.206452	-1.385394	0.022842	-0.217900	-0.263677
981	4.904669	0.005000	9.927720	0.989955	-1.150334	-0.935794	0.204686	-1.382805	0.023012	-0.205129	-0.273964
982	4.909669	0.005000	10.106650	0.981000	-0.880550	-0.936015	0.202919	-1.380216	0.051335	-0.217205	-0.318220
983	4.914669	0.005000	10.418036	1.059235	-1.020240	-0.936236	0.201153	-1.377627	0.114171	-0.230451	-0.327716
984	4.919669	0.005000	10.472663	1.203446	-1.050646	-0.936457	0.199386	-1.375038	0.165080	-0.233114	-0.367955
985	4.924669	0.005000	10.694852	1.177200	-1.107554	-0.936678	0.197620	-1.372449	0.238510	-0.256623	-0.389069
986	4.929669	0.005000	11.010272	1.150759	-1.242039	-0.936898	0.195853	-1.369860	0.322474	-0.250498	-0.432089
987	4.934669	0.005000	11.586525	0.777478	-1.544746	-0.937119	0.194087	-1.367272	0.393424	-0.282015	-0.479994
988	4.939669	0.005000	11.528112	0.033241	-1.945655	-0.937286	0.192158	-1.364894	0.433500	-0.315499	-0.507835
989	4.944669	0.005000	11.267912	-0.585553	-3.099899	-0.937065	0.189067	-1.364031	0.407690	-0.379092	-0.597646
990	4.949669	0.005000	11.161637	-0.934506	-3.862997	-0.936844	0.185976	-1.363168	0.294812	-0.392708	-0.744728
991	4.954669	0.005000	10.983872	-0.609536	-3.277856	-0.936624	0.182884	-1.362305	0.129544	-0.380937	-0.869315
992	4.959669	0.005000	10.793204	0.227359	-2.556477	-0.936403	0.179793	-1.361442	-0.037991	-0.445461	-0.935108
993	4.964669	0.005000	10.525623	1.094545	-2.173705	-0.936182	0.176702	-1.360579	-0.164168	-0.480498	-0.976135
994	4.969669	0.005000	10.270714	1.617582	-1.825372	-0.935961	0.173611	-1.359716	-0.191466	-0.478265	-0.995666
995	4.974669	0.005000	10.226642	1.907762	-1.607095	-0.935740	0.170520	-1.358853	-0.156458	-0.428959	-0.993088
996	4.979669	0.005000	10.163160	1.932547	-1.383187	-0.935520	0.167429	-1.357990	-0.047419	-0.349362	-1.050136
997	4.984669	0.005000	10.072830	2.001240	-1.365240	-0.935299	0.164337	-1.357127	0.080621	-0.296322	-1.121555
998	4.989669	0.005000	10.152117	1.962000	-1.384443	-0.935078	0.161246	-1.356264	0.215529	-0.233883	-1.188486
999	4.994669	0.005000	10.006200	1.814421	-1.544011	-0.934857	0.158155	-1.355401	0.320316	-0.195292	-1.248839
1000	4.999669	0.005000	10.026823	1.648080	-1.767806	-0.934636	0.155064	-1.354538	0.363828	-0.158758	-1.288041
1001	5.004669	0.005000	10.024670	1.590370	-1.860451	-0.934416	0.151973	-1.353675	0.387949	-0.116703	-1.349136
1002	5.009669	0.005000	10.163160	1.680629	-1.821315	-0.933529	0.148682	-1.352961	0.390581	-0.096939	-1.385020
1003	5.014669	0.005000	10.295039	1.779959	-1.687320	-0.932204	0.145259	-1.352345	0.390077	-0.061849	-1.411351
1004	5.019669	0.005000	10.226244	1.793118	-1.678872	-0.930879	0.141837	-1.351728	0.416412	-0.072529	-1.450156
1005	5.024669	0.005000	10.320120	1.883520	-1.607630	-0.929555	0.138414	-1.351112	0.438376	-0.068337	-1.469823
1006	5.029669	0.005000	10.241640	1.859226	-1.765800	-0.928230	0.134992	-1.350496	0.467687	-0.061772	-1.508580
1007	5.034669	0.005000	10.275722	2.035322	-1.854595	-0.926905	0.131570	-1.349879	0.489463	-0.081674	-1.523258
1008	5.039669	0.005000	10.280880	1.993018	-1.844280	-0.925580	0.128147	-1.349263	0.499279	-0.072067	-1.535864
1009	5.044669	0.005000	10.241640	1.845067	-1.885880	-0.924255	0.124725	-1.348647	0.502308	-0.098337	-1.536578
1010	5.049669	0.005000	10.241640	1.921152	-2.151770	-0.922931	0.121302	-1.348030	0.477942	-0.111275	-1.561233
1011	5.054669	0.005000	9.833871	1.958022	-2.381705	-0.921606	0.117880	-1.347414	0.460941	-0.133235	-1.587343
1012	5.059669	0.005000	9.374932	2.118960	-2.366337	-0.920281	0.114458	-1.346797	0.444195	-0.137159	-1.590365
1013	5.064669	0.005000	9.126171	2.360141	-2.402015	-0.918956	0.111035	-1.346181	0.441284	-0.092044	-1.616848
1014	5.069669	0.005000	9.481997	2.325825	-2.218769	-0.917632	0.107613	-1.345565	0.458057	-0.043936	-1.596570
1015	5.074669	0.005000	9.784554	2.117888	-2.066997	-0.916297	0.104181	-1.345010	0.487132	-0.008247	-1.586469
1016	5.079669	0.005000	9.792063	2.016376	-2.263585	-0.914862	0.100648	-1.345134	0.519937	-0.024415	-1.609335
1017	5.084669	0.005000	9.421231	2.005808	-2.638217	-0.913427	0.097116	-1.345257	0.518997	-0.059963	-1.614278
1018	5.089669	0.005000	8.926449	1.784509	-2.786040	-0.911992	0.093583	-1.345380	0.505404	-0.080955	-1.557861
1019	5.094669	0.005000	9.033418	1.291262	-2.807940	-0.910557	0.090050	-1.345504	0.490191	-0.082575	-1.441368
1020	5.099669	0.005000	9.203792	0.723928	-2.997458	-0.909121	0.086517	-1.345627	0.467394	-0.058991	-1.340291
1021	5.104669	0.005000	9.234674	0.484154	-3.269903	-0.907686	0.082984	-1.345750	0.460556	-0.085405	-1.290189
1022	5.109669	0.005000	8.975385	0.353160	-3.392730	-0.906251	0.079451	-1.345873	0.461767	-0.094963	-1.230230
1023	5.114669	0.005000	8.742360	0.313920	-3.327240	-0.904816	0.075918	-1.345997	0.490274	-0.101231	-1.181548
1024	5.119669	0.005000	8.641332	0.404683	-3.329258	-0.903381	0.072386	-1.346120	0.535036	-0.117592	-1.118688
1025	5.124669	0.005000	8.099816	0.572224	-3.436744	-0.901945	0.068853	-1.346243	0.610102	-0.122667	-1.059708
1026	5.129669	0.005000	7.527114	1.271005	-4.132739	-0.900510	0.065320	-1.346367	0.731081	-0.132999	-0.993119
1027	5.134669	0.005000	7.144435	1.996832	-4.628116	-0.899075	0.061787	-1.346490	0.884772	-0.072287	-0.858630
1028	5.139669	0.005000	7.132815	1.819814	-4.334129	-0.897640	0.058254	-1.346613	1.042492	0.040918	-0.630874
1029	5.144669	0.005000	7.946554	0.916377	-3.932547	-0.896953	0.056965	-1.345553	1.176409	0.137909	-0.383294
1030	5.149669	0.005000	8.684793	0.198053	-3.560812	-0.896842	0.057407	-1.343581	1.246185	0.148100	-0.199632
1031	5.154669	0.005000	9.172809	-0.314655	-3.561122	-0.896732	0.057849	-1.341608	1.274272	0.089670	-0.031491
1032	5.159669	0.005000	9.420898	-0.748858	-3.504341	-0.896621	0.058290	-1.339636	1.247075	0.010490	0.110474
1033	5.164669	0.005000	9.392430	-0.992100	-3.646350	-0.896511	0.058732	-1.337663	1.199750	-0.102603	0.249371
1034	5.169669	0.005000	9.124096	-1.261955	-3.763107	-0.896400	0.059174	-1.335691	1.160026	-0.198599	0.361004
1035	5.174669	0.005000	8.649561	-1.278159	-3.866093	-0.896290	0.059615	-1.333718	1.129984	-0.272303	0.451196
1036	5.179669	0.005000	8.386260	-1.352563	-3.979209	-0.896180	0.060057	-1.331746	1.109826	-0.321331	0.544070
1037	5.184669	0.005000	8.074701	-1.364661	-4.025727	-0.896069	0.060499	-1.329773	1.062134	-0.327960	0.601156
1038	5.189669	0.005000	7.808760	-1.255680	-3.856661	-0.895959	0.060940	-1.327801	1.024514	-0.350174	0.668157
1039	5.194669	0.005000	7.898876	-1.158261	-3.614413	-0.895848	0.061382	-1.325828	0.985847	-0.320130	0.720803
1040	5.199669	0.005000	7.759944	-1.049904	-3.482784	-0.895738	0.061824	-1.323856	0.937756	-0.324916	0.778066
1041	5.204669	0.005000	7.894525	-1.052195	-3.288875	-0.895627	0.062265	-1.321883	0.890807	-0.315635	0.844835
1042	5.209669	0.005000	8.044200	-0.863280	-3.129463	-0.895537	0.062812	-1.319983	0.856677	-0.300619	0.888174
1043	5.214669	0.005000	7.962796	-0.899596	-2.855747	-0.895868	0.065574	-1.319613	0.817981	-0.299264	0.939500
1044	5.219669	0.005000	7.925439	-0.744519	-2.706519	-0.896200	0.068335	-1.319243	0.778979	-0.297772	0.969159
1045	5.224669	0.005000	7.810621	-0.629701	-2.442183	-0.896531	0.071096	-1.318873	0.752797	-0.303045	0.996715
1046	5.229669	0.005000	7.612560	-0.517775	-2.362055	-0.896863	0.073857	-1.318503	0.705241	-0.271930	1.023747
1047	5.234669	0.005000	7.585808	-0.365648	-2.189421	-0.897194	0.076618	-1.318133	0.678596	-0.265460	1.027499
1048	5.239669	0.005000	7.494840	-0.322467	-2.180346	-0.897525	0.079380	-1.317763	0.640843	-0.223566	1.030744
1049	5.244669	0.005000	7.426955	-0.060429	-2.061669	-0.897857	0.082141	-1.317393	0.622356	-0.185799	1.029596
1050	5.249669	0.005000	7.456266	0.183342	-1.843614	-0.898188	0.084902	-1.317023	0.610244	-0.159074	1.041527
1051	5.254669	0.005000	7.621896	0.269063	-1.702272	-0.898519	0.087663	-1.316653	0.602418	-0.099364	1.036847
1052	5.259669	0.005000	7.717435	0.331282	-1.726560	-0.898851	0.090425	-1.316283	0.591944	-0.063610	1.037010
1053	5.264669	0.005000	7.887391	0.372856	-1.510664	-0.899182	0.093186	-1.315913	0.558220	-0.019636	1.054164
1054	5.269669	0.005000	8.022483	0.431640	-1.460267	-0.899514	0.095947	-1.315543	0.541006	0.014511	1.055543
1055	5.274669	0.005000	8.207253	0.485991	-1.343178	-0.899845	0.098708	-1.315173	0.517154	0.052082	1.074027
1056	5.279669	0.005000	8.384139	0.549148	-1.373612	-0.899647	0.101411	-1.314869	0.494584	0.092405	1.078699
1057	5.284669	0.005000	8.457869	0.606571	-1.373400	-0.898985	0.104062	-1.314622	0.473789	0.111567	1.103601
1058	5.289669	0.005000	8.593560	0.613632	-1.286576	-0.898322	0.106712	-1.314375	0.450599	0.135404	1.130455
1059	5.294669	0.005000	8.632800	0.724141	-1.422178	-0.897659	0.109363	-1.314129	0.434901	0.158777	1.145063
1060	5.299669	0.005000	8.589612	0.855384	-1.259628	-0.896997	0.112014	-1.313882	0.410425	0.183072	1.148059
1061	5.304669	0.005000	8.596743	0.863280	-1.298103	-0.896334	0.114665	-1.313635	0.387134	0.215169	1.155118
1062	5.309669	0.005000	8.710463	0.863280	-1.296554	-0.895671	0.117316	-1.313389	0.384986	0.228578	1.167533
1063	5.314669	0.005000	8.590790	1.014700	-1.334160	-0.895009	0.119966	-1.313142	0.352591	0.252646	1.168200
1064	5.319669	0.005000	8.745345	0.957285	-1.334160	-0.894346	0.122617	-1.312896	0.344712	0.266244	1.159178
1065	5.324669	0.005000	8.711280	1.115451	-1.388406	-0.893683	0.125268	-1.312649	0.329937	0.288882	1.167017
1066	5.329669	0.005000	8.878876	1.216440	-1.354331	-0.893020	0.127919	-1.312402	0.309218	0.319960	1.156955
1067	5.334669	0.005000	8.934778	1.153316	-1.397284	-0.892358	0.130570	-1.312156	0.299527	0.318436	1.140801
1068	5.339669	0.005000	8.946720	1.216440	-1.362539	-0.891695	0.133221	-1.311909	0.279264	0.345060	1.135853
1069	5.344669	0.005000	9.064440	1.357101	-1.461537	-0.891032	0.135859	-1.311688	0.285003	0.348630	1.116106
1070	5.349669	0.005000	9.045731	1.412640	-1.470589	-0.890370	0.137846	-1.312798	0.261091	0.351313	1.092711
1071	5.354669	0.005000	9.122044	1.465222	-1.511996	-0.889708	0.139833	-1.313907	0.239139	0.369018	1.070887
1072	5.359669	0.005000	9.198337	1.569600	-1.458767	-0.889045	0.141821	-1.315017	0.222531	0.383101	1.056004
1073	5.364669	0.005000	9.244825	1.544124	-1.440168	-0.888383	0.143808	-1.316126	0.195664	0.394176	1.030544
1074	5.369669	0.005000	9.092320	1.558240	-1.491120	-0.887720	0.145795	-1.317236	0.188488	0.404171	0.995073
1075	5.374669	0.005000	9.152223	1.521057	-1.412640	-0.887058	0.147782	-1.318345	0.160756	0.417853	0.949298
1076	5.379669	0.005000	9.078459	1.498129	-1.412640	-0.886396	0.149769	-1.319455	0.142571	0.412809	0.913890
1077	5.384669	0.005000	9.212214	1.560414	-1.377993	-0.885733	0.151757	-1.320564	0.125017	0.417245	0.873218
1078	5.389669	0.005000	9.260640	1.564366	-1.483269	-0.885071	0.153744	-1.321674	0.105690	0.433619	0.807027
1079	5.394669	0.005000	9.143165	1.491120	-1.413375	-0.884409	0.155731	-1.322783	0.096797	0.438721	0.736820
1080	5.399669	0.005000	9.182160	1.378498	-1.567901	-0.883746	0.157718	-1.323893	0.086759	0.458822	0.649306
1081	5.404669	0.005000	9.111914	1.416757	-1.487003	-0.883084	0.159706	-1.325002	0.074248	0.458224	0.548440
1082	5.409669	0.005000	9.097236	1.412640	-1.523916	-0.882421	0.161693	-1.326112	0.052349	0.489060	0.442377
1083	5.414669	0.005000	9.064440	1.538827	-1.381867	-0.881924	0.162246	-1.327283	0.035514	0.495523	0.304884
1084	5.419669	0.005000	9.171279	1.563004	-1.473643	-0.881593	0.161362	-1.328516	0.025843	0.504597	0.199262
1085	5.424669	0.005000	9.155899	1.543490	-1.412489	-0.881262	0.160479	-1.329749	0.012097	0.520995	0.076136
1086	5.429669	0.005000	9.236634	1.759339	-1.449568	-0.880931	0.159596	-1.330981	0.001012	0.518722	-0.038817
1087	5.434669	0.005000	9.121326	1.865874	-1.316514	-0.880600	0.158713	-1.332214	-0.005713	0.532981	-0.148198
1088	5.439669	0.005000	9.083863	2.020270	-1.314737	-0.880268	0.157829	-1.333447	-0.018933	0.525041	-0.253240
1089	5.444669	0.005000	9.142920	2.175448	-1.125456	-0.879937	0.156946	-1.334680	-0.020672	0.538419	-0.337331
