# FOX Logger (IMU file)
# (c) INRIA 2011-2014
# File created from file sensbiotk output
#
# File format:
# id	t	dt	ax	ay	az	mx	my	mz	gx	gy	gz
#
# Units:
#	Time: s
#	Acceleration: m.s^-2
#	Magneto: gauss
#	Gyrometer: rad/s
#
1	0.034119	0.034119	-0.174705	0.078480	-10.516320	-0.310448	0.394030	-0.776667	-0.004953	-0.006653	0.013231
2	0.039119	0.005000	-0.197271	0.018013	-10.555560	-0.309896	0.393920	-0.777284	-0.016873	-0.006783	0.005087
3	0.044119	0.005000	-0.235440	0.056381	-10.611941	-0.309343	0.393809	-0.777900	-0.012898	0.003844	-0.008608
4	0.049119	0.005000	-0.181472	0.132448	-10.516320	-0.308791	0.393699	-0.778517	-0.010493	-0.004382	0.010408
5	0.054119	0.005000	-0.142982	0.078480	-10.620062	-0.308239	0.393588	-0.779134	-0.009176	0.006257	0.006334
6	0.059119	0.005000	-0.165071	0.078480	-10.545184	-0.307687	0.393478	-0.779750	-0.012182	-0.007676	-0.001805
7	0.064119	0.005000	-0.126055	0.047575	-10.524655	-0.307134	0.393367	-0.780367	-0.009026	0.000900	0.002219
8	0.069119	0.005000	-0.123737	-0.012034	-10.471063	-0.306582	0.393257	-0.780984	-0.011611	-0.001215	0.001527
9	0.074119	0.005000	-0.188976	-0.110496	-10.516320	-0.306030	0.393146	-0.781600	-0.016378	-0.010478	0.009565
10	0.079119	0.005000	-0.080129	0.039240	-10.555560	-0.305478	0.393036	-0.782217	-0.007930	-0.004243	-0.000972
11	0.084119	0.005000	-0.156225	0.000735	-10.555560	-0.304925	0.392925	-0.782834	-0.004947	-0.016739	0.008134
12	0.089119	0.005000	-0.235440	0.144495	-10.519436	-0.304373	0.392815	-0.783450	-0.016439	-0.002980	0.005975
13	0.094119	0.005000	-0.201296	0.156960	-10.516320	-0.303821	0.392704	-0.784067	-0.010882	-0.012022	-0.002333
14	0.099119	0.005000	-0.196200	0.088071	-10.555560	-0.303268	0.392594	-0.784684	-0.016521	-0.001119	0.003190
15	0.104119	0.005000	-0.235440	0.156960	-10.634040	-0.303146	0.392537	-0.785180	-0.016563	-0.011495	-0.004251
16	0.109119	0.005000	-0.223579	0.145099	-10.465219	-0.303478	0.392537	-0.785550	-0.009646	-0.010292	0.004710
17	0.114119	0.005000	-0.235440	0.053339	-10.451939	-0.303809	0.392537	-0.785920	-0.012394	-0.011933	-0.002190
18	0.119119	0.005000	-0.219227	-0.062267	-10.477080	-0.304140	0.392537	-0.786290	-0.012200	-0.004804	0.006961
19	0.124119	0.005000	-0.175585	-0.078480	-10.497695	-0.304472	0.392537	-0.786660	-0.020444	-0.005624	0.011573
20	0.129119	0.005000	-0.138289	-0.041138	-10.518218	-0.304803	0.392537	-0.787030	-0.013735	-0.009525	0.000367
21	0.134119	0.005000	-0.196200	-0.016259	-10.477080	-0.305135	0.392537	-0.787400	-0.007290	-0.012703	0.007184
22	0.139119	0.005000	-0.210344	-0.010952	-10.580656	-0.305466	0.392537	-0.787770	-0.013385	0.001485	0.000983
23	0.144119	0.005000	-0.129627	-0.011907	-10.555560	-0.305797	0.392537	-0.788140	-0.010578	-0.002830	0.011632
24	0.149119	0.005000	-0.108228	-0.089243	-10.467588	-0.306129	0.392537	-0.788510	-0.000675	-0.002443	0.009499
25	0.154119	0.005000	-0.140139	0.007473	-10.452786	-0.306460	0.392537	-0.788880	-0.012534	-0.006309	-0.005516
26	0.159119	0.005000	-0.201344	0.000000	-10.565848	-0.306792	0.392537	-0.789250	-0.013226	-0.003785	0.011073
27	0.164119	0.005000	-0.193038	-0.075318	-10.552398	-0.307123	0.392537	-0.789620	-0.012393	-0.001102	0.005051
28	0.169119	0.005000	-0.116924	-0.040036	-10.440227	-0.307454	0.392537	-0.789990	-0.005486	-0.010855	0.012538
29	0.174119	0.005000	-0.192755	-0.002297	-10.555560	-0.307463	0.393182	-0.790240	-0.001483	-0.005242	0.001201
30	0.179119	0.005000	-0.196200	0.007132	-10.437840	-0.307463	0.393845	-0.790487	-0.011246	-0.010343	0.008417
31	0.184119	0.005000	-0.167979	0.072970	-10.443350	-0.307463	0.394508	-0.790733	-0.005843	-0.006206	0.009426
32	0.189119	0.005000	-0.164875	0.062649	-10.578969	-0.307463	0.395171	-0.790980	-0.002992	-0.012890	0.001925
33	0.194119	0.005000	-0.187593	0.039240	-10.623829	-0.307463	0.395833	-0.791227	-0.004373	-0.002052	0.017642
34	0.199119	0.005000	-0.198618	0.105446	-10.526176	-0.307463	0.396496	-0.791473	-0.007189	-0.011219	-0.004075
35	0.204119	0.005000	-0.259998	0.093162	-10.555560	-0.307463	0.397159	-0.791720	-0.008844	-0.012356	0.008108
36	0.209119	0.005000	-0.235440	-0.022343	-10.533217	-0.307463	0.397822	-0.791967	-0.021911	-0.005980	-0.003585
37	0.214119	0.005000	-0.097518	0.059442	-10.536522	-0.307463	0.398484	-0.792213	-0.018324	-0.003403	-0.005312
38	0.219119	0.005000	-0.131851	0.060690	-10.516320	-0.307463	0.399147	-0.792460	-0.015818	-0.013263	0.001190
39	0.224119	0.005000	-0.133392	-0.031344	-10.555560	-0.307463	0.399810	-0.792707	-0.013803	-0.008105	-0.006248
40	0.229119	0.005000	-0.091922	0.001087	-10.450195	-0.307463	0.400473	-0.792953	-0.004978	-0.006649	0.006264
41	0.234119	0.005000	-0.044137	0.017171	-10.493012	-0.307463	0.401136	-0.793200	-0.018409	-0.004019	0.007333
42	0.239119	0.005000	-0.165946	0.087466	-10.546574	-0.307310	0.401442	-0.793219	-0.006014	-0.007351	0.007693
43	0.244119	0.005000	-0.156960	0.124395	-10.522995	-0.306979	0.401332	-0.792973	-0.008672	-0.007885	0.007853
44	0.249119	0.005000	-0.240114	0.034566	-10.555560	-0.306648	0.401221	-0.792726	-0.010095	-0.011011	0.003435
45	0.254119	0.005000	-0.193874	-0.073828	-10.555560	-0.306316	0.401111	-0.792479	-0.011839	-0.012168	0.006769
46	0.259119	0.005000	-0.235258	0.000000	-10.594709	-0.305985	0.401000	-0.792233	-0.013668	-0.001087	0.009768
47	0.264119	0.005000	-0.192129	0.002035	-10.400635	-0.305653	0.400890	-0.791986	-0.004812	-0.018326	0.012011
48	0.269119	0.005000	-0.135480	-0.074040	-10.542240	-0.305322	0.400779	-0.791740	-0.004874	-0.013169	-0.002871
49	0.274119	0.005000	-0.104166	-0.189423	-10.666503	-0.304991	0.400669	-0.791493	-0.005823	-0.006843	-0.002252
50	0.279119	0.005000	-0.187400	-0.017600	-10.546760	-0.304659	0.400558	-0.791246	-0.001873	-0.007577	0.007645
51	0.284119	0.005000	-0.106513	-0.028033	-10.477080	-0.304328	0.400448	-0.791000	-0.011087	-0.013413	0.004292
52	0.289119	0.005000	-0.248377	0.052177	-10.437840	-0.303997	0.400337	-0.790753	-0.004587	-0.008718	0.008444
53	0.294119	0.005000	-0.102165	-0.078480	-10.563690	-0.303665	0.400227	-0.790506	-0.008749	-0.007081	0.003938
54	0.299119	0.005000	-0.039240	-0.035519	-10.634040	-0.303334	0.400116	-0.790260	-0.010313	-0.000554	0.005569
55	0.304119	0.005000	-0.098391	0.000582	-10.615292	-0.303002	0.400006	-0.790013	-0.017959	0.003460	0.005495
56	0.309119	0.005000	-0.117720	-0.022322	-10.499402	-0.302985	0.400105	-0.790584	-0.015516	-0.013012	-0.003909
57	0.314119	0.005000	-0.122863	0.005143	-10.477080	-0.302985	0.400215	-0.791200	-0.009653	-0.015354	0.011832
58	0.319119	0.005000	-0.222875	0.039240	-10.541450	-0.302985	0.400325	-0.791817	-0.008230	0.003276	0.000389
59	0.324119	0.005000	-0.206351	-0.008788	-10.554197	-0.302985	0.400436	-0.792433	0.002708	-0.002296	0.006614
60	0.329119	0.005000	-0.173373	0.045655	-10.477080	-0.302985	0.400546	-0.793049	-0.019001	-0.004786	0.008395
61	0.334119	0.005000	-0.229640	0.033440	-10.516320	-0.302985	0.400657	-0.793666	-0.009760	-0.007887	0.002793
62	0.339119	0.005000	-0.196200	0.039240	-10.601567	-0.302985	0.400767	-0.794282	-0.013244	-0.009692	0.007386
63	0.344119	0.005000	-0.161226	0.078480	-10.594800	-0.302985	0.400878	-0.794899	-0.010629	-0.010941	-0.001168
64	0.349119	0.005000	-0.236405	0.001929	-10.518249	-0.302985	0.400988	-0.795515	-0.011136	-0.017350	0.006457
65	0.354119	0.005000	-0.196200	-0.045926	-10.634040	-0.302985	0.401099	-0.796131	-0.023892	-0.003145	0.004965
66	0.359119	0.005000	-0.230114	0.033914	-10.526972	-0.302985	0.401209	-0.796748	-0.012993	-0.000476	-0.001097
67	0.364119	0.005000	-0.267041	0.070841	-10.594800	-0.302985	0.401319	-0.797364	-0.016282	0.003607	0.011175
68	0.369119	0.005000	-0.166636	0.009676	-10.643716	-0.302985	0.401430	-0.797980	-0.019778	-0.005885	0.005955
69	0.374119	0.005000	-0.262600	-0.066400	-10.528400	-0.303316	0.401067	-0.796907	-0.010128	-0.005589	0.017361
70	0.379119	0.005000	-0.235440	-0.064155	-10.623451	-0.304090	0.400073	-0.793575	-0.014165	0.010982	0.002050
71	0.384119	0.005000	-0.235440	0.006367	-10.516320	-0.304863	0.399078	-0.790244	-0.013348	-0.004878	0.004919
72	0.389119	0.005000	-0.252741	0.001546	-10.575953	-0.305637	0.398084	-0.786912	-0.004778	0.005367	0.008945
73	0.394119	0.005000	-0.156960	0.057468	-10.613028	-0.306410	0.397089	-0.783581	-0.005581	-0.009874	0.000451
74	0.399119	0.005000	-0.117720	-0.008876	-10.493119	-0.307184	0.396095	-0.780249	-0.015136	-0.008688	0.013778
75	0.404119	0.005000	-0.196200	0.013626	-10.569186	-0.307957	0.395100	-0.776917	-0.008353	-0.009194	-0.006021
76	0.409119	0.005000	-0.156960	0.094636	-10.583258	-0.308731	0.394106	-0.773586	-0.005119	-0.005901	0.008600
77	0.414119	0.005000	-0.175509	0.097029	-10.437840	-0.309504	0.393111	-0.770254	-0.011301	-0.002443	0.004521
78	0.419119	0.005000	-0.228581	0.110861	-10.412318	-0.310278	0.392117	-0.766923	-0.010278	-0.009444	0.000411
79	0.424119	0.005000	-0.230525	-0.004915	-10.560475	-0.311051	0.391122	-0.763591	-0.008478	-0.003149	0.004168
80	0.429119	0.005000	-0.198710	0.005020	-10.550540	-0.311825	0.390128	-0.760259	-0.015069	-0.017307	-0.006417
81	0.434119	0.005000	-0.195640	-0.037561	-10.594800	-0.312598	0.389133	-0.756928	-0.013423	-0.005707	0.004199
82	0.439119	0.005000	-0.269125	0.003704	-10.594800	-0.313372	0.388139	-0.753596	-0.020252	-0.010206	-0.010558
83	0.444119	0.005000	-0.117720	0.030829	-10.594800	-0.313535	0.387348	-0.752424	-0.006827	-0.006898	0.001132
84	0.449119	0.005000	-0.156960	0.000000	-10.522518	-0.313645	0.386575	-0.751438	-0.008959	-0.001860	0.004460
85	0.454119	0.005000	-0.008604	0.022031	-10.546956	-0.313756	0.385802	-0.750451	-0.007724	-0.013062	0.002911
86	0.459119	0.005000	-0.185651	0.010549	-10.484674	-0.313866	0.385028	-0.749464	-0.015352	-0.013158	0.011960
87	0.464119	0.005000	-0.091795	-0.065517	-10.503357	-0.313976	0.384255	-0.748478	-0.013181	-0.000211	-0.004583
88	0.469119	0.005000	-0.196200	-0.006323	-10.555560	-0.314087	0.383482	-0.747491	-0.008693	-0.014070	0.007517
89	0.474119	0.005000	-0.174276	0.083088	-10.520928	-0.314197	0.382709	-0.746504	-0.013591	-0.008502	0.001627
90	0.479119	0.005000	-0.058739	-0.039240	-10.457581	-0.314308	0.381936	-0.745518	-0.012113	-0.011388	0.003920
91	0.484119	0.005000	-0.021671	0.060911	-10.472978	-0.314418	0.381163	-0.744531	-0.000762	-0.005189	0.014787
92	0.489119	0.005000	-0.078480	0.102563	-10.540403	-0.314528	0.380389	-0.743544	-0.014455	-0.008652	-0.004511
93	0.494119	0.005000	-0.196200	0.000000	-10.555560	-0.314639	0.379616	-0.742558	-0.007325	-0.008566	0.004611
94	0.499119	0.005000	-0.156960	-0.028435	-10.527125	-0.314749	0.378843	-0.741571	-0.011363	0.001682	0.006892
95	0.504119	0.005000	-0.196200	0.000000	-10.429450	-0.314860	0.378070	-0.740584	-0.005645	-0.009240	0.006079
96	0.509119	0.005000	-0.202646	0.012891	-10.365806	-0.314835	0.378107	-0.741509	-0.012853	0.004912	0.009842
97	0.514119	0.005000	-0.227356	0.035198	-10.437840	-0.314614	0.379322	-0.745209	-0.011508	-0.003929	0.000070
98	0.519119	0.005000	-0.189983	-0.074335	-10.483297	-0.314393	0.380537	-0.748909	-0.013212	-0.008858	0.005192
99	0.524119	0.005000	-0.234215	0.038934	-10.672668	-0.314172	0.381752	-0.752609	-0.021107	-0.002906	0.001252
100	0.529119	0.005000	-0.235440	0.070402	-10.597493	-0.313951	0.382967	-0.756309	-0.012136	-0.007243	0.010783
101	0.534119	0.005000	-0.156960	0.083148	-10.624704	-0.313730	0.384182	-0.760009	-0.008579	-0.000097	0.003948
102	0.539119	0.005000	-0.228451	0.060206	-10.580822	-0.313510	0.385397	-0.763709	-0.015031	-0.013827	0.006772
103	0.544119	0.005000	-0.235440	0.048258	-10.543373	-0.313289	0.386612	-0.767409	-0.014558	-0.008579	0.008131
104	0.549119	0.005000	-0.168260	-0.044580	-10.505020	-0.313068	0.387827	-0.771110	-0.010820	-0.005006	-0.001703
105	0.554119	0.005000	-0.222064	-0.052616	-10.516320	-0.312847	0.389042	-0.774810	-0.017120	-0.012941	0.006607
106	0.559119	0.005000	-0.258895	0.008114	-10.492865	-0.312626	0.390257	-0.778510	-0.010992	-0.003139	0.002298
107	0.564119	0.005000	-0.235440	-0.078480	-10.534049	-0.312405	0.391472	-0.782210	-0.011472	-0.009324	0.007757
108	0.569119	0.005000	-0.176060	-0.019100	-10.555560	-0.312184	0.392687	-0.785910	-0.018043	-0.001835	-0.001474
109	0.574119	0.005000	-0.156960	-0.022282	-10.533278	-0.311963	0.393902	-0.789610	-0.007665	-0.004846	-0.011909
110	0.579119	0.005000	-0.181456	0.039240	-10.516320	-0.311446	0.394524	-0.790000	-0.015043	0.003181	0.021278
111	0.584119	0.005000	-0.196200	0.012661	-10.516320	-0.310894	0.395076	-0.790000	-0.008631	0.003368	0.003002
112	0.589119	0.005000	-0.196200	0.078480	-10.594800	-0.310342	0.395629	-0.790000	-0.007032	-0.012438	0.014855
113	0.594119	0.005000	-0.164949	0.047229	-10.555560	-0.309789	0.396181	-0.790000	-0.009962	-0.005038	0.000505
114	0.599119	0.005000	-0.190155	0.039240	-10.371450	-0.309237	0.396733	-0.790000	-0.013703	-0.007663	-0.004779
115	0.604119	0.005000	-0.235440	-0.042869	-10.437840	-0.308685	0.397285	-0.790000	-0.015497	-0.007663	0.001766
116	0.609119	0.005000	-0.271312	-0.112668	-10.478764	-0.308133	0.397838	-0.790000	-0.018037	0.006135	0.001664
117	0.614119	0.005000	-0.080613	-0.038529	-10.477791	-0.307581	0.398390	-0.790000	-0.011934	-0.012329	0.005318
118	0.619119	0.005000	-0.156960	0.073152	-10.552896	-0.307028	0.398942	-0.790000	-0.020633	-0.004090	-0.001840
119	0.624119	0.005000	-0.196200	-0.073399	-10.550479	-0.306476	0.399495	-0.790000	-0.015592	-0.009246	0.001222
120	0.629119	0.005000	-0.110323	-0.142166	-10.516320	-0.305924	0.400047	-0.790000	-0.000886	0.004132	0.002422
121	0.634119	0.005000	-0.177338	-0.098858	-10.536698	-0.305372	0.400599	-0.790000	-0.021423	-0.014718	-0.003214
122	0.639119	0.005000	-0.184355	-0.051085	-10.551856	-0.304820	0.401151	-0.790000	-0.006632	-0.001301	0.007970
123	0.644119	0.005000	-0.142877	-0.064397	-10.555560	-0.304394	0.401535	-0.789953	-0.025308	0.000028	-0.005803
124	0.649119	0.005000	-0.140762	0.039240	-10.539362	-0.304173	0.401646	-0.789830	-0.015889	-0.016830	0.005934
125	0.654119	0.005000	-0.119756	0.059878	-10.574162	-0.303952	0.401756	-0.789706	-0.012495	-0.003054	0.005738
126	0.659119	0.005000	-0.156960	0.083079	-10.613270	-0.303731	0.401866	-0.789583	-0.005324	-0.008204	0.003232
127	0.664119	0.005000	-0.186589	-0.022956	-10.656996	-0.303510	0.401977	-0.789460	-0.007540	-0.008440	0.010255
128	0.669119	0.005000	-0.184702	0.053111	-10.592427	-0.303289	0.402087	-0.789336	-0.008698	-0.009460	0.005204
129	0.674119	0.005000	-0.180528	0.117720	-10.528104	-0.303068	0.402198	-0.789213	-0.010786	-0.010870	0.006305
130	0.679119	0.005000	-0.207213	0.029831	-10.624631	-0.302847	0.402308	-0.789089	-0.017317	-0.008563	0.003779
131	0.684119	0.005000	-0.039240	-0.025032	-10.594800	-0.302627	0.402418	-0.788966	-0.004112	-0.013848	0.009946
132	0.689119	0.005000	-0.113022	0.039240	-10.555560	-0.302406	0.402529	-0.788843	-0.018972	-0.011822	0.009485
133	0.694119	0.005000	-0.156960	0.041995	-10.516320	-0.302185	0.402639	-0.788719	-0.010165	-0.010409	-0.003187
134	0.699119	0.005000	-0.195863	0.000337	-10.555897	-0.301964	0.402750	-0.788596	-0.012961	-0.006518	0.008823
135	0.704119	0.005000	-0.119327	0.076873	-10.444268	-0.301743	0.402860	-0.788473	-0.016533	-0.007693	0.000074
136	0.709119	0.005000	-0.164983	0.078480	-10.406623	-0.301522	0.402970	-0.788349	-0.008410	-0.007425	-0.001165
137	0.714119	0.005000	-0.144253	0.105013	-10.431487	-0.301493	0.402889	-0.788654	-0.009702	-0.004920	0.007363
138	0.719119	0.005000	-0.249566	0.039240	-10.563931	-0.301493	0.402779	-0.789024	-0.009728	-0.003629	0.008813
139	0.724119	0.005000	-0.235440	0.010778	-10.516320	-0.301493	0.402668	-0.789394	-0.010982	-0.001638	0.012295
140	0.729119	0.005000	-0.169985	-0.065455	-10.490271	-0.301493	0.402558	-0.789764	-0.010805	0.001066	0.004103
141	0.734119	0.005000	-0.102594	0.111581	-10.540434	-0.301493	0.402447	-0.790134	-0.010851	-0.014013	0.004908
142	0.739119	0.005000	-0.096019	0.078480	-10.616501	-0.301493	0.402337	-0.790504	-0.012510	0.001109	-0.000888
143	0.744119	0.005000	-0.078480	0.117720	-10.614511	-0.301493	0.402227	-0.790874	-0.005749	-0.009830	-0.002613
144	0.749119	0.005000	-0.196200	0.100374	-10.520867	-0.301493	0.402116	-0.791244	-0.009684	0.003248	0.002002
145	0.754119	0.005000	-0.132657	0.039240	-10.594800	-0.301493	0.402006	-0.791614	-0.010763	-0.005345	-0.002277
146	0.759119	0.005000	-0.156960	0.078480	-10.595511	-0.301493	0.401895	-0.791984	-0.003560	-0.010670	0.006500
147	0.764119	0.005000	-0.185747	0.018334	-10.414363	-0.301493	0.401785	-0.792354	-0.001644	0.001489	-0.002194
148	0.769119	0.005000	-0.196200	0.024517	-10.398600	-0.301493	0.401675	-0.792724	-0.002542	0.006940	0.011403
149	0.774119	0.005000	-0.201957	0.116664	-10.392843	-0.301493	0.401564	-0.793094	-0.015073	-0.004573	0.004065
150	0.779119	0.005000	-0.117720	-0.035473	-10.441607	-0.301532	0.401571	-0.793289	-0.022112	0.005718	0.003109
151	0.784119	0.005000	-0.156960	-0.039240	-10.556968	-0.301643	0.401792	-0.793166	-0.016181	0.003959	0.007643
152	0.789119	0.005000	-0.195202	0.113726	-10.556558	-0.301753	0.402013	-0.793043	-0.013843	-0.002650	0.002100
153	0.794119	0.005000	-0.111813	0.190293	-10.440794	-0.301863	0.402234	-0.792919	-0.012941	-0.007280	0.015172
154	0.799119	0.005000	-0.156960	0.028523	-10.521679	-0.301974	0.402455	-0.792796	-0.019542	0.000083	0.003876
155	0.804119	0.005000	-0.149291	0.070811	-10.555560	-0.302084	0.402676	-0.792673	-0.004709	-0.006248	0.007839
156	0.809119	0.005000	-0.235440	0.078067	-10.614627	-0.302195	0.402897	-0.792550	-0.004728	-0.002117	0.014398
157	0.814119	0.005000	-0.144839	0.014998	-10.634040	-0.302305	0.403118	-0.792426	-0.013418	-0.007142	0.014978
158	0.819119	0.005000	-0.245969	-0.039240	-10.466551	-0.302415	0.403339	-0.792303	-0.016199	-0.004593	0.013862
159	0.824119	0.005000	-0.251914	0.016474	-10.516320	-0.302526	0.403559	-0.792180	-0.018785	-0.005879	-0.008900
160	0.829119	0.005000	-0.156960	-0.058125	-10.535205	-0.302636	0.403780	-0.792056	-0.012954	-0.007916	0.016075
161	0.834119	0.005000	-0.175158	0.018198	-10.519164	-0.302747	0.404001	-0.791933	-0.010851	0.007243	0.009497
162	0.839119	0.005000	-0.235440	0.007624	-10.516320	-0.302857	0.404222	-0.791810	-0.017663	-0.006990	0.000976
163	0.844119	0.005000	-0.170550	-0.025650	-10.634040	-0.302968	0.404443	-0.791687	-0.012634	-0.013551	0.006391
164	0.849119	0.005000	-0.156960	-0.016887	-10.600511	-0.303078	0.404292	-0.791771	-0.009863	-0.011014	0.016780
165	0.854119	0.005000	-0.096723	0.000000	-10.525442	-0.303188	0.404071	-0.791894	-0.013524	-0.012107	0.013402
166	0.859119	0.005000	-0.214963	-0.013651	-10.529971	-0.303299	0.403850	-0.792017	-0.008467	-0.001188	0.005901
167	0.864119	0.005000	-0.043649	0.000000	-10.590391	-0.303409	0.403629	-0.792141	-0.012365	-0.008442	0.004554
168	0.869119	0.005000	-0.159395	-0.041675	-10.562866	-0.303520	0.403408	-0.792264	-0.014156	-0.006954	0.003424
169	0.874119	0.005000	-0.157021	0.078480	-10.516442	-0.303630	0.403188	-0.792387	-0.011675	-0.008330	0.003803
170	0.879119	0.005000	-0.048498	0.041554	-10.631726	-0.303741	0.402967	-0.792511	-0.011823	-0.010219	0.008297
171	0.884119	0.005000	-0.191913	0.000000	-10.468506	-0.303851	0.402746	-0.792634	-0.021297	-0.004331	0.007997
172	0.889119	0.005000	-0.137830	-0.065074	-10.470377	-0.303962	0.402525	-0.792757	-0.009176	-0.013716	0.009450
173	0.894119	0.005000	-0.147959	0.051478	-10.434603	-0.304072	0.402304	-0.792880	-0.013773	-0.004290	0.004155
174	0.899119	0.005000	-0.168014	0.000000	-10.466026	-0.304183	0.402083	-0.793004	-0.006787	-0.010031	0.008171
175	0.904119	0.005000	-0.196200	0.013468	-10.502852	-0.304293	0.401862	-0.793127	-0.009280	0.005498	0.010152
176	0.909119	0.005000	-0.172647	-0.015687	-10.649727	-0.304404	0.401641	-0.793250	-0.014589	-0.008834	-0.001079
177	0.914119	0.005000	-0.096301	-0.017821	-10.555560	-0.304551	0.401275	-0.793252	-0.015373	-0.009272	0.015686
178	0.919119	0.005000	-0.077256	-0.021457	-10.596024	-0.304772	0.400612	-0.793005	-0.020255	-0.010909	-0.002862
179	0.924119	0.005000	-0.190694	0.039240	-10.477080	-0.304993	0.399949	-0.792758	-0.014318	-0.003223	0.000973
180	0.929119	0.005000	-0.156960	-0.010287	-10.491557	-0.305214	0.399286	-0.792512	-0.009392	-0.000229	0.007635
181	0.934119	0.005000	-0.169203	0.129963	-10.474570	-0.305435	0.398623	-0.792265	-0.008987	-0.005027	-0.001808
182	0.939119	0.005000	-0.245621	-0.008698	-10.604981	-0.305656	0.397960	-0.792018	-0.010100	-0.006196	0.010144
183	0.944119	0.005000	-0.164751	0.094348	-10.602878	-0.305877	0.397297	-0.791771	-0.016803	0.005522	-0.000367
184	0.949119	0.005000	-0.229959	0.072999	-10.448802	-0.306098	0.396634	-0.791525	-0.017007	-0.005009	0.011914
185	0.954119	0.005000	-0.229288	0.000000	-10.555560	-0.306319	0.395971	-0.791278	-0.012426	0.004472	0.000390
186	0.959119	0.005000	-0.196200	0.041505	-10.438973	-0.306540	0.395308	-0.791031	-0.006972	-0.002789	0.012523
187	0.964119	0.005000	-0.196200	0.003812	-10.553019	-0.306761	0.394644	-0.790784	-0.008814	-0.013890	0.011030
188	0.969119	0.005000	-0.120949	-0.042469	-10.513091	-0.306982	0.393981	-0.790538	-0.018816	-0.007640	0.001314
189	0.974119	0.005000	-0.117720	0.022338	-10.533222	-0.307203	0.393318	-0.790291	-0.010759	-0.011037	0.004533
190	0.979119	0.005000	-0.156960	0.062566	-10.477625	-0.307424	0.392655	-0.790044	-0.010869	-0.004642	-0.003718
191	0.984119	0.005000	-0.186206	0.000000	-10.506326	-0.307282	0.392809	-0.789595	-0.021067	-0.009325	-0.007471
192	0.989119	0.005000	-0.183799	-0.039240	-10.516320	-0.307061	0.393141	-0.789101	-0.015623	0.002836	0.011406
193	0.994119	0.005000	-0.206154	-0.024597	-10.540917	-0.306840	0.393472	-0.788608	-0.017137	-0.004306	0.011874
194	0.999119	0.005000	-0.156960	0.039240	-10.499562	-0.306619	0.393803	-0.788115	-0.011232	-0.002421	0.007999
195	1.004119	0.005000	-0.177032	-0.000903	-10.517223	-0.306398	0.394135	-0.787621	-0.015795	0.004944	-0.004001
196	1.009119	0.005000	-0.156960	-0.018127	-10.513335	-0.306177	0.394466	-0.787128	-0.000183	-0.007224	0.003041
197	1.014119	0.005000	-0.219723	0.031328	-10.532037	-0.305956	0.394798	-0.786634	-0.014944	0.005310	-0.004928
198	1.019119	0.005000	-0.143346	0.039240	-10.541946	-0.305735	0.395129	-0.786141	-0.013470	0.001382	-0.005866
199	1.024119	0.005000	-0.050611	0.050611	-10.594800	-0.305514	0.395460	-0.785648	-0.010305	0.010131	0.014634
200	1.029119	0.005000	-0.148004	-0.008956	-10.664324	-0.305293	0.395792	-0.785154	-0.015479	0.008697	0.003804
201	1.034119	0.005000	-0.099265	0.071552	-10.509392	-0.305073	0.396123	-0.784661	-0.007799	-0.005992	0.010423
202	1.039119	0.005000	-0.196200	0.083087	-10.442447	-0.304852	0.396454	-0.784168	-0.021821	-0.003718	0.004571
203	1.044119	0.005000	-0.159149	0.115531	-10.474891	-0.304631	0.396786	-0.783674	-0.004759	-0.009341	0.005764
204	1.049119	0.005000	-0.195710	0.117720	-10.516320	-0.304444	0.397049	-0.783561	-0.001370	-0.007894	-0.000290
205	1.054119	0.005000	-0.229041	0.080613	-10.590534	-0.304334	0.397159	-0.784301	-0.004908	0.000971	0.001562
206	1.059119	0.005000	-0.204406	0.000000	-10.586594	-0.304223	0.397270	-0.785040	-0.001748	-0.006797	0.010613
207	1.064119	0.005000	-0.196200	-0.065441	-10.581761	-0.304113	0.397380	-0.785780	-0.015344	-0.003311	0.003169
208	1.069119	0.005000	-0.156960	0.012782	-10.542778	-0.304002	0.397490	-0.786520	-0.018068	-0.001525	0.013327
209	1.074119	0.005000	-0.139460	0.106850	-10.477080	-0.303892	0.397601	-0.787260	-0.016339	-0.003287	0.008924
210	1.079119	0.005000	-0.182916	0.000612	-10.555560	-0.303781	0.397711	-0.787999	-0.013733	-0.008912	0.002228
211	1.084119	0.005000	-0.204429	-0.078480	-10.516320	-0.303671	0.397822	-0.788739	-0.006846	-0.005066	0.021428
212	1.089119	0.005000	-0.121685	0.003965	-10.559525	-0.303560	0.397932	-0.789479	-0.012473	-0.008757	0.000666
213	1.094119	0.005000	-0.196200	0.038398	-10.536361	-0.303450	0.398042	-0.790218	-0.004075	-0.012563	0.015228
214	1.099119	0.005000	-0.240583	0.051145	-10.555560	-0.303340	0.398153	-0.790958	-0.014072	-0.002689	0.006682
215	1.104119	0.005000	-0.211045	0.132565	-10.604350	-0.303229	0.398263	-0.791698	-0.019934	-0.006342	0.009589
216	1.109119	0.005000	-0.237384	0.078480	-10.543128	-0.303119	0.398373	-0.792437	-0.013657	-0.003782	0.007985
217	1.114119	0.005000	-0.206224	0.068456	-10.535511	-0.303008	0.398484	-0.793177	-0.013554	-0.010005	-0.002367
218	1.119119	0.005000	-0.243427	0.015974	-10.516320	-0.302985	0.398333	-0.793041	-0.014911	-0.016965	0.002330
219	1.124119	0.005000	-0.235440	0.106390	-10.589135	-0.302985	0.398112	-0.792671	-0.015945	-0.004447	0.005570
220	1.129119	0.005000	-0.232180	-0.045760	-10.588280	-0.302985	0.397891	-0.792301	-0.001801	-0.001899	0.012679
221	1.134119	0.005000	-0.156960	0.039240	-10.552958	-0.302985	0.397670	-0.791932	-0.006256	0.004651	-0.002641
222	1.139119	0.005000	-0.118822	0.039240	-10.553356	-0.302985	0.397450	-0.791562	-0.007705	-0.000546	0.001023
223	1.144119	0.005000	-0.117720	0.110792	-10.519784	-0.302985	0.397229	-0.791192	-0.004868	0.002987	0.014802
224	1.149119	0.005000	-0.073030	-0.028339	-10.589350	-0.302985	0.397008	-0.790822	-0.008874	-0.001658	-0.000341
225	1.154119	0.005000	-0.156960	0.109854	-10.492813	-0.302985	0.396787	-0.790452	-0.000961	-0.009517	0.013332
226	1.159119	0.005000	-0.196200	0.068670	-10.447650	-0.302985	0.396566	-0.790082	-0.007354	-0.000588	0.002959
227	1.164119	0.005000	-0.211005	0.102915	-10.540755	-0.302985	0.396346	-0.789713	-0.005120	-0.008425	0.008941
228	1.169119	0.005000	-0.235440	-0.078480	-10.594800	-0.302985	0.396125	-0.789343	-0.005344	-0.000414	0.009892
229	1.174119	0.005000	-0.274680	0.006109	-10.572126	-0.302985	0.395904	-0.788973	-0.016437	-0.002688	-0.003947
230	1.179119	0.005000	-0.255703	0.058217	-10.574537	-0.302985	0.395683	-0.788603	-0.004887	-0.013638	0.012589
231	1.184119	0.005000	-0.232415	0.075455	-10.416707	-0.303045	0.395552	-0.788233	-0.006919	0.009096	-0.002754
232	1.189119	0.005000	-0.242865	0.039240	-10.539653	-0.303266	0.395662	-0.787863	-0.012217	0.005761	0.001734
233	1.194119	0.005000	-0.144717	0.025742	-10.543317	-0.303487	0.395773	-0.787493	-0.020268	0.006227	0.005534
234	1.199119	0.005000	-0.156960	0.117720	-10.583379	-0.303708	0.395883	-0.787123	-0.010912	-0.008934	-0.002797
235	1.204119	0.005000	-0.166100	0.078480	-10.437840	-0.303929	0.395994	-0.786752	-0.004531	-0.002699	0.008591
236	1.209119	0.005000	-0.228330	-0.007110	-10.459169	-0.304150	0.396104	-0.786382	-0.013605	-0.003551	-0.004034
237	1.214119	0.005000	-0.103349	0.048820	-10.599590	-0.304371	0.396215	-0.786012	-0.000130	-0.005498	0.009159
238	1.219119	0.005000	-0.154587	0.041613	-10.668534	-0.304592	0.396326	-0.785642	-0.007092	-0.000439	0.007615
239	1.224119	0.005000	-0.156113	0.078056	-10.672856	-0.304813	0.396436	-0.785272	0.004859	-0.011430	-0.003971
240	1.229119	0.005000	-0.227540	0.001975	-10.634040	-0.305034	0.396547	-0.784902	-0.008933	-0.004551	0.007495
241	1.234119	0.005000	-0.188361	0.074561	-10.520239	-0.305255	0.396657	-0.784531	-0.012978	-0.007874	0.005617
242	1.239119	0.005000	-0.196200	0.078480	-10.522643	-0.305476	0.396768	-0.784161	-0.012866	-0.008228	0.012000
243	1.244119	0.005000	-0.204467	0.016535	-10.460545	-0.305697	0.396878	-0.783791	-0.019577	0.003185	0.008872
244	1.249119	0.005000	-0.185518	0.028558	-10.544878	-0.305918	0.396989	-0.783421	-0.012777	0.000121	0.004511
245	1.254119	0.005000	-0.183266	0.026306	-10.568494	-0.306560	0.396678	-0.782769	-0.005733	0.003997	0.015952
246	1.259119	0.005000	-0.156960	0.030069	-10.501285	-0.307333	0.396236	-0.782028	-0.007976	-0.001530	-0.002023
247	1.264119	0.005000	-0.156960	0.009500	-10.459835	-0.308106	0.395794	-0.781288	-0.020108	-0.003628	-0.002039
248	1.269119	0.005000	-0.137570	0.117261	-10.536170	-0.308879	0.395353	-0.780548	-0.012875	-0.013796	-0.006033
249	1.274119	0.005000	-0.235440	0.082843	-10.494518	-0.309652	0.394911	-0.779808	-0.009952	-0.014704	0.007693
250	1.279119	0.005000	-0.219946	0.023746	-10.531814	-0.310426	0.394469	-0.779068	-0.021844	-0.009595	0.004236
251	1.284119	0.005000	-0.170030	0.078480	-10.477080	-0.311199	0.394027	-0.778328	-0.010535	-0.005058	0.003893
252	1.289119	0.005000	-0.156960	0.039240	-10.505307	-0.311972	0.393585	-0.777588	-0.014047	0.004691	-0.001210
253	1.294119	0.005000	-0.226713	-0.047967	-10.603527	-0.312745	0.393144	-0.776848	-0.010669	0.000916	-0.004613
254	1.299119	0.005000	-0.235440	0.006321	-10.594800	-0.313518	0.392702	-0.776108	-0.011010	-0.005840	0.005542
255	1.304119	0.005000	-0.300784	0.030483	-10.594800	-0.314291	0.392260	-0.775368	-0.017319	-0.004926	0.008968
256	1.309119	0.005000	-0.235440	-0.001974	-10.594800	-0.315065	0.391818	-0.774628	-0.009502	-0.011415	0.003366
257	1.314119	0.005000	-0.196139	0.000000	-10.555499	-0.315838	0.391377	-0.773888	-0.012740	0.000348	0.007935
258	1.319119	0.005000	-0.154573	0.036853	-10.440227	-0.316280	0.391183	-0.773610	-0.012137	-0.008777	-0.001181
259	1.324119	0.005000	-0.117720	-0.004735	-10.521055	-0.315728	0.391735	-0.774721	-0.010508	-0.013550	0.008335
260	1.329119	0.005000	-0.189464	0.039240	-10.483816	-0.315175	0.392288	-0.775831	-0.013177	-0.004083	-0.004201
261	1.334119	0.005000	-0.196200	0.099416	-10.437840	-0.314623	0.392840	-0.776942	-0.004876	-0.013096	0.012259
262	1.339119	0.005000	-0.156960	0.089576	-10.443793	-0.314070	0.393393	-0.778052	-0.006053	0.000595	-0.003828
263	1.344119	0.005000	-0.144727	0.051473	-10.516320	-0.313517	0.393945	-0.779163	-0.007669	-0.007930	-0.001149
264	1.349119	0.005000	-0.117720	0.015732	-10.563517	-0.312965	0.394498	-0.780273	-0.018230	-0.007436	0.012640
265	1.354119	0.005000	-0.242480	-0.003520	-10.559080	-0.312412	0.395050	-0.781384	-0.019970	-0.012999	-0.006861
266	1.359119	0.005000	-0.274680	0.040057	-10.555560	-0.311860	0.395603	-0.782494	-0.008704	-0.013015	0.010003
267	1.364119	0.005000	-0.235440	-0.039240	-10.533141	-0.311307	0.396155	-0.783605	-0.008948	-0.007261	0.004827
268	1.369119	0.005000	-0.156960	-0.039240	-10.535542	-0.310755	0.396707	-0.784716	-0.009351	-0.007810	0.000493
269	1.374119	0.005000	-0.247965	-0.025051	-10.582275	-0.310202	0.397260	-0.785826	-0.018197	-0.004644	0.009318
270	1.379119	0.005000	-0.156960	-0.028971	-10.594800	-0.309650	0.397812	-0.786937	-0.014050	-0.004011	0.004004
271	1.384119	0.005000	-0.133428	0.062772	-10.508466	-0.309097	0.398365	-0.788047	-0.012217	-0.011861	0.014304
272	1.389119	0.005000	-0.217923	0.027562	-10.543882	-0.308709	0.398589	-0.788241	-0.022666	0.002074	0.004290
273	1.394119	0.005000	-0.160465	-0.039240	-10.484089	-0.308378	0.398700	-0.788118	-0.010383	-0.010666	0.003973
274	1.399119	0.005000	-0.081566	0.037697	-10.627868	-0.308046	0.398810	-0.787995	-0.014722	-0.015479	0.008979
275	1.404119	0.005000	-0.156960	-0.076766	-10.477080	-0.307715	0.398920	-0.787872	-0.003711	-0.013063	-0.004863
276	1.409119	0.005000	-0.235440	-0.009783	-10.558821	-0.307384	0.399031	-0.787748	-0.004678	-0.008997	0.002658
277	1.414119	0.005000	-0.201812	0.050464	-10.589188	-0.307052	0.399141	-0.787625	-0.008961	-0.005202	0.001108
278	1.419119	0.005000	-0.062104	0.078480	-10.477080	-0.306721	0.399252	-0.787502	-0.004155	-0.007094	0.015984
279	1.424119	0.005000	-0.088508	-0.009155	-10.545532	-0.306390	0.399362	-0.787378	-0.015974	0.001290	-0.000931
280	1.429119	0.005000	-0.154615	-0.009954	-10.570203	-0.306059	0.399473	-0.787255	-0.010583	-0.006259	-0.000501
281	1.434119	0.005000	-0.181814	0.039240	-10.452226	-0.305727	0.399583	-0.787132	-0.017325	-0.010192	0.011709
282	1.439119	0.005000	-0.156960	0.056035	-10.533115	-0.305396	0.399694	-0.787009	-0.015016	-0.006256	-0.002286
283	1.444119	0.005000	-0.177215	-0.040511	-10.535305	-0.305065	0.399804	-0.786885	-0.016559	-0.016534	0.016581
284	1.449119	0.005000	-0.214297	0.000000	-10.552513	-0.304733	0.399915	-0.786762	-0.017552	-0.003863	0.006116
285	1.454119	0.005000	-0.274680	-0.031918	-10.610759	-0.304478	0.400076	-0.786724	-0.000294	-0.011690	-0.002612
286	1.459119	0.005000	-0.182457	0.025497	-10.592810	-0.304478	0.400407	-0.786970	-0.018195	-0.006542	-0.001527
287	1.464119	0.005000	-0.117720	0.095061	-10.527650	-0.304478	0.400738	-0.787217	-0.024493	-0.007558	-0.000013
288	1.469119	0.005000	-0.186927	-0.020694	-10.566981	-0.304478	0.401070	-0.787463	-0.011952	-0.000701	0.012940
289	1.474119	0.005000	-0.117720	0.071501	-10.444819	-0.304478	0.401401	-0.787710	-0.007330	0.003271	0.010628
290	1.479119	0.005000	-0.200762	-0.039240	-10.486205	-0.304478	0.401732	-0.787956	-0.015973	-0.001290	0.008379
291	1.484119	0.005000	-0.232853	0.000000	-10.594800	-0.304478	0.402063	-0.788203	-0.017176	0.003574	0.005075
292	1.489119	0.005000	-0.078694	0.000000	-10.476866	-0.304478	0.402395	-0.788449	-0.014964	0.003365	0.005037
293	1.494119	0.005000	-0.155230	0.037510	-10.475350	-0.304478	0.402726	-0.788696	-0.020516	-0.004729	0.003991
294	1.499119	0.005000	-0.082627	0.039240	-10.481227	-0.304478	0.403057	-0.788942	-0.014893	-0.007933	0.000445
295	1.504119	0.005000	-0.189726	0.072006	-10.555560	-0.304478	0.403388	-0.789189	-0.015916	-0.015445	0.016783
296	1.509119	0.005000	-0.165457	0.109223	-10.538566	-0.304478	0.403719	-0.789435	-0.018679	-0.001551	0.008333
297	1.514119	0.005000	-0.213869	0.078480	-10.573229	-0.304478	0.404051	-0.789682	-0.011315	-0.001607	0.004613
298	1.519119	0.005000	-0.169101	0.026395	-10.542715	-0.304478	0.404382	-0.789929	-0.018855	0.001193	0.005890
299	1.524119	0.005000	-0.148237	0.063222	-10.516320	-0.304400	0.404007	-0.790088	-0.016080	-0.007263	0.003572
300	1.529119	0.005000	-0.235440	0.109067	-10.555560	-0.304289	0.403344	-0.790211	-0.011245	-0.003369	0.016922
301	1.534119	0.005000	-0.117705	0.098108	-10.575188	-0.304178	0.402681	-0.790334	-0.023904	-0.008440	0.011537
302	1.539119	0.005000	-0.139743	0.066068	-10.499103	-0.304068	0.402018	-0.790458	-0.017805	-0.007464	0.008411
303	1.544119	0.005000	-0.124301	-0.008693	-10.603493	-0.303957	0.401355	-0.790581	-0.014242	0.001297	0.007147
304	1.549119	0.005000	-0.157618	-0.012861	-10.606344	-0.303847	0.400692	-0.790705	-0.020893	-0.009449	0.009468
305	1.554119	0.005000	-0.100051	0.021571	-10.662494	-0.303736	0.400029	-0.790828	-0.022885	-0.009189	0.008092
306	1.559119	0.005000	-0.226931	0.013713	-10.524829	-0.303626	0.399366	-0.790952	-0.013304	-0.003800	0.015370
307	1.564119	0.005000	-0.156960	-0.020960	-10.534600	-0.303515	0.398703	-0.791075	-0.006845	-0.002735	0.018275
308	1.569119	0.005000	-0.161059	-0.004099	-10.598899	-0.303405	0.398040	-0.791198	-0.016600	0.000902	0.003253
309	1.574119	0.005000	-0.160449	0.039240	-10.594800	-0.303294	0.397377	-0.791322	-0.011559	-0.013660	0.006040
310	1.579119	0.005000	-0.158291	0.000666	-10.556226	-0.303184	0.396714	-0.791445	-0.013691	-0.006657	0.005097
311	1.584119	0.005000	-0.232823	-0.081097	-10.555560	-0.303073	0.396050	-0.791569	-0.023776	-0.002448	0.006145
312	1.589119	0.005000	-0.269658	-0.015065	-10.437840	-0.302985	0.395589	-0.791667	-0.004808	-0.010660	0.019013
313	1.594119	0.005000	-0.306957	0.006963	-10.509357	-0.302985	0.395920	-0.791667	-0.012879	-0.007526	-0.001223
314	1.599119	0.005000	-0.284050	0.069110	-10.605931	-0.302985	0.396252	-0.791667	-0.012701	-0.020648	0.007897
315	1.604119	0.005000	-0.212144	0.090128	-10.555560	-0.302985	0.396583	-0.791667	-0.023033	0.002908	-0.001189
316	1.609119	0.005000	-0.260952	0.013728	-10.557504	-0.302985	0.396914	-0.791667	-0.019915	-0.004706	0.000063
317	1.614119	0.005000	-0.219496	-0.007352	-10.532264	-0.302985	0.397245	-0.791667	-0.018072	-0.002776	0.006825
318	1.619119	0.005000	-0.135801	0.024236	-10.591723	-0.302985	0.397577	-0.791667	-0.012606	0.005415	0.001610
319	1.624119	0.005000	-0.175945	0.078480	-10.456825	-0.302985	0.397908	-0.791667	-0.004953	0.001942	0.004734
320	1.629119	0.005000	-0.190568	0.095284	-10.449012	-0.302985	0.398239	-0.791667	-0.011776	0.003450	0.007466
321	1.634119	0.005000	-0.206657	0.088937	-10.569952	-0.302985	0.398570	-0.791667	-0.004479	-0.008162	0.010027
322	1.639119	0.005000	-0.198545	0.080825	-10.504022	-0.302985	0.398902	-0.791667	-0.014424	0.000930	0.004876
323	1.644119	0.005000	-0.167000	0.059319	-10.555560	-0.302985	0.399233	-0.791667	-0.011437	-0.000204	-0.008308
324	1.649119	0.005000	-0.235440	0.023235	-10.594800	-0.302985	0.399564	-0.791667	-0.010333	0.004193	0.016871
325	1.654119	0.005000	-0.184840	0.050600	-10.606160	-0.302985	0.399895	-0.791667	-0.014078	0.009632	0.003886
326	1.659119	0.005000	-0.196200	0.049065	-10.555560	-0.302985	0.400151	-0.791836	-0.012216	-0.003748	0.005041
327	1.664119	0.005000	-0.193568	0.078480	-10.517636	-0.302985	0.400372	-0.792082	-0.014245	-0.003691	0.009676
328	1.669119	0.005000	-0.155888	0.078480	-10.555560	-0.302985	0.400593	-0.792329	-0.013928	-0.010484	0.009084
329	1.674119	0.005000	-0.192751	0.117720	-10.587902	-0.302985	0.400814	-0.792576	-0.016777	-0.000671	0.001359
330	1.679119	0.005000	-0.196200	0.117720	-10.560993	-0.302985	0.401035	-0.792822	-0.014009	-0.005592	-0.013379
331	1.684119	0.005000	-0.203945	0.078480	-10.579310	-0.302985	0.401255	-0.793069	-0.005274	0.001022	0.004420
332	1.689119	0.005000	-0.127503	-0.029457	-10.673280	-0.302985	0.401476	-0.793315	-0.015983	-0.000013	0.001609
333	1.694119	0.005000	-0.117720	0.066283	-10.606997	-0.302985	0.401697	-0.793562	-0.014935	-0.007442	0.008209
334	1.699119	0.005000	-0.152382	0.039240	-10.594800	-0.302985	0.401918	-0.793809	-0.008750	0.009044	0.006116
335	1.704119	0.005000	-0.257859	-0.022419	-10.566784	-0.302985	0.402139	-0.794055	-0.016188	-0.004919	0.005706
336	1.709119	0.005000	-0.155644	0.000000	-10.556876	-0.302985	0.402360	-0.794302	-0.006793	-0.006450	0.019194
337	1.714119	0.005000	-0.046252	-0.096347	-10.559066	-0.302985	0.402581	-0.794549	-0.013620	0.007885	-0.000305
338	1.719119	0.005000	-0.149185	-0.054972	-10.602575	-0.302985	0.402802	-0.794795	-0.018591	-0.003363	0.001617
339	1.724119	0.005000	-0.143446	0.013514	-10.607013	-0.302985	0.402985	-0.794979	-0.014424	0.003593	0.006373
340	1.729119	0.005000	-0.173328	0.062112	-10.544124	-0.302985	0.402985	-0.794856	-0.019372	0.003040	0.004703
341	1.734119	0.005000	-0.136031	0.226285	-10.525475	-0.302985	0.402985	-0.794732	-0.013015	-0.005891	0.017940
342	1.739119	0.005000	-0.196200	0.150208	-10.588048	-0.302985	0.402985	-0.794609	-0.012241	-0.005967	-0.001386
343	1.744119	0.005000	-0.191450	-0.039240	-10.565060	-0.302985	0.402985	-0.794485	-0.004096	-0.004544	0.014698
344	1.749119	0.005000	-0.196200	-0.034434	-10.555560	-0.302985	0.402985	-0.794362	-0.009411	-0.007232	0.006099
345	1.754119	0.005000	-0.195746	-0.039694	-10.594346	-0.302985	0.402985	-0.794238	-0.006510	-0.009850	0.007435
346	1.759119	0.005000	-0.231522	-0.041199	-10.555560	-0.302985	0.402985	-0.794115	-0.003040	0.000581	0.007053
347	1.764119	0.005000	-0.235440	0.104786	-10.603423	-0.302985	0.402985	-0.793992	-0.009472	-0.007461	-0.002179
348	1.769119	0.005000	-0.202508	0.012616	-10.477080	-0.302985	0.402985	-0.793868	-0.017811	-0.002792	0.002792
349	1.774119	0.005000	-0.235440	-0.069757	-10.498873	-0.302985	0.402985	-0.793745	-0.013046	-0.011559	-0.006710
350	1.779119	0.005000	-0.185533	-0.003428	-10.584133	-0.302985	0.402985	-0.793621	-0.012058	-0.006393	0.005940
351	1.784119	0.005000	-0.196200	0.091555	-10.620965	-0.302985	0.402985	-0.793498	-0.022134	-0.004995	0.000334
352	1.789119	0.005000	-0.172269	-0.032554	-10.564183	-0.302985	0.402985	-0.793375	-0.014111	-0.005176	0.005820
353	1.794119	0.005000	-0.218009	-0.056671	-10.577369	-0.302985	0.402765	-0.793169	-0.013689	0.001845	0.002189
354	1.799119	0.005000	-0.235410	0.058845	-10.575165	-0.302985	0.402434	-0.792923	-0.008894	0.003125	0.000233
355	1.804119	0.005000	-0.122053	0.013121	-10.594800	-0.302985	0.402102	-0.792676	-0.005045	-0.006713	0.008061
356	1.809119	0.005000	-0.123630	0.015050	-10.609850	-0.302985	0.401771	-0.792429	-0.014488	-0.003442	0.009502
357	1.814119	0.005000	-0.274680	0.117720	-10.503371	-0.302985	0.401440	-0.792183	-0.006636	-0.014067	0.009980
358	1.819119	0.005000	-0.185502	0.049938	-10.505622	-0.302985	0.401108	-0.791936	-0.006171	-0.003670	0.010485
359	1.824119	0.005000	-0.070197	-0.008283	-10.462688	-0.302985	0.400777	-0.791689	-0.012689	-0.000659	0.000593
360	1.829119	0.005000	-0.150697	0.000000	-10.555560	-0.302985	0.400446	-0.791443	-0.010845	-0.001673	0.007701
361	1.834119	0.005000	-0.149094	0.070614	-10.594800	-0.302985	0.400114	-0.791196	-0.018056	-0.004501	-0.005138
362	1.839119	0.005000	-0.119236	-0.075449	-10.591769	-0.302985	0.399783	-0.790950	-0.018443	-0.004325	0.001619
363	1.844119	0.005000	-0.156960	0.000000	-10.516320	-0.302985	0.399451	-0.790703	-0.006694	0.000208	-0.002983
364	1.849119	0.005000	-0.156960	-0.109324	-10.552761	-0.302985	0.399120	-0.790456	-0.009797	-0.008920	0.000537
365	1.854119	0.005000	-0.092810	-0.014330	-10.511543	-0.302985	0.398789	-0.790210	-0.004614	-0.002609	0.011384
366	1.859119	0.005000	-0.196200	-0.007193	-10.516320	-0.302985	0.398524	-0.790000	-0.020659	0.004481	-0.000353
367	1.864119	0.005000	-0.167746	0.018970	-10.554259	-0.302985	0.398634	-0.790000	-0.014574	-0.004942	0.009211
368	1.869119	0.005000	-0.129264	0.050784	-10.477080	-0.302985	0.398744	-0.790000	-0.012871	-0.002721	0.005456
369	1.874119	0.005000	-0.168608	0.194052	-10.477080	-0.302985	0.398855	-0.790000	-0.007535	-0.009602	0.003402
370	1.879119	0.005000	-0.156960	0.071024	-10.507884	-0.302985	0.398965	-0.790000	-0.019354	-0.004312	-0.002773
371	1.884119	0.005000	-0.217136	-0.020936	-10.631408	-0.302985	0.399076	-0.790000	-0.006902	-0.012228	-0.004632
372	1.889119	0.005000	-0.214973	0.098947	-10.613573	-0.302985	0.399186	-0.790000	-0.016483	-0.015777	0.010280
373	1.894119	0.005000	-0.268602	0.055821	-10.538979	-0.302985	0.399297	-0.790000	-0.012343	-0.005215	-0.003079
374	1.899119	0.005000	-0.284997	0.088797	-10.545243	-0.302985	0.399407	-0.790000	0.001176	-0.014986	0.004909
375	1.904119	0.005000	-0.250224	0.129948	-10.609584	-0.302985	0.399518	-0.790000	-0.016850	0.000730	0.005418
376	1.909119	0.005000	-0.186386	0.078465	-10.565374	-0.302985	0.399628	-0.790000	-0.018440	-0.012029	0.000611
377	1.914119	0.005000	-0.227665	-0.031465	-10.602575	-0.302985	0.399738	-0.790000	-0.014941	-0.004391	0.009017
378	1.919119	0.005000	-0.190736	0.010927	-10.555560	-0.302985	0.399849	-0.790000	-0.018128	-0.008237	-0.005411
379	1.924119	0.005000	-0.196200	-0.006959	-10.526758	-0.302985	0.399959	-0.790000	-0.012333	-0.006676	0.010810
380	1.929119	0.005000	-0.158062	-0.076275	-10.516320	-0.303055	0.400070	-0.790078	-0.022276	0.014690	0.004115
381	1.934119	0.005000	-0.196200	0.037954	-10.516320	-0.303165	0.400180	-0.790201	-0.019002	-0.004393	0.015209
382	1.939119	0.005000	-0.196200	-0.035994	-10.555560	-0.303276	0.400291	-0.790325	-0.007261	-0.009039	0.012429
383	1.944119	0.005000	-0.089805	0.044903	-10.398600	-0.303386	0.400401	-0.790448	-0.010298	-0.010012	-0.003478
384	1.949119	0.005000	-0.219496	-0.007972	-10.516320	-0.303497	0.400512	-0.790572	0.005140	-0.004590	0.009487
385	1.954119	0.005000	-0.206209	0.048453	-10.418618	-0.303607	0.400622	-0.790695	-0.009995	0.001648	0.000823
386	1.959119	0.005000	-0.208617	-0.039240	-10.425423	-0.303718	0.400733	-0.790818	-0.009954	-0.002541	0.011687
387	1.964119	0.005000	-0.166883	-0.049163	-10.501662	-0.303828	0.400843	-0.790942	-0.012532	-0.001964	0.009433
388	1.969119	0.005000	-0.156960	0.039240	-10.572333	-0.303939	0.400954	-0.791065	-0.011568	-0.008292	0.003510
389	1.974119	0.005000	-0.118593	0.079353	-10.476207	-0.304050	0.401065	-0.791189	-0.013719	-0.004037	0.006423
390	1.979119	0.005000	-0.156960	0.039240	-10.477080	-0.304160	0.401175	-0.791312	-0.008735	0.004217	0.001835
391	1.984119	0.005000	-0.156960	0.023538	-10.500618	-0.304271	0.401286	-0.791435	-0.002546	-0.003913	0.009421
392	1.989119	0.005000	-0.170559	-0.039240	-10.606841	-0.304381	0.401396	-0.791559	-0.008516	-0.004032	0.011736
393	1.994119	0.005000	-0.168305	0.067135	-10.521525	-0.304519	0.401425	-0.791667	-0.010042	-0.007792	0.008957
394	1.999119	0.005000	-0.265392	0.050616	-10.486368	-0.304850	0.400872	-0.791667	-0.011176	-0.006461	0.003103
395	2.004119	0.005000	-0.235440	0.000000	-10.523314	-0.305182	0.400320	-0.791667	-0.013948	-0.008957	-0.003054
396	2.009119	0.005000	-0.260947	-0.030085	-10.560138	-0.305513	0.399768	-0.791667	-0.006492	-0.009319	0.013582
397	2.014119	0.005000	-0.159593	-0.031340	-10.589533	-0.305844	0.399216	-0.791667	-0.013052	0.001333	0.008190
398	2.019119	0.005000	-0.157190	0.039010	-10.672132	-0.306176	0.398663	-0.791667	-0.010897	-0.007487	0.014096
399	2.024119	0.005000	-0.196200	-0.037526	-10.514606	-0.306507	0.398111	-0.791667	-0.002514	-0.008591	0.012704
400	2.029119	0.005000	-0.121838	-0.082598	-10.559678	-0.306838	0.397559	-0.791667	-0.012763	-0.006174	0.002107
401	2.034119	0.005000	-0.123783	0.060292	-10.464954	-0.307169	0.397006	-0.791667	-0.008806	-0.004326	0.009015
402	2.039119	0.005000	-0.187721	0.039240	-10.524799	-0.307501	0.396454	-0.791667	-0.024743	0.001759	-0.001346
403	2.044119	0.005000	-0.206955	0.049995	-10.623285	-0.307832	0.395902	-0.791667	-0.012280	-0.009409	0.003206
404	2.049119	0.005000	-0.235440	0.091310	-10.477080	-0.308163	0.395350	-0.791667	-0.009515	-0.001441	0.001087
405	2.054119	0.005000	-0.187446	0.063237	-10.555560	-0.308495	0.394797	-0.791667	-0.007267	-0.007413	0.001087
406	2.059119	0.005000	-0.179013	-0.022053	-10.611987	-0.308826	0.394245	-0.791667	-0.010389	-0.005515	0.007130
407	2.064119	0.005000	-0.255083	-0.078480	-10.634086	-0.309900	0.393828	-0.789633	-0.013422	-0.000352	0.004442
408	2.069119	0.005000	-0.196200	-0.039240	-10.555560	-0.311447	0.393496	-0.786301	-0.006938	-0.005836	0.012304
409	2.074119	0.005000	-0.235440	0.156960	-10.524982	-0.312994	0.393165	-0.782970	-0.005158	0.002645	-0.005168
410	2.079119	0.005000	-0.183324	0.117720	-10.568436	-0.314541	0.392833	-0.779638	-0.012816	-0.013993	0.005059
411	2.084119	0.005000	-0.196200	0.078480	-10.612177	-0.316088	0.392501	-0.776306	-0.006542	0.010436	0.004865
412	2.089119	0.005000	-0.235440	0.056296	-10.608457	-0.317635	0.392170	-0.772975	-0.005431	-0.003442	0.003577
413	2.094119	0.005000	-0.235440	0.117720	-10.581791	-0.319182	0.391838	-0.769643	-0.004668	-0.011419	0.023395
414	2.099119	0.005000	-0.231262	0.074302	-10.481258	-0.320729	0.391507	-0.766311	-0.003898	-0.002138	0.003899
415	2.104119	0.005000	-0.160481	-0.003521	-10.557321	-0.322276	0.391175	-0.762980	-0.011149	-0.005040	0.007178
416	2.109119	0.005000	-0.313553	-0.000367	-10.438575	-0.323823	0.390844	-0.759648	-0.023345	0.002631	0.009190
417	2.114119	0.005000	-0.235440	0.002556	-10.626371	-0.325370	0.390512	-0.756317	-0.011703	-0.004199	0.006578
418	2.119119	0.005000	-0.239972	-0.039240	-10.486144	-0.326917	0.390181	-0.752985	-0.009348	-0.009968	0.007756
419	2.124119	0.005000	-0.143064	-0.006948	-10.587852	-0.328464	0.389849	-0.749653	-0.008857	-0.000654	-0.002399
420	2.129119	0.005000	-0.117720	-0.009243	-10.546317	-0.329679	0.389621	-0.746961	0.000346	-0.004649	0.007085
421	2.134119	0.005000	-0.201543	-0.050539	-10.566859	-0.328022	0.390284	-0.749799	-0.015109	-0.003536	0.002726
422	2.139119	0.005000	-0.247255	0.025527	-10.516320	-0.326364	0.390947	-0.752637	-0.013658	-0.016555	0.007900
423	2.144119	0.005000	-0.228058	0.008547	-10.469698	-0.324707	0.391610	-0.755475	-0.025581	-0.004499	-0.004212
424	2.149119	0.005000	-0.138894	-0.003108	-10.455906	-0.323049	0.392273	-0.758313	-0.019610	-0.007492	0.006522
425	2.154119	0.005000	-0.156960	0.058003	-10.494129	-0.321392	0.392936	-0.761151	-0.007527	-0.008465	0.014831
426	2.159119	0.005000	-0.117720	0.123308	-10.460254	-0.319734	0.393599	-0.763989	-0.019078	0.002473	0.000524
427	2.164119	0.005000	-0.156960	0.000000	-10.530737	-0.318077	0.394262	-0.766827	-0.009836	-0.008914	0.009894
428	2.169119	0.005000	-0.196200	0.000000	-10.489409	-0.316419	0.394925	-0.769665	-0.014796	-0.005817	0.001744
429	2.174119	0.005000	-0.235440	-0.029181	-10.594800	-0.314762	0.395588	-0.772503	-0.015652	-0.000934	0.006772
430	2.179119	0.005000	-0.259376	0.000000	-10.532604	-0.313104	0.396251	-0.775341	-0.012511	-0.001045	0.011777
431	2.184119	0.005000	-0.089765	-0.027955	-10.482722	-0.311447	0.396914	-0.778179	-0.013027	0.000677	0.002855
432	2.189119	0.005000	-0.153668	-0.006583	-10.480372	-0.309789	0.397577	-0.781017	-0.012705	-0.004114	0.014373
433	2.194119	0.005000	-0.118608	-0.037465	-10.477968	-0.308132	0.398240	-0.783855	-0.011715	-0.002258	-0.002183
434	2.199119	0.005000	-0.156960	0.001056	-10.592687	-0.307331	0.398177	-0.785221	-0.018259	0.001549	0.006712
435	2.204119	0.005000	-0.088902	0.042714	-10.516320	-0.307110	0.397625	-0.785591	-0.018503	-0.001650	0.009188
436	2.209119	0.005000	-0.039240	-0.027622	-10.488698	-0.306889	0.397073	-0.785961	-0.014971	-0.003687	0.002981
437	2.214119	0.005000	-0.141313	0.015647	-10.445664	-0.306668	0.396520	-0.786331	-0.011600	-0.006121	0.035014
438	2.219119	0.005000	-0.225201	-0.078480	-10.613563	-0.306447	0.395968	-0.786702	-0.016917	0.003618	0.004466
439	2.224119	0.005000	-0.208846	-0.079781	-10.594800	-0.306226	0.395415	-0.787072	-0.017115	-0.006126	0.003365
440	2.229119	0.005000	-0.146901	-0.014591	-10.530911	-0.306005	0.394863	-0.787442	-0.017661	-0.007736	0.004067
441	2.234119	0.005000	-0.061486	0.039240	-10.538566	-0.305784	0.394310	-0.787812	-0.011491	-0.018937	0.002894
442	2.239119	0.005000	-0.116843	0.077603	-10.535501	-0.305563	0.393758	-0.788182	-0.010772	-0.003682	0.006434
443	2.244119	0.005000	-0.192741	0.117720	-10.459189	-0.305342	0.393205	-0.788552	-0.009432	0.002289	-0.003354
444	2.249119	0.005000	-0.141481	0.117720	-10.555560	-0.305121	0.392653	-0.788923	-0.003692	0.001721	0.001362
445	2.254119	0.005000	-0.104348	0.078480	-10.477080	-0.304900	0.392101	-0.789293	-0.009319	0.000774	-0.000702
446	2.259119	0.005000	-0.145834	0.056228	-10.482942	-0.304679	0.391548	-0.789663	-0.006700	-0.009207	0.005970
447	2.264119	0.005000	-0.104614	0.069769	-10.328831	-0.304508	0.391114	-0.790011	-0.013201	-0.009111	0.004745
448	2.269119	0.005000	-0.092014	0.071713	-10.424306	-0.304839	0.391888	-0.790134	-0.011098	-0.000816	-0.011404
449	2.274119	0.005000	-0.117720	0.000000	-10.481442	-0.305171	0.392661	-0.790258	-0.018109	-0.006110	0.007167
450	2.279119	0.005000	-0.078480	0.032070	-10.557950	-0.305502	0.393435	-0.790381	-0.019100	0.010042	0.000564
451	2.284119	0.005000	-0.117720	-0.039240	-10.555560	-0.305833	0.394208	-0.790505	-0.010625	-0.009063	0.014932
452	2.289119	0.005000	-0.080884	-0.036836	-10.555560	-0.306165	0.394982	-0.790628	-0.018556	0.004087	0.006010
453	2.294119	0.005000	-0.112955	-0.147430	-10.654220	-0.306496	0.395755	-0.790752	-0.006807	-0.004246	0.002144
454	2.299119	0.005000	-0.143431	-0.136667	-10.588036	-0.306828	0.396529	-0.790875	-0.006146	-0.002151	0.018134
455	2.304119	0.005000	-0.169016	0.021118	-10.564621	-0.307159	0.397302	-0.790998	-0.013853	-0.011419	0.000042
456	2.309119	0.005000	-0.263569	0.078480	-10.420822	-0.307491	0.398076	-0.791122	-0.012202	-0.016508	0.012941
457	2.314119	0.005000	-0.235440	0.027038	-10.436523	-0.307822	0.398849	-0.791245	-0.018429	0.001703	0.001454
458	2.319119	0.005000	-0.204202	0.015747	-10.453587	-0.308154	0.399623	-0.791369	-0.021494	-0.008430	0.002720
459	2.324119	0.005000	-0.174835	0.021365	-10.519809	-0.308485	0.400396	-0.791492	-0.013787	0.005345	0.006200
460	2.329119	0.005000	-0.097434	0.078480	-10.456794	-0.308817	0.401170	-0.791615	-0.015272	-0.009515	0.003636
461	2.334119	0.005000	-0.134730	0.022230	-10.504531	-0.308698	0.401557	-0.791667	-0.003399	-0.016832	0.006699
462	2.339119	0.005000	-0.196200	-0.049280	-10.609400	-0.308256	0.401668	-0.791667	-0.011693	-0.000339	-0.005608
463	2.344119	0.005000	-0.181980	-0.039240	-10.594800	-0.307814	0.401778	-0.791667	-0.011249	-0.011273	-0.000263
464	2.349119	0.005000	-0.127963	0.059725	-10.594800	-0.307372	0.401889	-0.791667	-0.012767	0.002791	0.009571
465	2.354119	0.005000	-0.196200	0.156960	-10.586601	-0.306931	0.401999	-0.791667	-0.004700	-0.003667	-0.001100
466	2.359119	0.005000	-0.196200	0.021564	-10.471188	-0.306489	0.402109	-0.791667	-0.000576	-0.014456	0.014135
467	2.364119	0.005000	-0.160435	-0.042715	-10.487506	-0.306047	0.402220	-0.791667	-0.013615	-0.007097	0.004105
468	2.369119	0.005000	-0.161498	-0.075455	-10.552535	-0.305605	0.402330	-0.791667	-0.011572	-0.010619	0.004205
469	2.374119	0.005000	-0.236313	0.000000	-10.553815	-0.305163	0.402441	-0.791667	-0.009265	-0.000265	-0.006842
470	2.379119	0.005000	-0.232202	0.039240	-10.519558	-0.304722	0.402551	-0.791667	-0.000415	-0.009839	-0.000795
471	2.384119	0.005000	-0.303478	0.073259	-10.628819	-0.304280	0.402661	-0.791667	-0.011576	-0.005013	0.008012
472	2.389119	0.005000	-0.227803	0.046877	-10.587163	-0.303838	0.402772	-0.791667	-0.018415	-0.005139	0.001491
473	2.394119	0.005000	-0.118174	0.000000	-10.506397	-0.303396	0.402882	-0.791667	-0.015934	0.011107	0.015734
474	2.399119	0.005000	-0.141696	0.054504	-10.540296	-0.302993	0.402977	-0.791676	-0.010385	0.002030	-0.003029
475	2.404119	0.005000	-0.156960	0.128491	-10.555560	-0.303103	0.402867	-0.791799	-0.010083	-0.014041	0.002772
476	2.409119	0.005000	-0.202750	0.039240	-10.594800	-0.303214	0.402756	-0.791922	-0.020750	0.003210	0.005052
477	2.414119	0.005000	-0.194470	0.039240	-10.555560	-0.303324	0.402646	-0.792046	-0.006975	-0.010484	-0.003958
478	2.419119	0.005000	-0.136039	0.041842	-10.479682	-0.303435	0.402536	-0.792169	-0.012261	-0.006323	0.014862
479	2.424119	0.005000	-0.235440	0.062349	-10.500189	-0.303545	0.402425	-0.792292	-0.013773	0.004544	0.003966
480	2.429119	0.005000	-0.145156	0.117720	-10.569278	-0.303656	0.402315	-0.792416	-0.010089	-0.004617	0.008533
481	2.434119	0.005000	-0.129030	0.145650	-10.594800	-0.303766	0.402204	-0.792539	-0.004561	-0.005498	-0.000686
482	2.439119	0.005000	-0.175692	0.087846	-10.506954	-0.303877	0.402094	-0.792662	-0.011642	-0.012463	0.003240
483	2.444119	0.005000	-0.228489	0.046191	-10.527757	-0.303987	0.401983	-0.792786	-0.012338	-0.007198	0.009824
484	2.449119	0.005000	-0.196200	0.039240	-10.521269	-0.304098	0.401873	-0.792909	-0.006508	-0.003556	-0.008020
485	2.454119	0.005000	-0.117720	0.036637	-10.555560	-0.304209	0.401762	-0.793032	-0.013515	-0.007088	0.010971
486	2.459119	0.005000	-0.156761	-0.000398	-10.477478	-0.304319	0.401652	-0.793156	-0.015743	0.004969	0.005583
487	2.464119	0.005000	-0.230204	-0.078480	-10.518065	-0.304430	0.401541	-0.793279	-0.009829	-0.007638	0.001570
488	2.469119	0.005000	-0.204525	-0.008325	-10.340934	-0.304354	0.401555	-0.793194	-0.006771	0.006121	-0.005165
489	2.474119	0.005000	-0.183064	-0.071912	-10.385464	-0.304133	0.401666	-0.792948	-0.009446	-0.007555	0.008829
490	2.479119	0.005000	-0.105119	-0.078480	-10.546680	-0.303912	0.401776	-0.792701	-0.016433	-0.005190	0.015455
491	2.484119	0.005000	-0.139574	-0.072022	-10.572946	-0.303691	0.401886	-0.792454	-0.024148	-0.005305	0.001949
492	2.489119	0.005000	-0.182865	0.000000	-10.542225	-0.303470	0.401997	-0.792207	-0.003191	-0.010864	0.016601
493	2.494119	0.005000	-0.196200	0.047348	-10.579234	-0.303249	0.402107	-0.791961	-0.014379	-0.001948	0.004334
494	2.499119	0.005000	-0.174652	0.017692	-10.573252	-0.303028	0.402218	-0.791714	-0.006985	-0.004402	0.013319
495	2.504119	0.005000	-0.215338	-0.019138	-10.555560	-0.302807	0.402328	-0.791467	-0.001799	0.001164	0.016601
496	2.509119	0.005000	-0.173688	-0.016728	-10.538832	-0.302586	0.402439	-0.791220	-0.016902	-0.002349	0.002939
497	2.514119	0.005000	-0.220827	0.053853	-10.501707	-0.302365	0.402549	-0.790973	-0.013899	-0.003963	0.007636
498	2.519119	0.005000	-0.130091	0.090851	-10.528691	-0.302144	0.402660	-0.790727	-0.023665	0.000775	-0.010845
499	2.524119	0.005000	-0.176894	0.069141	-10.545593	-0.301923	0.402770	-0.790480	-0.019693	-0.015367	0.000834
500	2.529119	0.005000	-0.188273	0.149033	-10.586873	-0.301702	0.402881	-0.790233	-0.006210	-0.003471	0.004727
501	2.534119	0.005000	-0.179350	0.089713	-10.600417	-0.301505	0.402967	-0.789986	-0.000785	-0.003602	0.005871
502	2.539119	0.005000	-0.147361	0.124120	-10.513120	-0.301726	0.402635	-0.789740	-0.012844	-0.014065	-0.000243
503	2.544119	0.005000	-0.118960	0.000000	-10.478320	-0.301947	0.402304	-0.789493	-0.015495	-0.012992	0.000406
504	2.549119	0.005000	-0.156960	0.114275	-10.478228	-0.302168	0.401972	-0.789246	-0.016406	-0.007641	0.009449
505	2.554119	0.005000	-0.271155	0.000000	-10.544986	-0.302389	0.401641	-0.788999	-0.018304	0.000516	-0.002255
506	2.559119	0.005000	-0.151450	-0.033730	-10.443350	-0.302610	0.401309	-0.788753	-0.012955	-0.005396	-0.007827
507	2.564119	0.005000	-0.086395	0.047155	-10.547645	-0.302831	0.400978	-0.788506	-0.011547	-0.008801	0.014524
508	2.569119	0.005000	-0.215018	0.000000	-10.594800	-0.303052	0.400646	-0.788259	-0.011386	-0.011939	0.007885
509	2.574119	0.005000	-0.247714	0.000000	-10.582526	-0.303273	0.400315	-0.788012	-0.012575	-0.007781	0.008429
510	2.579119	0.005000	-0.206075	-0.039240	-10.580118	-0.303494	0.399983	-0.787766	-0.023788	-0.002587	-0.001437
511	2.584119	0.005000	-0.112274	0.039240	-10.493977	-0.303715	0.399651	-0.787519	-0.006429	-0.011455	0.004960
512	2.589119	0.005000	-0.156960	0.058278	-10.497282	-0.303936	0.399320	-0.787272	-0.003287	-0.002432	0.006072
513	2.594119	0.005000	-0.174750	-0.060690	-10.569691	-0.304157	0.398988	-0.787025	-0.006184	-0.005933	-0.000703
514	2.599119	0.005000	-0.094335	0.015855	-10.578945	-0.304378	0.398657	-0.786779	-0.017745	-0.006594	0.016247
515	2.604119	0.005000	-0.170402	0.039240	-10.502878	-0.304539	0.398386	-0.786464	-0.006083	-0.002499	0.004091
516	2.609119	0.005000	-0.212719	0.050601	-10.539041	-0.304649	0.398165	-0.786094	-0.004051	-0.007253	0.008251
517	2.614119	0.005000	-0.126706	0.048226	-10.477080	-0.304759	0.397944	-0.785724	-0.012836	-0.013739	0.007011
518	2.619119	0.005000	-0.131070	0.000000	-10.529670	-0.304870	0.397723	-0.785354	-0.014066	-0.014257	0.004714
519	2.624119	0.005000	-0.048589	0.004674	-10.594800	-0.304980	0.397502	-0.784984	-0.010850	-0.008738	0.006760
520	2.629119	0.005000	-0.113121	0.000000	-10.557859	-0.305091	0.397281	-0.784614	-0.011888	-0.000550	-0.005192
521	2.634119	0.005000	-0.039240	0.039148	-10.555652	-0.305201	0.397061	-0.784244	-0.008070	-0.006725	0.009009
522	2.639119	0.005000	-0.190094	0.002035	-10.592765	-0.305311	0.396840	-0.783874	-0.017360	-0.002006	0.011061
523	2.644119	0.005000	-0.161400	0.030360	-10.560000	-0.305422	0.396619	-0.783504	0.000825	-0.009606	0.004881
524	2.649119	0.005000	-0.110943	0.078480	-10.425708	-0.305532	0.396398	-0.783134	-0.013369	-0.012760	-0.001221
525	2.654119	0.005000	-0.187400	-0.039240	-10.477080	-0.305643	0.396177	-0.782764	-0.022351	-0.006163	-0.009032
526	2.659119	0.005000	-0.207407	0.016826	-10.505113	-0.305753	0.395956	-0.782394	-0.007992	-0.010795	0.012384
527	2.664119	0.005000	-0.260067	0.065017	-10.542097	-0.305863	0.395735	-0.782024	-0.008207	-0.005230	0.005117
528	2.669119	0.005000	-0.266550	0.054795	-10.484505	-0.305966	0.395526	-0.781697	-0.005093	-0.008986	0.006779
529	2.674119	0.005000	-0.196200	0.039240	-10.534287	-0.305856	0.395636	-0.782560	-0.019640	-0.006066	0.004977
530	2.679119	0.005000	-0.078480	0.060403	-10.498243	-0.305745	0.395747	-0.783424	-0.006005	-0.011464	0.007137
531	2.684119	0.005000	-0.117720	0.039240	-10.538642	-0.305635	0.395857	-0.784287	-0.007959	-0.010496	0.007335
532	2.689119	0.005000	-0.181692	0.059686	-10.580292	-0.305525	0.395968	-0.785150	-0.004396	-0.014037	0.002910
533	2.694119	0.005000	-0.132121	0.000000	-10.489499	-0.305414	0.396078	-0.786014	-0.004916	-0.008773	0.007490
534	2.699119	0.005000	-0.098781	-0.058179	-10.516320	-0.305304	0.396189	-0.786877	-0.010090	0.004326	0.001623
535	2.704119	0.005000	-0.196200	0.007744	-10.461072	-0.305193	0.396299	-0.787740	-0.005103	-0.009574	0.003338
536	2.709119	0.005000	-0.123453	-0.022040	-10.437840	-0.305083	0.396410	-0.788603	-0.016785	0.001227	0.002722
537	2.714119	0.005000	-0.274680	0.006767	-10.516320	-0.304972	0.396520	-0.789467	-0.015514	-0.006599	0.007341
538	2.719119	0.005000	-0.155538	-0.002844	-10.514898	-0.304862	0.396631	-0.790330	-0.010994	-0.007329	0.019220
539	2.724119	0.005000	-0.079445	-0.001929	-10.362254	-0.304752	0.396741	-0.791193	-0.014538	-0.006986	-0.004756
540	2.729119	0.005000	-0.111034	-0.042583	-10.441183	-0.304641	0.396852	-0.792057	-0.015842	-0.002039	0.004375
541	2.734119	0.005000	-0.033914	0.039240	-10.510994	-0.304531	0.396962	-0.792920	-0.015704	0.000235	-0.006723
542	2.739119	0.005000	-0.141497	-0.046972	-10.555560	-0.304536	0.397246	-0.793140	-0.001714	-0.009337	0.009719
543	2.744119	0.005000	-0.088498	-0.010018	-10.545542	-0.304646	0.397688	-0.792770	-0.014193	-0.005258	0.001460
544	2.749119	0.005000	-0.184120	-0.039240	-10.516320	-0.304757	0.398130	-0.792400	-0.019374	-0.004059	0.004026
545	2.754119	0.005000	-0.171453	0.028986	-10.590561	-0.304867	0.398571	-0.792029	-0.007988	-0.011471	0.015712
546	2.759119	0.005000	-0.218740	0.117720	-10.555560	-0.304977	0.399013	-0.791659	-0.010152	-0.005258	0.003254
547	2.764119	0.005000	-0.255833	0.037694	-10.594800	-0.305088	0.399455	-0.791289	-0.002922	-0.005451	0.005485
548	2.769119	0.005000	-0.256698	-0.039240	-10.555560	-0.305198	0.399897	-0.790919	-0.020765	0.001003	0.009004
549	2.774119	0.005000	-0.242973	0.015853	-10.579733	-0.305309	0.400339	-0.790549	-0.012044	-0.005787	-0.000544
550	2.779119	0.005000	-0.182574	-0.117720	-10.528308	-0.305419	0.400781	-0.790179	-0.003887	-0.008380	0.007552
551	2.784119	0.005000	-0.100916	0.011218	-10.426622	-0.305530	0.401223	-0.789808	-0.006979	-0.002873	0.006990
552	2.789119	0.005000	-0.156960	0.059931	-10.426423	-0.305640	0.401665	-0.789438	-0.000180	-0.001256	0.014456
553	2.794119	0.005000	-0.085339	0.025522	-10.562419	-0.305751	0.402107	-0.789068	-0.013160	-0.009617	0.011031
554	2.799119	0.005000	-0.161816	-0.068768	-10.619472	-0.305861	0.402549	-0.788698	-0.015720	-0.013841	0.010562
555	2.804119	0.005000	-0.237950	0.041750	-10.594800	-0.305972	0.402980	-0.788333	-0.010434	-0.002925	0.015330
556	2.809119	0.005000	-0.078480	0.039148	-10.594800	-0.306082	0.402649	-0.788333	-0.018200	-0.007359	0.004370
557	2.814119	0.005000	-0.153256	0.000000	-10.557412	-0.306192	0.402318	-0.788333	-0.006335	-0.013703	0.017125
558	2.819119	0.005000	-0.082735	0.026476	-10.594800	-0.306303	0.401987	-0.788333	-0.012703	0.003461	-0.002004
559	2.824119	0.005000	-0.124300	0.052401	-10.562140	-0.306413	0.401655	-0.788333	-0.007212	-0.008568	0.001251
560	2.829119	0.005000	-0.187596	0.030636	-10.485684	-0.306524	0.401324	-0.788333	-0.007800	-0.005866	0.005481
561	2.834119	0.005000	-0.218238	0.022038	-10.533522	-0.306634	0.400993	-0.788333	-0.015013	-0.011531	0.010906
562	2.839119	0.005000	-0.196200	-0.013427	-10.673280	-0.306745	0.400662	-0.788333	-0.016517	-0.000340	0.018511
563	2.844119	0.005000	-0.180829	-0.023869	-10.555560	-0.306855	0.400330	-0.788333	-0.009236	0.000235	0.005792
564	2.849119	0.005000	-0.221330	-0.003673	-10.494863	-0.306966	0.399999	-0.788333	-0.006832	-0.008628	0.011072
565	2.854119	0.005000	-0.196200	0.097767	-10.555560	-0.307076	0.399668	-0.788333	-0.017228	-0.002277	0.004414
566	2.859119	0.005000	-0.179099	0.044277	-10.494181	-0.307186	0.399337	-0.788333	-0.000320	-0.008331	-0.008313
567	2.864119	0.005000	-0.142268	0.014692	-10.437840	-0.307297	0.399005	-0.788333	-0.015806	-0.004209	0.012303
568	2.869119	0.005000	-0.156960	0.051841	-10.505156	-0.307407	0.398674	-0.788333	-0.011912	-0.002385	0.005645
569	2.874119	0.005000	-0.109483	0.039240	-10.526654	-0.307408	0.398398	-0.787661	-0.010483	-0.010742	0.011012
570	2.879119	0.005000	-0.188272	-0.031312	-10.524248	-0.307298	0.398177	-0.786305	-0.018861	-0.008047	-0.007550
571	2.884119	0.005000	-0.184371	-0.039240	-10.582971	-0.307187	0.397956	-0.784948	-0.014827	-0.013459	0.005746
572	2.889119	0.005000	-0.106976	-0.071318	-10.484242	-0.307077	0.397735	-0.783591	-0.018489	-0.009351	0.007071
573	2.894119	0.005000	-0.079644	-0.076153	-10.631713	-0.306966	0.397514	-0.782234	-0.017137	-0.004706	0.001255
574	2.899119	0.005000	-0.117720	0.076919	-10.401722	-0.306856	0.397293	-0.780878	-0.022651	-0.004501	0.005688
575	2.904119	0.005000	-0.193015	-0.032871	-10.477080	-0.306745	0.397072	-0.779521	-0.017230	0.009016	-0.000262
576	2.909119	0.005000	-0.128793	-0.028167	-10.505247	-0.306635	0.396851	-0.778164	-0.008271	-0.006387	0.007096
577	2.914119	0.005000	-0.283740	-0.102630	-10.492170	-0.306524	0.396630	-0.776808	-0.015125	0.001277	0.004518
578	2.919119	0.005000	-0.137623	-0.059143	-10.526272	-0.306414	0.396410	-0.775451	-0.010266	-0.005176	-0.002251
579	2.924119	0.005000	-0.117720	0.078480	-10.567783	-0.306303	0.396189	-0.774094	-0.015879	-0.005663	0.012365
580	2.929119	0.005000	-0.117720	0.117720	-10.537562	-0.306193	0.395968	-0.772738	-0.015351	-0.006528	0.003399
581	2.934119	0.005000	-0.156960	0.061961	-10.650559	-0.306082	0.395747	-0.771381	-0.004220	-0.008763	0.011799
582	2.939119	0.005000	-0.175623	-0.020577	-10.553646	-0.305972	0.395526	-0.770024	-0.018179	0.002986	0.001391
583	2.944119	0.005000	-0.135886	0.002908	-10.516320	-0.307380	0.395197	-0.769031	-0.012787	-0.009455	0.005332
584	2.949119	0.005000	-0.172995	-0.046410	-10.555560	-0.308816	0.394865	-0.768044	-0.010879	-0.006138	0.010237
585	2.954119	0.005000	-0.182390	0.025430	-10.477080	-0.310252	0.394534	-0.767058	-0.009428	0.000259	-0.000070
586	2.959119	0.005000	-0.207602	0.078480	-10.449242	-0.311688	0.394203	-0.766071	-0.010067	-0.009665	0.005008
587	2.964119	0.005000	-0.205549	0.057937	-10.477080	-0.313123	0.393871	-0.765084	-0.016277	0.002914	0.001744
588	2.969119	0.005000	-0.189145	-0.025130	-10.437840	-0.314559	0.393540	-0.764098	-0.004580	-0.010725	0.006245
589	2.974119	0.005000	-0.196200	0.078480	-10.576244	-0.315995	0.393209	-0.763111	-0.001777	-0.001730	0.008542
590	2.979119	0.005000	-0.272018	0.151635	-10.518982	-0.317431	0.392878	-0.762124	-0.012863	-0.012190	0.004533
591	2.984119	0.005000	-0.195913	-0.039240	-10.554698	-0.318867	0.392546	-0.761138	-0.008300	-0.009570	0.010517
592	2.989119	0.005000	-0.119847	-0.039240	-10.437840	-0.320303	0.392215	-0.760151	-0.010774	-0.007750	0.000053
593	2.994119	0.005000	-0.196200	0.043311	-10.481151	-0.321739	0.391884	-0.759164	-0.008729	-0.010487	0.013986
594	2.999119	0.005000	-0.189724	-0.032764	-10.490032	-0.323174	0.391552	-0.758178	-0.019793	-0.001675	0.010807
595	3.004119	0.005000	-0.117720	-0.056818	-10.507531	-0.324610	0.391221	-0.757191	-0.019277	-0.003031	0.010984
596	3.009119	0.005000	-0.167795	0.050075	-10.466245	-0.324752	0.391459	-0.757881	-0.001029	-0.002386	0.007535
597	3.014119	0.005000	-0.117720	0.039240	-10.450593	-0.323427	0.392342	-0.760470	-0.008338	0.005505	0.002206
598	3.019119	0.005000	-0.156960	0.039240	-10.461605	-0.322102	0.393225	-0.763059	-0.006958	-0.001829	0.009389
599	3.024119	0.005000	-0.174560	0.039240	-10.477080	-0.320778	0.394109	-0.765647	-0.016558	0.000845	-0.001369
600	3.029119	0.005000	-0.235440	0.000000	-10.515539	-0.319453	0.394992	-0.768236	-0.007636	-0.012180	0.006740
601	3.034119	0.005000	-0.156960	0.039240	-10.533405	-0.318128	0.395875	-0.770825	-0.020780	-0.002821	0.010087
602	3.039119	0.005000	-0.156960	0.024359	-10.594800	-0.316803	0.396758	-0.773414	-0.013652	-0.007262	0.000622
603	3.044119	0.005000	-0.183727	-0.012473	-10.594800	-0.315478	0.397641	-0.776003	-0.002783	-0.010860	0.010952
604	3.049119	0.005000	-0.214625	-0.018425	-10.602817	-0.314154	0.398525	-0.778592	-0.006796	0.008095	-0.004461
605	3.054119	0.005000	-0.227326	0.093377	-10.555560	-0.312829	0.399408	-0.781181	-0.011350	-0.008111	0.009479
606	3.059119	0.005000	-0.112012	-0.022115	-10.532726	-0.311504	0.400291	-0.783770	-0.016161	0.000198	0.003521
607	3.064119	0.005000	-0.160681	0.074759	-10.523763	-0.310179	0.401174	-0.786359	-0.013274	-0.007160	-0.001180
608	3.069119	0.005000	-0.156960	0.113678	-10.593453	-0.308855	0.402057	-0.788948	-0.015987	-0.002783	0.011343
609	3.074119	0.005000	-0.156960	0.000000	-10.517364	-0.307530	0.402940	-0.791537	-0.018517	-0.002252	0.006453
610	3.079119	0.005000	-0.045242	0.039240	-10.588798	-0.307463	0.402670	-0.791667	-0.004762	-0.000984	0.013721
611	3.084119	0.005000	-0.050075	-0.033822	-10.521738	-0.307463	0.402339	-0.791667	-0.009130	-0.000103	0.000273
612	3.089119	0.005000	-0.133180	-0.078480	-10.626310	-0.307463	0.402007	-0.791667	-0.005971	-0.003497	0.005909
613	3.094119	0.005000	-0.078480	-0.058944	-10.516320	-0.307463	0.401676	-0.791667	-0.017642	-0.008305	0.011855
614	3.099119	0.005000	-0.196200	-0.078480	-10.540684	-0.307463	0.401344	-0.791667	-0.016709	-0.009886	0.004411
615	3.104119	0.005000	-0.057665	-0.057665	-10.555560	-0.307463	0.401013	-0.791667	-0.019998	-0.010505	0.000341
616	3.109119	0.005000	-0.140431	0.022711	-10.561743	-0.307463	0.400681	-0.791667	-0.015148	0.003211	-0.001379
617	3.114119	0.005000	-0.196200	0.058179	-10.494656	-0.307463	0.400349	-0.791667	-0.018143	-0.007794	0.005239
618	3.119119	0.005000	-0.036275	0.036275	-10.555560	-0.307463	0.400018	-0.791667	-0.015318	-0.002018	0.003715
619	3.124119	0.005000	-0.078480	0.070432	-10.547845	-0.307463	0.399686	-0.791667	0.000158	-0.006641	0.007794
620	3.129119	0.005000	-0.104186	0.104186	-10.581266	-0.307463	0.399355	-0.791667	-0.002314	0.003167	0.009468
621	3.134119	0.005000	-0.117720	0.016337	-10.488531	-0.307463	0.399023	-0.791667	-0.005870	-0.009143	0.008552
622	3.139119	0.005000	-0.147777	0.120230	-10.486263	-0.307463	0.398692	-0.791667	-0.013192	-0.007449	0.007753
623	3.144119	0.005000	-0.189433	0.000000	-10.594800	-0.307365	0.398751	-0.791722	-0.009677	-0.008038	0.008872
624	3.149119	0.005000	-0.156960	-0.078480	-10.585270	-0.307144	0.399304	-0.791845	-0.003487	-0.014447	0.003801
625	3.154119	0.005000	-0.193782	-0.036822	-10.550724	-0.306923	0.399856	-0.791968	-0.008174	-0.004414	0.005705
626	3.159119	0.005000	-0.274680	-0.078480	-10.477080	-0.306703	0.400408	-0.792091	-0.012012	-0.004756	-0.010667
627	3.164119	0.005000	-0.233496	0.072649	-10.477080	-0.306482	0.400960	-0.792215	-0.008411	-0.002830	0.001348
628	3.169119	0.005000	-0.196200	0.043588	-10.450884	-0.306261	0.401513	-0.792338	-0.014851	-0.005598	-0.004861
629	3.174119	0.005000	-0.222068	0.039240	-10.463708	-0.306040	0.402065	-0.792461	-0.012453	-0.014058	0.009504
630	3.179119	0.005000	-0.226732	-0.030532	-10.555560	-0.305819	0.402617	-0.792585	-0.013915	0.001840	0.001833
631	3.184119	0.005000	-0.241347	0.011111	-10.538542	-0.305598	0.403170	-0.792708	-0.009250	-0.007703	0.006401
632	3.189119	0.005000	-0.104201	-0.001317	-10.477080	-0.305377	0.403722	-0.792831	-0.013743	0.001798	0.006488
633	3.194119	0.005000	-0.156960	0.046985	-10.445842	-0.305156	0.404274	-0.792954	-0.011370	-0.003203	0.005850
634	3.199119	0.005000	-0.156960	0.057115	-10.519809	-0.304935	0.404826	-0.793078	-0.011378	-0.003914	-0.000007
635	3.204119	0.005000	-0.117720	-0.019196	-10.594800	-0.304715	0.405379	-0.793201	-0.015176	-0.005630	-0.001619
636	3.209119	0.005000	-0.213210	-0.066691	-10.617030	-0.304494	0.405931	-0.793324	-0.016044	-0.012451	0.010548
637	3.214119	0.005000	-0.156960	-0.014600	-10.609400	-0.304375	0.405559	-0.793218	-0.016405	-0.010218	-0.007103
638	3.219119	0.005000	-0.144450	-0.039240	-10.530540	-0.304265	0.405118	-0.793095	-0.015326	-0.008894	0.001117
639	3.224119	0.005000	-0.146717	0.098965	-10.536805	-0.304154	0.404676	-0.792972	-0.016185	-0.009484	0.012212
640	3.229119	0.005000	-0.134118	0.070281	-10.547361	-0.304044	0.404234	-0.792849	-0.017880	0.004274	0.002078
641	3.234119	0.005000	-0.201684	0.005484	-10.521804	-0.303933	0.403792	-0.792725	-0.011242	-0.001037	0.000293
642	3.239119	0.005000	-0.163911	0.039240	-10.630565	-0.303823	0.403351	-0.792602	-0.006608	-0.010024	0.003497
643	3.244119	0.005000	-0.274680	0.117720	-10.594800	-0.303712	0.402909	-0.792479	-0.001931	-0.013672	0.006977
644	3.249119	0.005000	-0.159578	0.156087	-10.556433	-0.303602	0.402467	-0.792355	-0.013384	-0.005571	0.009589
645	3.254119	0.005000	-0.196200	-0.029525	-10.558798	-0.303491	0.402025	-0.792232	-0.015261	0.002320	0.002155
646	3.259119	0.005000	-0.224998	0.010442	-10.443061	-0.303381	0.401583	-0.792109	-0.017043	-0.012325	0.014650
647	3.264119	0.005000	-0.132817	0.078480	-10.516320	-0.303270	0.401142	-0.791986	-0.018713	0.002916	0.003469
648	3.269119	0.005000	-0.216279	0.068900	-10.466581	-0.303160	0.400700	-0.791862	-0.012347	-0.011828	0.016678
649	3.274119	0.005000	-0.111167	0.027252	-10.582812	-0.303050	0.400258	-0.791739	-0.019626	0.002518	0.002755
650	3.279119	0.005000	-0.078480	0.039240	-10.559024	-0.303031	0.399954	-0.791616	-0.009998	-0.002027	-0.007104
651	3.284119	0.005000	-0.101375	0.000000	-10.516320	-0.303141	0.399844	-0.791492	-0.012516	-0.004048	0.010520
652	3.289119	0.005000	-0.218415	0.001730	-10.576045	-0.303252	0.399733	-0.791369	-0.015357	0.001277	-0.004408
653	3.294119	0.005000	-0.138641	0.023523	-10.613119	-0.303362	0.399623	-0.791246	-0.008384	-0.015989	0.011438
654	3.299119	0.005000	-0.196200	-0.016131	-10.657149	-0.303473	0.399512	-0.791122	-0.015478	-0.000006	0.008984
655	3.304119	0.005000	-0.081309	-0.014023	-10.608823	-0.303583	0.399402	-0.790999	-0.006662	-0.007290	-0.004407
656	3.309119	0.005000	-0.223807	0.011633	-10.575876	-0.303694	0.399291	-0.790876	-0.018859	-0.003864	-0.000191
657	3.314119	0.005000	-0.136452	0.059748	-10.525686	-0.303804	0.399181	-0.790752	-0.012619	-0.004560	0.000368
658	3.319119	0.005000	-0.125057	-0.007337	-10.459850	-0.303915	0.399070	-0.790629	-0.008165	-0.007754	0.015534
659	3.324119	0.005000	-0.196200	0.122726	-10.511314	-0.304025	0.398960	-0.790505	-0.016776	0.002624	0.006190
660	3.329119	0.005000	-0.156960	0.075439	-10.555560	-0.304136	0.398849	-0.790382	-0.013140	-0.015166	0.002743
661	3.334119	0.005000	-0.235440	0.041215	-10.516320	-0.304246	0.398739	-0.790259	-0.015112	-0.004289	0.011380
662	3.339119	0.005000	-0.235440	0.081929	-10.516320	-0.304357	0.398628	-0.790135	-0.013163	-0.003876	-0.001287
663	3.344119	0.005000	-0.196200	0.000000	-10.520010	-0.304467	0.398518	-0.790012	-0.013287	-0.004276	0.009835
664	3.349119	0.005000	-0.163066	0.027027	-10.423026	-0.304179	0.398607	-0.790223	-0.020706	-0.000288	0.001594
665	3.354119	0.005000	-0.173985	0.056265	-10.555560	-0.303847	0.398717	-0.790469	-0.012652	-0.012643	0.005395
666	3.359119	0.005000	-0.156960	0.067679	-10.548722	-0.303516	0.398828	-0.790716	-0.018488	0.000798	0.007313
667	3.364119	0.005000	-0.169831	0.065609	-10.647538	-0.303185	0.398938	-0.790963	-0.011021	-0.004369	0.002411
668	3.369119	0.005000	-0.087161	0.045839	-10.555560	-0.302853	0.399049	-0.791209	-0.016033	-0.004070	0.005423
669	3.374119	0.005000	-0.100233	0.039240	-10.507788	-0.302522	0.399159	-0.791456	-0.016771	-0.000093	-0.001776
670	3.379119	0.005000	-0.176565	0.039240	-10.477080	-0.302190	0.399270	-0.791703	-0.014355	-0.010693	0.003196
671	3.384119	0.005000	-0.100527	-0.017193	-10.538367	-0.301859	0.399380	-0.791949	-0.021494	-0.013733	0.000865
672	3.389119	0.005000	-0.093547	0.093547	-10.492147	-0.301528	0.399491	-0.792196	-0.007846	-0.012288	0.011513
673	3.394119	0.005000	-0.064920	0.039959	-10.542720	-0.301196	0.399601	-0.792443	-0.020415	-0.008714	0.014661
674	3.399119	0.005000	-0.099332	-0.047201	-10.555560	-0.300865	0.399712	-0.792689	-0.009185	-0.003540	-0.000937
675	3.404119	0.005000	-0.182147	-0.078480	-10.530373	-0.300534	0.399822	-0.792936	-0.015796	-0.008717	0.007467
676	3.409119	0.005000	-0.177966	0.078480	-10.326198	-0.300202	0.399933	-0.793182	-0.008692	0.004427	-0.007785
677	3.414119	0.005000	-0.121804	-0.031071	-10.472996	-0.300215	0.399871	-0.793285	-0.018868	-0.006411	0.013045
678	3.419119	0.005000	-0.078480	0.076751	-10.477080	-0.300768	0.399539	-0.793162	-0.009266	-0.005528	0.004730
679	3.424119	0.005000	-0.078480	0.116359	-10.438521	-0.301320	0.399208	-0.793038	-0.014016	-0.009651	0.001422
680	3.429119	0.005000	-0.193568	0.039240	-10.482345	-0.301872	0.398877	-0.792915	-0.018013	-0.011174	0.013748
681	3.434119	0.005000	-0.156960	-0.029166	-10.511283	-0.302424	0.398545	-0.792792	-0.011315	0.003583	-0.002846
682	3.439119	0.005000	-0.181294	-0.031787	-10.540654	-0.302977	0.398214	-0.792669	-0.013324	-0.007777	0.001426
683	3.444119	0.005000	-0.087877	-0.050290	-10.546163	-0.303529	0.397883	-0.792545	-0.016620	0.000272	-0.007424
684	3.449119	0.005000	-0.156960	-0.039240	-10.449644	-0.304081	0.397551	-0.792422	-0.007231	-0.006576	0.002502
685	3.454119	0.005000	-0.156960	0.000000	-10.427035	-0.304633	0.397220	-0.792299	-0.010546	-0.008687	0.007854
686	3.459119	0.005000	-0.219012	0.072096	-10.437840	-0.305186	0.396888	-0.792175	-0.013334	-0.006467	-0.001167
687	3.464119	0.005000	-0.196200	0.037143	-10.437840	-0.305738	0.396557	-0.792052	-0.001100	-0.009711	0.013380
688	3.469119	0.005000	-0.175218	-0.020982	-10.513596	-0.306290	0.396226	-0.791929	-0.009941	0.001019	-0.003316
689	3.474119	0.005000	-0.180074	-0.062354	-10.555560	-0.306843	0.395894	-0.791806	-0.007108	-0.012649	0.000825
690	3.479119	0.005000	-0.182288	-0.025328	-10.580888	-0.307395	0.395563	-0.791682	-0.018936	-0.000219	0.002284
691	3.484119	0.005000	-0.117720	-0.078480	-10.488909	-0.307366	0.395813	-0.791559	-0.009531	-0.019083	0.004491
692	3.489119	0.005000	-0.127159	-0.059601	-10.536681	-0.307256	0.396144	-0.791435	-0.006090	-0.006788	0.011738
693	3.494119	0.005000	-0.228293	0.024946	-10.452134	-0.307145	0.396476	-0.791312	-0.014762	-0.005615	0.001888
694	3.499119	0.005000	-0.156960	-0.078480	-10.555560	-0.307035	0.396807	-0.791189	-0.009535	-0.013049	0.016861
695	3.504119	0.005000	-0.269174	0.036487	-10.482586	-0.306924	0.397139	-0.791065	-0.006920	-0.005107	0.009639
696	3.509119	0.005000	-0.195435	0.000383	-10.477845	-0.306813	0.397470	-0.790942	-0.006089	-0.016152	0.008826
697	3.514119	0.005000	-0.080492	0.113696	-10.555560	-0.306703	0.397802	-0.790818	-0.011173	-0.003865	0.014909
698	3.519119	0.005000	-0.160939	0.074501	-10.485038	-0.306592	0.398133	-0.790695	-0.015360	-0.005072	-0.000983
699	3.524119	0.005000	-0.097633	0.065711	-10.549176	-0.306482	0.398465	-0.790571	-0.006534	-0.008388	0.002185
700	3.529119	0.005000	-0.117720	0.008698	-10.503174	-0.306371	0.398796	-0.790448	-0.005092	-0.004117	0.005489
701	3.534119	0.005000	-0.281689	-0.135473	-10.544816	-0.306261	0.399128	-0.790325	-0.007960	-0.009845	0.010995
702	3.539119	0.005000	-0.209351	-0.091631	-10.542409	-0.306150	0.399459	-0.790201	-0.018911	-0.003971	0.014965
703	3.544119	0.005000	-0.148470	-0.006886	-10.586310	-0.306040	0.399791	-0.790078	-0.018131	-0.008420	-0.001234
704	3.549119	0.005000	-0.039240	0.021740	-10.516320	-0.305848	0.400041	-0.789909	-0.018035	-0.000752	0.009208
705	3.554119	0.005000	-0.156960	0.019329	-10.536231	-0.305516	0.400151	-0.789662	-0.012479	0.013956	-0.012181
706	3.559119	0.005000	-0.196200	0.044111	-10.516320	-0.305185	0.400262	-0.789415	-0.010320	-0.011089	0.005919
707	3.564119	0.005000	-0.117720	-0.054213	-10.492053	-0.304853	0.400372	-0.789169	-0.007852	-0.001778	-0.000446
708	3.569119	0.005000	-0.117720	-0.053350	-10.530430	-0.304522	0.400483	-0.788922	-0.008185	-0.007330	0.010079
709	3.574119	0.005000	-0.167458	-0.018243	-10.477080	-0.304190	0.400594	-0.788675	-0.009388	-0.004953	0.013308
710	3.579119	0.005000	-0.210821	0.078480	-10.485286	-0.303859	0.400704	-0.788428	-0.014463	-0.007421	0.002720
711	3.584119	0.005000	-0.156960	0.005800	-10.583199	-0.303527	0.400815	-0.788182	-0.007153	-0.013769	0.009910
712	3.589119	0.005000	-0.149336	0.031616	-10.594800	-0.303196	0.400925	-0.787935	-0.016020	-0.002267	-0.000455
713	3.594119	0.005000	-0.155521	0.002878	-10.552682	-0.302864	0.401036	-0.787688	-0.000928	-0.006531	0.007540
714	3.599119	0.005000	-0.117720	0.001906	-10.553654	-0.302533	0.401146	-0.787441	-0.015778	-0.005976	0.002609
715	3.604119	0.005000	-0.156960	-0.005818	-10.443658	-0.302202	0.401257	-0.787194	-0.016926	-0.005744	-0.000793
716	3.609119	0.005000	-0.117720	0.107068	-10.495017	-0.301870	0.401367	-0.786948	-0.017488	-0.017393	0.006442
717	3.614119	0.005000	-0.117720	-0.024701	-10.594800	-0.301539	0.401478	-0.786701	-0.016523	-0.005215	-0.008682
718	3.619119	0.005000	-0.137608	0.049452	-10.516320	-0.301588	0.401493	-0.786880	-0.013817	-0.003506	0.020904
719	3.624119	0.005000	-0.051175	0.027305	-10.500951	-0.301699	0.401493	-0.787126	-0.008818	0.005994	0.008401
720	3.629119	0.005000	-0.182176	0.053264	-10.552728	-0.301809	0.401493	-0.787373	-0.012268	-0.008936	0.006394
721	3.634119	0.005000	-0.150593	0.032873	-10.549193	-0.301919	0.401493	-0.787620	-0.019110	-0.005503	0.010880
722	3.639119	0.005000	-0.140335	-0.016625	-10.456462	-0.302030	0.401493	-0.787866	-0.020471	-0.003414	-0.004785
723	3.644119	0.005000	-0.115378	0.020791	-10.513978	-0.302140	0.401493	-0.788113	-0.010402	-0.006506	0.012193
724	3.649119	0.005000	-0.235440	0.023201	-10.548398	-0.302251	0.401493	-0.788360	-0.012297	0.002015	-0.000154
725	3.654119	0.005000	-0.184824	0.053172	-10.594800	-0.302361	0.401493	-0.788606	-0.006965	-0.010649	0.002766
726	3.659119	0.005000	-0.262998	-0.035045	-10.551365	-0.302472	0.401493	-0.788853	-0.009267	-0.001198	0.004801
727	3.664119	0.005000	-0.166581	-0.097722	-10.604421	-0.302582	0.401493	-0.789100	-0.008250	-0.003824	0.003916
728	3.669119	0.005000	-0.196200	-0.110389	-10.665949	-0.302692	0.401493	-0.789346	-0.002863	-0.013737	0.011242
729	3.674119	0.005000	-0.117720	-0.101746	-10.673280	-0.302803	0.401493	-0.789593	-0.013297	-0.005151	0.001507
730	3.679119	0.005000	-0.114750	0.000000	-10.631070	-0.302913	0.401493	-0.789839	-0.003793	-0.012828	0.006833
731	3.684119	0.005000	-0.156394	0.039240	-10.594800	-0.303139	0.401416	-0.789483	-0.003859	-0.002320	-0.004206
732	3.689119	0.005000	-0.117720	0.001378	-10.556938	-0.303581	0.401195	-0.788002	-0.008281	-0.006299	-0.000839
733	3.694119	0.005000	-0.125283	0.043022	-10.445403	-0.304023	0.400974	-0.786522	-0.004135	-0.003586	0.004337
734	3.699119	0.005000	-0.039240	0.045367	-10.522447	-0.304465	0.400753	-0.785041	-0.014708	-0.004606	-0.009630
735	3.704119	0.005000	-0.062196	-0.039240	-10.563702	-0.304907	0.400532	-0.783560	-0.011249	-0.008709	0.007844
736	3.709119	0.005000	-0.078480	0.067931	-10.498177	-0.305349	0.400310	-0.782079	-0.012882	0.006964	0.001038
737	3.714119	0.005000	-0.091293	0.052053	-10.556362	-0.305791	0.400089	-0.780599	-0.005435	-0.005866	0.009521
738	3.719119	0.005000	-0.166387	-0.024334	-10.609706	-0.306233	0.399868	-0.779118	-0.023540	-0.006569	0.004782
739	3.724119	0.005000	-0.196200	-0.017316	-10.590192	-0.306675	0.399647	-0.777637	-0.015225	-0.006250	0.012782
740	3.729119	0.005000	-0.156960	0.038998	-10.634282	-0.307117	0.399426	-0.776157	-0.008573	-0.006985	0.013992
741	3.734119	0.005000	-0.196200	-0.043342	-10.581332	-0.307559	0.399205	-0.774676	-0.012592	-0.000919	0.004174
742	3.739119	0.005000	-0.235440	0.133165	-10.492525	-0.308001	0.398984	-0.773195	-0.004745	-0.006796	0.005408
743	3.744119	0.005000	-0.222227	0.052453	-10.673280	-0.308443	0.398763	-0.771714	-0.014218	-0.001338	0.001411
744	3.749119	0.005000	-0.235440	0.106915	-10.673280	-0.308885	0.398542	-0.770234	-0.011501	-0.009950	0.009411
745	3.754119	0.005000	-0.257163	0.000000	-10.555560	-0.309420	0.397856	-0.770000	-0.009716	-0.002814	-0.000123
746	3.759119	0.005000	-0.183309	0.032794	-10.594800	-0.309972	0.397083	-0.770000	-0.016943	0.001482	-0.001726
747	3.764119	0.005000	-0.086564	-0.035198	-10.547476	-0.310525	0.396310	-0.770000	-0.015577	-0.005181	0.008746
748	3.769119	0.005000	-0.161105	-0.037168	-10.518392	-0.311077	0.395537	-0.770000	-0.011682	-0.004090	-0.006883
749	3.774119	0.005000	-0.196506	-0.038934	-10.555560	-0.311629	0.394764	-0.770000	-0.005430	-0.006549	-0.001272
750	3.779119	0.005000	-0.154267	-0.039240	-10.437840	-0.312181	0.393990	-0.770000	-0.008002	0.005737	-0.002930
751	3.784119	0.005000	-0.191532	0.078480	-10.511652	-0.312734	0.393217	-0.770000	-0.007702	-0.002479	-0.006593
752	3.789119	0.005000	-0.164033	0.071407	-10.498300	-0.313286	0.392444	-0.770000	-0.010726	-0.008907	0.017645
753	3.794119	0.005000	-0.186821	0.177442	-10.506941	-0.313838	0.391671	-0.770000	-0.019309	-0.005317	0.002572
754	3.799119	0.005000	-0.196200	-0.004943	-10.638983	-0.314391	0.390898	-0.770000	-0.010311	-0.007830	0.013086
755	3.804119	0.005000	-0.117720	-0.053080	-10.636321	-0.314943	0.390125	-0.770000	-0.013031	0.003555	0.000832
756	3.809119	0.005000	-0.101655	0.023175	-10.650105	-0.315495	0.389352	-0.770000	-0.009617	-0.003986	-0.005067
757	3.814119	0.005000	-0.175157	0.060283	-10.631193	-0.316047	0.388579	-0.770000	-0.010493	-0.008599	0.012671
758	3.819119	0.005000	-0.235440	0.041215	-10.534952	-0.316236	0.388387	-0.770365	-0.012524	-0.000481	0.004056
759	3.824119	0.005000	-0.235440	0.000000	-10.572049	-0.315684	0.389382	-0.771476	-0.005526	-0.002343	0.004285
760	3.829119	0.005000	-0.206882	-0.024961	-10.584118	-0.315131	0.390376	-0.772586	-0.015866	-0.006289	-0.001780
761	3.834119	0.005000	-0.145095	0.023731	-10.594800	-0.314579	0.391371	-0.773697	-0.002673	-0.006524	0.002897
762	3.839119	0.005000	-0.156960	0.049058	-10.594800	-0.314026	0.392365	-0.774807	-0.008705	0.002137	0.004657
763	3.844119	0.005000	-0.188683	0.102685	-10.508803	-0.313474	0.393360	-0.775918	-0.008136	-0.000130	0.004782
764	3.849119	0.005000	-0.151848	0.034128	-10.550448	-0.312921	0.394354	-0.777028	-0.006227	-0.008183	0.013635
765	3.854119	0.005000	-0.193032	0.036072	-10.519488	-0.312369	0.395349	-0.778139	-0.021907	-0.002401	0.002983
766	3.859119	0.005000	-0.156960	0.000000	-10.477830	-0.311816	0.396343	-0.779250	-0.012744	0.004103	0.003182
767	3.864119	0.005000	-0.233053	0.076093	-10.516320	-0.311264	0.397338	-0.780360	-0.010654	0.002081	0.004156
768	3.869119	0.005000	-0.239038	0.003598	-10.544766	-0.310711	0.398332	-0.781471	-0.008076	-0.016626	0.013199
769	3.874119	0.005000	-0.241385	0.039240	-10.549615	-0.310158	0.399327	-0.782581	-0.008238	-0.009826	0.006509
770	3.879119	0.005000	-0.164918	0.000000	-10.586842	-0.309606	0.400321	-0.783692	-0.003106	-0.004942	-0.005877
771	3.884119	0.005000	-0.175470	0.068115	-10.555560	-0.309053	0.401316	-0.784802	-0.011399	-0.008695	0.002906
772	3.889119	0.005000	-0.078480	0.066171	-10.516320	-0.308592	0.401311	-0.785405	-0.012132	-0.006384	-0.001411
773	3.894119	0.005000	-0.117720	0.004928	-10.555560	-0.308150	0.401090	-0.785899	-0.013786	-0.011194	0.005448
774	3.899119	0.005000	-0.117720	0.027698	-10.494007	-0.307708	0.400869	-0.786392	-0.012588	-0.004060	0.011603
775	3.904119	0.005000	-0.177124	0.000000	-10.538658	-0.307267	0.400649	-0.786886	-0.019527	-0.007243	0.003587
776	3.909119	0.005000	-0.196200	0.053279	-10.616280	-0.306825	0.400428	-0.787379	-0.012319	-0.009410	0.008026
777	3.914119	0.005000	-0.141334	0.086467	-10.555560	-0.306383	0.400207	-0.787872	-0.006007	0.000193	-0.006402
778	3.919119	0.005000	-0.118699	0.090907	-10.528747	-0.305941	0.399986	-0.788366	-0.002680	-0.009053	0.010556
779	3.924119	0.005000	-0.167953	0.067487	-10.499065	-0.305499	0.399765	-0.788859	-0.008203	-0.004770	0.008522
780	3.929119	0.005000	-0.244380	-0.030300	-10.516320	-0.305058	0.399544	-0.789352	-0.000514	-0.012444	0.006004
781	3.934119	0.005000	-0.189558	-0.013284	-10.490364	-0.304616	0.399323	-0.789846	-0.003672	-0.004510	0.004105
782	3.939119	0.005000	-0.152734	-0.074254	-10.398600	-0.304174	0.399102	-0.790339	-0.010495	-0.004766	0.002548
783	3.944119	0.005000	-0.191692	0.073972	-10.437840	-0.303732	0.398881	-0.790833	-0.014557	-0.010768	0.007610
784	3.949119	0.005000	-0.235073	-0.039118	-10.516075	-0.303290	0.398660	-0.791326	-0.018895	-0.003863	0.002473
785	3.954119	0.005000	-0.272169	0.078480	-10.589778	-0.303053	0.398439	-0.791362	-0.015295	-0.005416	0.001503
786	3.959119	0.005000	-0.230956	0.073996	-10.516320	-0.303274	0.398218	-0.790376	-0.014539	-0.000965	0.005842
787	3.964119	0.005000	-0.242330	0.064701	-10.548670	-0.303495	0.397997	-0.789389	-0.012783	-0.007928	0.002836
788	3.969119	0.005000	-0.217045	0.087677	-10.624843	-0.303716	0.397776	-0.788402	-0.020821	-0.003475	0.005060
789	3.974119	0.005000	-0.224191	0.089729	-10.594800	-0.303937	0.397555	-0.787416	-0.012544	-0.005969	-0.001927
790	3.979119	0.005000	-0.170617	0.052897	-10.555560	-0.304158	0.397334	-0.786429	-0.007399	-0.004155	0.000890
791	3.984119	0.005000	-0.258812	0.000000	-10.500452	-0.304379	0.397113	-0.785442	-0.010676	0.008914	0.003859
792	3.989119	0.005000	-0.253445	0.021235	-10.480310	-0.304599	0.396893	-0.784455	-0.007281	-0.003490	-0.002274
793	3.994119	0.005000	-0.174193	0.059656	-10.516320	-0.304820	0.396672	-0.783469	-0.013539	-0.011333	0.006733
794	3.999119	0.005000	-0.252125	0.117720	-10.488819	-0.305041	0.396451	-0.782482	-0.015858	-0.006390	-0.006303
795	4.004119	0.005000	-0.249908	0.103252	-10.452308	-0.305262	0.396230	-0.781495	-0.002657	-0.011770	-0.002637
796	4.009119	0.005000	-0.169020	-0.003061	-10.449900	-0.305483	0.396009	-0.780508	-0.014282	0.002818	-0.001735
797	4.014119	0.005000	-0.225441	0.009243	-10.565559	-0.305704	0.395788	-0.779522	-0.008924	-0.010356	0.000405
798	4.019119	0.005000	-0.204636	-0.039240	-10.657878	-0.305925	0.395567	-0.778535	-0.012953	-0.005609	0.000116
799	4.024119	0.005000	-0.185609	-0.033945	-10.605391	-0.305882	0.396049	-0.778627	-0.011298	0.006929	0.002203
800	4.029119	0.005000	-0.127659	-0.039240	-10.627414	-0.305772	0.396711	-0.778997	-0.008406	-0.001502	0.008324
801	4.034119	0.005000	-0.235440	-0.078480	-10.516320	-0.305661	0.397374	-0.779367	-0.015121	0.001969	-0.005014
802	4.039119	0.005000	-0.235440	-0.116710	-10.554550	-0.305551	0.398036	-0.779737	-0.011463	-0.011602	0.007623
803	4.044119	0.005000	-0.271266	-0.039240	-10.545317	-0.305441	0.398699	-0.780107	-0.008247	-0.007338	0.006119
804	4.049119	0.005000	-0.268917	-0.039240	-10.594800	-0.305330	0.399361	-0.780476	-0.006011	-0.012525	-0.009603
805	4.054119	0.005000	-0.133245	0.070718	-10.492605	-0.305220	0.400024	-0.780846	-0.003150	-0.002893	0.008960
806	4.059119	0.005000	-0.127780	0.049300	-10.526380	-0.305110	0.400686	-0.781216	-0.008938	-0.003667	-0.003012
807	4.064119	0.005000	-0.117720	0.039240	-10.501322	-0.304999	0.401349	-0.781586	-0.009701	-0.010602	0.004547
808	4.069119	0.005000	-0.156960	0.000000	-10.526501	-0.304889	0.402011	-0.781956	-0.011302	-0.010374	0.000041
809	4.074119	0.005000	-0.258206	-0.016474	-10.539086	-0.304779	0.402674	-0.782326	-0.010481	-0.004354	0.005169
810	4.079119	0.005000	-0.177315	0.018885	-10.535205	-0.304668	0.403336	-0.782695	-0.009415	-0.005825	0.008710
811	4.084119	0.005000	-0.217242	-0.002844	-10.440684	-0.304558	0.403999	-0.783065	-0.018855	-0.002600	-0.005286
812	4.089119	0.005000	-0.172959	0.078480	-10.461081	-0.304478	0.404478	-0.783299	-0.015300	-0.008441	0.011621
813	4.094119	0.005000	-0.196200	0.078480	-10.449900	-0.304478	0.404478	-0.783176	-0.022055	-0.007813	0.003641
814	4.099119	0.005000	-0.212416	0.078480	-10.527832	-0.304478	0.404478	-0.783052	-0.014206	-0.015182	0.006086
815	4.104119	0.005000	-0.156960	0.057704	-10.585568	-0.304478	0.404478	-0.782929	-0.014230	-0.001837	-0.001599
816	4.109119	0.005000	-0.163786	0.000000	-10.535083	-0.304478	0.404478	-0.782806	-0.019315	-0.013888	0.001780
817	4.114119	0.005000	-0.117720	-0.117720	-10.477080	-0.304478	0.404478	-0.782683	-0.008006	-0.006163	0.008944
818	4.119119	0.005000	-0.154495	0.036775	-10.479545	-0.304478	0.404478	-0.782559	-0.015293	-0.011805	0.000592
819	4.124119	0.005000	-0.196200	-0.038711	-10.555560	-0.304478	0.404478	-0.782436	-0.005381	-0.011883	0.000004
820	4.129119	0.005000	-0.270915	-0.037358	-10.555560	-0.304478	0.404478	-0.782313	-0.007083	0.006154	0.000448
821	4.134119	0.005000	-0.161196	0.039240	-10.524791	-0.304478	0.404478	-0.782189	-0.008464	-0.006060	0.000125
822	4.139119	0.005000	-0.163191	0.006231	-10.483311	-0.304478	0.404478	-0.782066	-0.010391	-0.008854	0.012214
823	4.144119	0.005000	-0.187653	0.061386	-10.507773	-0.304478	0.404478	-0.781943	-0.013058	-0.002239	0.001196
824	4.149119	0.005000	-0.196200	0.049831	-10.448431	-0.304478	0.404478	-0.781820	-0.009468	-0.008243	0.010735
825	4.154119	0.005000	-0.169958	0.012998	-10.450838	-0.304478	0.404478	-0.781696	-0.022021	0.006941	-0.000748
826	4.159119	0.005000	-0.180967	0.039240	-10.516320	-0.304478	0.404309	-0.782043	-0.014250	0.002428	0.012373
827	4.164119	0.005000	-0.196200	0.139605	-10.594800	-0.304478	0.404089	-0.782537	-0.015135	-0.000221	0.011848
828	4.169119	0.005000	-0.215965	0.137776	-10.574744	-0.304478	0.403868	-0.783030	-0.006449	-0.001161	0.001787
829	4.174119	0.005000	-0.178879	0.078480	-10.555560	-0.304478	0.403647	-0.783523	-0.014496	-0.006440	0.019712
830	4.179119	0.005000	-0.202322	0.141839	-10.507321	-0.304478	0.403426	-0.784017	-0.019060	-0.007759	0.002169
831	4.184119	0.005000	-0.222733	0.091187	-10.621333	-0.304478	0.403205	-0.784510	-0.010996	-0.005818	0.008941
832	4.189119	0.005000	-0.175601	0.057881	-10.545260	-0.304478	0.402984	-0.785003	-0.014105	-0.007956	0.013801
833	4.194119	0.005000	-0.148701	-0.022721	-10.594800	-0.304478	0.402763	-0.785496	-0.004830	-0.006430	0.001601
834	4.199119	0.005000	-0.123673	0.027333	-10.588847	-0.304478	0.402542	-0.785990	-0.012231	-0.002764	0.010247
835	4.204119	0.005000	-0.196200	-0.007927	-10.634040	-0.304478	0.402321	-0.786483	-0.012428	-0.007496	0.002162
836	4.209119	0.005000	-0.233848	-0.112943	-10.630855	-0.304478	0.402101	-0.786976	-0.008355	-0.005961	0.010050
837	4.214119	0.005000	-0.157762	0.000000	-10.555560	-0.304478	0.401880	-0.787470	-0.017928	-0.010279	0.002485
838	4.219119	0.005000	-0.044752	0.078480	-10.592044	-0.304478	0.401659	-0.787963	-0.006166	-0.007666	0.004654
839	4.224119	0.005000	-0.141621	0.010226	-10.618701	-0.304506	0.401493	-0.788364	-0.020189	-0.001844	0.011047
840	4.229119	0.005000	-0.188712	0.070992	-10.421064	-0.304616	0.401493	-0.788487	-0.017613	-0.004989	0.001300
841	4.234119	0.005000	-0.205723	0.000000	-10.506797	-0.304726	0.401493	-0.788611	-0.024665	-0.000863	0.004269
842	4.239119	0.005000	-0.196200	0.051039	-10.516320	-0.304837	0.401493	-0.788734	-0.019939	0.001096	-0.000213
843	4.244119	0.005000	-0.094764	-0.050718	-10.541679	-0.304947	0.401493	-0.788857	-0.012060	-0.006366	0.004790
844	4.249119	0.005000	-0.085140	-0.078480	-10.539270	-0.305058	0.401493	-0.788981	-0.016061	-0.001712	0.005567
845	4.254119	0.005000	-0.216955	-0.002269	-10.613285	-0.305168	0.401493	-0.789104	-0.006904	-0.010658	0.002801
846	4.259119	0.005000	-0.274680	0.000000	-10.557611	-0.305278	0.401493	-0.789227	-0.010393	-0.014445	0.009003
847	4.264119	0.005000	-0.156960	0.078480	-10.601674	-0.305389	0.401493	-0.789351	-0.008604	-0.017423	0.010295
848	4.269119	0.005000	-0.182117	0.039240	-10.527393	-0.305499	0.401493	-0.789474	-0.005575	-0.006561	0.010669
849	4.274119	0.005000	-0.196200	0.121456	-10.473344	-0.305610	0.401493	-0.789597	-0.018711	-0.002218	-0.001124
850	4.279119	0.005000	-0.166732	0.049012	-10.535864	-0.305720	0.401493	-0.789721	-0.006702	-0.012025	0.008918
851	4.284119	0.005000	-0.156960	-0.022451	-10.516320	-0.305831	0.401493	-0.789844	-0.010417	-0.002625	0.001302
852	4.289119	0.005000	-0.156960	-0.034172	-10.555560	-0.305941	0.401493	-0.789968	-0.016466	-0.007540	-0.006134
853	4.294119	0.005000	-0.087738	0.066136	-10.558646	-0.305807	0.401493	-0.790000	-0.004986	0.002721	0.012852
854	4.299119	0.005000	-0.079199	0.000000	-10.515601	-0.305586	0.401493	-0.790000	-0.020378	0.007244	0.005315
855	4.304119	0.005000	-0.155281	-0.037561	-10.514641	-0.305365	0.401493	-0.790000	-0.022146	-0.003453	0.014940
856	4.309119	0.005000	-0.271038	0.078480	-10.484365	-0.305144	0.401493	-0.790000	-0.013178	0.001981	0.002169
857	4.314119	0.005000	-0.202248	-0.045288	-10.516320	-0.304923	0.401493	-0.790000	-0.011585	-0.001897	0.000384
858	4.319119	0.005000	-0.329184	-0.031248	-10.524312	-0.304702	0.401493	-0.790000	-0.010331	-0.000772	0.004114
859	4.324119	0.005000	-0.245847	0.000000	-10.594800	-0.304481	0.401493	-0.790000	-0.016214	-0.005324	0.006972
860	4.329119	0.005000	-0.221829	-0.012815	-10.502709	-0.304260	0.401493	-0.790000	-0.003764	-0.008651	0.014091
861	4.334119	0.005000	-0.181148	0.000000	-10.555560	-0.304039	0.401493	-0.790000	-0.010254	-0.003220	0.008247
862	4.339119	0.005000	-0.252603	0.022077	-10.555560	-0.303818	0.401493	-0.790000	-0.013213	-0.009541	0.009085
863	4.344119	0.005000	-0.235440	0.078480	-10.496746	-0.303597	0.401493	-0.790000	-0.016472	-0.003134	0.016671
864	4.349119	0.005000	-0.235440	0.039240	-10.503008	-0.303376	0.401493	-0.790000	-0.016994	-0.014421	0.001885
865	4.354119	0.005000	-0.298610	0.015310	-10.524940	-0.303155	0.401493	-0.790000	-0.014187	-0.014080	0.010912
866	4.359119	0.005000	-0.235440	0.196200	-10.594800	-0.303010	0.401468	-0.790057	-0.021355	-0.007955	0.000629
867	4.364119	0.005000	-0.178876	0.152369	-10.566518	-0.303121	0.401357	-0.790303	-0.019401	-0.005129	0.017020
868	4.369119	0.005000	-0.126263	0.030697	-10.572646	-0.303231	0.401247	-0.790550	-0.018791	-0.005736	0.008392
869	4.374119	0.005000	-0.163480	-0.098161	-10.555560	-0.303342	0.401136	-0.790797	-0.012083	-0.008627	0.005218
870	4.379119	0.005000	-0.117720	0.078480	-10.547173	-0.303452	0.401026	-0.791043	-0.007939	0.002630	0.012828
871	4.384119	0.005000	-0.156960	0.076704	-10.478856	-0.303563	0.400915	-0.791290	-0.014945	-0.008951	0.003892
872	4.389119	0.005000	-0.156960	0.078312	-10.555392	-0.303673	0.400805	-0.791537	-0.011061	-0.011181	0.007406
873	4.394119	0.005000	-0.156960	0.075908	-10.631468	-0.303784	0.400694	-0.791783	-0.015681	0.000857	0.002029
874	4.399119	0.005000	-0.161891	-0.009863	-10.594800	-0.303894	0.400584	-0.792030	-0.003864	-0.012369	0.008511
875	4.404119	0.005000	-0.117720	0.071547	-10.594800	-0.304005	0.400473	-0.792276	-0.008522	-0.007271	0.005364
876	4.409119	0.005000	-0.207757	0.108492	-10.525548	-0.304115	0.400363	-0.792523	-0.016368	-0.004160	0.007197
877	4.414119	0.005000	-0.235440	0.022558	-10.505041	-0.304226	0.400252	-0.792770	-0.011864	-0.010243	0.019113
878	4.419119	0.005000	-0.170647	0.000000	-10.620353	-0.304336	0.400142	-0.793016	-0.016513	-0.013764	-0.001751
879	4.424119	0.005000	-0.172874	0.062566	-10.642541	-0.304447	0.400031	-0.793263	-0.005001	-0.017614	0.009804
880	4.429119	0.005000	-0.178156	0.018044	-10.612844	-0.304557	0.399842	-0.792891	-0.006791	-0.005272	0.006842
881	4.434119	0.005000	-0.197380	0.039240	-10.574590	-0.304668	0.399621	-0.792275	-0.006677	-0.017538	0.005968
882	4.439119	0.005000	-0.117720	-0.005558	-10.611641	-0.304778	0.399400	-0.791658	-0.013046	-0.010987	0.010359
883	4.444119	0.005000	-0.156960	0.020753	-10.547449	-0.304888	0.399179	-0.791041	-0.011269	-0.002658	-0.001740
884	4.449119	0.005000	-0.181648	-0.080689	-10.491632	-0.304999	0.398958	-0.790425	-0.017985	-0.008426	0.013910
885	4.454119	0.005000	-0.206274	-0.097572	-10.546542	-0.305109	0.398737	-0.789808	-0.016035	-0.005501	0.003506
886	4.459119	0.005000	-0.258615	0.055305	-10.477080	-0.305220	0.398516	-0.789191	-0.007400	-0.011645	0.000121
887	4.464119	0.005000	-0.196200	0.078480	-10.533491	-0.305330	0.398295	-0.788575	-0.009460	-0.002627	0.009346
888	4.469119	0.005000	-0.081787	-0.006614	-10.447761	-0.305440	0.398075	-0.787958	-0.014095	-0.000136	0.004662
889	4.474119	0.005000	-0.081173	0.001346	-10.519013	-0.305551	0.397854	-0.787341	-0.018205	-0.012581	0.013176
890	4.479119	0.005000	-0.195159	0.001041	-10.594800	-0.305661	0.397633	-0.786725	-0.018269	0.003577	-0.005123
891	4.484119	0.005000	-0.271276	-0.078480	-10.587993	-0.305772	0.397412	-0.786108	-0.014281	0.002804	-0.001129
892	4.489119	0.005000	-0.196200	0.023072	-10.584022	-0.305882	0.397191	-0.785491	-0.013513	-0.010841	0.008784
893	4.494119	0.005000	-0.149155	0.000000	-10.547755	-0.305948	0.397060	-0.785100	-0.014080	-0.009496	-0.002604
894	4.499119	0.005000	-0.177140	-0.029150	-10.496140	-0.305837	0.397281	-0.785593	-0.015683	-0.006901	0.006657
895	4.504119	0.005000	-0.196200	0.069095	-10.543404	-0.305727	0.397501	-0.786087	-0.016539	-0.005352	-0.001594
896	4.509119	0.005000	-0.132290	0.082949	-10.388499	-0.305616	0.397722	-0.786580	-0.006083	-0.010410	0.007916
897	4.514119	0.005000	-0.100944	0.056016	-10.432152	-0.305506	0.397943	-0.787073	-0.015339	0.001922	-0.001799
898	4.519119	0.005000	-0.138037	-0.059557	-10.497397	-0.305396	0.398164	-0.787566	-0.014944	-0.006140	0.001909
899	4.524119	0.005000	-0.175113	-0.002935	-10.573713	-0.305285	0.398385	-0.788059	-0.008738	-0.000179	0.000165
900	4.529119	0.005000	-0.196200	0.071165	-10.484395	-0.305175	0.398605	-0.788552	-0.010875	0.000368	-0.008333
901	4.534119	0.005000	-0.274680	0.064930	-10.516320	-0.305065	0.398826	-0.789045	-0.009722	-0.009665	0.010639
902	4.539119	0.005000	-0.246906	0.000000	-10.571867	-0.304954	0.399047	-0.789539	-0.014708	-0.005404	0.006179
903	4.544119	0.005000	-0.187002	0.000000	-10.507122	-0.304844	0.399268	-0.790032	-0.008638	-0.010458	0.000916
904	4.549119	0.005000	-0.242610	-0.024899	-10.473692	-0.304734	0.399489	-0.790525	-0.017351	-0.007569	0.004597
905	4.554119	0.005000	-0.166663	-0.004851	-10.629189	-0.304623	0.399709	-0.791018	-0.011571	0.000933	0.008117
906	4.559119	0.005000	-0.191331	0.034371	-10.599669	-0.304513	0.399930	-0.791511	-0.013391	-0.018171	0.014248
907	4.564119	0.005000	-0.116752	0.039724	-10.595284	-0.305158	0.399320	-0.790233	-0.009615	-0.014156	-0.002539
908	4.569119	0.005000	-0.076566	0.041154	-10.559388	-0.306152	0.398326	-0.788136	-0.010770	-0.008426	0.008486
909	4.574119	0.005000	-0.122001	0.047802	-10.590519	-0.307146	0.397332	-0.786039	-0.015820	0.001405	0.000967
910	4.579119	0.005000	-0.235440	0.123995	-10.528869	-0.308140	0.396338	-0.783943	-0.007496	-0.008822	0.005741
911	4.584119	0.005000	-0.204881	0.069799	-10.516320	-0.309134	0.395344	-0.781846	-0.012013	-0.009845	0.007732
912	4.589119	0.005000	-0.139654	-0.028273	-10.623073	-0.310128	0.394350	-0.779749	-0.013440	-0.004858	-0.003554
913	4.594119	0.005000	-0.209362	0.026201	-10.647079	-0.311122	0.393356	-0.777652	-0.007921	-0.008751	0.005528
914	4.599119	0.005000	-0.211648	-0.023792	-10.562664	-0.312116	0.392362	-0.775555	-0.004152	-0.002396	0.002769
915	4.604119	0.005000	-0.231507	0.021587	-10.577147	-0.313110	0.391368	-0.773459	-0.009397	-0.010578	0.002609
916	4.609119	0.005000	-0.117720	0.098284	-10.515953	-0.314104	0.390373	-0.771362	-0.014316	-0.000781	0.008949
917	4.614119	0.005000	-0.134745	-0.061455	-10.555560	-0.315098	0.389379	-0.769265	-0.017267	-0.014355	0.004458
918	4.619119	0.005000	-0.172041	0.015081	-10.516320	-0.316092	0.388385	-0.767168	-0.007619	-0.006844	0.013615
919	4.624119	0.005000	-0.248117	-0.015096	-10.489757	-0.317086	0.387391	-0.765072	-0.010695	0.000558	-0.013503
920	4.629119	0.005000	-0.235440	0.078480	-10.555560	-0.317816	0.386756	-0.763586	-0.013988	-0.003958	-0.001825
921	4.634119	0.005000	-0.235440	0.061829	-10.563885	-0.317264	0.387860	-0.765065	-0.022086	-0.003183	0.009352
922	4.639119	0.005000	-0.117720	0.032932	-10.555560	-0.316712	0.388964	-0.766544	-0.008755	-0.010408	0.002806
923	4.644119	0.005000	-0.156960	-0.117720	-10.524251	-0.316160	0.390068	-0.768024	-0.012818	-0.013793	0.003855
924	4.649119	0.005000	-0.194639	-0.037679	-10.668597	-0.315608	0.391172	-0.769503	-0.004705	-0.004655	-0.004350
925	4.654119	0.005000	-0.195817	0.000000	-10.555560	-0.315056	0.392276	-0.770982	-0.005820	-0.008226	0.014250
926	4.659119	0.005000	-0.196200	0.036439	-10.597601	-0.314504	0.393380	-0.772462	-0.017476	0.000935	0.000485
927	4.664119	0.005000	-0.201343	0.117720	-10.487367	-0.313952	0.394484	-0.773941	-0.006177	-0.018698	-0.000466
928	4.669119	0.005000	-0.139170	-0.007150	-10.491380	-0.313400	0.395588	-0.775421	-0.016642	-0.001651	0.000006
929	4.674119	0.005000	-0.156960	-0.117720	-10.536430	-0.312848	0.396692	-0.776900	-0.008949	0.000006	0.001470
930	4.679119	0.005000	-0.211781	-0.011829	-10.500739	-0.312296	0.397796	-0.778379	-0.008671	-0.005993	0.003568
931	4.684119	0.005000	-0.235440	-0.002511	-10.477080	-0.311744	0.398900	-0.779859	-0.011827	0.007207	-0.007809
932	4.689119	0.005000	-0.150001	0.039240	-10.509361	-0.311192	0.400004	-0.781338	-0.012625	-0.011196	0.000790
933	4.694119	0.005000	-0.175225	-0.060215	-10.516320	-0.310640	0.401108	-0.782817	-0.014206	-0.007089	0.000888
934	4.699119	0.005000	-0.154848	-0.020676	-10.555560	-0.310088	0.401493	-0.783815	-0.003254	-0.017782	-0.006372
935	4.704119	0.005000	-0.134148	0.006384	-10.493508	-0.309536	0.401493	-0.784556	-0.004644	-0.019344	0.000096
936	4.709119	0.005000	-0.103512	0.103512	-10.462872	-0.308983	0.401493	-0.785296	-0.012664	-0.011696	0.004089
937	4.714119	0.005000	-0.156960	0.000000	-10.410400	-0.308430	0.401493	-0.786036	-0.006621	-0.008583	0.011223
938	4.719119	0.005000	-0.147104	0.019712	-10.516320	-0.307878	0.401493	-0.786777	-0.012811	-0.000535	0.004338
939	4.724119	0.005000	-0.218522	0.039240	-10.579919	-0.307325	0.401493	-0.787517	-0.003657	-0.014276	0.010367
940	4.729119	0.005000	-0.274680	0.117720	-10.555560	-0.306773	0.401493	-0.788257	-0.018814	-0.007021	0.004266
941	4.734119	0.005000	-0.235440	0.114629	-10.519411	-0.306220	0.401493	-0.788998	-0.014412	-0.016988	0.003630
942	4.739119	0.005000	-0.156960	0.039240	-10.555560	-0.305668	0.401493	-0.789738	-0.009103	-0.008297	0.006381
943	4.744119	0.005000	-0.194930	0.039240	-10.479620	-0.305115	0.401493	-0.790478	-0.022812	-0.010244	-0.002647
944	4.749119	0.005000	-0.228091	-0.003674	-10.441514	-0.304563	0.401493	-0.791219	-0.002456	-0.010484	0.000013
945	4.754119	0.005000	-0.229419	0.021178	-10.543519	-0.304010	0.401493	-0.791959	-0.017245	-0.001443	-0.001081
946	4.759119	0.005000	-0.266645	0.039240	-10.508285	-0.303458	0.401493	-0.792700	-0.018903	-0.012810	-0.000431
947	4.764119	0.005000	-0.206642	-0.047155	-10.495437	-0.303033	0.401477	-0.793333	-0.021625	0.000435	0.008378
948	4.769119	0.005000	-0.117720	-0.053087	-10.580953	-0.303364	0.401367	-0.793333	-0.014095	0.004431	-0.004810
949	4.774119	0.005000	-0.181410	0.063690	-10.540770	-0.303696	0.401256	-0.793333	-0.005964	-0.008337	-0.001600
950	4.779119	0.005000	-0.156960	0.056442	-10.533522	-0.304027	0.401146	-0.793333	-0.010157	-0.008066	-0.001497
951	4.784119	0.005000	-0.214397	0.058386	-10.536414	-0.304358	0.401035	-0.793333	-0.006672	-0.008454	0.008307
952	4.789119	0.005000	-0.139277	0.096163	-10.473207	-0.304690	0.400925	-0.793333	-0.014289	0.007473	0.010326
953	4.794119	0.005000	-0.109582	0.133271	-10.594800	-0.305021	0.400814	-0.793333	-0.016836	-0.005747	0.015648
954	4.799119	0.005000	-0.117720	0.000000	-10.477080	-0.305353	0.400704	-0.793333	-0.009057	-0.012818	0.018668
955	4.804119	0.005000	-0.078480	0.089396	-10.498912	-0.305684	0.400593	-0.793333	-0.015517	-0.002088	-0.001520
956	4.809119	0.005000	-0.117720	0.126585	-10.468215	-0.306015	0.400483	-0.793333	-0.006540	-0.013526	0.002284
957	4.814119	0.005000	-0.156960	0.078480	-10.555560	-0.306347	0.400372	-0.793333	-0.018283	-0.003613	0.007534
958	4.819119	0.005000	-0.227142	-0.008298	-10.538964	-0.306678	0.400262	-0.793333	-0.015262	-0.008161	0.000862
959	4.824119	0.005000	-0.117720	0.000000	-10.546847	-0.307009	0.400151	-0.793333	-0.011108	-0.001332	0.007607
960	4.829119	0.005000	-0.078679	-0.039041	-10.398600	-0.307341	0.400041	-0.793333	-0.014699	-0.002291	-0.002385
961	4.834119	0.005000	-0.198787	-0.036653	-10.623693	-0.307463	0.400000	-0.793255	0.000018	-0.010687	0.021051
962	4.839119	0.005000	-0.191639	-0.034679	-10.520881	-0.307463	0.400000	-0.793132	-0.007591	0.011344	0.011019
963	4.844119	0.005000	-0.189237	0.103793	-10.548597	-0.307463	0.400000	-0.793009	-0.009899	-0.007076	0.003480
964	4.849119	0.005000	-0.166218	0.096996	-10.495596	-0.307463	0.400000	-0.792886	-0.004950	-0.011627	0.001232
965	4.854119	0.005000	-0.156960	0.000000	-10.516320	-0.307463	0.400000	-0.792762	-0.005645	0.002901	0.001116
966	4.859119	0.005000	-0.143391	0.025671	-10.606902	-0.307463	0.400000	-0.792639	-0.013630	-0.003400	-0.001215
967	4.864119	0.005000	-0.109823	-0.070705	-10.539766	-0.307463	0.400000	-0.792516	-0.011662	-0.000322	0.002419
968	4.869119	0.005000	-0.196200	-0.021159	-10.455921	-0.307463	0.400000	-0.792393	-0.006630	-0.027030	-0.007079
969	4.874119	0.005000	-0.177215	0.000000	-10.515049	-0.307463	0.400000	-0.792269	-0.015061	-0.003052	0.007005
970	4.879119	0.005000	-0.162592	-0.033608	-10.527492	-0.307463	0.400000	-0.792146	-0.009635	-0.012382	0.003310
971	4.884119	0.005000	-0.196200	-0.117720	-10.569952	-0.307463	0.400000	-0.792023	-0.009188	-0.008694	0.011102
972	4.889119	0.005000	-0.103077	0.039240	-10.648683	-0.307463	0.400000	-0.791900	-0.009692	-0.005748	0.008073
973	4.894119	0.005000	-0.117720	0.039240	-10.516320	-0.307463	0.400000	-0.791776	-0.010421	-0.010193	0.009763
974	4.899119	0.005000	-0.172209	0.039240	-10.602424	-0.307438	0.400000	-0.791681	-0.016552	0.002432	-0.004521
975	4.904119	0.005000	-0.117720	0.044920	-10.622680	-0.307217	0.400000	-0.791804	-0.010710	0.003466	-0.011328
976	4.909119	0.005000	-0.160235	-0.006550	-10.477080	-0.306997	0.400000	-0.791927	-0.009596	-0.001411	0.006666
977	4.914119	0.005000	-0.117720	-0.001316	-10.441788	-0.306776	0.400000	-0.792051	-0.008739	-0.004769	0.007411
978	4.919119	0.005000	-0.079552	-0.001072	-10.631897	-0.306555	0.400000	-0.792174	-0.001808	-0.001594	0.008380
979	4.924119	0.005000	-0.156960	0.006898	-10.552111	-0.306334	0.400000	-0.792297	-0.004887	-0.010001	-0.003441
980	4.929119	0.005000	-0.190767	-0.033807	-10.527186	-0.306113	0.400000	-0.792421	-0.007727	-0.023281	0.008238
981	4.934119	0.005000	-0.109975	-0.046985	-10.516320	-0.305892	0.400000	-0.792544	-0.017333	-0.007445	0.009844
982	4.939119	0.005000	-0.225657	-0.039240	-10.555560	-0.305671	0.400000	-0.792667	-0.003264	-0.012152	0.004524
983	4.944119	0.005000	-0.220595	-0.054085	-10.531165	-0.305450	0.400000	-0.792790	-0.016422	-0.007718	0.015192
984	4.949119	0.005000	-0.171101	0.014141	-10.494404	-0.305229	0.400000	-0.792914	-0.011390	0.001264	0.008684
985	4.954119	0.005000	-0.218890	0.028829	-10.516320	-0.305008	0.400000	-0.793037	-0.004711	-0.010665	0.025389
986	4.959119	0.005000	-0.136463	0.117720	-10.454828	-0.304788	0.400000	-0.793160	-0.009308	0.008552	-0.001052
987	4.964119	0.005000	-0.156960	0.078480	-10.458746	-0.304567	0.400000	-0.793284	-0.012466	0.001018	0.000973
988	4.969119	0.005000	-0.212401	0.108356	-10.493281	-0.304346	0.400000	-0.792964	-0.006231	-0.008682	0.011710
989	4.974119	0.005000	-0.196200	0.027956	-10.552865	-0.304125	0.400000	-0.792347	-0.010934	-0.010323	0.000387
990	4.979119	0.005000	-0.196200	0.101620	-10.543990	-0.303904	0.400000	-0.791730	-0.007990	-0.010971	0.013726
991	4.984119	0.005000	-0.175990	-0.009515	-10.516320	-0.303683	0.400000	-0.791114	-0.017956	0.004381	-0.000295
992	4.989119	0.005000	-0.188976	-0.064033	-10.469856	-0.303462	0.400000	-0.790497	-0.010500	-0.008163	0.000904
993	4.994119	0.005000	-0.152153	-0.004807	-10.550753	-0.303241	0.400000	-0.789880	-0.024687	0.000982	0.007769
994	4.999119	0.005000	-0.165446	-0.036411	-10.589142	-0.303020	0.400000	-0.789264	-0.008520	-0.004514	0.006899
995	5.004119	0.005000	-0.234981	-0.037863	-10.438299	-0.302799	0.400000	-0.788647	-0.022360	-0.001593	0.001351
996	5.009119	0.005000	-0.158896	0.041176	-10.551687	-0.302579	0.400000	-0.788030	-0.014097	-0.007888	-0.004792
997	5.014119	0.005000	-0.192297	0.043143	-10.630137	-0.302358	0.400000	-0.787414	-0.010803	-0.011874	0.006339
998	5.019119	0.005000	-0.189892	0.084788	-10.640348	-0.302137	0.400000	-0.786797	-0.015307	-0.005529	0.005692
999	5.024119	0.005000	-0.065108	-0.021995	-10.625417	-0.301916	0.400000	-0.786181	-0.006823	-0.014465	0.009774
1000	5.029119	0.005000	-0.135626	-0.057146	-10.566227	-0.301695	0.400000	-0.785564	-0.014571	-0.009171	0.005595
1001	5.034119	0.005000	-0.156975	-0.130795	-10.503230	-0.301521	0.400038	-0.785042	-0.016926	-0.002745	0.003081
1002	5.039119	0.005000	-0.211219	-0.078480	-10.613203	-0.301853	0.400480	-0.785536	-0.007892	-0.002270	0.011561
1003	5.044119	0.005000	-0.257249	-0.056671	-10.638417	-0.302184	0.400921	-0.786029	-0.011183	-0.003628	0.009468
1004	5.049119	0.005000	-0.137295	0.039270	-10.614435	-0.302515	0.401363	-0.786522	-0.010425	-0.005425	0.011897
1005	5.054119	0.005000	-0.178746	-0.043573	-10.655826	-0.302847	0.401805	-0.787016	-0.014061	0.000008	0.008795
1006	5.059119	0.005000	-0.156960	0.078480	-10.525460	-0.303178	0.402247	-0.787509	-0.004665	-0.009000	-0.000109
1007	5.064119	0.005000	-0.104378	0.065531	-10.477080	-0.303509	0.402689	-0.788002	-0.006509	-0.005252	0.008923
1008	5.069119	0.005000	-0.139115	0.078480	-10.419995	-0.303840	0.403130	-0.788496	-0.010449	-0.000833	-0.000195
1009	5.074119	0.005000	-0.103328	-0.022674	-10.501928	-0.304172	0.403572	-0.788989	-0.014867	-0.015968	0.006748
1010	5.079119	0.005000	-0.196200	-0.020452	-10.495868	-0.304503	0.404014	-0.789483	-0.011053	-0.004461	0.002873
1011	5.084119	0.005000	-0.156960	0.125586	-10.516320	-0.304834	0.404456	-0.789976	-0.010958	-0.001667	0.001536
1012	5.089119	0.005000	-0.119236	0.073933	-10.593284	-0.305166	0.404898	-0.790469	-0.016690	-0.003825	0.006828
1013	5.094119	0.005000	-0.118149	-0.039240	-10.516749	-0.305497	0.405339	-0.790963	-0.008908	-0.007826	0.000871
1014	5.099119	0.005000	-0.190535	0.109223	-10.558392	-0.305828	0.405781	-0.791456	-0.006587	-0.011537	0.015519
1015	5.104119	0.005000	-0.196200	0.112943	-10.516320	-0.305907	0.405780	-0.791032	0.000063	-0.007911	0.007088
1016	5.109119	0.005000	-0.132106	-0.017661	-10.612461	-0.305796	0.405449	-0.789922	-0.016544	-0.015956	0.011178
1017	5.114119	0.005000	-0.186601	0.029641	-10.466638	-0.305686	0.405118	-0.788813	-0.010276	-0.001030	0.005840
1018	5.119119	0.005000	-0.168835	0.066605	-10.492570	-0.305576	0.404787	-0.787703	-0.008871	-0.000050	-0.007395
1019	5.124119	0.005000	-0.145635	0.039240	-10.530277	-0.305465	0.404456	-0.786594	-0.011127	0.006781	0.004665
1020	5.129119	0.005000	-0.055411	0.117720	-10.454011	-0.305355	0.404125	-0.785484	-0.012760	0.000740	0.004792
1021	5.134119	0.005000	-0.073215	0.060176	-10.558192	-0.305245	0.403794	-0.784375	-0.009093	-0.010326	0.007330
1022	5.139119	0.005000	-0.136245	0.136245	-10.576275	-0.305134	0.403462	-0.783265	-0.011149	0.000397	0.002504
1023	5.144119	0.005000	-0.117720	0.068572	-10.499937	-0.305024	0.403131	-0.782156	-0.010539	0.002921	0.010585
1024	5.149119	0.005000	-0.185303	0.039240	-10.544663	-0.304914	0.402800	-0.781046	-0.007136	-0.001378	0.006726
1025	5.154119	0.005000	-0.247198	0.129478	-10.516320	-0.304803	0.402469	-0.779937	-0.010903	-0.007968	-0.004120
1026	5.159119	0.005000	-0.225743	0.049390	-10.526017	-0.304693	0.402138	-0.778827	-0.015167	-0.008105	0.012113
1027	5.164119	0.005000	-0.188793	-0.007407	-10.531134	-0.304583	0.401807	-0.777718	-0.015739	-0.002618	-0.007895
1028	5.169119	0.005000	-0.196200	0.029258	-10.594800	-0.304478	0.401493	-0.776719	-0.011649	-0.008610	-0.002196
1029	5.174119	0.005000	-0.268659	-0.075470	-10.555560	-0.304478	0.401493	-0.777706	-0.020538	0.000033	0.013975
1030	5.179119	0.005000	-0.195557	-0.039240	-10.553632	-0.304478	0.401493	-0.778693	-0.013778	-0.005437	0.011245
1031	5.184119	0.005000	-0.194445	0.073216	-10.587781	-0.304478	0.401493	-0.779679	-0.009814	0.001034	0.003202
1032	5.189119	0.005000	-0.089637	0.117720	-10.562998	-0.304478	0.401493	-0.780666	-0.012647	0.001149	-0.002449
1033	5.194119	0.005000	-0.190076	0.117720	-10.516320	-0.304478	0.401493	-0.781653	-0.017064	-0.007843	-0.004777
1034	5.199119	0.005000	-0.125788	0.086548	-10.524388	-0.304478	0.401493	-0.782639	-0.014536	-0.005498	0.004613
1035	5.204119	0.005000	-0.060184	-0.060184	-10.545088	-0.304478	0.401493	-0.783626	-0.008375	-0.010393	0.007389
1036	5.209119	0.005000	-0.157989	0.012737	-10.621303	-0.304478	0.401493	-0.784613	-0.005723	-0.006633	0.008315
1037	5.214119	0.005000	-0.289510	-0.024410	-10.594800	-0.304478	0.401493	-0.785599	-0.006783	0.003233	-0.000280
1038	5.219119	0.005000	-0.196200	-0.022001	-10.543082	-0.304478	0.401493	-0.786586	-0.005165	-0.011351	0.001963
1039	5.224119	0.005000	-0.137143	-0.019423	-10.575377	-0.304478	0.401493	-0.787573	-0.016017	0.002984	0.010251
1040	5.229119	0.005000	-0.156960	-0.035292	-10.528165	-0.304478	0.401493	-0.788559	-0.011490	-0.014878	0.012923
1041	5.234119	0.005000	-0.156960	-0.078480	-10.522781	-0.304478	0.401493	-0.789546	-0.016837	-0.001064	0.000595
1042	5.239119	0.005000	-0.222310	-0.026261	-10.725499	-0.304538	0.401612	-0.790067	-0.008300	-0.004673	-0.000843
1043	5.244119	0.005000	-0.196200	-0.017477	-10.594800	-0.304648	0.401833	-0.790190	-0.014375	0.002403	0.003014
1044	5.249119	0.005000	-0.140027	-0.025400	-10.530160	-0.304758	0.402054	-0.790313	-0.015381	-0.004005	0.001058
1045	5.254119	0.005000	-0.096661	0.021059	-10.404660	-0.304869	0.402275	-0.790437	-0.016385	-0.007221	0.004080
1046	5.259119	0.005000	-0.156960	-0.070246	-10.481197	-0.304979	0.402496	-0.790560	-0.017172	0.002361	0.004764
1047	5.264119	0.005000	-0.116021	-0.116021	-10.555560	-0.305090	0.402717	-0.790683	-0.009152	-0.006144	0.007380
1048	5.269119	0.005000	-0.195465	-0.039485	-10.516565	-0.305200	0.402938	-0.790807	-0.010565	0.005175	0.012022
1049	5.274119	0.005000	-0.193551	0.039240	-10.552911	-0.305310	0.403159	-0.790930	-0.005661	-0.003031	0.006256
1050	5.279119	0.005000	-0.196200	0.004992	-10.511328	-0.305421	0.403379	-0.791053	-0.008206	-0.004490	0.005368
1051	5.284119	0.005000	-0.163957	0.085477	-10.555560	-0.305531	0.403600	-0.791177	-0.010996	0.003016	0.000089
1052	5.289119	0.005000	-0.117720	0.000000	-10.564972	-0.305642	0.403821	-0.791300	-0.016812	-0.005356	-0.000060
1053	5.294119	0.005000	-0.133604	0.078480	-10.477080	-0.305752	0.404042	-0.791424	-0.000622	-0.015231	0.013419
1054	5.299119	0.005000	-0.156960	0.142892	-10.477080	-0.305863	0.404263	-0.791547	-0.001745	-0.005443	-0.000917
1055	5.304119	0.005000	-0.196200	-0.046127	-10.555560	-0.305964	0.404472	-0.791654	-0.015161	-0.003839	0.006853
1056	5.309119	0.005000	-0.177613	-0.020653	-10.495667	-0.305743	0.404251	-0.791161	-0.012441	0.002263	-0.002427
1057	5.314119	0.005000	-0.154691	-0.078480	-10.516320	-0.305522	0.404030	-0.790667	-0.011912	-0.004832	0.016021
1058	5.319119	0.005000	-0.179901	0.062181	-10.611099	-0.305301	0.403809	-0.790174	-0.015197	0.003670	0.000706
1059	5.324119	0.005000	-0.184733	0.022935	-10.580914	-0.305081	0.403589	-0.789680	-0.013295	-0.008642	0.006499
1060	5.329119	0.005000	-0.211842	-0.062838	-10.606599	-0.304860	0.403368	-0.789187	-0.008935	-0.004783	0.002242
1061	5.334119	0.005000	-0.117720	-0.029705	-10.477080	-0.304639	0.403147	-0.788694	-0.005676	-0.003297	0.006698
1062	5.339119	0.005000	-0.196200	-0.025002	-10.423602	-0.304418	0.402926	-0.788200	-0.008677	-0.003489	0.016172
1063	5.344119	0.005000	-0.201313	0.044353	-10.516320	-0.304197	0.402705	-0.787707	-0.009687	0.002755	0.006587
1064	5.349119	0.005000	-0.232669	0.114949	-10.563873	-0.303976	0.402484	-0.787214	-0.004896	-0.011283	0.012804
1065	5.354119	0.005000	-0.156960	-0.000367	-10.634040	-0.303755	0.402263	-0.786720	-0.008313	-0.005423	0.012772
1066	5.359119	0.005000	-0.156960	-0.039240	-10.596377	-0.303534	0.402042	-0.786227	-0.012876	-0.003893	0.006678
