# FOX Logger (IMU file)
# (c) INRIA 2011-2014
# File created from file sensbiotk output
#
# File format:
# id	t	dt	ax	ay	az	mx	my	mz	gx	gy	gz
#
# Units:
#	Time: s
#	Acceleration: m.s^-2
#	Magneto: gauss
#	Gyrometer: rad/s
#
1	0.057281	0.057281	9.290051	0.156960	1.729836	-0.725373	-0.349254	-0.341667	-0.003220	-0.012530	-0.003610
2	0.062281	0.005000	9.294187	0.196200	1.648080	-0.725594	-0.349254	-0.341174	-0.001680	-0.019503	0.009733
3	0.067281	0.005000	9.401595	0.227438	1.640078	-0.725815	-0.349254	-0.340680	-0.004517	-0.005582	-0.005828
4	0.072281	0.005000	9.221400	0.177047	1.687320	-0.726036	-0.349254	-0.340187	-0.004624	-0.011456	-0.001749
5	0.077281	0.005000	9.207054	0.274680	1.780146	-0.726257	-0.349254	-0.339694	-0.002493	-0.004837	0.002555
6	0.082281	0.005000	9.221400	0.274680	1.750940	-0.726477	-0.349254	-0.339200	-0.004680	-0.008148	-0.010098
7	0.087281	0.005000	9.182160	0.213264	1.721447	-0.726698	-0.349254	-0.338707	-0.008270	-0.020376	0.002458
8	0.092281	0.005000	9.182160	0.215414	1.627243	-0.726919	-0.349254	-0.338213	-0.008942	-0.002895	-0.015800
9	0.097281	0.005000	9.195765	0.274680	1.622445	-0.727140	-0.349254	-0.337720	-0.017050	-0.015156	0.001408
10	0.102281	0.005000	9.268537	0.259008	1.750128	-0.727361	-0.349254	-0.337227	-0.015021	-0.007997	-0.005025
11	0.107281	0.005000	9.221400	0.209459	1.726560	-0.727582	-0.349254	-0.336733	-0.014026	-0.002280	0.002665
12	0.112281	0.005000	9.299880	0.179318	1.698499	-0.727803	-0.349254	-0.336240	-0.009712	-0.000764	0.007718
13	0.117281	0.005000	9.233919	0.235440	1.656987	-0.728024	-0.349254	-0.335747	-0.009592	-0.006282	-0.002864
14	0.122281	0.005000	9.175668	0.255205	1.641588	-0.728245	-0.349254	-0.335253	-0.007970	-0.009106	0.011969
15	0.127281	0.005000	9.108173	0.239933	1.839787	-0.728950	-0.349684	-0.334279	-0.013043	0.000116	0.006824
16	0.132281	0.005000	9.223543	0.276823	1.765800	-0.730165	-0.350568	-0.332799	-0.006169	-0.008712	0.013413
17	0.137281	0.005000	9.221672	0.313920	1.726832	-0.731381	-0.351452	-0.331318	-0.007636	-0.001067	0.019008
18	0.142281	0.005000	9.221400	0.237659	1.726560	-0.732596	-0.352336	-0.329837	-0.012388	-0.005516	0.005789
19	0.147281	0.005000	9.147544	0.200824	1.756553	-0.733812	-0.353220	-0.328356	0.001496	0.003020	0.014945
20	0.152281	0.005000	9.175217	0.228497	1.687320	-0.735027	-0.354104	-0.326876	-0.016852	-0.001687	0.017657
21	0.157281	0.005000	9.260640	0.283652	1.756828	-0.736243	-0.354988	-0.325395	-0.009796	-0.007490	0.020569
22	0.162281	0.005000	9.232786	0.274680	1.805040	-0.737458	-0.355872	-0.323914	0.003256	0.002411	0.017137
23	0.167281	0.005000	9.195790	0.288310	1.817021	-0.738674	-0.356756	-0.322434	0.003394	-0.007519	0.013309
24	0.172281	0.005000	9.095918	0.196200	1.742299	-0.739889	-0.357640	-0.320953	-0.004929	-0.000995	0.022848
25	0.177281	0.005000	9.203459	0.174901	1.701903	-0.741105	-0.358524	-0.319472	-0.012254	0.004388	0.012545
26	0.182281	0.005000	9.221400	0.215346	1.784946	-0.742320	-0.359408	-0.317992	-0.007218	-0.002165	0.020509
27	0.187281	0.005000	9.283146	0.196200	1.788306	-0.743536	-0.360292	-0.316511	-0.007797	0.005858	0.019122
28	0.192281	0.005000	9.295281	0.181587	1.691919	-0.744751	-0.361176	-0.315030	-0.009524	-0.007568	0.017639
29	0.197281	0.005000	9.196638	0.183819	1.871139	-0.744019	-0.360545	-0.316087	-0.008358	-0.003048	0.014109
30	0.202281	0.005000	9.172193	0.206167	1.765800	-0.743245	-0.359882	-0.317197	-0.009330	0.000694	0.001166
31	0.207281	0.005000	9.158773	0.109793	1.671467	-0.742472	-0.359219	-0.318307	-0.008604	-0.013972	0.011662
32	0.212281	0.005000	9.187777	0.140110	1.760183	-0.741699	-0.358557	-0.319417	-0.003645	0.003931	-0.000210
33	0.217281	0.005000	9.230999	0.160160	1.696919	-0.740926	-0.357894	-0.320527	-0.007664	0.004948	0.010504
34	0.222281	0.005000	9.337864	0.117720	1.767056	-0.740153	-0.357231	-0.321638	-0.012837	0.008618	0.019169
35	0.227281	0.005000	9.261788	0.079628	1.728856	-0.739380	-0.356569	-0.322748	-0.012730	-0.004943	0.007123
36	0.232281	0.005000	9.289351	0.000000	1.723050	-0.738606	-0.355906	-0.323858	-0.011404	-0.013842	0.008243
37	0.237281	0.005000	9.294384	0.033744	1.726560	-0.737833	-0.355243	-0.324968	-0.012310	0.003300	0.008147
38	0.242281	0.005000	9.205622	0.149139	1.718739	-0.737060	-0.354581	-0.326078	-0.001994	-0.012794	0.014946
39	0.247281	0.005000	9.142920	0.176488	1.726560	-0.736287	-0.353918	-0.327188	-0.016209	-0.009739	0.017535
40	0.252281	0.005000	9.130657	0.169223	1.711847	-0.735514	-0.353255	-0.328298	-0.016280	-0.006079	0.018199
41	0.257281	0.005000	9.157427	0.122001	1.741067	-0.734741	-0.352593	-0.329408	-0.008957	0.003955	0.011208
42	0.262281	0.005000	9.165278	0.179318	1.732036	-0.734070	-0.351930	-0.330460	-0.001601	0.001527	0.007864
43	0.267281	0.005000	9.083471	0.254471	1.686141	-0.733518	-0.351267	-0.331448	0.000643	-0.004107	0.013645
44	0.272281	0.005000	9.182160	0.196200	1.705119	-0.732965	-0.350604	-0.332435	0.000288	-0.003603	-0.000754
45	0.277281	0.005000	9.221400	0.196200	1.773696	-0.732413	-0.349941	-0.333422	0.000629	-0.008704	0.007191
46	0.282281	0.005000	9.248285	0.158047	1.726560	-0.731861	-0.349278	-0.334409	-0.020741	-0.000109	0.012336
47	0.287281	0.005000	9.260640	0.117720	1.743731	-0.731308	-0.348615	-0.335396	-0.005555	-0.003302	0.005011
48	0.292281	0.005000	9.260640	0.069494	1.696306	-0.730756	-0.347952	-0.336383	-0.006886	0.004137	0.012406
49	0.297281	0.005000	9.260640	0.071792	1.752424	-0.730203	-0.347289	-0.337370	-0.010633	0.004251	0.000776
50	0.302281	0.005000	9.256368	0.078480	1.683048	-0.729651	-0.346626	-0.338357	-0.010351	-0.005189	0.011103
51	0.307281	0.005000	9.223699	0.120019	1.648080	-0.729098	-0.345963	-0.339344	-0.011243	0.000792	0.002089
52	0.312281	0.005000	9.182313	0.117797	1.765570	-0.728546	-0.345300	-0.340332	-0.010690	-0.002261	0.002485
53	0.317281	0.005000	9.295838	0.119741	1.767821	-0.727993	-0.344637	-0.341319	-0.016932	0.000054	0.000173
54	0.322281	0.005000	9.339120	0.117720	1.735436	-0.727441	-0.343974	-0.342306	-0.009309	-0.002709	-0.007998
55	0.327281	0.005000	9.195684	0.235440	1.700844	-0.726888	-0.343311	-0.343293	-0.004607	-0.009065	0.002113
56	0.332281	0.005000	9.112468	0.156960	1.805040	-0.727078	-0.343708	-0.343096	-0.010947	-0.001322	0.005508
57	0.337281	0.005000	9.182160	0.117720	1.737763	-0.727299	-0.344150	-0.342850	-0.003669	-0.012216	0.016186
58	0.342281	0.005000	9.233744	0.143512	1.660424	-0.727520	-0.344591	-0.342603	-0.014693	-0.004751	0.008325
59	0.347281	0.005000	9.182160	0.188775	1.820595	-0.727741	-0.345033	-0.342356	-0.001899	-0.016504	-0.004750
60	0.352281	0.005000	9.278399	0.239161	1.783559	-0.727962	-0.345475	-0.342110	-0.008839	-0.008143	0.007660
61	0.357281	0.005000	9.241311	0.235440	1.746471	-0.728182	-0.345917	-0.341863	-0.016589	0.000554	-0.011167
62	0.362281	0.005000	9.299880	0.235440	1.838471	-0.728403	-0.346359	-0.341616	-0.009575	-0.008701	-0.008140
63	0.367281	0.005000	9.294691	0.299110	1.922760	-0.728624	-0.346800	-0.341370	-0.016323	-0.000419	-0.011044
64	0.372281	0.005000	9.274741	0.221339	1.883520	-0.728845	-0.347242	-0.341123	-0.020158	-0.010047	-0.006209
65	0.377281	0.005000	9.182160	0.156960	1.784716	-0.729066	-0.347684	-0.340877	-0.021731	-0.009366	0.000758
66	0.382281	0.005000	9.252517	0.235440	1.796917	-0.729287	-0.348126	-0.340630	-0.015324	-0.006407	-0.009156
67	0.387281	0.005000	9.182160	0.111917	1.838477	-0.729508	-0.348568	-0.340383	-0.013782	-0.014099	0.003009
68	0.392281	0.005000	9.178762	0.085275	1.801642	-0.729729	-0.349009	-0.340137	-0.017312	-0.003956	-0.002418
69	0.397281	0.005000	9.219963	0.152649	1.764363	-0.729752	-0.349451	-0.340055	0.000388	-0.016546	0.003752
70	0.402281	0.005000	9.220436	0.077516	1.764836	-0.729532	-0.349893	-0.340178	-0.000946	-0.012828	-0.000723
71	0.407281	0.005000	9.260640	0.189464	1.687320	-0.729311	-0.350335	-0.340302	-0.008790	-0.011267	0.000034
72	0.412281	0.005000	9.260640	0.196200	1.648080	-0.729090	-0.350776	-0.340425	-0.010869	-0.008801	0.001301
73	0.417281	0.005000	9.205943	0.172417	1.726560	-0.728869	-0.351218	-0.340548	-0.011816	-0.003963	-0.007361
74	0.422281	0.005000	9.250626	0.235440	1.677306	-0.728648	-0.351660	-0.340672	-0.002654	-0.016743	0.009246
75	0.427281	0.005000	9.272720	0.184120	1.886521	-0.728427	-0.352102	-0.340795	-0.014624	-0.006265	-0.007519
76	0.432281	0.005000	9.324627	0.185946	1.937253	-0.728206	-0.352544	-0.340919	-0.018992	-0.008614	-0.006097
77	0.437281	0.005000	9.271501	0.156960	1.956161	-0.727985	-0.352985	-0.341042	-0.016433	-0.021943	-0.003329
78	0.442281	0.005000	9.201235	0.236529	1.884609	-0.727764	-0.353427	-0.341165	-0.014173	-0.023788	-0.010893
79	0.447281	0.005000	9.160909	0.232179	1.805040	-0.727543	-0.353869	-0.341289	-0.008427	-0.026483	-0.002715
80	0.452281	0.005000	9.158500	0.290260	1.820620	-0.727323	-0.354311	-0.341412	-0.014220	-0.009944	-0.006254
81	0.457281	0.005000	9.168682	0.234245	1.779278	-0.727102	-0.354753	-0.341535	-0.012149	-0.023675	-0.001797
82	0.462281	0.005000	9.238195	0.168182	1.715338	-0.726881	-0.355194	-0.341659	-0.015097	-0.011140	0.000495
83	0.467281	0.005000	9.329953	0.274680	1.696487	-0.726969	-0.354400	-0.341897	-0.005211	-0.020284	-0.003041
84	0.472281	0.005000	9.299880	0.307048	1.583343	-0.727079	-0.353516	-0.342144	-0.002231	-0.016690	0.004411
85	0.477281	0.005000	9.260640	0.235440	1.726560	-0.727190	-0.352632	-0.342390	-0.017345	-0.012208	-0.007024
86	0.482281	0.005000	9.258159	0.188757	1.645599	-0.727300	-0.351749	-0.342637	-0.008576	-0.017084	0.003868
87	0.487281	0.005000	9.221507	0.157067	1.687320	-0.727411	-0.350865	-0.342884	-0.011561	-0.005214	-0.001423
88	0.492281	0.005000	9.297596	0.233156	1.613408	-0.727521	-0.349982	-0.343130	-0.011826	-0.015233	0.000346
89	0.497281	0.005000	9.182160	0.235440	1.652335	-0.727631	-0.349098	-0.343377	-0.017845	-0.014469	0.010185
90	0.502281	0.005000	9.122940	0.156960	1.713240	-0.727742	-0.348215	-0.343624	-0.023463	-0.007630	0.000873
91	0.507281	0.005000	9.200101	0.126690	1.787099	-0.727852	-0.347331	-0.343870	-0.015599	-0.012417	0.008614
92	0.512281	0.005000	9.193168	0.196200	1.743784	-0.727963	-0.346447	-0.344117	-0.012362	-0.009540	0.004922
93	0.517281	0.005000	9.260640	0.156960	1.622262	-0.728073	-0.345564	-0.344364	-0.011981	-0.014398	0.002229
94	0.522281	0.005000	9.237231	0.149381	1.648080	-0.728184	-0.344680	-0.344610	-0.010522	-0.005120	0.008871
95	0.527281	0.005000	9.221400	0.178168	1.648080	-0.728294	-0.343797	-0.344857	-0.015121	-0.006473	0.002833
96	0.532281	0.005000	9.279694	0.177146	1.765800	-0.728497	-0.343423	-0.345000	-0.006686	-0.019058	0.010464
97	0.537281	0.005000	9.260640	0.173602	1.693276	-0.728829	-0.343755	-0.345000	-0.018627	-0.007165	-0.001046
98	0.542281	0.005000	9.206878	0.210722	1.598644	-0.729160	-0.344086	-0.345000	-0.007104	-0.012089	0.008060
99	0.547281	0.005000	9.115969	0.237812	1.660369	-0.729492	-0.344418	-0.345000	-0.008883	-0.001431	0.008930
100	0.552281	0.005000	9.113555	0.127595	1.765800	-0.729823	-0.344749	-0.345000	-0.015918	-0.008971	0.009432
101	0.557281	0.005000	9.260640	0.243276	1.718724	-0.730155	-0.345080	-0.345000	-0.009785	0.000199	0.010984
102	0.562281	0.005000	9.171110	0.229915	1.692845	-0.730486	-0.345412	-0.345000	-0.008363	0.001874	0.004691
103	0.567281	0.005000	9.076872	0.196200	1.756476	-0.730818	-0.345743	-0.345000	-0.001527	-0.005435	0.009485
104	0.572281	0.005000	9.222550	0.197350	1.725410	-0.731149	-0.346075	-0.345000	-0.015055	0.005282	0.000345
105	0.577281	0.005000	9.222640	0.197440	1.573320	-0.731481	-0.346406	-0.345000	-0.003612	-0.007462	0.005930
106	0.582281	0.005000	9.221400	0.192585	1.648080	-0.731812	-0.346738	-0.345000	-0.007604	0.006686	0.016878
107	0.587281	0.005000	9.215410	0.250718	1.614830	-0.732144	-0.347069	-0.345000	-0.001868	-0.000720	0.005706
108	0.592281	0.005000	9.205392	0.235440	1.695324	-0.732476	-0.347401	-0.345000	-0.011912	-0.003195	0.016350
109	0.597281	0.005000	9.171749	0.245851	1.716149	-0.732807	-0.347732	-0.345000	-0.008558	0.006383	0.003328
110	0.602281	0.005000	9.301090	0.170847	1.739237	-0.732836	-0.347559	-0.345113	-0.012371	-0.001266	0.004219
111	0.607281	0.005000	9.265706	0.108017	1.711791	-0.732836	-0.347338	-0.345236	-0.021681	0.008079	0.013271
112	0.612281	0.005000	9.204222	0.139782	1.787862	-0.732836	-0.347118	-0.345359	-0.007177	0.000742	0.008356
113	0.617281	0.005000	9.299880	0.176837	1.726560	-0.732836	-0.346897	-0.345483	-0.017140	0.004749	0.015439
114	0.622281	0.005000	9.299880	0.256973	1.744267	-0.732836	-0.346676	-0.345606	-0.015369	0.003618	0.004474
115	0.627281	0.005000	9.221400	0.133301	1.750219	-0.732836	-0.346455	-0.345729	-0.020084	-0.003622	0.013340
116	0.632281	0.005000	9.273179	0.078480	1.714021	-0.732836	-0.346234	-0.345853	-0.020012	0.005140	0.013484
117	0.637281	0.005000	9.142920	0.150548	1.754857	-0.732836	-0.346013	-0.345976	-0.022608	-0.002404	-0.000608
118	0.642281	0.005000	9.239190	0.226545	1.865730	-0.732836	-0.345792	-0.346099	-0.012056	-0.012338	0.008035
119	0.647281	0.005000	9.149503	0.235440	1.798457	-0.732836	-0.345571	-0.346223	-0.012350	-0.007157	0.003505
120	0.652281	0.005000	9.177982	0.227084	1.765800	-0.732836	-0.345350	-0.346346	0.004167	-0.007652	0.009143
121	0.657281	0.005000	9.258431	0.117720	1.759174	-0.732836	-0.345130	-0.346470	0.000000	0.000975	0.003233
122	0.662281	0.005000	9.260472	0.195863	1.648080	-0.732836	-0.344909	-0.346593	0.004993	-0.007403	0.017275
123	0.667281	0.005000	9.218814	0.083653	1.606254	-0.732792	-0.344776	-0.346568	-0.010604	-0.009728	0.003829
124	0.672281	0.005000	9.256110	0.083010	1.717500	-0.732681	-0.344776	-0.346322	-0.007777	-0.007636	0.000329
125	0.677281	0.005000	9.274511	0.124656	1.687320	-0.732571	-0.344776	-0.346075	-0.003870	-0.005787	0.000735
126	0.682281	0.005000	9.221400	0.138475	1.705805	-0.732460	-0.344776	-0.345828	-0.013601	-0.006267	-0.004574
127	0.687281	0.005000	9.277291	0.224145	1.743211	-0.732350	-0.344776	-0.345581	-0.005972	-0.012979	0.005869
128	0.692281	0.005000	9.234939	0.131259	1.714398	-0.732239	-0.344776	-0.345334	-0.020166	-0.001982	0.000684
129	0.697281	0.005000	9.150621	0.141313	1.585247	-0.732129	-0.344776	-0.345087	-0.003732	-0.013455	0.001247
130	0.702281	0.005000	9.185282	0.199322	1.705379	-0.732018	-0.344776	-0.344841	-0.003349	-0.004298	0.002656
131	0.707281	0.005000	9.142920	0.215215	1.687320	-0.731908	-0.344776	-0.344594	-0.014143	0.005108	-0.015892
132	0.712281	0.005000	9.193398	0.213026	1.620078	-0.731797	-0.344776	-0.344347	-0.005619	-0.002462	0.003010
133	0.717281	0.005000	9.260640	0.103303	1.794633	-0.731686	-0.344776	-0.344100	-0.009569	0.007890	-0.001869
134	0.722281	0.005000	9.246057	0.235440	1.805040	-0.731576	-0.344776	-0.343853	-0.010161	-0.003003	-0.004724
135	0.727281	0.005000	9.368301	0.196200	1.834221	-0.731465	-0.344776	-0.343606	-0.013530	0.003865	-0.001191
136	0.732281	0.005000	9.182160	0.243095	1.702630	-0.731355	-0.344776	-0.343360	-0.008700	-0.007941	-0.004208
137	0.737281	0.005000	9.158668	0.196200	1.794541	-0.731146	-0.344776	-0.343553	-0.015061	-0.012644	0.002030
138	0.742281	0.005000	9.178854	0.225523	1.726560	-0.730925	-0.344776	-0.343800	-0.019314	0.000860	-0.000667
139	0.747281	0.005000	9.221400	0.119496	1.687320	-0.730704	-0.344776	-0.344047	-0.010474	-0.009929	0.003026
140	0.752281	0.005000	9.183216	0.158016	1.687320	-0.730483	-0.344776	-0.344293	-0.014225	0.011579	-0.012325
141	0.757281	0.005000	9.217940	0.189280	1.719640	-0.730262	-0.344776	-0.344540	-0.014100	-0.003963	-0.008017
142	0.762281	0.005000	9.227209	0.117720	1.698938	-0.730041	-0.344776	-0.344787	-0.014078	-0.001364	0.007466
143	0.767281	0.005000	9.283512	0.016368	1.757616	-0.729821	-0.344776	-0.345034	-0.014314	0.003681	0.003567
144	0.772281	0.005000	9.328893	0.068253	1.776027	-0.729600	-0.344776	-0.345280	-0.007063	0.003971	0.000470
145	0.777281	0.005000	9.326479	0.131677	1.817681	-0.729379	-0.344776	-0.345527	-0.020399	0.012306	-0.005256
146	0.782281	0.005000	9.251140	0.211070	1.790170	-0.729158	-0.344776	-0.345774	-0.014209	-0.003534	0.009789
147	0.787281	0.005000	9.260640	0.196200	1.760549	-0.728937	-0.344776	-0.346020	-0.015875	0.000569	0.003481
148	0.792281	0.005000	9.122861	0.117720	1.765800	-0.728716	-0.344776	-0.346267	-0.020616	-0.001387	-0.007522
149	0.797281	0.005000	9.239291	0.181768	1.633648	-0.728495	-0.344776	-0.346514	-0.020198	-0.001702	0.003533
150	0.802281	0.005000	9.236879	0.126003	1.718277	-0.728316	-0.344818	-0.346573	-0.025642	0.004964	0.004146
151	0.807281	0.005000	9.274028	0.131108	1.831815	-0.728206	-0.344928	-0.346327	-0.010226	0.001601	0.012209
152	0.812281	0.005000	9.182160	0.168091	1.855411	-0.728095	-0.345039	-0.346080	-0.009525	0.006691	0.002159
153	0.817281	0.005000	9.212677	0.187477	1.892243	-0.727985	-0.345149	-0.345833	-0.011348	-0.004192	-0.000579
154	0.822281	0.005000	9.208784	0.229132	1.870904	-0.727874	-0.345260	-0.345587	-0.010837	-0.004907	0.002227
155	0.827281	0.005000	9.186471	0.274680	1.918449	-0.727764	-0.345370	-0.345340	-0.012777	-0.007097	-0.005655
156	0.832281	0.005000	9.256722	0.349242	1.883520	-0.727654	-0.345481	-0.345093	-0.003533	-0.011111	0.007140
157	0.837281	0.005000	9.142950	0.196200	1.765785	-0.727543	-0.345591	-0.344846	-0.019552	0.007026	-0.002142
158	0.842281	0.005000	9.221400	0.196200	1.689723	-0.727433	-0.345702	-0.344600	-0.008263	-0.009156	-0.003046
159	0.847281	0.005000	9.265447	0.274680	1.800233	-0.727322	-0.345812	-0.344353	-0.000081	-0.012188	0.010511
160	0.852281	0.005000	9.164340	0.203340	1.726560	-0.727212	-0.345923	-0.344106	-0.000397	-0.004073	0.004887
161	0.857281	0.005000	9.182160	0.235440	1.746770	-0.727102	-0.346033	-0.343859	-0.005555	-0.010036	0.007273
162	0.862281	0.005000	9.225917	0.129294	1.714986	-0.726991	-0.346144	-0.343613	-0.006991	-0.000963	-0.003627
163	0.867281	0.005000	9.232664	0.013988	1.701308	-0.726881	-0.346254	-0.343366	0.004821	-0.016754	0.002344
164	0.872281	0.005000	9.205199	0.101519	1.694158	-0.727153	-0.346269	-0.343440	0.000178	-0.003623	-0.005498
165	0.877281	0.005000	9.242049	0.136311	1.765800	-0.727484	-0.346269	-0.343563	-0.006606	-0.009789	0.005776
166	0.882281	0.005000	9.239895	0.136215	1.784295	-0.727816	-0.346269	-0.343687	-0.017266	-0.000569	0.006882
167	0.887281	0.005000	9.221400	0.180115	1.772871	-0.728147	-0.346269	-0.343810	-0.012916	0.004843	-0.000785
168	0.892281	0.005000	9.274618	0.142982	1.673342	-0.728478	-0.346269	-0.343933	-0.012913	-0.012652	0.004147
169	0.897281	0.005000	9.299880	0.161017	1.687320	-0.728810	-0.346269	-0.344057	-0.022069	0.003225	-0.008563
170	0.902281	0.005000	9.251320	0.156960	1.717240	-0.729141	-0.346269	-0.344180	-0.011018	-0.011566	0.007242
171	0.907281	0.005000	9.214109	0.125011	1.758509	-0.729472	-0.346269	-0.344303	-0.018375	-0.004866	0.005825
172	0.912281	0.005000	9.196864	0.161861	1.800139	-0.729803	-0.346269	-0.344427	-0.014816	-0.009308	-0.004510
173	0.917281	0.005000	9.299880	0.269568	1.841724	-0.730135	-0.346269	-0.344550	-0.018162	0.002831	0.022155
174	0.922281	0.005000	9.182436	0.235027	1.804902	-0.730466	-0.346269	-0.344673	-0.014798	0.001723	0.000988
175	0.927281	0.005000	9.185772	0.042852	1.765800	-0.730797	-0.346269	-0.344797	-0.002261	-0.013936	0.005078
176	0.932281	0.005000	9.190581	0.078480	1.805040	-0.731129	-0.346269	-0.344920	-0.008564	-0.006554	0.000740
177	0.937281	0.005000	9.247540	0.078480	1.765800	-0.731811	-0.346737	-0.343694	-0.015620	-0.014817	0.007823
178	0.942281	0.005000	9.234929	0.156960	1.765800	-0.733136	-0.348062	-0.339994	-0.013883	-0.013267	0.015596
179	0.947281	0.005000	9.232377	0.150652	1.737537	-0.734462	-0.349388	-0.336294	-0.013128	-0.007820	0.004376
180	0.952281	0.005000	9.116916	0.026004	1.713793	-0.735787	-0.350713	-0.332594	-0.003190	-0.008302	0.016199
181	0.957281	0.005000	9.151509	0.117720	1.765800	-0.737113	-0.352038	-0.328894	-0.010168	0.001346	0.002540
182	0.962281	0.005000	9.182160	0.139222	1.830307	-0.738438	-0.353364	-0.325193	-0.012764	-0.013036	0.004117
183	0.967281	0.005000	9.142920	0.156960	1.727135	-0.739764	-0.354689	-0.321493	-0.019606	-0.003920	0.006372
184	0.972281	0.005000	9.165013	0.174107	1.844280	-0.741089	-0.356014	-0.317793	-0.008871	-0.018386	0.000885
185	0.977281	0.005000	9.187134	0.142222	1.726560	-0.742414	-0.357340	-0.314093	-0.021076	-0.014740	0.009019
186	0.982281	0.005000	9.169514	0.221493	1.792394	-0.743740	-0.358665	-0.310393	-0.014448	-0.003811	-0.003898
187	0.987281	0.005000	9.202921	0.138481	1.815420	-0.745065	-0.359991	-0.306693	-0.010690	-0.004007	0.002192
188	0.992281	0.005000	9.291907	0.156960	1.789093	-0.746391	-0.361316	-0.302993	-0.006553	-0.005084	-0.006769
189	0.997281	0.005000	9.249525	0.156960	1.726560	-0.747716	-0.362641	-0.299293	-0.003332	-0.014939	-0.004581
190	1.002281	0.005000	9.339120	0.203340	1.840710	-0.749042	-0.363967	-0.295593	-0.003770	-0.014805	0.002818
191	1.007281	0.005000	9.297462	0.234231	1.728978	-0.748233	-0.363158	-0.297694	-0.004866	-0.009442	-0.005449
192	1.012281	0.005000	9.221400	0.158155	1.766995	-0.747018	-0.361943	-0.300902	-0.006855	-0.018319	0.013310
193	1.017281	0.005000	9.146073	0.160113	1.693625	-0.745802	-0.360727	-0.304110	-0.010412	-0.007872	-0.002998
194	1.022281	0.005000	9.244166	0.162451	1.732051	-0.744587	-0.359512	-0.307319	-0.013711	-0.014418	0.003599
195	1.027281	0.005000	9.253138	0.156960	1.616342	-0.743371	-0.358296	-0.310527	-0.003829	-0.015718	0.004252
196	1.032281	0.005000	9.123491	0.107814	1.657986	-0.742156	-0.357081	-0.313735	0.000910	-0.007101	-0.008497
197	1.037281	0.005000	9.157520	0.117720	1.648080	-0.740940	-0.355865	-0.316943	-0.010156	-0.010050	0.006946
198	1.042281	0.005000	9.231535	0.171512	1.751248	-0.739725	-0.354650	-0.320151	-0.017389	-0.006480	0.003218
199	1.047281	0.005000	9.289102	0.173633	1.749127	-0.738509	-0.353434	-0.323359	-0.012110	-0.010513	0.010879
200	1.052281	0.005000	9.221400	0.117720	1.706404	-0.737294	-0.352219	-0.326567	-0.015560	-0.006899	0.007765
201	1.057281	0.005000	9.317881	0.196200	1.726560	-0.736078	-0.351003	-0.329776	-0.009461	-0.006705	0.009483
202	1.062281	0.005000	9.166360	0.188560	1.694960	-0.734863	-0.349788	-0.332984	-0.004250	-0.006336	0.014050
203	1.067281	0.005000	9.247249	0.170351	1.570534	-0.733647	-0.348572	-0.336192	-0.009681	-0.018380	0.004794
204	1.072281	0.005000	9.154235	0.202221	1.603545	-0.732763	-0.347688	-0.338456	0.002982	-0.021787	0.019097
205	1.077281	0.005000	9.221400	0.217374	1.648080	-0.732542	-0.347467	-0.338826	-0.011386	-0.010181	0.010283
206	1.082281	0.005000	9.234653	0.098360	1.595587	-0.732321	-0.347246	-0.339196	-0.010202	-0.012948	0.011054
207	1.087281	0.005000	9.369102	0.196200	1.578858	-0.732100	-0.347025	-0.339566	-0.015568	-0.001194	0.010501
208	1.092281	0.005000	9.223666	0.124518	1.687320	-0.731879	-0.346804	-0.339936	-0.016493	-0.005267	0.004299
209	1.097281	0.005000	9.260640	0.157232	1.765528	-0.731658	-0.346583	-0.340306	-0.018737	-0.003108	-0.005488
210	1.102281	0.005000	9.226452	0.191148	1.692372	-0.731437	-0.346362	-0.340676	-0.014250	0.003991	0.002307
211	1.107281	0.005000	9.221400	0.122206	1.643594	-0.731216	-0.346141	-0.341046	-0.016959	-0.010190	0.014041
212	1.112281	0.005000	9.253738	0.124622	1.712756	-0.730995	-0.345920	-0.341416	-0.012772	-0.000475	-0.001326
213	1.117281	0.005000	9.152117	0.226243	1.756603	-0.730774	-0.345699	-0.341786	-0.015911	0.005612	-0.000102
214	1.122281	0.005000	9.198894	0.196200	1.838799	-0.730554	-0.345479	-0.342156	-0.010473	-0.002703	0.008896
215	1.127281	0.005000	9.221400	0.196200	1.815187	-0.730333	-0.345258	-0.342526	-0.006523	0.004045	-0.007793
216	1.132281	0.005000	9.237476	0.071391	1.781876	-0.730112	-0.345037	-0.342896	-0.009516	-0.013932	0.002350
217	1.137281	0.005000	9.320633	0.159225	1.784287	-0.729891	-0.344816	-0.343266	-0.021571	0.007565	0.009554
218	1.142281	0.005000	9.239991	0.156960	1.825689	-0.729670	-0.344686	-0.342828	-0.025887	-0.001148	0.001147
219	1.147281	0.005000	9.260640	0.117720	1.955554	-0.729449	-0.344575	-0.342211	-0.024881	0.005058	0.007596
220	1.152281	0.005000	9.285892	0.145696	1.869532	-0.729228	-0.344465	-0.341594	-0.013907	0.003375	-0.007866
221	1.157281	0.005000	9.194065	0.208105	1.844280	-0.729007	-0.344354	-0.340978	-0.008299	-0.014774	-0.004027
222	1.162281	0.005000	9.231030	0.136980	1.834650	-0.728786	-0.344244	-0.340361	-0.021249	-0.002683	-0.007003
223	1.167281	0.005000	9.221400	0.267456	1.712113	-0.728566	-0.344133	-0.339744	-0.017015	-0.010794	-0.004434
224	1.172281	0.005000	9.231015	0.083287	1.623262	-0.728345	-0.344023	-0.339128	-0.022973	-0.015308	0.004619
225	1.177281	0.005000	9.182160	0.154131	1.765800	-0.728124	-0.343913	-0.338511	-0.010731	-0.008027	-0.003113
226	1.182281	0.005000	9.221400	0.156960	1.687779	-0.727903	-0.343802	-0.337894	-0.012387	-0.013765	0.003706
227	1.187281	0.005000	9.221400	0.156960	1.763879	-0.727682	-0.343692	-0.337278	-0.014523	-0.009667	-0.008839
228	1.192281	0.005000	9.299880	0.188422	1.722671	-0.727461	-0.343581	-0.336661	-0.009090	-0.011411	0.007385
229	1.197281	0.005000	9.227705	0.189895	1.805040	-0.727240	-0.343471	-0.336044	-0.007470	-0.005005	-0.001863
230	1.202281	0.005000	9.230007	0.244047	1.713142	-0.727019	-0.343361	-0.335428	-0.007788	-0.013994	0.000160
231	1.207281	0.005000	9.260640	0.099792	1.626768	-0.726967	-0.343453	-0.335227	0.000937	-0.008826	-0.004484
232	1.212281	0.005000	9.221400	0.117751	1.778900	-0.727299	-0.344006	-0.335967	-0.012209	-0.012650	-0.007424
233	1.217281	0.005000	9.221400	0.141666	1.741854	-0.727630	-0.344558	-0.336707	0.000578	-0.016692	0.002284
234	1.222281	0.005000	9.321697	0.174383	1.831251	-0.727962	-0.345111	-0.337448	-0.013068	-0.004011	-0.013380
235	1.227281	0.005000	9.260640	0.195771	1.707583	-0.728293	-0.345663	-0.338188	-0.004830	-0.017568	-0.001219
236	1.232281	0.005000	9.255920	0.196200	1.621380	-0.728625	-0.346215	-0.338928	-0.013971	-0.000314	-0.001065
237	1.237281	0.005000	9.167110	0.156960	1.789990	-0.728956	-0.346768	-0.339669	-0.019462	-0.005563	-0.001491
238	1.242281	0.005000	9.207443	0.182243	1.792399	-0.729288	-0.347320	-0.340409	-0.018436	-0.007220	-0.003054
239	1.247281	0.005000	9.299880	0.196200	1.805040	-0.729619	-0.347873	-0.341150	-0.016491	-0.014051	-0.001095
240	1.252281	0.005000	9.283314	0.095046	1.656363	-0.729951	-0.348425	-0.341890	-0.012649	-0.008708	0.006576
241	1.257281	0.005000	9.227279	0.096117	1.714802	-0.730282	-0.348978	-0.342630	-0.015589	-0.004359	-0.005909
242	1.262281	0.005000	9.182160	0.227665	1.765800	-0.730614	-0.349530	-0.343371	-0.013570	-0.013352	-0.000369
243	1.267281	0.005000	9.183690	0.120781	1.767330	-0.730945	-0.350083	-0.344111	-0.016860	-0.006836	0.005849
244	1.272281	0.005000	9.183037	0.196200	1.766677	-0.731276	-0.350635	-0.344851	-0.018355	-0.010638	0.003031
245	1.277281	0.005000	9.145751	0.269017	1.575263	-0.731343	-0.350393	-0.345197	-0.005620	-0.017217	0.013386
246	1.282281	0.005000	9.182160	0.230204	1.608840	-0.731343	-0.349951	-0.345444	-0.020507	0.001738	-0.001286
247	1.287281	0.005000	9.158047	0.181073	1.672193	-0.731343	-0.349509	-0.345690	-0.014506	-0.009465	0.007864
248	1.292281	0.005000	9.113619	0.215563	1.736499	-0.731343	-0.349068	-0.345937	-0.015895	0.005874	0.012905
249	1.297281	0.005000	9.182160	0.208203	1.675317	-0.731343	-0.348626	-0.346184	-0.011450	0.005687	-0.004541
250	1.302281	0.005000	9.235817	0.181783	1.726560	-0.731343	-0.348184	-0.346430	-0.009675	0.001946	0.003657
251	1.307281	0.005000	9.205040	0.235440	1.670960	-0.731343	-0.347742	-0.346677	-0.011901	0.005208	0.001689
252	1.312281	0.005000	9.241870	0.214970	1.648080	-0.731343	-0.347300	-0.346924	-0.007849	-0.012565	0.003797
253	1.317281	0.005000	9.200219	0.196200	1.726560	-0.731343	-0.346859	-0.347170	-0.019732	-0.004243	-0.000801
254	1.322281	0.005000	9.229947	0.235440	1.733942	-0.731343	-0.346417	-0.347417	-0.010494	-0.009902	-0.003048
255	1.327281	0.005000	9.299880	0.156960	1.712847	-0.731343	-0.345975	-0.347664	-0.011910	0.000545	0.005194
256	1.332281	0.005000	9.311179	0.168259	1.608840	-0.731343	-0.345533	-0.347910	-0.013439	0.003113	0.005003
257	1.337281	0.005000	9.262909	0.253925	1.645811	-0.731343	-0.345091	-0.348157	-0.007991	-0.014583	0.005785
258	1.342281	0.005000	9.253692	0.300024	1.798092	-0.731311	-0.344808	-0.348262	-0.014924	0.004982	-0.003025
259	1.347281	0.005000	9.256108	0.235440	1.726560	-0.731201	-0.344918	-0.348016	-0.009160	-0.007606	0.009417
260	1.352281	0.005000	9.260640	0.120276	1.721447	-0.731091	-0.345029	-0.347769	-0.013058	-0.009115	0.001480
261	1.357281	0.005000	9.260456	0.156776	1.765800	-0.730980	-0.345139	-0.347523	-0.014613	-0.007743	-0.004984
262	1.362281	0.005000	9.258431	0.154751	1.765800	-0.730870	-0.345250	-0.347276	-0.008940	-0.001993	0.009429
263	1.367281	0.005000	9.299880	0.196200	1.809218	-0.730759	-0.345360	-0.347029	-0.013921	-0.000605	0.000995
264	1.372281	0.005000	9.267223	0.268097	1.680737	-0.730649	-0.345471	-0.346783	-0.004860	-0.009123	0.008156
265	1.377281	0.005000	9.182160	0.244335	1.678425	-0.730539	-0.345581	-0.346536	-0.019758	0.003384	0.006285
266	1.382281	0.005000	9.171217	0.167903	1.743915	-0.730428	-0.345691	-0.346289	-0.011996	0.005772	0.002833
267	1.387281	0.005000	9.194699	0.169499	1.752450	-0.730318	-0.345802	-0.346043	-0.011017	-0.009900	0.007645
268	1.392281	0.005000	9.158501	0.188122	1.757722	-0.730207	-0.345912	-0.345796	-0.020853	-0.004933	0.001523
269	1.397281	0.005000	9.164453	0.103839	1.665787	-0.730097	-0.346023	-0.345549	-0.011410	-0.017237	0.013158
270	1.402281	0.005000	9.280750	0.215330	1.666231	-0.729986	-0.346133	-0.345303	-0.020791	0.005014	0.002272
271	1.407281	0.005000	9.120668	0.213188	1.743548	-0.729876	-0.346244	-0.345056	-0.014616	-0.002024	0.003982
272	1.412281	0.005000	9.152964	0.206244	1.805040	-0.729851	-0.346696	-0.344523	-0.010240	0.004336	0.006394
273	1.417281	0.005000	9.167652	0.119863	1.699686	-0.729851	-0.347248	-0.343907	-0.012644	-0.009883	0.008192
274	1.422281	0.005000	9.270025	0.156960	1.706657	-0.729851	-0.347800	-0.343290	-0.005854	-0.002835	0.013246
275	1.427281	0.005000	9.135008	0.227528	1.655992	-0.729851	-0.348352	-0.342673	-0.007391	-0.012484	0.004482
276	1.432281	0.005000	9.165325	0.156960	1.726560	-0.729851	-0.348905	-0.342057	-0.015838	-0.009133	0.005379
277	1.437281	0.005000	9.230954	0.127274	1.732929	-0.729851	-0.349457	-0.341440	-0.014970	0.001484	0.004015
278	1.442281	0.005000	9.218920	0.159440	1.769520	-0.729851	-0.350009	-0.340824	-0.005360	-0.009319	0.004599
279	1.447281	0.005000	9.104830	0.159259	1.845430	-0.729851	-0.350561	-0.340207	-0.011836	-0.000610	0.004123
280	1.452281	0.005000	9.218292	0.123936	1.801932	-0.729851	-0.351113	-0.339590	-0.009906	-0.002285	-0.007901
281	1.457281	0.005000	9.187685	0.156960	1.844280	-0.729851	-0.351666	-0.338974	-0.016507	-0.015386	0.000353
282	1.462281	0.005000	9.142920	0.086316	1.734396	-0.729851	-0.352218	-0.338357	-0.007031	0.002246	0.000633
283	1.467281	0.005000	9.182160	0.117720	1.706810	-0.729851	-0.352770	-0.337740	-0.010336	-0.008965	0.003701
284	1.472281	0.005000	9.182160	0.183921	1.778079	-0.729851	-0.353322	-0.337124	-0.009478	-0.004456	0.010498
285	1.477281	0.005000	9.157442	0.235440	1.868998	-0.729822	-0.353788	-0.336827	-0.015613	-0.001245	0.004241
286	1.482281	0.005000	9.221400	0.140324	1.815707	-0.729712	-0.354009	-0.337444	-0.004276	-0.010019	0.005539
287	1.487281	0.005000	9.163114	0.096378	1.746754	-0.729601	-0.354230	-0.338061	-0.010623	-0.005742	-0.005814
288	1.492281	0.005000	9.103680	0.196200	1.805040	-0.729491	-0.354451	-0.338678	-0.012866	-0.019240	0.003014
289	1.497281	0.005000	9.103680	0.054361	1.741681	-0.729380	-0.354672	-0.339295	-0.015346	-0.011052	-0.003520
290	1.502281	0.005000	9.090253	0.117720	1.701788	-0.729270	-0.354893	-0.339912	-0.014973	-0.010059	-0.008682
291	1.507281	0.005000	9.153939	0.167979	1.787838	-0.729159	-0.355114	-0.340529	-0.005762	-0.009795	0.008247
292	1.512281	0.005000	9.151995	0.126795	1.774875	-0.729049	-0.355335	-0.341146	-0.017469	-0.011450	0.003616
293	1.517281	0.005000	9.221400	0.156960	1.824300	-0.728938	-0.355556	-0.341763	-0.011699	-0.016688	0.007728
294	1.522281	0.005000	9.226116	0.161676	1.622987	-0.728827	-0.355777	-0.342380	-0.024602	-0.001026	0.003176
295	1.527281	0.005000	9.258329	0.159271	1.800418	-0.728717	-0.355998	-0.342997	-0.012709	0.001024	0.003390
296	1.532281	0.005000	9.260277	0.157323	1.688046	-0.728606	-0.356219	-0.343613	-0.015007	-0.005416	0.006314
297	1.537281	0.005000	9.258589	0.270578	1.802989	-0.728496	-0.356440	-0.344230	-0.015253	-0.003723	0.004293
298	1.542281	0.005000	9.225855	0.096301	1.800585	-0.728385	-0.356661	-0.344847	-0.009085	-0.016015	0.011631
299	1.547281	0.005000	9.110457	0.110943	1.726560	-0.728358	-0.356383	-0.345000	-0.015314	-0.002722	0.001923
300	1.552281	0.005000	9.212597	0.126523	1.813843	-0.728358	-0.355941	-0.345000	-0.009063	-0.020151	0.003775
301	1.557281	0.005000	9.249422	0.078480	1.620058	-0.728358	-0.355499	-0.345000	-0.008773	-0.002685	0.001359
302	1.562281	0.005000	9.221400	0.104094	1.687320	-0.728358	-0.355057	-0.345000	-0.013562	-0.007240	-0.002906
303	1.567281	0.005000	9.299880	0.141107	1.656400	-0.728358	-0.354615	-0.345000	-0.009542	-0.007088	0.006919
304	1.572281	0.005000	9.299880	0.145528	1.633373	-0.728358	-0.354173	-0.345000	-0.005136	-0.013805	-0.002219
305	1.577281	0.005000	9.260640	0.177353	1.767346	-0.728358	-0.353731	-0.345000	-0.016942	-0.011582	-0.003907
306	1.582281	0.005000	9.210539	0.190361	1.765800	-0.728358	-0.353289	-0.345000	-0.017534	-0.012017	0.001402
307	1.587281	0.005000	9.196653	0.196200	1.829787	-0.728358	-0.352847	-0.345000	-0.013025	-0.017028	0.002046
308	1.592281	0.005000	9.221400	0.208280	1.817120	-0.728358	-0.352405	-0.345000	-0.011678	-0.016350	0.004851
309	1.597281	0.005000	9.142920	0.127943	1.844280	-0.728358	-0.351963	-0.345000	-0.008973	-0.016761	-0.001551
310	1.602281	0.005000	9.135281	0.093758	1.805040	-0.728358	-0.351521	-0.345000	-0.010425	-0.027321	0.010237
311	1.607281	0.005000	9.108993	0.151647	1.737185	-0.728358	-0.351079	-0.345000	-0.017265	-0.015473	-0.000880
312	1.612281	0.005000	9.224308	0.196200	1.796317	-0.728385	-0.350665	-0.345000	-0.010712	-0.019672	0.004056
313	1.617281	0.005000	9.220447	0.156960	1.687320	-0.728496	-0.350333	-0.345000	-0.012629	0.000142	-0.003950
314	1.622281	0.005000	9.144359	0.270363	1.762922	-0.728606	-0.350002	-0.345000	-0.008784	-0.011216	-0.003029
315	1.627281	0.005000	9.103680	0.274680	1.691132	-0.728717	-0.349671	-0.345000	-0.013969	-0.016361	0.002872
316	1.632281	0.005000	9.137120	0.168561	1.805040	-0.728827	-0.349339	-0.345000	-0.020197	-0.006164	0.000958
317	1.637281	0.005000	9.244227	0.134133	1.751179	-0.728938	-0.349008	-0.345000	-0.005734	-0.015006	0.001023
318	1.642281	0.005000	9.135175	0.175203	1.648080	-0.729048	-0.348677	-0.345000	-0.009695	-0.000625	-0.000341
319	1.647281	0.005000	9.248075	0.249550	1.649626	-0.729159	-0.348345	-0.345000	-0.010242	-0.010690	0.001655
320	1.652281	0.005000	9.275613	0.196200	1.726560	-0.729269	-0.348014	-0.345000	-0.003510	-0.006111	0.008452
321	1.657281	0.005000	9.243455	0.235440	1.626025	-0.729379	-0.347683	-0.345000	-0.009746	-0.007439	-0.004885
322	1.662281	0.005000	9.241311	0.254769	1.668572	-0.729490	-0.347352	-0.345000	-0.006757	-0.009710	0.007760
323	1.667281	0.005000	9.164401	0.217681	1.765800	-0.729600	-0.347020	-0.345000	-0.019113	0.004536	0.000831
324	1.672281	0.005000	9.182160	0.156960	1.734690	-0.729711	-0.346689	-0.345000	-0.006980	-0.013394	0.003013
325	1.677281	0.005000	9.195505	0.144013	1.648080	-0.729821	-0.346358	-0.345000	-0.011020	-0.000706	0.003916
326	1.682281	0.005000	9.238921	0.252961	1.759139	-0.729851	-0.346269	-0.345090	-0.011552	-0.001108	-0.007477
327	1.687281	0.005000	9.195036	0.209076	1.848368	-0.729851	-0.346269	-0.345214	-0.009684	-0.011436	0.004518
328	1.692281	0.005000	9.253863	0.117720	1.837503	-0.729851	-0.346269	-0.345337	-0.021119	0.000415	-0.005530
329	1.697281	0.005000	9.299880	0.196200	1.761360	-0.729851	-0.346269	-0.345461	-0.015885	-0.008858	0.009439
330	1.702281	0.005000	9.260640	0.270609	1.765800	-0.729851	-0.346269	-0.345584	-0.015768	0.000194	0.003021
331	1.707281	0.005000	9.221400	0.196018	1.726742	-0.729851	-0.346269	-0.345707	-0.009609	-0.008935	0.001465
332	1.712281	0.005000	9.258314	0.117720	1.768126	-0.729851	-0.346269	-0.345831	-0.014021	-0.011766	0.008009
333	1.717281	0.005000	9.177486	0.265331	1.791017	-0.729851	-0.346269	-0.345954	-0.014610	-0.014676	0.001018
334	1.722281	0.005000	9.135856	0.092609	1.765800	-0.729851	-0.346269	-0.346078	-0.008249	-0.002995	-0.005493
335	1.727281	0.005000	9.191251	0.156960	1.726560	-0.729851	-0.346269	-0.346201	-0.005132	0.001186	-0.006750
336	1.732281	0.005000	9.131422	0.117720	1.671076	-0.729851	-0.346269	-0.346325	-0.003966	-0.009525	0.000334
337	1.737281	0.005000	9.193899	0.168699	1.710797	-0.729851	-0.346269	-0.346448	-0.011936	-0.003103	0.001093
338	1.742281	0.005000	9.214411	0.101594	1.703446	-0.729851	-0.346269	-0.346571	-0.008411	-0.001478	-0.003273
339	1.747281	0.005000	9.163895	0.156960	1.750245	-0.730025	-0.346543	-0.346028	-0.008350	-0.006946	0.003159
340	1.752281	0.005000	9.241837	0.156960	1.764166	-0.730798	-0.347758	-0.343191	-0.009551	0.010301	0.000441
341	1.757281	0.005000	9.345504	0.140532	1.755756	-0.731571	-0.348973	-0.340355	-0.008332	-0.005675	0.001847
342	1.762281	0.005000	9.232224	0.131928	1.754976	-0.732345	-0.350187	-0.337518	-0.008415	-0.001183	-0.000488
343	1.767281	0.005000	9.155052	0.196200	1.780776	-0.733118	-0.351402	-0.334681	-0.007486	-0.009575	-0.001056
344	1.772281	0.005000	9.113540	0.235440	1.775660	-0.733891	-0.352617	-0.331844	-0.013515	-0.011477	0.004805
345	1.777281	0.005000	9.189613	0.164413	1.844280	-0.734664	-0.353832	-0.329007	-0.016435	-0.008625	-0.001978
346	1.782281	0.005000	9.226846	0.224548	1.721114	-0.735437	-0.355047	-0.326171	-0.006123	-0.014187	0.000779
347	1.787281	0.005000	9.296787	0.156960	1.768893	-0.736210	-0.356262	-0.323334	-0.014401	-0.002295	-0.002591
348	1.792281	0.005000	9.257236	0.041509	1.728829	-0.736984	-0.357477	-0.320497	0.003067	-0.004101	0.004970
349	1.797281	0.005000	9.218889	0.117720	1.691086	-0.737757	-0.358692	-0.317660	-0.007874	0.005617	0.010611
350	1.802281	0.005000	9.221400	0.188939	1.690951	-0.738530	-0.359907	-0.314824	-0.011461	-0.001436	0.001638
351	1.807281	0.005000	9.187777	0.162577	1.692937	-0.739303	-0.361122	-0.311987	-0.010305	-0.010753	0.003062
352	1.812281	0.005000	9.275812	0.164983	1.757777	-0.740076	-0.362337	-0.309150	-0.026894	-0.000325	-0.000684
353	1.817281	0.005000	9.407283	0.225123	1.776117	-0.740378	-0.362687	-0.309212	-0.009646	-0.005067	0.007231
354	1.822281	0.005000	9.310164	0.208581	1.674939	-0.740488	-0.362687	-0.310446	-0.018362	-0.003048	0.005130
355	1.827281	0.005000	9.270301	0.181410	1.726560	-0.740599	-0.362687	-0.311679	-0.011358	-0.003116	-0.009466
356	1.832281	0.005000	9.221400	0.168729	1.709557	-0.740709	-0.362687	-0.312913	-0.013481	-0.006135	-0.000736
357	1.837281	0.005000	9.281707	0.177062	1.785902	-0.740819	-0.362687	-0.314147	-0.012730	0.000331	-0.005241
358	1.842281	0.005000	9.164468	0.113863	1.761943	-0.740930	-0.362687	-0.315381	-0.010690	-0.010436	0.013951
359	1.847281	0.005000	9.236966	0.133286	1.679212	-0.741040	-0.362687	-0.316615	-0.008834	-0.001365	-0.002716
360	1.852281	0.005000	9.169272	0.209376	1.700208	-0.741151	-0.362687	-0.317849	-0.006421	-0.010982	0.000588
361	1.857281	0.005000	9.249713	0.167887	1.641622	-0.741261	-0.362687	-0.319083	-0.015213	0.003209	0.003600
362	1.862281	0.005000	9.238425	0.187688	1.726560	-0.741372	-0.362687	-0.320317	-0.003952	0.000251	0.001455
363	1.867281	0.005000	9.306370	0.091459	1.720070	-0.741482	-0.362687	-0.321551	-0.007232	-0.006768	0.003049
364	1.872281	0.005000	9.299880	0.078480	1.691483	-0.741593	-0.362687	-0.322785	-0.006753	-0.002669	-0.005936
365	1.877281	0.005000	9.221400	0.122956	1.765800	-0.741703	-0.362687	-0.324019	-0.008112	-0.017596	0.008655
366	1.882281	0.005000	9.260441	0.274481	1.726759	-0.741678	-0.362506	-0.325152	-0.018216	0.003128	0.000733
367	1.887281	0.005000	9.331312	0.201405	1.689923	-0.741125	-0.361622	-0.325892	-0.010082	-0.005954	0.001217
368	1.892281	0.005000	9.200348	0.196200	1.735654	-0.740573	-0.360738	-0.326632	-0.004662	-0.000869	0.007765
369	1.897281	0.005000	9.221400	0.156960	1.615803	-0.740020	-0.359854	-0.327373	-0.002501	-0.004939	-0.004524
370	1.902281	0.005000	9.221400	0.108813	1.735467	-0.739468	-0.358970	-0.328113	-0.014225	-0.016337	0.005911
371	1.907281	0.005000	9.232714	0.117720	1.821652	-0.738915	-0.358086	-0.328854	-0.025922	-0.004467	-0.000697
372	1.912281	0.005000	9.221400	0.092034	1.765800	-0.738363	-0.357201	-0.329594	-0.004650	-0.010470	0.004360
373	1.917281	0.005000	9.237062	0.102058	1.859942	-0.737810	-0.356317	-0.330334	-0.017629	-0.003885	0.010788
374	1.922281	0.005000	9.242566	0.178126	1.841189	-0.737258	-0.355433	-0.331075	-0.016703	-0.012295	-0.009872
375	1.927281	0.005000	9.142920	0.216440	1.765800	-0.736705	-0.354549	-0.331815	-0.016481	-0.012528	0.005426
376	1.932281	0.005000	9.238211	0.218629	1.748989	-0.736153	-0.353665	-0.332555	-0.016199	0.007179	0.000487
377	1.937281	0.005000	9.192023	0.230614	1.775663	-0.735600	-0.352781	-0.333296	-0.001126	-0.013229	0.002807
378	1.942281	0.005000	9.194618	0.090938	1.660538	-0.735047	-0.351897	-0.334036	-0.012540	-0.003716	0.005481
379	1.947281	0.005000	9.220466	0.156960	1.785887	-0.734495	-0.351013	-0.334776	-0.023670	-0.012218	0.006264
380	1.952281	0.005000	9.158925	0.219435	1.797038	-0.734482	-0.350746	-0.335344	-0.015448	-0.002643	0.001229
381	1.957281	0.005000	9.271895	0.162587	1.692947	-0.734703	-0.350746	-0.335838	-0.014780	-0.005373	-0.004456
382	1.962281	0.005000	9.260640	0.196200	1.654633	-0.734924	-0.350746	-0.336331	-0.002335	-0.017558	0.007143
383	1.967281	0.005000	9.299008	0.235440	1.766672	-0.735145	-0.350746	-0.336824	-0.009568	-0.007363	-0.007308
384	1.972281	0.005000	9.222472	0.159103	1.652367	-0.735366	-0.350746	-0.337318	-0.003873	-0.007574	0.012093
385	1.977281	0.005000	9.217911	0.156960	1.690809	-0.735587	-0.350746	-0.337811	-0.006442	-0.002817	-0.004661
386	1.982281	0.005000	9.266060	0.117720	1.754960	-0.735808	-0.350746	-0.338305	-0.010096	-0.013422	-0.006957
387	1.987281	0.005000	9.166427	0.149124	1.663752	-0.736028	-0.350746	-0.338798	-0.009204	-0.010166	0.008297
388	1.992281	0.005000	9.182160	0.156960	1.794920	-0.736249	-0.350746	-0.339291	-0.010558	-0.006182	-0.004433
389	1.997281	0.005000	9.260640	0.225932	1.763121	-0.736470	-0.350746	-0.339785	-0.007365	-0.010084	0.006807
390	2.002281	0.005000	9.246040	0.274680	1.677280	-0.736691	-0.350746	-0.340278	-0.015006	0.005407	0.000524
391	2.007281	0.005000	9.182160	0.179394	1.698499	-0.736912	-0.350746	-0.340771	-0.004483	-0.008480	-0.003388
392	2.012281	0.005000	9.123966	0.156960	1.767132	-0.737133	-0.350746	-0.341265	-0.002484	-0.005130	-0.002857
393	2.017281	0.005000	9.239522	0.120715	1.729555	-0.737231	-0.350705	-0.341576	-0.014982	-0.007041	-0.007382
394	2.022281	0.005000	9.253263	0.055172	1.585532	-0.736789	-0.350484	-0.341082	-0.010542	-0.017179	0.000138
395	2.027281	0.005000	9.247121	0.129922	1.608840	-0.736347	-0.350263	-0.340589	-0.020639	-0.004869	-0.001362
396	2.032281	0.005000	9.260640	0.044171	1.597404	-0.735905	-0.350042	-0.340095	-0.013326	-0.013224	0.000157
397	2.037281	0.005000	9.221400	0.117720	1.636342	-0.735463	-0.349821	-0.339601	-0.011947	-0.010266	0.003805
398	2.042281	0.005000	9.293128	0.163712	1.700824	-0.735021	-0.349600	-0.339108	-0.016746	-0.000606	-0.005789
399	2.047281	0.005000	9.186910	0.142710	1.790790	-0.734579	-0.349379	-0.338614	-0.003840	-0.007043	0.009073
400	2.052281	0.005000	9.295074	0.120123	1.731366	-0.734137	-0.349158	-0.338121	-0.013846	0.001732	-0.001524
401	2.057281	0.005000	9.260640	0.235440	1.687320	-0.733695	-0.348937	-0.337627	-0.009081	-0.016386	0.002188
402	2.062281	0.005000	9.223790	0.083260	1.689710	-0.733253	-0.348716	-0.337133	-0.015301	-0.005645	0.007785
403	2.067281	0.005000	9.265002	0.161322	1.691682	-0.732811	-0.348495	-0.336640	-0.011297	-0.012648	-0.008849
404	2.072281	0.005000	9.234934	0.228673	1.856452	-0.732369	-0.348274	-0.336146	-0.015295	-0.013116	0.002583
405	2.077281	0.005000	9.182160	0.196200	1.714549	-0.731927	-0.348053	-0.335653	-0.018840	-0.005728	0.000820
406	2.082281	0.005000	9.249514	0.196200	1.670332	-0.731485	-0.347832	-0.335159	-0.010690	-0.012233	0.013592
407	2.087281	0.005000	9.157817	0.171857	1.661614	-0.731193	-0.347911	-0.335418	-0.014878	-0.007447	0.007910
408	2.092281	0.005000	9.150635	0.196200	1.671557	-0.730972	-0.348132	-0.336035	-0.010777	-0.018606	0.002044
409	2.097281	0.005000	9.242749	0.214091	1.730019	-0.730752	-0.348352	-0.336651	-0.011229	-0.005966	0.006002
410	2.102281	0.005000	9.203824	0.196200	1.687320	-0.730531	-0.348573	-0.337268	-0.012988	-0.002589	-0.001289
411	2.107281	0.005000	9.277431	0.190542	1.664871	-0.730310	-0.348794	-0.337884	-0.009328	-0.012756	0.009688
412	2.112281	0.005000	9.211330	0.132305	1.677250	-0.730089	-0.349015	-0.338501	-0.015455	0.003386	-0.005151
413	2.117281	0.005000	9.221400	0.144788	1.738732	-0.729868	-0.349236	-0.339118	-0.009045	-0.005696	0.006654
414	2.122281	0.005000	9.221400	0.206427	1.776027	-0.729647	-0.349457	-0.339734	-0.002897	-0.006959	0.008984
415	2.127281	0.005000	9.244993	0.156960	1.742207	-0.729426	-0.349678	-0.340351	-0.014776	-0.005423	0.001502
416	2.132281	0.005000	9.193778	0.129338	1.732369	-0.729205	-0.349899	-0.340968	-0.013724	-0.008495	0.004179
417	2.137281	0.005000	9.182160	0.238914	1.772748	-0.728984	-0.350120	-0.341584	-0.013872	-0.005406	-0.005534
418	2.142281	0.005000	9.105793	0.274680	1.802927	-0.728763	-0.350341	-0.342201	-0.005114	-0.014309	0.012310
419	2.147281	0.005000	9.143808	0.236328	1.764912	-0.728543	-0.350561	-0.342818	-0.011622	0.000694	0.008267
420	2.152281	0.005000	9.146212	0.189617	1.719977	-0.728413	-0.350710	-0.343333	-0.012979	-0.004426	0.007166
421	2.157281	0.005000	9.182160	0.196200	1.653722	-0.728744	-0.350489	-0.343333	-0.018730	0.001878	0.007584
422	2.162281	0.005000	9.221400	0.220136	1.726560	-0.729076	-0.350268	-0.343333	-0.005436	-0.014303	0.005180
423	2.167281	0.005000	9.270699	0.186141	1.775859	-0.729407	-0.350047	-0.343333	-0.009420	-0.018720	0.008116
424	2.172281	0.005000	9.260640	0.183871	1.831951	-0.729739	-0.349826	-0.343333	-0.002751	-0.009774	-0.003891
425	2.177281	0.005000	9.246223	0.160970	1.755393	-0.730070	-0.349605	-0.343333	-0.008028	-0.009687	-0.005061
426	2.182281	0.005000	9.221400	0.173786	1.720972	-0.730402	-0.349384	-0.343333	-0.008873	0.005900	-0.000722
427	2.187281	0.005000	9.260640	0.137945	1.726560	-0.730733	-0.349163	-0.343333	-0.010277	-0.011092	0.010641
428	2.192281	0.005000	9.160979	0.178141	1.726560	-0.731065	-0.348942	-0.343333	-0.013881	-0.008976	0.009695
429	2.197281	0.005000	9.276287	0.094127	1.781447	-0.731396	-0.348721	-0.343333	-0.020534	-0.010174	0.003480
430	2.202281	0.005000	9.313434	0.209754	1.687320	-0.731728	-0.348500	-0.343333	-0.013710	-0.013805	0.012610
431	2.207281	0.005000	9.249341	0.156960	1.687320	-0.732059	-0.348279	-0.343333	-0.015646	-0.002801	0.008069
432	2.212281	0.005000	9.191052	0.205092	1.756908	-0.732391	-0.348058	-0.343333	-0.007358	-0.009932	0.002612
433	2.217281	0.005000	9.200797	0.203068	1.707923	-0.732722	-0.347837	-0.343333	-0.007091	-0.003731	0.010160
434	2.222281	0.005000	9.186692	0.196200	1.687320	-0.732618	-0.348051	-0.343414	-0.002052	-0.009727	-0.001702
435	2.227281	0.005000	9.140793	0.124102	1.689447	-0.732287	-0.348493	-0.343537	-0.010926	-0.006170	0.003849
436	2.232281	0.005000	9.064727	0.118582	1.648655	-0.731955	-0.348935	-0.343661	-0.022180	-0.002953	-0.006035
437	2.237281	0.005000	9.219166	0.124423	1.648080	-0.731624	-0.349377	-0.343784	-0.004027	-0.003534	0.002580
438	2.242281	0.005000	9.260640	0.156960	1.691959	-0.731293	-0.349819	-0.343908	-0.014112	-0.004025	0.006419
439	2.247281	0.005000	9.285933	0.124694	1.798066	-0.730961	-0.350260	-0.344031	-0.010138	-0.013595	-0.005952
440	2.252281	0.005000	9.230399	0.156960	1.805040	-0.730630	-0.350702	-0.344154	-0.017062	-0.012598	0.006729
441	2.257281	0.005000	9.182160	0.156960	1.777206	-0.730298	-0.351144	-0.344278	-0.013490	0.000718	0.000488
442	2.262281	0.005000	9.207740	0.145040	1.728300	-0.729967	-0.351586	-0.344401	-0.003924	-0.008693	0.003501
443	2.267281	0.005000	9.283845	0.078480	1.805040	-0.729636	-0.352028	-0.344524	-0.008733	-0.002666	0.005062
444	2.272281	0.005000	9.239573	0.159854	1.823213	-0.729304	-0.352469	-0.344648	-0.007906	-0.004348	0.004833
445	2.277281	0.005000	9.318789	0.236862	1.805040	-0.728973	-0.352911	-0.344771	-0.011626	-0.004602	0.008349
446	2.282281	0.005000	9.305683	0.303004	1.737476	-0.728642	-0.353353	-0.344894	-0.013369	0.001938	-0.001598
447	2.287281	0.005000	9.310501	0.132029	1.726560	-0.728326	-0.353667	-0.345018	-0.004289	-0.013284	0.003413
448	2.292281	0.005000	9.314674	0.208423	1.832057	-0.728105	-0.353225	-0.345141	-0.015233	-0.002837	-0.006300
449	2.297281	0.005000	9.083777	0.245392	1.854232	-0.727884	-0.352783	-0.345265	-0.006297	-0.012100	-0.007599
450	2.302281	0.005000	9.080263	0.235440	1.930672	-0.727663	-0.352341	-0.345388	-0.003286	-0.005231	0.008539
451	2.307281	0.005000	9.148521	0.224237	1.872317	-0.727442	-0.351899	-0.345511	-0.015810	-0.016129	0.005785
452	2.312281	0.005000	9.146105	0.163329	1.847465	-0.727221	-0.351457	-0.345635	-0.008328	-0.007390	0.005295
453	2.317281	0.005000	9.223851	0.274680	1.767025	-0.727000	-0.351015	-0.345758	-0.008193	-0.005303	-0.005079
454	2.322281	0.005000	9.223727	0.236604	1.805040	-0.726779	-0.350573	-0.345882	-0.009258	-0.010801	0.007390
455	2.327281	0.005000	9.217819	0.267518	1.805040	-0.726558	-0.350131	-0.346005	-0.013990	-0.000874	-0.003007
456	2.332281	0.005000	9.260640	0.208029	1.732475	-0.726337	-0.349689	-0.346129	-0.010741	-0.009503	0.002749
457	2.337281	0.005000	9.221400	0.125651	1.687320	-0.726116	-0.349247	-0.346252	-0.008984	-0.010400	0.000436
458	2.342281	0.005000	9.250294	0.070277	1.745109	-0.725895	-0.348805	-0.346375	-0.011301	-0.014439	-0.003878
459	2.347281	0.005000	9.168122	0.196200	1.844280	-0.725674	-0.348363	-0.346499	-0.009968	-0.007521	0.009309
460	2.352281	0.005000	9.206708	0.171652	1.682300	-0.725453	-0.347921	-0.346622	-0.003428	-0.007592	0.000879
461	2.357281	0.005000	9.277741	0.179099	1.726560	-0.725584	-0.347972	-0.346588	-0.013713	-0.021301	-0.001874
462	2.362281	0.005000	9.142706	0.196200	1.687320	-0.725916	-0.348304	-0.346465	-0.019329	-0.004340	0.000096
463	2.367281	0.005000	9.156413	0.156960	1.783378	-0.726247	-0.348635	-0.346342	-0.021623	-0.014190	0.003490
464	2.372281	0.005000	9.315251	0.187703	1.719686	-0.726579	-0.348967	-0.346218	-0.011847	-0.008962	0.000956
465	2.377281	0.005000	9.247677	0.222477	1.621803	-0.726910	-0.349298	-0.346095	-0.015111	0.001974	0.004301
466	2.382281	0.005000	9.153812	0.274680	1.709103	-0.727242	-0.349630	-0.345971	0.002624	-0.010373	0.009847
467	2.387281	0.005000	9.190764	0.109116	1.648080	-0.727573	-0.349961	-0.345848	-0.018085	-0.002026	-0.003408
468	2.392281	0.005000	9.188358	0.084678	1.705915	-0.727905	-0.350293	-0.345724	-0.017541	-0.009161	-0.004467
469	2.397281	0.005000	9.269051	0.196200	1.805040	-0.728236	-0.350624	-0.345601	-0.013931	-0.003516	0.009908
470	2.402281	0.005000	9.413969	0.194385	1.801409	-0.728568	-0.350956	-0.345478	-0.009803	-0.005295	0.002825
471	2.407281	0.005000	9.261773	0.195634	1.726560	-0.728900	-0.351288	-0.345354	-0.001882	-0.009976	0.009776
472	2.412281	0.005000	9.188060	0.193250	1.726560	-0.729231	-0.351619	-0.345231	-0.012917	0.007346	-0.001994
473	2.417281	0.005000	9.221400	0.230512	1.942288	-0.729563	-0.351951	-0.345107	-0.017445	-0.005201	0.006152
474	2.422281	0.005000	9.189494	0.196200	1.765800	-0.729880	-0.352196	-0.345016	-0.014780	-0.005705	0.001836
475	2.427281	0.005000	9.201635	0.264943	1.864045	-0.730101	-0.351865	-0.345139	-0.012375	-0.002180	-0.009945
476	2.432281	0.005000	9.221400	0.286691	1.925967	-0.730322	-0.351533	-0.345263	-0.018236	-0.010638	0.009664
477	2.437281	0.005000	9.157015	0.249535	2.001240	-0.730542	-0.351202	-0.345386	-0.021989	0.000949	-0.003067
478	2.442281	0.005000	9.204896	0.297416	1.916529	-0.730763	-0.350870	-0.345509	-0.009059	-0.010158	0.008745
479	2.447281	0.005000	9.202951	0.313920	1.844280	-0.730984	-0.350539	-0.345633	-0.019455	-0.008026	-0.001972
480	2.452281	0.005000	9.200540	0.217060	1.768279	-0.731205	-0.350208	-0.345756	-0.015884	-0.009290	-0.009467
481	2.457281	0.005000	9.221400	0.101473	1.828033	-0.731426	-0.349876	-0.345880	-0.002880	-0.011667	0.001536
482	2.462281	0.005000	9.246616	0.131744	1.819064	-0.731647	-0.349545	-0.346003	-0.015204	-0.001952	-0.007681
483	2.467281	0.005000	9.158928	0.207816	1.809432	-0.731868	-0.349214	-0.346126	-0.007073	-0.013470	0.008066
484	2.472281	0.005000	9.182160	0.088040	1.824161	-0.732089	-0.348882	-0.346250	-0.015743	-0.004526	-0.011012
485	2.477281	0.005000	9.157434	0.235440	1.837023	-0.732310	-0.348551	-0.346373	0.000775	-0.018774	0.002838
486	2.482281	0.005000	9.216549	0.152109	1.726560	-0.732530	-0.348219	-0.346496	-0.008465	0.000662	0.006695
487	2.487281	0.005000	9.179286	0.156960	1.799292	-0.732751	-0.347888	-0.346620	-0.001768	-0.009660	0.000174
488	2.492281	0.005000	9.182160	0.118210	1.609330	-0.732700	-0.347693	-0.346591	0.005789	-0.005895	0.000043
489	2.497281	0.005000	9.182160	0.156960	1.648080	-0.732479	-0.347582	-0.346468	-0.011713	-0.004165	-0.007156
490	2.502281	0.005000	9.107537	0.117720	1.726560	-0.732258	-0.347472	-0.346344	-0.013312	-0.012624	0.000432
491	2.507281	0.005000	9.229331	0.222916	1.726560	-0.732037	-0.347362	-0.346221	-0.012181	-0.006880	0.000003
492	2.512281	0.005000	9.151497	0.165537	1.743714	-0.731816	-0.347251	-0.346097	-0.010616	-0.008194	-0.003243
493	2.517281	0.005000	9.210779	0.117720	1.773177	-0.731595	-0.347141	-0.345974	-0.012801	-0.005290	0.006299
494	2.522281	0.005000	9.234429	0.130749	1.739589	-0.731374	-0.347030	-0.345851	-0.009653	0.000544	-0.009376
495	2.527281	0.005000	9.323857	0.220177	1.693870	-0.731153	-0.346920	-0.345727	-0.001319	-0.006839	0.008826
496	2.532281	0.005000	9.182160	0.235440	1.748162	-0.730933	-0.346810	-0.345604	-0.000211	0.006015	0.000586
497	2.537281	0.005000	9.142568	0.255236	1.804688	-0.730712	-0.346699	-0.345481	-0.008996	-0.011715	0.007013
498	2.542281	0.005000	9.221400	0.213234	1.849453	-0.730491	-0.346589	-0.345357	-0.004581	-0.003965	0.001366
499	2.547281	0.005000	9.299880	0.250355	1.741475	-0.730270	-0.346478	-0.345234	-0.019516	-0.016807	-0.008517
500	2.552281	0.005000	9.207514	0.222763	1.713883	-0.730049	-0.346368	-0.345111	0.000614	-0.017192	0.003581
501	2.557281	0.005000	9.240102	0.235440	1.805040	-0.729874	-0.346258	-0.344949	-0.019827	-0.002649	0.010557
502	2.562281	0.005000	9.159378	0.204429	1.726560	-0.730095	-0.346147	-0.344455	-0.012587	-0.009900	0.008540
503	2.567281	0.005000	9.288061	0.223621	1.787311	-0.730316	-0.346036	-0.343962	-0.014408	-0.002344	0.002914
504	2.572281	0.005000	9.221400	0.039240	1.648080	-0.730537	-0.345926	-0.343468	-0.008191	-0.011481	-0.006613
505	2.577281	0.005000	9.296794	0.119263	1.688863	-0.730758	-0.345815	-0.342974	-0.011193	-0.002439	0.006365
506	2.582281	0.005000	9.259798	0.156960	1.726560	-0.730979	-0.345705	-0.342481	-0.017688	-0.000876	-0.000204
507	2.587281	0.005000	9.224622	0.192978	1.795374	-0.731200	-0.345594	-0.341987	-0.010747	-0.017214	0.001401
508	2.592281	0.005000	9.182160	0.269477	1.726560	-0.731421	-0.345484	-0.341494	-0.015452	-0.005729	0.000003
509	2.597281	0.005000	9.206182	0.196200	1.797431	-0.731642	-0.345373	-0.341000	-0.015721	-0.012708	-0.004887
510	2.602281	0.005000	9.192068	0.196200	1.795132	-0.731863	-0.345263	-0.340507	-0.008661	-0.008930	0.013183
511	2.607281	0.005000	9.285207	0.156960	1.768190	-0.732084	-0.345152	-0.340013	-0.011828	-0.004887	-0.015020
512	2.612281	0.005000	9.246264	0.196200	1.844280	-0.732305	-0.345042	-0.339519	-0.004319	-0.010112	0.004937
513	2.617281	0.005000	9.277429	0.235440	1.805040	-0.732526	-0.344931	-0.339026	-0.005803	-0.001393	-0.002563
514	2.622281	0.005000	9.182160	0.116419	1.824010	-0.732747	-0.344821	-0.338532	-0.010815	-0.005619	0.006850
515	2.627281	0.005000	9.224447	0.156960	1.762753	-0.733231	-0.345830	-0.336935	-0.008950	0.005454	0.008379
516	2.632281	0.005000	9.228722	0.117720	1.741203	-0.733894	-0.347598	-0.334592	-0.014408	-0.001527	-0.000253
517	2.637281	0.005000	9.286137	0.194210	1.712817	-0.734557	-0.349365	-0.332248	-0.008004	-0.011144	0.008889
518	2.642281	0.005000	9.232730	0.150882	1.754470	-0.735219	-0.351132	-0.329905	-0.006834	-0.005061	0.003336
519	2.647281	0.005000	9.170784	0.156960	1.747224	-0.735882	-0.352899	-0.327562	-0.016342	-0.018943	0.006425
520	2.652281	0.005000	9.182160	0.210163	1.708264	-0.736545	-0.354667	-0.325218	-0.015537	-0.005796	-0.005226
521	2.657281	0.005000	9.225976	0.274680	1.735712	-0.737207	-0.356434	-0.322875	-0.007016	-0.007082	-0.001932
522	2.662281	0.005000	9.297278	0.112516	1.726560	-0.737870	-0.358201	-0.320532	-0.008083	-0.007950	0.004394
523	2.667281	0.005000	9.377931	0.156960	1.766014	-0.738533	-0.359968	-0.318188	-0.012319	-0.008291	-0.002646
524	2.672281	0.005000	9.262803	0.119883	1.619656	-0.739196	-0.361735	-0.315845	-0.007925	-0.009208	0.002438
525	2.677281	0.005000	9.186294	0.047507	1.687320	-0.739858	-0.363503	-0.313502	-0.015962	0.001787	0.003678
526	2.682281	0.005000	9.195260	0.150410	1.739660	-0.740521	-0.365270	-0.311158	-0.005015	-0.013068	0.005571
527	2.687281	0.005000	9.234092	0.048089	1.748101	-0.741184	-0.367037	-0.308815	-0.009250	-0.000905	0.003557
528	2.692281	0.005000	9.271541	0.117720	1.698221	-0.741773	-0.368574	-0.306852	-0.011582	-0.010010	-0.006023
529	2.697281	0.005000	9.287269	0.196200	1.713245	-0.741552	-0.367580	-0.309072	-0.007439	-0.005667	0.002951
530	2.702281	0.005000	9.174367	0.251164	1.593254	-0.741331	-0.366586	-0.311292	-0.020000	0.000507	-0.003311
531	2.707281	0.005000	9.182160	0.093017	1.687320	-0.741110	-0.365592	-0.313512	-0.010821	-0.008357	0.004695
532	2.712281	0.005000	9.142920	0.096723	1.707399	-0.740889	-0.364598	-0.315732	-0.012258	0.000787	-0.007761
533	2.717281	0.005000	9.159669	0.179451	1.726560	-0.740668	-0.363604	-0.317952	-0.003319	-0.004545	0.006217
534	2.722281	0.005000	9.285237	0.186246	1.765800	-0.740447	-0.362610	-0.320172	-0.005859	-0.001509	0.005535
535	2.727281	0.005000	9.169759	0.142522	1.805040	-0.740226	-0.361616	-0.322393	-0.013700	-0.007138	-0.013104
536	2.732281	0.005000	9.250646	0.235440	1.755806	-0.740005	-0.360622	-0.324613	-0.009629	-0.010633	0.005573
537	2.737281	0.005000	9.291923	0.196200	1.860194	-0.739785	-0.359628	-0.326833	-0.014012	0.006964	-0.006391
538	2.742281	0.005000	9.187794	0.117720	1.838646	-0.739564	-0.358633	-0.329053	-0.013346	0.000355	-0.006489
539	2.747281	0.005000	9.146149	0.081709	1.765800	-0.739343	-0.357639	-0.331273	-0.016365	-0.006505	-0.003767
540	2.752281	0.005000	9.259829	0.156960	1.805040	-0.739122	-0.356645	-0.333493	-0.015626	-0.013841	-0.011876
541	2.757281	0.005000	9.145185	0.042638	1.805040	-0.738901	-0.355651	-0.335713	-0.013578	-0.015466	0.006086
542	2.762281	0.005000	9.185697	0.121257	1.808577	-0.738491	-0.354846	-0.336948	-0.021591	-0.009885	-0.008740
543	2.767281	0.005000	9.115449	0.151076	1.726560	-0.737938	-0.354183	-0.337442	-0.004090	-0.024903	0.001353
544	2.772281	0.005000	9.135023	0.219646	1.797143	-0.737386	-0.353520	-0.337935	-0.020200	-0.003843	-0.001876
545	2.777281	0.005000	9.240032	0.146656	1.776104	-0.736833	-0.352857	-0.338429	-0.018881	-0.011270	0.000929
546	2.782281	0.005000	9.208682	0.196200	1.791236	-0.736281	-0.352194	-0.338922	-0.014282	-0.017090	0.003048
547	2.787281	0.005000	9.167499	0.171621	1.652824	-0.735728	-0.351531	-0.339416	-0.017766	-0.004709	-0.003614
548	2.792281	0.005000	9.304978	0.201298	1.726560	-0.735176	-0.350868	-0.339910	-0.010467	-0.013380	0.006743
549	2.797281	0.005000	9.241398	0.255438	1.825795	-0.734623	-0.350205	-0.340403	-0.014195	0.000973	-0.002256
550	2.802281	0.005000	9.242819	0.274680	1.847878	-0.734071	-0.349542	-0.340897	-0.013535	-0.015142	0.003084
551	2.807281	0.005000	9.260640	0.283097	1.757383	-0.733518	-0.348879	-0.341390	-0.017336	-0.013425	0.001369
552	2.812281	0.005000	9.182160	0.274680	1.661078	-0.732966	-0.348216	-0.341884	-0.013722	-0.006074	-0.003213
553	2.817281	0.005000	9.171238	0.185278	1.743956	-0.732413	-0.347553	-0.342377	-0.010953	-0.012273	0.008589
554	2.822281	0.005000	9.204106	0.226793	1.757153	-0.731861	-0.346890	-0.342871	-0.012057	-0.018106	-0.004903
555	2.827281	0.005000	9.260640	0.163191	1.621302	-0.731315	-0.346269	-0.343325	-0.004364	-0.025069	-0.000850
556	2.832281	0.005000	9.169453	0.200436	1.805040	-0.730873	-0.346269	-0.343202	-0.006641	-0.010440	-0.001866
557	2.837281	0.005000	9.101798	0.196200	1.763918	-0.730431	-0.346269	-0.343079	-0.003603	-0.022076	0.000265
558	2.842281	0.005000	9.180572	0.157489	1.610428	-0.729990	-0.346269	-0.342955	-0.009024	-0.012800	0.003568
559	2.847281	0.005000	9.179681	0.230481	1.645601	-0.729548	-0.346269	-0.342832	-0.008844	-0.010345	-0.007202
560	2.852281	0.005000	9.142920	0.078480	1.613724	-0.729106	-0.346269	-0.342709	-0.007074	-0.009869	0.009861
561	2.857281	0.005000	9.196591	0.039240	1.608840	-0.728664	-0.346269	-0.342585	-0.015625	-0.007381	-0.002695
562	2.862281	0.005000	9.232909	0.108476	1.717316	-0.728223	-0.346269	-0.342462	-0.011000	-0.005520	0.011001
563	2.867281	0.005000	9.304167	0.090131	1.714909	-0.727781	-0.346269	-0.342339	-0.017243	-0.005947	0.007284
564	2.872281	0.005000	9.209934	0.246906	1.726560	-0.727339	-0.346269	-0.342216	-0.021572	-0.011513	0.002148
565	2.877281	0.005000	9.112437	0.219441	1.687320	-0.726897	-0.346269	-0.342092	-0.017171	-0.010152	0.009209
566	2.882281	0.005000	9.184578	0.175371	1.703313	-0.726455	-0.346269	-0.341969	-0.020539	-0.003271	-0.006631
567	2.887281	0.005000	9.085013	0.078480	1.765800	-0.726014	-0.346269	-0.341846	-0.014782	-0.009281	0.004138
568	2.892281	0.005000	9.110366	0.055517	1.703597	-0.725572	-0.346269	-0.341722	-0.017744	-0.001644	-0.001053
569	2.897281	0.005000	9.156985	0.142895	1.701385	-0.725494	-0.346330	-0.341667	-0.021372	0.002565	-0.000853
570	2.902281	0.005000	9.166222	0.129371	1.793389	-0.725715	-0.346440	-0.341667	-0.025340	0.001660	0.004388
571	2.907281	0.005000	9.182160	0.186609	1.756209	-0.725936	-0.346551	-0.341667	-0.021883	-0.000342	-0.002839
572	2.912281	0.005000	9.110980	0.125020	1.765800	-0.726157	-0.346661	-0.341667	-0.009439	-0.012984	0.000656
573	2.917281	0.005000	9.157572	0.122604	1.643196	-0.726378	-0.346771	-0.341667	-0.020282	0.008470	-0.001304
574	2.922281	0.005000	9.294071	0.196200	1.693129	-0.726599	-0.346882	-0.341667	-0.012528	-0.013266	0.003108
575	2.927281	0.005000	9.182160	0.235440	1.805576	-0.726820	-0.346992	-0.341667	-0.012869	-0.008511	0.015264
576	2.932281	0.005000	9.219539	0.198061	1.769521	-0.727041	-0.347103	-0.341667	-0.021012	-0.004479	-0.005671
577	2.937281	0.005000	9.142920	0.231614	1.726560	-0.727262	-0.347213	-0.341667	-0.017563	-0.012351	0.002749
578	2.942281	0.005000	9.188391	0.183738	1.668626	-0.727483	-0.347323	-0.341667	-0.006734	-0.001650	-0.008327
579	2.947281	0.005000	9.173628	0.143315	1.740205	-0.727703	-0.347434	-0.341667	-0.009480	-0.013837	0.003123
580	2.952281	0.005000	9.182160	-0.007502	1.737139	-0.727924	-0.347544	-0.341667	0.001154	-0.009129	0.008844
581	2.957281	0.005000	9.169167	0.196460	1.753067	-0.728145	-0.347655	-0.341667	0.005800	-0.012227	0.002456
582	2.962281	0.005000	9.127702	0.108916	1.820258	-0.728362	-0.347757	-0.341672	-0.005902	-0.008653	0.004480
583	2.967281	0.005000	9.221400	0.178854	1.888067	-0.728473	-0.347647	-0.341795	-0.017925	-0.007303	-0.001376
584	2.972281	0.005000	9.182160	0.157235	1.785558	-0.728583	-0.347536	-0.341918	-0.004119	-0.007450	0.008779
585	2.977281	0.005000	9.142920	0.156960	1.757601	-0.728694	-0.347426	-0.342041	-0.013576	-0.002001	-0.002157
586	2.982281	0.005000	9.158046	0.156960	1.657067	-0.728804	-0.347315	-0.342165	-0.008582	-0.013782	0.002421
587	2.987281	0.005000	9.168356	0.144242	1.648080	-0.728914	-0.347205	-0.342288	-0.007173	-0.007419	0.002165
588	2.992281	0.005000	9.239341	0.128370	1.608840	-0.729025	-0.347094	-0.342411	-0.010706	0.000327	-0.004778
589	2.997281	0.005000	9.238119	0.126079	1.718201	-0.729135	-0.346984	-0.342535	-0.011629	-0.014259	0.011742
590	3.002281	0.005000	9.287973	0.162913	1.765800	-0.729246	-0.346874	-0.342658	-0.020344	-0.004256	0.002998
591	3.007281	0.005000	9.186170	0.160970	1.718541	-0.729356	-0.346763	-0.342781	-0.011068	-0.018061	0.003360
592	3.012281	0.005000	9.259048	0.233848	1.729745	-0.729467	-0.346653	-0.342904	-0.008798	-0.000006	0.001725
593	3.017281	0.005000	9.221400	0.196200	1.843943	-0.729577	-0.346542	-0.343028	-0.004159	-0.005083	0.002247
594	3.022281	0.005000	9.179405	0.277435	1.763045	-0.729688	-0.346432	-0.343151	-0.016713	0.000935	0.014844
595	3.027281	0.005000	9.182160	0.196200	1.731658	-0.729798	-0.346322	-0.343274	-0.020965	0.003047	0.005487
596	3.032281	0.005000	9.228504	0.203304	1.758696	-0.730025	-0.346385	-0.343139	-0.014409	-0.004764	0.013951
597	3.037281	0.005000	9.220237	0.058278	1.715878	-0.730356	-0.346606	-0.342769	-0.021344	0.006670	0.006854
598	3.042281	0.005000	9.154847	0.078480	1.723100	-0.730687	-0.346827	-0.342399	-0.022307	-0.011359	0.006847
599	3.047281	0.005000	9.272138	0.246938	1.777298	-0.731019	-0.347048	-0.342029	-0.015605	0.001300	0.012249
600	3.052281	0.005000	9.322836	0.268007	1.726560	-0.731350	-0.347269	-0.341658	-0.014961	-0.001853	0.001230
601	3.057281	0.005000	9.239870	0.235440	1.765800	-0.731682	-0.347490	-0.341288	-0.009468	-0.010501	0.006045
602	3.062281	0.005000	9.182160	0.198236	1.707958	-0.732013	-0.347711	-0.340918	-0.017352	0.000966	-0.003294
603	3.067281	0.005000	9.198352	0.147624	1.726560	-0.732345	-0.347932	-0.340548	-0.017709	-0.013448	0.005941
604	3.072281	0.005000	9.196243	0.153950	1.662163	-0.732676	-0.348153	-0.340178	-0.016493	-0.002649	0.007803
605	3.077281	0.005000	9.217664	0.117720	1.671750	-0.733008	-0.348374	-0.339808	-0.011409	0.003348	0.010714
606	3.082281	0.005000	9.251213	0.127147	1.706175	-0.733339	-0.348595	-0.339437	-0.009197	-0.003548	0.008644
607	3.087281	0.005000	9.221400	0.142936	1.791016	-0.733671	-0.348816	-0.339067	-0.013570	-0.001567	-0.000716
608	3.092281	0.005000	9.236467	0.078480	1.628929	-0.734002	-0.349037	-0.338697	-0.009967	-0.009444	0.004543
609	3.097281	0.005000	9.294552	0.078480	1.765800	-0.734324	-0.349248	-0.338337	-0.018731	0.006281	0.000714
610	3.102281	0.005000	9.378360	0.039500	1.765800	-0.734103	-0.348917	-0.338584	-0.020224	-0.003921	-0.002397
611	3.107281	0.005000	9.303248	0.116036	1.803356	-0.733882	-0.348585	-0.338831	-0.013196	-0.004507	0.010690
612	3.112281	0.005000	9.256538	0.161062	1.660385	-0.733661	-0.348254	-0.339078	-0.013773	-0.015591	-0.003257
613	3.117281	0.005000	9.195018	0.124149	1.648080	-0.733440	-0.347922	-0.339324	0.002266	-0.011511	0.013978
614	3.122281	0.005000	9.159822	0.187749	1.670418	-0.733219	-0.347591	-0.339571	-0.004109	0.003070	-0.003931
615	3.127281	0.005000	9.160428	0.146094	1.726560	-0.732998	-0.347259	-0.339818	-0.005683	-0.012154	0.004145
616	3.132281	0.005000	9.208285	0.170075	1.648186	-0.732777	-0.346928	-0.340065	-0.007182	0.000921	0.001777
617	3.137281	0.005000	9.293465	0.259462	1.741778	-0.732556	-0.346596	-0.340312	-0.007478	-0.013473	0.001024
618	3.142281	0.005000	9.260640	0.182549	1.765800	-0.732335	-0.346265	-0.340559	-0.012655	-0.008172	0.003245
619	3.147281	0.005000	9.240838	0.098282	1.745998	-0.732114	-0.345933	-0.340805	-0.018532	-0.010586	-0.009300
620	3.152281	0.005000	9.211938	0.117720	1.753276	-0.731893	-0.345602	-0.341052	-0.008189	-0.013010	0.002905
621	3.157281	0.005000	9.221400	0.196200	1.756250	-0.731672	-0.345270	-0.341299	-0.005901	-0.004469	0.001927
622	3.162281	0.005000	9.221400	0.197183	1.792288	-0.731451	-0.344939	-0.341546	-0.010457	-0.011469	0.001540
623	3.167281	0.005000	9.221400	0.185701	1.705563	-0.731230	-0.344551	-0.341667	-0.012157	0.003667	0.003368
624	3.172281	0.005000	9.244472	0.188116	1.679236	-0.731009	-0.344109	-0.341667	-0.013201	-0.004180	-0.001884
625	3.177281	0.005000	9.176094	0.217242	1.693386	-0.730788	-0.343667	-0.341667	-0.008888	-0.009242	0.007869
626	3.182281	0.005000	9.264374	0.231706	1.726560	-0.730567	-0.343225	-0.341667	-0.022637	-0.007850	-0.011125
627	3.187281	0.005000	9.218767	0.235440	1.649397	-0.730346	-0.342783	-0.341667	-0.009880	-0.019824	0.008656
628	3.192281	0.005000	9.220145	0.158215	1.725933	-0.730125	-0.342341	-0.341667	-0.019267	-0.002907	0.006058
629	3.197281	0.005000	9.263635	0.235440	1.762805	-0.729904	-0.341899	-0.341667	-0.009674	-0.007154	-0.004883
630	3.202281	0.005000	9.265616	0.308944	1.731536	-0.729683	-0.341457	-0.341667	-0.007983	-0.012507	0.011511
631	3.207281	0.005000	9.228792	0.274680	1.679928	-0.729462	-0.341015	-0.341667	-0.012192	-0.007927	0.003500
632	3.212281	0.005000	9.250959	0.196200	1.706683	-0.729241	-0.340573	-0.341667	-0.011074	-0.012912	0.002380
633	3.217281	0.005000	9.154663	0.172714	1.769811	-0.729020	-0.340131	-0.341667	-0.021975	-0.000888	-0.003609
634	3.222281	0.005000	9.246484	0.053396	1.790884	-0.728799	-0.339689	-0.341667	-0.015419	-0.004307	0.015037
635	3.227281	0.005000	9.244272	0.101352	1.798535	-0.728578	-0.339247	-0.341667	-0.007198	-0.004752	0.001785
636	3.232281	0.005000	9.180435	0.136478	1.825522	-0.728358	-0.338807	-0.341668	-0.013744	-0.004564	-0.003620
637	3.237281	0.005000	9.161246	0.156960	1.653255	-0.728358	-0.339249	-0.342038	-0.012042	-0.011699	0.005462
638	3.242281	0.005000	9.205484	0.228033	1.648080	-0.728358	-0.339691	-0.342408	-0.017605	-0.004239	-0.010361
639	3.247281	0.005000	9.117491	0.196200	1.673509	-0.728358	-0.340132	-0.342778	0.000061	-0.013286	0.002168
640	3.252281	0.005000	9.225962	0.212322	1.710438	-0.728358	-0.340574	-0.343148	-0.008380	-0.002137	0.002723
641	3.257281	0.005000	9.230552	0.126872	1.726560	-0.728358	-0.341016	-0.343518	-0.011297	-0.006493	0.001680
642	3.262281	0.005000	9.142920	0.149835	1.694445	-0.728358	-0.341458	-0.343888	-0.005697	-0.007221	0.004467
643	3.267281	0.005000	9.142920	0.166544	1.623216	-0.728358	-0.341900	-0.344258	-0.010974	-0.005697	-0.013397
644	3.272281	0.005000	9.145307	0.235440	1.846667	-0.728358	-0.342341	-0.344628	-0.005935	-0.014696	0.002856
645	3.277281	0.005000	9.143359	0.274241	1.882643	-0.728358	-0.342783	-0.344998	-0.013491	0.000211	-0.003067
646	3.282281	0.005000	9.144894	0.235440	1.767774	-0.728358	-0.343225	-0.345368	-0.006066	-0.007406	-0.000642
647	3.287281	0.005000	9.256314	0.196200	1.661059	-0.728358	-0.343667	-0.345738	-0.008998	0.003648	0.006810
648	3.292281	0.005000	9.253924	0.143527	1.700753	-0.728358	-0.344109	-0.346108	-0.016460	-0.000598	-0.002333
649	3.297281	0.005000	9.278117	0.117720	1.678581	-0.728358	-0.344550	-0.346478	-0.026777	0.001537	-0.002510
650	3.302281	0.005000	9.215597	0.196200	1.821988	-0.728304	-0.344884	-0.346305	-0.015175	0.000349	-0.005256
651	3.307281	0.005000	9.274043	0.104317	1.623211	-0.728194	-0.345105	-0.345564	-0.014842	-0.000823	-0.004234
652	3.312281	0.005000	9.245146	0.188958	1.593346	-0.728083	-0.345326	-0.344824	-0.012742	-0.000921	0.008247
653	3.317281	0.005000	9.242734	0.196200	1.672842	-0.727973	-0.345547	-0.344084	-0.015733	-0.010530	0.000984
654	3.322281	0.005000	9.201326	0.217181	1.687320	-0.727862	-0.345768	-0.343343	-0.017756	-0.009385	0.005674
655	3.327281	0.005000	9.221400	0.139981	1.743539	-0.727752	-0.345989	-0.342603	-0.015774	-0.001333	-0.006191
656	3.332281	0.005000	9.250539	0.127821	1.780370	-0.727641	-0.346210	-0.341863	-0.012495	-0.002183	0.006561
657	3.337281	0.005000	9.207120	0.090960	1.755120	-0.727531	-0.346431	-0.341122	-0.012481	0.005187	0.012787
658	3.342281	0.005000	9.281064	0.206412	1.736772	-0.727420	-0.346652	-0.340382	-0.010995	-0.003868	0.004285
659	3.347281	0.005000	9.237225	0.141350	1.742170	-0.727310	-0.346873	-0.339642	-0.016860	0.002454	0.011279
660	3.352281	0.005000	9.249053	0.011587	1.799246	-0.727199	-0.347094	-0.338901	-0.016983	-0.005340	0.002548
661	3.357281	0.005000	9.217955	0.128054	1.808485	-0.727089	-0.347315	-0.338161	-0.017718	-0.008721	0.015628
662	3.362281	0.005000	9.064440	0.234399	1.724479	-0.726978	-0.347536	-0.337421	-0.017698	0.002241	-0.003447
663	3.367281	0.005000	9.141113	0.157863	1.763090	-0.726868	-0.347757	-0.336680	-0.005506	-0.000305	0.002761
664	3.372281	0.005000	9.257319	0.085122	1.700604	-0.727300	-0.349280	-0.336909	-0.018631	0.008894	0.014323
665	3.377281	0.005000	9.070098	0.190542	1.844280	-0.727742	-0.350827	-0.337156	-0.007793	-0.006001	-0.000857
666	3.382281	0.005000	9.213730	0.212429	1.851950	-0.728184	-0.352374	-0.337403	-0.014247	-0.009721	0.006434
667	3.387281	0.005000	9.240492	0.206274	1.805040	-0.728626	-0.353921	-0.337650	-0.015250	-0.007198	-0.002409
668	3.392281	0.005000	9.221400	0.250643	1.726560	-0.729068	-0.355468	-0.337896	-0.009425	-0.014553	0.013432
669	3.397281	0.005000	9.211024	0.245816	1.722504	-0.729510	-0.357015	-0.338143	-0.011266	-0.005891	0.007952
670	3.402281	0.005000	9.176200	0.252080	1.821680	-0.729952	-0.358563	-0.338390	-0.006078	-0.006347	0.000445
671	3.407281	0.005000	9.163130	0.096330	1.786010	-0.730394	-0.360110	-0.338637	-0.016665	-0.009059	0.005318
672	3.412281	0.005000	9.160964	0.132611	1.690473	-0.730836	-0.361657	-0.338883	-0.018113	-0.000821	0.001224
673	3.417281	0.005000	9.213423	0.164937	1.648080	-0.731278	-0.363204	-0.339130	0.001739	-0.001748	0.000497
674	3.422281	0.005000	9.142920	0.118149	1.648509	-0.731720	-0.364751	-0.339377	-0.016641	-0.002030	0.000594
675	3.427281	0.005000	9.165218	0.224291	1.726560	-0.732162	-0.366298	-0.339624	-0.001074	-0.014607	-0.001155
676	3.432281	0.005000	9.182160	0.226575	1.760717	-0.732604	-0.367845	-0.339870	-0.013509	-0.013841	0.002319
677	3.437281	0.005000	9.234317	0.117720	1.680862	-0.732993	-0.368395	-0.339062	-0.009742	-0.013941	-0.004714
678	3.442281	0.005000	9.330195	0.087405	1.700708	-0.733325	-0.367842	-0.337088	-0.012680	0.006096	0.002282
679	3.447281	0.005000	9.260640	0.229148	1.837988	-0.733656	-0.367289	-0.335114	-0.014547	0.002348	-0.013214
680	3.452281	0.005000	9.260640	0.078783	1.765497	-0.733988	-0.366737	-0.333139	-0.011019	-0.000187	0.000880
681	3.457281	0.005000	9.145171	0.041491	1.731061	-0.734319	-0.366184	-0.331165	-0.016206	0.005731	0.000611
682	3.462281	0.005000	9.295226	0.108411	1.696629	-0.734651	-0.365632	-0.329191	-0.012384	-0.005086	0.004190
683	3.467281	0.005000	9.306869	0.110731	1.726560	-0.734982	-0.365079	-0.327216	-0.019341	-0.004197	0.007754
684	3.472281	0.005000	9.281852	0.138932	1.666108	-0.735314	-0.364527	-0.325242	-0.015800	0.000305	-0.005391
685	3.477281	0.005000	9.277037	0.196200	1.715139	-0.735645	-0.363974	-0.323268	-0.010985	-0.007827	0.007794
686	3.482281	0.005000	9.131030	0.133180	1.753910	-0.735977	-0.363422	-0.321293	-0.007544	0.000521	0.000655
687	3.487281	0.005000	9.158699	0.211565	1.773483	-0.736308	-0.362869	-0.319319	-0.012678	-0.008963	-0.003169
688	3.492281	0.005000	9.278828	0.232577	1.744748	-0.736639	-0.362317	-0.317345	-0.018928	0.001310	0.003971
689	3.497281	0.005000	9.204718	0.136361	1.728519	-0.736971	-0.361764	-0.315370	-0.017451	-0.008685	-0.008650
690	3.502281	0.005000	9.227246	0.140263	1.850126	-0.737302	-0.361212	-0.313396	-0.009204	-0.005874	0.006389
691	3.507281	0.005000	9.182160	0.171244	1.769413	-0.737741	-0.360766	-0.315124	-0.017982	-0.000286	-0.007689
692	3.512281	0.005000	9.130727	0.196200	1.765800	-0.738183	-0.360325	-0.316974	-0.010838	-0.014638	0.000510
693	3.517281	0.005000	9.172228	0.215575	1.775732	-0.738624	-0.359883	-0.318824	-0.016256	-0.002443	-0.005226
694	3.522281	0.005000	9.206365	0.211235	1.805040	-0.739066	-0.359441	-0.320674	-0.011519	-0.005008	-0.006512
695	3.527281	0.005000	9.288863	0.162468	1.726560	-0.739508	-0.358999	-0.322524	-0.016595	-0.002960	0.015166
696	3.532281	0.005000	9.257471	0.120889	1.720222	-0.739950	-0.358557	-0.324374	-0.010258	-0.000757	-0.003467
697	3.537281	0.005000	9.259110	0.195435	1.688085	-0.740392	-0.358116	-0.326224	-0.009212	-0.010192	0.004529
698	3.542281	0.005000	9.144099	0.195021	1.764621	-0.740834	-0.357674	-0.328074	-0.010042	-0.002387	-0.005923
699	3.547281	0.005000	9.292687	0.121316	1.915567	-0.741276	-0.357232	-0.329924	-0.004468	-0.001957	0.001855
700	3.552281	0.005000	9.333190	0.156960	1.816900	-0.741718	-0.356790	-0.331774	-0.004231	-0.006177	-0.000428
701	3.557281	0.005000	9.190106	0.125666	1.656026	-0.742159	-0.356348	-0.333624	-0.007406	-0.009296	-0.000882
702	3.562281	0.005000	9.182160	0.039240	1.726560	-0.742601	-0.355907	-0.335474	-0.017078	-0.011943	-0.000732
703	3.567281	0.005000	9.287264	0.078480	1.713944	-0.743043	-0.355465	-0.337324	-0.018062	0.001865	-0.015915
704	3.572281	0.005000	9.304779	0.029426	1.706932	-0.742882	-0.354872	-0.338389	-0.020246	-0.012360	-0.011356
705	3.577281	0.005000	9.260640	0.161949	1.731549	-0.741998	-0.354099	-0.338513	-0.017651	-0.010166	-0.001274
706	3.582281	0.005000	9.201864	0.255144	1.707193	-0.741114	-0.353325	-0.338636	-0.012546	-0.014163	0.002849
707	3.587281	0.005000	9.243346	0.235440	1.783094	-0.740230	-0.352552	-0.338759	-0.004332	-0.013068	0.007637
708	3.592281	0.005000	9.293070	0.204740	1.805040	-0.739346	-0.351778	-0.338883	-0.014317	0.004276	-0.006548
709	3.597281	0.005000	9.247703	0.222503	1.805040	-0.738462	-0.351005	-0.339006	-0.003711	-0.014747	0.002720
710	3.602281	0.005000	9.299880	0.224564	1.765800	-0.737578	-0.350231	-0.339130	-0.016240	-0.000611	-0.006248
711	3.607281	0.005000	9.260640	0.187611	1.717971	-0.736694	-0.349458	-0.339253	-0.013137	-0.013163	0.002403
712	3.612281	0.005000	9.312246	0.163143	1.732743	-0.735810	-0.348684	-0.339376	-0.012564	-0.004606	0.003964
713	3.617281	0.005000	9.365789	0.126100	1.730750	-0.734926	-0.347911	-0.339500	-0.013134	-0.007779	-0.000254
714	3.622281	0.005000	9.178516	0.158782	1.805040	-0.734041	-0.347137	-0.339623	-0.008881	-0.015735	0.003315
715	3.627281	0.005000	9.142345	0.273530	1.727710	-0.733157	-0.346364	-0.339747	-0.004116	-0.007099	-0.002957
716	3.632281	0.005000	9.191055	0.199165	1.835385	-0.732273	-0.345590	-0.339870	-0.010626	-0.009978	0.009139
717	3.637281	0.005000	9.152807	0.196200	1.765800	-0.731389	-0.344817	-0.339994	-0.016581	0.001574	0.005441
718	3.642281	0.005000	9.228749	0.196200	1.694669	-0.731029	-0.345090	-0.340117	-0.012780	-0.005414	0.002489
719	3.647281	0.005000	9.241338	0.176262	1.815327	-0.730698	-0.345421	-0.340240	-0.013668	-0.003582	0.008990
720	3.652281	0.005000	9.193868	0.141135	1.820865	-0.730366	-0.345753	-0.340364	-0.017574	-0.006652	-0.002421
721	3.657281	0.005000	9.128804	0.182084	1.779916	-0.730035	-0.346084	-0.340487	-0.003215	-0.010161	-0.002070
722	3.662281	0.005000	9.237929	0.196200	1.749271	-0.729704	-0.346416	-0.340610	-0.008650	-0.005291	-0.003358
723	3.667281	0.005000	9.262455	0.214912	1.763985	-0.729373	-0.346747	-0.340734	-0.008068	-0.012299	0.001325
724	3.672281	0.005000	9.357477	0.311394	1.825923	-0.729041	-0.347078	-0.340857	-0.019767	0.002171	0.008023
725	3.677281	0.005000	9.283927	0.282014	1.725274	-0.728710	-0.347410	-0.340980	-0.014983	0.009602	0.006039
726	3.682281	0.005000	9.235241	0.210041	1.650364	-0.728379	-0.347741	-0.341104	-0.017022	-0.010659	0.006783
727	3.687281	0.005000	9.260640	0.235440	1.855881	-0.728047	-0.348072	-0.341227	-0.020562	0.001411	-0.004928
728	3.692281	0.005000	9.242268	0.187014	1.687320	-0.727716	-0.348404	-0.341351	-0.016222	-0.007465	0.004668
729	3.697281	0.005000	9.135765	0.135494	1.705094	-0.727385	-0.348735	-0.341474	-0.010145	-0.000746	0.005774
730	3.702281	0.005000	9.246132	0.044076	1.677648	-0.727053	-0.349067	-0.341597	-0.008360	-0.004161	-0.002157
731	3.707281	0.005000	9.186998	0.044078	1.768219	-0.726866	-0.349014	-0.341774	-0.006881	-0.011905	0.006596
732	3.712281	0.005000	9.220931	0.195262	1.766738	-0.726866	-0.348462	-0.342021	-0.009256	-0.005100	0.006605
733	3.717281	0.005000	9.182160	0.192342	1.806969	-0.726866	-0.347910	-0.342267	-0.014661	-0.011337	0.011301
734	3.722281	0.005000	9.260640	0.122066	1.800694	-0.726866	-0.347357	-0.342514	-0.015886	0.000842	0.000511
735	3.727281	0.005000	9.142920	0.196200	1.707333	-0.726866	-0.346805	-0.342761	-0.012595	-0.008026	0.003345
736	3.732281	0.005000	9.251944	0.126416	1.743952	-0.726866	-0.346253	-0.343007	-0.006927	0.000843	0.001736
737	3.737281	0.005000	9.210289	0.089591	1.776911	-0.726866	-0.345700	-0.343254	-0.016387	-0.005349	-0.001749
738	3.742281	0.005000	9.221400	0.091837	1.674795	-0.726866	-0.345148	-0.343501	-0.014546	-0.015291	0.005173
739	3.747281	0.005000	9.236863	0.180737	1.727724	-0.726866	-0.344596	-0.343747	-0.018308	-0.003068	-0.005188
740	3.752281	0.005000	9.260640	0.135587	1.780161	-0.726866	-0.344044	-0.343994	-0.006630	-0.011589	-0.000899
741	3.757281	0.005000	9.241678	0.156960	1.744206	-0.726866	-0.343491	-0.344241	-0.013481	0.001146	0.002749
742	3.762281	0.005000	9.238221	0.078480	1.805040	-0.726866	-0.342939	-0.344487	-0.019198	0.001150	0.002289
743	3.767281	0.005000	9.206794	0.146932	1.815068	-0.726866	-0.342387	-0.344734	-0.013037	-0.014969	0.010793
744	3.772281	0.005000	9.155117	0.156960	1.777997	-0.726866	-0.341835	-0.344981	-0.012720	-0.004904	0.001743
745	3.777281	0.005000	9.230234	0.186065	1.755665	-0.727375	-0.342401	-0.345227	-0.004263	-0.013306	0.015091
746	3.782281	0.005000	9.221400	0.219762	1.648080	-0.727927	-0.343064	-0.345474	-0.010914	-0.010548	0.006128
747	3.787281	0.005000	9.226833	0.201633	1.760367	-0.728479	-0.343727	-0.345721	-0.001542	-0.014014	0.003745
748	3.792281	0.005000	9.260640	0.196200	1.654978	-0.729031	-0.344390	-0.345967	-0.006468	-0.007829	-0.000223
749	3.797281	0.005000	9.180042	0.156960	1.727619	-0.729584	-0.345052	-0.346214	-0.000733	-0.011125	-0.008688
750	3.802281	0.005000	9.179496	0.119052	1.841616	-0.730136	-0.345715	-0.346460	-0.001046	-0.019040	-0.001388
751	3.807281	0.005000	9.139214	0.000000	1.691026	-0.730688	-0.346378	-0.346707	-0.009928	-0.011043	-0.001504
752	3.812281	0.005000	9.266721	0.111639	1.720479	-0.731240	-0.347040	-0.346954	-0.004635	-0.007434	-0.005370
753	3.817281	0.005000	9.190259	0.125819	1.695419	-0.731792	-0.347703	-0.347200	-0.002960	-0.003547	-0.005311
754	3.822281	0.005000	9.297064	0.217228	1.726560	-0.732345	-0.348366	-0.347447	-0.004681	-0.014825	0.001769
755	3.827281	0.005000	9.287113	0.170665	1.793211	-0.732897	-0.349028	-0.347694	-0.006806	-0.009696	0.005106
756	3.832281	0.005000	9.260640	0.171820	1.790180	-0.733449	-0.349691	-0.347940	-0.015669	-0.002087	0.001935
757	3.837281	0.005000	9.243370	0.174230	1.809740	-0.734001	-0.350354	-0.348187	-0.014972	-0.012283	0.007668
758	3.842281	0.005000	9.221400	0.137174	1.765467	-0.734373	-0.350791	-0.347930	-0.008110	-0.010258	-0.001790
759	3.847281	0.005000	9.221400	0.191783	1.669909	-0.734484	-0.350902	-0.346943	-0.017848	-0.010811	-0.006720
760	3.852281	0.005000	9.293511	0.196200	1.750597	-0.734594	-0.351012	-0.345956	-0.021865	-0.005260	0.004561
761	3.857281	0.005000	9.273434	0.274680	1.700114	-0.734705	-0.351123	-0.344969	-0.015352	-0.006730	-0.008788
762	3.862281	0.005000	9.260640	0.263955	1.715835	-0.734815	-0.351233	-0.343982	-0.008957	-0.014943	0.007330
763	3.867281	0.005000	9.212964	0.257808	1.678884	-0.734926	-0.351344	-0.342995	-0.015288	0.006263	-0.003477
764	3.872281	0.005000	9.154980	0.247500	1.699380	-0.735036	-0.351454	-0.342007	-0.014665	-0.012512	0.011586
765	3.877281	0.005000	9.256601	0.208317	1.761761	-0.735147	-0.351565	-0.341020	-0.008380	-0.004729	0.000222
766	3.882281	0.005000	9.335782	0.276349	1.842611	-0.735257	-0.351675	-0.340033	-0.014522	-0.019991	0.003373
767	3.887281	0.005000	9.145098	0.352434	1.843554	-0.735368	-0.351786	-0.339046	-0.014355	-0.010417	0.004970
768	3.892281	0.005000	9.182160	0.274680	1.844280	-0.735478	-0.351896	-0.338059	-0.014879	-0.005143	-0.005742
769	3.897281	0.005000	9.284591	0.230344	1.765800	-0.735589	-0.352007	-0.337072	-0.008766	-0.016559	0.006096
770	3.902281	0.005000	9.284876	0.220436	1.844280	-0.735700	-0.352118	-0.336085	-0.014355	-0.008508	-0.002210
771	3.907281	0.005000	9.201735	0.166747	1.785375	-0.735810	-0.352228	-0.335098	-0.015412	-0.017688	-0.004928
772	3.912281	0.005000	9.248790	0.184350	1.750260	-0.735423	-0.351741	-0.335778	-0.009030	-0.007874	0.009590
773	3.917281	0.005000	9.185711	0.235440	1.737273	-0.734981	-0.351189	-0.336642	-0.008444	-0.007887	0.010113
774	3.922281	0.005000	9.211219	0.297446	1.772093	-0.734539	-0.350636	-0.337506	-0.006038	-0.006362	0.013744
775	3.927281	0.005000	9.242023	0.254057	1.827668	-0.734097	-0.350084	-0.338370	-0.012271	-0.000706	0.006162
776	3.932281	0.005000	9.242428	0.196200	1.789644	-0.733655	-0.349531	-0.339233	0.004631	-0.005491	0.001926
777	3.937281	0.005000	9.198428	0.274680	1.677755	-0.733213	-0.348979	-0.340097	-0.010726	-0.005484	0.006285
778	3.942281	0.005000	9.237583	0.117720	1.611167	-0.732771	-0.348426	-0.340961	-0.007921	-0.017477	0.005456
779	3.947281	0.005000	9.299880	0.168729	1.714791	-0.732329	-0.347873	-0.341825	-0.001764	-0.013127	0.020058
780	3.952281	0.005000	9.251136	0.098712	1.687320	-0.731887	-0.347321	-0.342688	-0.013124	-0.002502	0.008708
781	3.957281	0.005000	9.246463	0.164049	1.790863	-0.731445	-0.346768	-0.343552	-0.006144	-0.008832	0.024084
782	3.962281	0.005000	9.098997	0.265314	1.687320	-0.731003	-0.346216	-0.344416	-0.005252	0.000682	0.010559
783	3.967281	0.005000	9.182160	0.198908	1.805040	-0.730561	-0.345663	-0.345280	-0.008090	-0.009029	0.011918
784	3.972281	0.005000	9.103680	0.274358	1.686677	-0.730119	-0.345111	-0.346144	-0.018130	-0.004828	0.014405
785	3.977281	0.005000	9.216577	0.235440	1.721737	-0.729851	-0.344820	-0.346618	-0.018742	0.002132	0.003669
786	3.982281	0.005000	9.256615	0.121745	1.730585	-0.729851	-0.344930	-0.346495	-0.013837	-0.001447	0.012403
787	3.987281	0.005000	9.182160	0.229087	1.693673	-0.729851	-0.345041	-0.346372	-0.020273	0.006339	0.002843
788	3.992281	0.005000	9.230144	0.226696	1.809306	-0.729851	-0.345151	-0.346248	-0.026236	-0.007969	0.008822
789	3.997281	0.005000	9.221400	0.178539	1.719688	-0.729851	-0.345262	-0.346125	-0.026919	-0.010434	0.012942
790	4.002281	0.005000	9.221400	0.130917	1.791843	-0.729851	-0.345372	-0.346001	-0.014043	-0.003610	-0.001422
791	4.007281	0.005000	9.134540	0.133150	1.813420	-0.729851	-0.345483	-0.345878	-0.009452	0.001999	0.019850
792	4.012281	0.005000	9.138788	0.143538	1.761668	-0.729851	-0.345593	-0.345754	-0.013943	-0.000706	0.007859
793	4.017281	0.005000	9.200747	0.136996	1.688009	-0.729851	-0.345704	-0.345631	-0.014284	-0.008661	0.005858
794	4.022281	0.005000	9.199284	0.073488	1.643088	-0.729851	-0.345814	-0.345508	-0.017104	-0.006760	0.002366
795	4.027281	0.005000	9.284958	0.084005	1.717163	-0.729851	-0.345925	-0.345384	-0.013992	-0.004360	0.003168
796	4.032281	0.005000	9.196383	0.105212	1.858503	-0.729851	-0.346035	-0.345261	-0.013629	-0.000828	0.006758
797	4.037281	0.005000	9.192598	0.117720	1.862644	-0.729851	-0.346146	-0.345137	-0.016469	0.004017	0.006109
798	4.042281	0.005000	9.237714	0.047397	1.718403	-0.729851	-0.346256	-0.345014	-0.015133	-0.008920	0.011565
799	4.047281	0.005000	9.221400	0.111979	1.827056	-0.729851	-0.346269	-0.345000	-0.022476	-0.005246	0.006786
800	4.052281	0.005000	9.217633	0.007533	1.694853	-0.729851	-0.346269	-0.345000	-0.009941	-0.009894	0.003022
801	4.057281	0.005000	9.222793	0.156960	1.765800	-0.729851	-0.346269	-0.345000	-0.013884	-0.006362	0.009919
802	4.062281	0.005000	9.222398	0.080477	1.842283	-0.729851	-0.346269	-0.345000	-0.008842	-0.002538	-0.002981
803	4.067281	0.005000	9.109590	0.072570	1.880565	-0.729851	-0.346269	-0.345000	-0.014738	-0.017327	0.018288
804	4.072281	0.005000	9.171416	0.174713	1.878148	-0.729851	-0.346269	-0.345000	-0.014264	-0.004344	-0.005863
805	4.077281	0.005000	9.182160	0.156960	1.781169	-0.729851	-0.346269	-0.345000	-0.007311	-0.008971	-0.002538
806	4.082281	0.005000	9.172085	0.147944	1.775875	-0.729851	-0.346269	-0.345000	-0.016662	-0.000296	-0.006478
807	4.087281	0.005000	9.155056	0.117720	1.741528	-0.729851	-0.346269	-0.345000	-0.015456	-0.009724	-0.011969
808	4.092281	0.005000	9.182160	0.171505	1.755649	-0.729851	-0.346269	-0.345000	-0.009673	-0.010686	0.004377
809	4.097281	0.005000	9.182160	0.173721	1.681602	-0.729851	-0.346269	-0.345000	-0.017064	-0.001451	-0.009235
810	4.102281	0.005000	9.240301	0.138059	1.528921	-0.729851	-0.346269	-0.345000	-0.009677	-0.001429	0.000597
811	4.107281	0.005000	9.317808	0.121104	1.548288	-0.729851	-0.346269	-0.345000	-0.014153	-0.003342	-0.014921
812	4.112281	0.005000	9.276433	0.101927	1.538498	-0.729808	-0.346312	-0.345000	-0.021872	-0.014662	-0.008307
813	4.117281	0.005000	9.233490	0.156960	1.702379	-0.729698	-0.346422	-0.345000	-0.017296	-0.010463	-0.006750
814	4.122281	0.005000	9.322202	0.185039	1.709642	-0.729587	-0.346533	-0.345000	-0.017175	-0.006858	-0.006041
815	4.127281	0.005000	9.272515	0.156960	1.814162	-0.729477	-0.346643	-0.345000	-0.016599	-0.017091	0.008624
816	4.132281	0.005000	9.182160	0.156960	1.765800	-0.729366	-0.346754	-0.345000	-0.019687	-0.003767	0.002314
817	4.137281	0.005000	9.116903	0.196200	1.870297	-0.729255	-0.346864	-0.345000	-0.010840	-0.016143	-0.002949
818	4.142281	0.005000	9.144910	0.270699	1.689310	-0.729145	-0.346975	-0.345000	-0.013967	-0.000444	0.000334
819	4.147281	0.005000	9.221400	0.235395	1.687411	-0.729034	-0.347085	-0.345000	-0.011369	-0.006097	-0.006974
820	4.152281	0.005000	9.221400	0.233082	1.728918	-0.728924	-0.347196	-0.345000	-0.004233	-0.007550	0.010554
821	4.157281	0.005000	9.103680	0.343721	1.761080	-0.728813	-0.347306	-0.345000	-0.003380	-0.006512	-0.005448
822	4.162281	0.005000	9.201244	0.313920	1.772519	-0.728702	-0.347417	-0.345000	-0.002219	-0.010344	0.002634
823	4.167281	0.005000	9.272833	0.235440	1.765800	-0.728592	-0.347527	-0.345000	-0.005181	-0.000278	-0.011983
824	4.172281	0.005000	9.310949	0.089549	1.765800	-0.728481	-0.347638	-0.345000	-0.011149	-0.017260	0.002522
825	4.177281	0.005000	9.237284	0.180316	1.765800	-0.728371	-0.347748	-0.345000	-0.002208	-0.012110	0.002979
826	4.182281	0.005000	9.166268	0.219548	1.844280	-0.728456	-0.347468	-0.344563	0.000591	-0.003781	-0.009259
827	4.187281	0.005000	9.164068	0.193144	1.786948	-0.728566	-0.347136	-0.344070	-0.006000	-0.011611	0.017953
828	4.192281	0.005000	9.199898	0.156960	1.787302	-0.728677	-0.346805	-0.343576	-0.007503	-0.003911	0.009618
829	4.197281	0.005000	9.165579	0.150882	1.681242	-0.728787	-0.346473	-0.343082	0.001981	-0.014705	0.006275
830	4.202281	0.005000	9.153207	0.192010	1.648080	-0.728898	-0.346142	-0.342589	-0.024866	0.000416	-0.000625
831	4.207281	0.005000	9.167386	0.169193	1.790266	-0.729008	-0.345810	-0.342095	-0.021941	-0.005186	0.000280
832	4.212281	0.005000	9.064440	0.147135	1.687320	-0.729119	-0.345479	-0.341602	-0.021527	0.002932	0.004911
833	4.217281	0.005000	9.182160	0.134730	1.640670	-0.729230	-0.345147	-0.341108	-0.013603	0.002098	0.006964
834	4.222281	0.005000	9.114481	0.196200	1.698121	-0.729340	-0.344816	-0.340614	-0.017740	-0.009716	0.006596
835	4.227281	0.005000	9.218339	0.229318	1.762739	-0.729451	-0.344485	-0.340121	-0.019426	0.001894	-0.006706
836	4.232281	0.005000	9.222043	0.158246	1.803111	-0.729561	-0.344153	-0.339627	-0.018295	-0.010402	0.002912
837	4.237281	0.005000	9.184762	0.235440	1.725259	-0.729672	-0.343822	-0.339134	-0.022473	-0.009590	0.004886
838	4.242281	0.005000	9.296175	0.270975	1.726560	-0.729782	-0.343490	-0.338640	-0.016799	-0.003472	-0.001757
839	4.247281	0.005000	9.254589	0.190149	1.771851	-0.730018	-0.343493	-0.338333	-0.008257	-0.011143	0.011408
840	4.252281	0.005000	9.244509	0.173091	1.796975	-0.730460	-0.344045	-0.338333	-0.004498	0.000184	-0.006354
841	4.257281	0.005000	9.210928	0.196200	1.833808	-0.730901	-0.344597	-0.338333	-0.009741	-0.006632	0.007376
842	4.262281	0.005000	9.207932	0.182732	1.922760	-0.731343	-0.345149	-0.338333	-0.015241	-0.003168	-0.001157
843	4.267281	0.005000	9.269656	0.220328	1.780912	-0.731785	-0.345701	-0.338333	-0.005490	-0.016212	-0.003689
844	4.272281	0.005000	9.216639	0.218201	1.731321	-0.732227	-0.346254	-0.338333	-0.003759	-0.009595	0.016534
845	4.277281	0.005000	9.240951	0.176603	1.785443	-0.732669	-0.346806	-0.338333	-0.006006	-0.009980	-0.003922
846	4.282281	0.005000	9.182160	0.274680	1.827093	-0.733110	-0.347358	-0.338333	-0.000633	-0.017947	0.003095
847	4.287281	0.005000	9.299880	0.081626	1.672253	-0.733552	-0.347910	-0.338333	-0.010518	0.001227	0.000121
848	4.292281	0.005000	9.274220	0.077730	1.752970	-0.733994	-0.348462	-0.338333	0.002704	-0.016578	0.004416
849	4.297281	0.005000	9.171738	0.156960	1.726560	-0.734436	-0.349015	-0.338333	-0.011013	-0.016206	0.005618
850	4.302281	0.005000	9.252260	0.187820	1.796660	-0.734878	-0.349567	-0.338333	-0.014888	-0.003706	-0.008362
851	4.307281	0.005000	9.221400	0.202263	1.732623	-0.735319	-0.350119	-0.338333	-0.013040	-0.013064	0.004624
852	4.312281	0.005000	9.225058	0.196200	1.797725	-0.735761	-0.350671	-0.338333	-0.016349	0.004107	0.004828
853	4.317281	0.005000	9.141680	0.154480	1.689800	-0.737159	-0.351033	-0.337586	-0.022901	-0.002266	-0.002394
854	4.322281	0.005000	9.103680	0.117016	1.765800	-0.738705	-0.351364	-0.336723	-0.012329	-0.003622	0.007168
855	4.327281	0.005000	9.146028	0.081588	1.696644	-0.740252	-0.351696	-0.335859	-0.017504	0.004602	-0.009899
856	4.332281	0.005000	9.075362	0.140577	1.833358	-0.741799	-0.352027	-0.334995	-0.015776	-0.008347	0.000477
857	4.337281	0.005000	9.127983	0.156960	1.797572	-0.743346	-0.352359	-0.334131	-0.019908	0.007286	-0.000212
858	4.342281	0.005000	9.299880	0.147085	1.657955	-0.744893	-0.352690	-0.333268	-0.009882	-0.009370	-0.001464
859	4.347281	0.005000	9.257810	0.277510	1.792903	-0.746440	-0.353022	-0.332404	-0.015882	0.005193	-0.006335
860	4.352281	0.005000	9.250444	0.274680	1.755604	-0.747987	-0.353353	-0.331540	-0.013445	-0.003176	-0.004757
861	4.357281	0.005000	9.221400	0.150991	1.642111	-0.749534	-0.353685	-0.330677	-0.013233	-0.003888	0.008428
862	4.362281	0.005000	9.298732	0.117720	1.706366	-0.751081	-0.354016	-0.329813	-0.021483	-0.009102	-0.005323
863	4.367281	0.005000	9.200192	0.214232	1.726560	-0.752628	-0.354348	-0.328949	-0.008136	-0.013560	0.007266
864	4.372281	0.005000	9.276480	0.258840	1.687320	-0.754175	-0.354679	-0.328086	-0.019662	-0.000358	-0.004591
865	4.377281	0.005000	9.298839	0.196200	1.699706	-0.755722	-0.355011	-0.327222	-0.012227	-0.002445	0.005457
866	4.382281	0.005000	9.170815	0.145615	1.665567	-0.756084	-0.355105	-0.326932	-0.022493	0.006806	-0.003469
867	4.387281	0.005000	9.248626	0.175111	1.726560	-0.754316	-0.354774	-0.327672	-0.013875	-0.009355	-0.003930
868	4.392281	0.005000	9.221400	0.209520	1.739880	-0.752548	-0.354442	-0.328412	-0.008670	-0.005520	0.008691
869	4.397281	0.005000	9.212082	0.260702	1.795722	-0.750780	-0.354111	-0.329153	-0.008376	-0.010047	0.005498
870	4.402281	0.005000	9.223711	0.226196	1.726560	-0.749012	-0.353779	-0.329893	0.000452	-0.018883	0.005152
871	4.407281	0.005000	9.221506	0.117614	1.804828	-0.747244	-0.353448	-0.330633	-0.013191	-0.001182	-0.000109
872	4.412281	0.005000	9.221400	0.082582	1.767851	-0.745476	-0.353116	-0.331374	-0.017368	-0.006239	-0.003567
873	4.417281	0.005000	9.256185	0.113265	1.731015	-0.743708	-0.352785	-0.332114	-0.010499	-0.005155	0.006448
874	4.422281	0.005000	9.228177	0.182646	1.726560	-0.741940	-0.352453	-0.332855	-0.013179	-0.005188	-0.006715
875	4.427281	0.005000	9.230203	0.226637	1.874717	-0.740172	-0.352122	-0.333595	-0.018901	-0.008157	0.007139
876	4.432281	0.005000	9.271858	0.184982	1.765800	-0.738404	-0.351790	-0.334335	-0.014983	0.004713	-0.003317
877	4.437281	0.005000	9.195786	0.184212	1.687320	-0.736636	-0.351459	-0.335076	-0.013600	-0.010320	0.000771
878	4.442281	0.005000	9.182160	0.141893	1.742413	-0.734868	-0.351127	-0.335816	-0.012309	-0.002975	0.009538
879	4.447281	0.005000	9.278622	0.196200	1.751093	-0.733100	-0.350796	-0.336556	-0.017554	-0.001557	-0.005384
880	4.452281	0.005000	9.144466	0.117720	1.822341	-0.732460	-0.350464	-0.336877	-0.007748	0.001610	0.009747
881	4.457281	0.005000	9.137081	0.151121	1.833419	-0.732018	-0.350133	-0.337123	-0.008813	0.002179	-0.004556
882	4.462281	0.005000	9.221400	0.156960	1.823772	-0.731577	-0.349802	-0.337370	-0.013519	-0.012266	-0.004090
883	4.467281	0.005000	9.194240	0.196200	1.835201	-0.731135	-0.349470	-0.337617	-0.019452	-0.016006	-0.002832
884	4.472281	0.005000	9.309077	0.254652	1.697334	-0.730693	-0.349139	-0.337863	-0.014499	-0.012850	-0.007007
885	4.477281	0.005000	9.213671	0.125449	1.836551	-0.730251	-0.348808	-0.338110	-0.009422	-0.010657	-0.001901
886	4.482281	0.005000	9.148638	0.145524	1.732278	-0.729810	-0.348476	-0.338357	-0.014558	-0.004270	-0.000942
887	4.487281	0.005000	9.264008	0.153592	1.837544	-0.729368	-0.348145	-0.338603	-0.013406	-0.007941	0.010259
888	4.492281	0.005000	9.260640	0.271786	1.765800	-0.728926	-0.347814	-0.338850	-0.015184	0.004964	-0.001516
889	4.497281	0.005000	9.222379	0.156960	1.765800	-0.728484	-0.347482	-0.339097	-0.006751	-0.004684	-0.005536
890	4.502281	0.005000	9.264024	0.085247	1.733327	-0.728042	-0.347151	-0.339343	-0.010070	-0.015516	-0.000750
891	4.507281	0.005000	9.227200	0.078480	1.671281	-0.727601	-0.346820	-0.339590	-0.005679	-0.011222	-0.016448
892	4.512281	0.005000	9.229508	0.086588	1.702235	-0.727159	-0.346489	-0.339837	-0.015080	-0.013146	0.004917
893	4.517281	0.005000	9.153071	0.097419	1.598689	-0.726941	-0.346269	-0.340125	-0.019139	-0.004191	-0.004925
894	4.522281	0.005000	9.233965	0.142850	1.662190	-0.727162	-0.346269	-0.340495	-0.009863	-0.011621	0.001401
895	4.527281	0.005000	9.196954	0.210994	1.702114	-0.727383	-0.346269	-0.340865	-0.018745	-0.003916	-0.009011
896	4.532281	0.005000	9.182160	0.190796	1.586518	-0.727604	-0.346269	-0.341235	-0.015329	-0.010287	-0.001209
897	4.537281	0.005000	9.182160	0.176289	1.707231	-0.727825	-0.346269	-0.341606	-0.021054	-0.001734	0.002877
898	4.542281	0.005000	9.142920	0.196200	1.800799	-0.728046	-0.346269	-0.341976	-0.016783	-0.008593	-0.009196
899	4.547281	0.005000	9.127365	0.243570	1.765800	-0.728267	-0.346269	-0.342346	-0.009698	-0.010976	0.004942
900	4.552281	0.005000	9.181961	0.222294	1.831333	-0.728488	-0.346269	-0.342716	-0.006599	-0.006204	-0.002248
901	4.557281	0.005000	9.171087	0.218346	1.771821	-0.728709	-0.346269	-0.343086	-0.005173	-0.013313	0.007210
902	4.562281	0.005000	9.190948	0.313920	1.757012	-0.728930	-0.346269	-0.343456	-0.013534	-0.003039	0.006061
903	4.567281	0.005000	9.260640	0.294767	1.720176	-0.729150	-0.346269	-0.343827	-0.010958	-0.006520	-0.000532
904	4.572281	0.005000	9.299880	0.200587	1.765800	-0.729371	-0.346269	-0.344197	-0.011430	-0.018736	0.014695
905	4.577281	0.005000	9.223412	0.156960	1.807052	-0.729592	-0.346269	-0.344567	-0.008279	-0.010377	0.006355
906	4.582281	0.005000	9.221783	0.195817	1.766565	-0.729813	-0.346269	-0.344937	-0.004973	-0.012849	0.013801
907	4.587281	0.005000	9.260640	0.274680	1.774059	-0.729851	-0.346452	-0.345102	-0.011860	-0.015979	0.004137
908	4.592281	0.005000	9.182160	0.161691	1.652811	-0.729851	-0.346673	-0.345226	-0.003439	-0.013804	0.002843
909	4.597281	0.005000	9.150067	0.181906	1.633786	-0.729851	-0.346894	-0.345349	-0.014314	-0.006525	0.008447
910	4.602281	0.005000	9.182160	0.244879	1.696759	-0.729851	-0.347115	-0.345472	-0.011162	-0.000583	0.005304
911	4.607281	0.005000	9.131422	0.184702	1.631836	-0.729851	-0.347336	-0.345596	-0.003155	-0.012370	0.018089
912	4.612281	0.005000	9.156671	0.105981	1.779551	-0.729851	-0.347557	-0.345719	-0.010979	-0.000606	0.005124
913	4.617281	0.005000	9.166034	-0.023114	1.758811	-0.729851	-0.347778	-0.345843	-0.010392	-0.003965	0.018979
914	4.622281	0.005000	9.179450	0.000000	1.702875	-0.729851	-0.347999	-0.345966	-0.012932	0.006874	0.015221
915	4.627281	0.005000	9.219288	0.136284	1.722336	-0.729851	-0.348220	-0.346089	-0.008272	0.003736	0.003548
916	4.632281	0.005000	9.215016	0.179772	1.670892	-0.729851	-0.348440	-0.346213	-0.011411	-0.006996	0.007769
917	4.637281	0.005000	9.224784	0.185376	1.687320	-0.729851	-0.348661	-0.346336	-0.024388	0.001646	0.000560
918	4.642281	0.005000	9.260640	0.208004	1.710928	-0.729851	-0.348882	-0.346459	-0.009999	-0.003105	0.010117
919	4.647281	0.005000	9.241156	0.195928	1.765800	-0.729851	-0.349103	-0.346583	-0.018094	-0.000025	0.003946
920	4.652281	0.005000	9.167426	0.242807	1.751066	-0.729816	-0.349219	-0.346667	-0.012753	-0.007903	-0.003891
921	4.657281	0.005000	9.255603	0.196200	1.731597	-0.729705	-0.349108	-0.346667	-0.009000	-0.006458	0.005365
922	4.662281	0.005000	9.291983	0.190935	1.768432	-0.729595	-0.348998	-0.346667	-0.013029	0.004310	-0.005236
923	4.667281	0.005000	9.259959	0.196200	1.765800	-0.729484	-0.348887	-0.346667	-0.016906	-0.007887	0.004852
924	4.672281	0.005000	9.221400	0.158689	1.765800	-0.729374	-0.348777	-0.346667	-0.018562	-0.002689	0.006355
925	4.677281	0.005000	9.295796	0.094817	1.761716	-0.729263	-0.348666	-0.346667	-0.009480	-0.009844	0.003580
926	4.682281	0.005000	9.233556	0.217206	1.759722	-0.729152	-0.348555	-0.346667	-0.000913	-0.007736	0.003863
927	4.687281	0.005000	9.151414	0.173948	1.796546	-0.729042	-0.348445	-0.346667	-0.006137	0.002915	-0.009163
928	4.692281	0.005000	9.160619	0.196200	1.708861	-0.728931	-0.348334	-0.346667	-0.010996	-0.008645	0.003976
929	4.697281	0.005000	9.103680	0.039240	1.818590	-0.728821	-0.348224	-0.346667	-0.017595	-0.003686	-0.007622
930	4.702281	0.005000	9.103680	0.111185	1.654615	-0.728710	-0.348113	-0.346667	-0.011215	-0.008035	0.011869
931	4.707281	0.005000	9.190813	0.178743	1.687320	-0.728600	-0.348003	-0.346667	-0.011791	-0.008816	0.002116
932	4.712281	0.005000	9.103680	0.215797	1.687305	-0.728489	-0.347892	-0.346667	-0.008059	-0.018978	-0.001783
933	4.717281	0.005000	9.177368	0.134944	1.699752	-0.728378	-0.347781	-0.346667	-0.017832	-0.012371	0.006636
934	4.722281	0.005000	9.245543	0.187154	1.741657	-0.728178	-0.347761	-0.346365	-0.010777	-0.001998	0.002148
935	4.727281	0.005000	9.260640	0.234813	1.766427	-0.727957	-0.347761	-0.345995	-0.004863	-0.022390	0.004041
936	4.732281	0.005000	9.210943	0.224983	1.658537	-0.727736	-0.347761	-0.345625	-0.008934	-0.009048	-0.006071
937	4.737281	0.005000	9.260640	0.134541	1.734971	-0.727515	-0.347761	-0.345255	-0.008276	-0.009692	0.000023
938	4.742281	0.005000	9.254534	0.202306	1.765800	-0.727294	-0.347761	-0.344885	-0.005884	-0.006000	-0.002668
939	4.747281	0.005000	9.174780	0.239130	1.769490	-0.727073	-0.347761	-0.344515	-0.016980	-0.008810	-0.002858
940	4.752281	0.005000	9.101955	0.274680	1.723111	-0.726852	-0.347761	-0.344145	-0.012379	-0.009386	0.004926
941	4.757281	0.005000	9.103022	0.236098	1.686662	-0.726631	-0.347761	-0.343775	-0.014863	-0.008907	0.000666
942	4.762281	0.005000	9.179119	0.232399	1.651121	-0.726411	-0.347761	-0.343405	-0.009318	-0.015249	0.002443
943	4.767281	0.005000	9.152960	0.167000	1.653100	-0.726190	-0.347761	-0.343035	-0.021300	-0.010465	0.000269
944	4.772281	0.005000	9.245789	0.142109	1.743524	-0.725969	-0.347761	-0.342665	-0.011601	-0.007898	-0.009350
945	4.777281	0.005000	9.250913	0.147233	1.795313	-0.725748	-0.347761	-0.342295	-0.018026	-0.010185	0.013537
946	4.782281	0.005000	9.154704	0.168744	1.844280	-0.725527	-0.347761	-0.341925	-0.013617	-0.000968	0.000761
947	4.787281	0.005000	9.207207	0.285535	1.840942	-0.725473	-0.347694	-0.341742	-0.013181	-0.013317	0.002675
948	4.792281	0.005000	9.221400	0.212598	1.860678	-0.725805	-0.347473	-0.341988	-0.009394	-0.004166	-0.000784
949	4.797281	0.005000	9.223559	0.216899	1.745101	-0.726136	-0.347252	-0.342235	-0.008357	-0.000334	-0.004574
950	4.802281	0.005000	9.182160	0.217151	1.765800	-0.726467	-0.347031	-0.342482	-0.015817	-0.003770	0.005401
951	4.807281	0.005000	9.214472	0.196200	1.749644	-0.726799	-0.346811	-0.342728	-0.013145	-0.003815	-0.003015
952	4.812281	0.005000	9.205577	0.143194	1.661846	-0.727130	-0.346590	-0.342975	-0.006818	-0.013489	0.006280
953	4.817281	0.005000	9.126728	0.090004	1.770468	-0.727462	-0.346369	-0.343222	-0.016924	-0.001555	-0.002057
954	4.822281	0.005000	9.212290	0.166070	1.705539	-0.727793	-0.346148	-0.343468	-0.012393	-0.014702	0.004574
955	4.827281	0.005000	9.228480	0.267600	1.772880	-0.728124	-0.345927	-0.343715	-0.016599	-0.004712	0.009940
956	4.832281	0.005000	9.255880	0.200960	1.726560	-0.728456	-0.345706	-0.343962	-0.008717	-0.008902	0.003044
957	4.837281	0.005000	9.179818	0.152275	1.768142	-0.728787	-0.345485	-0.344208	-0.001857	-0.011294	0.003758
958	4.842281	0.005000	9.220613	0.117720	1.804647	-0.729119	-0.345264	-0.344455	-0.015659	-0.015318	0.003107
959	4.847281	0.005000	9.217389	0.154954	1.803034	-0.729450	-0.345043	-0.344701	-0.014384	-0.013782	0.004715
960	4.852281	0.005000	9.221400	0.226696	1.809412	-0.729781	-0.344822	-0.344948	-0.012765	-0.006029	0.005484
961	4.857281	0.005000	9.293513	0.111353	1.713827	-0.729677	-0.344950	-0.344708	-0.011731	-0.004460	0.004092
962	4.862281	0.005000	9.299880	0.078480	1.748255	-0.729456	-0.345171	-0.344338	-0.009063	0.000352	0.014395
963	4.867281	0.005000	9.328077	0.174114	1.670166	-0.729235	-0.345392	-0.343967	-0.010763	-0.002138	0.004521
964	4.872281	0.005000	9.313001	0.117598	1.687320	-0.729014	-0.345613	-0.343597	-0.015421	-0.001527	0.015024
965	4.877281	0.005000	9.221400	0.219906	1.648080	-0.728793	-0.345834	-0.343227	-0.019048	-0.004708	-0.005189
966	4.882281	0.005000	9.221400	0.196200	1.715322	-0.728572	-0.346055	-0.342857	-0.012237	-0.015557	-0.002737
967	4.887281	0.005000	9.241519	0.196200	1.707439	-0.728351	-0.346276	-0.342487	-0.018664	-0.013916	-0.004301
968	4.892281	0.005000	9.209815	0.156960	1.765800	-0.728130	-0.346497	-0.342116	-0.015451	-0.010311	-0.006688
969	4.897281	0.005000	9.260640	0.146779	1.790511	-0.727909	-0.346718	-0.341746	-0.016989	-0.008260	0.004285
970	4.902281	0.005000	9.260640	0.223005	1.765800	-0.727688	-0.346939	-0.341376	-0.017250	-0.002009	0.005113
971	4.907281	0.005000	9.192337	0.146783	1.786155	-0.727467	-0.347160	-0.341006	-0.009385	-0.018239	0.007061
972	4.912281	0.005000	9.158445	0.125482	1.860233	-0.727246	-0.347381	-0.340636	-0.014661	-0.002138	-0.003752
973	4.917281	0.005000	9.254892	0.235440	1.793543	-0.727025	-0.347602	-0.340266	-0.011880	-0.004781	-0.001464
974	4.922281	0.005000	9.224813	0.156960	1.648080	-0.726928	-0.347730	-0.340000	-0.004544	-0.008609	0.004561
975	4.927281	0.005000	9.183155	0.156960	1.531355	-0.727150	-0.347619	-0.340000	-0.005675	-0.008697	0.003118
976	4.932281	0.005000	9.297982	0.195251	1.607891	-0.727371	-0.347509	-0.340000	-0.012124	-0.007536	-0.000541
977	4.937281	0.005000	9.263993	0.153607	1.719854	-0.727592	-0.347398	-0.340000	-0.017725	0.007508	0.002729
978	4.942281	0.005000	9.210024	0.224064	1.732248	-0.727813	-0.347288	-0.340000	-0.011552	-0.002736	-0.006130
979	4.947281	0.005000	9.299880	0.180044	1.726560	-0.728034	-0.347177	-0.340000	-0.019464	0.008485	0.005581
980	4.952281	0.005000	9.329004	0.245556	1.707552	-0.728255	-0.347067	-0.340000	-0.017087	0.000476	0.000402
981	4.957281	0.005000	9.219731	0.262156	1.687320	-0.728476	-0.346956	-0.340000	-0.016660	-0.009163	0.004443
982	4.962281	0.005000	9.211096	0.274680	1.697624	-0.728697	-0.346846	-0.340000	-0.011408	-0.000690	-0.002503
983	4.967281	0.005000	9.243759	0.196200	1.776758	-0.728918	-0.346735	-0.340000	-0.006097	-0.010854	0.001022
984	4.972281	0.005000	9.221400	0.176020	1.727679	-0.729139	-0.346625	-0.340000	-0.014404	-0.004202	0.005632
985	4.977281	0.005000	9.260640	0.153299	1.787250	-0.729361	-0.346514	-0.340000	-0.014659	-0.004891	0.004428
986	4.982281	0.005000	9.229450	0.180605	1.765800	-0.729582	-0.346404	-0.340000	-0.020882	0.002273	0.007686
987	4.987281	0.005000	9.260640	0.209076	1.713378	-0.729803	-0.346293	-0.340000	-0.014696	-0.002383	-0.009665
988	4.992281	0.005000	9.249537	0.156960	1.799110	-0.729678	-0.346183	-0.340193	-0.020883	-0.011228	0.003231
989	4.997281	0.005000	9.221400	0.283511	1.835449	-0.729457	-0.346072	-0.340440	-0.013994	-0.012991	-0.002912
990	5.002281	0.005000	9.254225	0.320335	1.726560	-0.729236	-0.345962	-0.340686	-0.007568	-0.017187	0.002530
991	5.007281	0.005000	9.256223	0.300669	1.813874	-0.729015	-0.345851	-0.340933	-0.019076	-0.011173	0.004724
992	5.012281	0.005000	9.180093	0.119787	1.765800	-0.728794	-0.345740	-0.341180	-0.012352	-0.003514	-0.001525
993	5.017281	0.005000	9.181827	0.156960	1.726893	-0.728573	-0.345630	-0.341427	-0.002846	-0.002862	0.014340
994	5.022281	0.005000	9.182160	0.156960	1.650361	-0.728352	-0.345519	-0.341673	-0.007844	-0.001266	0.000230
995	5.027281	0.005000	9.221400	0.142865	1.721862	-0.728131	-0.345409	-0.341920	-0.007931	-0.010208	0.006907
996	5.032281	0.005000	9.189179	0.117720	1.601821	-0.727910	-0.345298	-0.342167	-0.014010	-0.004997	0.000056
997	5.037281	0.005000	9.221400	0.156960	1.678272	-0.727689	-0.345188	-0.342414	-0.013487	-0.009612	-0.003181
998	5.042281	0.005000	9.205086	0.196200	1.721709	-0.727468	-0.345077	-0.342660	-0.016111	-0.007127	0.007149
999	5.047281	0.005000	9.182160	0.080356	1.636251	-0.727247	-0.344967	-0.342907	-0.020189	-0.006381	0.001275
1000	5.052281	0.005000	9.127105	0.141145	1.734169	-0.727026	-0.344856	-0.343154	-0.013032	0.001884	0.001493
1001	5.057281	0.005000	9.221400	0.175187	1.726560	-0.726957	-0.344897	-0.343333	-0.011397	0.006693	0.001972
1002	5.062281	0.005000	9.221400	0.233404	1.726560	-0.727288	-0.345339	-0.343333	-0.007289	-0.010849	0.006979
1003	5.067281	0.005000	9.244182	0.274680	1.765800	-0.727620	-0.345781	-0.343333	-0.019858	-0.002259	0.002561
1004	5.072281	0.005000	9.235648	0.274680	1.765800	-0.727951	-0.346223	-0.343333	-0.000015	-0.012517	-0.000878
1005	5.077281	0.005000	9.315450	0.254746	1.699155	-0.728283	-0.346665	-0.343333	-0.014717	-0.016315	0.022641
1006	5.082281	0.005000	9.290108	0.186428	1.726560	-0.728614	-0.347107	-0.343333	-0.012007	-0.000764	-0.001680
1007	5.087281	0.005000	9.189647	0.141987	1.765800	-0.728946	-0.347549	-0.343333	-0.011585	-0.006583	-0.003658
1008	5.092281	0.005000	9.231562	0.078480	1.721479	-0.729277	-0.347991	-0.343333	-0.019898	0.001488	0.004826
1009	5.097281	0.005000	9.296743	0.153823	1.870971	-0.729609	-0.348433	-0.343333	-0.007767	-0.004769	0.005558
1010	5.102281	0.005000	9.298441	0.117000	1.688040	-0.729940	-0.348875	-0.343333	-0.011718	-0.002049	0.012740
1011	5.107281	0.005000	9.146248	0.078480	1.726560	-0.730272	-0.349317	-0.343333	-0.013480	0.002814	0.003607
1012	5.112281	0.005000	9.328234	0.085737	1.648080	-0.730603	-0.349759	-0.343333	-0.011218	-0.008716	0.013794
1013	5.117281	0.005000	9.182160	0.184110	1.681275	-0.730934	-0.350201	-0.343333	-0.014322	-0.001509	-0.003666
1014	5.122281	0.005000	9.151270	0.142771	1.749100	-0.731266	-0.350643	-0.343333	-0.009293	-0.004825	-0.000916
1015	5.127281	0.005000	9.182160	0.156960	1.697716	-0.732445	-0.351594	-0.341060	-0.009303	0.004007	-0.002475
1016	5.132281	0.005000	9.247830	0.183390	1.765800	-0.733882	-0.352699	-0.338099	-0.005311	-0.009405	-0.011182
1017	5.137281	0.005000	9.221400	0.220404	1.844280	-0.735318	-0.353804	-0.335138	-0.006625	-0.017125	0.011426
1018	5.142281	0.005000	9.199323	0.291843	1.827117	-0.736755	-0.354909	-0.332176	-0.014053	-0.002135	0.003274
1019	5.147281	0.005000	9.182252	0.235348	1.922760	-0.738191	-0.356014	-0.329215	-0.011449	-0.014826	0.006091
1020	5.152281	0.005000	9.186365	0.060963	1.826763	-0.739628	-0.357119	-0.326253	-0.015848	0.000017	-0.000001
1021	5.157281	0.005000	9.214709	0.148340	1.711250	-0.741064	-0.358224	-0.323292	-0.012211	-0.010979	-0.000463
1022	5.162281	0.005000	9.221400	0.130626	1.674414	-0.742501	-0.359329	-0.320330	-0.016715	-0.008667	0.002665
1023	5.167281	0.005000	9.203822	0.146129	1.694067	-0.743937	-0.360434	-0.317369	-0.015205	-0.004798	0.005215
1024	5.172281	0.005000	9.299880	0.156960	1.695875	-0.745374	-0.361540	-0.314408	-0.006276	-0.013123	0.008941
1025	5.177281	0.005000	9.332981	0.051519	1.660359	-0.746811	-0.362645	-0.311446	-0.012939	-0.004542	-0.000294
1026	5.182281	0.005000	9.339120	0.074335	1.617130	-0.748247	-0.363750	-0.308485	-0.013194	-0.016142	0.004793
1027	5.187281	0.005000	9.180369	0.121301	1.728351	-0.749684	-0.364855	-0.305523	-0.011103	-0.007252	0.009584
1028	5.192281	0.005000	9.258779	0.234820	1.688560	-0.750429	-0.365384	-0.303944	-0.011415	-0.001535	-0.003999
1029	5.197281	0.005000	9.213687	0.232869	1.682178	-0.749214	-0.364279	-0.306288	-0.012351	-0.000928	0.009834
1030	5.202281	0.005000	9.167233	0.122696	1.765800	-0.747998	-0.363174	-0.308632	-0.020113	0.002930	-0.003703
1031	5.207281	0.005000	9.189552	0.156960	1.775472	-0.746783	-0.362069	-0.310977	-0.005711	-0.008765	0.003619
1032	5.212281	0.005000	9.202037	0.147279	1.775996	-0.745567	-0.360964	-0.313321	-0.017303	-0.003397	-0.002755
1033	5.217281	0.005000	9.166406	0.196200	1.726560	-0.744352	-0.359859	-0.315666	-0.021236	-0.004731	-0.003382
1034	5.222281	0.005000	9.128764	0.210356	1.765800	-0.743136	-0.358754	-0.318010	-0.009003	0.001976	0.008349
1035	5.227281	0.005000	9.103680	0.196200	1.765800	-0.741921	-0.357649	-0.320355	-0.007926	-0.000336	-0.004024
1036	5.232281	0.005000	9.142920	0.196200	1.747290	-0.740705	-0.356544	-0.322699	-0.010310	-0.006622	0.005155
1037	5.237281	0.005000	9.145008	0.196200	1.691495	-0.739490	-0.355439	-0.325044	-0.018111	0.007771	0.008667
1038	5.242281	0.005000	9.159302	0.196200	1.788658	-0.738274	-0.354334	-0.327388	-0.009737	-0.005518	0.009062
1039	5.247281	0.005000	9.117653	0.117720	1.816335	-0.737059	-0.353229	-0.329733	-0.012882	-0.012448	0.007494
1040	5.252281	0.005000	9.224970	0.184310	1.765800	-0.735843	-0.352124	-0.332077	-0.014574	-0.004800	-0.000261
1041	5.257281	0.005000	9.280880	0.117720	1.736060	-0.734628	-0.351019	-0.334422	-0.011410	-0.021087	0.013146
1042	5.262281	0.005000	9.182160	0.181783	1.790623	-0.733995	-0.350996	-0.335186	-0.010483	0.006557	0.003414
1043	5.267281	0.005000	9.118056	0.053616	1.721768	-0.733553	-0.351327	-0.335433	-0.011385	-0.006692	0.005084
1044	5.272281	0.005000	9.187787	0.081294	1.687320	-0.733111	-0.351659	-0.335679	-0.016548	-0.001659	-0.002617
1045	5.277281	0.005000	9.220956	0.040571	1.727004	-0.732669	-0.351990	-0.335926	-0.015944	-0.005604	-0.011282
1046	5.282281	0.005000	9.219449	0.045094	1.728511	-0.732227	-0.352322	-0.336173	-0.011790	-0.008876	0.003042
1047	5.287281	0.005000	9.221400	0.082398	1.655916	-0.731785	-0.352653	-0.336420	-0.014661	-0.006726	-0.003088
1048	5.292281	0.005000	9.227723	0.156960	1.687320	-0.731343	-0.352985	-0.336666	-0.010212	-0.010143	0.016626
1049	5.297281	0.005000	9.299880	0.178925	1.726560	-0.730901	-0.353316	-0.336913	-0.017464	-0.007304	-0.000298
1050	5.302281	0.005000	9.328438	0.156960	1.733753	-0.730459	-0.353648	-0.337160	-0.012397	-0.003953	-0.003017
1051	5.307281	0.005000	9.182191	0.222350	1.726560	-0.730017	-0.353980	-0.337407	-0.008810	-0.006731	-0.000271
1052	5.312281	0.005000	9.182160	0.211509	1.702629	-0.729575	-0.354311	-0.337653	-0.016188	-0.007931	-0.002832
1053	5.317281	0.005000	9.125482	0.156960	1.770163	-0.729133	-0.354643	-0.337900	-0.005839	-0.008988	0.002174
1054	5.322281	0.005000	9.182619	0.157419	1.902910	-0.728691	-0.354974	-0.338147	-0.008704	-0.002784	0.002482
1055	5.327281	0.005000	9.199405	0.174205	1.743805	-0.728494	-0.355034	-0.338424	-0.008630	-0.011198	0.004366
1056	5.332281	0.005000	9.269811	0.196200	1.750765	-0.729047	-0.354260	-0.338794	-0.014572	-0.002936	0.003134
1057	5.337281	0.005000	9.182160	0.196200	1.751812	-0.729599	-0.353487	-0.339164	-0.016295	-0.009808	-0.006433
1058	5.342281	0.005000	9.299880	0.196200	1.772993	-0.730152	-0.352713	-0.339535	-0.015161	-0.016102	0.006449
1059	5.347281	0.005000	9.229667	0.109453	1.740998	-0.730704	-0.351939	-0.339905	-0.015630	-0.008941	-0.000668
1060	5.352281	0.005000	9.221400	0.090975	1.681072	-0.731257	-0.351166	-0.340275	-0.013112	-0.018117	0.007946
1061	5.357281	0.005000	9.221400	0.196200	1.659834	-0.731809	-0.350392	-0.340645	-0.016261	-0.009526	0.002501
1062	5.362281	0.005000	9.256139	0.078480	1.690321	-0.732362	-0.349619	-0.341015	-0.008812	-0.017743	0.003767
1063	5.367281	0.005000	9.298105	-0.037909	1.765800	-0.732914	-0.348845	-0.341386	-0.012121	-0.009113	0.009372
1064	5.372281	0.005000	9.260640	0.075666	1.765800	-0.733467	-0.348072	-0.341756	-0.010758	-0.008109	-0.001483
1065	5.377281	0.005000	9.226192	0.186616	1.844280	-0.734019	-0.347298	-0.342126	-0.005306	-0.009739	0.012623
1066	5.382281	0.005000	9.142920	0.156960	1.687320	-0.734572	-0.346525	-0.342496	-0.012389	-0.014504	0.000472
1067	5.387281	0.005000	9.172660	0.186700	1.795540	-0.735124	-0.345751	-0.342866	-0.007661	-0.013742	0.002427
1068	5.392281	0.005000	9.194035	0.180710	1.687320	-0.735677	-0.344978	-0.343236	-0.011896	-0.009822	0.005664
1069	5.397281	0.005000	9.246677	0.103757	1.791077	-0.735576	-0.344776	-0.343333	-0.010949	-0.022505	-0.004426
1070	5.402281	0.005000	9.254151	0.156960	1.827904	-0.735244	-0.344776	-0.343333	-0.009529	-0.015263	0.009836
1071	5.407281	0.005000	9.281319	0.159078	1.844280	-0.734913	-0.344776	-0.343333	-0.017969	-0.002340	-0.004281
1072	5.412281	0.005000	9.223620	0.235440	1.784310	-0.734581	-0.344776	-0.343333	-0.006185	-0.020659	0.004777
1073	5.417281	0.005000	9.253600	0.242480	1.837240	-0.734250	-0.344776	-0.343333	-0.008860	-0.020559	0.002764
1074	5.422281	0.005000	9.296651	0.249596	1.790884	-0.733918	-0.344776	-0.343333	-0.014080	-0.012040	0.006571
1075	5.427281	0.005000	9.260640	0.262937	1.781554	-0.733587	-0.344776	-0.343333	-0.012846	-0.008822	0.008699
1076	5.432281	0.005000	9.290199	0.225759	1.677124	-0.733255	-0.344776	-0.343333	-0.009137	-0.006992	-0.010681
1077	5.437281	0.005000	9.238464	0.235440	1.679928	-0.732924	-0.344776	-0.343333	-0.000531	-0.013306	0.003400
1078	5.442281	0.005000	9.187136	0.225488	1.721584	-0.732592	-0.344776	-0.343333	-0.004568	-0.015759	0.003002
1079	5.447281	0.005000	9.302875	0.078480	1.687320	-0.732261	-0.344776	-0.343333	-0.007199	-0.016302	0.004384
1080	5.452281	0.005000	9.337865	0.078480	1.765800	-0.731929	-0.344776	-0.343333	-0.017410	-0.018439	0.005990
1081	5.457281	0.005000	9.260640	0.153450	1.728315	-0.731598	-0.344776	-0.343333	-0.016923	-0.007269	0.001330
1082	5.462281	0.005000	9.118561	0.231720	1.840560	-0.731317	-0.344827	-0.343362	-0.012260	-0.005274	0.019016
1083	5.467281	0.005000	9.287606	0.150823	1.726560	-0.731207	-0.345048	-0.343485	-0.011525	0.007019	-0.007486
1084	5.472281	0.005000	9.213319	0.219279	1.757719	-0.731096	-0.345269	-0.343608	-0.004184	-0.011133	-0.003188
1085	5.477281	0.005000	9.132433	0.235440	1.765800	-0.730986	-0.345490	-0.343732	-0.013971	0.003411	-0.001465
1086	5.482281	0.005000	9.207664	0.155977	1.753048	-0.730876	-0.345711	-0.343855	-0.027784	-0.001823	-0.002302
1087	5.487281	0.005000	9.191710	0.196200	1.750955	-0.730765	-0.345932	-0.343979	-0.011927	-0.004627	0.012523
