# FOX Logger (IMU file)
# (c) INRIA 2011-2014
# File created from file sensbiotk output
#
# File format:
# id	t	dt	ax	ay	az	mx	my	mz	gx	gy	gz
#
# Units:
#	Time: s
#	Acceleration: m.s^-2
#	Magneto: gauss
#	Gyrometer: rad/s
#
1	0.032379	0.032379	1.575137	9.798927	-1.390010	-0.749254	-0.688060	0.890000	0.019783	-0.001927	-0.016015
2	0.037379	0.005000	1.602443	9.770760	-1.527161	-0.749583	-0.687731	0.889877	0.012765	0.004480	-0.011526
3	0.042379	0.005000	1.534081	9.732760	-1.454361	-0.749912	-0.687402	0.889755	0.011943	-0.005252	-0.006067
4	0.047379	0.005000	1.610003	9.846914	-1.606514	-0.750241	-0.687073	0.889632	0.029330	0.007547	-0.011292
5	0.052379	0.005000	1.569600	9.773867	-1.572707	-0.750570	-0.686743	0.889510	0.025182	0.004229	-0.005152
6	0.057379	0.005000	1.569600	9.843728	-1.637057	-0.750899	-0.686414	0.889387	0.020302	0.008493	-0.007140
7	0.062379	0.005000	1.710888	9.849240	-1.624512	-0.751228	-0.686085	0.889265	0.028844	0.009432	-0.008967
8	0.067379	0.005000	1.618711	9.819871	-1.648080	-0.751558	-0.685756	0.889142	0.037179	0.009848	-0.003037
9	0.072379	0.005000	1.608840	9.836961	-1.594158	-0.751887	-0.685427	0.889020	0.021883	0.015944	-0.010575
10	0.077379	0.005000	1.687320	9.820794	-1.437657	-0.752216	-0.685098	0.888897	0.018873	0.008088	-0.003317
11	0.082379	0.005000	1.592204	9.826636	-1.507756	-0.752545	-0.684769	0.888775	0.024604	0.008329	-0.003502
12	0.087379	0.005000	1.610443	9.729917	-1.590022	-0.752874	-0.684439	0.888652	0.038230	0.014377	-0.008350
13	0.092379	0.005000	1.669070	9.731520	-1.509370	-0.753203	-0.684110	0.888530	0.022495	0.009272	0.008085
14	0.097379	0.005000	1.694309	9.731520	-1.624966	-0.753532	-0.683781	0.888407	0.020069	0.011651	0.005515
15	0.102379	0.005000	1.648080	9.784662	-1.740462	-0.753428	-0.683712	0.888478	0.026450	0.007298	-0.000255
16	0.107379	0.005000	1.765800	9.849240	-1.557786	-0.752660	-0.684041	0.888846	0.017945	0.014088	-0.005418
17	0.112379	0.005000	1.717010	9.849240	-1.579150	-0.751892	-0.684370	0.889213	0.029947	0.005113	-0.001753
18	0.117379	0.005000	1.679802	9.817518	-1.664765	-0.751124	-0.684700	0.889581	0.025353	0.003478	-0.002492
19	0.122379	0.005000	1.697700	9.799620	-1.637700	-0.750356	-0.685029	0.889948	0.032486	0.000806	-0.011275
20	0.127379	0.005000	1.796684	9.692280	-1.608840	-0.749588	-0.685358	0.890316	0.035113	0.005038	-0.004180
21	0.132379	0.005000	1.646397	9.769918	-1.686478	-0.748820	-0.685687	0.890683	0.039918	0.002894	-0.004463
22	0.137379	0.005000	1.569600	9.769202	-1.648080	-0.748052	-0.686016	0.891051	0.040833	-0.005234	-0.000589
23	0.142379	0.005000	1.608840	9.735040	-1.719520	-0.747284	-0.686345	0.891418	0.034560	0.000531	0.000922
24	0.147379	0.005000	1.726560	9.719670	-1.726560	-0.746517	-0.686674	0.891786	0.033092	-0.001184	0.013811
25	0.152379	0.005000	1.726560	9.762891	-1.742192	-0.745749	-0.687004	0.892153	0.033770	-0.001622	0.006505
26	0.157379	0.005000	1.658364	9.799716	-1.776084	-0.744981	-0.687333	0.892521	0.034251	-0.002950	-0.005381
27	0.162379	0.005000	1.633921	9.756601	-1.687320	-0.744213	-0.687662	0.892888	0.043556	-0.001267	0.001764
28	0.167379	0.005000	1.741191	9.746151	-1.707277	-0.743445	-0.687991	0.893256	0.039948	0.004406	-0.005391
29	0.172379	0.005000	1.715290	9.770760	-1.720993	-0.743891	-0.688580	0.893139	0.032712	-0.005178	0.005866
30	0.177379	0.005000	1.686049	9.810000	-1.627825	-0.744658	-0.689238	0.892895	0.022942	-0.004081	-0.004645
31	0.182379	0.005000	1.612391	9.756466	-1.630235	-0.745426	-0.689896	0.892650	0.034225	-0.009483	-0.008150
32	0.187379	0.005000	1.640642	9.731520	-1.545236	-0.746193	-0.690554	0.892405	0.031192	-0.003227	-0.008712
33	0.192379	0.005000	1.700808	9.718032	-1.595352	-0.746961	-0.691212	0.892160	0.016022	-0.004912	-0.014454
34	0.197379	0.005000	1.597434	9.782166	-1.613862	-0.747728	-0.691870	0.891915	0.008235	-0.009423	-0.000009
35	0.202379	0.005000	1.587873	9.810000	-1.608840	-0.748496	-0.692528	0.891670	0.021358	0.006340	-0.014944
36	0.207379	0.005000	1.669409	9.763650	-1.648080	-0.749264	-0.693186	0.891425	0.014136	-0.008333	-0.010156
37	0.212379	0.005000	1.608840	9.770760	-1.677766	-0.750031	-0.693843	0.891180	0.016383	-0.004092	-0.006298
38	0.217379	0.005000	1.604096	9.844496	-1.648080	-0.750799	-0.694501	0.890936	0.018062	-0.000977	-0.008857
39	0.222379	0.005000	1.609269	9.771189	-1.609269	-0.751566	-0.695159	0.890691	0.015482	0.000464	0.001410
40	0.227379	0.005000	1.573533	9.847273	-1.648080	-0.752334	-0.695817	0.890446	0.017798	0.013175	-0.006373
41	0.232379	0.005000	1.608840	9.782518	-1.561761	-0.753101	-0.696475	0.890201	0.014397	0.002846	-0.004242
42	0.237379	0.005000	1.542885	9.822525	-1.563337	-0.753554	-0.696995	0.889956	0.011131	0.006038	-0.006218
43	0.242379	0.005000	1.608840	9.739800	-1.693442	-0.752567	-0.696886	0.889711	0.008765	0.007280	-0.001300
44	0.247379	0.005000	1.541047	9.752893	-1.676633	-0.751580	-0.696776	0.889466	0.016124	-0.003300	-0.007622
45	0.252379	0.005000	1.542991	9.758129	-1.635449	-0.750593	-0.696666	0.889221	0.015532	0.003665	-0.003432
46	0.257379	0.005000	1.608840	9.794956	-1.633036	-0.749606	-0.696557	0.888977	0.016859	0.004907	0.007941
47	0.262379	0.005000	1.604090	9.827245	-1.643330	-0.748619	-0.696447	0.888732	0.019288	0.007335	-0.000901
48	0.267379	0.005000	1.549758	9.829398	-1.648968	-0.747633	-0.696337	0.888487	0.034374	0.005094	0.000016
49	0.272379	0.005000	1.508551	9.748951	-1.713506	-0.746646	-0.696227	0.888242	0.023130	0.003661	0.006191
50	0.277379	0.005000	1.554112	9.825488	-1.648080	-0.745659	-0.696118	0.887997	0.030478	0.009675	0.011922
51	0.282379	0.005000	1.569600	9.796925	-1.648080	-0.744672	-0.696008	0.887752	0.024748	0.001488	0.003785
52	0.287379	0.005000	1.547339	9.759629	-1.709581	-0.743685	-0.695898	0.887507	0.025525	0.003359	0.003360
53	0.292379	0.005000	1.491120	9.731520	-1.709113	-0.742698	-0.695789	0.887262	0.024233	0.002619	0.011863
54	0.297379	0.005000	1.497821	9.692280	-1.660515	-0.741711	-0.695679	0.887017	0.022790	0.004464	0.005836
55	0.302379	0.005000	1.639353	9.766397	-1.691683	-0.740725	-0.695569	0.886773	0.027116	-0.004584	-0.000624
56	0.307379	0.005000	1.530360	9.694685	-1.682510	-0.740424	-0.695335	0.887642	0.030863	-0.001556	0.011272
57	0.312379	0.005000	1.569600	9.770775	-1.608840	-0.740643	-0.695006	0.889356	0.029035	0.001503	-0.000778
58	0.317379	0.005000	1.532288	9.810000	-1.646152	-0.740862	-0.694677	0.891071	0.025051	-0.003149	-0.001501
59	0.322379	0.005000	1.639414	9.770760	-1.796374	-0.741082	-0.694348	0.892785	0.019881	-0.011875	0.010068
60	0.327379	0.005000	1.563323	9.692280	-1.838003	-0.741301	-0.694019	0.894499	0.030920	-0.003083	0.010385
61	0.332379	0.005000	1.560907	9.753374	-1.757107	-0.741520	-0.693690	0.896214	0.023769	-0.002387	0.016686
62	0.337379	0.005000	1.591534	9.624767	-1.737527	-0.741740	-0.693361	0.897928	0.031301	0.000054	0.007570
63	0.342379	0.005000	1.621991	9.783911	-1.621884	-0.741959	-0.693032	0.899642	0.025377	-0.004380	0.003108
64	0.347379	0.005000	1.593562	9.818683	-1.696003	-0.742178	-0.692703	0.901356	0.026529	-0.002443	0.002618
65	0.352379	0.005000	1.473719	9.810000	-1.726560	-0.742398	-0.692375	0.903071	0.030176	-0.008241	-0.003304
66	0.357379	0.005000	1.608840	9.810091	-1.687229	-0.742617	-0.692046	0.904785	0.022034	-0.006045	-0.004954
67	0.362379	0.005000	1.783284	9.810000	-1.683048	-0.742836	-0.691717	0.906499	0.021740	-0.010627	0.005884
68	0.367379	0.005000	1.765800	9.794925	-1.687320	-0.743055	-0.691388	0.908214	0.016389	-0.010176	0.007588
69	0.372379	0.005000	1.752664	9.783896	-1.687320	-0.743275	-0.691059	0.909928	0.007848	-0.003706	-0.001797
70	0.377379	0.005000	1.608840	9.731520	-1.737288	-0.744755	-0.691886	0.910469	0.008807	-0.007587	-0.002301
71	0.382379	0.005000	1.626409	9.783646	-1.704889	-0.746291	-0.692763	0.910960	0.011609	-0.005839	0.008446
72	0.387379	0.005000	1.674582	9.770760	-1.765800	-0.747827	-0.693641	0.911450	0.011311	-0.011804	0.006216
73	0.392379	0.005000	1.682948	9.801256	-1.691692	-0.749363	-0.694519	0.911940	0.022719	-0.006908	0.009484
74	0.397379	0.005000	1.648080	9.733540	-1.691360	-0.750899	-0.695396	0.912430	0.015274	-0.002680	-0.001861
75	0.402379	0.005000	1.648080	9.770911	-1.726787	-0.752435	-0.696274	0.912920	0.004295	-0.011959	0.007951
76	0.407379	0.005000	1.684978	9.812342	-1.807382	-0.753970	-0.697152	0.913410	0.008189	-0.012484	0.005483
77	0.412379	0.005000	1.756421	9.761381	-1.696699	-0.755506	-0.698029	0.913900	0.016012	-0.013075	0.006421
78	0.417379	0.005000	1.805040	9.810000	-1.673939	-0.757042	-0.698907	0.914390	0.004067	-0.009302	-0.002679
79	0.422379	0.005000	1.877757	9.761759	-1.648080	-0.758578	-0.699784	0.914880	0.007084	-0.015064	0.000079
80	0.427379	0.005000	1.709419	9.832099	-1.687320	-0.760114	-0.700662	0.915370	-0.005139	-0.012323	0.001454
81	0.432379	0.005000	1.674023	9.810000	-1.648080	-0.761650	-0.701540	0.915860	-0.004358	-0.007182	-0.007035
82	0.437379	0.005000	1.687320	9.746922	-1.750398	-0.763186	-0.702417	0.916350	-0.004068	-0.033453	0.004327
83	0.442379	0.005000	1.687320	9.792194	-1.608840	-0.764024	-0.702636	0.916104	-0.008596	-0.013131	-0.007392
84	0.447379	0.005000	1.726560	9.751270	-1.569340	-0.763585	-0.701649	0.914512	-0.005326	-0.021708	-0.006705
85	0.452379	0.005000	1.765800	9.714440	-1.660079	-0.763146	-0.700661	0.912919	-0.002921	-0.016056	0.003068
86	0.457379	0.005000	1.672184	9.722552	-1.705257	-0.762708	-0.699674	0.911327	-0.012305	-0.019322	0.001498
87	0.462379	0.005000	1.634286	9.731520	-1.621563	-0.762269	-0.698687	0.909734	-0.006098	-0.013998	-0.004065
88	0.467379	0.005000	1.637430	9.720870	-1.715910	-0.761830	-0.697699	0.908141	-0.001593	-0.018578	-0.001599
89	0.472379	0.005000	1.639709	9.630543	-1.617211	-0.761391	-0.696712	0.906549	-0.007244	-0.019072	0.008396
90	0.477379	0.005000	1.681364	9.737476	-1.630213	-0.760952	-0.695725	0.904956	0.000599	-0.011313	-0.004419
91	0.482379	0.005000	1.683309	9.696291	-1.577623	-0.760513	-0.694737	0.903364	-0.004909	-0.009948	0.005989
92	0.487379	0.005000	1.610447	9.654647	-1.762586	-0.760075	-0.693750	0.901771	-0.001236	-0.017278	0.006589
93	0.492379	0.005000	1.570274	9.770086	-1.687320	-0.759636	-0.692762	0.900178	-0.004701	-0.012256	-0.000801
94	0.497379	0.005000	1.608840	9.734275	-1.721050	-0.759197	-0.691775	0.898586	-0.005146	-0.016698	-0.001696
95	0.502379	0.005000	1.578997	9.696978	-1.786246	-0.758758	-0.690788	0.896993	-0.009701	-0.013119	0.000110
96	0.507379	0.005000	1.569600	9.692280	-1.708632	-0.758319	-0.689800	0.895400	0.005855	-0.021188	0.016230
97	0.512379	0.005000	1.560555	9.731520	-1.660186	-0.757388	-0.689634	0.894450	0.000457	-0.017501	0.000697
98	0.517379	0.005000	1.541812	9.742972	-1.670984	-0.756292	-0.689744	0.893715	0.012318	-0.022228	-0.012704
99	0.522379	0.005000	1.530360	9.757055	-1.673615	-0.755195	-0.689853	0.892981	0.012123	-0.022850	0.003642
100	0.527379	0.005000	1.537981	9.833431	-1.749991	-0.754099	-0.689963	0.892246	0.021365	-0.021296	-0.012874
101	0.532379	0.005000	1.594076	9.867241	-1.693794	-0.753002	-0.690073	0.891511	0.022111	-0.024145	-0.007195
102	0.537379	0.005000	1.568513	9.927720	-1.668244	-0.751905	-0.690183	0.890777	0.007499	-0.025623	-0.003563
103	0.542379	0.005000	1.614747	9.849240	-1.777615	-0.750809	-0.690292	0.890042	0.002185	-0.028860	-0.005267
104	0.547379	0.005000	1.594288	9.839105	-1.608840	-0.749712	-0.690402	0.889307	0.017265	-0.017427	-0.007747
105	0.552379	0.005000	1.594219	9.810000	-1.714251	-0.748616	-0.690512	0.888572	0.001223	-0.014722	-0.006292
106	0.557379	0.005000	1.667516	9.859142	-1.589404	-0.747519	-0.690621	0.887838	-0.000507	-0.033580	-0.002743
107	0.562379	0.005000	1.656038	9.880522	-1.718602	-0.746423	-0.690731	0.887103	0.010992	-0.023185	-0.008830
108	0.567379	0.005000	1.698405	9.804458	-1.692862	-0.745326	-0.690841	0.886368	0.010996	-0.025629	0.000359
109	0.572379	0.005000	1.730115	9.849240	-1.658745	-0.744230	-0.690950	0.885634	0.013388	-0.018617	0.000254
110	0.577379	0.005000	1.727754	9.810000	-1.683739	-0.743465	-0.691075	0.885118	0.009786	-0.012639	-0.005302
111	0.582379	0.005000	1.650331	9.771510	-1.569600	-0.744782	-0.691295	0.885976	0.007530	-0.019286	0.003759
112	0.587379	0.005000	1.726560	9.773914	-1.572754	-0.746098	-0.691514	0.886833	-0.000374	-0.010339	-0.005373
113	0.592379	0.005000	1.648080	9.794705	-1.603742	-0.747415	-0.691733	0.887691	0.000842	-0.025856	0.001244
114	0.597379	0.005000	1.687320	9.729852	-1.672291	-0.748731	-0.691953	0.888548	-0.004037	-0.016368	-0.000726
115	0.602379	0.005000	1.638278	9.829635	-1.608840	-0.750047	-0.692172	0.889406	-0.000602	-0.018110	-0.007725
116	0.607379	0.005000	1.742069	9.821865	-1.663589	-0.751364	-0.692392	0.890263	0.007938	-0.009298	-0.005608
117	0.612379	0.005000	1.730156	9.770760	-1.583879	-0.752680	-0.692611	0.891121	-0.004916	-0.013878	-0.004179
118	0.617379	0.005000	1.671098	9.810000	-1.562805	-0.753997	-0.692830	0.891979	-0.003638	-0.022730	0.006277
119	0.622379	0.005000	1.646105	9.810000	-1.567625	-0.755313	-0.693050	0.892836	-0.012656	-0.016760	0.003041
120	0.627379	0.005000	1.629640	9.812360	-1.511920	-0.756630	-0.693269	0.893694	-0.003454	-0.019155	-0.000324
121	0.632379	0.005000	1.579119	9.787013	-1.546613	-0.757946	-0.693489	0.894551	-0.011374	-0.015906	0.008746
122	0.637379	0.005000	1.608840	9.735208	-1.569600	-0.759263	-0.693708	0.895409	-0.008007	-0.016587	0.004075
123	0.642379	0.005000	1.479224	9.861136	-1.624288	-0.760579	-0.693928	0.896267	0.008552	-0.015658	0.010718
124	0.647379	0.005000	1.569600	9.791023	-1.608840	-0.760493	-0.693972	0.896341	0.001696	-0.013525	0.003096
125	0.652379	0.005000	1.537908	9.714924	-1.694868	-0.759177	-0.693862	0.895728	0.000250	-0.016473	0.009002
126	0.657379	0.005000	1.491120	9.702564	-1.731702	-0.757861	-0.693752	0.895116	-0.007678	-0.008807	0.008526
127	0.662379	0.005000	1.530360	9.780245	-1.834795	-0.756545	-0.693642	0.894504	-0.008877	-0.020129	0.014661
128	0.667379	0.005000	1.532702	9.810000	-1.684978	-0.755229	-0.693533	0.893891	-0.001982	-0.015220	0.014797
129	0.672379	0.005000	1.648080	9.734727	-1.531963	-0.753913	-0.693423	0.893279	-0.000305	-0.004147	0.015480
130	0.677379	0.005000	1.687320	9.770760	-1.608840	-0.752598	-0.693313	0.892667	-0.001144	-0.012648	0.016254
131	0.682379	0.005000	1.575584	9.804016	-1.536344	-0.751282	-0.693204	0.892055	0.005940	-0.010672	0.018012
132	0.687379	0.005000	1.569600	9.778688	-1.514903	-0.749966	-0.693094	0.891442	0.011617	-0.011439	0.017993
133	0.692379	0.005000	1.637746	9.810000	-1.530360	-0.748650	-0.692984	0.890830	-0.003703	-0.006307	0.019087
134	0.697379	0.005000	1.594802	9.810000	-1.726560	-0.747334	-0.692875	0.890218	0.012280	-0.009323	0.014364
135	0.702379	0.005000	1.633388	9.810000	-1.662772	-0.746018	-0.692765	0.889605	0.019802	-0.015259	0.010976
136	0.707379	0.005000	1.591739	9.787861	-1.620904	-0.744702	-0.692655	0.888993	0.013427	-0.010218	0.010441
137	0.712379	0.005000	1.629034	9.691132	-1.588646	-0.743387	-0.692546	0.888381	0.021477	-0.015739	0.021236
138	0.717379	0.005000	1.573273	9.635257	-1.569600	-0.743183	-0.692234	0.888333	0.018292	-0.006127	0.006356
139	0.722379	0.005000	1.663737	9.668697	-1.569600	-0.743073	-0.691905	0.888333	0.016820	-0.013372	0.013625
140	0.727379	0.005000	1.569600	9.666477	-1.673883	-0.742963	-0.691575	0.888333	0.019415	-0.011442	0.011062
141	0.732379	0.005000	1.513841	9.625161	-1.760642	-0.742854	-0.691246	0.888333	0.018387	-0.013522	0.003613
142	0.737379	0.005000	1.548518	9.701359	-1.726560	-0.742744	-0.690917	0.888333	0.029736	-0.011323	0.003993
143	0.742379	0.005000	1.601791	9.770760	-1.655129	-0.742634	-0.690588	0.888333	0.026590	-0.003669	0.002752
144	0.747379	0.005000	1.451880	9.805271	-1.583787	-0.742524	-0.690259	0.888333	0.033155	-0.005415	0.007587
145	0.752379	0.005000	1.493432	9.773072	-1.569600	-0.742415	-0.689930	0.888333	0.031046	-0.002462	0.000412
146	0.757379	0.005000	1.569967	9.770760	-1.570335	-0.742305	-0.689601	0.888333	0.035801	-0.002203	0.006143
147	0.762379	0.005000	1.571612	9.845216	-1.685308	-0.742195	-0.689272	0.888333	0.035259	-0.001631	0.011480
148	0.767379	0.005000	1.640119	9.821942	-1.660022	-0.742085	-0.688943	0.888333	0.026832	-0.003785	0.006683
149	0.772379	0.005000	1.641683	9.803603	-1.732957	-0.741976	-0.688614	0.888333	0.034995	-0.007492	0.013888
150	0.777379	0.005000	1.687320	9.801659	-1.726560	-0.741866	-0.688285	0.888333	0.024890	0.000953	0.009731
151	0.782379	0.005000	1.648080	9.799252	-1.687320	-0.741756	-0.688025	0.888450	0.029347	0.002015	0.013152
152	0.787379	0.005000	1.569600	9.770760	-1.687320	-0.741647	-0.687915	0.888817	0.028951	-0.001305	0.007923
153	0.792379	0.005000	1.672224	9.716424	-1.663176	-0.741537	-0.687806	0.889184	0.028330	-0.005173	0.008382
154	0.797379	0.005000	1.713276	9.727296	-1.748292	-0.741427	-0.687696	0.889552	0.038228	-0.008145	0.005980
155	0.802379	0.005000	1.686983	9.711732	-1.726560	-0.741318	-0.687586	0.889919	0.027810	-0.009478	0.006700
156	0.807379	0.005000	1.613326	9.670417	-1.665457	-0.741208	-0.687477	0.890286	0.045731	-0.015356	0.007332
157	0.812379	0.005000	1.624273	9.699338	-1.757425	-0.741098	-0.687367	0.890654	0.036292	-0.012669	0.010936
158	0.817379	0.005000	1.700344	9.731520	-1.818232	-0.740989	-0.687257	0.891021	0.048432	-0.003408	-0.003521
159	0.822379	0.005000	1.648080	9.703232	-1.732944	-0.740879	-0.687148	0.891388	0.038715	-0.008937	-0.000699
160	0.827379	0.005000	1.656746	9.722854	-1.687320	-0.740770	-0.687038	0.891756	0.035606	-0.004016	-0.000678
161	0.832379	0.005000	1.714041	9.737779	-1.615099	-0.740660	-0.686928	0.892123	0.025195	-0.009653	0.004502
162	0.837379	0.005000	1.643814	9.766494	-1.718028	-0.740550	-0.686819	0.892491	0.021599	-0.008596	0.005303
163	0.842379	0.005000	1.618332	9.731520	-1.608840	-0.740441	-0.686709	0.892858	0.031345	-0.004272	-0.002510
164	0.847379	0.005000	1.648264	9.731520	-1.648034	-0.740331	-0.686599	0.893225	0.025520	-0.005203	0.003581
165	0.852379	0.005000	1.684870	9.768310	-1.567150	-0.740609	-0.686799	0.893333	0.017216	-0.000371	-0.009090
166	0.857379	0.005000	1.652474	9.810000	-1.783070	-0.741048	-0.687128	0.893333	0.026665	-0.004233	-0.007117
167	0.862379	0.005000	1.562802	9.796405	-1.830685	-0.741486	-0.687457	0.893333	0.024104	0.000603	-0.004301
168	0.867379	0.005000	1.699240	9.770760	-1.735667	-0.741925	-0.687786	0.893333	0.014938	-0.001588	-0.002910
169	0.872379	0.005000	1.648080	9.781917	-1.698477	-0.742363	-0.688115	0.893333	0.010057	-0.002476	-0.006086
170	0.877379	0.005000	1.649048	9.770760	-1.673917	-0.742802	-0.688444	0.893333	0.010782	-0.002962	0.000575
171	0.882379	0.005000	1.695542	9.786269	-1.734782	-0.743241	-0.688773	0.893333	0.007287	-0.004783	-0.001030
172	0.887379	0.005000	1.626761	9.792079	-1.747879	-0.743679	-0.689102	0.893333	0.006765	-0.009281	-0.009665
173	0.892379	0.005000	1.569600	9.751385	-1.726560	-0.744118	-0.689431	0.893333	0.009332	-0.019721	-0.011290
174	0.897379	0.005000	1.682007	9.731520	-1.822004	-0.744556	-0.689760	0.893333	0.009114	-0.014565	-0.002061
175	0.902379	0.005000	1.608840	9.731520	-1.750960	-0.744995	-0.690089	0.893333	0.009524	-0.014583	-0.000061
176	0.907379	0.005000	1.649488	9.704891	-1.753189	-0.745434	-0.690418	0.893333	0.002223	-0.011317	0.003360
177	0.912379	0.005000	1.540557	9.859437	-1.736757	-0.745872	-0.690747	0.893333	0.007255	-0.007387	-0.003562
178	0.917379	0.005000	1.577852	9.840988	-1.741043	-0.746259	-0.691024	0.893274	0.004300	-0.019095	-0.003164
179	0.922379	0.005000	1.699012	9.810000	-1.732406	-0.746149	-0.690805	0.892662	-0.009731	-0.011578	-0.007668
180	0.927379	0.005000	1.711130	9.778475	-1.695035	-0.746039	-0.690585	0.892049	0.002912	-0.010868	-0.002074
181	0.932379	0.005000	1.611840	9.849240	-1.726560	-0.745929	-0.690366	0.891437	-0.003470	-0.014308	-0.004526
182	0.937379	0.005000	1.648524	9.926832	-1.765356	-0.745820	-0.690146	0.890824	0.008882	-0.010644	-0.007677
183	0.942379	0.005000	1.614564	9.779346	-1.687320	-0.745710	-0.689927	0.890212	0.002088	-0.014636	0.002302
184	0.947379	0.005000	1.619248	9.849240	-1.619248	-0.745600	-0.689708	0.889599	-0.000399	-0.008202	-0.011611
185	0.952379	0.005000	1.672898	9.745942	-1.672898	-0.745490	-0.689488	0.888987	0.000224	-0.014346	-0.003441
186	0.957379	0.005000	1.657595	9.712490	-1.706350	-0.745381	-0.689269	0.888374	-0.001037	-0.006114	-0.007020
187	0.962379	0.005000	1.675750	9.719950	-1.675750	-0.745271	-0.689049	0.887762	0.002642	-0.007556	-0.009581
188	0.967379	0.005000	1.622818	9.731520	-1.712582	-0.745161	-0.688830	0.887149	0.001501	-0.012108	-0.012662
189	0.972379	0.005000	1.569600	9.754837	-1.765800	-0.745051	-0.688611	0.886537	0.003961	-0.012192	-0.003037
190	0.977379	0.005000	1.650651	9.710614	-1.642938	-0.744942	-0.688391	0.885924	0.005331	-0.021289	-0.001857
191	0.982379	0.005000	1.689075	9.810000	-1.491120	-0.744832	-0.688172	0.885312	-0.002170	-0.011638	-0.007909
192	0.987379	0.005000	1.687320	9.803861	-1.530360	-0.744776	-0.688168	0.885120	-0.008145	-0.008286	-0.000075
193	0.992379	0.005000	1.676362	9.913579	-1.558642	-0.744776	-0.688387	0.885365	-0.000526	-0.011321	-0.000117
194	0.997379	0.005000	1.663207	9.797944	-1.569600	-0.744776	-0.688606	0.885610	-0.004094	-0.013811	-0.006376
195	1.002379	0.005000	1.677537	9.770760	-1.657863	-0.744776	-0.688826	0.885855	0.000849	-0.018818	-0.006906
196	1.007379	0.005000	1.679940	9.802620	-1.483740	-0.744776	-0.689045	0.886100	0.004371	-0.003314	-0.004150
197	1.012379	0.005000	1.648080	9.810000	-1.598100	-0.744776	-0.689264	0.886345	0.005953	-0.015577	-0.002965
198	1.017379	0.005000	1.563540	9.731520	-1.608840	-0.744776	-0.689484	0.886589	0.006594	-0.003469	-0.007618
199	1.022379	0.005000	1.569600	9.770760	-1.570674	-0.744776	-0.689703	0.886834	0.006734	-0.006290	0.004192
200	1.027379	0.005000	1.531691	9.770760	-1.646749	-0.744776	-0.689922	0.887079	0.007152	-0.009142	0.003622
201	1.032379	0.005000	1.711796	9.774451	-1.762109	-0.744776	-0.690141	0.887324	0.016264	-0.002347	0.000510
202	1.037379	0.005000	1.659440	9.770760	-1.665120	-0.744776	-0.690361	0.887569	0.017691	-0.013593	-0.004950
203	1.042379	0.005000	1.608840	9.849240	-1.608840	-0.744776	-0.690580	0.887814	0.012222	-0.000951	-0.006441
204	1.047379	0.005000	1.579977	9.752275	-1.784285	-0.744776	-0.690799	0.888059	0.013074	-0.014139	-0.004102
205	1.052379	0.005000	1.674873	9.797553	-1.712214	-0.744776	-0.691019	0.888304	0.017236	-0.000332	-0.000174
206	1.057379	0.005000	1.662940	9.731520	-1.672460	-0.744969	-0.691045	0.888333	0.019704	0.005750	-0.000720
207	1.062379	0.005000	1.664884	9.753956	-1.687320	-0.745188	-0.691045	0.888333	0.020271	-0.005755	-0.000354
208	1.067379	0.005000	1.628054	9.731520	-1.707346	-0.745408	-0.691045	0.888333	0.015963	-0.008504	-0.004066
209	1.072379	0.005000	1.630215	9.728010	-1.769310	-0.745627	-0.691045	0.888333	0.016231	-0.011674	-0.001643
210	1.077379	0.005000	1.585278	9.770760	-1.663758	-0.745847	-0.691045	0.888333	0.010996	-0.010411	-0.003655
211	1.082379	0.005000	1.556898	9.744789	-1.596138	-0.746066	-0.691045	0.888333	0.020175	-0.015744	-0.011771
212	1.087379	0.005000	1.659405	9.798675	-1.659405	-0.746286	-0.691045	0.888333	0.017738	-0.004880	-0.000136
213	1.092379	0.005000	1.717649	9.770760	-1.726560	-0.746505	-0.691045	0.888333	0.021351	-0.003522	-0.003465
214	1.097379	0.005000	1.687320	9.796234	-1.726560	-0.746724	-0.691045	0.888333	0.021146	-0.008976	-0.000492
215	1.102379	0.005000	1.721999	9.800879	-1.696441	-0.746944	-0.691045	0.888333	0.015196	-0.006434	0.001877
216	1.107379	0.005000	1.687320	9.849240	-1.689463	-0.747163	-0.691045	0.888333	0.016346	-0.012802	0.011125
217	1.112379	0.005000	1.726167	9.809803	-1.648080	-0.747383	-0.691045	0.888333	0.010342	-0.007499	0.003961
218	1.117379	0.005000	1.722151	9.733725	-1.574009	-0.747602	-0.691045	0.888333	0.013538	-0.014066	-0.008474
219	1.122379	0.005000	1.652229	9.727371	-1.679022	-0.748244	-0.691407	0.888974	0.004126	-0.012547	0.003168
220	1.127379	0.005000	1.706863	9.836109	-1.654646	-0.749999	-0.692723	0.891300	0.005124	-0.013413	-0.005270
221	1.132379	0.005000	1.648080	9.840375	-1.674674	-0.751753	-0.694039	0.893627	0.012851	-0.019229	-0.000579
222	1.137379	0.005000	1.552192	9.799084	-1.687320	-0.753508	-0.695355	0.895954	0.019032	-0.014411	-0.005233
223	1.142379	0.005000	1.622170	9.770760	-1.739140	-0.755262	-0.696671	0.898280	0.015461	-0.012823	-0.000684
224	1.147379	0.005000	1.624391	9.801862	-1.632529	-0.757017	-0.697987	0.900607	0.014183	-0.018412	0.005313
225	1.152379	0.005000	1.569600	9.731520	-1.651967	-0.758772	-0.699303	0.902933	0.016233	-0.015520	-0.003872
226	1.157379	0.005000	1.569146	9.770306	-1.706713	-0.760526	-0.700618	0.905260	0.017758	-0.024748	0.005154
227	1.162379	0.005000	1.648080	9.827209	-1.778186	-0.762281	-0.701934	0.907587	0.009230	-0.018679	0.007639
228	1.167379	0.005000	1.633281	9.834441	-1.741359	-0.764035	-0.703250	0.909913	0.004573	-0.018413	0.008735
229	1.172379	0.005000	1.608840	9.678751	-1.648080	-0.765790	-0.704566	0.912240	0.000172	-0.013998	-0.005787
230	1.177379	0.005000	1.559158	9.741962	-1.676878	-0.767544	-0.705882	0.914566	0.010422	-0.014517	0.000351
231	1.182379	0.005000	1.631289	9.849240	-1.678924	-0.769299	-0.707198	0.916893	0.004872	-0.009413	0.001507
232	1.187379	0.005000	1.536451	9.843149	-1.621022	-0.771054	-0.708514	0.919220	0.011344	-0.015757	-0.002727
233	1.192379	0.005000	1.538559	9.797702	-1.726560	-0.770549	-0.708153	0.918861	0.024415	-0.019684	0.010722
234	1.197379	0.005000	1.685590	9.845780	-1.648080	-0.768904	-0.706947	0.917146	0.014355	-0.006299	0.002233
235	1.202379	0.005000	1.686654	9.809334	-1.609506	-0.767259	-0.705741	0.915432	0.020676	-0.014300	-0.003572
236	1.207379	0.005000	1.603604	9.773378	-1.608840	-0.765614	-0.704535	0.913718	0.008596	-0.016183	0.006189
237	1.212379	0.005000	1.608840	9.917766	-1.569600	-0.763969	-0.703328	0.912004	0.009374	-0.012186	0.001392
238	1.217379	0.005000	1.576566	9.745452	-1.615806	-0.762325	-0.702122	0.910289	0.013628	-0.011420	0.006912
239	1.222379	0.005000	1.560219	9.761379	-1.539741	-0.760680	-0.700916	0.908575	0.016167	-0.008463	0.001566
240	1.227379	0.005000	1.569600	9.837592	-1.526064	-0.759035	-0.699710	0.906861	0.009973	-0.007700	0.006943
241	1.232379	0.005000	1.583333	9.913987	-1.650040	-0.757390	-0.698503	0.905146	0.014168	0.000904	0.011621
242	1.237379	0.005000	1.601518	9.849240	-1.560962	-0.755745	-0.697297	0.903432	0.009113	-0.004287	0.000690
243	1.242379	0.005000	1.608840	9.828090	-1.705410	-0.754100	-0.696091	0.901718	0.019030	-0.013034	0.004591
244	1.247379	0.005000	1.629095	9.693551	-1.610111	-0.752456	-0.694885	0.900004	0.020730	-0.009222	0.001478
245	1.252379	0.005000	1.681671	9.725871	-1.653576	-0.750811	-0.693679	0.898289	0.024404	-0.007015	0.003212
246	1.257379	0.005000	1.722642	9.781228	-1.740946	-0.749248	-0.692513	0.896641	0.016043	0.000226	0.000373
247	1.262379	0.005000	1.687320	9.690367	-1.726560	-0.749138	-0.692075	0.896151	0.010509	-0.012468	-0.001108
248	1.267379	0.005000	1.687320	9.731520	-1.735715	-0.749029	-0.691636	0.895661	0.011315	-0.009915	0.009338
249	1.272379	0.005000	1.616827	9.770760	-1.664054	-0.748919	-0.691198	0.895171	0.016493	-0.010147	-0.004325
250	1.277379	0.005000	1.580956	9.810000	-1.675964	-0.748809	-0.690759	0.894681	0.021626	-0.006100	0.010501
251	1.282379	0.005000	1.719178	9.849240	-1.541433	-0.748700	-0.690320	0.894192	0.015882	0.000611	0.005803
252	1.287379	0.005000	1.531691	9.808669	-1.687320	-0.748590	-0.689882	0.893702	0.018336	-0.003317	0.007432
253	1.292379	0.005000	1.608228	9.848015	-1.648692	-0.748480	-0.689443	0.893212	0.013198	0.000464	0.005491
254	1.297379	0.005000	1.726560	9.779851	-1.720500	-0.748371	-0.689005	0.892722	0.016176	-0.003093	0.010088
255	1.302379	0.005000	1.692690	9.731520	-1.726560	-0.748261	-0.688566	0.892232	0.019028	-0.003117	0.004879
256	1.307379	0.005000	1.616220	9.763380	-1.773180	-0.748151	-0.688127	0.891742	0.015497	0.003462	-0.006414
257	1.312379	0.005000	1.746437	9.770760	-1.716879	-0.748042	-0.687689	0.891253	0.016255	-0.007946	0.004201
258	1.317379	0.005000	1.628292	9.849240	-1.569600	-0.747932	-0.687250	0.890763	0.015613	0.003090	0.007384
259	1.322379	0.005000	1.620125	9.759475	-1.673342	-0.747822	-0.686811	0.890273	0.014242	-0.006213	0.005495
260	1.327379	0.005000	1.631989	9.770760	-1.615898	-0.747615	-0.687004	0.890000	0.016447	-0.000296	-0.004596
261	1.332379	0.005000	1.629577	9.750023	-1.710292	-0.747286	-0.687991	0.890000	0.016298	-0.001760	0.004093
262	1.337379	0.005000	1.648080	9.731520	-1.648080	-0.746957	-0.688978	0.890000	0.011199	-0.014367	0.002523
263	1.342379	0.005000	1.670938	9.747902	-1.742942	-0.746629	-0.689965	0.890000	0.015276	-0.005806	-0.004889
264	1.347379	0.005000	1.662345	9.785025	-1.780065	-0.746300	-0.690952	0.890000	0.023782	-0.012958	-0.001393
265	1.352379	0.005000	1.714526	9.837206	-1.726560	-0.745971	-0.691939	0.890000	0.017210	-0.009587	-0.001927
266	1.357379	0.005000	1.668018	9.849240	-1.716591	-0.745642	-0.692926	0.890000	0.030159	-0.005726	0.001299
267	1.362379	0.005000	1.687320	9.833875	-1.750435	-0.745313	-0.693913	0.890000	0.023803	-0.008950	0.008847
268	1.367379	0.005000	1.648080	9.731520	-1.530360	-0.744984	-0.694900	0.890000	0.022634	-0.002508	-0.001093
269	1.372379	0.005000	1.605518	9.695602	-1.618807	-0.744655	-0.695886	0.890000	0.024731	-0.010070	0.009229
270	1.377379	0.005000	1.529442	9.732438	-1.650835	-0.744326	-0.696873	0.890000	0.021091	-0.007414	0.003434
271	1.382379	0.005000	1.605763	9.808974	-1.689372	-0.743997	-0.697860	0.890000	0.015985	-0.009474	0.001739
272	1.387379	0.005000	1.654887	9.738327	-1.729964	-0.743668	-0.698847	0.890000	0.018718	-0.008223	0.008663
273	1.392379	0.005000	1.625001	9.827692	-1.608840	-0.743339	-0.699834	0.890000	0.015796	-0.015257	0.008182
274	1.397379	0.005000	1.726560	9.739220	-1.640380	-0.743102	-0.700274	0.890408	0.023885	-0.013895	0.005153
275	1.402379	0.005000	1.638343	9.780497	-1.706795	-0.742882	-0.700603	0.890897	0.017098	-0.006111	0.001531
276	1.407379	0.005000	1.726560	9.797848	-1.672383	-0.742663	-0.700932	0.891387	0.027400	-0.010985	0.014678
277	1.412379	0.005000	1.687320	9.810000	-1.583695	-0.742444	-0.701261	0.891877	0.021342	-0.011926	0.002886
278	1.417379	0.005000	1.726560	9.871976	-1.687320	-0.742224	-0.701590	0.892367	0.021863	-0.005662	0.013829
279	1.422379	0.005000	1.687320	9.729674	-1.588297	-0.742005	-0.701919	0.892857	0.020651	-0.009874	0.009064
280	1.427379	0.005000	1.608840	9.752372	-1.645615	-0.741786	-0.702248	0.893347	0.015502	-0.003170	0.002566
281	1.432379	0.005000	1.703567	9.826247	-1.625087	-0.741566	-0.702577	0.893836	0.023673	-0.010073	0.005512
282	1.437379	0.005000	1.712526	9.731520	-1.690182	-0.741347	-0.702906	0.894326	0.018812	-0.010009	0.003754
283	1.442379	0.005000	1.675369	9.755421	-1.660031	-0.741128	-0.703235	0.894816	0.025851	-0.010796	-0.001201
284	1.447379	0.005000	1.667968	9.780972	-1.687320	-0.740908	-0.703564	0.895306	0.023532	-0.007955	0.004024
285	1.452379	0.005000	1.616479	9.731520	-1.734199	-0.740689	-0.703893	0.895796	0.021699	-0.007428	-0.003223
286	1.457379	0.005000	1.681994	9.715542	-1.760474	-0.740470	-0.704222	0.896286	0.019065	-0.012572	0.005650
287	1.462379	0.005000	1.644737	9.620486	-1.651423	-0.740372	-0.704235	0.896559	0.010401	-0.000940	-0.003370
288	1.467379	0.005000	1.686355	9.731520	-1.647115	-0.740701	-0.703138	0.896069	0.023235	-0.009026	-0.008898
289	1.472379	0.005000	1.648080	9.693702	-1.608840	-0.741030	-0.702041	0.895579	0.019586	-0.002012	0.005571
290	1.477379	0.005000	1.690704	9.731520	-1.572984	-0.741359	-0.700944	0.895088	0.014742	-0.000957	-0.001795
291	1.482379	0.005000	1.738026	9.703746	-1.620306	-0.741688	-0.699847	0.894598	0.019174	-0.014031	0.001216
292	1.487379	0.005000	1.616584	9.723776	-1.695064	-0.742017	-0.698750	0.894108	0.022919	0.001409	-0.001586
293	1.492379	0.005000	1.627779	9.721369	-1.658231	-0.742346	-0.697653	0.893618	0.018025	-0.004414	0.005697
294	1.497379	0.005000	1.702379	9.704370	-1.608840	-0.742675	-0.696556	0.893128	0.019369	-0.006287	0.007609
295	1.502379	0.005000	1.701819	9.760517	-1.619083	-0.743004	-0.695458	0.892638	0.010063	-0.012425	0.004468
296	1.507379	0.005000	1.648080	9.630516	-1.709844	-0.743333	-0.694361	0.892148	0.015214	-0.005647	0.003897
297	1.512379	0.005000	1.608840	9.712665	-1.765800	-0.743663	-0.693264	0.891658	0.016687	-0.008181	-0.009245
298	1.517379	0.005000	1.648080	9.752532	-1.784028	-0.743992	-0.692167	0.891168	0.008899	-0.018962	-0.001199
299	1.522379	0.005000	1.687320	9.724340	-1.789010	-0.744321	-0.691070	0.890678	0.000337	-0.009476	-0.002739
300	1.527379	0.005000	1.620246	9.835323	-1.648080	-0.744650	-0.689973	0.890188	0.017692	-0.014158	0.003250
301	1.532379	0.005000	1.592954	9.782437	-1.726560	-0.744708	-0.689620	0.890000	-0.000509	-0.014915	-0.001935
302	1.537379	0.005000	1.618461	9.800379	-1.628838	-0.744599	-0.689729	0.890000	-0.004962	-0.007713	0.000610
303	1.542379	0.005000	1.680002	9.756123	-1.758482	-0.744489	-0.689839	0.890000	0.012046	-0.008949	0.001210
304	1.547379	0.005000	1.643167	9.731520	-1.692233	-0.744380	-0.689949	0.890000	0.004618	-0.011070	0.000814
305	1.552379	0.005000	1.497058	9.767791	-1.793164	-0.744270	-0.690058	0.890000	0.001995	-0.014198	0.005966
306	1.557379	0.005000	1.609942	9.731520	-1.650285	-0.744160	-0.690168	0.890000	-0.003331	-0.010051	0.000577
307	1.562379	0.005000	1.611596	9.807244	-1.842902	-0.744051	-0.690278	0.890000	0.002985	-0.011943	0.002265
308	1.567379	0.005000	1.719057	9.742775	-1.765800	-0.743941	-0.690387	0.890000	-0.001625	-0.009907	0.001452
309	1.572379	0.005000	1.653819	9.837762	-1.765800	-0.743831	-0.690497	0.890000	-0.006207	-0.009009	-0.002492
310	1.577379	0.005000	1.662885	9.762615	-1.633275	-0.743722	-0.690607	0.890000	0.001888	-0.007997	-0.005080
311	1.582379	0.005000	1.658518	9.770760	-1.726560	-0.743612	-0.690717	0.890000	-0.003954	-0.017701	0.002437
312	1.587379	0.005000	1.623073	9.836736	-1.674816	-0.743503	-0.690826	0.890000	0.007771	-0.021299	-0.002189
313	1.592379	0.005000	1.648080	9.810000	-1.726560	-0.743393	-0.690936	0.890000	-0.005952	-0.020916	0.005699
314	1.597379	0.005000	1.642553	9.753903	-1.805040	-0.743283	-0.691043	0.889999	0.007795	-0.015137	-0.005790
315	1.602379	0.005000	1.608840	9.848090	-1.665975	-0.743063	-0.690714	0.889754	0.005700	-0.016794	0.005518
316	1.607379	0.005000	1.608840	9.749340	-1.608840	-0.742844	-0.690385	0.889509	0.005292	-0.010914	-0.001076
317	1.612379	0.005000	1.491120	9.810000	-1.585216	-0.742625	-0.690056	0.889264	0.014691	-0.015436	0.005367
318	1.617379	0.005000	1.622512	9.782656	-1.649856	-0.742406	-0.689727	0.889019	0.002762	-0.011419	0.002762
319	1.622379	0.005000	1.620104	9.647592	-1.659344	-0.742186	-0.689398	0.888774	0.005361	-0.013186	0.001142
320	1.627379	0.005000	1.618164	9.731520	-1.765800	-0.741967	-0.689069	0.888529	0.005378	-0.014564	-0.008038
321	1.632379	0.005000	1.601922	9.803082	-1.758882	-0.741748	-0.688740	0.888284	-0.005852	-0.014814	-0.000614
322	1.637379	0.005000	1.569600	9.770760	-1.726560	-0.741528	-0.688411	0.888040	0.006617	-0.019060	0.006632
323	1.642379	0.005000	1.608840	9.770760	-1.650637	-0.741309	-0.688082	0.887795	-0.006097	-0.002754	0.001233
324	1.647379	0.005000	1.687925	9.732125	-1.725350	-0.741090	-0.687753	0.887550	0.006306	-0.017038	0.003326
325	1.652379	0.005000	1.614214	9.808209	-1.648080	-0.740870	-0.687424	0.887305	0.020351	-0.016529	0.008035
326	1.657379	0.005000	1.648080	9.845080	-1.722400	-0.740651	-0.687095	0.887060	0.013446	-0.015228	0.004504
327	1.662379	0.005000	1.621145	9.855392	-1.693472	-0.740432	-0.686766	0.886815	0.009641	-0.015830	0.004374
328	1.667379	0.005000	1.656536	9.896936	-1.648080	-0.740386	-0.686697	0.886764	0.009134	-0.006926	-0.007590
329	1.672379	0.005000	1.648080	9.849240	-1.705554	-0.740605	-0.687026	0.887009	0.007483	-0.015577	-0.000152
330	1.677379	0.005000	1.608840	9.809510	-1.634674	-0.740824	-0.687355	0.887254	0.003400	-0.013990	-0.006380
331	1.682379	0.005000	1.672460	9.770760	-1.648080	-0.741044	-0.687684	0.887499	0.004593	-0.018847	-0.009142
332	1.687379	0.005000	1.713990	9.831970	-1.648080	-0.741263	-0.688014	0.887744	0.016856	-0.011317	0.002905
333	1.692379	0.005000	1.608174	9.790214	-1.628959	-0.741483	-0.688343	0.887989	0.008960	-0.010182	-0.001579
334	1.697379	0.005000	1.508735	9.731520	-1.604830	-0.741702	-0.688672	0.888234	0.016520	-0.016018	-0.001660
335	1.702379	0.005000	1.512730	9.746732	-1.656895	-0.741921	-0.689001	0.888479	0.007660	-0.006995	0.004551
336	1.707379	0.005000	1.648080	9.705549	-1.622109	-0.742141	-0.689330	0.888724	0.018687	-0.005993	0.001187
337	1.712379	0.005000	1.637225	9.742375	-1.658935	-0.742360	-0.689659	0.888969	0.008200	-0.007532	0.002636
338	1.717379	0.005000	1.617644	9.810000	-1.587208	-0.742580	-0.689988	0.889214	0.009619	-0.002925	0.003484
339	1.722379	0.005000	1.569600	9.725016	-1.608840	-0.742799	-0.690318	0.889459	0.020652	-0.011483	0.013575
340	1.727379	0.005000	1.565092	9.766252	-1.569600	-0.743019	-0.690647	0.889704	0.013824	-0.008955	-0.007630
341	1.732379	0.005000	1.573887	9.731520	-1.606697	-0.743238	-0.690976	0.889949	0.010391	-0.013750	-0.001359
342	1.737379	0.005000	1.647883	9.731913	-1.569797	-0.743457	-0.691045	0.889903	0.006918	-0.009562	0.000367
343	1.742379	0.005000	1.682911	9.772965	-1.571805	-0.743677	-0.691045	0.889781	0.014170	-0.008467	0.003597
344	1.747379	0.005000	1.648080	9.810000	-1.625238	-0.743896	-0.691045	0.889658	0.013305	-0.006282	0.001685
345	1.752379	0.005000	1.654646	9.881914	-1.667623	-0.744115	-0.691045	0.889536	0.014147	0.000000	-0.005347
346	1.757379	0.005000	1.617705	9.888480	-1.739206	-0.744335	-0.691045	0.889413	0.022956	-0.005941	-0.001491
347	1.762379	0.005000	1.704728	9.849240	-1.619756	-0.744554	-0.691045	0.889291	0.012198	-0.007653	-0.004305
348	1.767379	0.005000	1.648080	9.836660	-1.699900	-0.744773	-0.691045	0.889168	0.009493	-0.012879	-0.007358
349	1.772379	0.005000	1.608840	9.833976	-1.717849	-0.744992	-0.691045	0.889046	0.016287	-0.013892	0.002032
350	1.777379	0.005000	1.630404	9.806113	-1.604953	-0.745212	-0.691045	0.888923	0.014751	-0.015415	-0.006922
351	1.782379	0.005000	1.589901	9.750913	-1.570054	-0.745431	-0.691045	0.888801	0.019346	-0.009674	0.006719
352	1.787379	0.005000	1.626049	9.770760	-1.682497	-0.745650	-0.691045	0.888678	0.018326	-0.008477	0.008409
353	1.792379	0.005000	1.617916	9.810000	-1.672238	-0.745870	-0.691045	0.888556	0.015127	-0.011463	0.000161
354	1.797379	0.005000	1.556071	9.731520	-1.648080	-0.746089	-0.691045	0.888434	0.018401	-0.011440	-0.002823
355	1.802379	0.005000	1.744917	9.810000	-1.697762	-0.746289	-0.691104	0.888355	0.023739	-0.004786	0.004293
356	1.807379	0.005000	1.670529	9.810000	-1.687320	-0.746398	-0.691433	0.888477	0.013602	-0.011145	0.004429
357	1.812379	0.005000	1.621022	9.770760	-1.687320	-0.746508	-0.691762	0.888600	0.021243	-0.015581	0.006482
358	1.817379	0.005000	1.643981	9.735619	-1.683221	-0.746618	-0.692091	0.888722	0.022763	-0.010786	0.010265
359	1.822379	0.005000	1.603650	9.695740	-1.646350	-0.746727	-0.692420	0.888845	0.018310	-0.000327	0.001255
360	1.827379	0.005000	1.568269	9.809334	-1.763138	-0.746837	-0.692749	0.888967	0.024158	-0.014204	0.004836
361	1.832379	0.005000	1.611458	9.810000	-1.650698	-0.746946	-0.693078	0.889090	0.013913	-0.012351	-0.004696
362	1.837379	0.005000	1.643103	9.765783	-1.697274	-0.747056	-0.693406	0.889212	0.016415	-0.006814	0.001848
363	1.842379	0.005000	1.680354	9.842274	-1.655046	-0.747166	-0.693735	0.889335	0.016795	-0.013640	-0.001424
364	1.847379	0.005000	1.607126	9.819381	-1.765800	-0.747275	-0.694064	0.889457	0.020081	-0.007611	0.005752
365	1.852379	0.005000	1.580925	9.754170	-1.765800	-0.747385	-0.694393	0.889580	0.022137	-0.009316	-0.002757
366	1.857379	0.005000	1.648080	9.731520	-1.714786	-0.747494	-0.694722	0.889702	0.009925	-0.006969	-0.002468
367	1.862379	0.005000	1.546319	9.715561	-1.616162	-0.747604	-0.695051	0.889825	0.018131	-0.008409	0.000426
368	1.867379	0.005000	1.548450	9.725398	-1.747710	-0.747714	-0.695380	0.889947	0.012064	-0.010154	-0.003285
369	1.872379	0.005000	1.688591	9.692280	-1.765800	-0.748010	-0.695771	0.891322	0.010753	-0.017337	-0.012247
370	1.877379	0.005000	1.608840	9.725871	-1.749005	-0.748449	-0.696210	0.893649	0.016167	-0.011608	0.007302
371	1.882379	0.005000	1.687320	9.810000	-1.701993	-0.748888	-0.696649	0.895976	0.009164	-0.003978	-0.005461
372	1.887379	0.005000	1.635638	9.692280	-1.726560	-0.749326	-0.697087	0.898302	0.014862	-0.011457	-0.004302
373	1.892379	0.005000	1.628024	9.780788	-1.716532	-0.749765	-0.697526	0.900629	0.009902	-0.012814	-0.002072
374	1.897379	0.005000	1.616924	9.770760	-1.679236	-0.750203	-0.697965	0.902955	-0.003227	-0.012054	0.006024
375	1.902379	0.005000	1.648080	9.804322	-1.726560	-0.750642	-0.698403	0.905282	0.009045	-0.014659	0.008547
376	1.907379	0.005000	1.619913	9.699662	-1.526669	-0.751081	-0.698842	0.907608	0.008989	-0.012855	-0.006595
377	1.912379	0.005000	1.648080	9.654371	-1.570931	-0.751519	-0.699281	0.909935	0.011139	-0.014961	-0.001060
378	1.917379	0.005000	1.725335	9.769535	-1.570212	-0.751958	-0.699720	0.912262	0.005245	-0.004167	-0.000092
379	1.922379	0.005000	1.762770	9.888480	-1.648080	-0.752396	-0.700158	0.914588	0.018324	-0.011902	-0.002049
380	1.927379	0.005000	1.702242	9.770760	-1.755852	-0.752835	-0.700597	0.916915	0.016340	-0.012973	0.004282
381	1.932379	0.005000	1.719180	9.770760	-1.648080	-0.753274	-0.701036	0.919241	0.000789	-0.007180	0.007093
382	1.937379	0.005000	1.687320	9.780084	-1.855548	-0.753712	-0.701474	0.921568	0.011470	-0.019269	0.007729
383	1.942379	0.005000	1.703083	9.849240	-1.761775	-0.755096	-0.701388	0.921315	0.017105	-0.006434	0.000927
384	1.947379	0.005000	1.608840	9.823682	-1.687320	-0.756523	-0.701278	0.920948	0.021290	-0.010541	0.001423
385	1.952379	0.005000	1.710469	9.708371	-1.680262	-0.757949	-0.701168	0.920580	0.006997	-0.011221	0.000148
386	1.957379	0.005000	1.606178	9.752471	-1.669031	-0.759375	-0.701059	0.920213	0.010010	-0.013132	-0.004589
387	1.962379	0.005000	1.608840	9.791206	-1.704461	-0.760801	-0.700949	0.919845	0.008550	-0.017518	0.007427
388	1.967379	0.005000	1.709710	9.810000	-1.765800	-0.762227	-0.700839	0.919478	0.009653	-0.005697	-0.000561
389	1.972379	0.005000	1.672882	9.799635	-1.687320	-0.763654	-0.700729	0.919110	0.009169	-0.014708	0.005391
390	1.977379	0.005000	1.648080	9.876121	-1.699679	-0.765080	-0.700620	0.918742	0.003832	-0.009982	0.002534
391	1.982379	0.005000	1.637991	9.721431	-1.707499	-0.766506	-0.700510	0.918375	0.012621	-0.011091	0.005593
392	1.987379	0.005000	1.687320	9.801952	-1.695368	-0.767932	-0.700400	0.918007	0.006248	-0.008776	0.002819
393	1.992379	0.005000	1.648080	9.849240	-1.832802	-0.769359	-0.700291	0.917640	0.005866	-0.001043	-0.006484
394	1.997379	0.005000	1.687320	9.845488	-1.691072	-0.770785	-0.700181	0.917272	0.013837	-0.009202	0.006294
395	2.002379	0.005000	1.649458	9.768004	-1.649458	-0.772211	-0.700071	0.916905	0.019545	-0.014966	0.007027
396	2.007379	0.005000	1.610867	9.730506	-1.725546	-0.772360	-0.699691	0.915933	0.022315	-0.019565	0.010490
397	2.012379	0.005000	1.497060	9.731520	-1.799100	-0.770167	-0.698813	0.913851	0.013449	-0.015714	0.013122
398	2.017379	0.005000	1.603453	9.726133	-1.838893	-0.767974	-0.697936	0.911769	0.014509	-0.009925	0.002823
399	2.022379	0.005000	1.679989	9.802669	-1.790379	-0.765781	-0.697059	0.909687	0.010892	-0.013133	0.007636
400	2.027379	0.005000	1.716823	9.741257	-1.736297	-0.763588	-0.696182	0.907606	0.010965	-0.010554	-0.000294
401	2.032379	0.005000	1.659762	9.703962	-1.793358	-0.761395	-0.695304	0.905524	0.011453	-0.010385	0.001986
402	2.037379	0.005000	1.608840	9.692280	-1.690366	-0.759202	-0.694427	0.903442	0.010170	-0.007304	-0.000879
403	2.042379	0.005000	1.726560	9.770760	-1.608840	-0.757008	-0.693550	0.901360	0.017818	-0.012014	0.003360
404	2.047379	0.005000	1.629631	9.729178	-1.668871	-0.754815	-0.692673	0.899279	0.013880	-0.012134	0.003293
405	2.052379	0.005000	1.648080	9.750375	-1.706175	-0.752622	-0.691795	0.897197	0.014067	-0.008767	-0.000470
406	2.057379	0.005000	1.592397	9.826443	-1.759446	-0.750429	-0.690918	0.895115	0.010380	-0.006035	0.004913
407	2.062379	0.005000	1.573336	9.810000	-1.765800	-0.748236	-0.690041	0.893034	0.006723	-0.002447	-0.009160
408	2.067379	0.005000	1.635990	9.794941	-1.765800	-0.746043	-0.689164	0.890952	0.021513	-0.017490	-0.003653
409	2.072379	0.005000	1.579747	9.868187	-1.805040	-0.743850	-0.688286	0.888870	0.011620	-0.010859	-0.000445
410	2.077379	0.005000	1.655812	9.841508	-1.757487	-0.743691	-0.688385	0.888606	0.012529	-0.018788	0.008932
411	2.082379	0.005000	1.636644	9.725802	-1.675884	-0.744239	-0.688824	0.888973	0.009972	-0.014245	-0.002642
412	2.087379	0.005000	1.576364	9.731520	-1.658227	-0.744787	-0.689263	0.889340	0.011701	-0.005815	0.001481
413	2.092379	0.005000	1.607418	9.770760	-1.765800	-0.745335	-0.689701	0.889708	0.008554	-0.013435	0.005351
414	2.097379	0.005000	1.607861	9.847281	-1.727539	-0.745884	-0.690140	0.890075	0.006951	-0.009716	-0.002575
415	2.102379	0.005000	1.648080	9.810000	-1.648080	-0.746432	-0.690579	0.890442	0.014977	-0.012225	0.001731
416	2.107379	0.005000	1.546344	9.770760	-1.653408	-0.746980	-0.691017	0.890810	0.020622	-0.018258	-0.001231
417	2.112379	0.005000	1.601186	9.770760	-1.726560	-0.747528	-0.691456	0.891177	0.011973	-0.011329	-0.007864
418	2.117379	0.005000	1.608840	9.839564	-1.696996	-0.748077	-0.691894	0.891544	0.024987	-0.010586	0.003893
419	2.122379	0.005000	1.593781	9.782850	-1.687320	-0.748625	-0.692333	0.891912	0.011906	-0.012208	-0.004875
420	2.127379	0.005000	1.636908	9.810000	-1.662114	-0.749173	-0.692772	0.892279	0.022880	-0.006881	0.004350
421	2.132379	0.005000	1.625283	9.816354	-1.782243	-0.749721	-0.693210	0.892646	0.015161	-0.007551	0.000065
422	2.137379	0.005000	1.590452	9.789148	-1.645615	-0.750270	-0.693649	0.893014	0.026574	-0.013737	-0.002229
423	2.142379	0.005000	1.708118	9.773117	-1.548802	-0.750689	-0.693973	0.893269	0.018432	-0.015572	0.008047
424	2.147379	0.005000	1.615466	9.754453	-1.671013	-0.750250	-0.693534	0.892779	0.006571	-0.011153	0.003652
425	2.152379	0.005000	1.622925	9.759691	-1.597771	-0.749811	-0.693095	0.892289	0.018477	-0.017248	0.005955
426	2.157379	0.005000	1.636403	9.821677	-1.659757	-0.749373	-0.692657	0.891800	0.011282	-0.014637	0.004125
427	2.162379	0.005000	1.628838	9.869238	-1.677699	-0.748934	-0.692218	0.891310	0.018342	-0.009066	0.004387
428	2.167379	0.005000	1.544997	9.699598	-1.680002	-0.748495	-0.691779	0.890820	0.012296	-0.011214	0.002367
429	2.172379	0.005000	1.638255	9.726607	-1.692233	-0.748057	-0.691341	0.890330	0.015912	-0.006973	0.000752
430	2.177379	0.005000	1.639173	9.767791	-1.768769	-0.747618	-0.690902	0.889841	0.010645	-0.017790	0.000746
431	2.182379	0.005000	1.608840	9.730969	-1.805040	-0.747180	-0.690464	0.889351	0.016189	-0.002759	0.001529
432	2.187379	0.005000	1.646250	9.804509	-1.805040	-0.746741	-0.690025	0.888861	0.016073	-0.015991	0.001642
433	2.192379	0.005000	1.608840	9.802409	-1.734151	-0.746302	-0.689586	0.888371	0.010133	-0.011004	-0.001166
434	2.197379	0.005000	1.602713	9.843113	-1.726560	-0.745864	-0.689148	0.887882	0.014052	-0.001142	-0.003669
435	2.202379	0.005000	1.671030	9.864045	-1.625130	-0.745425	-0.688709	0.887392	0.017833	-0.011401	0.013128
436	2.207379	0.005000	1.679393	9.810000	-1.569600	-0.744986	-0.688270	0.886902	0.018824	-0.009280	0.001377
437	2.212379	0.005000	1.530360	9.758256	-1.674816	-0.745118	-0.688402	0.886922	0.007820	-0.007630	0.002441
438	2.217379	0.005000	1.593928	9.824912	-1.687320	-0.745777	-0.689061	0.887412	0.013642	-0.009977	-0.002825
439	2.222379	0.005000	1.648080	9.792876	-1.782924	-0.746435	-0.689719	0.887902	0.016694	-0.010892	-0.000409
440	2.227379	0.005000	1.549628	9.750788	-1.746532	-0.747093	-0.690377	0.888392	0.012359	-0.018179	-0.003079
441	2.232379	0.005000	1.548180	9.710100	-1.651680	-0.747751	-0.691035	0.888882	0.010431	-0.012787	0.006341
442	2.237379	0.005000	1.553984	9.786376	-1.655689	-0.748410	-0.691694	0.889372	0.021332	-0.014205	0.008067
443	2.242379	0.005000	1.569600	9.849240	-1.726560	-0.749068	-0.692352	0.889862	0.016467	-0.013727	-0.003367
444	2.247379	0.005000	1.513387	9.810000	-1.698454	-0.749726	-0.693010	0.890352	0.008936	-0.014678	0.003198
445	2.252379	0.005000	1.599991	9.849240	-1.630381	-0.750384	-0.693668	0.890842	0.007660	-0.005187	-0.008241
446	2.257379	0.005000	1.615286	9.770760	-1.582491	-0.751042	-0.694326	0.891332	0.024055	-0.005884	0.003438
447	2.262379	0.005000	1.639999	9.774800	-1.683280	-0.751701	-0.694985	0.891822	0.021973	-0.015467	0.005594
448	2.267379	0.005000	1.534553	9.774953	-1.575890	-0.752359	-0.695643	0.892312	0.011862	-0.004990	0.001935
449	2.272379	0.005000	1.686685	9.810318	-1.726242	-0.753017	-0.696301	0.892802	0.019989	0.000930	0.001044
450	2.277379	0.005000	1.611105	9.731520	-1.689585	-0.753675	-0.696959	0.893292	0.014367	0.001198	-0.003748
451	2.282379	0.005000	1.608840	9.731520	-1.721890	-0.753329	-0.696312	0.893109	0.008247	-0.004275	0.002341
452	2.287379	0.005000	1.608840	9.731520	-1.733564	-0.752891	-0.695545	0.892864	0.008805	-0.013524	0.004887
453	2.292379	0.005000	1.657459	9.761381	-1.657459	-0.752452	-0.694777	0.892619	0.006359	-0.006462	-0.002130
454	2.297379	0.005000	1.687320	9.849240	-1.592473	-0.752014	-0.694009	0.892374	0.020724	-0.011401	0.015495
455	2.302379	0.005000	1.622690	9.770760	-1.673470	-0.751575	-0.693242	0.892129	0.005221	-0.000294	0.004231
456	2.307379	0.005000	1.718908	9.754966	-1.773452	-0.751136	-0.692474	0.891884	0.018805	0.002778	-0.001125
457	2.312379	0.005000	1.708356	9.749724	-1.702691	-0.750698	-0.691707	0.891640	0.016900	-0.010956	-0.004214
458	2.317379	0.005000	1.707696	9.750384	-1.746936	-0.750259	-0.690939	0.891395	0.019245	-0.011156	-0.005726
459	2.322379	0.005000	1.693197	9.787442	-1.721632	-0.749821	-0.690171	0.891150	0.016815	-0.007220	0.003527
460	2.327379	0.005000	1.608840	9.785029	-1.583869	-0.749382	-0.689404	0.890905	0.014625	-0.002931	0.002995
461	2.332379	0.005000	1.711705	9.797807	-1.633225	-0.748943	-0.688636	0.890660	0.011305	-0.007947	-0.000924
462	2.337379	0.005000	1.667922	9.849240	-1.687320	-0.748505	-0.687868	0.890415	0.008910	-0.000022	-0.003285
463	2.342379	0.005000	1.694834	9.810000	-1.749103	-0.748066	-0.687101	0.890170	0.009372	-0.014464	0.001742
464	2.347379	0.005000	1.692891	9.770760	-1.760229	-0.747694	-0.686667	0.889963	0.015649	-0.013067	-0.004121
465	2.352379	0.005000	1.641772	9.770760	-1.756338	-0.747475	-0.686996	0.889840	0.015927	-0.010433	-0.008191
466	2.357379	0.005000	1.611259	9.732730	-1.686110	-0.747255	-0.687326	0.889718	0.017279	-0.010049	0.007110
467	2.362379	0.005000	1.725380	9.732700	-1.686140	-0.747036	-0.687655	0.889595	0.015296	-0.010411	0.003665
468	2.367379	0.005000	1.644941	9.737797	-1.641803	-0.746817	-0.687984	0.889473	0.001126	-0.013341	0.009848
469	2.372379	0.005000	1.569600	9.770760	-1.760245	-0.746597	-0.688313	0.889350	0.007488	-0.011257	0.001733
470	2.377379	0.005000	1.585242	9.762894	-1.781442	-0.746378	-0.688642	0.889227	0.001701	-0.009500	-0.001061
471	2.382379	0.005000	1.687320	9.712091	-1.795134	-0.746158	-0.688971	0.889105	0.011202	-0.020782	0.000613
472	2.387379	0.005000	1.621017	9.731520	-1.738737	-0.745939	-0.689300	0.888982	0.008592	-0.015577	0.000856
473	2.392379	0.005000	1.608840	9.745784	-1.612391	-0.745719	-0.689630	0.888860	0.006722	-0.019395	0.001069
474	2.397379	0.005000	1.653974	9.754087	-1.709887	-0.745500	-0.689959	0.888737	0.010042	-0.015458	-0.004751
475	2.402379	0.005000	1.548970	9.752150	-1.691360	-0.745281	-0.690288	0.888615	0.007443	-0.018340	0.001133
476	2.407379	0.005000	1.648080	9.734322	-1.765800	-0.745061	-0.690617	0.888492	0.008096	-0.010724	-0.002560
477	2.412379	0.005000	1.615920	9.826080	-1.765800	-0.744842	-0.690946	0.888370	0.014457	-0.009162	-0.011199
478	2.417379	0.005000	1.622706	9.810000	-1.777309	-0.744699	-0.691045	0.888590	0.007817	-0.026019	-0.006241
479	2.422379	0.005000	1.620292	9.731520	-1.742896	-0.744590	-0.691045	0.888957	0.009742	-0.016829	0.005437
480	2.427379	0.005000	1.629065	9.731520	-1.638572	-0.744480	-0.691045	0.889325	0.016149	-0.017192	0.005656
481	2.432379	0.005000	1.680219	9.731520	-1.640979	-0.744370	-0.691045	0.889692	0.011560	-0.014251	0.007328
482	2.437379	0.005000	1.637884	9.775858	-1.608840	-0.744261	-0.691045	0.890060	0.021999	-0.012643	0.005767
483	2.442379	0.005000	1.611581	9.849240	-1.572341	-0.744151	-0.691045	0.890427	0.019454	-0.020370	0.006826
484	2.447379	0.005000	1.648867	9.886120	-1.648867	-0.744042	-0.691045	0.890794	0.016219	-0.010648	0.000516
485	2.452379	0.005000	1.612055	9.695495	-1.649688	-0.743932	-0.691045	0.891162	0.006868	-0.011915	0.005040
486	2.457379	0.005000	1.612818	9.731520	-1.691298	-0.743822	-0.691045	0.891529	0.010375	-0.009396	0.005115
487	2.462379	0.005000	1.708654	9.704217	-1.687320	-0.743713	-0.691045	0.891896	0.015198	-0.015733	0.009567
488	2.467379	0.005000	1.617115	9.762485	-1.625389	-0.743603	-0.691045	0.892264	0.015200	-0.015051	-0.001046
489	2.472379	0.005000	1.610876	9.781079	-1.637761	-0.743493	-0.691045	0.892631	0.028395	-0.010894	-0.009110
490	2.477379	0.005000	1.569600	9.731520	-1.753229	-0.743384	-0.691045	0.892998	0.028735	-0.011143	0.000121
491	2.482379	0.005000	1.682559	9.795333	-1.662747	-0.743264	-0.691055	0.893289	0.019865	-0.011920	0.000619
492	2.487379	0.005000	1.665160	9.837241	-1.726560	-0.743045	-0.691164	0.892799	0.033143	-0.011847	-0.002228
493	2.492379	0.005000	1.569600	9.850434	-1.764606	-0.742826	-0.691274	0.892309	0.020762	-0.003612	0.001833
494	2.497379	0.005000	1.608840	9.849240	-1.765800	-0.742606	-0.691384	0.891819	0.014218	-0.005610	0.001876
495	2.502379	0.005000	1.608840	9.833379	-1.765800	-0.742387	-0.691493	0.891329	0.012148	-0.006231	0.005215
496	2.507379	0.005000	1.648080	9.769643	-1.790470	-0.742167	-0.691603	0.890839	0.009077	-0.003947	0.001918
497	2.512379	0.005000	1.636704	9.720144	-1.586089	-0.741948	-0.691713	0.890350	0.010375	-0.018645	-0.000908
498	2.517379	0.005000	1.687320	9.791812	-1.675363	-0.741729	-0.691822	0.889860	0.004175	-0.009090	-0.005801
499	2.522379	0.005000	1.712431	9.653040	-1.823087	-0.741509	-0.691932	0.889370	0.006180	-0.014030	-0.001269
500	2.527379	0.005000	1.682576	9.731520	-1.726560	-0.741290	-0.692042	0.888880	0.007195	-0.010314	-0.004789
501	2.532379	0.005000	1.684993	9.736174	-1.726560	-0.741070	-0.692151	0.888390	0.004021	-0.012065	-0.002597
502	2.537379	0.005000	1.726560	9.810000	-1.687320	-0.740851	-0.692261	0.887900	0.016549	-0.018215	0.000083
503	2.542379	0.005000	1.652074	9.735514	-1.650077	-0.740632	-0.692371	0.887410	0.009446	-0.012838	-0.003383
504	2.547379	0.005000	1.722596	9.770760	-1.687320	-0.740412	-0.692480	0.886920	0.020214	-0.012601	-0.005044
505	2.552379	0.005000	1.648080	9.665626	-1.621426	-0.740405	-0.692537	0.887023	0.010671	-0.009863	-0.000770
506	2.557379	0.005000	1.687320	9.661353	-1.611167	-0.740625	-0.692537	0.887758	0.006748	-0.010647	-0.003754
507	2.562379	0.005000	1.580204	9.613800	-1.726560	-0.740844	-0.692537	0.888492	0.008445	-0.013361	0.007698
508	2.567379	0.005000	1.608840	9.731520	-1.765800	-0.741063	-0.692537	0.889227	0.005982	-0.008044	-0.000129
509	2.572379	0.005000	1.672239	9.740599	-1.780881	-0.741282	-0.692537	0.889962	0.008389	-0.014057	0.002280
510	2.577379	0.005000	1.687320	9.787785	-1.765800	-0.741502	-0.692537	0.890696	0.005753	-0.010255	0.000352
511	2.582379	0.005000	1.687320	9.790196	-1.667149	-0.741721	-0.692537	0.891431	0.012950	-0.012102	-0.004373
512	2.587379	0.005000	1.608840	9.749380	-1.726560	-0.741940	-0.692537	0.892166	0.006795	-0.012142	0.002672
513	2.592379	0.005000	1.608840	9.716072	-1.781248	-0.742160	-0.692537	0.892901	0.013601	-0.011815	0.000409
514	2.597379	0.005000	1.660636	9.784102	-1.805040	-0.742379	-0.692537	0.893635	0.002685	-0.017414	0.003807
515	2.602379	0.005000	1.636984	9.810000	-1.687320	-0.742598	-0.692537	0.894370	0.008219	-0.016485	-0.003057
516	2.607379	0.005000	1.657126	9.701326	-1.684264	-0.742818	-0.692537	0.895105	0.010512	-0.011402	0.006669
517	2.612379	0.005000	1.680571	9.803251	-1.719811	-0.743037	-0.692537	0.895839	0.000389	-0.009920	-0.002470
518	2.617379	0.005000	1.569600	9.722854	-1.722227	-0.743256	-0.692537	0.896574	0.003363	-0.013497	0.006051
519	2.622379	0.005000	1.571988	9.773148	-1.613617	-0.744146	-0.693208	0.898165	0.003150	-0.014293	0.002547
520	2.627379	0.005000	1.726515	9.770775	-1.608870	-0.745133	-0.693975	0.899879	-0.002670	-0.004074	0.000690
521	2.632379	0.005000	1.799161	9.808040	-1.567640	-0.746120	-0.694743	0.901593	0.013562	-0.008839	-0.003495
522	2.637379	0.005000	1.735213	9.770760	-1.530360	-0.747107	-0.695510	0.903307	0.014260	-0.012428	-0.006367
523	2.642379	0.005000	1.615161	9.777081	-1.641759	-0.748094	-0.696278	0.905022	0.009182	-0.015379	0.009244
524	2.647379	0.005000	1.639353	9.801273	-1.635020	-0.749080	-0.697046	0.906736	0.012152	-0.013074	0.006960
525	2.652379	0.005000	1.648080	9.770760	-1.705218	-0.750067	-0.697813	0.908450	0.015025	-0.013295	-0.003333
526	2.657379	0.005000	1.674235	9.718450	-1.661165	-0.751054	-0.698581	0.910165	0.015734	-0.010277	0.008709
527	2.662379	0.005000	1.648080	9.794691	-1.726560	-0.752041	-0.699349	0.911879	0.009787	-0.006421	-0.004265
528	2.667379	0.005000	1.573963	9.792562	-1.661155	-0.753028	-0.700116	0.913593	0.017741	-0.005636	-0.003127
529	2.672379	0.005000	1.589450	9.770760	-1.726101	-0.754015	-0.700884	0.915307	0.010886	-0.008892	0.003073
530	2.677379	0.005000	1.582721	9.844907	-1.748346	-0.755001	-0.701651	0.917022	0.017323	-0.005105	-0.004144
531	2.682379	0.005000	1.569600	9.849240	-1.663124	-0.755988	-0.702419	0.918736	0.014661	-0.002646	0.000204
532	2.687379	0.005000	1.595498	9.862189	-1.661422	-0.756658	-0.702956	0.919550	0.020159	-0.005372	0.000649
533	2.692379	0.005000	1.694500	9.867107	-1.630213	-0.756439	-0.702847	0.917836	0.020170	-0.008997	0.000759
534	2.697379	0.005000	1.591565	9.796673	-1.652769	-0.756220	-0.702737	0.916121	0.010867	-0.005353	-0.000705
535	2.702379	0.005000	1.569600	9.810000	-1.575936	-0.756000	-0.702627	0.914407	0.016397	-0.013437	-0.006614
536	2.707379	0.005000	1.632402	9.810000	-1.726560	-0.755781	-0.702518	0.912693	0.003668	-0.005355	0.000908
537	2.712379	0.005000	1.606865	9.845290	-1.808990	-0.755562	-0.702408	0.910978	0.008339	-0.005574	-0.001367
538	2.717379	0.005000	1.608416	9.770760	-1.883520	-0.755343	-0.702299	0.909264	0.011561	-0.012400	0.007487
539	2.722379	0.005000	1.537479	9.807627	-1.809786	-0.755123	-0.702189	0.907550	0.020152	-0.010078	-0.000605
540	2.727379	0.005000	1.608840	9.839770	-1.740764	-0.754904	-0.702079	0.905835	0.023048	-0.010918	0.003699
541	2.732379	0.005000	1.673852	9.823468	-1.733294	-0.754685	-0.701970	0.904121	0.010168	-0.009143	0.003369
542	2.737379	0.005000	1.657111	9.779791	-1.756769	-0.754465	-0.701860	0.902407	0.009684	-0.009068	-0.001673
543	2.742379	0.005000	1.619925	9.731520	-1.698405	-0.754246	-0.701750	0.900693	0.009879	-0.013345	-0.000615
544	2.747379	0.005000	1.608840	9.770760	-1.713072	-0.754027	-0.701641	0.898978	0.005031	-0.000952	0.002462
545	2.752379	0.005000	1.663513	9.731520	-1.648080	-0.753807	-0.701531	0.897264	0.007523	-0.019685	0.005117
546	2.757379	0.005000	1.651631	9.774311	-1.790746	-0.753230	-0.701207	0.896587	0.003049	-0.011778	0.007038
547	2.762379	0.005000	1.687320	9.790773	-1.708120	-0.752463	-0.700768	0.896465	0.003445	-0.011575	0.008706
548	2.767379	0.005000	1.709520	9.775920	-1.586640	-0.751695	-0.700329	0.896342	0.015879	-0.003591	0.007258
549	2.772379	0.005000	1.696729	9.667955	-1.608840	-0.750927	-0.699890	0.896220	0.033764	-0.003747	-0.002952
550	2.777379	0.005000	1.648080	9.704967	-1.648080	-0.750159	-0.699451	0.896097	0.015546	-0.006891	0.011928
551	2.782379	0.005000	1.669319	9.760141	-1.755181	-0.749391	-0.699012	0.895974	-0.007636	-0.018631	0.000000
552	2.787379	0.005000	1.656409	9.748177	-1.852609	-0.748623	-0.698574	0.895852	-0.019887	-0.015988	0.001847
553	2.792379	0.005000	1.615148	9.784768	-1.817656	-0.747855	-0.698135	0.895729	-0.017206	-0.020219	0.003092
554	2.797379	0.005000	1.679362	9.774739	-1.687320	-0.747087	-0.697696	0.895607	-0.000618	-0.016178	0.002519
555	2.802379	0.005000	1.690443	9.693842	-1.688882	-0.746319	-0.697257	0.895484	0.019651	-0.017002	-0.002749
556	2.807379	0.005000	1.765800	9.731520	-1.648845	-0.745552	-0.696818	0.895362	0.025908	-0.010006	-0.005551
557	2.812379	0.005000	1.732066	9.728767	-1.684567	-0.744784	-0.696379	0.895239	0.023293	-0.015912	-0.005376
558	2.817379	0.005000	1.648080	9.766029	-1.648080	-0.744016	-0.695940	0.895117	0.002108	-0.012562	-0.006522
559	2.822379	0.005000	1.687320	9.770760	-1.694455	-0.743294	-0.695496	0.894971	-0.002413	-0.014857	-0.008419
560	2.827379	0.005000	1.687320	9.761681	-1.726560	-0.743514	-0.694948	0.894359	-0.010931	-0.014614	0.004449
561	2.832379	0.005000	1.620333	9.932480	-1.761040	-0.743733	-0.694400	0.893747	-0.015144	-0.013755	-0.005205
562	2.837379	0.005000	1.660446	9.770760	-1.765800	-0.743952	-0.693852	0.893135	-0.007129	-0.017052	0.001233
563	2.842379	0.005000	1.585446	9.794154	-1.726560	-0.744172	-0.693303	0.892522	-0.000609	-0.007944	-0.006115
564	2.847379	0.005000	1.569600	9.752970	-1.687320	-0.744391	-0.692755	0.891910	0.010156	-0.010226	-0.005698
565	2.852379	0.005000	1.587475	9.790962	-1.687320	-0.744610	-0.692207	0.891298	0.006453	-0.001882	0.005566
566	2.857379	0.005000	1.704415	9.854290	-1.648080	-0.744829	-0.691659	0.890686	-0.003821	-0.013036	0.004572
567	2.862379	0.005000	1.648080	9.800125	-1.687320	-0.745049	-0.691110	0.890073	0.002345	-0.023782	0.008429
568	2.867379	0.005000	1.687320	9.836654	-1.674734	-0.745268	-0.690562	0.889461	-0.000978	-0.018563	-0.009025
569	2.872379	0.005000	1.666659	9.750099	-1.676990	-0.745487	-0.690014	0.888849	0.001466	-0.016513	-0.003555
570	2.877379	0.005000	1.522070	9.692280	-1.639790	-0.745707	-0.689466	0.888237	0.010041	-0.009746	-0.003809
571	2.882379	0.005000	1.660022	9.737491	-1.548273	-0.745926	-0.688917	0.887624	0.012298	-0.013742	-0.004797
572	2.887379	0.005000	1.722993	9.731520	-1.573167	-0.746145	-0.688369	0.887012	0.011075	-0.013921	0.006348
573	2.892379	0.005000	1.605594	9.731520	-1.571223	-0.746269	-0.688203	0.886667	0.016345	-0.014801	-0.007182
574	2.897379	0.005000	1.491891	9.769989	-1.724246	-0.746269	-0.688532	0.886667	0.012322	-0.011842	-0.001763
575	2.902379	0.005000	1.533085	9.736970	-1.726560	-0.746269	-0.688861	0.886667	0.009817	-0.004090	-0.000627
576	2.907379	0.005000	1.598556	9.736662	-1.682178	-0.746269	-0.689190	0.886667	0.013063	-0.020699	-0.000329
577	2.912379	0.005000	1.648080	9.755845	-1.726560	-0.746269	-0.689519	0.886667	0.010866	-0.010621	0.002585
578	2.917379	0.005000	1.608840	9.741012	-1.737323	-0.746269	-0.689848	0.886667	0.018025	-0.003345	0.005729
579	2.922379	0.005000	1.585027	9.653040	-1.526840	-0.746269	-0.690177	0.886667	0.009257	-0.018954	0.008558
580	2.927379	0.005000	1.516510	9.770760	-1.620379	-0.746269	-0.690506	0.886667	0.006277	-0.012206	0.001067
581	2.932379	0.005000	1.592581	9.816721	-1.765800	-0.746269	-0.690835	0.886667	0.014067	-0.020166	0.009771
582	2.937379	0.005000	1.624966	9.768430	-1.726560	-0.746269	-0.691164	0.886667	0.008376	-0.008316	0.009314
583	2.942379	0.005000	1.629455	9.770760	-1.765800	-0.746269	-0.691493	0.886667	0.021884	-0.009356	0.000200
584	2.947379	0.005000	1.615103	9.748009	-1.743049	-0.746269	-0.691822	0.886667	0.018259	-0.015193	-0.008119
585	2.952379	0.005000	1.633811	9.770760	-1.676618	-0.746269	-0.692151	0.886667	0.019022	-0.007116	-0.000669
586	2.957379	0.005000	1.659945	9.798135	-1.671811	-0.746269	-0.692480	0.886667	0.024176	-0.008407	0.007921
587	2.962379	0.005000	1.628238	9.770760	-1.667922	-0.746450	-0.691903	0.886768	0.014120	-0.007054	0.006385
588	2.967379	0.005000	1.562086	9.716491	-1.679806	-0.746669	-0.691136	0.886890	0.026290	-0.007636	0.006650
589	2.972379	0.005000	1.608840	9.725949	-1.670363	-0.746889	-0.690368	0.887013	0.030188	-0.012211	0.002673
590	2.977379	0.005000	1.684166	9.734674	-1.877212	-0.747108	-0.689601	0.887135	0.024893	-0.003360	-0.003970
591	2.982379	0.005000	1.689710	9.773150	-1.806235	-0.747327	-0.688833	0.887258	0.029961	-0.005608	0.000324
592	2.987379	0.005000	1.689708	9.735103	-1.806234	-0.747547	-0.688066	0.887380	0.024222	-0.007909	-0.003774
593	2.992379	0.005000	1.612410	9.845670	-1.655220	-0.747766	-0.687298	0.887502	0.022919	-0.010977	0.007318
594	2.997379	0.005000	1.614395	9.815555	-1.687320	-0.747985	-0.686531	0.887625	0.017395	-0.008210	0.000747
595	3.002379	0.005000	1.632157	9.817961	-1.679359	-0.748205	-0.685763	0.887747	0.021387	-0.010216	0.000265
596	3.007379	0.005000	1.648080	9.750949	-1.755894	-0.748424	-0.684995	0.887870	0.027447	-0.010356	-0.006642
597	3.012379	0.005000	1.608840	9.770760	-1.650360	-0.748643	-0.684228	0.887992	0.016345	-0.014129	-0.004826
598	3.017379	0.005000	1.608840	9.834688	-1.697455	-0.748862	-0.683460	0.888114	0.027539	-0.022144	0.007074
599	3.022379	0.005000	1.625513	9.832567	-1.749127	-0.749082	-0.682693	0.888237	0.015628	-0.004964	-0.002106
600	3.027379	0.005000	1.571143	9.847697	-1.568057	-0.749113	-0.682184	0.888359	0.016862	-0.017810	0.002884
601	3.032379	0.005000	1.611642	9.807198	-1.587819	-0.748455	-0.682623	0.888482	0.010222	-0.007083	-0.013202
602	3.037379	0.005000	1.592760	9.793920	-1.608840	-0.747797	-0.683061	0.888604	0.015682	-0.011029	-0.004676
603	3.042379	0.005000	1.636571	9.860749	-1.673454	-0.747139	-0.683500	0.888727	0.016059	-0.018448	-0.001695
604	3.047379	0.005000	1.703656	9.731520	-1.731444	-0.746481	-0.683939	0.888849	0.006435	-0.010779	-0.002515
605	3.052379	0.005000	1.627855	9.731520	-1.677812	-0.745823	-0.684377	0.888972	0.004124	-0.015890	0.001513
606	3.057379	0.005000	1.687320	9.724419	-1.719459	-0.745165	-0.684816	0.889094	0.005401	-0.008455	-0.004570
607	3.062379	0.005000	1.692418	9.775858	-1.716364	-0.744507	-0.685254	0.889217	0.006407	-0.015846	-0.002458
608	3.067379	0.005000	1.721079	9.810000	-1.653561	-0.743849	-0.685693	0.889339	0.014122	-0.011528	-0.000300
609	3.072379	0.005000	1.569600	9.849240	-1.687320	-0.743191	-0.686132	0.889462	0.020561	-0.005588	-0.000695
610	3.077379	0.005000	1.607232	9.849240	-1.649688	-0.742533	-0.686570	0.889584	0.018746	-0.009849	-0.001948
611	3.082379	0.005000	1.612818	9.700237	-1.675385	-0.741876	-0.687009	0.889707	0.018928	-0.007650	-0.003674
612	3.087379	0.005000	1.581537	9.719583	-1.759831	-0.741218	-0.687448	0.889829	0.018077	-0.015457	0.003833
613	3.092379	0.005000	1.583716	9.754011	-1.625589	-0.740560	-0.687886	0.889951	0.013382	-0.006731	-0.000864
614	3.097379	0.005000	1.705253	9.731520	-1.598186	-0.740431	-0.687928	0.890000	0.013800	-0.009654	-0.004729
615	3.102379	0.005000	1.648080	9.731520	-1.608840	-0.740651	-0.687708	0.890000	0.011381	-0.015830	0.003294
616	3.107379	0.005000	1.726560	9.819318	-1.663041	-0.740870	-0.687489	0.890000	0.015873	-0.009701	0.001474
617	3.112379	0.005000	1.642999	9.770760	-1.620839	-0.741089	-0.687270	0.890000	0.020025	-0.007047	-0.004116
618	3.117379	0.005000	1.648080	9.790510	-1.569600	-0.741309	-0.687050	0.890000	0.013737	-0.006715	-0.012388
619	3.122379	0.005000	1.765800	9.810000	-1.530360	-0.741528	-0.686831	0.890000	0.011619	-0.007805	-0.008811
620	3.127379	0.005000	1.680372	9.779208	-1.608840	-0.741747	-0.686612	0.890000	-0.004229	-0.009026	0.002986
621	3.132379	0.005000	1.648080	9.783743	-1.648080	-0.741967	-0.686392	0.890000	0.003086	-0.009749	-0.003868
622	3.137379	0.005000	1.624793	9.720481	-1.732684	-0.742186	-0.686173	0.890000	0.006976	-0.016033	0.004508
623	3.142379	0.005000	1.757168	9.818632	-1.713215	-0.742405	-0.685954	0.890000	0.006384	-0.002181	-0.002727
624	3.147379	0.005000	1.622061	9.881869	-1.745968	-0.742624	-0.685735	0.890000	0.008906	-0.010079	-0.000929
625	3.152379	0.005000	1.687320	9.775032	-1.722288	-0.742844	-0.685515	0.890000	0.001135	-0.003907	-0.000457
626	3.157379	0.005000	1.652679	9.810000	-1.691919	-0.743063	-0.685296	0.890000	0.009081	-0.006003	-0.015534
627	3.162379	0.005000	1.765723	9.692510	-1.648310	-0.743282	-0.685077	0.890000	0.007794	-0.007982	0.005040
628	3.167379	0.005000	1.648080	9.736451	-1.724094	-0.742957	-0.685402	0.889878	0.004538	0.002372	0.004772
629	3.172379	0.005000	1.687320	9.840391	-1.761375	-0.742628	-0.685730	0.889756	0.005223	-0.016926	0.002443
630	3.177379	0.005000	1.713036	9.810000	-1.629126	-0.742299	-0.686059	0.889633	0.007737	-0.009966	0.001324
631	3.182379	0.005000	1.635194	9.862126	-1.639295	-0.741970	-0.686388	0.889511	0.015375	-0.010455	0.004140
632	3.187379	0.005000	1.636888	9.877288	-1.743417	-0.741641	-0.686717	0.889389	0.010718	-0.015641	0.001619
633	3.192379	0.005000	1.673872	9.796552	-1.648080	-0.741312	-0.687046	0.889266	0.007163	-0.004688	0.001984
634	3.197379	0.005000	1.624389	9.747069	-1.664364	-0.740983	-0.687375	0.889144	0.011165	-0.010111	0.001788
635	3.202379	0.005000	1.648080	9.792256	-1.779793	-0.740654	-0.687704	0.889021	0.007985	-0.006405	-0.006114
636	3.207379	0.005000	1.609406	9.869143	-1.628743	-0.740325	-0.688033	0.888899	0.005316	-0.024156	0.004482
637	3.212379	0.005000	1.581139	9.810000	-1.591914	-0.739996	-0.688362	0.888776	0.007918	-0.010469	0.002079
638	3.217379	0.005000	1.648080	9.800726	-1.608840	-0.739667	-0.688691	0.888654	0.018505	-0.011038	0.002475
639	3.222379	0.005000	1.662118	9.875592	-1.608840	-0.739338	-0.689020	0.888531	0.015152	-0.010790	0.015257
640	3.227379	0.005000	1.551611	9.778124	-1.619465	-0.739009	-0.689349	0.888409	0.018496	-0.010634	0.006573
641	3.232379	0.005000	1.586037	9.810000	-1.577818	-0.739016	-0.689594	0.888567	0.021120	-0.011024	0.011581
642	3.237379	0.005000	1.621394	9.810000	-1.648080	-0.739564	-0.689704	0.889180	0.008841	-0.007071	0.004925
643	3.242379	0.005000	1.648080	9.806128	-1.691192	-0.740113	-0.689813	0.889792	0.012862	-0.015747	-0.001325
644	3.247379	0.005000	1.608840	9.811906	-1.683508	-0.740661	-0.689923	0.890405	0.011265	-0.007756	0.007899
645	3.252379	0.005000	1.725091	9.810490	-1.608840	-0.741210	-0.690033	0.891017	0.004195	-0.003197	0.005707
646	3.257379	0.005000	1.572459	9.767901	-1.611699	-0.741758	-0.690143	0.891630	0.017434	-0.012328	0.009386
647	3.262379	0.005000	1.569600	9.706794	-1.751286	-0.742307	-0.690252	0.892243	-0.002089	-0.011021	0.005778
648	3.267379	0.005000	1.640826	9.763506	-1.822517	-0.742856	-0.690362	0.892855	0.007197	-0.008066	0.003079
649	3.272379	0.005000	1.618038	9.779958	-1.705716	-0.743404	-0.690472	0.893468	0.018069	-0.008182	0.008310
650	3.277379	0.005000	1.541965	9.810000	-1.675715	-0.743953	-0.690582	0.894080	0.012642	-0.009100	-0.003654
651	3.282379	0.005000	1.491120	9.667998	-1.740110	-0.744501	-0.690691	0.894693	0.010662	-0.008649	0.008765
652	3.287379	0.005000	1.616155	9.754798	-1.671358	-0.745050	-0.690801	0.895305	0.011413	-0.005304	-0.000568
653	3.292379	0.005000	1.629927	9.752607	-1.611775	-0.745598	-0.690911	0.895918	0.014498	-0.010359	0.004809
654	3.297379	0.005000	1.649473	9.732913	-1.668397	-0.746147	-0.691021	0.896531	0.020650	-0.003914	0.002029
655	3.302379	0.005000	1.703833	9.793487	-1.670807	-0.746013	-0.691045	0.896476	0.018639	-0.012785	0.000508
656	3.307379	0.005000	1.687320	9.781198	-1.662481	-0.745684	-0.691045	0.896231	0.014674	-0.006597	0.009168
657	3.312379	0.005000	1.672414	9.707186	-1.704966	-0.745355	-0.691045	0.895986	0.011356	-0.009719	0.001114
658	3.317379	0.005000	1.637975	9.741625	-1.598735	-0.745026	-0.691045	0.895741	0.012688	-0.013354	0.007468
659	3.322379	0.005000	1.593224	9.802192	-1.655888	-0.744697	-0.691045	0.895496	0.011899	-0.009490	-0.000896
660	3.327379	0.005000	1.575394	9.782347	-1.648080	-0.744367	-0.691045	0.895251	0.012392	-0.005890	0.004975
661	3.332379	0.005000	1.608840	9.806541	-1.690779	-0.744038	-0.691045	0.895006	0.013337	-0.007522	-0.007678
662	3.337379	0.005000	1.607799	9.771801	-1.725519	-0.743709	-0.691045	0.894761	0.015173	-0.007546	-0.007354
663	3.342379	0.005000	1.492926	9.771663	-1.725657	-0.743380	-0.691045	0.894516	0.015099	-0.009990	0.006299
664	3.347379	0.005000	1.527053	9.810000	-1.723253	-0.743051	-0.691045	0.894271	0.014855	-0.005886	0.003941
665	3.352379	0.005000	1.614091	9.804749	-1.737063	-0.742722	-0.691045	0.894026	0.011295	-0.007757	0.008650
666	3.357379	0.005000	1.616507	9.841573	-1.608840	-0.742392	-0.691045	0.893781	0.003089	-0.011453	-0.004417
667	3.362379	0.005000	1.628747	9.810000	-1.618794	-0.742063	-0.691045	0.893536	0.011442	-0.011338	0.003424
668	3.367379	0.005000	1.651265	9.704298	-1.702523	-0.741980	-0.691159	0.893460	0.017905	-0.008001	0.000496
669	3.372379	0.005000	1.712295	9.742230	-1.712295	-0.743077	-0.691817	0.894195	0.013815	-0.007511	0.001154
670	3.377379	0.005000	1.680813	9.744534	-1.618700	-0.744174	-0.692475	0.894930	0.015359	-0.023868	0.003687
671	3.382379	0.005000	1.665175	9.673502	-1.648080	-0.745271	-0.693133	0.895665	0.012219	-0.007044	0.006405
672	3.387379	0.005000	1.705838	9.770760	-1.668802	-0.746369	-0.693792	0.896400	0.009752	-0.014727	0.000901
673	3.392379	0.005000	1.680293	9.770760	-1.726560	-0.747466	-0.694450	0.897135	0.010047	-0.008375	0.005095
674	3.397379	0.005000	1.608840	9.796007	-1.763062	-0.748563	-0.695108	0.897870	0.017491	-0.008830	0.004928
675	3.402379	0.005000	1.648080	9.743274	-1.687320	-0.749660	-0.695766	0.898605	0.008286	-0.013813	0.010503
676	3.407379	0.005000	1.627518	9.752082	-1.696659	-0.750757	-0.696424	0.899340	0.011769	-0.005513	-0.005896
677	3.412379	0.005000	1.655386	9.706893	-1.826959	-0.751854	-0.697083	0.900075	0.021805	-0.015386	0.003582
678	3.417379	0.005000	1.687320	9.775749	-1.800051	-0.752951	-0.697741	0.900810	0.015448	0.000282	0.002338
679	3.422379	0.005000	1.721416	9.815144	-1.682176	-0.754048	-0.698399	0.901545	0.012932	0.000328	0.000289
680	3.427379	0.005000	1.570855	9.770132	-1.415779	-0.755145	-0.699057	0.902280	0.007454	-0.006643	0.005404
681	3.432379	0.005000	1.573110	9.843976	-1.608840	-0.756242	-0.699716	0.903015	0.026771	-0.002958	-0.001362
682	3.437379	0.005000	1.605120	9.813720	-1.605120	-0.757027	-0.700062	0.903750	0.013305	-0.013193	0.003506
683	3.442379	0.005000	1.654146	9.725454	-1.654146	-0.757576	-0.700172	0.904485	0.018915	-0.004354	-0.005390
684	3.447379	0.005000	1.616908	9.677245	-1.664217	-0.758124	-0.700282	0.905220	0.023928	-0.010400	0.003746
685	3.452379	0.005000	1.608840	9.595527	-1.572294	-0.758672	-0.700391	0.905954	0.011747	-0.003311	0.013094
686	3.457379	0.005000	1.674893	9.733479	-1.676852	-0.759221	-0.700501	0.906689	0.011414	-0.011735	-0.007797
687	3.462379	0.005000	1.672484	9.746356	-1.643778	-0.759769	-0.700611	0.907424	0.018497	-0.008184	0.007376
688	3.467379	0.005000	1.704100	9.782120	-1.693000	-0.760317	-0.700720	0.908158	0.017122	-0.004754	0.004715
689	3.472379	0.005000	1.588791	9.830049	-1.706511	-0.760866	-0.700830	0.908893	0.016148	-0.010982	0.006379
690	3.477379	0.005000	1.587495	9.831345	-1.662526	-0.761414	-0.700940	0.909628	0.013299	-0.006710	0.000977
691	3.482379	0.005000	1.679466	9.833547	-1.718721	-0.761962	-0.701050	0.910363	0.017907	-0.008731	-0.006010
692	3.487379	0.005000	1.620912	9.810000	-1.767313	-0.762510	-0.701159	0.911097	0.015269	-0.011167	0.000200
693	3.492379	0.005000	1.553041	9.731520	-1.754460	-0.763059	-0.701269	0.911832	0.021023	-0.007888	0.002191
694	3.497379	0.005000	1.608840	9.749372	-1.747948	-0.763607	-0.701379	0.912567	0.023411	-0.018038	0.001383
695	3.502379	0.005000	1.654978	9.789306	-1.615738	-0.764155	-0.701488	0.913301	0.010176	-0.007074	-0.001829
696	3.507379	0.005000	1.643504	9.736096	-1.761224	-0.763129	-0.700863	0.911926	0.020419	-0.013820	-0.004469
697	3.512379	0.005000	1.724401	9.731520	-1.765800	-0.762032	-0.700205	0.910456	0.018142	-0.014294	-0.000489
698	3.517379	0.005000	1.687106	9.731734	-1.726774	-0.760935	-0.699546	0.908986	0.009335	-0.011146	0.002266
699	3.522379	0.005000	1.611003	9.807837	-1.839954	-0.759838	-0.698888	0.907516	0.005581	-0.014494	0.003333
700	3.527379	0.005000	1.639816	9.766628	-1.778196	-0.758741	-0.698230	0.906046	0.000451	-0.007952	-0.008914
701	3.532379	0.005000	1.615377	9.744595	-1.798503	-0.757644	-0.697572	0.904576	0.006279	-0.013257	0.005578
702	3.537379	0.005000	1.687320	9.832276	-1.673526	-0.756547	-0.696913	0.903106	0.012263	-0.008906	0.002864
703	3.542379	0.005000	1.558703	9.820897	-1.787593	-0.755450	-0.696255	0.901636	0.006270	-0.009459	0.005722
704	3.547379	0.005000	1.634934	9.770760	-1.674371	-0.754353	-0.695597	0.900166	0.009242	-0.008824	0.002635
705	3.552379	0.005000	1.593591	9.770760	-1.608840	-0.753256	-0.694938	0.898696	0.014616	-0.004590	-0.000969
706	3.557379	0.005000	1.630623	9.709737	-1.613166	-0.752159	-0.694280	0.897225	0.005168	-0.014672	-0.008419
707	3.562379	0.005000	1.628445	9.790395	-1.628475	-0.751062	-0.693622	0.895755	0.007930	0.000232	0.000923
708	3.567379	0.005000	1.721768	9.792776	-1.805040	-0.749965	-0.692963	0.894285	0.011695	-0.009299	0.005916
709	3.572379	0.005000	1.717514	9.794903	-1.726560	-0.749100	-0.692537	0.893247	0.003156	-0.010508	0.005372
710	3.577379	0.005000	1.713689	9.875609	-1.818538	-0.748661	-0.692537	0.893002	0.000112	-0.008215	-0.004554
711	3.582379	0.005000	1.687320	9.867566	-1.684733	-0.748222	-0.692537	0.892757	0.016777	-0.012261	-0.000317
712	3.587379	0.005000	1.656592	9.787785	-1.617352	-0.747784	-0.692537	0.892512	0.008047	-0.005647	-0.006034
713	3.592379	0.005000	1.569600	9.803891	-1.687320	-0.747345	-0.692537	0.892267	0.006014	-0.015892	0.005202
714	3.597379	0.005000	1.617069	9.770760	-1.652195	-0.746906	-0.692537	0.892022	0.004803	-0.009737	0.003221
715	3.602379	0.005000	1.687320	9.801200	-1.723040	-0.746468	-0.692537	0.891777	0.002180	-0.012301	-0.002759
716	3.607379	0.005000	1.648264	9.574744	-1.687136	-0.746029	-0.692537	0.891533	-0.000466	-0.015265	0.000333
717	3.612379	0.005000	1.682117	9.765557	-1.621849	-0.745591	-0.692537	0.891288	0.004501	-0.008220	0.003678
718	3.617379	0.005000	1.687320	9.805053	-1.648080	-0.745152	-0.692537	0.891043	0.007965	-0.007288	0.002095
719	3.622379	0.005000	1.655031	9.770760	-1.719609	-0.744713	-0.692537	0.890798	-0.001462	-0.006421	0.000553
720	3.627379	0.005000	1.618098	9.839982	-1.717302	-0.744275	-0.692537	0.890553	0.012431	-0.008321	0.001930
721	3.632379	0.005000	1.586220	9.837930	-1.703940	-0.743836	-0.692537	0.890308	0.010201	-0.003517	-0.005368
722	3.637379	0.005000	1.725138	9.888480	-1.583154	-0.743397	-0.692537	0.890063	0.004727	-0.010250	-0.008068
723	3.642379	0.005000	1.710898	9.786422	-1.671658	-0.743365	-0.693187	0.890454	-0.003883	-0.014464	-0.003951
724	3.647379	0.005000	1.608840	9.824983	-1.669246	-0.743475	-0.694065	0.891066	0.002112	-0.011412	-0.007664
725	3.652379	0.005000	1.629080	9.772000	-1.588600	-0.743585	-0.694942	0.891678	0.005355	-0.012759	0.002849
726	3.657379	0.005000	1.530360	9.709091	-1.648080	-0.743694	-0.695819	0.892291	0.006770	-0.004234	-0.000662
727	3.662379	0.005000	1.599007	9.746224	-1.751096	-0.743804	-0.696697	0.892903	0.008695	-0.015395	0.006986
728	3.667379	0.005000	1.635618	9.756445	-1.687320	-0.743913	-0.697574	0.893515	0.009416	-0.010036	0.000969
729	3.672379	0.005000	1.677265	9.810000	-1.608840	-0.744023	-0.698451	0.894127	0.011078	-0.008493	0.000488
730	3.677379	0.005000	1.648080	9.793778	-1.656191	-0.744133	-0.699329	0.894740	0.006127	-0.014671	0.013894
731	3.682379	0.005000	1.720865	9.731520	-1.653775	-0.744242	-0.700206	0.895352	0.009172	-0.007355	0.004944
732	3.687379	0.005000	1.805040	9.703399	-1.683614	-0.744352	-0.701083	0.895964	0.008743	-0.010382	0.010790
733	3.692379	0.005000	1.765800	9.772107	-1.687320	-0.744461	-0.701961	0.896576	0.008684	-0.012476	-0.004116
734	3.697379	0.005000	1.689438	9.848181	-1.610958	-0.744571	-0.702838	0.897188	0.013145	-0.013830	-0.002579
735	3.702379	0.005000	1.569600	9.816030	-1.566585	-0.744681	-0.703715	0.897801	0.006693	-0.010107	-0.001797
736	3.707379	0.005000	1.676610	9.804645	-1.687320	-0.744747	-0.704306	0.898301	0.017652	-0.005247	-0.003500
737	3.712379	0.005000	1.694684	9.802636	-1.743707	-0.744528	-0.702990	0.898056	0.020081	-0.011426	0.006689
738	3.717379	0.005000	1.549693	9.731520	-1.657746	-0.744309	-0.701673	0.897811	0.010950	-0.011042	0.002968
739	3.722379	0.005000	1.608840	9.704003	-1.581323	-0.744089	-0.700357	0.897566	0.018464	-0.011928	0.003560
740	3.727379	0.005000	1.633949	9.810000	-1.751669	-0.743870	-0.699040	0.897321	0.014822	-0.004481	0.004355
741	3.732379	0.005000	1.631743	9.764195	-1.805040	-0.743650	-0.697723	0.897076	0.013874	-0.010585	-0.007182
742	3.737379	0.005000	1.648080	9.812281	-1.821238	-0.743431	-0.696407	0.896831	0.024678	-0.016653	0.002235
743	3.742379	0.005000	1.629489	9.810000	-1.666671	-0.743211	-0.695090	0.896586	0.025039	-0.001308	0.000647
744	3.747379	0.005000	1.569600	9.754354	-1.660936	-0.742992	-0.693774	0.896341	0.023450	-0.009284	-0.004107
745	3.752379	0.005000	1.569600	9.703533	-1.648080	-0.742773	-0.692457	0.896096	0.017479	-0.007283	-0.001594
746	3.757379	0.005000	1.608840	9.653040	-1.699225	-0.742553	-0.691141	0.895851	0.017832	-0.008727	-0.008887
747	3.762379	0.005000	1.687320	9.731520	-1.687320	-0.742334	-0.689824	0.895606	0.013043	-0.009130	-0.000446
748	3.767379	0.005000	1.670907	9.770760	-1.608840	-0.742114	-0.688508	0.895361	0.009104	-0.008235	0.000600
749	3.772379	0.005000	1.749954	9.781324	-1.619404	-0.741895	-0.687191	0.895116	0.014023	-0.015400	0.003793
750	3.777379	0.005000	1.614594	9.767883	-1.729437	-0.741618	-0.686682	0.895064	0.011781	-0.004232	0.001658
751	3.782379	0.005000	1.647146	9.732454	-1.803173	-0.741289	-0.686901	0.895187	0.011556	-0.011197	0.003345
752	3.787379	0.005000	1.608840	9.732530	-1.764790	-0.740960	-0.687121	0.895309	0.012430	-0.008720	0.009787
753	3.792379	0.005000	1.612268	9.692280	-1.723132	-0.740632	-0.687340	0.895432	0.010473	-0.004912	0.006635
754	3.797379	0.005000	1.569600	9.725757	-1.720797	-0.740303	-0.687559	0.895554	0.011301	-0.014314	0.006909
755	3.802379	0.005000	1.663996	9.872931	-1.718785	-0.739974	-0.687778	0.895676	0.011345	-0.004684	0.000603
756	3.807379	0.005000	1.559419	9.770760	-1.697501	-0.739645	-0.687998	0.895799	0.014422	-0.015655	0.001030
757	3.812379	0.005000	1.584589	9.782886	-1.726560	-0.739316	-0.688217	0.895921	0.009350	-0.017174	-0.001036
758	3.817379	0.005000	1.633541	9.780922	-1.672781	-0.738987	-0.688436	0.896044	0.015590	-0.018664	-0.002211
759	3.822379	0.005000	1.592357	9.787243	-1.726560	-0.738658	-0.688655	0.896166	0.005938	-0.015087	0.004518
760	3.827379	0.005000	1.707667	9.789653	-1.746907	-0.738330	-0.688874	0.896289	0.010072	-0.011089	0.002968
761	3.832379	0.005000	1.650514	9.791597	-1.650514	-0.738001	-0.689094	0.896411	0.012001	-0.015394	-0.001786
762	3.837379	0.005000	1.601586	9.770760	-1.616094	-0.737672	-0.689313	0.896533	0.013311	-0.009554	0.004180
763	3.842379	0.005000	1.608840	9.782226	-1.648080	-0.737343	-0.689532	0.896656	0.014571	-0.009031	0.000715
764	3.847379	0.005000	1.624809	9.719884	-1.687320	-0.737712	-0.689951	0.896222	0.014018	-0.009862	-0.001569
765	3.852379	0.005000	1.618416	9.712369	-1.765800	-0.738150	-0.690389	0.895732	0.016167	-0.003389	0.001167
766	3.857379	0.005000	1.623410	9.724235	-1.765800	-0.738589	-0.690828	0.895242	0.011473	-0.010108	-0.000305
767	3.862379	0.005000	1.692599	9.731520	-1.765800	-0.739028	-0.691267	0.894752	0.009765	-0.005489	-0.004913
768	3.867379	0.005000	1.681472	9.698128	-1.642232	-0.739467	-0.691705	0.894262	0.010100	-0.004198	-0.004136
769	3.872379	0.005000	1.531401	9.653561	-1.648080	-0.739905	-0.692144	0.893773	0.016799	-0.011160	-0.003687
770	3.877379	0.005000	1.722290	9.767913	-1.685897	-0.740344	-0.692582	0.893283	0.004203	-0.015650	-0.004754
771	3.882379	0.005000	1.691102	9.735302	-1.730342	-0.740783	-0.693021	0.892793	0.010697	-0.018407	0.002176
772	3.887379	0.005000	1.581144	9.798456	-1.569600	-0.741221	-0.693460	0.892303	0.014083	-0.012878	-0.003872
773	3.892379	0.005000	1.600747	9.770760	-1.648080	-0.741660	-0.693898	0.891813	0.017173	-0.015875	0.001408
774	3.897379	0.005000	1.706297	9.820131	-1.706297	-0.742099	-0.694337	0.891324	0.009023	-0.009774	0.000130
775	3.902379	0.005000	1.619756	9.772383	-1.646457	-0.742537	-0.694775	0.890834	-0.001419	-0.006312	0.001587
776	3.907379	0.005000	1.584083	9.746003	-1.623323	-0.742976	-0.695214	0.890344	0.016338	0.001793	-0.004296
777	3.912379	0.005000	1.569600	9.798552	-1.535808	-0.743317	-0.695359	0.890073	0.020459	0.002403	-0.006737
778	3.917379	0.005000	1.550525	9.769671	-1.569600	-0.743426	-0.694810	0.890318	0.017630	-0.011678	0.000320
779	3.922379	0.005000	1.626829	9.810000	-1.566339	-0.743536	-0.694262	0.890563	0.000361	-0.001848	0.000322
780	3.927379	0.005000	1.640547	9.747373	-1.663933	-0.743646	-0.693714	0.890808	0.015777	-0.004569	0.002686
781	3.932379	0.005000	1.712924	9.770760	-1.738528	-0.743755	-0.693166	0.891052	0.009749	-0.007753	0.000609
782	3.937379	0.005000	1.659637	9.786886	-1.643512	-0.743865	-0.692617	0.891297	0.003109	-0.009512	-0.007121
783	3.942379	0.005000	1.707981	9.770760	-1.659451	-0.743974	-0.692069	0.891542	0.003896	-0.012549	0.000271
784	3.947379	0.005000	1.601966	9.763886	-1.680446	-0.744084	-0.691521	0.891787	0.019863	-0.007035	0.004561
785	3.952379	0.005000	1.574471	9.731520	-1.682449	-0.744194	-0.690973	0.892032	0.017261	-0.009695	0.006298
786	3.957379	0.005000	1.687320	9.697330	-1.611365	-0.744303	-0.690424	0.892277	0.013621	-0.010989	0.005290
787	3.962379	0.005000	1.725985	9.694005	-1.764075	-0.744413	-0.689876	0.892522	0.016325	-0.013457	0.016736
788	3.967379	0.005000	1.687320	9.772597	-1.648080	-0.744522	-0.689328	0.892767	0.011798	-0.004000	0.006705
789	3.972379	0.005000	1.569600	9.735300	-1.801260	-0.744632	-0.688780	0.893012	0.017260	-0.004276	0.002313
790	3.977379	0.005000	1.662579	9.731520	-1.720375	-0.744742	-0.688231	0.893256	0.012054	-0.009612	-0.006741
791	3.982379	0.005000	1.687320	9.841110	-1.695450	-0.744776	-0.688211	0.892996	0.010096	-0.008570	0.004264
792	3.987379	0.005000	1.676775	9.820545	-1.616446	-0.744776	-0.688430	0.892506	0.010023	-0.013552	-0.000419
793	3.992379	0.005000	1.765800	9.822798	-1.661725	-0.744776	-0.688650	0.892016	0.009781	-0.014029	0.004995
794	3.997379	0.005000	1.726560	9.677383	-1.696766	-0.744776	-0.688869	0.891526	0.011458	-0.005686	0.003655
795	4.002379	0.005000	1.625949	9.753651	-1.665189	-0.744776	-0.689088	0.891036	0.010238	-0.009309	0.004520
796	4.007379	0.005000	1.628835	9.790005	-1.647330	-0.744776	-0.689308	0.890546	0.008878	-0.010627	0.000614
797	4.012379	0.005000	1.630495	9.788345	-1.604769	-0.744776	-0.689527	0.890056	0.007493	-0.009707	0.001657
798	4.017379	0.005000	1.624481	9.755119	-1.600882	-0.744776	-0.689747	0.889566	0.009074	-0.014629	0.004271
799	4.022379	0.005000	1.595612	9.744748	-1.660864	-0.744776	-0.689966	0.889076	0.019122	-0.015279	-0.001150
800	4.027379	0.005000	1.608840	9.798716	-1.676036	-0.744776	-0.690185	0.888587	0.015000	-0.012268	-0.001981
801	4.032379	0.005000	1.608840	9.731520	-1.687320	-0.744776	-0.690405	0.888097	0.017426	-0.011062	0.001310
802	4.037379	0.005000	1.608840	9.724667	-1.590158	-0.744776	-0.690624	0.887607	0.012112	-0.009195	0.000397
803	4.042379	0.005000	1.634530	9.775277	-1.678287	-0.744776	-0.690844	0.887117	0.004230	-0.008628	0.000041
804	4.047379	0.005000	1.567059	9.812541	-1.721477	-0.744767	-0.691036	0.886677	0.016912	-0.010860	-0.011231
805	4.052379	0.005000	1.569937	9.810000	-1.647912	-0.744657	-0.690926	0.886799	0.013429	-0.011005	0.005355
806	4.057379	0.005000	1.610616	9.735072	-1.683768	-0.744548	-0.690817	0.886922	0.011076	-0.013462	0.000040
807	4.062379	0.005000	1.613033	9.840853	-1.800847	-0.744438	-0.690707	0.887044	0.011806	-0.017670	0.012723
808	4.067379	0.005000	1.648080	9.711839	-1.706879	-0.744328	-0.690597	0.887167	-0.000525	-0.014211	0.000199
809	4.072379	0.005000	1.678777	9.770760	-1.665166	-0.744219	-0.690487	0.887289	0.015901	-0.009774	0.008552
810	4.077379	0.005000	1.676373	9.714174	-1.665426	-0.744109	-0.690378	0.887412	-0.002309	-0.005498	-0.000086
811	4.082379	0.005000	1.634622	9.678822	-1.686754	-0.744000	-0.690268	0.887534	0.011930	-0.008339	0.001042
812	4.087379	0.005000	1.624144	9.755456	-1.774432	-0.743890	-0.690158	0.887656	0.008310	-0.010514	0.007780
813	4.092379	0.005000	1.608840	9.788262	-1.787538	-0.743780	-0.690049	0.887779	0.006491	-0.010287	-0.001418
814	4.097379	0.005000	1.569600	9.790495	-1.805040	-0.743671	-0.689939	0.887901	0.014327	-0.018632	0.002277
815	4.102379	0.005000	1.587027	9.735907	-1.748373	-0.743561	-0.689829	0.888024	0.017061	-0.012042	0.005387
816	4.107379	0.005000	1.680877	9.810000	-1.696105	-0.743452	-0.689720	0.888146	0.017107	-0.016211	0.004783
817	4.112379	0.005000	1.608840	9.822815	-1.674505	-0.743342	-0.689610	0.888268	0.010965	-0.009908	-0.000710
818	4.117379	0.005000	1.619710	9.877610	-1.562971	-0.743387	-0.690173	0.888910	0.015176	-0.007364	0.003255
819	4.122379	0.005000	1.617303	9.801537	-1.670394	-0.743607	-0.691489	0.890135	0.019173	-0.015731	0.009648
820	4.127379	0.005000	1.713672	9.777204	-1.654524	-0.743826	-0.692804	0.891360	0.004451	-0.014973	-0.002073
821	4.132379	0.005000	1.683217	9.692280	-1.604737	-0.744045	-0.694120	0.892584	0.010932	-0.010867	0.005337
822	4.137379	0.005000	1.645947	9.768627	-1.652346	-0.744265	-0.695436	0.893809	0.003579	-0.003315	0.001700
823	4.142379	0.005000	1.725825	9.770515	-1.726560	-0.744484	-0.696752	0.895033	0.008205	-0.005216	-0.003003
824	4.147379	0.005000	1.721326	9.736754	-1.723943	-0.744703	-0.698068	0.896258	0.010582	-0.000508	0.001630
825	4.152379	0.005000	1.643487	9.731520	-1.687320	-0.744923	-0.699384	0.897482	0.017451	-0.002926	0.000882
826	4.157379	0.005000	1.608840	9.738448	-1.601912	-0.745142	-0.700700	0.898707	0.016895	-0.000858	0.010621
827	4.162379	0.005000	1.608840	9.840287	-1.726560	-0.745361	-0.702016	0.899931	0.014652	0.002379	-0.002306
828	4.167379	0.005000	1.726560	9.821360	-1.710040	-0.745581	-0.703332	0.901156	0.014116	-0.005169	-0.002070
829	4.172379	0.005000	1.571203	9.770760	-1.634466	-0.745800	-0.704648	0.902380	0.012190	0.003375	0.009115
830	4.177379	0.005000	1.600928	9.755043	-1.616752	-0.746019	-0.705964	0.903605	0.012415	0.001922	-0.001492
831	4.182379	0.005000	1.629953	9.752633	-1.690305	-0.746238	-0.707280	0.904830	0.001575	-0.009229	0.002983
832	4.187379	0.005000	1.707392	9.789928	-1.688223	-0.747591	-0.707180	0.905527	-0.002046	-0.002789	-0.003031
833	4.192379	0.005000	1.670562	9.804276	-1.648080	-0.749127	-0.706851	0.906140	0.000801	-0.009451	0.003139
834	4.197379	0.005000	1.613529	9.849240	-1.652769	-0.750663	-0.706521	0.906752	-0.001942	-0.008980	0.006268
835	4.202379	0.005000	1.714159	9.810000	-1.687320	-0.752199	-0.706192	0.907365	0.006325	-0.012817	-0.005326
836	4.207379	0.005000	1.637748	9.770760	-1.745136	-0.753734	-0.705863	0.907977	-0.001461	-0.015431	0.000106
837	4.212379	0.005000	1.631980	9.801950	-1.600790	-0.755270	-0.705534	0.908590	0.002407	-0.017571	-0.007851
838	4.217379	0.005000	1.536007	9.776407	-1.670378	-0.756806	-0.705205	0.909202	0.002078	-0.011149	-0.003605
839	4.222379	0.005000	1.612544	9.770760	-1.636969	-0.758342	-0.704876	0.909815	-0.001577	-0.009979	-0.005456
840	4.227379	0.005000	1.648080	9.732806	-1.494978	-0.759878	-0.704546	0.910427	0.010070	-0.016426	0.007159
841	4.232379	0.005000	1.609498	9.770760	-1.647422	-0.761414	-0.704217	0.911040	0.009638	-0.010587	0.007405
842	4.237379	0.005000	1.645055	9.882429	-1.651105	-0.762950	-0.703888	0.911652	0.011784	-0.010729	-0.003698
843	4.242379	0.005000	1.633061	9.804994	-1.638067	-0.764485	-0.703559	0.912265	0.009701	-0.012683	0.004421
844	4.247379	0.005000	1.665052	9.841817	-1.765800	-0.766021	-0.703230	0.912877	0.007045	-0.013821	0.004905
845	4.252379	0.005000	1.756088	9.780472	-1.677608	-0.766855	-0.702788	0.912894	0.013728	-0.013786	-0.004087
846	4.257379	0.005000	1.659854	9.758986	-1.581374	-0.765649	-0.702021	0.911180	0.004266	-0.006912	-0.011726
847	4.262379	0.005000	1.530360	9.795813	-1.658946	-0.764443	-0.701253	0.909466	0.005261	-0.008351	0.005450
848	4.267379	0.005000	1.576579	9.849240	-1.617992	-0.763236	-0.700486	0.907751	0.016027	-0.014098	0.010450
849	4.272379	0.005000	1.648080	9.770760	-1.666621	-0.762030	-0.699718	0.906037	0.012812	-0.015288	0.003537
850	4.277379	0.005000	1.709535	9.770760	-1.687320	-0.760824	-0.698950	0.904323	0.023950	-0.017079	0.003390
851	4.282379	0.005000	1.618635	9.747865	-1.710215	-0.759618	-0.698183	0.902608	0.017049	-0.009218	0.004186
852	4.287379	0.005000	1.583835	9.784995	-1.673085	-0.758411	-0.697415	0.900894	0.024187	-0.007954	-0.008611
853	4.292379	0.005000	1.620839	9.798001	-1.620839	-0.757205	-0.696647	0.899180	0.012754	-0.004642	0.004278
854	4.297379	0.005000	1.677381	9.770760	-1.687320	-0.755999	-0.695880	0.897465	0.017262	-0.007736	-0.005503
855	4.302379	0.005000	1.694960	9.802360	-1.601200	-0.754793	-0.695112	0.895751	0.017956	-0.011960	0.003217
856	4.307379	0.005000	1.648080	9.804373	-1.698575	-0.753586	-0.694345	0.894037	0.018812	-0.005477	-0.000430
857	4.312379	0.005000	1.533650	9.810000	-1.654661	-0.752380	-0.693577	0.892323	0.023183	-0.007926	0.004372
858	4.317379	0.005000	1.610585	9.771633	-1.686447	-0.751174	-0.692809	0.890608	0.013397	-0.005505	0.001535
859	4.322379	0.005000	1.610983	9.810000	-1.686249	-0.751241	-0.692749	0.890158	0.012651	-0.015005	0.009529
860	4.327379	0.005000	1.648080	9.806566	-1.719692	-0.752009	-0.693079	0.890403	0.007084	-0.010359	0.010189
861	4.332379	0.005000	1.648080	9.770760	-1.658920	-0.752777	-0.693408	0.890648	0.011098	-0.009129	-0.000849
862	4.337379	0.005000	1.640335	9.833750	-1.789550	-0.753545	-0.693737	0.890893	0.004115	-0.010415	0.000987
863	4.342379	0.005000	1.677541	9.849240	-1.549919	-0.754313	-0.694066	0.891138	0.007330	-0.003389	0.001531
864	4.347379	0.005000	1.687320	9.822187	-1.596653	-0.755081	-0.694395	0.891383	0.015287	-0.014684	-0.002191
865	4.352379	0.005000	1.676943	9.745951	-1.672889	-0.755849	-0.694724	0.891628	0.015912	-0.002565	0.003682
866	4.357379	0.005000	1.625375	9.816170	-1.716195	-0.756617	-0.695053	0.891873	0.022404	-0.001994	0.005211
867	4.362379	0.005000	1.648080	9.789487	-1.685535	-0.757385	-0.695383	0.892118	0.030016	-0.007460	0.002910
868	4.367379	0.005000	1.569600	9.770760	-1.666430	-0.758153	-0.695712	0.892363	0.020034	-0.002873	-0.004825
869	4.372379	0.005000	1.656654	9.833302	-1.687320	-0.758921	-0.696041	0.892608	0.012627	-0.006910	0.006392
870	4.377379	0.005000	1.662074	9.796006	-1.712566	-0.759689	-0.696370	0.892853	0.017462	-0.001743	0.006213
871	4.382379	0.005000	1.675735	9.798415	-1.781869	-0.760457	-0.696699	0.893098	0.010730	-0.005253	0.005899
872	4.387379	0.005000	1.648080	9.741050	-1.579130	-0.761132	-0.697002	0.893318	0.014555	-0.002443	-0.002390
873	4.392379	0.005000	1.712107	9.802774	-1.608840	-0.759597	-0.696673	0.892951	0.016132	-0.006744	0.003527
874	4.397379	0.005000	1.648080	9.804781	-1.658518	-0.758062	-0.696344	0.892583	0.007501	-0.001803	0.009103
875	4.402379	0.005000	1.566723	9.767883	-1.687320	-0.756526	-0.696015	0.892216	0.013990	-0.003383	-0.005375
876	4.407379	0.005000	1.609299	9.692739	-1.688239	-0.754991	-0.695686	0.891849	0.027470	-0.013153	0.000325
877	4.412379	0.005000	1.648080	9.769275	-1.765800	-0.753456	-0.695357	0.891481	0.023932	-0.005099	-0.004201
878	4.417379	0.005000	1.655765	9.774602	-1.805040	-0.751921	-0.695028	0.891114	0.019376	-0.010834	0.005620
879	4.422379	0.005000	1.675654	9.770760	-1.777466	-0.750386	-0.694699	0.890747	0.024421	-0.010789	0.012871
880	4.427379	0.005000	1.577738	9.880342	-1.695458	-0.748851	-0.694370	0.890379	0.014365	-0.006310	0.005492
881	4.432379	0.005000	1.666957	9.791123	-1.726560	-0.747315	-0.694041	0.890012	0.013596	-0.012916	0.011349
882	4.437379	0.005000	1.662421	9.811891	-1.699770	-0.745780	-0.693712	0.889645	0.005192	-0.004240	0.003764
883	4.442379	0.005000	1.652457	9.873941	-1.712021	-0.744245	-0.693383	0.889277	0.000571	-0.005338	-0.004687
884	4.447379	0.005000	1.625788	9.849240	-1.648080	-0.742710	-0.693054	0.888910	0.015749	-0.001939	-0.001211
885	4.452379	0.005000	1.566691	9.730066	-1.687320	-0.741175	-0.692725	0.888543	0.008694	-0.006768	0.005304
886	4.457379	0.005000	1.666017	9.749457	-1.751230	-0.740488	-0.692443	0.888228	0.025627	-0.010385	0.003606
887	4.462379	0.005000	1.687320	9.770760	-1.710752	-0.740926	-0.692223	0.887983	0.002238	-0.009216	-0.002108
888	4.467379	0.005000	1.699400	9.837160	-1.765800	-0.741365	-0.692004	0.887738	0.009681	-0.009814	-0.001807
889	4.472379	0.005000	1.631833	9.876983	-1.765800	-0.741804	-0.691785	0.887493	0.002461	-0.006621	0.005279
890	4.477379	0.005000	1.638852	9.819228	-1.735788	-0.742243	-0.691565	0.887248	0.003148	-0.008811	0.004856
891	4.482379	0.005000	1.680507	9.770760	-1.784601	-0.742682	-0.691346	0.887003	0.008614	-0.013023	-0.002554
892	4.487379	0.005000	1.608840	9.731520	-1.790434	-0.743120	-0.691126	0.886758	0.010550	-0.008684	-0.004887
893	4.492379	0.005000	1.645615	9.770760	-1.572065	-0.743559	-0.690907	0.886513	0.010495	-0.015920	0.002081
894	4.497379	0.005000	1.648080	9.771801	-1.649121	-0.743998	-0.690687	0.886268	0.012569	-0.004581	-0.004752
895	4.502379	0.005000	1.722839	9.811861	-1.689181	-0.744437	-0.690468	0.886023	0.017019	-0.017809	-0.007049
896	4.507379	0.005000	1.584910	9.770760	-1.687320	-0.744876	-0.690249	0.885778	0.011816	-0.021961	-0.001431
897	4.512379	0.005000	1.608840	9.692280	-1.714216	-0.745315	-0.690029	0.885533	0.005887	-0.017825	0.006193
898	4.517379	0.005000	1.476443	9.778948	-1.695508	-0.745753	-0.689810	0.885288	0.008897	-0.007429	0.001951
899	4.522379	0.005000	1.580195	9.838645	-1.726560	-0.746192	-0.689590	0.885043	0.003727	-0.014039	0.002178
900	4.527379	0.005000	1.622364	9.849240	-1.700844	-0.746269	-0.689824	0.885809	0.019511	-0.021118	0.006994
901	4.532379	0.005000	1.623792	9.873528	-1.726560	-0.746269	-0.690153	0.886789	0.007799	-0.020128	-0.002037
902	4.537379	0.005000	1.547514	9.805069	-1.665234	-0.746269	-0.690482	0.887769	0.003538	-0.017936	-0.008913
903	4.542379	0.005000	1.510426	9.750826	-1.707254	-0.746269	-0.690811	0.888749	0.013111	-0.021682	-0.001261
904	4.547379	0.005000	1.565909	9.731520	-1.708786	-0.746269	-0.691140	0.889729	0.011298	-0.010379	0.002626
905	4.552379	0.005000	1.695401	9.715940	-1.765800	-0.746269	-0.691469	0.890709	0.007165	-0.012234	0.000445
906	4.557379	0.005000	1.569600	9.770760	-1.700487	-0.746269	-0.691798	0.891689	0.011382	-0.006618	0.001223
907	4.562379	0.005000	1.597752	9.731520	-1.743624	-0.746269	-0.692128	0.892669	0.009586	-0.012737	0.000976
908	4.567379	0.005000	1.587237	9.709917	-1.708923	-0.746269	-0.692457	0.893649	0.003442	-0.013197	0.010683
909	4.572379	0.005000	1.641668	9.816412	-1.668083	-0.746269	-0.692786	0.894629	0.016779	-0.008468	-0.000647
910	4.577379	0.005000	1.578538	9.840302	-1.731029	-0.746269	-0.693115	0.895609	0.003725	-0.010574	-0.001410
911	4.582379	0.005000	1.617046	9.770760	-1.614995	-0.746269	-0.693444	0.896589	0.011208	-0.001932	-0.007493
912	4.587379	0.005000	1.609269	9.809786	-1.608840	-0.746269	-0.693773	0.897569	0.009367	-0.009325	0.001219
913	4.592379	0.005000	1.654887	9.731520	-1.682782	-0.746293	-0.693958	0.898171	0.005974	-0.003784	-0.001543
914	4.597379	0.005000	1.578082	9.731520	-1.652321	-0.746403	-0.693629	0.897437	0.005472	-0.012875	-0.006631
915	4.602379	0.005000	1.654737	9.770760	-1.641423	-0.746512	-0.693300	0.896702	0.012561	-0.015524	0.008708
916	4.607379	0.005000	1.639125	9.749431	-1.687320	-0.746622	-0.692971	0.895967	0.021565	-0.003728	-0.004703
917	4.612379	0.005000	1.613632	9.827224	-1.676312	-0.746732	-0.692642	0.895232	0.016658	-0.004878	0.001734
918	4.617379	0.005000	1.569600	9.810000	-1.622262	-0.746841	-0.692313	0.894498	0.019928	0.000818	0.000635
919	4.622379	0.005000	1.593475	9.770760	-1.695829	-0.746951	-0.691984	0.893763	0.025674	-0.012738	-0.002839
920	4.627379	0.005000	1.691010	9.770760	-1.630305	-0.747060	-0.691655	0.893028	0.027672	-0.008977	0.000224
921	4.632379	0.005000	1.668033	9.751473	-1.726560	-0.747170	-0.691326	0.892294	0.009994	0.000000	0.004894
922	4.637379	0.005000	1.687320	9.748637	-1.765800	-0.747280	-0.690997	0.891559	0.013612	-0.017295	0.003396
923	4.642379	0.005000	1.608840	9.810000	-1.765800	-0.747389	-0.690668	0.890824	0.009498	-0.010216	0.000450
924	4.647379	0.005000	1.569600	9.745528	-1.792424	-0.747499	-0.690339	0.890089	0.019427	-0.013785	0.002931
925	4.652379	0.005000	1.590299	9.791459	-1.714052	-0.747609	-0.690010	0.889355	0.014097	-0.009515	-0.001692
926	4.657379	0.005000	1.616783	9.857183	-1.600897	-0.747718	-0.689681	0.888620	0.014566	-0.006296	-0.008905
927	4.662379	0.005000	1.687320	9.804070	-1.675460	-0.747761	-0.689552	0.888408	0.021398	0.001310	0.000550
928	4.667379	0.005000	1.605257	9.735103	-1.730143	-0.747761	-0.689552	0.888530	0.009774	-0.007525	-0.003721
929	4.672379	0.005000	1.494357	9.728283	-1.726560	-0.747761	-0.689552	0.888653	0.012774	-0.012287	-0.001589
930	4.677379	0.005000	1.608074	9.653040	-1.765034	-0.747761	-0.689552	0.888775	0.008648	-0.004671	-0.003330
931	4.682379	0.005000	1.680953	9.728337	-1.729743	-0.747761	-0.689552	0.888898	0.006285	-0.011396	-0.007382
932	4.687379	0.005000	1.692447	9.838986	-1.540614	-0.747761	-0.689552	0.889020	0.017626	-0.012560	0.002014
933	4.692379	0.005000	1.616373	9.746585	-1.664722	-0.747761	-0.689552	0.889143	0.023521	-0.006162	-0.006494
934	4.697379	0.005000	1.638247	9.770760	-1.648171	-0.747761	-0.689552	0.889265	0.024273	-0.004821	-0.003761
935	4.702379	0.005000	1.648080	9.798109	-1.620731	-0.747761	-0.689552	0.889388	0.000762	0.004332	-0.002738
936	4.707379	0.005000	1.687320	9.810000	-1.633780	-0.747761	-0.689552	0.889510	0.015175	-0.016125	-0.004427
937	4.712379	0.005000	1.743064	9.770760	-1.654312	-0.747761	-0.689552	0.889633	0.011417	-0.007123	-0.004792
938	4.717379	0.005000	1.724616	9.731520	-1.724616	-0.747761	-0.689552	0.889756	0.012191	-0.015573	-0.005640
939	4.722379	0.005000	1.648080	9.752335	-1.703355	-0.747761	-0.689552	0.889878	0.003134	-0.008555	0.003987
940	4.727379	0.005000	1.662360	9.738660	-1.703370	-0.747763	-0.689552	0.890000	0.012360	0.001542	-0.004096
941	4.732379	0.005000	1.634255	9.756935	-1.740385	-0.748092	-0.689552	0.890000	0.015213	-0.000150	0.004144
942	4.737379	0.005000	1.632317	9.782499	-1.699059	-0.748421	-0.689552	0.890000	0.005636	-0.002490	0.007728
943	4.742379	0.005000	1.687320	9.830293	-1.668373	-0.748750	-0.689552	0.890000	0.013310	-0.014473	-0.000584
944	4.747379	0.005000	1.641022	9.692280	-1.694378	-0.749079	-0.689552	0.890000	0.011630	-0.009307	0.002749
945	4.752379	0.005000	1.535474	9.736634	-1.755573	-0.749408	-0.689552	0.890000	0.005669	-0.008923	-0.002688
946	4.757379	0.005000	1.608840	9.776178	-1.765800	-0.749737	-0.689552	0.890000	0.008206	-0.010195	0.009708
947	4.762379	0.005000	1.649610	9.808470	-1.764270	-0.750066	-0.689552	0.890000	-0.005439	-0.007463	-0.006292
948	4.767379	0.005000	1.764166	9.693914	-1.687320	-0.750395	-0.689552	0.890000	0.013542	-0.016251	-0.000199
949	4.772379	0.005000	1.690916	9.731520	-1.726560	-0.750724	-0.689552	0.890000	0.003413	-0.013156	0.002652
950	4.777379	0.005000	1.738563	9.770760	-1.620843	-0.751053	-0.689552	0.890000	0.010414	-0.012191	-0.009326
951	4.782379	0.005000	1.586210	9.801695	-1.623165	-0.751382	-0.689552	0.890000	0.004133	-0.020475	-0.002215
952	4.787379	0.005000	1.608840	9.838890	-1.658430	-0.751711	-0.689552	0.890000	0.014498	-0.012104	-0.003493
953	4.792379	0.005000	1.634367	9.810000	-1.700084	-0.752040	-0.689552	0.890000	0.011004	-0.011691	0.002368
954	4.797379	0.005000	1.569600	9.824707	-1.613722	-0.752153	-0.689552	0.890096	0.004053	-0.013739	0.002543
955	4.802379	0.005000	1.625957	9.787877	-1.709443	-0.751933	-0.689552	0.890341	0.016707	-0.017745	0.005788
956	4.807379	0.005000	1.628778	9.770760	-1.627507	-0.751714	-0.689552	0.890586	0.002424	-0.011342	-0.002768
957	4.812379	0.005000	1.605136	9.792232	-1.701385	-0.751495	-0.689552	0.890831	-0.000318	-0.004549	-0.000219
958	4.817379	0.005000	1.671964	9.818528	-1.648080	-0.751275	-0.689552	0.891076	0.008835	-0.019813	0.002920
959	4.822379	0.005000	1.621577	9.810000	-1.622091	-0.751056	-0.689552	0.891321	0.011788	-0.003143	0.005552
960	4.827379	0.005000	1.586833	9.703284	-1.805040	-0.750837	-0.689552	0.891566	0.011331	-0.014855	0.005609
961	4.832379	0.005000	1.665991	9.740475	-1.787129	-0.750617	-0.689552	0.891811	0.002347	-0.012777	-0.003217
962	4.837379	0.005000	1.648080	9.770760	-1.615485	-0.750398	-0.689552	0.892055	0.004229	-0.012570	-0.005921
963	4.842379	0.005000	1.608840	9.766521	-1.660798	-0.750179	-0.689552	0.892300	0.001727	-0.004775	-0.003835
964	4.847379	0.005000	1.687320	9.694549	-1.724291	-0.749960	-0.689552	0.892545	0.005932	-0.013692	-0.002567
965	4.852379	0.005000	1.648187	9.848918	-1.726453	-0.749740	-0.689552	0.892790	0.010345	-0.017192	0.002217
966	4.857379	0.005000	1.453932	9.888480	-1.796834	-0.749521	-0.689552	0.893035	0.001355	-0.009858	-0.002582
967	4.862379	0.005000	1.599902	9.810000	-1.661486	-0.749302	-0.689552	0.893280	0.013240	-0.017090	0.000845
968	4.867379	0.005000	1.680528	9.770760	-1.687320	-0.749426	-0.689638	0.894100	0.009788	-0.017381	0.002763
969	4.872379	0.005000	1.608840	9.731520	-1.617659	-0.749645	-0.689748	0.895081	0.017919	-0.005674	0.005555
970	4.877379	0.005000	1.558497	9.798897	-1.608840	-0.749865	-0.689857	0.896061	0.017403	-0.007262	0.002119
971	4.882379	0.005000	1.543537	9.875303	-1.673852	-0.750084	-0.689967	0.897041	0.021200	-0.006701	0.005102
972	4.887379	0.005000	1.562083	9.739037	-1.726560	-0.750303	-0.690077	0.898021	0.016035	-0.009381	-0.001374
973	4.892379	0.005000	1.669530	9.731520	-1.801379	-0.750523	-0.690187	0.899001	0.010142	-0.001491	-0.003800
974	4.897379	0.005000	1.687963	9.750819	-1.687963	-0.750742	-0.690296	0.899981	0.017219	-0.002381	-0.005724
975	4.902379	0.005000	1.670166	9.805069	-1.687320	-0.750962	-0.690406	0.900961	0.012412	-0.011591	0.006138
976	4.907379	0.005000	1.623783	9.810000	-1.717205	-0.751181	-0.690516	0.901941	0.010099	-0.007091	0.012472
977	4.912379	0.005000	1.635546	9.784932	-1.687320	-0.751400	-0.690626	0.902921	0.010842	-0.010976	0.009011
978	4.917379	0.005000	1.637612	9.799532	-1.716092	-0.751620	-0.690735	0.903901	0.014541	-0.010530	-0.005631
979	4.922379	0.005000	1.585976	9.801812	-1.530360	-0.751839	-0.690845	0.904881	0.011781	-0.006334	0.000411
980	4.927379	0.005000	1.648080	9.770760	-1.660424	-0.752059	-0.690955	0.905862	0.008417	-0.010376	0.000754
981	4.932379	0.005000	1.573428	9.735348	-1.801212	-0.752630	-0.691182	0.906842	0.015654	-0.009373	0.000133
982	4.937379	0.005000	1.645233	9.804307	-1.765800	-0.754824	-0.691950	0.907822	0.024337	-0.016091	0.002623
983	4.942379	0.005000	1.530881	9.769198	-1.804519	-0.757018	-0.692718	0.908802	0.017731	-0.002988	0.004829
984	4.947379	0.005000	1.572504	9.773664	-1.656793	-0.759212	-0.693486	0.909782	0.023287	-0.016873	-0.005971
985	4.952379	0.005000	1.652962	9.814882	-1.652962	-0.761407	-0.694254	0.910762	0.015429	-0.011651	0.002036
986	4.957379	0.005000	1.640792	9.849240	-1.672745	-0.763601	-0.695022	0.911742	0.014767	-0.007644	-0.003070
987	4.962379	0.005000	1.628021	9.878889	-1.667261	-0.765795	-0.695790	0.912722	0.017351	-0.007174	-0.002418
988	4.967379	0.005000	1.632133	9.810000	-1.648080	-0.767989	-0.696558	0.913702	0.003673	-0.012813	-0.007214
989	4.972379	0.005000	1.661967	9.770760	-1.751913	-0.770183	-0.697326	0.914682	0.009381	-0.017349	0.005717
990	4.977379	0.005000	1.608840	9.731520	-1.749801	-0.772377	-0.698094	0.915662	0.006006	-0.012645	0.005650
991	4.982379	0.005000	1.569600	9.810000	-1.705518	-0.774572	-0.698861	0.916642	0.008296	-0.014017	0.012002
992	4.987379	0.005000	1.587038	9.849240	-1.629187	-0.776766	-0.699629	0.917622	0.006193	-0.014716	0.013634
993	4.992379	0.005000	1.703803	9.820208	-1.664563	-0.778960	-0.700397	0.918602	0.011775	-0.007821	0.002485
994	4.997379	0.005000	1.697482	9.863779	-1.701859	-0.781154	-0.701165	0.919582	0.008155	-0.009041	0.003726
995	5.002379	0.005000	1.672331	9.810000	-1.569600	-0.781587	-0.701493	0.920562	0.004565	-0.014867	-0.001177
996	5.007379	0.005000	1.697501	9.731520	-1.677139	-0.780710	-0.701493	0.921541	0.005790	-0.020633	0.001789
997	5.012379	0.005000	1.687320	9.747069	-1.663629	-0.779832	-0.701493	0.922521	0.009757	-0.010340	-0.008668
998	5.017379	0.005000	1.693151	9.764929	-1.687320	-0.778955	-0.701493	0.923500	0.018631	-0.009858	-0.005323
999	5.022379	0.005000	1.755557	9.738348	-1.615668	-0.778078	-0.701493	0.924480	0.012090	-0.015985	0.003170
1000	5.027379	0.005000	1.649532	9.772212	-1.684416	-0.777200	-0.701493	0.925460	0.007996	-0.006474	-0.001772
1001	5.032379	0.005000	1.649014	9.771694	-1.647146	-0.776323	-0.701493	0.926439	0.018384	-0.015701	-0.000862
1002	5.037379	0.005000	1.723682	9.765003	-1.678685	-0.775446	-0.701493	0.927419	0.003336	-0.011870	-0.000825
1003	5.042379	0.005000	1.687320	9.815295	-1.630021	-0.774568	-0.701493	0.928398	0.022127	-0.006874	0.002031
1004	5.047379	0.005000	1.648080	9.770760	-1.680081	-0.773691	-0.701493	0.929378	0.010599	-0.008770	0.001078
1005	5.052379	0.005000	1.608840	9.810000	-1.716915	-0.772814	-0.701493	0.930358	0.013348	-0.005261	-0.003744
1006	5.057379	0.005000	1.620760	9.810000	-1.793120	-0.771936	-0.701493	0.931337	0.011027	-0.011240	0.006139
1007	5.062379	0.005000	1.608840	9.796006	-1.830286	-0.771059	-0.701493	0.932317	0.008210	-0.003121	-0.006616
1008	5.067379	0.005000	1.602033	9.819409	-1.726560	-0.770182	-0.701493	0.933296	0.007655	-0.013077	-0.007254
1009	5.072379	0.005000	1.569600	9.726439	-1.666430	-0.768038	-0.700860	0.930504	0.015124	-0.006774	0.001017
1010	5.077379	0.005000	1.491120	9.729735	-1.687320	-0.765845	-0.700202	0.927565	0.018164	-0.006411	0.001979
1011	5.082379	0.005000	1.519995	9.754225	-1.664615	-0.763652	-0.699544	0.924626	0.020941	-0.013858	0.000649
1012	5.087379	0.005000	1.558612	9.731520	-1.687320	-0.761459	-0.698886	0.921688	0.012026	-0.003892	0.006037
1013	5.092379	0.005000	1.596799	9.770760	-1.651196	-0.759265	-0.698228	0.918749	0.014285	-0.014186	0.004408
1014	5.097379	0.005000	1.618608	9.800232	-1.667616	-0.757072	-0.697570	0.915810	0.013747	-0.006391	-0.005005
1015	5.102379	0.005000	1.569600	9.786220	-1.711100	-0.754879	-0.696912	0.912871	0.023291	-0.011762	-0.000310
1016	5.107379	0.005000	1.569600	9.804582	-1.653498	-0.752686	-0.696254	0.909932	0.022424	-0.009385	0.003710
1017	5.112379	0.005000	1.537228	9.767326	-1.762366	-0.750493	-0.695596	0.906993	0.017354	-0.013206	0.008022
1018	5.117379	0.005000	1.690489	9.733633	-1.688376	-0.748300	-0.694938	0.904054	0.017715	-0.009986	0.007061
1019	5.122379	0.005000	1.691314	9.658365	-1.726560	-0.746107	-0.694280	0.901116	0.005928	-0.010042	-0.001789
1020	5.127379	0.005000	1.644788	9.738103	-1.762508	-0.743914	-0.693622	0.898177	0.012045	-0.018783	0.001241
1021	5.132379	0.005000	1.625926	9.765065	-1.648080	-0.741721	-0.692964	0.895238	0.004431	-0.012235	0.000998
1022	5.137379	0.005000	1.577240	9.731520	-1.655720	-0.740376	-0.692537	0.893161	0.014864	-0.009201	-0.004221
1023	5.142379	0.005000	1.627970	9.780815	-1.579655	-0.740595	-0.692537	0.892671	0.015996	-0.010953	0.012273
1024	5.147379	0.005000	1.635766	9.878466	-1.544973	-0.740815	-0.692537	0.892181	0.020132	-0.011090	0.008362
1025	5.152379	0.005000	1.608840	9.785167	-1.722579	-0.741034	-0.692537	0.891691	0.020337	-0.017621	0.005897
1026	5.157379	0.005000	1.603239	9.770760	-1.805040	-0.741253	-0.692537	0.891202	0.017512	-0.007973	0.000438
1027	5.162379	0.005000	1.550837	9.791237	-1.683892	-0.741473	-0.692537	0.890712	0.017020	-0.005651	0.001550
1028	5.167379	0.005000	1.626906	9.791934	-1.608840	-0.741692	-0.692537	0.890222	0.019902	-0.015717	0.004591
1029	5.172379	0.005000	1.678773	9.802618	-1.695867	-0.741911	-0.692537	0.889732	0.023488	0.000219	0.004220
1030	5.177379	0.005000	1.595127	9.745233	-1.740273	-0.742131	-0.692537	0.889243	0.011312	-0.017536	-0.002911
1031	5.182379	0.005000	1.581233	9.821633	-1.754167	-0.742350	-0.692537	0.888753	0.020713	0.004539	-0.003962
1032	5.187379	0.005000	1.648080	9.839885	-1.687320	-0.742569	-0.692537	0.888263	0.009884	-0.006681	0.002898
1033	5.192379	0.005000	1.687320	9.842292	-1.687320	-0.742789	-0.692537	0.887773	0.008277	-0.010874	0.004626
1034	5.197379	0.005000	1.653027	9.726573	-1.692267	-0.743008	-0.692537	0.887284	0.004039	-0.004734	-0.005957
1035	5.202379	0.005000	1.648080	9.770760	-1.726560	-0.743227	-0.692537	0.886794	0.006687	-0.014408	0.007698
1036	5.207379	0.005000	1.648730	9.847939	-1.764499	-0.743447	-0.692293	0.886758	0.010298	-0.007511	-0.003407
1037	5.212379	0.005000	1.649840	9.770760	-1.649840	-0.743666	-0.691964	0.886880	0.013892	-0.012128	0.007322
1038	5.217379	0.005000	1.569600	9.739749	-1.499349	-0.743885	-0.691635	0.887003	0.012934	-0.005113	0.005060
1039	5.222379	0.005000	1.629754	9.810000	-1.641971	-0.744105	-0.691306	0.887125	0.012775	-0.006694	-0.001194
1040	5.227379	0.005000	1.656506	9.700706	-1.695746	-0.744324	-0.690977	0.887248	0.009642	-0.012851	-0.002625
1041	5.232379	0.005000	1.648080	9.721052	-1.619308	-0.744544	-0.690648	0.887370	0.013396	-0.007646	-0.010521
1042	5.237379	0.005000	1.608840	9.797124	-1.700808	-0.744763	-0.690319	0.887492	0.018359	-0.016683	0.002401
1043	5.242379	0.005000	1.663192	9.755648	-1.639064	-0.744982	-0.689990	0.887615	0.027899	-0.013412	-0.004937
1044	5.247379	0.005000	1.608840	9.765985	-1.687320	-0.745202	-0.689661	0.887737	0.018504	-0.018720	-0.001211
1045	5.252379	0.005000	1.726136	9.908735	-1.707152	-0.745421	-0.689331	0.887860	0.013505	-0.008839	-0.000305
1046	5.257379	0.005000	1.608840	9.870827	-1.648080	-0.745641	-0.689002	0.887982	0.005327	-0.010133	-0.002106
1047	5.262379	0.005000	1.615329	9.857994	-1.687320	-0.745860	-0.688673	0.888105	0.009740	-0.009180	0.004348
1048	5.267379	0.005000	1.687320	9.796695	-1.713929	-0.746079	-0.688344	0.888227	0.014156	-0.014778	0.006713
1049	5.272379	0.005000	1.547807	9.810000	-1.709113	-0.746269	-0.688060	0.888400	0.019135	-0.011314	0.006746
1050	5.277379	0.005000	1.539209	9.770760	-1.630381	-0.746269	-0.688060	0.888890	0.004656	-0.013468	0.006039
1051	5.282379	0.005000	1.648080	9.796925	-1.615377	-0.746269	-0.688060	0.889379	0.018012	-0.014061	-0.000817
1052	5.287379	0.005000	1.525822	9.701356	-1.765800	-0.746269	-0.688060	0.889869	0.001992	-0.014056	0.002755
1053	5.292379	0.005000	1.569600	9.731520	-1.807229	-0.746269	-0.688060	0.890359	0.011084	-0.002456	0.001707
1054	5.297379	0.005000	1.569600	9.653040	-1.804314	-0.746269	-0.688060	0.890849	0.005457	-0.010319	0.003054
1055	5.302379	0.005000	1.495466	9.690107	-1.576120	-0.746269	-0.688060	0.891339	0.018982	-0.013071	0.002755
1056	5.307379	0.005000	1.634511	9.731520	-1.678274	-0.746269	-0.688060	0.891829	0.020340	-0.014131	0.006461
1057	5.312379	0.005000	1.654602	9.770760	-1.713516	-0.746269	-0.688060	0.892318	0.016012	-0.005449	-0.004884
1058	5.317379	0.005000	1.608840	9.788429	-1.674583	-0.746269	-0.688060	0.892808	0.019273	-0.010856	-0.007597
1059	5.322379	0.005000	1.637199	9.849240	-1.665557	-0.746269	-0.688060	0.893298	0.018020	-0.010822	0.000193
1060	5.327379	0.005000	1.713271	9.875818	-1.726560	-0.746269	-0.688060	0.893788	0.015822	-0.005198	0.005503
1061	5.332379	0.005000	1.639307	9.834006	-1.805040	-0.746269	-0.688060	0.894278	0.017882	-0.010807	0.004602
1062	5.337379	0.005000	1.630443	9.788397	-1.726560	-0.746269	-0.688060	0.894768	0.009090	-0.011240	0.000391
1063	5.342379	0.005000	1.549783	9.810787	-1.686927	-0.746096	-0.688060	0.894807	0.012523	-0.013674	-0.002209
1064	5.347379	0.005000	1.633847	9.714272	-1.613584	-0.745767	-0.688060	0.894440	0.005951	-0.010211	0.001906
1065	5.352379	0.005000	1.687320	9.810000	-1.521374	-0.745438	-0.688060	0.894072	0.002942	-0.009386	-0.001636
1066	5.357379	0.005000	1.713669	9.783651	-1.660971	-0.745109	-0.688060	0.893705	0.008020	-0.012758	0.013585
1067	5.362379	0.005000	1.616630	9.760277	-1.687320	-0.744780	-0.688060	0.893338	0.006671	-0.008674	-0.003574
1068	5.367379	0.005000	1.538900	9.840700	-1.639540	-0.744451	-0.688060	0.892970	0.000897	-0.012727	0.000508
1069	5.372379	0.005000	1.608840	9.770760	-1.687320	-0.744122	-0.688060	0.892603	0.011121	-0.016667	0.003663
1070	5.377379	0.005000	1.569600	9.801741	-1.769930	-0.743793	-0.688060	0.892236	0.012509	-0.019548	0.001721
1071	5.382379	0.005000	1.608840	9.847465	-1.728335	-0.743464	-0.688060	0.891868	0.004304	-0.012044	0.005863
1072	5.387379	0.005000	1.608840	9.771395	-1.688591	-0.743135	-0.688060	0.891501	0.005626	-0.013257	0.005807
1073	5.392379	0.005000	1.608840	9.773346	-1.726560	-0.742806	-0.688060	0.891133	0.013459	-0.012265	0.008334
1074	5.397379	0.005000	1.608840	9.770760	-1.741354	-0.742477	-0.688060	0.890766	0.003574	-0.009380	0.003793
1075	5.402379	0.005000	1.615776	9.699216	-1.680384	-0.742148	-0.688060	0.890399	0.007421	-0.010009	0.000215
1076	5.407379	0.005000	1.569600	9.770760	-1.717317	-0.741819	-0.688060	0.890031	0.010010	-0.009446	0.001986
1077	5.412379	0.005000	1.653469	9.798716	-1.709887	-0.742192	-0.688361	0.889888	0.006779	-0.000718	-0.002253
1078	5.417379	0.005000	1.648080	9.770760	-1.673623	-0.742631	-0.688690	0.889766	0.011879	-0.014194	0.009853
1079	5.422379	0.005000	1.632439	9.810000	-1.671679	-0.743069	-0.689019	0.889643	0.017761	-0.008276	-0.001579
1080	5.427379	0.005000	1.708509	9.731520	-1.726560	-0.743508	-0.689348	0.889521	0.012589	-0.016773	0.001086
1081	5.432379	0.005000	1.687320	9.751745	-1.629065	-0.743947	-0.689677	0.889398	0.013258	-0.004887	0.009418
1082	5.437379	0.005000	1.631245	9.686709	-1.692891	-0.744385	-0.690005	0.889276	0.009726	-0.012378	0.005460
1083	5.442379	0.005000	1.505542	9.731520	-1.658476	-0.744824	-0.690334	0.889153	0.025486	-0.011963	0.007693
1084	5.447379	0.005000	1.608840	9.692280	-1.672737	-0.745262	-0.690663	0.889031	0.017520	-0.006414	-0.006691
1085	5.452379	0.005000	1.648080	9.741590	-1.735589	-0.745701	-0.690992	0.888908	0.013820	-0.015882	0.006308
1086	5.457379	0.005000	1.648080	9.762727	-1.640970	-0.746140	-0.691321	0.888786	0.016680	-0.005309	0.002830
1087	5.462379	0.005000	1.681609	9.770760	-1.726560	-0.746578	-0.691650	0.888663	0.022354	-0.012795	-0.000826
1088	5.467379	0.005000	1.648080	9.806694	-1.801734	-0.747017	-0.691979	0.888541	0.019392	-0.007219	0.003159
1089	5.472379	0.005000	1.685958	9.731520	-1.727922	-0.747456	-0.692308	0.888418	0.017524	-0.013479	-0.000888
1090	5.477379	0.005000	1.648080	9.693324	-1.727604	-0.747661	-0.692570	0.888333	0.018404	-0.018312	0.001382
1091	5.482379	0.005000	1.575571	9.731520	-1.651065	-0.747332	-0.692680	0.888333	0.003726	-0.004997	0.002088
1092	5.487379	0.005000	1.637275	9.692280	-1.765800	-0.747003	-0.692790	0.888333	0.003366	-0.013842	-0.007428
1093	5.492379	0.005000	1.648080	9.738866	-1.719214	-0.746674	-0.692900	0.888333	0.016755	-0.008552	0.001134
1094	5.497379	0.005000	1.608840	9.721767	-1.726560	-0.746345	-0.693009	0.888333	0.016824	-0.007224	-0.000756
