# FOX Logger (IMU file)
# (c) INRIA 2011-2014
# File created from file sensbiotk output
#
# File format:
# id	t	dt	ax	ay	az	mx	my	mz	gx	gy	gz
#
# Units:
#	Time: s
#	Acceleration: m.s^-2
#	Magneto: gauss
#	Gyrometer: rad/s
#
1	0.022308	0.022308	9.800664	1.068816	1.613508	0.513433	-0.164179	-0.295000	0.019525	-0.002353	0.001581
2	0.027308	0.005000	9.729269	1.216440	1.733312	0.512652	-0.164402	-0.294128	0.026643	0.001693	0.007787
3	0.032308	0.005000	9.653191	1.138263	1.883369	0.511871	-0.164625	-0.293256	0.009255	-0.009989	0.013702
4	0.037308	0.005000	9.655611	1.064622	1.883520	0.511090	-0.164848	-0.292384	0.010796	-0.006975	0.012679
5	0.042308	0.005000	9.535320	1.082564	1.838895	0.510309	-0.165071	-0.291512	-0.002772	-0.009471	0.005502
6	0.047308	0.005000	9.511601	0.988760	1.812800	0.509528	-0.165295	-0.290640	-0.001528	-0.016882	0.009607
7	0.052308	0.005000	9.564410	1.098720	1.687320	0.508747	-0.165518	-0.289768	-0.001993	-0.023720	0.012733
8	0.057308	0.005000	9.563699	1.034429	1.740749	0.507967	-0.165741	-0.288896	0.003217	-0.021280	-0.001217
9	0.062308	0.005000	9.638140	1.104181	1.726560	0.507186	-0.165964	-0.288024	-0.005114	-0.025713	0.013759
10	0.067308	0.005000	9.557067	1.098720	1.648080	0.506405	-0.166187	-0.287152	0.002257	-0.007942	0.008613
11	0.072308	0.005000	9.613234	1.098720	1.785703	0.505624	-0.166410	-0.286280	-0.000401	-0.021779	0.010883
12	0.077308	0.005000	9.675549	1.042749	1.709829	0.504843	-0.166633	-0.285408	-0.010502	-0.023592	0.015010
13	0.082308	0.005000	9.613800	1.073821	1.697879	0.504062	-0.166856	-0.284536	-0.027205	-0.031515	0.005183
14	0.087308	0.005000	9.676971	1.098720	1.632771	0.503281	-0.167079	-0.283664	-0.015695	-0.027754	0.019908
15	0.092308	0.005000	9.673129	1.128384	1.737073	0.503331	-0.166748	-0.284029	-0.010753	-0.030187	0.003704
16	0.097308	0.005000	9.646227	1.103895	1.576413	0.503889	-0.166079	-0.285150	0.003067	-0.033840	0.020558
17	0.102308	0.005000	9.609392	0.920150	1.765800	0.504447	-0.165410	-0.286272	0.011461	-0.029229	0.004663
18	0.107308	0.005000	9.609867	1.063413	1.642180	0.505005	-0.164740	-0.287393	0.009759	-0.033022	0.007961
19	0.112308	0.005000	9.535320	1.176787	1.530360	0.505563	-0.164071	-0.288514	0.011825	-0.029174	0.007135
20	0.117308	0.005000	9.535320	1.135129	1.608840	0.506121	-0.163402	-0.289635	0.021292	-0.020465	0.008733
21	0.122308	0.005000	9.568918	1.098720	1.614482	0.506678	-0.162732	-0.290756	0.027866	-0.021606	0.016340
22	0.127308	0.005000	9.464857	1.059480	1.616857	0.507236	-0.162063	-0.291877	0.015541	-0.014444	0.015641
23	0.132308	0.005000	9.496080	1.088312	1.629655	0.507794	-0.161394	-0.292999	0.012581	-0.016476	0.005799
24	0.137308	0.005000	9.496080	1.151326	1.622206	0.508352	-0.160724	-0.294120	0.007395	-0.016753	0.014605
25	0.142308	0.005000	9.637690	1.035590	1.648080	0.508910	-0.160055	-0.295241	0.016816	-0.011751	0.004974
26	0.147308	0.005000	9.592577	1.044670	1.572807	0.509467	-0.159386	-0.296362	0.019115	-0.016957	0.012416
27	0.152308	0.005000	9.629563	1.078329	1.607297	0.510025	-0.158716	-0.297483	0.023138	-0.011606	0.006437
28	0.157308	0.005000	9.692280	1.003766	1.703794	0.510448	-0.158182	-0.298303	0.019040	-0.025058	-0.000103
29	0.162308	0.005000	9.706069	1.049945	1.622629	0.510448	-0.158070	-0.298178	0.025482	-0.014796	0.006147
30	0.167308	0.005000	9.703655	1.165825	1.620215	0.510448	-0.157959	-0.298054	0.025134	-0.025154	-0.009299
31	0.172308	0.005000	9.731520	1.120023	1.738895	0.510448	-0.157847	-0.297929	0.023052	-0.021261	0.000628
32	0.177308	0.005000	9.607326	1.150909	1.569600	0.510448	-0.157736	-0.297805	0.028676	-0.010017	-0.001249
33	0.182308	0.005000	9.551718	1.090521	1.621138	0.510448	-0.157624	-0.297681	0.019875	-0.019250	-0.006313
34	0.187308	0.005000	9.574560	0.986128	1.689029	0.510448	-0.157513	-0.297556	0.023871	-0.016422	0.001533
35	0.192308	0.005000	9.574560	1.022509	1.688455	0.510448	-0.157401	-0.297432	0.002255	-0.032564	-0.004855
36	0.197308	0.005000	9.685261	1.020240	1.758781	0.510448	-0.157290	-0.297307	0.012639	-0.023402	-0.003731
37	0.202308	0.005000	9.586359	0.965358	1.726560	0.510448	-0.157178	-0.297183	0.010218	-0.026713	-0.006596
38	0.207308	0.005000	9.535320	0.989275	1.695595	0.510448	-0.157067	-0.297058	0.007554	-0.033729	-0.010041
39	0.212308	0.005000	9.613800	1.116631	1.665991	0.510448	-0.156955	-0.296934	-0.000272	-0.030204	-0.007147
40	0.217308	0.005000	9.522475	1.177200	1.634883	0.510448	-0.156843	-0.296809	-0.002949	-0.025327	-0.002760
41	0.222308	0.005000	9.504491	1.177200	1.679847	0.510448	-0.156732	-0.296685	-0.002689	-0.028048	0.008314
42	0.227308	0.005000	9.517046	1.179893	1.705594	0.510544	-0.156716	-0.296881	0.003367	-0.028797	-0.009741
43	0.232308	0.005000	9.553911	1.216440	1.689377	0.510655	-0.156716	-0.297130	0.005003	-0.027447	-0.006425
44	0.237308	0.005000	9.527943	1.232372	1.600285	0.510767	-0.156716	-0.297379	0.000365	-0.028377	-0.013066
45	0.242308	0.005000	9.521801	1.202921	1.583119	0.510878	-0.156716	-0.297628	0.012677	-0.029855	-0.001224
46	0.247308	0.005000	9.467822	1.227422	1.541342	0.510990	-0.156716	-0.297877	0.010690	-0.032560	-0.004092
47	0.252308	0.005000	9.635849	1.185796	1.600244	0.511101	-0.156716	-0.298126	0.006305	-0.025907	-0.008440
48	0.257308	0.005000	9.653040	1.210609	1.481035	0.511213	-0.156716	-0.298375	0.006130	-0.022709	-0.004211
49	0.262308	0.005000	9.567732	1.173786	1.605426	0.511324	-0.156716	-0.298624	0.004975	-0.024077	0.000494
50	0.267308	0.005000	9.458860	1.097710	1.529350	0.511436	-0.156716	-0.298874	0.017861	-0.029817	0.003385
51	0.272308	0.005000	9.535320	1.059480	1.566817	0.511547	-0.156716	-0.299123	0.010148	-0.026198	0.002238
52	0.277308	0.005000	9.609988	1.134148	1.526548	0.511659	-0.156716	-0.299372	0.007931	-0.021987	-0.000912
53	0.282308	0.005000	9.560235	1.183429	1.575829	0.511770	-0.156716	-0.299621	0.011763	-0.025831	0.008736
54	0.287308	0.005000	9.565925	1.137960	1.477785	0.511882	-0.156716	-0.299870	0.004622	-0.022169	0.006587
55	0.292308	0.005000	9.591049	1.177200	1.608840	0.511673	-0.156929	-0.299702	0.003035	-0.023344	0.009078
56	0.297308	0.005000	9.680572	1.163434	1.557892	0.511116	-0.157376	-0.299079	0.003950	-0.018396	0.016848
57	0.302308	0.005000	9.669376	1.160864	1.530360	0.510558	-0.157822	-0.298456	0.004519	-0.022609	0.011613
58	0.307308	0.005000	9.653040	1.178945	1.567855	0.510000	-0.158268	-0.297834	-0.001145	-0.014323	0.012512
59	0.312308	0.005000	9.671121	1.234521	1.590759	0.509442	-0.158715	-0.297211	0.014719	-0.024646	-0.002772
60	0.317308	0.005000	9.591079	1.216440	1.544822	0.508885	-0.159161	-0.296588	0.005976	-0.026051	0.011869
61	0.322308	0.005000	9.561460	1.164100	1.674220	0.508327	-0.159607	-0.295965	0.007597	-0.016046	0.006509
62	0.327308	0.005000	9.624525	1.177200	1.598115	0.507769	-0.160053	-0.295342	0.012147	-0.011400	0.021528
63	0.332308	0.005000	9.535320	1.098720	1.546307	0.507211	-0.160500	-0.294719	0.004569	-0.007917	0.018793
64	0.337308	0.005000	9.658598	1.098720	1.636965	0.506654	-0.160946	-0.294097	0.014366	-0.011204	0.014709
65	0.342308	0.005000	9.689164	1.144192	1.641848	0.506096	-0.161392	-0.293474	0.004636	-0.007519	0.015792
66	0.347308	0.005000	9.693732	1.177200	1.531086	0.505538	-0.161839	-0.292851	0.005867	-0.011848	0.006789
67	0.352308	0.005000	9.658046	1.102058	1.569600	0.504980	-0.162285	-0.292228	0.008308	-0.003267	0.020708
68	0.357308	0.005000	9.696773	1.059480	1.578586	0.504522	-0.162665	-0.291729	0.015835	0.001501	0.003591
69	0.362308	0.005000	9.620668	1.033976	1.523492	0.504968	-0.162442	-0.292352	0.016209	-0.011847	0.021271
70	0.367308	0.005000	9.662406	1.048339	1.618206	0.505415	-0.162218	-0.292974	0.010500	0.002063	0.023880
71	0.372308	0.005000	9.637347	1.059480	1.585293	0.505861	-0.161995	-0.293597	0.011584	-0.000263	0.020516
72	0.377308	0.005000	9.677803	1.084243	1.569600	0.506307	-0.161772	-0.294220	0.010652	-0.008822	0.012182
73	0.382308	0.005000	9.512947	1.076347	1.664947	0.506753	-0.161549	-0.294843	0.008658	-0.010037	0.006949
74	0.387308	0.005000	9.575316	1.197198	1.628838	0.507200	-0.161326	-0.295466	0.002532	-0.011774	0.017410
75	0.392308	0.005000	9.574560	1.159592	1.604816	0.507646	-0.161103	-0.296089	-0.005094	-0.004338	0.010209
76	0.397308	0.005000	9.535320	1.128605	1.627549	0.508092	-0.160879	-0.296712	0.000697	-0.002768	0.007178
77	0.402308	0.005000	9.522786	1.020240	1.623012	0.508538	-0.160656	-0.297334	-0.001188	-0.002701	0.011396
78	0.407308	0.005000	9.613800	0.990999	1.510362	0.508985	-0.160433	-0.297957	0.000955	-0.008401	0.008823
79	0.412308	0.005000	9.629048	1.035488	1.577224	0.509431	-0.160210	-0.298580	-0.001943	-0.001279	0.020432
80	0.417308	0.005000	9.731520	1.077784	1.608840	0.509877	-0.159987	-0.299203	-0.003799	0.006792	0.010655
81	0.422308	0.005000	9.687442	0.985838	1.567181	0.510323	-0.159763	-0.299826	0.001290	0.002311	0.013544
82	0.427308	0.005000	9.653040	1.137945	1.687320	0.510448	-0.159380	-0.299910	-0.002750	-0.010993	0.011298
83	0.432308	0.005000	9.689905	1.209315	1.650455	0.510448	-0.158933	-0.299786	-0.002805	0.001425	0.004051
84	0.437308	0.005000	9.623415	1.089105	1.574407	0.510448	-0.158487	-0.299661	-0.005169	-0.006245	0.011199
85	0.442308	0.005000	9.621024	1.145184	1.544807	0.510448	-0.158041	-0.299536	-0.010815	-0.003862	-0.000953
86	0.447308	0.005000	9.603816	1.060176	1.658064	0.510448	-0.157595	-0.299412	-0.000886	-0.004922	0.016682
87	0.452308	0.005000	9.665399	1.086361	1.518001	0.510448	-0.157148	-0.299287	-0.006290	0.003281	0.014759
88	0.457308	0.005000	9.574560	1.049708	1.623574	0.510448	-0.156702	-0.299163	0.005131	0.002815	0.007804
89	0.462308	0.005000	9.483347	1.059480	1.547684	0.510448	-0.156256	-0.299038	0.009982	0.000120	0.009163
90	0.467308	0.005000	9.574330	1.000505	1.608840	0.510448	-0.155810	-0.298913	0.003684	-0.001878	0.000253
91	0.472308	0.005000	9.596903	1.054034	1.631183	0.510448	-0.155364	-0.298789	0.012051	0.000111	0.004482
92	0.477308	0.005000	9.613800	1.123453	1.549148	0.510448	-0.154917	-0.298664	-0.005294	0.010317	0.005091
93	0.482308	0.005000	9.782564	1.204636	1.620644	0.510448	-0.154471	-0.298540	-0.010769	0.000998	0.000272
94	0.487308	0.005000	9.722123	1.098720	1.599443	0.510448	-0.154025	-0.298415	-0.004376	-0.000556	-0.004440
95	0.492308	0.005000	9.627596	1.027138	1.537258	0.510334	-0.153921	-0.298248	-0.023184	0.001509	-0.005656
96	0.497308	0.005000	9.653040	1.094197	1.604317	0.509999	-0.154479	-0.297999	-0.004774	0.002584	0.015819
97	0.502308	0.005000	9.498213	1.100853	1.569600	0.509665	-0.155036	-0.297750	-0.016983	0.010923	-0.006378
98	0.507308	0.005000	9.574315	1.176955	1.647590	0.509330	-0.155594	-0.297501	-0.006547	0.004192	0.004041
99	0.512308	0.005000	9.580732	1.174114	1.611926	0.508996	-0.156152	-0.297252	-0.013695	0.003116	0.007953
100	0.517308	0.005000	9.647564	1.250204	1.535836	0.508661	-0.156709	-0.297003	-0.012427	0.003932	-0.000572
101	0.522308	0.005000	9.566709	1.185051	1.491120	0.508326	-0.157267	-0.296754	-0.019195	0.001643	0.008326
102	0.527308	0.005000	9.621957	1.255680	1.559239	0.507992	-0.157824	-0.296505	-0.017108	0.004888	0.000675
103	0.532308	0.005000	9.639955	1.268750	1.661150	0.507657	-0.158382	-0.296256	-0.008684	0.011581	0.007453
104	0.537308	0.005000	9.582880	1.231900	1.632620	0.507323	-0.158939	-0.296007	0.001576	0.010723	0.003451
105	0.542308	0.005000	9.713670	1.155810	1.673010	0.506988	-0.159497	-0.295758	-0.002460	0.009034	0.010947
106	0.547308	0.005000	9.750290	1.115791	1.668550	0.506654	-0.160055	-0.295509	0.000502	0.023348	0.013063
107	0.552308	0.005000	9.692280	1.137960	1.644926	0.506319	-0.160612	-0.295260	0.004999	0.017239	-0.000394
108	0.557308	0.005000	9.653040	1.177200	1.698968	0.505985	-0.161170	-0.295011	0.002438	0.008815	0.007593
109	0.562308	0.005000	9.636612	1.036668	1.608840	0.506610	-0.161087	-0.295596	-0.001602	0.007226	0.011779
110	0.567308	0.005000	9.625947	1.050449	1.717529	0.507280	-0.160976	-0.296219	0.007400	0.003988	0.003962
111	0.572308	0.005000	9.547839	0.941760	1.660599	0.507949	-0.160864	-0.296841	0.004129	0.010462	0.006721
112	0.577308	0.005000	9.609957	0.984843	1.730403	0.508618	-0.160752	-0.297464	0.009245	0.007334	-0.002229
113	0.582308	0.005000	9.500346	1.059480	1.882098	0.509288	-0.160641	-0.298087	0.017354	0.016730	0.010031
114	0.587308	0.005000	9.575539	1.097741	1.729498	0.509957	-0.160529	-0.298710	0.004960	0.010339	0.004936
115	0.592308	0.005000	9.603649	1.016856	1.716409	0.510626	-0.160418	-0.299333	0.010650	-0.009377	0.005060
116	0.597308	0.005000	9.679906	1.080159	1.641893	0.511296	-0.160306	-0.299956	0.000622	0.003922	-0.011586
117	0.602308	0.005000	9.583137	0.998154	1.726560	0.511965	-0.160195	-0.300579	0.001658	0.000393	0.001876
118	0.607308	0.005000	9.591631	1.009155	1.709489	0.512634	-0.160083	-0.301201	0.004094	0.005796	0.005736
119	0.612308	0.005000	9.692280	1.084924	1.752004	0.513304	-0.159971	-0.301824	0.006756	0.003819	-0.002825
120	0.617308	0.005000	9.613800	0.987868	1.735878	0.513973	-0.159860	-0.302447	0.008913	-0.007448	0.012020
121	0.622308	0.005000	9.673719	1.080159	1.784361	0.514642	-0.159748	-0.303070	0.011500	-0.010241	-0.013867
122	0.627308	0.005000	9.656193	1.119916	1.687320	0.513701	-0.160474	-0.300959	0.016932	-0.013789	0.014599
123	0.632308	0.005000	9.558928	0.996632	1.710928	0.511581	-0.161813	-0.296848	0.008186	-0.003955	0.007962
124	0.637308	0.005000	9.600730	1.020210	1.713460	0.509462	-0.163152	-0.292737	0.014661	0.004903	0.003226
125	0.642308	0.005000	9.399720	1.120080	1.726560	0.507342	-0.164490	-0.288626	0.010088	-0.004182	0.002185
126	0.647308	0.005000	9.433461	1.161752	1.640149	0.505222	-0.165829	-0.284515	0.008660	-0.006434	-0.002850
127	0.652308	0.005000	9.490619	1.166278	1.653541	0.503103	-0.167168	-0.280404	0.007004	-0.003086	0.012461
128	0.657308	0.005000	9.496080	1.177200	1.681148	0.500983	-0.168507	-0.276293	-0.002005	0.004482	0.005664
129	0.662308	0.005000	9.614496	1.176504	1.765800	0.498864	-0.169845	-0.272182	-0.008339	0.001582	-0.008618
130	0.667308	0.005000	9.690132	1.137960	1.839984	0.496744	-0.171184	-0.268071	-0.007330	-0.010114	0.007552
131	0.672308	0.005000	9.643994	1.211917	1.696366	0.494624	-0.172523	-0.263960	-0.011460	-0.011757	-0.005088
132	0.677308	0.005000	9.666866	1.223353	1.694233	0.492505	-0.173862	-0.259849	-0.011277	-0.008177	0.001419
133	0.682308	0.005000	9.634239	1.196001	1.776839	0.490385	-0.175200	-0.255738	-0.009321	-0.004532	-0.003238
134	0.687308	0.005000	9.692280	1.216440	1.792908	0.488266	-0.176539	-0.251627	-0.005498	-0.008037	0.014597
135	0.692308	0.005000	9.663236	1.137960	1.730886	0.486833	-0.177368	-0.248927	0.013166	-0.003929	0.007388
136	0.697308	0.005000	9.714623	1.182646	1.603394	0.488171	-0.176142	-0.251915	0.012903	-0.013768	0.006122
137	0.702308	0.005000	9.672767	1.275193	1.471393	0.489509	-0.174915	-0.254903	0.005419	-0.007905	0.006723
138	0.707308	0.005000	9.692280	1.116036	1.608840	0.490847	-0.173689	-0.257892	0.010738	-0.014457	0.003938
139	0.712308	0.005000	9.677546	1.137960	1.569600	0.492185	-0.172462	-0.260880	0.012788	-0.012430	0.005499
140	0.717308	0.005000	9.626144	1.179409	1.581944	0.493523	-0.171235	-0.263869	0.008383	-0.001986	0.003652
141	0.722308	0.005000	9.623769	1.137960	1.658049	0.494862	-0.170009	-0.266857	0.004450	-0.008208	0.004899
142	0.727308	0.005000	9.638623	1.105928	1.719352	0.496200	-0.168782	-0.269845	0.006816	-0.011829	0.011940
143	0.732308	0.005000	9.687488	1.147544	1.648080	0.497538	-0.167556	-0.272834	0.023640	-0.015771	0.007041
144	0.737308	0.005000	9.692280	1.211720	1.692040	0.498876	-0.166329	-0.275822	0.019189	-0.008158	0.016205
145	0.742308	0.005000	9.692280	1.137960	1.687381	0.500214	-0.165102	-0.278811	0.005386	0.000767	0.000860
146	0.747308	0.005000	9.621103	1.216440	1.608840	0.501552	-0.163876	-0.281799	0.002502	-0.000136	0.007017
147	0.752308	0.005000	9.472587	1.103969	1.608840	0.502890	-0.162649	-0.284788	0.009732	-0.002904	0.008577
148	0.757308	0.005000	9.598546	1.074734	1.608840	0.504229	-0.161423	-0.287776	0.009572	-0.006639	0.004478
149	0.762308	0.005000	9.613800	1.127946	1.677306	0.504296	-0.160831	-0.288840	-0.003751	-0.018253	0.011795
150	0.767308	0.005000	9.653040	1.203901	1.621379	0.504073	-0.160385	-0.289463	0.003523	-0.004376	0.010239
151	0.772308	0.005000	9.716568	1.128624	1.711608	0.503850	-0.159938	-0.290086	0.011572	-0.008683	0.014664
152	0.777308	0.005000	9.653040	1.141954	1.665703	0.503627	-0.159492	-0.290709	0.006289	-0.005659	0.008709
153	0.782308	0.005000	9.711522	1.197198	1.628082	0.503404	-0.159046	-0.291332	0.010272	-0.017392	0.008467
154	0.787308	0.005000	9.574560	1.182737	1.608840	0.503181	-0.158600	-0.291954	0.006813	-0.013122	0.005010
155	0.792308	0.005000	9.642154	1.134668	1.583777	0.502958	-0.158154	-0.292577	-0.008064	-0.014486	0.009836
156	0.797308	0.005000	9.707982	1.204671	1.652013	0.502735	-0.157707	-0.293200	-0.005951	-0.016803	0.012834
157	0.802308	0.005000	9.602288	1.119475	1.530360	0.502512	-0.157261	-0.293823	-0.012379	-0.011821	0.011480
158	0.807308	0.005000	9.678544	1.080083	1.537228	0.502288	-0.156815	-0.294446	-0.007743	-0.013080	0.011971
159	0.812308	0.005000	9.613800	1.089765	1.608840	0.502065	-0.156369	-0.295069	-0.011187	-0.007193	0.016671
160	0.817308	0.005000	9.611697	1.024445	1.645977	0.501842	-0.155922	-0.295692	-0.013281	-0.006995	0.007219
161	0.822308	0.005000	9.574560	1.137219	1.724336	0.501619	-0.155476	-0.296315	-0.004244	-0.013301	0.019324
162	0.827308	0.005000	9.604406	1.134829	1.503645	0.501833	-0.155321	-0.296721	-0.019381	-0.016626	0.003143
163	0.832308	0.005000	9.580133	1.255680	1.592121	0.502613	-0.155544	-0.296846	-0.004669	-0.018145	0.009496
164	0.837308	0.005000	9.597100	1.177200	1.625540	0.503394	-0.155767	-0.296970	-0.002807	-0.008778	0.003947
165	0.842308	0.005000	9.674521	1.098720	1.591081	0.504175	-0.155990	-0.297095	0.008269	-0.012886	0.005040
166	0.847308	0.005000	9.666049	1.150969	1.582609	0.504956	-0.156213	-0.297219	0.006462	-0.007154	0.013519
167	0.852308	0.005000	9.613800	1.161513	1.632393	0.505737	-0.156437	-0.297344	0.017166	0.000734	0.011973
168	0.857308	0.005000	9.595703	1.159103	1.608840	0.506518	-0.156660	-0.297468	0.023596	-0.006087	0.013535
169	0.862308	0.005000	9.673764	1.119444	1.588116	0.507298	-0.156883	-0.297593	0.007425	-0.004495	0.021526
170	0.867308	0.005000	9.692280	1.059480	1.631939	0.508079	-0.157106	-0.297717	0.013709	-0.011001	0.017662
171	0.872308	0.005000	9.706031	1.098720	1.620579	0.508860	-0.157329	-0.297842	0.017861	-0.006107	0.007842
172	0.877308	0.005000	9.613800	1.053356	1.659119	0.509641	-0.157552	-0.297966	0.012547	-0.006388	0.005487
173	0.882308	0.005000	9.622332	1.090188	1.561068	0.510422	-0.157775	-0.298091	0.010340	-0.003569	0.011500
174	0.887308	0.005000	9.706953	1.086437	1.675037	0.511203	-0.157998	-0.298215	0.001452	-0.003656	0.001970
175	0.892308	0.005000	9.527787	1.059480	1.687320	0.511952	-0.158215	-0.298319	-0.001362	-0.003777	0.009658
176	0.897308	0.005000	9.576427	1.021174	1.725626	0.512176	-0.158327	-0.298070	-0.003867	0.000256	-0.003518
177	0.902308	0.005000	9.615267	1.097253	1.649547	0.512399	-0.158438	-0.297821	0.000939	-0.011313	-0.002651
178	0.907308	0.005000	9.762982	1.098720	1.648080	0.512622	-0.158550	-0.297572	-0.008399	-0.006033	0.013844
179	0.912308	0.005000	9.587171	1.065785	1.563295	0.512845	-0.158661	-0.297323	-0.011375	-0.012235	0.002772
180	0.917308	0.005000	9.544396	1.098720	1.569600	0.513068	-0.158773	-0.297073	-0.012696	-0.012449	0.006693
181	0.922308	0.005000	9.653040	1.126509	1.541811	0.513291	-0.158884	-0.296824	-0.016154	-0.006477	0.004644
182	0.927308	0.005000	9.586117	1.020240	1.594999	0.513514	-0.158996	-0.296575	-0.007705	-0.008551	0.009427
183	0.932308	0.005000	9.682282	1.098720	1.569600	0.513737	-0.159107	-0.296326	-0.003946	-0.002607	0.016424
184	0.937308	0.005000	9.692280	1.079660	1.590899	0.513960	-0.159219	-0.296077	-0.002040	-0.007223	-0.005188
185	0.942308	0.005000	9.656701	1.141621	1.665870	0.514184	-0.159330	-0.295828	0.003384	-0.000292	0.009483
186	0.947308	0.005000	9.589975	1.129549	1.678909	0.514407	-0.159442	-0.295579	0.016271	0.003180	0.001271
187	0.952308	0.005000	9.679255	1.177200	1.687320	0.514630	-0.159553	-0.295330	0.010104	-0.007326	0.008527
188	0.957308	0.005000	9.644711	1.148264	1.718231	0.514853	-0.159665	-0.295080	0.004845	0.007531	0.007857
189	0.962308	0.005000	9.566754	1.208634	1.750189	0.514472	-0.159626	-0.295084	0.012765	-0.003983	0.013097
190	0.967308	0.005000	9.501511	1.211009	1.788748	0.513803	-0.159514	-0.295209	0.012267	-0.001374	0.003715
191	0.972308	0.005000	9.574560	1.174159	1.641999	0.513134	-0.159403	-0.295333	0.007606	-0.004843	-0.004205
192	0.977308	0.005000	9.653040	1.138159	1.609437	0.512465	-0.159291	-0.295458	0.012294	-0.011285	0.002749
193	0.982308	0.005000	9.653040	1.140138	1.689498	0.511796	-0.159180	-0.295582	0.004158	-0.003018	0.002056
194	0.987308	0.005000	9.618368	1.172632	1.735697	0.511127	-0.159068	-0.295707	0.008104	-0.006005	0.010964
195	0.992308	0.005000	9.699223	1.112607	1.661967	0.510458	-0.158957	-0.295832	0.011499	0.005396	0.014523
196	0.997308	0.005000	9.643597	1.020240	1.648080	0.509789	-0.158845	-0.295956	0.019294	-0.008775	-0.004807
197	1.002308	0.005000	9.653040	1.086870	1.683630	0.509120	-0.158734	-0.296081	0.013626	-0.005623	0.000661
198	1.007308	0.005000	9.663175	1.074032	1.726560	0.508451	-0.158622	-0.296205	0.008329	-0.004933	0.002281
199	1.012308	0.005000	9.748462	1.115662	1.788098	0.507782	-0.158511	-0.296330	0.022898	-0.012319	0.008598
200	1.017308	0.005000	9.613662	1.020102	1.726422	0.507113	-0.158399	-0.296454	-0.002189	-0.004936	0.003055
201	1.022308	0.005000	9.613800	1.145872	1.726560	0.506444	-0.158288	-0.296579	0.000180	-0.017193	0.009472
202	1.027308	0.005000	9.667729	1.177200	1.765800	0.506133	-0.158079	-0.296740	0.006943	-0.013756	0.011155
203	1.032308	0.005000	9.810000	1.137960	1.768099	0.506691	-0.157632	-0.296989	-0.002990	-0.015697	0.016681
204	1.037308	0.005000	9.780230	1.137960	1.638157	0.507249	-0.157186	-0.297238	0.001145	-0.013268	0.018114
205	1.042308	0.005000	9.708875	1.233035	1.765800	0.507807	-0.156739	-0.297487	0.000022	-0.009276	0.011178
206	1.047308	0.005000	9.618560	1.147479	1.712281	0.508365	-0.156293	-0.297737	-0.007833	-0.012052	0.009873
207	1.052308	0.005000	9.618429	1.142589	1.606526	0.508923	-0.155846	-0.297986	-0.011834	-0.009077	0.011768
208	1.057308	0.005000	9.731459	1.138082	1.569600	0.509481	-0.155400	-0.298235	-0.001347	-0.004912	0.003435
209	1.062308	0.005000	9.736450	1.025170	1.603910	0.510039	-0.154954	-0.298484	0.005828	-0.014767	0.009349
210	1.067308	0.005000	9.574560	1.167436	1.711914	0.510598	-0.154507	-0.298734	0.002357	-0.013852	0.010755
211	1.072308	0.005000	9.653040	1.184869	1.718891	0.511156	-0.154061	-0.298983	0.003268	-0.023787	0.011181
212	1.077308	0.005000	9.663084	1.148004	1.540404	0.511714	-0.153614	-0.299232	0.001769	-0.011562	-0.001794
213	1.082308	0.005000	9.677909	1.189635	1.699755	0.512272	-0.153168	-0.299481	0.000435	-0.012448	0.000492
214	1.087308	0.005000	9.559571	1.177200	1.599577	0.512830	-0.152721	-0.299731	0.001365	-0.011598	0.013593
215	1.092308	0.005000	9.613800	1.020240	1.548013	0.513388	-0.152275	-0.299980	0.002801	-0.006442	0.005540
216	1.097308	0.005000	9.612106	1.058633	1.685626	0.513330	-0.152342	-0.299885	0.003394	-0.008116	0.014113
217	1.102308	0.005000	9.658637	1.070704	1.659274	0.513219	-0.152453	-0.299761	0.004069	-0.008184	0.000350
218	1.107308	0.005000	9.585518	1.202299	1.583741	0.513107	-0.152565	-0.299636	0.002533	-0.011689	0.004472
219	1.112308	0.005000	9.558775	1.149688	1.659808	0.512996	-0.152676	-0.299512	0.005462	-0.009163	0.005570
220	1.117308	0.005000	9.604480	1.158559	1.530360	0.512884	-0.152788	-0.299387	0.004965	-0.007061	0.006457
221	1.122308	0.005000	9.620622	1.066302	1.668547	0.512772	-0.152899	-0.299262	0.005733	-0.014966	0.009129
222	1.127308	0.005000	9.544215	1.129065	1.752458	0.512661	-0.153011	-0.299138	0.009214	-0.007092	0.004374
223	1.132308	0.005000	9.535320	1.098720	1.718331	0.512549	-0.153122	-0.299013	0.015458	-0.013771	0.007143
224	1.137308	0.005000	9.573773	1.137173	1.646507	0.512438	-0.153234	-0.298889	0.008273	-0.000574	-0.002149
225	1.142308	0.005000	9.568237	1.098720	1.608840	0.512326	-0.153345	-0.298764	0.002961	-0.008446	0.002926
226	1.147308	0.005000	9.535320	1.025792	1.648080	0.512214	-0.153457	-0.298639	-0.009658	-0.010764	0.006604
227	1.152308	0.005000	9.605777	1.090697	1.608840	0.512103	-0.153568	-0.298515	-0.007067	-0.007921	0.003460
228	1.157308	0.005000	9.749885	1.195565	1.648080	0.511991	-0.153680	-0.298390	-0.011591	-0.007865	0.013943
229	1.162308	0.005000	9.705426	1.111866	1.661029	0.511940	-0.153912	-0.298198	0.002925	-0.007201	0.009153
230	1.167308	0.005000	9.637504	1.067649	1.679151	0.511940	-0.154247	-0.297949	0.000621	-0.012216	-0.001079
231	1.172308	0.005000	9.674369	1.219859	1.665991	0.511940	-0.154582	-0.297700	-0.001416	-0.003422	0.004419
232	1.177308	0.005000	9.712818	1.177200	1.610677	0.511940	-0.154916	-0.297451	-0.004768	0.002563	-0.001013
233	1.182308	0.005000	9.636750	1.137960	1.631790	0.511940	-0.155251	-0.297201	0.001079	-0.004763	0.015793
234	1.187308	0.005000	9.602001	1.216440	1.622560	0.511940	-0.155586	-0.296952	-0.002917	0.000764	0.001679
235	1.192308	0.005000	9.574560	1.244350	1.608840	0.511940	-0.155921	-0.296703	-0.000001	-0.003807	0.008520
236	1.197308	0.005000	9.574560	1.198529	1.796085	0.511940	-0.156256	-0.296454	0.002759	-0.004093	0.006087
237	1.202308	0.005000	9.574560	1.105285	1.772365	0.511940	-0.156591	-0.296204	0.015195	-0.008427	0.005498
238	1.207308	0.005000	9.582093	1.173434	1.801274	0.511940	-0.156926	-0.295955	0.017682	-0.013817	0.016382
239	1.212308	0.005000	9.651694	1.100066	1.764454	0.511940	-0.157260	-0.295706	0.007390	-0.014351	0.002377
240	1.217308	0.005000	9.728352	1.176144	1.688376	0.511940	-0.157595	-0.295457	0.006258	-0.010059	0.008267
241	1.222308	0.005000	9.617260	1.177200	1.762340	0.511940	-0.157930	-0.295208	0.003737	-0.000151	0.005816
242	1.227308	0.005000	9.529057	1.156748	1.608840	0.511940	-0.158209	-0.295021	0.008129	-0.013847	0.008349
243	1.232308	0.005000	9.635734	1.168547	1.695973	0.511940	-0.158209	-0.295145	0.001592	-0.010841	0.009894
244	1.237308	0.005000	9.574560	1.166039	1.670402	0.511940	-0.158209	-0.295270	0.000370	-0.008771	0.012962
245	1.242308	0.005000	9.548895	1.150050	1.583175	0.511940	-0.158209	-0.295394	-0.001570	-0.012912	0.012523
246	1.247308	0.005000	9.692280	1.209724	1.523644	0.511940	-0.158209	-0.295519	-0.009576	-0.009796	0.002749
247	1.252308	0.005000	9.632437	1.115390	1.590203	0.511940	-0.158209	-0.295644	-0.002740	-0.009565	0.003115
248	1.257308	0.005000	9.592773	1.059480	1.632680	0.511940	-0.158209	-0.295768	0.001410	-0.011388	0.007055
249	1.262308	0.005000	9.684005	1.114558	1.601276	0.511940	-0.158209	-0.295893	0.006037	-0.015186	0.006966
250	1.267308	0.005000	9.639889	1.111871	1.648080	0.511940	-0.158209	-0.296017	0.006764	-0.011208	0.011215
251	1.272308	0.005000	9.624544	1.166456	1.658824	0.511940	-0.158209	-0.296142	0.000933	-0.016994	0.000280
252	1.277308	0.005000	9.605571	1.129731	1.679091	0.511940	-0.158209	-0.296266	0.000756	-0.011797	0.001027
253	1.282308	0.005000	9.647186	1.065334	1.681466	0.511940	-0.158209	-0.296391	0.006185	-0.012076	0.010524
254	1.287308	0.005000	9.610754	1.098720	1.611886	0.511940	-0.158209	-0.296515	0.010952	-0.010298	0.013865
255	1.292308	0.005000	9.574560	1.098092	1.609468	0.511940	-0.158209	-0.296640	0.000827	-0.010673	0.014058
256	1.297308	0.005000	9.649530	1.171936	1.648080	0.512027	-0.158384	-0.296862	-0.017350	-0.012865	0.007132
257	1.302308	0.005000	9.570367	1.098720	1.643887	0.512139	-0.158607	-0.297111	-0.000148	-0.014288	0.015227
258	1.307308	0.005000	9.646441	1.216440	1.641481	0.512250	-0.158830	-0.297360	0.011843	-0.008788	0.001235
259	1.312308	0.005000	9.662054	1.216440	1.648080	0.512362	-0.159053	-0.297609	0.012747	-0.015488	0.004929
260	1.317308	0.005000	9.492102	1.149714	1.754046	0.512474	-0.159276	-0.297858	0.010243	-0.013223	0.015407
261	1.322308	0.005000	9.599671	1.126978	1.637098	0.512585	-0.159499	-0.298108	0.015881	-0.008834	-0.002366
262	1.327308	0.005000	9.658856	1.115432	1.625552	0.512697	-0.159722	-0.298357	0.014975	-0.010693	0.017978
263	1.332308	0.005000	9.653040	1.117842	1.550478	0.512808	-0.159945	-0.298606	0.017470	-0.008148	0.005888
264	1.337308	0.005000	9.635538	1.098720	1.591338	0.512920	-0.160168	-0.298855	0.016079	-0.010720	0.016079
265	1.342308	0.005000	9.707392	1.074592	1.648080	0.513032	-0.160392	-0.299104	0.006842	0.003223	0.015231
266	1.347308	0.005000	9.666806	1.164463	1.649109	0.513143	-0.160615	-0.299353	0.007131	-0.000547	0.007029
267	1.352308	0.005000	9.564551	1.235662	1.716551	0.513255	-0.160838	-0.299602	0.016816	-0.000658	0.004461
268	1.357308	0.005000	9.567057	1.192206	1.608840	0.513366	-0.161061	-0.299851	0.020480	-0.003285	-0.001225
269	1.362308	0.005000	9.501208	1.245424	1.603712	0.513343	-0.161014	-0.300000	0.006476	-0.016124	0.009040
270	1.367308	0.005000	9.644781	1.171694	1.580613	0.513120	-0.160568	-0.300000	-0.005260	-0.007050	-0.002108
271	1.372308	0.005000	9.574923	1.020966	1.687683	0.512897	-0.160122	-0.300000	0.007177	-0.014799	-0.001852
272	1.377308	0.005000	9.613800	1.098720	1.726560	0.512674	-0.159675	-0.300000	0.008723	-0.007530	0.006578
273	1.382308	0.005000	9.623512	1.172344	1.687320	0.512451	-0.159229	-0.300000	0.017630	-0.000450	0.010977
274	1.387308	0.005000	9.542566	1.137960	1.726560	0.512227	-0.158783	-0.300000	-0.000535	-0.005410	0.002053
275	1.392308	0.005000	9.633565	1.128223	1.677583	0.512004	-0.158337	-0.300000	0.001537	-0.008853	-0.003030
276	1.397308	0.005000	9.483615	1.096874	1.648080	0.511781	-0.157890	-0.300000	0.012183	-0.006619	0.014197
277	1.402308	0.005000	9.731520	1.177200	1.593985	0.511558	-0.157444	-0.300000	-0.002608	-0.011854	0.008965
278	1.407308	0.005000	9.731520	1.159970	1.652860	0.511335	-0.156998	-0.300000	-0.003482	-0.016283	0.006942
279	1.412308	0.005000	9.653958	1.197050	1.569600	0.511112	-0.156552	-0.300000	-0.001022	-0.016663	0.009437
280	1.417308	0.005000	9.603236	1.093438	1.547339	0.510889	-0.156105	-0.300000	0.000938	-0.004982	0.002158
281	1.422308	0.005000	9.706681	1.098720	1.555199	0.510666	-0.155659	-0.300000	0.002766	-0.012110	0.019027
282	1.427308	0.005000	9.613800	1.177200	1.518349	0.510445	-0.155238	-0.300000	0.005967	-0.010581	0.006114
283	1.432308	0.005000	9.682644	1.157928	1.549632	0.510334	-0.155796	-0.300000	0.017104	-0.007857	0.015919
284	1.437308	0.005000	9.646168	1.163457	1.687320	0.510222	-0.156353	-0.300000	0.013287	-0.003990	0.006477
285	1.442308	0.005000	9.574560	1.133558	1.687320	0.510110	-0.156911	-0.300000	0.016198	-0.007839	0.014915
286	1.447308	0.005000	9.615827	1.102774	1.765800	0.509999	-0.157469	-0.300000	0.011559	-0.019513	0.008892
287	1.452308	0.005000	9.653040	1.138327	1.804673	0.509887	-0.158027	-0.300000	-0.004107	-0.015545	0.013182
288	1.457308	0.005000	9.613800	1.069101	1.579221	0.509776	-0.158585	-0.300000	0.009305	-0.012163	0.014067
289	1.462308	0.005000	9.681116	1.031404	1.569600	0.509664	-0.159142	-0.300000	0.009239	-0.004314	0.009415
290	1.467308	0.005000	9.590474	1.153329	1.538317	0.509553	-0.159700	-0.300000	0.010640	-0.012174	0.010085
291	1.472308	0.005000	9.545788	1.098720	1.501588	0.509441	-0.160258	-0.300000	0.003805	-0.009688	0.009082
292	1.477308	0.005000	9.496080	1.072356	1.608840	0.509329	-0.160816	-0.300000	0.007320	-0.009427	0.000885
293	1.482308	0.005000	9.574560	1.028348	1.640622	0.509218	-0.161374	-0.300000	0.009707	-0.008733	0.007151
294	1.487308	0.005000	9.553276	1.137960	1.623468	0.509106	-0.161931	-0.300000	0.003162	-0.001947	0.006921
295	1.492308	0.005000	9.593223	1.177200	1.608840	0.508995	-0.162489	-0.300000	0.009475	-0.010894	0.007777
296	1.497308	0.005000	9.669293	1.177200	1.687320	0.509243	-0.162471	-0.299678	0.003256	-0.009030	-0.004295
297	1.502308	0.005000	9.625690	1.137960	1.712885	0.509689	-0.162136	-0.299180	-0.003171	-0.006623	-0.004393
298	1.507308	0.005000	9.557920	1.165900	1.676020	0.510136	-0.161801	-0.298682	0.006592	-0.015663	0.009385
299	1.512308	0.005000	9.517500	1.207530	1.608840	0.510582	-0.161467	-0.298183	-0.006743	-0.009156	0.016221
300	1.517308	0.005000	9.613800	1.104859	1.563461	0.511028	-0.161132	-0.297685	-0.000687	-0.014237	0.017658
301	1.522308	0.005000	9.645572	1.102454	1.644346	0.511474	-0.160797	-0.297187	-0.005839	0.002386	0.010749
302	1.527308	0.005000	9.573259	1.137960	1.570901	0.511920	-0.160463	-0.296688	0.001648	-0.003063	0.002471
303	1.532308	0.005000	9.573473	1.023501	1.646993	0.512367	-0.160128	-0.296190	0.007208	0.005192	0.006062
304	1.537308	0.005000	9.719766	1.161528	1.722642	0.512813	-0.159793	-0.295692	0.004502	-0.002764	-0.004018
305	1.542308	0.005000	9.725212	1.072096	1.654388	0.513259	-0.159459	-0.295193	0.002850	-0.007432	0.005192
306	1.547308	0.005000	9.661723	1.177200	1.569600	0.513705	-0.159124	-0.294695	-0.008132	-0.005079	0.006063
307	1.552308	0.005000	9.625003	1.244477	1.608840	0.514152	-0.158789	-0.294197	-0.007312	-0.003993	0.006844
308	1.557308	0.005000	9.508098	1.216440	1.555989	0.514598	-0.158454	-0.293698	-0.006207	-0.004737	0.008055
309	1.562308	0.005000	9.544956	1.183856	1.654736	0.514865	-0.158239	-0.293466	-0.004771	0.000004	-0.000475
310	1.567308	0.005000	9.535320	1.136054	1.705987	0.514642	-0.158350	-0.293964	0.002817	-0.003421	0.005826
311	1.572308	0.005000	9.634857	1.059480	1.608840	0.514419	-0.158462	-0.294463	0.004521	-0.001900	-0.003058
312	1.577308	0.005000	9.676755	1.114245	1.687320	0.514196	-0.158573	-0.294961	0.009475	-0.005841	0.004063
313	1.582308	0.005000	9.626809	1.124844	1.661089	0.513973	-0.158685	-0.295459	0.000122	-0.008123	0.010522
314	1.587308	0.005000	9.585262	1.048778	1.726560	0.513750	-0.158796	-0.295958	-0.002377	-0.006844	0.002566
315	1.592308	0.005000	9.661239	1.137960	1.656279	0.513527	-0.158908	-0.296456	0.009303	-0.005803	0.014292
316	1.597308	0.005000	9.607991	1.071098	1.714942	0.513304	-0.159019	-0.296954	0.003232	-0.006213	-0.006325
317	1.602308	0.005000	9.571559	1.101721	1.651081	0.513081	-0.159131	-0.297452	0.008666	0.005798	0.008848
318	1.607308	0.005000	9.576351	1.139154	1.648677	0.512857	-0.159242	-0.297951	0.001727	-0.003108	0.008655
319	1.612308	0.005000	9.654840	1.104120	1.649880	0.512634	-0.159354	-0.298449	0.008956	-0.004887	-0.002156
320	1.617308	0.005000	9.613800	1.090269	1.604614	0.512411	-0.159465	-0.298947	0.003627	-0.006390	0.008295
321	1.622308	0.005000	9.574560	1.170558	1.641438	0.512188	-0.159577	-0.299446	0.002107	-0.015149	0.005626
322	1.627308	0.005000	9.554138	1.078298	1.590022	0.511965	-0.159688	-0.299944	-0.003125	-0.007625	0.012615
323	1.632308	0.005000	9.613800	1.192872	1.612728	0.511247	-0.160691	-0.298452	0.001815	-0.008552	0.008360
324	1.637308	0.005000	9.628140	1.102500	1.623180	0.510467	-0.161806	-0.296709	-0.009166	-0.010896	0.007458
325	1.642308	0.005000	9.669789	1.098720	1.608840	0.509686	-0.162921	-0.294966	-0.011270	-0.002617	0.002480
326	1.647308	0.005000	9.555167	1.119021	1.608840	0.508906	-0.164036	-0.293223	-0.005766	-0.001399	0.005041
327	1.652308	0.005000	9.631257	1.233897	1.552143	0.508125	-0.165152	-0.291479	-0.004128	-0.012286	0.003980
328	1.657308	0.005000	9.716438	1.240598	1.599764	0.507345	-0.166267	-0.289736	-0.003037	-0.006139	-0.003715
329	1.662308	0.005000	9.706127	1.203743	1.712713	0.506564	-0.167382	-0.287993	0.007802	-0.012145	0.003342
330	1.667308	0.005000	9.564582	1.147938	1.795062	0.505784	-0.168497	-0.286250	-0.000497	-0.007746	0.008916
331	1.672308	0.005000	9.589686	1.177200	1.750674	0.505003	-0.169612	-0.284507	0.000502	-0.001697	0.001675
332	1.677308	0.005000	9.600049	1.211342	1.613938	0.504223	-0.170727	-0.282763	0.004492	-0.011259	0.013116
333	1.682308	0.005000	9.681449	1.143376	1.726560	0.503442	-0.171842	-0.281020	0.002932	-0.008749	0.001575
334	1.687308	0.005000	9.652042	1.176202	1.686987	0.502662	-0.172957	-0.279277	0.010037	-0.014674	0.009883
335	1.692308	0.005000	9.535320	1.096639	1.648080	0.501881	-0.174073	-0.277534	-0.004378	-0.012941	0.011597
336	1.697308	0.005000	9.608899	1.206638	1.667715	0.501774	-0.174234	-0.277106	0.012802	-0.009004	0.017184
337	1.702308	0.005000	9.567284	1.113272	1.680044	0.502332	-0.173453	-0.277978	-0.003145	-0.005313	0.006509
338	1.707308	0.005000	9.545099	1.245901	1.677541	0.502890	-0.172672	-0.278850	-0.003726	-0.011573	-0.007756
339	1.712308	0.005000	9.613800	1.174521	1.633214	0.503448	-0.171890	-0.279723	0.010512	-0.011920	0.010312
340	1.717308	0.005000	9.662510	1.064896	1.560130	0.504006	-0.171109	-0.280595	0.009505	-0.014270	-0.000195
341	1.722308	0.005000	9.635765	0.985689	1.586875	0.504564	-0.170328	-0.281467	0.006125	-0.013949	0.008602
342	1.727308	0.005000	9.613800	1.098720	1.589129	0.505122	-0.169546	-0.282340	-0.002860	-0.009214	0.010746
343	1.732308	0.005000	9.630742	1.194142	1.530360	0.505680	-0.168765	-0.283212	0.001833	-0.014356	0.006458
344	1.737308	0.005000	9.560031	1.162671	1.672791	0.506238	-0.167984	-0.284085	0.005273	-0.011929	0.013102
345	1.742308	0.005000	9.704401	1.125839	1.596719	0.506796	-0.167203	-0.284957	0.002273	-0.012382	0.003830
346	1.747308	0.005000	9.701871	1.108311	1.628021	0.507354	-0.166421	-0.285829	-0.002958	-0.010536	0.017006
347	1.752308	0.005000	9.628231	1.155553	1.719344	0.507912	-0.165640	-0.286702	-0.008368	-0.004586	0.009086
348	1.757308	0.005000	9.692280	1.093894	1.682494	0.508470	-0.164859	-0.287574	0.000784	-0.016766	0.012231
349	1.762308	0.005000	9.699632	1.174749	1.643179	0.508970	-0.164106	-0.288414	-0.002901	-0.009163	0.005114
350	1.767308	0.005000	9.693460	1.215653	1.530753	0.509081	-0.163549	-0.289037	0.002302	-0.006941	0.004711
351	1.772308	0.005000	9.689512	1.219208	1.684552	0.509193	-0.162991	-0.289660	-0.002628	-0.010370	0.012483
352	1.777308	0.005000	9.692280	1.211282	1.603682	0.509304	-0.162433	-0.290283	0.002384	-0.005812	0.009313
353	1.782308	0.005000	9.636400	1.208907	1.679787	0.509416	-0.161875	-0.290906	0.006742	-0.010341	0.005630
354	1.787308	0.005000	9.594407	1.187123	1.706713	0.509527	-0.161317	-0.291529	0.001056	-0.005531	0.018970
355	1.792308	0.005000	9.653040	1.084374	1.596393	0.509639	-0.160760	-0.292152	0.008396	-0.001780	0.012843
356	1.797308	0.005000	9.613800	1.098720	1.603499	0.509751	-0.160202	-0.292774	0.011772	-0.008197	0.017096
357	1.802308	0.005000	9.531145	1.077012	1.695670	0.509862	-0.159644	-0.293397	0.010133	-0.002920	-0.001307
358	1.807308	0.005000	9.476173	1.157293	1.707227	0.509974	-0.159086	-0.294020	0.008303	-0.012939	0.007553
359	1.812308	0.005000	9.552262	1.115662	1.681965	0.510085	-0.158528	-0.294643	0.006219	-0.015670	-0.004183
360	1.817308	0.005000	9.628069	1.241411	1.662349	0.510197	-0.157970	-0.295266	0.011018	-0.012220	-0.001297
361	1.822308	0.005000	9.637522	1.161682	1.726560	0.510309	-0.157413	-0.295889	0.008933	-0.003445	0.012403
362	1.827308	0.005000	9.623133	1.070720	1.765800	0.510420	-0.156855	-0.296512	0.010112	-0.001455	0.011229
363	1.832308	0.005000	9.595436	1.080356	1.726560	0.510616	-0.156716	-0.296573	0.010227	-0.009583	0.007122
364	1.837308	0.005000	9.717815	1.211872	1.673615	0.510839	-0.156716	-0.296449	0.001644	-0.012966	-0.000773
365	1.842308	0.005000	9.653040	1.095229	1.569600	0.511062	-0.156716	-0.296324	-0.000593	-0.020771	0.003057
366	1.847308	0.005000	9.691630	1.097419	1.608190	0.511285	-0.156716	-0.296200	-0.000874	-0.013397	0.002831
367	1.852308	0.005000	9.656081	1.134919	1.611881	0.511508	-0.156716	-0.296075	-0.001178	-0.016738	-0.003791
368	1.857308	0.005000	9.681318	1.166238	1.434564	0.511731	-0.156716	-0.295950	0.005543	-0.009537	0.014542
369	1.862308	0.005000	9.653040	1.216440	1.553831	0.511954	-0.156716	-0.295826	-0.004080	-0.006472	0.013236
370	1.867308	0.005000	9.710921	1.148260	1.627481	0.512177	-0.156716	-0.295701	-0.001449	-0.018587	0.004017
371	1.872308	0.005000	9.705471	1.177200	1.569267	0.512400	-0.156716	-0.295577	-0.002895	-0.007656	0.004184
372	1.877308	0.005000	9.620759	1.224881	1.538801	0.512624	-0.156716	-0.295452	0.002525	-0.019436	0.002031
373	1.882308	0.005000	9.574560	1.116510	1.569600	0.512847	-0.156716	-0.295327	-0.008740	-0.013267	0.009377
374	1.887308	0.005000	9.613800	1.158368	1.608840	0.513070	-0.156716	-0.295203	0.003301	-0.003971	-0.000398
375	1.892308	0.005000	9.587354	1.193621	1.615237	0.513293	-0.156716	-0.295078	0.014326	-0.004040	0.015843
376	1.897308	0.005000	9.563003	1.124119	1.530360	0.513433	-0.156675	-0.295046	0.002454	-0.007119	0.011298
377	1.902308	0.005000	9.625266	1.036547	1.592533	0.513433	-0.156563	-0.295171	-0.001307	-0.004051	0.004396
378	1.907308	0.005000	9.583636	1.128884	1.708407	0.513433	-0.156452	-0.295295	0.010509	0.007545	0.014325
379	1.912308	0.005000	9.496080	1.092019	1.628944	0.513433	-0.156340	-0.295420	0.019985	-0.004125	0.000734
380	1.917308	0.005000	9.562852	1.094817	1.577405	0.513433	-0.156229	-0.295545	0.010837	-0.005767	0.011812
381	1.922308	0.005000	9.496080	1.100187	1.646613	0.513433	-0.156117	-0.295669	0.008601	-0.010105	0.011509
382	1.927308	0.005000	9.572723	1.176281	1.608840	0.513433	-0.156006	-0.295794	0.010705	-0.013118	0.007307
383	1.932308	0.005000	9.535320	1.141296	1.641407	0.513433	-0.155894	-0.295918	0.009055	-0.006060	0.007925
384	1.937308	0.005000	9.475265	1.104862	1.548785	0.513433	-0.155783	-0.296043	0.001277	-0.009815	0.010593
385	1.942308	0.005000	9.543837	1.120927	1.578117	0.513433	-0.155671	-0.296167	0.004507	-0.013016	0.013682
386	1.947308	0.005000	9.489560	1.098720	1.704747	0.513433	-0.155560	-0.296292	0.004173	-0.015393	0.007860
387	1.952308	0.005000	9.470282	1.098720	1.740002	0.513433	-0.155448	-0.296416	0.001585	-0.009867	0.002619
388	1.957308	0.005000	9.480225	1.208115	1.624695	0.513433	-0.155337	-0.296541	-0.005891	-0.013090	-0.002289
389	1.962308	0.005000	9.456840	1.195708	1.705828	0.513433	-0.155225	-0.296665	0.000799	-0.005798	0.002991
390	1.967308	0.005000	9.613800	1.156309	1.645539	0.513213	-0.155665	-0.296913	-0.001949	-0.008552	0.001725
391	1.972308	0.005000	9.542611	1.137960	1.671346	0.512990	-0.156111	-0.297162	-0.012621	-0.010996	0.010561
392	1.977308	0.005000	9.548604	1.137960	1.621512	0.512767	-0.156557	-0.297411	-0.003658	-0.013952	0.009666
393	1.982308	0.005000	9.535320	1.127090	1.648080	0.512543	-0.157003	-0.297660	-0.006054	-0.011275	-0.001341
394	1.987308	0.005000	9.552246	1.020240	1.617303	0.512320	-0.157449	-0.297909	0.001639	-0.016948	0.012289
395	1.992308	0.005000	9.653040	1.014265	1.569600	0.512097	-0.157896	-0.298159	-0.002722	-0.004176	0.004429
396	1.997308	0.005000	9.656640	1.066681	1.608840	0.511874	-0.158342	-0.298408	-0.001776	-0.014559	0.005602
397	2.002308	0.005000	9.692280	1.098720	1.645660	0.511651	-0.158788	-0.298657	0.000279	-0.009868	0.013696
398	2.007308	0.005000	9.730341	1.174842	1.645722	0.511428	-0.159234	-0.298906	0.002443	-0.001279	0.000572
399	2.012308	0.005000	9.621817	1.181209	1.644071	0.511205	-0.159681	-0.299155	0.015245	-0.013385	0.013609
400	2.017308	0.005000	9.580959	1.144359	1.660878	0.510982	-0.160127	-0.299404	0.008929	-0.007330	0.006271
401	2.022308	0.005000	9.526546	0.989774	1.687320	0.510758	-0.160573	-0.299653	0.014041	-0.006237	0.007512
402	2.027308	0.005000	9.574560	1.098720	1.687320	0.510535	-0.161019	-0.299902	0.010817	-0.000502	0.013591
403	2.032308	0.005000	9.560857	1.124257	1.634377	0.510312	-0.160923	-0.299773	0.006793	-0.008705	0.011127
404	2.037308	0.005000	9.568086	1.137960	1.641606	0.510089	-0.160476	-0.299399	0.010157	-0.003577	0.018683
405	2.042308	0.005000	9.555787	1.156733	1.646386	0.509866	-0.160030	-0.299025	0.015222	-0.004649	0.000083
406	2.047308	0.005000	9.610744	1.077572	1.590748	0.509643	-0.159584	-0.298651	0.003699	-0.013802	0.008059
407	2.052308	0.005000	9.574560	1.137960	1.648080	0.509420	-0.159138	-0.298278	-0.001424	-0.003161	0.008189
408	2.057308	0.005000	9.639827	1.150974	1.635066	0.509197	-0.158691	-0.297904	0.006464	0.004153	0.009292
409	2.062308	0.005000	9.613800	1.030723	1.716077	0.508974	-0.158245	-0.297530	0.011922	-0.000040	0.013971
410	2.067308	0.005000	9.574560	1.146068	1.593925	0.508750	-0.157799	-0.297157	0.011450	-0.000004	0.002290
411	2.072308	0.005000	9.541038	1.177200	1.642362	0.508527	-0.157353	-0.296783	0.007356	-0.007532	0.013036
412	2.077308	0.005000	9.605073	1.137960	1.648080	0.508304	-0.156907	-0.296409	0.001104	-0.002483	0.007159
413	2.082308	0.005000	9.573550	1.138970	1.647575	0.508081	-0.156460	-0.296035	0.006815	-0.009263	0.003393
414	2.087308	0.005000	9.533429	1.141742	1.608840	0.507858	-0.156014	-0.295662	0.003279	0.002726	0.007870
415	2.092308	0.005000	9.570294	1.137960	1.713762	0.507635	-0.155568	-0.295288	-0.000023	-0.001151	0.000519
416	2.097308	0.005000	9.639572	1.091986	1.648080	0.507386	-0.155096	-0.295086	-0.009049	-0.013382	0.017546
417	2.102308	0.005000	9.643540	1.068980	1.500620	0.507052	-0.154538	-0.295459	-0.009946	-0.011885	0.006109
418	2.107308	0.005000	9.625675	1.165325	1.663570	0.506717	-0.153980	-0.295833	-0.001439	-0.017357	0.004203
419	2.112308	0.005000	9.631620	1.137960	1.558890	0.506382	-0.153423	-0.296207	-0.008306	-0.010818	0.002808
420	2.117308	0.005000	9.580118	1.076321	1.631239	0.506047	-0.152865	-0.296581	-0.001883	-0.010180	0.013677
421	2.122308	0.005000	9.633053	1.078733	1.628093	0.505713	-0.152307	-0.296954	0.006928	-0.005508	0.020584
422	2.127308	0.005000	9.692280	1.081354	1.617190	0.505378	-0.151749	-0.297328	0.001176	-0.012704	0.002002
423	2.132308	0.005000	9.692280	1.147218	1.696578	0.505043	-0.151191	-0.297702	0.006660	-0.009454	0.014154
424	2.137308	0.005000	9.758159	1.125359	1.634042	0.504709	-0.150633	-0.298076	0.000842	-0.001379	0.001801
425	2.142308	0.005000	9.672790	1.069355	1.765800	0.504374	-0.150076	-0.298449	0.010734	-0.007947	0.005595
426	2.147308	0.005000	9.630635	1.081885	1.655548	0.504039	-0.149518	-0.298823	0.002125	-0.009571	0.010369
427	2.152308	0.005000	9.569568	1.093728	1.829304	0.503704	-0.148960	-0.299197	0.007958	-0.011286	0.008961
428	2.157308	0.005000	9.496080	1.088252	1.797189	0.503370	-0.148402	-0.299570	0.008585	-0.013649	0.012426
429	2.162308	0.005000	9.535093	1.019786	1.765346	0.503035	-0.147844	-0.299944	0.004581	-0.007752	0.010520
430	2.167308	0.005000	9.569356	1.132756	1.839076	0.503270	-0.147856	-0.300000	0.022758	-0.005024	0.005835
431	2.172308	0.005000	9.608750	1.103770	1.594852	0.503604	-0.147968	-0.300000	0.007094	0.003093	0.013459
432	2.177308	0.005000	9.613800	1.074392	1.679864	0.503939	-0.148079	-0.300000	0.007008	-0.006925	0.006368
433	2.182308	0.005000	9.623671	1.059480	1.579471	0.504274	-0.148191	-0.300000	-0.005739	-0.005924	0.020391
434	2.187308	0.005000	9.653040	1.177200	1.542961	0.504609	-0.148302	-0.300000	0.000943	-0.006857	0.005553
435	2.192308	0.005000	9.589536	1.122984	1.608840	0.504943	-0.148414	-0.300000	0.007275	-0.017084	0.014167
436	2.197308	0.005000	9.657548	1.220948	1.630714	0.505278	-0.148525	-0.300000	-0.007432	-0.018137	0.006981
437	2.202308	0.005000	9.574560	1.235700	1.609560	0.505613	-0.148637	-0.300000	0.001892	-0.011487	0.013190
438	2.207308	0.005000	9.613800	1.233290	1.591990	0.505947	-0.148749	-0.300000	0.005884	-0.010585	0.016164
439	2.212308	0.005000	9.613800	1.216440	1.580310	0.506282	-0.148860	-0.300000	0.011507	-0.011251	0.007049
440	2.217308	0.005000	9.625690	1.204550	1.566030	0.506617	-0.148972	-0.300000	0.010897	-0.011760	0.013990
441	2.222308	0.005000	9.574560	1.243896	1.587904	0.506951	-0.149083	-0.300000	-0.001852	-0.002177	0.007712
442	2.227308	0.005000	9.588033	1.228734	1.583073	0.507286	-0.149195	-0.300000	0.011863	-0.010611	0.016182
443	2.232308	0.005000	9.535320	1.207778	1.639418	0.507516	-0.149622	-0.299765	0.015616	-0.009408	-0.005721
444	2.237308	0.005000	9.499862	1.179091	1.648080	0.507627	-0.150403	-0.299267	0.007140	-0.009077	0.004314
445	2.242308	0.005000	9.574560	1.216440	1.725580	0.507739	-0.151184	-0.298768	0.014202	-0.011061	0.017823
446	2.247308	0.005000	9.538228	1.146683	1.759984	0.507850	-0.151965	-0.298270	0.011426	-0.008523	0.013534
447	2.252308	0.005000	9.647322	1.098720	1.726560	0.507962	-0.152746	-0.297772	0.021075	-0.008399	0.013516
448	2.257308	0.005000	9.590746	1.098720	1.679227	0.508073	-0.153527	-0.297273	0.004089	-0.007125	0.009313
449	2.262308	0.005000	9.642572	1.059480	1.773636	0.508185	-0.154307	-0.296775	0.004816	-0.011554	0.009901
450	2.267308	0.005000	9.587354	1.098720	1.752791	0.508296	-0.155088	-0.296277	-0.001837	-0.011129	0.017357
451	2.272308	0.005000	9.543725	1.035657	1.748989	0.508408	-0.155869	-0.295778	0.002018	-0.011170	0.017313
452	2.277308	0.005000	9.641135	1.023326	1.605754	0.508519	-0.156650	-0.295280	0.009229	-0.008155	0.020435
453	2.282308	0.005000	9.712747	1.040707	1.588373	0.508631	-0.157431	-0.294782	0.000305	-0.003598	0.012753
454	2.287308	0.005000	9.675882	1.020240	1.654524	0.508742	-0.158212	-0.294283	0.010620	-0.014464	0.011481
455	2.292308	0.005000	9.639032	1.101503	1.687320	0.508854	-0.158993	-0.293785	-0.000520	-0.013464	0.007694
456	2.297308	0.005000	9.608457	1.154602	1.653423	0.508976	-0.159660	-0.293275	0.005163	-0.017231	0.008037
457	2.302308	0.005000	9.713737	1.098720	1.548143	0.509199	-0.159213	-0.292652	0.007808	-0.005982	0.005664
458	2.307308	0.005000	9.568161	1.098720	1.668124	0.509422	-0.158767	-0.292030	0.003893	-0.015537	0.007833
459	2.312308	0.005000	9.535320	1.067528	1.542432	0.509645	-0.158321	-0.291407	-0.000764	-0.008380	0.005899
460	2.317308	0.005000	9.574560	1.175566	1.607206	0.509868	-0.157875	-0.290784	-0.002500	-0.009350	-0.001029
461	2.322308	0.005000	9.650620	1.099930	1.569600	0.510091	-0.157428	-0.290161	-0.006973	-0.014729	0.006307
462	2.327308	0.005000	9.727935	1.052310	1.533945	0.510314	-0.156982	-0.289538	-0.006302	-0.010219	0.010042
463	2.332308	0.005000	9.719569	1.171225	1.654055	0.510537	-0.156536	-0.288915	-0.002643	-0.014124	0.011398
464	2.337308	0.005000	9.622251	1.067931	1.656531	0.510761	-0.156090	-0.288292	0.000510	-0.014184	0.018363
465	2.342308	0.005000	9.613800	1.166334	1.558734	0.510984	-0.155644	-0.287670	0.008504	-0.013440	0.005241
466	2.347308	0.005000	9.704352	1.137960	1.466977	0.511207	-0.155197	-0.287047	0.002529	-0.008999	0.009031
467	2.352308	0.005000	9.629759	1.137960	1.537682	0.511430	-0.154751	-0.286424	-0.004478	-0.011283	0.000035
468	2.357308	0.005000	9.532779	1.137960	1.608840	0.511653	-0.154305	-0.285801	0.005217	-0.016806	0.006119
469	2.362308	0.005000	9.553836	1.177200	1.590324	0.511876	-0.153859	-0.285178	0.008643	-0.007615	0.004993
470	2.367308	0.005000	9.669181	1.098720	1.569600	0.511940	-0.153731	-0.285800	0.011762	-0.009924	0.007386
471	2.372308	0.005000	9.653040	1.086385	1.543812	0.511940	-0.153731	-0.286921	0.008307	-0.015111	0.006372
472	2.377308	0.005000	9.602761	1.216440	1.709397	0.511940	-0.153731	-0.288043	-0.004871	-0.007427	0.003841
473	2.382308	0.005000	9.552583	1.207808	1.687320	0.511940	-0.153731	-0.289164	-0.010031	-0.006516	0.005227
474	2.387308	0.005000	9.580702	1.158775	1.641938	0.511940	-0.153731	-0.290285	0.003971	-0.011741	0.012557
475	2.392308	0.005000	9.613800	1.137960	1.612607	0.511940	-0.153731	-0.291406	0.003888	-0.007611	0.005025
476	2.397308	0.005000	9.577313	1.177200	1.649457	0.511940	-0.153731	-0.292527	-0.000487	-0.009411	0.005722
477	2.402308	0.005000	9.653040	1.252745	1.649547	0.511940	-0.153731	-0.293648	0.000889	-0.000053	0.001022
478	2.407308	0.005000	9.723835	1.137960	1.687320	0.511940	-0.153731	-0.294770	0.013723	-0.009291	-0.002063
479	2.412308	0.005000	9.653040	1.210208	1.720328	0.511940	-0.153731	-0.295891	0.006465	-0.006037	0.008023
480	2.417308	0.005000	9.627218	1.185807	1.678713	0.511940	-0.153731	-0.297012	0.003701	-0.000575	-0.003809
481	2.422308	0.005000	9.624926	1.137960	1.631092	0.511940	-0.153731	-0.298133	0.010102	0.000282	0.010699
482	2.427308	0.005000	9.574560	1.228612	1.608840	0.511940	-0.153731	-0.299254	0.006301	-0.003024	0.003243
483	2.432308	0.005000	9.574560	1.255680	1.592624	0.511903	-0.153843	-0.299917	0.014923	-0.010240	0.011713
484	2.437308	0.005000	9.535320	1.119354	1.608840	0.511791	-0.154178	-0.299667	0.016571	-0.006492	0.013595
485	2.442308	0.005000	9.538043	1.179923	1.629821	0.511680	-0.154512	-0.299418	0.006172	-0.000674	0.013170
486	2.447308	0.005000	9.598205	1.161605	1.632485	0.511568	-0.154847	-0.299169	0.002288	-0.006435	0.017064
487	2.452308	0.005000	9.613800	1.111745	1.661105	0.511457	-0.155182	-0.298920	-0.001578	-0.010670	0.009605
488	2.457308	0.005000	9.563910	1.187850	1.683962	0.511345	-0.155517	-0.298671	-0.003729	-0.016934	0.014673
489	2.462308	0.005000	9.574560	1.098720	1.530360	0.511234	-0.155851	-0.298422	0.004752	0.004344	0.003963
490	2.467308	0.005000	9.608306	1.137960	1.648080	0.511122	-0.156186	-0.298173	0.007559	-0.011009	0.008712
491	2.472308	0.005000	9.502235	1.141037	1.675011	0.511011	-0.156521	-0.297924	0.001916	-0.004820	0.019699
492	2.477308	0.005000	9.575233	1.176527	1.608840	0.510899	-0.156855	-0.297674	0.000182	-0.010610	0.007443
493	2.482308	0.005000	9.688831	1.137960	1.646355	0.510787	-0.157190	-0.297425	0.011534	-0.008732	0.009504
494	2.487308	0.005000	9.617949	1.220589	1.674873	0.510676	-0.157525	-0.297176	0.000130	-0.007750	0.010474
495	2.492308	0.005000	9.581503	1.202553	1.680377	0.510564	-0.157860	-0.296927	0.009343	-0.013458	0.015059
496	2.497308	0.005000	9.544653	1.078147	1.597600	0.510453	-0.158194	-0.296678	0.004749	-0.004924	0.008570
497	2.502308	0.005000	9.602092	1.102835	1.585423	0.510022	-0.158422	-0.296072	0.008986	-0.006359	0.011818
498	2.507308	0.005000	9.692280	1.152224	1.683769	0.509576	-0.158645	-0.295449	0.004382	-0.002039	0.011813
499	2.512308	0.005000	9.630473	1.187978	1.648080	0.509130	-0.158868	-0.294826	0.002381	-0.007432	0.015337
500	2.517308	0.005000	9.534715	1.079403	1.568995	0.508684	-0.159091	-0.294204	0.013909	-0.009312	0.011144
501	2.522308	0.005000	9.535320	1.094545	1.626372	0.508238	-0.159314	-0.293581	0.000539	-0.014618	0.004544
502	2.527308	0.005000	9.510946	1.177200	1.614199	0.507791	-0.159537	-0.292959	0.005258	-0.009444	0.007169
503	2.532308	0.005000	9.547778	1.111178	1.635622	0.507345	-0.159760	-0.292336	0.000761	-0.003796	0.013885
504	2.537308	0.005000	9.535774	1.108643	1.677397	0.506899	-0.159983	-0.291713	-0.003682	-0.005318	0.004521
505	2.542308	0.005000	9.597205	1.051932	1.562052	0.506453	-0.160206	-0.291091	0.000143	-0.014175	0.002555
506	2.547308	0.005000	9.726362	1.015082	1.564442	0.506007	-0.160429	-0.290468	0.000600	-0.001560	0.000142
507	2.552308	0.005000	9.613800	1.104287	1.530360	0.505561	-0.160652	-0.289845	0.010189	-0.006447	-0.000834
508	2.557308	0.005000	9.652979	1.138021	1.530360	0.505115	-0.160875	-0.289223	-0.000700	-0.015944	0.005975
509	2.562308	0.005000	9.503386	1.101155	1.569600	0.504669	-0.161098	-0.288600	0.010136	-0.016304	0.008789
510	2.567308	0.005000	9.530494	1.133134	1.677669	0.504351	-0.161704	-0.287408	0.006385	-0.001470	0.019158
511	2.572308	0.005000	9.645752	1.113295	1.598751	0.504127	-0.162596	-0.285789	0.009895	0.001783	0.009249
512	2.577308	0.005000	9.564857	1.079314	1.716857	0.503904	-0.163488	-0.284170	0.008637	-0.003774	0.012613
513	2.582308	0.005000	9.562125	1.204005	1.740931	0.503681	-0.164381	-0.282550	0.000620	-0.003710	-0.001850
514	2.587308	0.005000	9.564939	1.246059	1.623650	0.503458	-0.165273	-0.280931	0.006827	-0.006571	-0.005312
515	2.592308	0.005000	9.557159	1.177200	1.534798	0.503235	-0.166166	-0.279311	0.000497	-0.007319	0.001128
516	2.597308	0.005000	9.614183	1.236251	1.648080	0.503012	-0.167058	-0.277692	-0.000130	-0.007172	-0.005666
517	2.602308	0.005000	9.613800	1.233261	1.625661	0.502789	-0.167951	-0.276072	0.007556	-0.012194	0.008858
518	2.607308	0.005000	9.663417	1.191631	1.662511	0.502566	-0.168843	-0.274453	-0.004825	-0.007671	-0.000476
519	2.612308	0.005000	9.625528	1.165472	1.659808	0.502343	-0.169736	-0.272834	0.009546	-0.014819	0.006617
520	2.617308	0.005000	9.553961	1.205161	1.717240	0.502119	-0.170628	-0.271214	-0.006186	-0.008174	0.014127
521	2.622308	0.005000	9.678470	1.294920	1.712750	0.501896	-0.171520	-0.269595	0.003289	-0.003663	0.011337
522	2.627308	0.005000	9.539767	1.246785	1.669530	0.501673	-0.172413	-0.267975	0.003230	-0.006576	0.016863
523	2.632308	0.005000	9.690223	1.171028	1.689377	0.501429	-0.173177	-0.266834	0.002628	0.000271	0.001672
524	2.637308	0.005000	9.653040	1.137317	1.726560	0.501094	-0.173400	-0.267706	0.002497	-0.016096	0.003383
525	2.642308	0.005000	9.646717	1.059480	1.641757	0.500759	-0.173623	-0.268578	-0.004082	-0.008684	0.000173
526	2.647308	0.005000	9.647488	1.143512	1.547015	0.500425	-0.173846	-0.269450	0.005668	-0.007569	0.000916
527	2.652308	0.005000	9.605873	1.145887	1.616767	0.500090	-0.174069	-0.270322	0.012127	-0.006335	0.009389
528	2.657308	0.005000	9.613800	1.177200	1.666445	0.499755	-0.174292	-0.271194	0.012930	-0.006821	0.002342
529	2.662308	0.005000	9.626640	1.138679	1.660920	0.499420	-0.174516	-0.272066	0.015430	-0.010908	0.011566
530	2.667308	0.005000	9.653040	1.075016	1.632544	0.499086	-0.174739	-0.272938	0.004699	-0.010256	-0.001570
531	2.672308	0.005000	9.653040	1.155871	1.605421	0.498751	-0.174962	-0.273810	0.000388	-0.018142	-0.000121
532	2.677308	0.005000	9.615161	1.216440	1.607479	0.498416	-0.175185	-0.274682	0.005448	-0.001345	0.005246
533	2.682308	0.005000	9.551884	1.177200	1.625404	0.498082	-0.175408	-0.275554	0.002655	-0.004065	0.014355
534	2.687308	0.005000	9.678399	1.163319	1.675842	0.497747	-0.175631	-0.276426	0.007336	-0.010426	0.011404
535	2.692308	0.005000	9.586027	1.036545	1.648080	0.497412	-0.175854	-0.277298	0.007275	-0.010274	0.003535
536	2.697308	0.005000	9.722565	1.116631	1.648080	0.497078	-0.176077	-0.278170	0.008564	-0.009368	0.003302
537	2.702308	0.005000	9.600670	1.137960	1.648080	0.497559	-0.175030	-0.278333	0.005807	-0.003686	0.009994
538	2.707308	0.005000	9.552081	1.243109	1.608840	0.498229	-0.173692	-0.278333	0.003358	-0.011876	0.007430
539	2.712308	0.005000	9.651678	1.101444	1.534446	0.498898	-0.172353	-0.278333	-0.000699	-0.014138	0.004913
540	2.717308	0.005000	9.537408	1.139004	1.609884	0.499567	-0.171014	-0.278333	0.006295	-0.008954	-0.002125
541	2.722308	0.005000	9.538739	1.137960	1.537198	0.500237	-0.169676	-0.278333	0.001148	-0.018676	0.014179
542	2.727308	0.005000	9.607991	1.053671	1.597222	0.500906	-0.168337	-0.278333	-0.001877	-0.003767	0.006705
543	2.732308	0.005000	9.692280	1.090437	1.687320	0.501575	-0.166998	-0.278333	0.000404	-0.004177	0.007527
544	2.737308	0.005000	9.624498	1.088022	1.551755	0.502245	-0.165660	-0.278333	0.002350	0.005935	0.019268
545	2.742308	0.005000	9.574560	1.098720	1.595422	0.502914	-0.164321	-0.278333	-0.001518	-0.004576	0.007642
546	2.747308	0.005000	9.551113	1.028378	1.624633	0.503583	-0.162982	-0.278333	-0.005685	-0.004254	0.011444
547	2.752308	0.005000	9.556377	1.056606	1.648080	0.504253	-0.161644	-0.278333	-0.001312	0.000350	0.013321
548	2.757308	0.005000	9.555878	1.113651	1.664886	0.504922	-0.160305	-0.278333	0.009573	-0.001764	0.010937
549	2.762308	0.005000	9.574560	1.153990	1.671290	0.505591	-0.158966	-0.278333	-0.006015	-0.001175	0.008317
550	2.767308	0.005000	9.692280	1.124497	1.714246	0.506164	-0.158209	-0.278982	0.001688	-0.014143	0.004891
551	2.772308	0.005000	9.720447	1.149033	1.704414	0.506610	-0.158209	-0.280477	0.005138	-0.008573	0.008601
552	2.777308	0.005000	9.644342	1.159804	1.539058	0.507056	-0.158209	-0.281972	0.001766	-0.009063	-0.007801
553	2.782308	0.005000	9.640424	1.072096	1.693628	0.507502	-0.158209	-0.283467	0.004163	-0.013063	0.007430
554	2.787308	0.005000	9.613800	1.177200	1.644574	0.507949	-0.158209	-0.284962	-0.001531	0.004740	0.006762
555	2.792308	0.005000	9.576764	1.215338	1.687320	0.508395	-0.158209	-0.286457	0.014650	0.001153	0.001775
556	2.797308	0.005000	9.653040	1.139261	1.649381	0.508841	-0.158209	-0.287952	0.008352	-0.007759	0.004641
557	2.802308	0.005000	9.763319	1.177200	1.640639	0.509287	-0.158209	-0.289446	0.010436	0.000127	0.006091
558	2.807308	0.005000	9.592971	1.171063	1.687320	0.509734	-0.158209	-0.290941	0.013139	0.000604	0.014043
559	2.812308	0.005000	9.752940	1.207530	1.617750	0.510180	-0.158209	-0.292436	0.001787	-0.000701	-0.001800
560	2.817308	0.005000	9.703565	1.193870	1.687320	0.510626	-0.158209	-0.293931	0.013168	-0.002423	0.011363
561	2.822308	0.005000	9.692280	1.126390	1.648080	0.511072	-0.158209	-0.295426	0.006030	-0.006698	0.008666
562	2.827308	0.005000	9.646288	1.183952	1.615592	0.511518	-0.158209	-0.296921	0.005994	-0.006384	0.004077
563	2.832308	0.005000	9.616704	1.040586	1.665522	0.511928	-0.158184	-0.298333	-0.006496	-0.008748	0.000851
564	2.837308	0.005000	9.653040	1.080764	1.630124	0.511705	-0.157738	-0.298333	-0.011788	-0.009082	0.007615
565	2.842308	0.005000	9.653040	1.083425	1.702615	0.511481	-0.157292	-0.298333	0.000541	-0.008267	0.009183
566	2.847308	0.005000	9.573978	1.020240	1.609422	0.511258	-0.156846	-0.298333	0.003971	-0.000491	-0.002599
567	2.852308	0.005000	9.553866	1.127613	1.676973	0.511035	-0.156399	-0.298333	0.003815	-0.004614	0.001318
568	2.857308	0.005000	9.598476	1.137960	1.789096	0.510812	-0.155953	-0.298333	-0.006926	-0.007474	0.006326
569	2.862308	0.005000	9.681086	1.143557	1.732157	0.510589	-0.155507	-0.298333	-0.000640	-0.013315	0.004212
570	2.867308	0.005000	9.617007	1.177200	1.720146	0.510366	-0.155061	-0.298333	-0.001527	-0.017514	0.023011
571	2.872308	0.005000	9.613800	1.097985	1.687687	0.510143	-0.154615	-0.298333	0.002467	-0.015287	0.003735
572	2.877308	0.005000	9.688256	1.057468	1.652104	0.509920	-0.154168	-0.298333	0.007114	-0.011281	0.012630
573	2.882308	0.005000	9.613800	1.068387	1.726560	0.509697	-0.153722	-0.298333	0.001603	-0.002884	0.019155
574	2.887308	0.005000	9.574560	1.131101	1.680461	0.509473	-0.153276	-0.298333	-0.001168	-0.006400	0.002959
575	2.892308	0.005000	9.643419	1.137960	1.638459	0.509250	-0.152830	-0.298333	0.003039	-0.007941	0.007545
576	2.897308	0.005000	9.692280	1.177200	1.648080	0.509027	-0.152383	-0.298333	0.000909	-0.010276	-0.001207
577	2.902308	0.005000	9.585028	1.148428	1.580068	0.508880	-0.152465	-0.298333	0.004767	-0.008458	0.007429
578	2.907308	0.005000	9.692280	1.149637	1.648080	0.508768	-0.152800	-0.298333	-0.005363	0.000304	0.018839
579	2.912308	0.005000	9.535320	1.157580	1.530360	0.508657	-0.153135	-0.298333	0.002248	-0.004371	0.010796
580	2.917308	0.005000	9.500830	1.125465	1.586845	0.508545	-0.153469	-0.298333	-0.006850	-0.009029	0.014707
581	2.922308	0.005000	9.613800	1.167670	1.717030	0.508433	-0.153804	-0.298333	-0.001397	-0.005342	0.008897
582	2.927308	0.005000	9.653040	1.150116	1.738716	0.508322	-0.154139	-0.298333	0.001106	-0.009659	0.020263
583	2.932308	0.005000	9.613800	1.049731	1.775794	0.508210	-0.154473	-0.298333	0.014555	-0.002890	0.006800
584	2.937308	0.005000	9.731520	1.034732	1.797794	0.508099	-0.154808	-0.298333	0.002716	-0.014421	0.016786
585	2.942308	0.005000	9.692280	1.064351	1.652951	0.507987	-0.155142	-0.298333	-0.001980	-0.017723	0.008181
586	2.947308	0.005000	9.616281	1.022721	1.765800	0.507876	-0.155477	-0.298333	0.013410	-0.016605	0.016162
587	2.952308	0.005000	9.575286	1.098357	1.726923	0.507764	-0.155812	-0.298333	0.005916	-0.015705	0.007201
588	2.957308	0.005000	9.496080	1.216440	1.577814	0.507653	-0.156146	-0.298333	-0.006095	-0.012620	0.006317
589	2.962308	0.005000	9.564334	1.216440	1.658306	0.507541	-0.156481	-0.298333	0.004075	-0.015042	0.008069
590	2.967308	0.005000	9.598618	1.169609	1.711378	0.507529	-0.156683	-0.298148	0.004232	-0.007093	0.009669
591	2.972308	0.005000	9.584558	1.216440	1.775047	0.507753	-0.156571	-0.297525	0.007631	-0.009996	0.012084
592	2.977308	0.005000	9.601078	1.242958	1.753078	0.507976	-0.156460	-0.296902	0.000063	-0.012111	0.006137
593	2.982308	0.005000	9.589672	1.168184	1.566680	0.508199	-0.156348	-0.296279	-0.001092	-0.013347	0.000733
594	2.987308	0.005000	9.627021	1.155447	1.617372	0.508422	-0.156237	-0.295656	-0.000609	-0.014486	0.005563
595	2.992308	0.005000	9.631951	1.117850	1.707430	0.508645	-0.156125	-0.295033	0.003289	-0.010407	0.003665
596	2.997308	0.005000	9.703885	1.199721	1.648080	0.508868	-0.156014	-0.294411	0.003748	-0.018807	0.010404
597	3.002308	0.005000	9.678136	1.109672	1.605648	0.509091	-0.155902	-0.293788	0.000081	-0.009957	0.005192
598	3.007308	0.005000	9.613800	1.122228	1.569600	0.509314	-0.155791	-0.293165	0.003171	-0.012607	0.002429
599	3.012308	0.005000	9.703383	1.236922	1.578979	0.509537	-0.155679	-0.292542	0.009507	-0.012700	0.010719
600	3.017308	0.005000	9.613800	1.137960	1.608840	0.509761	-0.155568	-0.291919	-0.001049	-0.007800	0.010536
601	3.022308	0.005000	9.582850	1.094575	1.679030	0.509984	-0.155456	-0.291296	0.011466	-0.015953	0.010832
602	3.027308	0.005000	9.653040	1.136190	1.610610	0.510207	-0.155345	-0.290674	-0.000174	-0.011170	0.003752
603	3.032308	0.005000	9.614874	1.022388	1.495416	0.510430	-0.155233	-0.290051	0.001367	-0.003345	0.005197
604	3.037308	0.005000	9.610336	1.095256	1.644616	0.510345	-0.155224	-0.290114	0.003692	-0.006968	0.008243
605	3.042308	0.005000	9.613800	1.114604	1.575439	0.510234	-0.155224	-0.290239	0.005760	-0.001019	0.000906
606	3.047308	0.005000	9.723291	1.146189	1.569600	0.510122	-0.155224	-0.290364	0.015351	0.000274	0.009870
607	3.052308	0.005000	9.596025	1.127228	1.598108	0.510011	-0.155224	-0.290488	0.009141	-0.002186	0.004260
608	3.057308	0.005000	9.547664	1.163752	1.635736	0.509899	-0.155224	-0.290613	0.004772	-0.010970	0.007190
609	3.062308	0.005000	9.637217	1.184794	1.632257	0.509788	-0.155224	-0.290737	-0.003771	-0.004507	0.002988
610	3.067308	0.005000	9.587146	1.156173	1.629867	0.509676	-0.155224	-0.290862	0.005726	-0.002353	0.002954
611	3.072308	0.005000	9.516917	1.177200	1.687320	0.509564	-0.155224	-0.290987	0.004198	-0.009652	0.012107
612	3.077308	0.005000	9.488826	1.216440	1.608840	0.509453	-0.155224	-0.291111	0.000916	-0.008787	-0.005004
613	3.082308	0.005000	9.680200	1.098720	1.687320	0.509341	-0.155224	-0.291236	0.004119	-0.008145	-0.000487
614	3.087308	0.005000	9.585603	1.081566	1.715517	0.509230	-0.155224	-0.291360	0.004170	-0.009163	0.006504
615	3.092308	0.005000	9.627082	1.168547	1.648080	0.509118	-0.155224	-0.291485	0.011629	-0.013072	0.004911
616	3.097308	0.005000	9.547078	1.149718	1.648080	0.509006	-0.155224	-0.291610	0.014568	-0.003648	0.002312
617	3.102308	0.005000	9.542268	1.141434	1.615788	0.508955	-0.155224	-0.291936	0.006862	-0.009680	0.003057
618	3.107308	0.005000	9.651996	1.176156	1.687320	0.508955	-0.155224	-0.292434	0.009443	-0.012630	0.013972
619	3.112308	0.005000	9.651693	1.100067	1.649427	0.508955	-0.155224	-0.292932	0.001523	-0.003902	0.015716
620	3.117308	0.005000	9.598741	1.244385	1.651845	0.508955	-0.155224	-0.293430	0.009054	-0.008130	0.014979
621	3.122308	0.005000	9.659605	1.000696	1.693885	0.508955	-0.155224	-0.293928	0.001763	-0.013382	0.011308
622	3.127308	0.005000	9.465780	1.102199	1.674901	0.508955	-0.155224	-0.294426	-0.003049	-0.007737	-0.007691
623	3.132308	0.005000	9.496080	1.165870	1.586179	0.508955	-0.155224	-0.294924	-0.002315	-0.007037	0.012772
624	3.137308	0.005000	9.613800	1.073185	1.595135	0.508955	-0.155224	-0.295422	-0.007792	-0.000626	0.005671
625	3.142308	0.005000	9.653040	1.177200	1.608840	0.508955	-0.155224	-0.295920	0.003268	-0.011330	0.010745
626	3.147308	0.005000	9.654893	1.139813	1.588294	0.508955	-0.155224	-0.296418	-0.002239	-0.001728	0.009237
627	3.152308	0.005000	9.674354	1.198514	1.587526	0.508955	-0.155224	-0.296916	0.013105	-0.004392	0.009963
628	3.157308	0.005000	9.707816	1.122424	1.718391	0.508955	-0.155224	-0.297414	0.003869	-0.014864	0.009434
629	3.162308	0.005000	9.718601	1.072641	1.726318	0.508955	-0.155224	-0.297912	0.004737	-0.008760	-0.000756
630	3.167308	0.005000	9.700195	1.009798	1.540802	0.509024	-0.155241	-0.298294	-0.005178	-0.015699	-0.001952
631	3.172308	0.005000	9.543355	1.067515	1.577635	0.509470	-0.155353	-0.298045	-0.006192	-0.003803	-0.000583
632	3.177308	0.005000	9.653040	1.143512	1.670665	0.509917	-0.155464	-0.297796	-0.002847	-0.006011	0.011580
633	3.182308	0.005000	9.499257	1.177200	1.572777	0.510363	-0.155576	-0.297547	0.004734	-0.002752	0.007836
634	3.187308	0.005000	9.613800	1.176863	1.609850	0.510809	-0.155687	-0.297298	0.007443	-0.000973	0.006516
635	3.192308	0.005000	9.576617	1.175143	1.615012	0.511255	-0.155799	-0.297049	0.012532	0.011278	0.000021
636	3.197308	0.005000	9.535320	1.142392	1.722128	0.511701	-0.155910	-0.296800	0.006518	-0.005462	0.008448
637	3.202308	0.005000	9.710813	1.184102	1.733462	0.512148	-0.156022	-0.296551	0.012132	-0.009774	0.005102
638	3.207308	0.005000	9.563246	1.078097	1.558286	0.512594	-0.156133	-0.296301	0.003944	-0.002976	0.002967
639	3.212308	0.005000	9.553594	1.137960	1.687320	0.513040	-0.156245	-0.296052	0.008757	-0.009875	0.013854
640	3.217308	0.005000	9.628231	1.137960	1.701751	0.513486	-0.156356	-0.295803	0.002622	-0.011242	0.022360
641	3.222308	0.005000	9.697907	1.216440	1.681693	0.513933	-0.156468	-0.295554	0.000344	-0.007488	0.002423
642	3.227308	0.005000	9.653040	1.137960	1.746379	0.514379	-0.156579	-0.295305	0.010102	-0.010645	0.008570
643	3.232308	0.005000	9.513488	1.120552	1.674337	0.514825	-0.156691	-0.295056	0.005736	-0.005378	0.013982
644	3.237308	0.005000	9.598975	1.123135	1.672495	0.514665	-0.156543	-0.295193	0.014402	-0.015321	0.011610
645	3.242308	0.005000	9.653040	1.096784	1.699755	0.514331	-0.156320	-0.295442	0.001274	-0.010943	0.014783
646	3.247308	0.005000	9.672161	1.059480	1.628959	0.513996	-0.156097	-0.295692	0.001001	-0.003269	0.009399
647	3.252308	0.005000	9.528020	1.027540	1.601540	0.513661	-0.155874	-0.295941	0.001935	-0.010529	0.017174
648	3.257308	0.005000	9.471492	1.093836	1.574484	0.513327	-0.155650	-0.296190	0.000937	-0.006750	0.010674
649	3.262308	0.005000	9.616280	1.137960	1.692280	0.512992	-0.155427	-0.296439	0.004727	-0.011814	0.000465
650	3.267308	0.005000	9.652889	1.137809	1.687396	0.512658	-0.155204	-0.296688	-0.010784	-0.005122	0.010361
651	3.272308	0.005000	9.648357	1.207074	1.652763	0.512323	-0.154981	-0.296937	-0.000988	-0.005521	0.001925
652	3.277308	0.005000	9.618958	1.250522	1.574758	0.511988	-0.154758	-0.297186	0.006631	-0.005323	0.006720
653	3.282308	0.005000	9.645507	1.137960	1.687320	0.511654	-0.154535	-0.297435	0.006518	-0.011261	0.012814
654	3.287308	0.005000	9.623270	1.187123	1.697243	0.511319	-0.154312	-0.297685	0.003031	-0.014376	0.013323
655	3.292308	0.005000	9.547767	1.032687	1.778247	0.510984	-0.154089	-0.297934	-0.008344	-0.012601	-0.000368
656	3.297308	0.005000	9.565605	1.083578	1.599885	0.510650	-0.153866	-0.298183	0.003089	-0.009924	0.008949
657	3.302308	0.005000	9.578735	1.177200	1.630548	0.510271	-0.153864	-0.298382	0.012735	-0.010810	0.019084
658	3.307308	0.005000	9.613800	1.157867	1.608840	0.509825	-0.154199	-0.298507	0.008780	-0.013505	0.013716
659	3.312308	0.005000	9.602995	1.121278	1.592158	0.509378	-0.154533	-0.298632	0.008291	-0.013177	0.015706
660	3.317308	0.005000	9.599531	1.098720	1.651647	0.508932	-0.154868	-0.298756	0.006172	-0.007731	-0.000254
661	3.322308	0.005000	9.562836	1.110444	1.675596	0.508486	-0.155203	-0.298881	0.000959	-0.019029	0.007389
662	3.327308	0.005000	9.613800	1.117387	1.608840	0.508040	-0.155537	-0.299005	0.004604	-0.002561	0.009695
663	3.332308	0.005000	9.685321	1.124043	1.622757	0.507594	-0.155872	-0.299130	0.003870	-0.005454	0.016185
664	3.337308	0.005000	9.692280	1.163495	1.599703	0.507147	-0.156207	-0.299255	0.000167	-0.004267	0.012588
665	3.342308	0.005000	9.690535	1.177200	1.571345	0.506701	-0.156542	-0.299379	0.007523	-0.016128	-0.008738
666	3.347308	0.005000	9.575861	1.100021	1.724609	0.506255	-0.156876	-0.299504	0.004644	-0.018816	-0.001467
667	3.352308	0.005000	9.725439	1.098720	1.687320	0.505809	-0.157211	-0.299628	0.002588	0.001784	-0.001431
668	3.357308	0.005000	9.613800	1.171719	1.737522	0.505362	-0.157546	-0.299753	0.001430	-0.009850	0.009329
669	3.362308	0.005000	9.613800	1.114489	1.608840	0.504916	-0.157880	-0.299878	0.010013	-0.002615	0.015629
670	3.367308	0.005000	9.681980	1.088420	1.637780	0.504488	-0.158213	-0.299998	0.009799	-0.005994	0.012892
671	3.372308	0.005000	9.640015	1.046289	1.648080	0.505046	-0.158436	-0.299873	0.017924	-0.004200	0.007917
672	3.377308	0.005000	9.550720	1.177200	1.671920	0.505604	-0.158659	-0.299749	0.013029	-0.003834	0.006004
673	3.382308	0.005000	9.653040	1.137960	1.726560	0.506161	-0.158882	-0.299624	0.010184	-0.010184	0.009206
674	3.387308	0.005000	9.613800	1.119128	1.646503	0.506719	-0.159105	-0.299499	0.002515	-0.003732	0.006802
675	3.392308	0.005000	9.646643	1.020240	1.608840	0.507277	-0.159329	-0.299375	0.011281	-0.014882	0.005192
676	3.397308	0.005000	9.639199	1.114846	1.597283	0.507834	-0.159552	-0.299250	0.013219	-0.012265	0.012141
677	3.402308	0.005000	9.630107	1.177200	1.631773	0.508392	-0.159775	-0.299126	0.004962	-0.008479	0.007870
678	3.407308	0.005000	9.544396	1.059480	1.648080	0.508950	-0.159998	-0.299001	0.004193	-0.010877	0.010901
679	3.412308	0.005000	9.692280	1.065788	1.569600	0.509508	-0.160221	-0.298876	0.003307	-0.008102	0.006182
680	3.417308	0.005000	9.692280	1.094817	1.722657	0.510065	-0.160444	-0.298752	0.012761	-0.013650	0.010830
681	3.422308	0.005000	9.612333	1.136493	1.687320	0.510623	-0.160667	-0.298627	0.003360	-0.012442	0.007321
682	3.427308	0.005000	9.612881	1.098720	1.648999	0.511181	-0.160890	-0.298503	0.001336	-0.017014	0.003735
683	3.432308	0.005000	9.574560	1.170527	1.687320	0.511739	-0.161113	-0.298378	0.007770	-0.016384	0.009554
684	3.437308	0.005000	9.568819	1.098720	1.720819	0.511797	-0.160980	-0.298413	-0.007743	0.000293	0.004978
685	3.442308	0.005000	9.583077	1.137960	1.718043	0.511574	-0.160645	-0.298537	0.004034	-0.012075	0.016232
686	3.447308	0.005000	9.524413	1.137960	1.569600	0.511351	-0.160311	-0.298662	0.001043	-0.017257	0.003722
687	3.452308	0.005000	9.639758	1.177200	1.582882	0.511128	-0.159976	-0.298786	0.002731	-0.002295	0.011658
688	3.457308	0.005000	9.645144	1.153632	1.593168	0.510905	-0.159641	-0.298911	0.008602	-0.001506	0.013749
689	3.462308	0.005000	9.653040	1.156007	1.587647	0.510682	-0.159307	-0.299036	0.000951	-0.001873	0.003533
690	3.467308	0.005000	9.555989	1.177200	1.532457	0.510459	-0.158972	-0.299160	-0.002903	-0.013679	0.009771
691	3.472308	0.005000	9.574560	1.098720	1.546521	0.510236	-0.158637	-0.299285	-0.001916	-0.011774	0.007650
692	3.477308	0.005000	9.600216	1.150032	1.608840	0.510013	-0.158302	-0.299409	0.003559	-0.011595	0.015730
693	3.482308	0.005000	9.636219	1.126751	1.569600	0.509789	-0.157968	-0.299534	0.007507	-0.000612	0.000174
694	3.487308	0.005000	9.700743	1.177200	1.648080	0.509566	-0.157633	-0.299659	0.002314	-0.014208	0.001023
695	3.492308	0.005000	9.535320	1.092672	1.660175	0.509343	-0.157298	-0.299783	0.000506	-0.012189	0.024228
696	3.497308	0.005000	9.581845	1.141602	1.640795	0.509120	-0.156964	-0.299908	-0.005789	-0.009856	0.011749
697	3.502308	0.005000	9.616220	1.097510	1.568390	0.509042	-0.156774	-0.300000	0.004734	-0.008332	0.012496
698	3.507308	0.005000	9.730341	1.059480	1.568421	0.509377	-0.156997	-0.300000	-0.004612	-0.010634	0.011283
699	3.512308	0.005000	9.656636	0.991789	1.608840	0.509711	-0.157220	-0.300000	-0.000746	-0.011069	-0.001361
700	3.517308	0.005000	9.646641	1.079524	1.707364	0.510046	-0.157443	-0.300000	0.004532	-0.009799	0.022224
701	3.522308	0.005000	9.613800	1.068254	1.656854	0.510381	-0.157666	-0.300000	0.004399	0.002443	0.010156
702	3.527308	0.005000	9.518408	1.137960	1.530360	0.510716	-0.157890	-0.300000	0.009836	-0.004459	0.019975
703	3.532308	0.005000	9.600097	1.073183	1.687320	0.511050	-0.158113	-0.300000	0.009784	0.004183	0.010370
704	3.537308	0.005000	9.685271	1.075595	1.608840	0.511385	-0.158336	-0.300000	0.004617	-0.007007	0.005298
705	3.542308	0.005000	9.554093	1.119187	1.588373	0.511720	-0.158559	-0.300000	0.000983	-0.001381	0.011619
706	3.547308	0.005000	9.532264	1.159108	1.663116	0.512054	-0.158782	-0.300000	-0.009737	-0.007808	0.014087
707	3.552308	0.005000	9.535320	1.185587	1.624267	0.512389	-0.159005	-0.300000	0.010640	-0.006135	0.020490
708	3.557308	0.005000	9.705294	1.137960	1.596025	0.512724	-0.159228	-0.300000	-0.001234	0.003975	0.015895
709	3.562308	0.005000	9.720910	1.137960	1.601430	0.513059	-0.159451	-0.300000	0.005754	-0.001040	0.015854
710	3.567308	0.005000	9.715114	1.146163	1.617043	0.513393	-0.159674	-0.300000	-0.007576	-0.003222	0.009889
711	3.572308	0.005000	9.496080	1.137960	1.681602	0.512057	-0.160684	-0.297915	-0.001536	-0.011630	-0.001728
712	3.577308	0.005000	9.646354	1.134617	1.615526	0.510496	-0.161799	-0.295549	0.003658	-0.006720	0.009774
713	3.582308	0.005000	9.576466	1.021193	1.647127	0.508935	-0.162914	-0.293183	-0.001065	0.000822	0.000236
714	3.587308	0.005000	9.690389	1.096829	1.646189	0.507374	-0.164029	-0.290818	0.001412	-0.016546	0.003653
715	3.592308	0.005000	9.696546	1.028772	1.683054	0.505813	-0.165144	-0.288452	0.007571	-0.005749	-0.002435
716	3.597308	0.005000	9.588028	1.066214	1.635775	0.504252	-0.166259	-0.286086	0.016362	-0.009033	0.004538
717	3.602308	0.005000	9.583700	1.020240	1.669040	0.502690	-0.167374	-0.283720	0.009103	-0.008021	0.005711
718	3.607308	0.005000	9.641485	1.020240	1.698875	0.501129	-0.168490	-0.281354	0.009769	-0.004314	0.006434
719	3.612308	0.005000	9.663750	1.073745	1.651635	0.499568	-0.169605	-0.278988	0.004778	-0.012978	0.015627
720	3.617308	0.005000	9.630440	1.059480	1.648080	0.498007	-0.170720	-0.276622	-0.002112	-0.010013	0.010898
721	3.622308	0.005000	9.593590	1.020240	1.608840	0.496446	-0.171835	-0.274257	0.006785	-0.012497	0.001501
722	3.627308	0.005000	9.460928	1.037816	1.608840	0.494885	-0.172950	-0.271891	0.002881	0.003090	0.002887
723	3.632308	0.005000	9.535320	1.192366	1.608840	0.493324	-0.174065	-0.269525	0.002418	-0.010945	0.011146
724	3.637308	0.005000	9.666773	1.151693	1.660833	0.493091	-0.174184	-0.269137	0.001413	-0.014853	0.007636
725	3.642308	0.005000	9.731520	1.148186	1.735122	0.494206	-0.173292	-0.270756	-0.001501	-0.007718	-0.010634
726	3.647308	0.005000	9.700116	1.122288	1.608840	0.495322	-0.172399	-0.272376	0.011356	-0.011452	0.004067
727	3.652308	0.005000	9.686819	1.054019	1.603379	0.496438	-0.171507	-0.273995	0.007536	-0.019702	0.006033
728	3.657308	0.005000	9.689631	1.059480	1.538306	0.497553	-0.170614	-0.275615	-0.001383	-0.011000	0.002864
729	3.662308	0.005000	9.614045	1.098720	1.687320	0.498669	-0.169722	-0.277234	-0.003405	-0.007247	0.013926
730	3.667308	0.005000	9.615948	1.098720	1.687320	0.499784	-0.168829	-0.278854	-0.009928	-0.004268	0.005783
731	3.672308	0.005000	9.539843	1.142483	1.543929	0.500900	-0.167937	-0.280473	0.000703	-0.006900	0.004059
732	3.677308	0.005000	9.560572	1.170206	1.648080	0.502016	-0.167045	-0.282093	0.005994	-0.006409	-0.001916
733	3.682308	0.005000	9.654678	1.039041	1.618240	0.503131	-0.166152	-0.283712	0.008200	-0.005275	0.012198
734	3.687308	0.005000	9.590170	1.126145	1.581415	0.504247	-0.165260	-0.285332	0.007045	-0.007710	0.010757
735	3.692308	0.005000	9.599278	1.148156	1.629231	0.505363	-0.164367	-0.286951	0.003574	-0.007065	0.009326
736	3.697308	0.005000	9.692280	1.154857	1.687320	0.506478	-0.163475	-0.288571	0.004982	-0.009553	0.008735
737	3.702308	0.005000	9.770760	1.157687	1.588899	0.507515	-0.162622	-0.290044	-0.004956	-0.010228	0.006230
738	3.707308	0.005000	9.692280	1.177200	1.626156	0.507962	-0.162064	-0.290418	0.012833	-0.004274	0.006720
739	3.712308	0.005000	9.707014	1.201706	1.716788	0.508408	-0.161506	-0.290791	0.014068	0.002904	0.009295
740	3.717308	0.005000	9.626144	1.204096	1.765800	0.508854	-0.160948	-0.291165	0.011606	-0.011008	0.006784
741	3.722308	0.005000	9.643071	1.147293	1.618173	0.509300	-0.160390	-0.291539	0.013098	-0.009864	0.005822
742	3.727308	0.005000	9.582139	1.137960	1.569600	0.509746	-0.159832	-0.291912	0.003258	-0.007192	-0.001083
743	3.732308	0.005000	9.623384	1.142752	1.657664	0.510193	-0.159275	-0.292286	0.005407	-0.010553	0.010217
744	3.737308	0.005000	9.576947	1.140347	1.758638	0.510639	-0.158717	-0.292660	0.003577	-0.006433	0.013471
745	3.742308	0.005000	9.653010	1.177200	1.608870	0.511085	-0.158159	-0.293034	0.005391	-0.015625	0.008333
746	3.747308	0.005000	9.537754	1.211571	1.606406	0.511531	-0.157601	-0.293407	-0.001348	-0.002264	0.008103
747	3.752308	0.005000	9.682577	1.260531	1.721709	0.511978	-0.157043	-0.293781	0.002475	-0.014239	0.003639
748	3.757308	0.005000	9.723893	1.201186	1.648080	0.512424	-0.156486	-0.294155	0.004580	-0.009330	-0.002921
749	3.762308	0.005000	9.555348	1.108734	1.668108	0.512870	-0.155928	-0.294529	-0.003258	-0.012195	-0.003914
750	3.767308	0.005000	9.574560	1.137960	1.660469	0.513316	-0.155370	-0.294902	-0.004311	-0.014966	0.005327
751	3.772308	0.005000	9.583896	1.152912	1.653697	0.513104	-0.155224	-0.294908	-0.005483	-0.013928	0.004024
752	3.777308	0.005000	9.692280	1.081358	1.586962	0.512657	-0.155224	-0.294783	-0.006761	-0.007326	0.012176
753	3.782308	0.005000	9.692280	1.158715	1.568844	0.512211	-0.155224	-0.294659	-0.001124	-0.009099	0.023782
754	3.787308	0.005000	9.653040	1.160348	1.614377	0.511765	-0.155224	-0.294534	0.005966	-0.005018	0.006026
755	3.792308	0.005000	9.624087	1.187487	1.637793	0.511319	-0.155224	-0.294410	0.004566	-0.009789	0.012679
756	3.797308	0.005000	9.562791	1.153662	1.659849	0.510872	-0.155224	-0.294285	0.000216	-0.009807	0.007145
757	3.802308	0.005000	9.563384	1.108075	1.588309	0.510426	-0.155224	-0.294160	-0.001582	-0.018471	0.007559
758	3.807308	0.005000	9.699148	1.117357	1.523492	0.509980	-0.155224	-0.294036	0.006517	-0.011642	0.013237
759	3.812308	0.005000	9.687802	1.146915	1.460835	0.509534	-0.155224	-0.293911	0.010971	-0.007554	0.001232
760	3.817308	0.005000	9.578765	1.057377	1.608840	0.509087	-0.155224	-0.293787	0.005198	-0.008791	0.007183
761	3.822308	0.005000	9.537544	1.097238	1.647339	0.508641	-0.155224	-0.293662	0.000176	-0.006333	0.006895
762	3.827308	0.005000	9.649909	1.095589	1.503645	0.508195	-0.155224	-0.293537	0.003708	-0.014897	0.006637
763	3.832308	0.005000	9.613800	1.177200	1.603334	0.507749	-0.155224	-0.293413	0.012926	-0.006604	0.013497
764	3.837308	0.005000	9.723531	1.121982	1.695309	0.507503	-0.155264	-0.293423	0.023591	-0.002778	0.003363
765	3.842308	0.005000	9.721124	1.127564	1.656133	0.507615	-0.155376	-0.293672	0.015158	-0.007756	0.021183
766	3.847308	0.005000	9.626915	1.124951	1.648080	0.507726	-0.155487	-0.293921	0.007120	0.001021	0.001409
767	3.852308	0.005000	9.653040	1.067709	1.648080	0.507837	-0.155598	-0.294170	0.016499	-0.008248	0.003815
768	3.857308	0.005000	9.617279	1.041600	1.665960	0.507949	-0.155710	-0.294419	0.011708	-0.002239	0.005295
769	3.862308	0.005000	9.693551	1.177200	1.646809	0.508060	-0.155821	-0.294668	0.013089	-0.004621	0.008266
770	3.867308	0.005000	9.590890	1.232770	1.719979	0.508172	-0.155933	-0.294917	0.012927	-0.005275	0.001816
771	3.872308	0.005000	9.613800	1.149366	1.777206	0.508283	-0.156044	-0.295166	0.003328	-0.008461	0.007925
772	3.877308	0.005000	9.641531	1.082498	1.754291	0.508395	-0.156156	-0.295415	0.006577	-0.002968	0.018163
773	3.882308	0.005000	9.635069	1.186186	1.678334	0.508506	-0.156267	-0.295664	0.002311	0.000915	0.003492
774	3.887308	0.005000	9.574560	1.098720	1.759189	0.508618	-0.156379	-0.295913	0.006909	-0.003728	0.006422
775	3.892308	0.005000	9.644599	1.203779	1.792379	0.508729	-0.156490	-0.296163	-0.008057	0.001452	0.009736
776	3.897308	0.005000	9.538106	1.097327	1.727953	0.508841	-0.156602	-0.296412	-0.002006	-0.013965	-0.000364
777	3.902308	0.005000	9.575558	1.097722	1.804042	0.508952	-0.156713	-0.296661	0.011105	-0.008836	0.013276
778	3.907308	0.005000	9.613800	1.062868	1.622394	0.509390	-0.157042	-0.296667	0.001044	-0.009535	0.000125
779	3.912308	0.005000	9.574560	1.110386	1.648080	0.509836	-0.157377	-0.296667	0.002655	-0.013988	0.012024
780	3.917308	0.005000	9.613800	1.137960	1.749302	0.510282	-0.157712	-0.296667	-0.001793	-0.007849	0.006055
781	3.922308	0.005000	9.556632	1.155888	1.697976	0.510729	-0.158046	-0.296667	0.005693	-0.009779	0.004962
782	3.927308	0.005000	9.717270	1.125465	1.739932	0.511175	-0.158381	-0.296667	0.003632	-0.008409	0.004481
783	3.932308	0.005000	9.668803	1.075243	1.687320	0.511621	-0.158716	-0.296667	0.006710	-0.007532	0.003325
784	3.937308	0.005000	9.553677	1.098720	1.569600	0.512067	-0.159050	-0.296667	-0.002941	-0.012202	0.006589
785	3.942308	0.005000	9.498376	1.137960	1.553423	0.512513	-0.159385	-0.296667	-0.001315	-0.007900	0.003198
786	3.947308	0.005000	9.574560	1.137960	1.506988	0.512960	-0.159720	-0.296667	0.006905	-0.012079	0.001633
787	3.952308	0.005000	9.535320	1.190693	1.583093	0.513406	-0.160055	-0.296667	0.003665	-0.004633	0.007652
788	3.957308	0.005000	9.709283	1.166081	1.648080	0.513852	-0.160389	-0.296667	-0.003418	-0.009456	0.004484
789	3.962308	0.005000	9.653040	1.152086	1.608840	0.514298	-0.160724	-0.296667	0.010031	-0.011246	0.016600
790	3.967308	0.005000	9.580516	1.155827	1.551733	0.514745	-0.161059	-0.296667	0.014988	-0.011028	-0.001125
791	3.972308	0.005000	9.606781	1.209421	1.533870	0.514659	-0.160928	-0.296741	0.006183	-0.011623	0.007128
792	3.977308	0.005000	9.616039	1.177200	1.646961	0.514213	-0.160482	-0.296866	0.008858	-0.004448	0.003167
793	3.982308	0.005000	9.730249	1.215169	1.722748	0.513767	-0.160036	-0.296990	0.009797	-0.012394	0.005157
794	3.987308	0.005000	9.617899	1.102819	1.643981	0.513321	-0.159590	-0.297115	0.003494	-0.012316	0.015013
795	3.992308	0.005000	9.522038	1.170710	1.628309	0.512874	-0.159143	-0.297239	0.008170	-0.011256	0.007719
796	3.997308	0.005000	9.496080	1.168335	1.648080	0.512428	-0.158697	-0.297364	0.009152	-0.011459	-0.004874
797	4.002308	0.005000	9.524065	1.109975	1.620095	0.511982	-0.158251	-0.297488	-0.002945	-0.005469	0.000934
798	4.007308	0.005000	9.613800	1.098720	1.636429	0.511536	-0.157805	-0.297613	0.004284	-0.005818	0.001632
799	4.012308	0.005000	9.597326	1.160726	1.625314	0.511089	-0.157358	-0.297737	0.000967	0.002094	-0.001535
800	4.017308	0.005000	9.593424	1.098720	1.688833	0.510643	-0.156912	-0.297862	0.009260	-0.000605	-0.005253
801	4.022308	0.005000	9.574560	1.177200	1.666081	0.510197	-0.156466	-0.297986	0.008595	0.001736	0.006473
802	4.027308	0.005000	9.589895	1.177200	1.602076	0.509751	-0.156020	-0.298111	0.003536	-0.010276	0.000820
803	4.032308	0.005000	9.587956	1.125038	1.556204	0.509304	-0.155573	-0.298235	0.006371	-0.012857	0.021183
804	4.037308	0.005000	9.663432	1.077935	1.627295	0.509003	-0.155297	-0.298279	-0.004987	-0.013461	0.001570
805	4.042308	0.005000	9.661042	1.137960	1.616842	0.509226	-0.155631	-0.298030	0.003086	-0.010249	0.002897
806	4.047308	0.005000	9.653040	1.126705	1.625571	0.509450	-0.155966	-0.297781	0.004201	-0.010872	0.010427
807	4.052308	0.005000	9.653040	1.065112	1.614472	0.509673	-0.156300	-0.297532	-0.004532	-0.012523	0.007991
808	4.057308	0.005000	9.614213	1.099133	1.686907	0.509896	-0.156635	-0.297283	0.003395	-0.013448	0.004159
809	4.062308	0.005000	9.541265	1.175218	1.610822	0.510119	-0.156970	-0.297033	-0.002129	0.001287	0.004405
810	4.067308	0.005000	9.653040	1.251271	1.613249	0.510342	-0.157304	-0.296784	0.009764	-0.007178	-0.003872
811	4.072308	0.005000	9.620626	1.151611	1.700971	0.510565	-0.157639	-0.296535	0.003030	-0.007388	0.005646
812	4.077308	0.005000	9.584151	1.137960	1.579191	0.510788	-0.157974	-0.296286	0.002062	-0.005727	0.001909
813	4.082308	0.005000	9.656383	1.137960	1.581566	0.511011	-0.158308	-0.296037	0.007152	-0.003503	0.018257
814	4.087308	0.005000	9.667564	1.113244	1.633556	0.511234	-0.158643	-0.295788	-0.001317	-0.003615	0.002207
815	4.092308	0.005000	9.675080	1.155160	1.714201	0.511458	-0.158977	-0.295539	-0.003598	-0.013352	0.005416
816	4.097308	0.005000	9.594044	1.157625	1.746135	0.511681	-0.159312	-0.295290	-0.001939	-0.008087	0.016612
817	4.102308	0.005000	9.618489	1.159925	1.648080	0.511904	-0.159647	-0.295040	-0.000952	-0.010739	0.010883
818	4.107308	0.005000	9.589460	1.147399	1.638641	0.511847	-0.159514	-0.295313	0.006826	-0.005413	0.020789
819	4.112308	0.005000	9.628645	1.108270	1.533008	0.511735	-0.159291	-0.295687	-0.000539	-0.009384	0.008301
820	4.117308	0.005000	9.574453	1.098720	1.569707	0.511624	-0.159068	-0.296061	0.012813	-0.018124	0.007345
821	4.122308	0.005000	9.738811	1.130669	1.537651	0.511512	-0.158845	-0.296434	0.003683	-0.001758	0.010137
822	4.127308	0.005000	9.692280	1.133059	1.594136	0.511400	-0.158622	-0.296808	0.010549	-0.008605	0.016930
823	4.132308	0.005000	9.617964	1.061562	1.530360	0.511289	-0.158399	-0.297182	0.006598	-0.004637	0.013070
824	4.137308	0.005000	9.692280	1.098720	1.608205	0.511177	-0.158175	-0.297555	0.007006	-0.000764	0.010328
825	4.142308	0.005000	9.616508	1.062188	1.687320	0.511066	-0.157952	-0.297929	0.004060	-0.006793	0.015128
826	4.147308	0.005000	9.579704	1.093576	1.687320	0.510954	-0.157729	-0.298303	0.012250	-0.002343	0.009666
827	4.152308	0.005000	9.504007	1.043627	1.710707	0.510843	-0.157506	-0.298677	0.014757	-0.004629	0.005040
828	4.157308	0.005000	9.485763	1.137960	1.493147	0.510731	-0.157283	-0.299050	0.002158	-0.004585	0.003695
829	4.162308	0.005000	9.588417	1.177200	1.556908	0.510620	-0.157060	-0.299424	0.009468	-0.008454	0.006328
830	4.167308	0.005000	9.716453	1.113787	1.521253	0.510508	-0.156837	-0.299798	0.010699	-0.001488	0.017724
831	4.172308	0.005000	9.617718	1.041819	1.634337	0.510243	-0.156665	-0.299714	0.004959	-0.004880	0.011890
832	4.177308	0.005000	9.692280	1.079552	1.648080	0.509797	-0.156553	-0.299091	0.000503	-0.015645	0.006888
833	4.182308	0.005000	9.659151	1.131849	1.648080	0.509351	-0.156442	-0.298468	0.000429	0.000323	0.010988
834	4.187308	0.005000	9.546212	1.188092	1.726560	0.508905	-0.156330	-0.297846	0.006414	-0.012513	0.003896
835	4.192308	0.005000	9.558918	1.188999	1.714761	0.508458	-0.156219	-0.297223	-0.000494	-0.010479	0.012969
836	4.197308	0.005000	9.514898	1.246271	1.698333	0.508012	-0.156107	-0.296600	-0.000129	-0.005902	0.010442
837	4.202308	0.005000	9.541965	1.216440	1.687320	0.507566	-0.155996	-0.295977	0.007884	-0.013012	0.011125
838	4.207308	0.005000	9.566180	1.216440	1.753229	0.507120	-0.155884	-0.295354	0.000441	-0.009230	-0.002903
839	4.212308	0.005000	9.497880	1.175400	1.687320	0.506673	-0.155773	-0.294731	-0.003594	-0.008673	0.010884
840	4.217308	0.005000	9.651295	1.099302	1.764636	0.506227	-0.155661	-0.294109	0.005128	-0.000267	0.005926
841	4.222308	0.005000	9.692280	1.095301	1.794784	0.505781	-0.155550	-0.293486	-0.008454	-0.007939	0.001000
842	4.227308	0.005000	9.641422	1.137960	1.614649	0.505335	-0.155438	-0.292863	0.003367	0.003732	0.015669
843	4.232308	0.005000	9.566376	1.216440	1.633391	0.504889	-0.155327	-0.292240	0.005415	0.001453	0.009490
844	4.237308	0.005000	9.653040	1.098720	1.541058	0.504523	-0.155358	-0.291667	0.010293	-0.013267	0.007256
845	4.242308	0.005000	9.718414	1.098720	1.621946	0.505080	-0.157031	-0.291667	0.006349	-0.002732	0.003536
846	4.247308	0.005000	9.653040	1.177200	1.718906	0.505638	-0.158705	-0.291667	0.007501	-0.003096	0.008698
847	4.252308	0.005000	9.616674	1.132212	1.765800	0.506196	-0.160378	-0.291667	0.011490	-0.006269	0.022093
848	4.257308	0.005000	9.613800	1.119278	1.784482	0.506754	-0.162051	-0.291667	0.022176	-0.007011	0.014019
849	4.262308	0.005000	9.692280	1.160893	1.710253	0.507311	-0.163725	-0.291667	0.019248	-0.009281	0.003173
850	4.267308	0.005000	9.653040	1.190821	1.675321	0.507869	-0.165398	-0.291667	0.011903	-0.004893	0.002808
851	4.272308	0.005000	9.613800	1.137960	1.597633	0.508427	-0.167072	-0.291667	0.014035	-0.016470	0.008435
852	4.277308	0.005000	9.653040	1.151106	1.704716	0.508985	-0.168745	-0.291667	0.013264	-0.006142	0.004702
853	4.282308	0.005000	9.607492	1.046864	1.687320	0.509542	-0.170418	-0.291667	0.002930	-0.012518	0.008915
854	4.287308	0.005000	9.578493	1.024173	1.722627	0.510100	-0.172092	-0.291667	0.002720	-0.007918	0.013183
855	4.292308	0.005000	9.730418	1.136858	1.688422	0.510658	-0.173765	-0.291667	-0.004368	-0.006748	-0.005746
856	4.297308	0.005000	9.730219	1.060781	1.650682	0.511216	-0.175439	-0.291667	-0.004173	-0.017568	-0.005323
857	4.302308	0.005000	9.574560	1.137960	1.758448	0.511773	-0.177112	-0.291667	-0.002937	-0.003188	0.002394
858	4.307308	0.005000	9.646903	1.171063	1.732697	0.511862	-0.176205	-0.291580	-0.006468	-0.013212	-0.005679
859	4.312308	0.005000	9.543863	1.146503	1.678777	0.511750	-0.174197	-0.291455	-0.007090	-0.009045	0.004283
860	4.317308	0.005000	9.552644	1.137960	1.608840	0.511639	-0.172190	-0.291331	-0.009549	-0.008455	0.007733
861	4.322308	0.005000	9.586450	1.165310	1.504795	0.511527	-0.170183	-0.291206	-0.003676	-0.014931	0.013633
862	4.327308	0.005000	9.715470	1.154010	1.576740	0.511416	-0.168176	-0.291082	-0.016138	-0.014551	0.012413
863	4.332308	0.005000	9.731520	1.137960	1.627496	0.511305	-0.166169	-0.290957	0.007055	-0.017182	0.012037
864	4.337308	0.005000	9.616694	1.122680	1.648080	0.511193	-0.164162	-0.290832	-0.000210	-0.014808	0.011193
865	4.342308	0.005000	9.535320	1.169122	1.554019	0.511082	-0.162155	-0.290708	0.004474	-0.021396	0.009163
866	4.347308	0.005000	9.534987	1.229631	1.622031	0.510970	-0.160147	-0.290583	-0.001762	-0.007910	0.007636
867	4.352308	0.005000	9.585376	1.234048	1.676504	0.510859	-0.158140	-0.290459	-0.003299	-0.004332	0.004182
868	4.357308	0.005000	9.574560	1.169132	1.648080	0.510747	-0.156133	-0.290334	0.010964	-0.009856	0.007700
869	4.362308	0.005000	9.557708	1.143557	1.709769	0.510636	-0.154126	-0.290210	0.000578	-0.008989	0.006380
870	4.367308	0.005000	9.656247	1.262094	1.674492	0.510524	-0.152119	-0.290085	0.009748	-0.005947	0.006568
871	4.372308	0.005000	9.652208	1.217272	1.532024	0.510519	-0.150958	-0.290079	0.012485	-0.007729	0.007156
872	4.377308	0.005000	9.613800	1.105025	1.646504	0.510742	-0.151627	-0.290328	0.004011	-0.013611	0.004728
873	4.382308	0.005000	9.613800	0.989804	1.682918	0.510965	-0.152296	-0.290577	0.009819	-0.010808	0.006756
874	4.387308	0.005000	9.555651	1.052703	1.694097	0.511188	-0.152966	-0.290826	-0.005116	-0.005263	0.010600
875	4.392308	0.005000	9.613800	1.207273	1.666414	0.511411	-0.153635	-0.291075	0.011790	-0.014180	0.006829
876	4.397308	0.005000	9.653040	1.165658	1.597298	0.511634	-0.154304	-0.291324	0.012453	-0.021606	0.003720
877	4.402308	0.005000	9.602750	1.152055	1.662175	0.511857	-0.154974	-0.291573	0.011912	-0.010185	0.000411
878	4.407308	0.005000	9.580791	1.232944	1.631576	0.512080	-0.155643	-0.291823	0.016063	-0.011695	0.008677
879	4.412308	0.005000	9.612862	1.195413	1.707409	0.512303	-0.156312	-0.292072	0.008579	-0.010738	0.002328
880	4.417308	0.005000	9.570718	1.155659	1.726560	0.512527	-0.156982	-0.292321	0.007132	-0.021991	0.003046
881	4.422308	0.005000	9.535320	1.146552	1.680588	0.512750	-0.157651	-0.292570	-0.001833	-0.008723	0.002792
882	4.427308	0.005000	9.548692	0.967628	1.661014	0.512973	-0.158320	-0.292819	-0.000364	-0.007025	0.013133
883	4.432308	0.005000	9.556438	1.070039	1.548482	0.513196	-0.158990	-0.293068	-0.003772	-0.003307	0.004027
884	4.437308	0.005000	9.653040	1.067285	1.561581	0.513419	-0.159659	-0.293317	0.000799	-0.015695	-0.008659
885	4.442308	0.005000	9.637066	1.177200	1.632106	0.513328	-0.159179	-0.293566	-0.002189	-0.010593	0.008105
886	4.447308	0.005000	9.616750	1.246831	1.539209	0.513217	-0.158621	-0.293816	-0.012961	-0.006081	0.010234
887	4.452308	0.005000	9.613240	1.137960	1.452999	0.513105	-0.158064	-0.294065	-0.012724	-0.009437	0.008186
888	4.457308	0.005000	9.574560	1.175363	1.530360	0.512994	-0.157506	-0.294314	0.000438	-0.004540	0.005734
889	4.462308	0.005000	9.643722	1.211781	1.505098	0.512882	-0.156949	-0.294563	-0.006638	-0.005069	-0.004619
890	4.467308	0.005000	9.620834	1.209406	1.512222	0.512771	-0.156391	-0.294812	0.003806	-0.017580	-0.002478
891	4.472308	0.005000	9.653040	1.147495	1.649182	0.512659	-0.155834	-0.295061	-0.005958	-0.004992	-0.000753
892	4.477308	0.005000	9.695694	1.110662	1.648080	0.512548	-0.155276	-0.295310	0.002601	-0.007567	0.006433
893	4.482308	0.005000	9.589203	1.177200	1.594197	0.512436	-0.154719	-0.295559	-0.000289	-0.008016	-0.001725
894	4.487308	0.005000	9.601940	1.189060	1.631047	0.512325	-0.154161	-0.295808	0.008644	-0.004666	-0.002359
895	4.492308	0.005000	9.672448	1.138384	1.627825	0.512213	-0.153604	-0.296057	0.006405	-0.010607	0.015228
896	4.497308	0.005000	9.621253	1.098720	1.535227	0.512101	-0.153046	-0.296306	0.004074	0.008081	0.011292
897	4.502308	0.005000	9.716746	1.152734	1.530360	0.511990	-0.152489	-0.296555	0.009086	0.000641	0.006518
898	4.507308	0.005000	9.638246	1.128309	1.662874	0.510647	-0.153163	-0.294742	0.011446	-0.003454	0.006726
899	4.512308	0.005000	9.711945	1.020240	1.648080	0.508305	-0.154835	-0.291255	0.004899	-0.004182	0.008483
900	4.517308	0.005000	9.716605	1.059480	1.545275	0.505964	-0.156508	-0.287769	0.009026	-0.001009	0.010217
901	4.522308	0.005000	9.687612	1.167864	1.691988	0.503622	-0.158180	-0.284282	0.013230	-0.000756	0.004962
902	4.527308	0.005000	9.542072	1.057229	1.685069	0.501280	-0.159853	-0.280796	0.006305	-0.007592	0.011040
903	4.532308	0.005000	9.574863	1.059329	1.726257	0.498939	-0.161526	-0.277309	0.007388	-0.000603	0.008359
904	4.537308	0.005000	9.645327	1.135389	1.687320	0.496597	-0.163198	-0.273823	0.011982	-0.010379	0.008505
905	4.542308	0.005000	9.658016	1.064456	1.643104	0.494255	-0.164871	-0.270336	0.001972	0.000840	0.011002
906	4.547308	0.005000	9.621560	1.012480	1.695080	0.491914	-0.166544	-0.266850	0.005961	-0.018631	0.002614
907	4.552308	0.005000	9.623950	1.049330	1.618990	0.489572	-0.168216	-0.263363	0.004674	-0.010894	0.010155
908	4.557308	0.005000	9.627989	1.059480	1.726560	0.487230	-0.169889	-0.259877	0.000935	-0.002918	-0.001314
909	4.562308	0.005000	9.535320	1.122879	1.672239	0.484889	-0.171561	-0.256390	-0.000775	-0.007769	0.011220
910	4.567308	0.005000	9.635547	1.190438	1.709067	0.482547	-0.173234	-0.252904	0.002903	-0.007256	0.004164
911	4.572308	0.005000	9.595723	1.098720	1.589734	0.480802	-0.174571	-0.250417	0.007824	-0.003729	-0.010054
912	4.577308	0.005000	9.669771	1.104499	1.760021	0.482030	-0.174236	-0.252909	0.004781	-0.006600	-0.004648
913	4.582308	0.005000	9.717179	1.102502	1.819381	0.483258	-0.173901	-0.255402	-0.000878	-0.008138	-0.001661
914	4.587308	0.005000	9.708249	1.188836	1.765800	0.484485	-0.173566	-0.257895	0.001653	-0.008093	0.014096
915	4.592308	0.005000	9.544548	1.195657	1.696548	0.485713	-0.173232	-0.260387	-0.001945	-0.007241	-0.001036
916	4.597308	0.005000	9.548946	1.197639	1.602027	0.486941	-0.172897	-0.262880	0.002610	-0.015201	0.003102
917	4.602308	0.005000	9.639970	1.242610	1.635010	0.488169	-0.172562	-0.265372	0.000382	-0.004683	0.003055
918	4.607308	0.005000	9.500013	1.177200	1.491120	0.489396	-0.172227	-0.267865	-0.002169	-0.010040	0.002410
919	4.612308	0.005000	9.535733	1.099547	1.607600	0.490624	-0.171892	-0.270358	0.010810	-0.008227	0.005583
920	4.617308	0.005000	9.649788	1.098720	1.677563	0.491852	-0.171557	-0.272850	0.005156	-0.002082	0.004146
921	4.622308	0.005000	9.692280	1.031525	1.642438	0.493079	-0.171222	-0.275343	-0.001351	-0.007399	0.013684
922	4.627308	0.005000	9.590789	1.160971	1.577714	0.494307	-0.170888	-0.277835	0.002221	-0.003328	0.007151
923	4.632308	0.005000	9.496080	1.177200	1.572477	0.495535	-0.170553	-0.280328	0.002282	-0.009599	-0.000017
924	4.637308	0.005000	9.678514	1.241914	1.530360	0.496763	-0.170218	-0.282821	-0.001603	-0.018647	0.007321
925	4.642308	0.005000	9.692280	1.318534	1.577587	0.497369	-0.169617	-0.283333	0.001141	-0.017348	0.001650
926	4.647308	0.005000	9.710297	1.195217	1.569600	0.497816	-0.168948	-0.283333	-0.002794	-0.015813	0.014471
927	4.652308	0.005000	9.655076	1.175164	1.672791	0.498262	-0.168279	-0.283333	-0.000810	-0.003471	0.012517
928	4.657308	0.005000	9.551325	1.137960	1.578374	0.498708	-0.167609	-0.283333	0.005693	-0.009911	0.012350
929	4.662308	0.005000	9.562579	1.165219	1.648080	0.499154	-0.166940	-0.283333	0.001978	-0.013729	0.001786
930	4.667308	0.005000	9.597039	1.216440	1.491120	0.499601	-0.166271	-0.283333	0.003622	-0.011432	0.004843
931	4.672308	0.005000	9.591554	1.260931	1.634331	0.500047	-0.165601	-0.283333	0.006411	-0.018008	0.014355
932	4.677308	0.005000	9.541341	1.137960	1.732581	0.500493	-0.164932	-0.283333	0.003052	-0.003310	0.015689
933	4.682308	0.005000	9.610169	1.169939	1.769431	0.500939	-0.164263	-0.283333	0.013253	-0.006073	0.023269
934	4.687308	0.005000	9.537831	1.175944	1.724049	0.501385	-0.163593	-0.283333	0.007836	-0.002267	0.012836
935	4.692308	0.005000	9.500845	1.213263	1.572777	0.501832	-0.162924	-0.283333	0.008807	-0.005774	0.008217
936	4.697308	0.005000	9.527363	1.173222	1.679363	0.502278	-0.162255	-0.283333	0.007986	-0.009298	0.012015
937	4.702308	0.005000	9.607447	1.164493	1.687320	0.502724	-0.161585	-0.283333	0.006625	-0.009735	0.010725
938	4.707308	0.005000	9.552807	1.146704	1.687320	0.503309	-0.161240	-0.283695	0.019595	-0.006558	0.014271
939	4.712308	0.005000	9.630534	1.154694	1.631346	0.504090	-0.161352	-0.284567	0.007577	-0.005513	0.004915
940	4.717308	0.005000	9.641725	1.163238	1.740522	0.504871	-0.161464	-0.285439	-0.000554	-0.003732	0.000234
941	4.722308	0.005000	9.590913	1.239327	1.680785	0.505652	-0.161575	-0.286311	0.002878	-0.011699	0.009329
942	4.727308	0.005000	9.653040	1.216440	1.689105	0.506433	-0.161687	-0.287183	0.005438	-0.011122	0.007881
943	4.732308	0.005000	9.574560	1.140955	1.687320	0.507214	-0.161798	-0.288056	0.000347	-0.017638	0.018927
944	4.737308	0.005000	9.629263	1.153423	1.750337	0.507995	-0.161910	-0.288928	-0.002912	-0.004397	0.008776
945	4.742308	0.005000	9.561506	1.203386	1.713582	0.508776	-0.162022	-0.289800	0.006152	-0.002299	0.003779
946	4.747308	0.005000	9.585201	1.177200	1.630121	0.509557	-0.162133	-0.290672	0.000911	-0.004291	0.003767
947	4.752308	0.005000	9.582698	1.129822	1.648080	0.510338	-0.162245	-0.291544	0.009761	-0.002286	0.009453
948	4.757308	0.005000	9.568797	1.137960	1.642317	0.511119	-0.162356	-0.292416	0.004978	-0.010839	0.018957
949	4.762308	0.005000	9.574560	1.141333	1.537107	0.511900	-0.162468	-0.293288	0.002025	-0.008678	0.002441
950	4.767308	0.005000	9.613800	1.136888	1.609912	0.512681	-0.162579	-0.294160	-0.001075	-0.009195	0.010321
951	4.772308	0.005000	9.539011	1.134269	1.724714	0.513425	-0.162667	-0.295023	0.003457	0.004565	0.005258
952	4.777308	0.005000	9.578796	1.133724	1.604604	0.513202	-0.162109	-0.295646	-0.002550	0.000164	0.014351
953	4.782308	0.005000	9.437432	1.170589	1.641469	0.512979	-0.161551	-0.296268	0.007192	-0.003014	0.006679
954	4.787308	0.005000	9.544426	1.116932	1.638974	0.512756	-0.160993	-0.296891	0.000165	0.001362	0.004302
955	4.792308	0.005000	9.602287	1.126447	1.692020	0.512532	-0.160435	-0.297514	0.000048	0.004046	0.013838
956	4.797308	0.005000	9.678060	1.098720	1.519559	0.512309	-0.159878	-0.298137	0.000156	-0.003122	0.007114
957	4.802308	0.005000	9.630410	1.156022	1.642059	0.512086	-0.159320	-0.298760	0.007096	-0.011043	0.013681
958	4.807308	0.005000	9.651769	1.216440	1.669606	0.511863	-0.158762	-0.299383	0.004093	-0.008552	-0.000791
959	4.812308	0.005000	9.653040	1.230045	1.673715	0.511640	-0.158204	-0.300006	0.000268	-0.002658	0.004759
960	4.817308	0.005000	9.629003	1.210071	1.539194	0.511417	-0.157646	-0.300628	-0.001142	-0.004673	0.011075
961	4.822308	0.005000	9.640394	1.164554	1.635434	0.511194	-0.157088	-0.301251	-0.002344	-0.007734	0.018835
962	4.827308	0.005000	9.671767	1.177200	1.687320	0.510971	-0.156531	-0.301874	0.005610	-0.005298	0.015459
963	4.832308	0.005000	9.653040	1.201436	1.569600	0.510748	-0.155973	-0.302497	0.001695	-0.005210	0.005975
964	4.837308	0.005000	9.613800	1.153249	1.642984	0.510524	-0.155415	-0.303120	0.012613	-0.004048	0.000861
965	4.842308	0.005000	9.650393	1.253033	1.684673	0.510595	-0.155151	-0.303005	-0.003119	-0.007092	0.011410
966	4.847308	0.005000	9.653040	1.177200	1.687592	0.510818	-0.155039	-0.302507	0.005547	-0.009973	0.012655
967	4.852308	0.005000	9.578845	1.214297	1.726560	0.511041	-0.154927	-0.302009	0.012153	-0.007127	0.012666
968	4.857308	0.005000	9.574560	1.118514	1.653029	0.511264	-0.154816	-0.301511	0.009084	0.000075	0.004840
969	4.862308	0.005000	9.638367	1.098720	1.616177	0.511487	-0.154704	-0.301012	0.014503	-0.001709	0.007726
970	4.867308	0.005000	9.564807	1.187029	1.628498	0.511710	-0.154593	-0.300514	0.000271	-0.009831	0.009015
971	4.872308	0.005000	9.628553	1.191953	1.608840	0.511933	-0.154481	-0.300016	-0.006991	-0.019004	0.005736
972	4.877308	0.005000	9.628746	1.207091	1.554654	0.512157	-0.154369	-0.299518	-0.002443	-0.006281	0.017104
973	4.882308	0.005000	9.591881	1.159879	1.687320	0.512380	-0.154258	-0.299019	-0.002274	-0.009634	0.008231
974	4.887308	0.005000	9.711809	1.157308	1.667972	0.512603	-0.154146	-0.298521	0.004525	-0.015615	0.016127
975	4.892308	0.005000	9.619266	1.177200	1.653546	0.512826	-0.154035	-0.298023	-0.002708	-0.005607	0.001968
976	4.897308	0.005000	9.560250	1.155961	1.569600	0.513049	-0.153923	-0.297525	0.000784	-0.010683	0.012578
977	4.902308	0.005000	9.625720	1.114120	1.632680	0.513272	-0.153811	-0.297026	-0.005664	-0.001391	0.016124
978	4.907308	0.005000	9.466385	1.098720	1.658684	0.513402	-0.153793	-0.296632	-0.002101	-0.004676	0.002701
979	4.912308	0.005000	9.496080	1.209660	1.661640	0.513290	-0.154016	-0.296508	0.004822	-0.009628	0.011354
980	4.917308	0.005000	9.535320	1.137960	1.652443	0.513179	-0.154239	-0.296383	0.002567	-0.001493	0.006301
981	4.922308	0.005000	9.653040	1.139919	1.681443	0.513067	-0.154462	-0.296259	0.007739	-0.012896	0.008923
982	4.927308	0.005000	9.691826	1.215986	1.569600	0.512956	-0.154685	-0.296134	0.005141	-0.008431	0.011917
983	4.932308	0.005000	9.647314	1.180063	1.675868	0.512844	-0.154908	-0.296010	0.011763	-0.007696	0.014295
984	4.937308	0.005000	9.535320	1.127400	1.658640	0.512733	-0.155131	-0.295885	0.006259	-0.009817	0.007797
985	4.942308	0.005000	9.527257	1.098720	1.631954	0.512621	-0.155354	-0.295760	0.005312	-0.002078	-0.005817
986	4.947308	0.005000	9.582487	1.117084	1.619278	0.512510	-0.155577	-0.295636	0.011092	-0.012395	0.009662
987	4.952308	0.005000	9.600972	1.072308	1.726560	0.512398	-0.155800	-0.295511	0.011889	-0.003272	0.005017
988	4.957308	0.005000	9.565726	1.161997	1.648080	0.512286	-0.156023	-0.295387	0.008511	-0.009097	0.004516
989	4.962308	0.005000	9.635250	1.159410	1.648080	0.512175	-0.156246	-0.295262	-0.002412	-0.004789	0.012866
990	4.967308	0.005000	9.594982	1.137960	1.530360	0.512063	-0.156469	-0.295138	0.006439	-0.007979	-0.001365
991	4.972308	0.005000	9.613800	1.193628	1.523976	0.511952	-0.156692	-0.295013	0.009572	-0.007637	0.007023
992	4.977308	0.005000	9.596827	1.163147	1.662133	0.511740	-0.157115	-0.295111	0.012548	-0.007807	0.008581
993	4.982308	0.005000	9.580682	1.188540	1.636740	0.511517	-0.157562	-0.295236	0.007915	-0.013905	0.008473
994	4.987308	0.005000	9.692280	1.207514	1.635618	0.511294	-0.158008	-0.295361	0.008766	-0.003543	0.004582
995	4.992308	0.005000	9.770760	1.170756	1.641636	0.511071	-0.158455	-0.295485	0.018549	-0.007917	0.006229
996	4.997308	0.005000	9.688226	1.090612	1.639972	0.510848	-0.158901	-0.295610	0.002935	-0.005035	0.011376
997	5.002308	0.005000	9.574560	1.101170	1.649305	0.510624	-0.159348	-0.295735	0.003889	-0.005991	-0.005315
998	5.007308	0.005000	9.536485	1.062974	1.687320	0.510401	-0.159794	-0.295859	0.011646	-0.010411	0.008807
999	5.012308	0.005000	9.571005	1.091610	1.726560	0.510178	-0.160241	-0.295984	0.008779	-0.011696	-0.002914
1000	5.017308	0.005000	9.574560	1.092718	1.799038	0.509955	-0.160687	-0.296109	0.009934	-0.016686	0.004411
1001	5.022308	0.005000	9.574560	1.067897	1.718143	0.509732	-0.161134	-0.296233	-0.004338	-0.007544	0.015144
1002	5.027308	0.005000	9.681456	1.166376	1.669729	0.509508	-0.161580	-0.296358	-0.001514	-0.002079	0.006849
1003	5.032308	0.005000	9.665202	1.060857	1.699482	0.509285	-0.162027	-0.296483	0.003850	-0.007578	0.008310
1004	5.037308	0.005000	9.660422	1.122031	1.601458	0.509062	-0.162473	-0.296607	0.005548	-0.012434	0.000976
1005	5.042308	0.005000	9.535320	1.059480	1.631744	0.509129	-0.162513	-0.296926	0.008169	-0.006715	0.004435
1006	5.047308	0.005000	9.634736	1.119656	1.666384	0.509464	-0.162178	-0.297424	0.000726	-0.008247	0.007908
1007	5.052308	0.005000	9.692280	1.130124	1.695186	0.509798	-0.161844	-0.297923	-0.003314	-0.009225	-0.008534
1008	5.057308	0.005000	9.679694	1.203854	1.673993	0.510133	-0.161509	-0.298421	-0.000863	-0.016480	0.007830
1009	5.062308	0.005000	9.642088	1.227392	1.715608	0.510468	-0.161174	-0.298919	0.005472	-0.005781	0.008770
1010	5.067308	0.005000	9.613800	1.177200	1.648080	0.510802	-0.160840	-0.299417	0.012725	-0.011699	0.011328
1011	5.072308	0.005000	9.586134	1.171413	1.675746	0.511137	-0.160505	-0.299915	0.003495	-0.008712	0.012032
1012	5.077308	0.005000	9.577903	1.105406	1.759114	0.511471	-0.160171	-0.300413	0.002730	-0.014576	0.013888
1013	5.082308	0.005000	9.653040	1.097767	1.685414	0.511806	-0.159836	-0.300911	0.002694	-0.012523	0.010981
1014	5.087308	0.005000	9.653040	1.021679	1.608840	0.512140	-0.159502	-0.301409	0.008442	-0.015466	0.015827
1015	5.092308	0.005000	9.621513	1.137960	1.722703	0.512475	-0.159167	-0.301907	0.005013	-0.014021	0.020988
1016	5.097308	0.005000	9.522704	1.177200	1.608840	0.512809	-0.158833	-0.302405	-0.002021	-0.009677	0.005265
1017	5.102308	0.005000	9.653040	1.168169	1.608840	0.513144	-0.158498	-0.302903	0.007134	-0.009373	0.004270
1018	5.107308	0.005000	9.630198	1.172223	1.608840	0.513403	-0.158209	-0.303299	0.002184	-0.011528	0.007724
1019	5.112308	0.005000	9.639077	1.123997	1.572249	0.513180	-0.158209	-0.303050	-0.005555	-0.012290	-0.002278
1020	5.117308	0.005000	9.659529	1.239304	1.693809	0.512956	-0.158209	-0.302801	-0.000024	-0.010715	0.008083
1021	5.122308	0.005000	9.711310	1.137960	1.746770	0.512733	-0.158209	-0.302552	0.008534	-0.001844	0.004601
1022	5.127308	0.005000	9.656610	1.116555	1.690890	0.512510	-0.158209	-0.302303	0.010293	-0.016468	0.014035
1023	5.132308	0.005000	9.590005	1.168850	1.608840	0.512287	-0.158209	-0.302054	0.003006	-0.007121	0.012071
1024	5.137308	0.005000	9.679180	1.151060	1.648080	0.512064	-0.158209	-0.301804	0.001129	-0.007162	0.007499
1025	5.142308	0.005000	9.603574	1.156748	1.629292	0.511841	-0.158209	-0.301555	-0.001738	-0.003941	0.013540
1026	5.147308	0.005000	9.637592	1.098720	1.608840	0.511618	-0.158209	-0.301306	0.000642	-0.008200	0.000228
1027	5.152308	0.005000	9.686819	1.104181	1.608840	0.511395	-0.158209	-0.301057	0.007473	-0.019754	0.015821
1028	5.157308	0.005000	9.679936	1.141046	1.648080	0.511172	-0.158209	-0.300808	0.002529	-0.003256	0.007624
1029	5.162308	0.005000	9.651648	1.099416	1.648080	0.510948	-0.158209	-0.300559	0.009367	-0.010092	-0.002859
1030	5.167308	0.005000	9.537468	1.100868	1.610988	0.510725	-0.158209	-0.300310	0.003910	-0.010140	0.008741
1031	5.172308	0.005000	9.613800	1.103243	1.578646	0.510502	-0.158209	-0.300061	-0.007796	-0.017056	0.002097
1032	5.177308	0.005000	9.699193	1.077981	1.751974	0.510448	-0.157956	-0.300189	-0.005526	-0.003452	0.011964
1033	5.182308	0.005000	9.692280	1.167800	1.687320	0.510448	-0.157621	-0.300438	0.005678	0.001607	0.000524
1034	5.187308	0.005000	9.692280	1.137960	1.620972	0.510448	-0.157286	-0.300687	0.006728	-0.003446	0.011365
1035	5.192308	0.005000	9.657366	1.191722	1.623362	0.510448	-0.156951	-0.300936	-0.001145	-0.013490	0.015444
1036	5.197308	0.005000	9.591457	1.177200	1.569600	0.510448	-0.156617	-0.301185	0.008040	-0.017145	0.011740
1037	5.202308	0.005000	9.613800	1.235953	1.608840	0.510448	-0.156282	-0.301434	0.005545	-0.015080	0.006085
1038	5.207308	0.005000	9.631116	1.137960	1.613448	0.510448	-0.155947	-0.301683	0.004232	-0.014855	0.009377
1039	5.212308	0.005000	9.550054	1.167428	1.731522	0.510448	-0.155613	-0.301932	-0.004128	-0.016154	-0.002138
1040	5.217308	0.005000	9.679936	1.084168	1.660424	0.510448	-0.155278	-0.302182	0.002271	-0.015713	-0.001952
1041	5.222308	0.005000	9.643071	1.245711	1.608840	0.510448	-0.154943	-0.302431	0.004424	-0.014124	0.005559
1042	5.227308	0.005000	9.621008	1.162783	1.648080	0.510448	-0.154609	-0.302680	0.008382	-0.004579	0.019252
1043	5.232308	0.005000	9.697072	1.137960	1.682528	0.510448	-0.154274	-0.302929	0.004544	-0.005267	0.007544
1044	5.237308	0.005000	9.616187	1.250905	1.648080	0.510448	-0.153939	-0.303178	0.007808	-0.006393	0.000956
1045	5.242308	0.005000	9.574621	1.216410	1.569661	0.510575	-0.153900	-0.303145	0.006966	-0.005613	-0.003032
1046	5.247308	0.005000	9.500949	1.140394	1.611274	0.510909	-0.154346	-0.302646	0.007794	-0.011590	0.008411
1047	5.252308	0.005000	9.535320	1.211191	1.540858	0.511244	-0.154792	-0.302148	0.007719	0.000000	0.011467
1048	5.257308	0.005000	9.598546	1.145587	1.679693	0.511578	-0.155238	-0.301650	-0.002493	-0.009060	0.008754
1049	5.262308	0.005000	9.692280	1.117932	1.687320	0.511913	-0.155685	-0.301152	0.012442	-0.010473	0.014553
1050	5.267308	0.005000	9.706742	1.162738	1.646008	0.512248	-0.156131	-0.300653	0.008671	-0.010989	0.003868
1051	5.272308	0.005000	9.574560	1.147296	1.599504	0.512582	-0.156577	-0.300155	0.008979	-0.016682	0.009251
1052	5.277308	0.005000	9.574560	1.098720	1.525843	0.512917	-0.157023	-0.299657	-0.003472	-0.015958	0.016007
1053	5.282308	0.005000	9.633798	1.216440	1.568844	0.513252	-0.157470	-0.299159	-0.003723	-0.011418	0.006265
1054	5.287308	0.005000	9.653040	1.216440	1.608840	0.513586	-0.157916	-0.298660	0.000232	0.000773	0.009448
1055	5.292308	0.005000	9.613800	1.216440	1.687320	0.513921	-0.158362	-0.298162	0.005656	-0.009905	0.003479
1056	5.297308	0.005000	9.574560	1.126191	1.754031	0.514255	-0.158808	-0.297664	0.007720	-0.005003	0.019082
1057	5.302308	0.005000	9.583915	1.108075	1.707851	0.514590	-0.159254	-0.297166	-0.006272	0.000737	0.006494
1058	5.307308	0.005000	9.560824	1.091852	1.569600	0.514925	-0.159701	-0.296667	0.012602	-0.010135	0.012523
1059	5.312308	0.005000	9.696758	1.242247	1.643602	0.514368	-0.159367	-0.296667	0.003408	-0.010730	0.010485
1060	5.317308	0.005000	9.731520	1.096617	1.648080	0.513810	-0.159032	-0.296667	-0.000641	-0.007025	0.010927
1061	5.322308	0.005000	9.577525	1.097979	1.571082	0.513252	-0.158697	-0.296667	0.000557	-0.007441	0.012925
1062	5.327308	0.005000	9.466234	1.177200	1.638686	0.512694	-0.158363	-0.296667	0.006237	-0.000776	0.006639
1063	5.332308	0.005000	9.490574	1.104226	1.575106	0.512137	-0.158028	-0.296667	0.012584	-0.009937	0.009753
1064	5.337308	0.005000	9.676302	1.177200	1.624114	0.511579	-0.157693	-0.296667	0.002054	-0.004088	0.013043
1065	5.342308	0.005000	9.605747	1.137960	1.619236	0.511021	-0.157359	-0.296667	0.007134	-0.014909	-0.000777
1066	5.347308	0.005000	9.561551	1.137960	1.648080	0.510464	-0.157024	-0.296667	0.007028	-0.009159	0.007635
1067	5.352308	0.005000	9.535320	1.082262	1.680044	0.509906	-0.156690	-0.296667	-0.005878	-0.014988	0.001840
1068	5.357308	0.005000	9.456840	1.062959	1.726560	0.509348	-0.156355	-0.296667	0.005476	-0.009822	0.007743
1069	5.362308	0.005000	9.554060	1.137960	1.706060	0.508790	-0.156020	-0.296667	0.006801	-0.002965	-0.003351
1070	5.367308	0.005000	9.574560	1.200110	1.608840	0.508233	-0.155686	-0.296667	0.005236	-0.006502	0.006051
1071	5.372308	0.005000	9.588477	1.059480	1.648080	0.507675	-0.155351	-0.296667	-0.000154	-0.003319	0.020078
1072	5.377308	0.005000	9.551542	1.165691	1.636571	0.507740	-0.155501	-0.296512	-0.001925	-0.011783	0.007348
1073	5.382308	0.005000	9.565574	1.098720	1.639094	0.508186	-0.155947	-0.296263	0.007059	-0.012204	0.008751
1074	5.387308	0.005000	9.535320	1.170589	1.608840	0.508632	-0.156393	-0.296014	-0.008875	-0.009719	0.004239
1075	5.392308	0.005000	9.539540	1.168759	1.613060	0.509078	-0.156839	-0.295765	0.000967	-0.005539	0.012706
1076	5.397308	0.005000	9.573167	1.060873	1.572386	0.509525	-0.157286	-0.295516	0.000866	0.000632	0.013723
1077	5.402308	0.005000	9.573562	1.136962	1.648080	0.509971	-0.157732	-0.295266	0.009843	-0.006694	0.009077
1078	5.407308	0.005000	9.642875	1.173812	1.576377	0.510417	-0.158178	-0.295017	0.003354	-0.010155	0.016623
1079	5.412308	0.005000	9.653040	1.159700	1.636414	0.510863	-0.158624	-0.294768	0.007197	-0.009435	0.002451
1080	5.417308	0.005000	9.574560	1.115218	1.726560	0.511310	-0.159071	-0.294519	0.005677	-0.008035	0.006964
1081	5.422308	0.005000	9.613800	1.261928	1.687320	0.511756	-0.159517	-0.294270	-0.000491	-0.012457	0.004969
1082	5.427308	0.005000	9.509452	1.243185	1.648080	0.512202	-0.159963	-0.294020	0.008594	-0.012559	0.010087
1083	5.432308	0.005000	9.621515	1.216440	1.530360	0.512648	-0.160409	-0.293771	0.006382	-0.007603	0.008346
1084	5.437308	0.005000	9.634683	1.117077	1.629723	0.513094	-0.160855	-0.293522	0.000561	-0.005483	0.000323
1085	5.442308	0.005000	9.653040	1.135664	1.742737	0.513379	-0.161113	-0.293393	-0.012761	-0.016776	0.014259
1086	5.447308	0.005000	9.590620	1.184319	1.687320	0.513156	-0.160778	-0.293642	0.002308	-0.006584	-0.001951
1087	5.452308	0.005000	9.613800	1.151453	1.687320	0.512933	-0.160444	-0.293892	0.014284	-0.012304	0.015969
1088	5.457308	0.005000	9.619684	1.143844	1.805040	0.512710	-0.160109	-0.294141	0.000620	-0.012083	0.003333
1089	5.462308	0.005000	9.561505	1.116177	1.717832	0.512487	-0.159774	-0.294390	0.007123	0.001439	0.009092
1090	5.467308	0.005000	9.568604	1.222396	1.624257	0.512264	-0.159440	-0.294639	0.011773	-0.005276	0.012911
1091	5.472308	0.005000	9.656550	1.173690	1.491120	0.512040	-0.159105	-0.294888	0.008976	-0.004541	0.005230
1092	5.477308	0.005000	9.731520	1.176081	1.491120	0.511817	-0.158770	-0.295138	0.011942	-0.014999	0.004232
1093	5.482308	0.005000	9.617612	1.099991	1.529089	0.511594	-0.158436	-0.295387	-0.003064	-0.015325	0.005856
1094	5.487308	0.005000	9.653040	1.027617	1.711807	0.511371	-0.158101	-0.295636	0.011260	-0.013298	0.007262
1095	5.492308	0.005000	9.509059	1.170710	1.628309	0.511148	-0.157766	-0.295885	-0.000057	-0.006780	0.013389
1096	5.497308	0.005000	9.517591	1.137960	1.669591	0.510925	-0.157431	-0.296134	0.001954	-0.008562	0.007040
1097	5.502308	0.005000	9.507466	1.137960	1.603759	0.510702	-0.157097	-0.296384	0.008524	-0.016343	0.007913
1098	5.507308	0.005000	9.521526	1.151754	1.636429	0.510479	-0.156762	-0.296633	-0.003804	-0.005755	0.005898
1099	5.512308	0.005000	9.669514	1.160726	1.569600	0.509583	-0.157774	-0.295164	0.014859	-0.011317	0.011544
1100	5.517308	0.005000	9.634176	1.136447	1.589976	0.508579	-0.159000	-0.293420	-0.001840	-0.000520	0.004468
1101	5.522308	0.005000	9.574560	1.059480	1.587345	0.507575	-0.160227	-0.291677	0.008078	-0.006343	0.005215
1102	5.527308	0.005000	9.574560	1.105484	1.554265	0.506572	-0.161454	-0.289934	0.009920	-0.007558	0.008033
1103	5.532308	0.005000	9.639335	1.125193	1.648080	0.505568	-0.162680	-0.288190	0.002063	-0.010497	0.004353
1104	5.537308	0.005000	9.663432	1.049088	1.619232	0.504565	-0.163907	-0.286447	0.006921	-0.017699	0.003393
1105	5.542308	0.005000	9.669370	1.082390	1.663354	0.503561	-0.165133	-0.284704	0.004890	-0.012092	0.003543
