# FOX Logger (IMU file)
# (c) INRIA 2011-2014
# File created from file sensbiotk output
#
# File format:
# id	t	dt	ax	ay	az	mx	my	mz	gx	gy	gz
#
# Units:
#	Time: s
#	Acceleration: m.s^-2
#	Magneto: gauss
#	Gyrometer: rad/s
#
1	0.055878	0.055878	8.523854	-0.169879	-4.403654	-0.016418	-0.162687	-0.708333	-0.015489	0.189934	0.003122
2	0.060878	0.005000	8.475840	-0.011618	-4.461742	-0.016190	-0.162573	-0.708714	-0.010152	0.179539	0.005402
3	0.065878	0.005000	8.535752	-0.142508	-4.512600	-0.015963	-0.162459	-0.709095	-0.007604	0.185010	-0.016228
4	0.070878	0.005000	8.554320	-0.056530	-4.468701	-0.015735	-0.162346	-0.709477	-0.014354	0.179638	-0.017844
5	0.075878	0.005000	8.534639	-0.019681	-4.414561	-0.015508	-0.162232	-0.709858	-0.004998	0.170378	-0.006026
6	0.080878	0.005000	8.593560	0.022524	-4.434120	-0.015280	-0.162118	-0.710239	-0.005035	0.167356	-0.012081
7	0.085878	0.005000	8.579688	-0.041615	-4.381008	-0.015053	-0.162004	-0.710620	-0.001278	0.156980	-0.014498
8	0.090878	0.005000	8.615615	-0.028212	-4.231763	-0.014825	-0.161890	-0.711001	-0.007196	0.151948	-0.015602
9	0.095878	0.005000	8.616234	-0.030957	-4.277160	-0.014597	-0.161776	-0.711383	-0.000064	0.147948	-0.014888
10	0.100878	0.005000	8.526698	0.045049	-4.322209	-0.014370	-0.161663	-0.711764	-0.012589	0.154921	-0.022914
11	0.105878	0.005000	8.593560	-0.039240	-4.319365	-0.014142	-0.161549	-0.712145	0.003142	0.145054	-0.013697
12	0.110878	0.005000	8.515322	-0.039119	-4.277281	-0.013915	-0.161435	-0.712526	0.004288	0.138056	-0.006414
13	0.115878	0.005000	8.520526	0.073034	-4.316400	-0.013687	-0.161321	-0.712907	0.009488	0.130990	-0.015049
14	0.120878	0.005000	8.531780	0.044807	-4.321967	-0.013459	-0.161207	-0.713289	0.008858	0.122380	-0.016429
15	0.125878	0.005000	8.686048	0.008411	-4.425709	-0.013534	-0.162199	-0.712884	0.005623	0.125335	-0.016601
16	0.130878	0.005000	8.586722	0.135358	-4.355640	-0.013647	-0.163337	-0.712376	0.022978	0.121126	-0.025062
17	0.135878	0.005000	8.503129	0.105769	-4.265209	-0.013761	-0.164475	-0.711868	0.009086	0.114283	-0.015055
18	0.140878	0.005000	8.616311	0.022751	-4.322663	-0.013875	-0.165613	-0.711359	0.017977	0.109214	-0.019024
19	0.145878	0.005000	8.632800	-0.039240	-4.336882	-0.013989	-0.166751	-0.710851	0.016717	0.100998	-0.016762
20	0.150878	0.005000	8.615736	0.078480	-4.399993	-0.014102	-0.167889	-0.710343	0.013930	0.101567	-0.017829
21	0.155878	0.005000	8.604361	0.092700	-4.184460	-0.014216	-0.169027	-0.709835	0.024859	0.096081	-0.023824
22	0.160878	0.005000	8.515080	0.129233	-4.249433	-0.014330	-0.170165	-0.709326	0.020594	0.097101	-0.026948
23	0.165878	0.005000	8.563321	0.147959	-4.337639	-0.014444	-0.171303	-0.708818	0.019768	0.089048	-0.021241
24	0.170878	0.005000	8.593560	0.078480	-4.304086	-0.014557	-0.172440	-0.708310	0.034280	0.085400	-0.016606
25	0.175878	0.005000	8.629487	0.042553	-4.345701	-0.014671	-0.173578	-0.707802	0.036482	0.090138	-0.019717
26	0.180878	0.005000	8.593091	0.078949	-4.316869	-0.014785	-0.174716	-0.707294	0.038910	0.093238	-0.010125
27	0.185878	0.005000	8.591185	0.154585	-4.208180	-0.014899	-0.175854	-0.706785	0.040793	0.093106	-0.019623
28	0.190878	0.005000	8.563962	0.147318	-4.306758	-0.016496	-0.176206	-0.705790	0.077457	0.087477	-0.017703
29	0.195878	0.005000	8.483449	0.086089	-4.394880	-0.018545	-0.176320	-0.704646	0.049661	0.102395	-0.023054
30	0.200878	0.005000	8.601441	0.068027	-4.345187	-0.020593	-0.176434	-0.703502	0.053078	0.089220	-0.018533
31	0.205878	0.005000	8.580914	0.051886	-4.316400	-0.022641	-0.176548	-0.702359	0.059437	0.092546	-0.028283
32	0.210878	0.005000	8.609701	0.085439	-4.136341	-0.024689	-0.176662	-0.701215	0.063135	0.091309	-0.027966
33	0.215878	0.005000	8.770775	0.040511	-4.220206	-0.026738	-0.176775	-0.700072	0.071092	0.089039	-0.023074
34	0.220878	0.005000	8.754937	0.039240	-4.242337	-0.028786	-0.176889	-0.698928	0.067208	0.085405	-0.020756
35	0.225878	0.005000	8.661935	0.063912	-4.217710	-0.030834	-0.177003	-0.697785	0.062366	0.071022	-0.028210
36	0.230878	0.005000	8.726135	0.120382	-4.340785	-0.032882	-0.177117	-0.696641	0.061780	0.077222	-0.018841
37	0.235878	0.005000	8.769217	0.087829	-4.307051	-0.034931	-0.177231	-0.695497	0.066342	0.067080	-0.011431
38	0.240878	0.005000	8.815991	0.124225	-4.165945	-0.036979	-0.177345	-0.694354	0.076659	0.057732	-0.005184
39	0.245878	0.005000	8.679362	0.078480	-4.277160	-0.039027	-0.177458	-0.693210	0.066524	0.068374	-0.009434
40	0.250878	0.005000	8.673674	0.117720	-4.316400	-0.041075	-0.177572	-0.692067	0.074833	0.063172	-0.012056
41	0.255878	0.005000	8.638881	0.080507	-4.316400	-0.041569	-0.177834	-0.692246	0.083118	0.060914	-0.003479
42	0.260878	0.005000	8.746118	0.034838	-4.216288	-0.041227	-0.178176	-0.693135	0.082443	0.055510	-0.004637
43	0.265878	0.005000	8.672040	-0.017502	-4.245166	-0.040886	-0.178517	-0.694024	0.071791	0.055526	0.002711
44	0.270878	0.005000	8.682130	0.029150	-4.208770	-0.040545	-0.178858	-0.694914	0.046269	0.053510	-0.002984
45	0.275878	0.005000	8.711280	-0.039240	-4.264226	-0.040203	-0.179200	-0.695803	0.069595	0.047227	-0.008858
46	0.280878	0.005000	8.695502	-0.078480	-4.269475	-0.039862	-0.179541	-0.696693	0.076759	0.047162	-0.002727
47	0.285878	0.005000	8.614178	-0.039240	-4.196683	-0.039520	-0.179883	-0.697582	0.077333	0.040372	0.006812
48	0.290878	0.005000	8.557595	-0.017982	-4.234645	-0.039179	-0.180224	-0.698472	0.071234	0.032687	-0.000833
49	0.295878	0.005000	8.578176	0.086951	-4.237920	-0.038838	-0.180565	-0.699361	0.067426	0.034139	-0.000660
50	0.300878	0.005000	8.540161	-0.014159	-4.252079	-0.038496	-0.180907	-0.700250	0.079492	0.030389	0.010293
51	0.305878	0.005000	8.691433	0.009697	-4.228223	-0.038155	-0.181248	-0.701140	0.067021	0.031060	0.006328
52	0.310878	0.005000	8.665187	0.000000	-4.237920	-0.037813	-0.181590	-0.702029	0.060908	0.021625	-0.007144
53	0.315878	0.005000	8.684066	0.000000	-4.285177	-0.037472	-0.181931	-0.702919	0.072263	0.022693	0.009916
54	0.320878	0.005000	8.710115	-0.078480	-4.318730	-0.036888	-0.181543	-0.703605	0.070148	0.024212	0.006075
55	0.325878	0.005000	8.710055	-0.116495	-4.356865	-0.036091	-0.180519	-0.704113	0.052571	0.019075	0.007029
56	0.330878	0.005000	8.632800	-0.113666	-4.355640	-0.035295	-0.179495	-0.704621	0.052725	0.018416	0.003166
57	0.335878	0.005000	8.561218	-0.053036	-4.277160	-0.034498	-0.178470	-0.705129	0.054140	0.011912	0.011453
58	0.340878	0.005000	8.544578	-0.107978	-4.247934	-0.033702	-0.177446	-0.705638	0.058989	0.013170	0.003610
59	0.345878	0.005000	8.488426	-0.026654	-4.121682	-0.032905	-0.176422	-0.706146	0.047641	0.015495	0.013285
60	0.350878	0.005000	8.499650	0.032191	-4.348591	-0.032109	-0.175398	-0.706654	0.047329	0.008023	0.023496
61	0.355878	0.005000	8.536500	-0.021420	-4.237920	-0.031312	-0.174374	-0.707163	0.055339	-0.000696	0.018146
62	0.360878	0.005000	8.535744	-0.018576	-4.275072	-0.030516	-0.173350	-0.707671	0.051540	0.002505	0.017260
63	0.365878	0.005000	8.530994	0.047197	-4.269385	-0.029719	-0.172326	-0.708179	0.039324	0.016516	0.020598
64	0.370878	0.005000	8.619912	0.065592	-4.316400	-0.028923	-0.171302	-0.708687	0.051741	-0.005179	0.021229
65	0.375878	0.005000	8.554320	0.010044	-4.247964	-0.028126	-0.170277	-0.709196	0.057465	0.001618	0.005948
66	0.380878	0.005000	8.689678	0.096118	-4.323601	-0.027330	-0.169253	-0.709704	0.049056	-0.000427	0.002812
67	0.385878	0.005000	8.637157	0.069767	-4.312043	-0.026866	-0.168847	-0.710053	0.034729	0.005693	0.013121
68	0.390878	0.005000	8.631269	0.037709	-4.278691	-0.026866	-0.169303	-0.710180	0.038899	-0.009958	0.011358
69	0.395878	0.005000	8.708693	0.000000	-4.278022	-0.026866	-0.169758	-0.710307	0.062182	-0.010131	0.014818
70	0.400878	0.005000	8.707574	-0.039240	-4.237920	-0.026866	-0.170213	-0.710435	0.051053	-0.020596	0.016345
71	0.405878	0.005000	8.698180	0.000000	-4.205230	-0.026866	-0.170669	-0.710562	0.039073	-0.015303	0.018686
72	0.410878	0.005000	8.731732	0.020452	-4.237920	-0.026866	-0.171124	-0.710689	0.050027	-0.023348	0.023200
73	0.415878	0.005000	8.630274	0.090718	-4.210918	-0.026866	-0.171579	-0.710816	0.048814	-0.025936	0.011053
74	0.420878	0.005000	8.632800	-0.093562	-4.207756	-0.026866	-0.172035	-0.710943	0.050115	-0.038955	0.023345
75	0.425878	0.005000	8.725044	-0.096148	-4.237920	-0.026866	-0.172490	-0.711070	0.031104	-0.030747	0.020719
76	0.430878	0.005000	8.632800	-0.059541	-4.258221	-0.026866	-0.172946	-0.711197	0.037634	-0.037731	0.023849
77	0.435878	0.005000	8.664991	0.025141	-4.104105	-0.026866	-0.173401	-0.711325	0.029224	-0.042369	0.024717
78	0.440878	0.005000	8.737783	0.092246	-4.211931	-0.026866	-0.173856	-0.711452	0.035286	-0.046826	0.033368
79	0.445878	0.005000	8.740112	0.096905	-4.347623	-0.026866	-0.174312	-0.711579	0.041759	-0.046495	0.027863
80	0.450878	0.005000	8.711280	0.007564	-4.348076	-0.026621	-0.174522	-0.711628	0.028506	-0.052847	0.024352
81	0.455878	0.005000	8.706106	0.049587	-4.316400	-0.025825	-0.174181	-0.711501	0.040513	-0.056837	0.033514
82	0.460878	0.005000	8.672040	0.002330	-4.355640	-0.025028	-0.173839	-0.711374	0.028333	-0.053356	0.033435
83	0.465878	0.005000	8.710766	0.039240	-4.239463	-0.024231	-0.173498	-0.711247	0.038309	-0.074705	0.046210
84	0.470878	0.005000	8.704564	0.075122	-4.316400	-0.023435	-0.173156	-0.711120	0.035247	-0.067033	0.037894
85	0.475878	0.005000	8.705078	0.000000	-4.388678	-0.022638	-0.172815	-0.710992	0.028890	-0.073279	0.039292
86	0.480878	0.005000	8.681086	-0.099628	-4.334492	-0.021842	-0.172474	-0.710865	0.030604	-0.067360	0.054385
87	0.485878	0.005000	8.538860	-0.156960	-4.340180	-0.021045	-0.172132	-0.710738	0.009580	-0.075356	0.047916
88	0.490878	0.005000	8.554320	-0.078480	-4.282122	-0.020249	-0.171791	-0.710611	0.040741	-0.072559	0.052797
89	0.495878	0.005000	8.554320	-0.073458	-4.154418	-0.019452	-0.171449	-0.710484	0.015082	-0.065711	0.057473
90	0.500878	0.005000	8.612847	-0.019953	-4.158774	-0.018656	-0.171108	-0.710357	0.008305	-0.057156	0.056586
91	0.505878	0.005000	8.626447	-0.022797	-4.237920	-0.017859	-0.170767	-0.710230	0.005989	-0.058954	0.059652
92	0.510878	0.005000	8.593560	-0.012041	-4.277160	-0.017062	-0.170425	-0.710103	0.000013	-0.069440	0.059888
93	0.515878	0.005000	8.661285	-0.021511	-4.259431	-0.016548	-0.170171	-0.709951	0.002626	-0.083820	0.074212
94	0.520878	0.005000	8.703368	-0.196200	-4.316400	-0.017232	-0.170285	-0.709697	-0.007346	-0.100425	0.070322
95	0.525878	0.005000	8.627732	-0.122788	-4.282228	-0.017915	-0.170399	-0.709443	0.001439	-0.104689	0.067289
96	0.530878	0.005000	8.480287	-0.235440	-4.434120	-0.018598	-0.170512	-0.709189	-0.002331	-0.114147	0.075135
97	0.535878	0.005000	8.593392	-0.118225	-4.473192	-0.019281	-0.170626	-0.708935	0.002209	-0.108280	0.064489
98	0.540878	0.005000	8.521101	-0.123741	-4.467339	-0.019964	-0.170740	-0.708680	0.006568	-0.113428	0.069233
99	0.545878	0.005000	8.509226	-0.162814	-4.434120	-0.020647	-0.170854	-0.708426	0.007262	-0.100454	0.062647
100	0.550878	0.005000	8.497684	-0.226742	-4.486506	-0.021330	-0.170968	-0.708172	0.009549	-0.117529	0.057035
101	0.555878	0.005000	8.381204	-0.219284	-4.484902	-0.022013	-0.171082	-0.707918	0.001287	-0.104883	0.055990
102	0.560878	0.005000	8.432682	-0.043158	-4.551840	-0.022696	-0.171196	-0.707663	0.009518	-0.111144	0.058465
103	0.565878	0.005000	8.397360	-0.105270	-4.429340	-0.023379	-0.171310	-0.707409	0.017289	-0.104896	0.049504
104	0.570878	0.005000	8.377962	-0.156960	-4.414722	-0.024062	-0.171423	-0.707155	0.008763	-0.105353	0.044993
105	0.575878	0.005000	8.335671	-0.084138	-4.506942	-0.024745	-0.171537	-0.706901	0.016997	-0.110298	0.049650
106	0.580878	0.005000	8.358120	-0.092427	-4.563185	-0.025318	-0.171633	-0.706647	0.015236	-0.113781	0.040785
107	0.585878	0.005000	8.408463	-0.078480	-4.484463	-0.024635	-0.171519	-0.706392	0.022451	-0.110140	0.028686
108	0.590878	0.005000	8.389101	-0.092942	-4.605542	-0.023952	-0.171405	-0.706138	0.021246	-0.112360	0.037443
109	0.595878	0.005000	8.363992	-0.078480	-4.563583	-0.023269	-0.171291	-0.705884	0.017255	-0.112798	0.034236
110	0.600878	0.005000	8.394319	-0.075439	-4.666519	-0.022586	-0.171177	-0.705629	0.006591	-0.118252	0.039224
111	0.605878	0.005000	8.396967	-0.038847	-4.629927	-0.021903	-0.171063	-0.705375	0.008310	-0.104606	0.031238
112	0.610878	0.005000	8.392065	0.075833	-4.661618	-0.021220	-0.170950	-0.705121	0.013135	-0.108430	0.033396
113	0.615878	0.005000	8.414635	0.000000	-4.664069	-0.020537	-0.170836	-0.704866	0.001465	-0.098172	0.031452
114	0.620878	0.005000	8.428627	-0.047213	-4.724120	-0.019854	-0.170722	-0.704612	0.009067	-0.109352	0.029486
115	0.625878	0.005000	8.436600	-0.010725	-4.669560	-0.019171	-0.170608	-0.704358	0.025451	-0.096984	0.031921
116	0.630878	0.005000	8.371689	-0.078480	-4.563942	-0.018487	-0.170494	-0.704103	0.017879	-0.093201	0.028438
117	0.635878	0.005000	8.426601	-0.055653	-4.725213	-0.017804	-0.170380	-0.703849	0.014968	-0.090713	0.040407
118	0.640878	0.005000	8.398086	-0.118446	-4.748040	-0.017121	-0.170266	-0.703595	0.022220	-0.088957	0.029459
119	0.645878	0.005000	8.328803	-0.061341	-4.720977	-0.016438	-0.170152	-0.703341	0.039309	-0.088722	0.029467
120	0.650878	0.005000	8.230096	-0.053708	-4.748040	-0.015976	-0.169597	-0.703333	0.017703	-0.083952	0.027504
121	0.655878	0.005000	8.225000	-0.039240	-4.732640	-0.015521	-0.169028	-0.703333	0.034697	-0.083383	0.025687
122	0.660878	0.005000	8.349044	-0.030164	-4.838531	-0.015066	-0.168459	-0.703333	0.024565	-0.080079	0.036899
123	0.665878	0.005000	8.351888	-0.039240	-4.787280	-0.014611	-0.167890	-0.703333	0.023637	-0.071353	0.030951
124	0.670878	0.005000	8.240400	-0.068315	-4.884669	-0.014156	-0.167321	-0.703333	0.053085	-0.068659	0.032087
125	0.675878	0.005000	8.280729	0.001089	-4.825431	-0.013701	-0.166753	-0.703333	0.034653	-0.064142	0.038421
126	0.680878	0.005000	8.284239	0.004599	-4.711099	-0.013245	-0.166184	-0.703333	0.053327	-0.071251	0.034924
127	0.685878	0.005000	8.279640	-0.010287	-4.688227	-0.012790	-0.165615	-0.703333	0.054612	-0.061758	0.031548
128	0.690878	0.005000	8.342146	0.023266	-4.779293	-0.012335	-0.165046	-0.703333	0.059308	-0.050690	0.024689
129	0.695878	0.005000	8.290017	0.039240	-4.750309	-0.011880	-0.164477	-0.703333	0.057774	-0.042588	0.029946
130	0.700878	0.005000	8.331678	0.091278	-4.813299	-0.011425	-0.163908	-0.703333	0.059649	-0.048375	0.026875
131	0.705878	0.005000	8.217225	0.078480	-4.778325	-0.010970	-0.163339	-0.703333	0.060377	-0.044517	0.027925
132	0.710878	0.005000	8.359542	-0.001422	-4.708800	-0.010515	-0.162770	-0.703333	0.060657	-0.038031	0.039626
133	0.715878	0.005000	8.244666	0.013221	-4.691313	-0.010837	-0.162590	-0.703442	0.055399	-0.047333	0.025606
134	0.720878	0.005000	8.255043	0.053883	-4.748040	-0.011292	-0.162476	-0.703569	0.066561	-0.030714	0.040098
135	0.725878	0.005000	8.279640	-0.051182	-4.693444	-0.011747	-0.162362	-0.703696	0.057876	-0.019939	0.035500
136	0.730878	0.005000	8.281183	-0.069056	-4.729191	-0.012202	-0.162248	-0.703823	0.063698	-0.017761	0.035078
137	0.735878	0.005000	8.207740	-0.006580	-4.761201	-0.012657	-0.162135	-0.703950	0.073155	-0.006513	0.037862
138	0.740878	0.005000	8.212369	0.028031	-4.720009	-0.013112	-0.162021	-0.704077	0.076855	-0.001968	0.038599
139	0.745878	0.005000	8.279640	0.002678	-4.671345	-0.013568	-0.161907	-0.704204	0.077858	0.005641	0.030652
140	0.750878	0.005000	8.279640	0.155009	-4.822617	-0.014023	-0.161793	-0.704331	0.081840	0.015084	0.027899
141	0.755878	0.005000	8.289231	-0.024854	-4.748040	-0.014478	-0.161679	-0.704458	0.090355	0.013157	0.025158
142	0.760878	0.005000	8.326519	0.007639	-4.661921	-0.014933	-0.161565	-0.704585	0.089749	0.020425	0.025232
143	0.765878	0.005000	8.308851	-0.029211	-4.708800	-0.015388	-0.161452	-0.704712	0.110457	0.004011	0.023168
144	0.770878	0.005000	8.410853	0.012873	-4.774407	-0.015843	-0.161338	-0.704840	0.085316	0.001669	0.015762
145	0.775878	0.005000	8.460123	0.109914	-4.677472	-0.016298	-0.161224	-0.704967	0.105788	0.001623	0.016542
146	0.780878	0.005000	8.358120	0.179802	-4.549692	-0.015998	-0.161110	-0.704532	0.117849	-0.000790	0.012469
147	0.785878	0.005000	8.354580	0.178350	-4.690950	-0.015429	-0.160996	-0.703896	0.107668	-0.000674	0.013322
148	0.790878	0.005000	8.342660	0.126040	-4.606540	-0.014860	-0.160882	-0.703261	0.105146	-0.014126	0.009367
149	0.795878	0.005000	8.292256	0.065864	-4.656944	-0.014291	-0.160769	-0.702626	0.100471	-0.017551	0.003986
150	0.800878	0.005000	8.348348	-0.029468	-4.669560	-0.013723	-0.160655	-0.701990	0.119448	-0.029960	0.004816
151	0.805878	0.005000	8.240400	0.064623	-4.683417	-0.013154	-0.160541	-0.701355	0.105731	-0.021999	0.002620
152	0.810878	0.005000	8.240400	0.000000	-4.725137	-0.012585	-0.160427	-0.700720	0.109920	-0.024869	-0.005841
153	0.815878	0.005000	8.240400	-0.117720	-4.786040	-0.012016	-0.160313	-0.700084	0.113534	-0.025998	-0.003959
154	0.820878	0.005000	8.202763	-0.080083	-4.672767	-0.011447	-0.160199	-0.699449	0.108766	-0.023781	-0.009560
155	0.825878	0.005000	8.057542	-0.122167	-4.713247	-0.010878	-0.160086	-0.698814	0.095789	-0.023123	0.000531
156	0.830878	0.005000	8.122680	-0.039240	-4.708800	-0.010309	-0.159972	-0.698178	0.089709	-0.020839	-0.008081
157	0.835878	0.005000	8.113014	-0.039240	-4.748040	-0.009740	-0.159858	-0.697543	0.087156	-0.021215	-0.008143
158	0.840878	0.005000	8.097660	-0.090990	-4.788989	-0.009171	-0.159744	-0.696908	0.098888	-0.019699	0.000176
159	0.845878	0.005000	8.170452	-0.102366	-4.809456	-0.009167	-0.159701	-0.697141	0.094283	-0.005708	-0.002362
160	0.850878	0.005000	8.161920	-0.042576	-4.690848	-0.009509	-0.159701	-0.697903	0.108983	-0.009097	-0.001534
161	0.855878	0.005000	8.182962	-0.175158	-4.769082	-0.009850	-0.159701	-0.698666	0.091905	-0.007156	0.004421
162	0.860878	0.005000	8.067632	-0.070856	-4.748040	-0.010192	-0.159701	-0.699429	0.105001	-0.013117	0.006513
163	0.865878	0.005000	8.057164	-0.025928	-4.695836	-0.010533	-0.159701	-0.700192	0.076420	-0.004405	0.004570
164	0.870878	0.005000	8.113800	-0.068360	-4.689800	-0.010875	-0.159701	-0.700954	0.075468	-0.012045	-0.000677
165	0.875878	0.005000	8.247676	-0.021829	-4.843931	-0.011216	-0.159701	-0.701717	0.070771	-0.021420	0.008836
166	0.880878	0.005000	8.323312	-0.156960	-4.756905	-0.011558	-0.159701	-0.702480	0.083198	-0.005828	-0.003044
167	0.885878	0.005000	8.438188	-0.116132	-4.708800	-0.011900	-0.159701	-0.703243	0.079120	-0.018526	0.010132
168	0.890878	0.005000	8.437856	-0.154449	-4.822753	-0.012241	-0.159701	-0.704005	0.073291	-0.027065	0.009017
169	0.895878	0.005000	8.401034	-0.164309	-4.787280	-0.012583	-0.159701	-0.704768	0.073145	-0.028471	0.014911
170	0.900878	0.005000	8.286114	-0.144011	-4.780806	-0.012924	-0.159701	-0.705531	0.074898	-0.024127	0.013595
171	0.905878	0.005000	8.219797	-0.186882	-4.697515	-0.013266	-0.159701	-0.706294	0.070275	-0.024506	0.004510
172	0.910878	0.005000	8.216075	-0.129882	-4.672313	-0.013375	-0.159759	-0.706602	0.081684	-0.023805	0.011482
173	0.915878	0.005000	8.186154	-0.093486	-4.748040	-0.013261	-0.159873	-0.706475	0.068443	-0.020720	-0.001437
174	0.920878	0.005000	8.243940	-0.139110	-4.787280	-0.013147	-0.159987	-0.706348	0.077230	-0.009636	0.003582
175	0.925878	0.005000	8.393064	-0.177654	-4.849362	-0.013033	-0.160101	-0.706221	0.074095	-0.015135	0.016357
176	0.930878	0.005000	8.318880	-0.125188	-4.881646	-0.012920	-0.160214	-0.706094	0.070540	-0.014229	0.009453
177	0.935878	0.005000	8.201160	-0.235440	-4.865064	-0.012806	-0.160328	-0.705967	0.073304	-0.018925	0.017526
178	0.940878	0.005000	8.287476	-0.196200	-4.857924	-0.012692	-0.160442	-0.705840	0.070478	-0.016986	0.009447
179	0.945878	0.005000	8.248024	-0.164584	-5.063079	-0.012578	-0.160556	-0.705712	0.074134	-0.019542	0.016606
180	0.950878	0.005000	8.215501	-0.127280	-4.909780	-0.012464	-0.160670	-0.705585	0.064788	-0.021021	0.011469
181	0.955878	0.005000	8.318880	-0.233504	-4.830393	-0.012350	-0.160784	-0.705458	0.076199	-0.035066	0.006810
182	0.960878	0.005000	8.165551	-0.196200	-4.943332	-0.012237	-0.160897	-0.705331	0.076863	-0.042557	0.010015
183	0.965878	0.005000	8.090005	-0.192917	-4.908283	-0.012123	-0.161011	-0.705204	0.072998	-0.028933	0.006748
184	0.970878	0.005000	8.188907	-0.183947	-4.799533	-0.012009	-0.161125	-0.705077	0.058198	-0.020792	-0.000941
185	0.975878	0.005000	8.062141	-0.087450	-4.878089	-0.011850	-0.161194	-0.705000	0.045675	-0.019342	0.003837
186	0.980878	0.005000	8.004960	-0.188183	-4.905000	-0.011623	-0.161194	-0.705000	0.052857	-0.015189	0.015239
187	0.985878	0.005000	7.951531	-0.182011	-4.826520	-0.011395	-0.161194	-0.705000	0.050167	-0.005727	0.015197
188	0.990878	0.005000	8.088614	-0.218407	-4.882793	-0.011167	-0.161194	-0.705000	0.044760	0.006376	0.002749
189	0.995878	0.005000	8.084469	-0.176837	-4.807157	-0.010940	-0.161194	-0.705000	0.044852	0.008669	0.003969
190	1.000878	0.005000	8.089642	-0.189998	-4.810001	-0.010712	-0.161194	-0.705000	0.034110	0.009547	-0.000223
191	1.005878	0.005000	8.228510	-0.221765	-4.761715	-0.010484	-0.161194	-0.705000	0.045327	0.024089	0.009909
192	1.010878	0.005000	8.346835	-0.162345	-4.697515	-0.010256	-0.161194	-0.705000	0.027296	0.025429	0.011941
193	1.015878	0.005000	8.358120	-0.103803	-4.582639	-0.010029	-0.161194	-0.705000	0.048720	0.009070	0.014119
194	1.020878	0.005000	8.324477	-0.151363	-4.596677	-0.009801	-0.161194	-0.705000	0.042374	0.025802	0.007423
195	1.025878	0.005000	8.473087	-0.159713	-4.661301	-0.009573	-0.161194	-0.705000	0.016479	0.029888	0.010700
196	1.030878	0.005000	8.358302	-0.196200	-4.512691	-0.009346	-0.161194	-0.705000	0.032085	0.017311	0.009464
197	1.035878	0.005000	8.318880	-0.193704	-4.549344	-0.009118	-0.161194	-0.705000	0.020534	0.027404	0.007738
198	1.040878	0.005000	8.397360	-0.201510	-4.714110	-0.008923	-0.161388	-0.704892	-0.008966	0.022065	0.007225
199	1.045878	0.005000	8.428446	-0.148806	-4.646627	-0.008809	-0.162070	-0.704511	0.008792	0.012034	0.021308
200	1.050878	0.005000	8.458595	-0.185203	-4.591080	-0.008695	-0.162753	-0.704129	0.018393	0.009188	0.022493
201	1.055878	0.005000	8.528921	-0.196200	-4.669560	-0.008581	-0.163436	-0.703748	0.001812	0.008201	0.028139
202	1.060878	0.005000	8.509211	-0.128536	-4.568525	-0.008468	-0.164119	-0.703367	0.001112	0.005170	0.027261
203	1.065878	0.005000	8.495551	-0.137431	-4.669560	-0.008354	-0.164801	-0.702986	0.012984	-0.004297	0.035500
204	1.070878	0.005000	8.397360	-0.196200	-4.551840	-0.008240	-0.165484	-0.702605	0.005376	-0.003390	0.031546
205	1.075878	0.005000	8.382883	-0.128007	-4.487837	-0.008126	-0.166167	-0.702223	0.016515	-0.001523	0.033086
206	1.080878	0.005000	8.358120	-0.062506	-4.480651	-0.008013	-0.166850	-0.701842	0.004318	-0.004399	0.036465
207	1.085878	0.005000	8.301302	-0.048029	-4.530178	-0.007899	-0.167532	-0.701461	-0.009348	0.002392	0.030756
208	1.090878	0.005000	8.301045	-0.129610	-4.630320	-0.007785	-0.168215	-0.701080	-0.003558	-0.005544	0.043463
209	1.095878	0.005000	8.237299	-0.156960	-4.630320	-0.007671	-0.168898	-0.700699	-0.005353	0.001409	0.034429
210	1.100878	0.005000	8.357860	-0.079001	-4.552621	-0.007558	-0.169580	-0.700317	0.005411	-0.000615	0.037997
211	1.105878	0.005000	8.356002	-0.156960	-4.595316	-0.007425	-0.169978	-0.700000	-0.012064	0.005265	0.039163
212	1.110878	0.005000	8.392398	-0.088403	-4.556802	-0.007197	-0.168954	-0.700000	0.004687	-0.006450	0.038348
213	1.115878	0.005000	8.256011	-0.149154	-4.677366	-0.006970	-0.167929	-0.700000	0.008785	-0.007912	0.037583
214	1.120878	0.005000	8.318880	-0.128370	-4.748040	-0.006742	-0.166905	-0.700000	-0.001511	-0.002690	0.045970
215	1.125878	0.005000	8.344627	-0.051493	-4.721053	-0.006515	-0.165881	-0.700000	0.014518	-0.012964	0.039193
216	1.130878	0.005000	8.295977	-0.124285	-4.676125	-0.006287	-0.164857	-0.700000	-0.000232	-0.006918	0.045740
217	1.135878	0.005000	8.279640	-0.114089	-4.727512	-0.006059	-0.163833	-0.700000	0.012065	-0.010453	0.032491
218	1.140878	0.005000	8.314590	-0.043530	-4.765515	-0.005832	-0.162809	-0.700000	0.021659	-0.014605	0.040030
219	1.145878	0.005000	8.343280	-0.093320	-4.768159	-0.005604	-0.161785	-0.700000	0.017722	-0.004351	0.027441
220	1.150878	0.005000	8.267644	-0.117720	-4.865760	-0.005377	-0.160761	-0.700000	0.025714	-0.003406	0.032196
221	1.155878	0.005000	8.219464	-0.030088	-4.826520	-0.005149	-0.159736	-0.700000	0.017852	-0.001224	0.027703
222	1.160878	0.005000	8.161920	-0.032478	-4.787280	-0.004922	-0.158712	-0.700000	0.023648	-0.013870	0.036370
223	1.165878	0.005000	8.205078	-0.039240	-4.897164	-0.004694	-0.157688	-0.700000	0.020853	-0.007607	0.026350
224	1.170878	0.005000	8.317806	-0.039240	-4.863612	-0.004484	-0.156751	-0.699987	0.032258	-0.009941	0.018258
225	1.175878	0.005000	8.242170	-0.001770	-4.787280	-0.004598	-0.157433	-0.699733	0.034818	-0.005180	0.019251
226	1.180878	0.005000	8.309652	-0.039240	-4.861146	-0.004711	-0.158116	-0.699479	0.022473	-0.000793	0.023533
227	1.185878	0.005000	8.318880	-0.085938	-4.723715	-0.004825	-0.158799	-0.699225	0.021626	-0.011788	0.017946
228	1.190878	0.005000	8.300243	-0.136357	-4.737738	-0.004939	-0.159482	-0.698971	0.023939	-0.002466	0.014457
229	1.195878	0.005000	8.345443	-0.156960	-4.656883	-0.005053	-0.160165	-0.698717	0.032857	0.004207	0.017904
230	1.200878	0.005000	8.264119	-0.172481	-4.803678	-0.005166	-0.160848	-0.698462	0.024642	-0.001126	0.021312
231	1.205878	0.005000	8.277129	-0.055093	-4.685413	-0.005280	-0.161530	-0.698208	0.023651	0.000535	0.014384
232	1.210878	0.005000	8.279640	-0.057272	-4.645175	-0.005394	-0.162213	-0.697954	0.040255	0.002987	0.013362
233	1.215878	0.005000	8.264452	-0.072157	-4.693612	-0.005508	-0.162896	-0.697700	0.031226	0.001599	0.014144
234	1.220878	0.005000	8.267296	-0.066136	-4.760384	-0.005621	-0.163579	-0.697446	0.030436	-0.008155	0.012560
235	1.225878	0.005000	8.201160	-0.038444	-4.659949	-0.005735	-0.164262	-0.697192	0.036467	-0.010734	0.009831
236	1.230878	0.005000	8.240400	-0.103500	-4.651649	-0.005849	-0.164944	-0.696938	0.041937	-0.009415	-0.005108
237	1.235878	0.005000	8.323146	-0.043506	-4.673826	-0.005963	-0.165627	-0.696684	0.043287	-0.009097	0.007339
238	1.240878	0.005000	8.314614	-0.040662	-4.669560	-0.005970	-0.165353	-0.696667	0.065724	-0.014504	0.000178
239	1.245878	0.005000	8.238978	-0.154116	-4.707378	-0.005970	-0.165011	-0.696667	0.048500	-0.015641	0.004704
240	1.250878	0.005000	8.236557	-0.156960	-4.858074	-0.005970	-0.164670	-0.696667	0.034197	-0.007889	0.003649
241	1.255878	0.005000	8.175202	-0.085121	-4.793921	-0.005970	-0.164328	-0.696667	0.041119	-0.010423	-0.003512
242	1.260878	0.005000	8.161920	-0.039240	-4.727770	-0.005970	-0.163987	-0.696667	0.045247	-0.007121	-0.001712
243	1.265878	0.005000	8.149591	-0.012329	-4.772697	-0.005970	-0.163645	-0.696667	0.045458	-0.011265	-0.006259
244	1.270878	0.005000	8.258190	-0.117720	-4.748040	-0.005970	-0.163303	-0.696667	0.056077	-0.008618	-0.003699
245	1.275878	0.005000	8.433393	-0.039240	-4.726817	-0.005970	-0.162962	-0.696667	0.057641	-0.004581	-0.009156
246	1.280878	0.005000	8.284602	-0.060100	-4.667079	-0.005970	-0.162620	-0.696667	0.050746	-0.007592	-0.016100
247	1.285878	0.005000	8.318880	-0.109551	-4.739871	-0.005970	-0.162279	-0.696667	0.044740	-0.008750	-0.013600
248	1.290878	0.005000	8.332737	-0.078480	-4.787280	-0.005970	-0.161937	-0.696667	0.058104	-0.018446	-0.008581
249	1.295878	0.005000	8.279640	-0.088782	-4.766677	-0.005970	-0.161596	-0.696667	0.058389	-0.017241	-0.010419
250	1.300878	0.005000	8.318880	-0.029831	-4.748040	-0.005970	-0.161254	-0.696667	0.060695	-0.016581	-0.007988
251	1.305878	0.005000	8.196546	-0.152346	-4.718028	-0.006064	-0.161382	-0.696772	0.060309	-0.016300	-0.008343
252	1.310878	0.005000	8.240400	-0.041025	-4.787280	-0.006178	-0.161609	-0.696899	0.048119	-0.018963	-0.008116
253	1.315878	0.005000	8.202219	-0.116661	-4.825461	-0.006291	-0.161837	-0.697026	0.061271	-0.021199	-0.006231
254	1.320878	0.005000	8.267932	0.031434	-4.748040	-0.006405	-0.162064	-0.697153	0.059507	-0.017484	-0.012999
255	1.325878	0.005000	8.279640	-0.071733	-4.852267	-0.006519	-0.162292	-0.697280	0.070996	-0.017260	-0.011990
256	1.330878	0.005000	8.279640	0.020059	-4.688741	-0.006633	-0.162519	-0.697407	0.067240	-0.029027	-0.012285
257	1.335878	0.005000	8.267205	0.012435	-4.683931	-0.006747	-0.162747	-0.697534	0.057166	-0.010540	-0.015343
258	1.340878	0.005000	8.279640	0.039240	-4.733042	-0.006861	-0.162975	-0.697661	0.076997	-0.022178	-0.014161
259	1.345878	0.005000	8.293406	-0.007806	-4.748040	-0.006974	-0.163202	-0.697788	0.054415	-0.016838	-0.009324
260	1.350878	0.005000	8.259127	-0.098993	-4.746255	-0.007088	-0.163430	-0.697915	0.068346	-0.024066	-0.018026
261	1.355878	0.005000	8.217044	0.008411	-4.787280	-0.007202	-0.163657	-0.698042	0.072980	-0.028998	-0.007039
262	1.360878	0.005000	8.227360	0.065319	-4.865639	-0.007316	-0.163885	-0.698169	0.066532	-0.018978	-0.016373
263	1.365878	0.005000	8.151724	0.097329	-4.835173	-0.007430	-0.164112	-0.698296	0.073345	-0.016566	-0.005746
264	1.370878	0.005000	8.287461	-0.102078	-4.834341	-0.007705	-0.163937	-0.698423	0.070076	-0.004547	-0.022901
265	1.375878	0.005000	8.274663	0.004977	-4.875714	-0.008046	-0.163596	-0.698550	0.079236	-0.012249	-0.020074
266	1.380878	0.005000	8.201160	0.034974	-4.865760	-0.008387	-0.163255	-0.698677	0.067407	-0.010431	-0.016154
267	1.385878	0.005000	8.201160	-0.039240	-4.827231	-0.008729	-0.162913	-0.698804	0.060422	-0.012222	-0.012032
268	1.390878	0.005000	8.161920	-0.035685	-4.787280	-0.009070	-0.162572	-0.698931	0.067467	-0.019905	-0.010390
269	1.395878	0.005000	8.083440	-0.072081	-4.807324	-0.009411	-0.162230	-0.699058	0.063493	-0.004243	-0.010888
270	1.400878	0.005000	8.191917	-0.069237	-4.817277	-0.009752	-0.161889	-0.699185	0.067466	-0.005331	-0.006365
271	1.405878	0.005000	8.212929	-0.184431	-4.748040	-0.010094	-0.161548	-0.699313	0.063826	0.007160	-0.007406
272	1.410878	0.005000	8.137157	-0.196200	-4.733563	-0.010435	-0.161206	-0.699440	0.066704	0.008762	-0.007553
273	1.415878	0.005000	8.244999	-0.152361	-4.865760	-0.010776	-0.160865	-0.699567	0.058968	0.004204	-0.001639
274	1.420878	0.005000	8.239311	-0.117720	-4.866849	-0.011118	-0.160523	-0.699694	0.046180	0.009004	0.001668
275	1.425878	0.005000	8.312103	-0.150183	-4.875215	-0.011459	-0.160182	-0.699821	0.055214	0.000021	0.004389
276	1.430878	0.005000	8.317471	-0.144819	-4.919958	-0.011800	-0.159841	-0.699948	0.058419	0.002710	0.000093
277	1.435878	0.005000	8.290653	-0.185187	-4.989682	-0.011604	-0.159836	-0.699699	0.035363	-0.001329	-0.001748
278	1.440878	0.005000	8.248569	-0.125889	-4.818351	-0.011034	-0.160063	-0.699191	0.047228	0.000338	0.006249
279	1.445878	0.005000	8.318880	-0.107070	-4.889026	-0.010465	-0.160291	-0.698682	0.045810	0.008366	0.000150
280	1.450878	0.005000	8.316399	-0.002481	-4.860798	-0.009896	-0.160519	-0.698174	0.055470	0.003192	0.002779
281	1.455878	0.005000	8.357394	-0.039240	-4.787280	-0.009327	-0.160747	-0.697665	0.047640	0.004283	-0.004818
282	1.460878	0.005000	8.243607	0.036033	-4.748040	-0.008758	-0.160974	-0.697157	0.061362	0.002243	-0.001442
283	1.465878	0.005000	8.201160	-0.100929	-4.753637	-0.008189	-0.161202	-0.696648	0.049767	0.006324	0.005787
284	1.470878	0.005000	8.248841	-0.109279	-4.686442	-0.007619	-0.161430	-0.696140	0.059909	0.001831	0.005150
285	1.475878	0.005000	8.145250	-0.117720	-4.725470	-0.007050	-0.161658	-0.695631	0.058015	-0.006000	0.007496
286	1.480878	0.005000	8.212142	-0.039240	-4.787280	-0.006481	-0.161885	-0.695123	0.053289	-0.000510	0.002517
287	1.485878	0.005000	8.223427	-0.022267	-4.748040	-0.005912	-0.162113	-0.694614	0.061626	-0.000652	0.005287
288	1.490878	0.005000	8.201160	-0.098372	-4.787280	-0.005343	-0.162341	-0.694106	0.047843	0.002018	0.008218
289	1.495878	0.005000	8.117537	-0.100672	-4.809472	-0.004774	-0.162569	-0.693597	0.039961	0.002932	0.010286
290	1.500878	0.005000	8.240400	-0.025036	-4.683764	-0.004587	-0.162851	-0.693577	0.034728	0.002912	0.015617
291	1.505878	0.005000	8.279640	-0.067119	-4.865760	-0.004815	-0.163192	-0.694086	0.044581	0.008372	0.011537
292	1.510878	0.005000	8.288157	-0.047757	-4.857243	-0.005043	-0.163534	-0.694594	0.048948	0.012491	0.007138
293	1.515878	0.005000	8.318880	-0.117720	-4.805705	-0.005270	-0.163875	-0.695102	0.035120	0.016981	0.006018
294	1.520878	0.005000	8.322178	-0.085075	-4.793875	-0.005498	-0.164216	-0.695611	0.052337	0.007914	0.015146
295	1.525878	0.005000	8.279186	-0.156506	-4.826520	-0.005725	-0.164558	-0.696119	0.056302	0.011626	0.012859
296	1.530878	0.005000	8.277250	-0.080870	-4.789670	-0.005953	-0.164899	-0.696627	0.040105	0.016965	0.004944
297	1.535878	0.005000	8.279640	-0.039240	-4.782046	-0.006180	-0.165240	-0.697135	0.045806	-0.000586	0.017467
298	1.540878	0.005000	8.279640	-0.078480	-4.873838	-0.006408	-0.165582	-0.697644	0.036728	0.012522	0.012829
299	1.545878	0.005000	8.269172	-0.060176	-4.836988	-0.006636	-0.165923	-0.698152	0.041955	0.001499	0.009139
300	1.550878	0.005000	8.227088	-0.051856	-4.656944	-0.006863	-0.166264	-0.698660	0.048734	0.008843	0.010969
301	1.555878	0.005000	8.201160	-0.133876	-4.754968	-0.007091	-0.166606	-0.699169	0.053296	0.007442	0.012998
302	1.560878	0.005000	8.279640	-0.098720	-4.845520	-0.007318	-0.166947	-0.699677	0.043140	0.001097	0.014412
303	1.565878	0.005000	8.257796	-0.021844	-4.713247	-0.007961	-0.167496	-0.699167	0.052174	-0.000561	0.008404
304	1.570878	0.005000	8.343568	-0.053792	-4.733488	-0.009326	-0.168406	-0.696879	0.061210	0.004680	0.014453
305	1.575878	0.005000	8.358120	-0.051417	-4.787280	-0.010691	-0.169316	-0.694592	0.043790	0.018591	0.019023
306	1.580878	0.005000	8.240400	-0.028000	-4.798520	-0.012057	-0.170227	-0.692305	0.055613	0.003922	0.019915
307	1.585878	0.005000	8.318880	-0.104741	-4.715290	-0.013422	-0.171137	-0.690018	0.045605	0.011261	0.011866
308	1.590878	0.005000	8.393714	-0.114074	-4.830166	-0.014788	-0.172047	-0.687731	0.045227	0.005079	0.007975
309	1.595878	0.005000	8.314070	-0.037637	-4.823313	-0.016153	-0.172957	-0.685443	0.041481	-0.000498	0.012398
310	1.600878	0.005000	8.157836	0.113636	-4.706758	-0.017519	-0.173868	-0.683156	0.040479	0.007715	0.016689
311	1.605878	0.005000	8.206046	-0.029468	-4.752926	-0.018884	-0.174778	-0.680869	0.046921	-0.000102	0.009608
312	1.610878	0.005000	8.326241	-0.071119	-4.684283	-0.020250	-0.175688	-0.678582	0.034324	0.014994	0.005276
313	1.615878	0.005000	8.317640	-0.068360	-4.689800	-0.021615	-0.176599	-0.676295	0.044566	0.003893	0.004291
314	1.620878	0.005000	8.292604	-0.143996	-4.656596	-0.022980	-0.177509	-0.674008	0.034177	0.005557	0.011081
315	1.625878	0.005000	8.224592	-0.046864	-4.771472	-0.024346	-0.178419	-0.671720	0.045708	0.008499	0.011373
316	1.630878	0.005000	8.259052	-0.039240	-4.826520	-0.025429	-0.179160	-0.670220	0.069548	0.004950	0.007319
317	1.635878	0.005000	8.244152	-0.035488	-4.783528	-0.025657	-0.179388	-0.671110	0.051225	0.010191	0.003533
318	1.640878	0.005000	8.210239	-0.078480	-4.754042	-0.025885	-0.179616	-0.671999	0.046607	0.006667	0.001410
319	1.645878	0.005000	8.147731	-0.130245	-4.733851	-0.026112	-0.179843	-0.672889	0.027389	0.005420	0.010323
320	1.650878	0.005000	8.151724	-0.147279	-4.718481	-0.026340	-0.180071	-0.673778	0.052534	0.001824	0.008484
321	1.655878	0.005000	8.221673	-0.117720	-4.748040	-0.026567	-0.180299	-0.674668	0.049554	0.005714	0.009797
322	1.660878	0.005000	8.306899	-0.035246	-4.748040	-0.026795	-0.180526	-0.675557	0.037255	0.001675	0.010052
323	1.665878	0.005000	8.202310	-0.004599	-4.787280	-0.027022	-0.180754	-0.676447	0.045906	-0.001390	0.014924
324	1.670878	0.005000	8.202854	-0.119414	-4.787280	-0.027250	-0.180982	-0.677336	0.041471	-0.003399	0.011445
325	1.675878	0.005000	8.161920	-0.113651	-4.787280	-0.027478	-0.181209	-0.678226	0.065149	-0.001429	0.003603
326	1.680878	0.005000	8.272727	-0.078480	-4.865760	-0.027705	-0.181437	-0.679115	0.051364	0.002603	0.008081
327	1.685878	0.005000	8.328637	0.009757	-4.718557	-0.027933	-0.181665	-0.680005	0.039930	0.009852	0.000288
328	1.690878	0.005000	8.240400	0.000000	-4.826520	-0.028160	-0.181892	-0.680894	0.060568	0.007994	0.005721
329	1.695878	0.005000	8.240400	-0.047590	-4.874110	-0.028194	-0.181911	-0.681801	0.064401	0.016591	0.010895
330	1.700878	0.005000	8.300591	-0.060191	-4.766329	-0.026942	-0.180545	-0.682817	0.057065	0.018353	0.007362
331	1.705878	0.005000	8.316762	-0.039240	-4.727361	-0.025690	-0.179179	-0.683834	0.058981	0.019476	0.016808
332	1.710878	0.005000	8.318880	-0.094197	-4.803103	-0.024438	-0.177814	-0.684850	0.059145	0.017525	0.010645
333	1.715878	0.005000	8.292513	-0.013493	-4.787900	-0.023187	-0.176448	-0.685867	0.059017	0.017252	0.015336
334	1.720878	0.005000	8.221219	-0.088509	-4.796432	-0.021935	-0.175083	-0.686883	0.054168	0.014567	0.011834
335	1.725878	0.005000	8.208814	-0.078480	-4.763349	-0.020683	-0.173717	-0.687900	0.054236	0.006743	0.007461
336	1.730878	0.005000	8.362930	-0.064049	-4.782470	-0.019432	-0.172352	-0.688916	0.042461	0.008735	0.010967
337	1.735878	0.005000	8.432667	0.037273	-4.710767	-0.018180	-0.170986	-0.689933	0.047722	0.012545	0.006959
338	1.740878	0.005000	8.358120	0.038363	-4.709677	-0.016928	-0.169621	-0.690949	0.054463	0.008586	0.011391
339	1.745878	0.005000	8.283361	-0.078480	-4.712521	-0.015676	-0.168255	-0.691966	0.045762	0.015461	0.001854
340	1.750878	0.005000	8.201160	-0.156960	-4.841314	-0.014425	-0.166890	-0.692982	0.050393	0.008581	0.010923
341	1.755878	0.005000	8.349060	-0.066420	-4.757100	-0.013173	-0.165524	-0.693999	0.051313	0.013447	0.005969
342	1.760878	0.005000	8.252199	-0.078480	-4.748040	-0.011938	-0.164177	-0.695000	0.048090	0.007841	0.014600
343	1.765878	0.005000	8.240400	-0.127674	-4.865760	-0.011825	-0.164064	-0.695000	0.037951	0.007119	0.012574
344	1.770878	0.005000	8.240400	-0.078480	-4.761261	-0.011711	-0.163950	-0.695000	0.053010	0.013711	0.006941
345	1.775878	0.005000	8.240400	-0.156960	-4.748040	-0.011597	-0.163836	-0.695000	0.058307	0.007213	0.015659
346	1.780878	0.005000	8.223866	-0.163132	-4.686094	-0.011484	-0.163723	-0.695000	0.054327	0.009535	0.010515
347	1.785878	0.005000	8.213020	-0.088509	-4.722490	-0.011370	-0.163609	-0.695000	0.053787	0.011166	0.007159
348	1.790878	0.005000	8.115979	0.039240	-4.865760	-0.011256	-0.163495	-0.695000	0.064427	0.013393	0.002411
349	1.795878	0.005000	8.256405	-0.055245	-4.748040	-0.011142	-0.163381	-0.695000	0.071310	0.010787	0.007439
350	1.800878	0.005000	8.318880	-0.162118	-4.797597	-0.011029	-0.163268	-0.695000	0.068586	0.010113	0.015034
351	1.805878	0.005000	8.355778	-0.078480	-4.701775	-0.010915	-0.163154	-0.695000	0.054690	0.020572	0.004984
352	1.810878	0.005000	8.279716	-0.117644	-4.630244	-0.010801	-0.163040	-0.695000	0.057281	0.009970	0.011031
353	1.815878	0.005000	8.321800	-0.078480	-4.745120	-0.010688	-0.162927	-0.695000	0.050983	0.013794	0.001427
354	1.820878	0.005000	8.234637	-0.078480	-4.775753	-0.010574	-0.162813	-0.695000	0.055260	0.005315	0.004163
355	1.825878	0.005000	8.240400	-0.148353	-4.848545	-0.010460	-0.162699	-0.695000	0.059464	0.009333	-0.001462
356	1.830878	0.005000	8.229285	-0.039240	-4.787280	-0.010753	-0.162992	-0.695113	0.053131	0.001542	-0.002084
357	1.835878	0.005000	8.228813	-0.092306	-4.775693	-0.011094	-0.163333	-0.695241	0.052733	0.010133	0.012509
358	1.840878	0.005000	8.262970	-0.134390	-4.686230	-0.011435	-0.163674	-0.695368	0.052897	0.010436	0.001741
359	1.845878	0.005000	8.299366	-0.000212	-4.709012	-0.011777	-0.164016	-0.695495	0.063853	0.000555	-0.000934
360	1.850878	0.005000	8.251806	-0.005476	-4.787280	-0.012118	-0.164357	-0.695622	0.052059	0.005002	0.000746
361	1.855878	0.005000	8.254438	-0.053278	-4.840558	-0.012459	-0.164698	-0.695749	0.066180	-0.003509	0.003412
362	1.860878	0.005000	8.385697	-0.106057	-4.814857	-0.012801	-0.165040	-0.695876	0.048170	0.006352	0.015098
363	1.865878	0.005000	8.349301	-0.126539	-4.760822	-0.013142	-0.165381	-0.696003	0.035500	0.001568	0.009746
364	1.870878	0.005000	8.246375	-0.033265	-4.681511	-0.013483	-0.165722	-0.696130	0.055109	-0.002069	0.008334
365	1.875878	0.005000	8.312617	0.000000	-4.787280	-0.013825	-0.166064	-0.696257	0.047900	0.006667	-0.000786
366	1.880878	0.005000	8.240400	-0.038665	-4.785555	-0.014166	-0.166405	-0.696384	0.041601	0.007484	-0.003888
367	1.885878	0.005000	8.203287	0.002127	-4.551840	-0.014507	-0.166746	-0.696511	0.056410	0.008036	0.011045
368	1.890878	0.005000	8.171813	-0.068587	-4.811680	-0.014849	-0.167088	-0.696639	0.053265	0.011531	0.002830
369	1.895878	0.005000	8.248191	0.007791	-4.716591	-0.015455	-0.167517	-0.696371	0.077262	0.007934	0.003530
370	1.900878	0.005000	8.133314	-0.039240	-4.748040	-0.016138	-0.167973	-0.695990	0.043015	0.014576	0.000520
371	1.905878	0.005000	8.305402	-0.025762	-4.643798	-0.016821	-0.168428	-0.695608	0.051903	0.007493	0.000912
372	1.910878	0.005000	8.374165	-0.078480	-4.787280	-0.017504	-0.168883	-0.695227	0.035907	0.007330	-0.002078
373	1.915878	0.005000	8.335732	-0.078480	-4.748040	-0.018188	-0.169339	-0.694846	0.041534	0.005369	0.005956
374	1.920878	0.005000	8.283482	-0.135419	-4.704958	-0.018871	-0.169794	-0.694464	0.050693	0.009933	0.001894
375	1.925878	0.005000	8.294495	-0.102865	-4.787280	-0.019554	-0.170250	-0.694083	0.030528	0.011733	-0.009697
376	1.930878	0.005000	8.252411	-0.105709	-4.775269	-0.020237	-0.170705	-0.693701	0.056119	0.007922	0.002049
377	1.935878	0.005000	8.279640	-0.009621	-4.718421	-0.020920	-0.171160	-0.693320	0.034597	0.020076	0.009485
378	1.940878	0.005000	8.312103	-0.064926	-4.787280	-0.021603	-0.171616	-0.692939	0.037657	0.009528	0.011085
379	1.945878	0.005000	8.326746	0.035307	-4.791213	-0.022286	-0.172071	-0.692557	0.044835	0.008921	0.016691
380	1.950878	0.005000	8.358120	-0.003267	-4.864671	-0.022969	-0.172526	-0.692176	0.042918	0.013545	0.005035
381	1.955878	0.005000	8.320635	-0.155205	-4.826520	-0.023653	-0.172982	-0.691795	0.044222	0.004843	0.002618
382	1.960878	0.005000	8.318880	-0.048437	-4.722596	-0.022972	-0.172604	-0.692005	0.053124	0.007903	0.008492
383	1.965878	0.005000	8.332996	-0.039240	-4.733924	-0.021607	-0.171807	-0.692513	0.054490	0.005308	0.008817
384	1.970878	0.005000	8.397360	-0.078480	-4.689195	-0.020241	-0.171011	-0.693022	0.047511	0.006911	0.007732
385	1.975878	0.005000	8.254317	-0.065819	-4.642981	-0.018875	-0.170214	-0.693530	0.043404	0.006721	0.003909
386	1.980878	0.005000	8.327109	0.047469	-4.693295	-0.017510	-0.169418	-0.694038	0.043573	0.009060	0.006314
387	1.985878	0.005000	8.358120	-0.060131	-4.789821	-0.016144	-0.168621	-0.694546	0.035540	0.011342	0.002832
388	1.990878	0.005000	8.340073	-0.114574	-4.823374	-0.014779	-0.167825	-0.695055	0.041864	0.006950	0.010890
389	1.995878	0.005000	8.373323	0.008834	-4.732837	-0.013413	-0.167028	-0.695563	0.030952	0.010927	0.006800
390	2.000878	0.005000	8.358120	-0.039240	-4.760544	-0.012048	-0.166232	-0.696071	0.041044	0.000113	0.005961
391	2.005878	0.005000	8.318880	-0.000651	-4.728745	-0.010682	-0.165436	-0.696579	0.029226	0.007361	0.004935
392	2.010878	0.005000	8.279640	-0.110580	-4.872900	-0.009317	-0.164639	-0.697087	0.031404	0.011428	-0.000167
393	2.015878	0.005000	8.275344	-0.065592	-4.813632	-0.007951	-0.163843	-0.697596	0.049934	0.006805	0.003665
394	2.020878	0.005000	8.234591	-0.042144	-4.825068	-0.006586	-0.163046	-0.698104	0.043652	0.011216	-0.001741
395	2.025878	0.005000	8.083440	-0.117720	-4.825128	-0.006157	-0.162937	-0.698333	0.041764	0.007048	-0.003148
396	2.030878	0.005000	8.268295	-0.007564	-4.826520	-0.006499	-0.163392	-0.698333	0.033233	0.010631	0.004445
397	2.035878	0.005000	8.266389	-0.013251	-4.728677	-0.006840	-0.163847	-0.698333	0.045950	-0.000993	0.006999
398	2.040878	0.005000	8.239039	-0.029770	-4.777810	-0.007182	-0.164302	-0.698333	0.047199	0.003257	0.003916
399	2.045878	0.005000	8.255013	-0.039240	-4.801893	-0.007523	-0.164758	-0.698333	0.047517	0.007670	-0.006421
400	2.050878	0.005000	8.372986	-0.078480	-4.753399	-0.007864	-0.165213	-0.698333	0.057492	0.007139	0.006187
401	2.055878	0.005000	8.253757	-0.078480	-4.787280	-0.008206	-0.165668	-0.698333	0.054605	0.012719	-0.001853
402	2.060878	0.005000	8.279640	-0.079993	-4.729176	-0.008547	-0.166123	-0.698333	0.054919	0.012905	-0.002290
403	2.065878	0.005000	8.288459	-0.039240	-4.778461	-0.008889	-0.166578	-0.698333	0.044926	0.015971	-0.004304
404	2.070878	0.005000	8.240400	0.026064	-4.839408	-0.009230	-0.167033	-0.698333	0.046873	0.016484	0.001123
405	2.075878	0.005000	8.261971	-0.085363	-4.826520	-0.009571	-0.167488	-0.698333	0.039075	0.019492	0.003996
406	2.080878	0.005000	8.224516	-0.015884	-4.732156	-0.009913	-0.167944	-0.698333	0.052651	0.018597	-0.004902
407	2.085878	0.005000	8.245498	-0.141666	-4.727649	-0.010254	-0.168399	-0.698333	0.064085	0.012144	-0.006027
408	2.090878	0.005000	8.395106	-0.034732	-4.630320	-0.010448	-0.168706	-0.698278	0.043796	0.020653	-0.008454
409	2.095878	0.005000	8.436355	0.039240	-4.708555	-0.010448	-0.168820	-0.698151	0.054985	0.006687	-0.007999
410	2.100878	0.005000	8.361085	-0.042205	-4.751005	-0.010448	-0.168934	-0.698024	0.064433	0.007719	0.000006
411	2.105878	0.005000	8.397360	0.061053	-4.832329	-0.010448	-0.169047	-0.697897	0.068623	0.009955	-0.006711
412	2.110878	0.005000	8.327533	-0.109067	-4.795933	-0.010448	-0.169161	-0.697770	0.081195	0.011000	-0.003047
413	2.115878	0.005000	8.302633	-0.039240	-4.787280	-0.010448	-0.169275	-0.697643	0.058226	0.021964	0.002139
414	2.120878	0.005000	8.268174	-0.078480	-4.826520	-0.010448	-0.169389	-0.697516	0.065201	0.007474	-0.011697
415	2.125878	0.005000	8.318880	-0.078480	-4.849029	-0.010448	-0.169502	-0.697389	0.065137	0.014693	-0.006413
416	2.130878	0.005000	8.338545	-0.058724	-4.846095	-0.010448	-0.169616	-0.697262	0.068934	0.006019	-0.012416
417	2.135878	0.005000	8.296461	0.022419	-4.815326	-0.010448	-0.169730	-0.697135	0.068041	0.001081	-0.005169
418	2.140878	0.005000	8.293618	-0.025262	-4.773302	-0.010448	-0.169844	-0.697008	0.069562	0.009405	-0.006373
419	2.145878	0.005000	8.290908	0.055943	-4.702967	-0.010448	-0.169957	-0.696881	0.065369	0.008126	-0.003544
420	2.150878	0.005000	8.292604	0.060963	-4.665355	-0.010448	-0.170071	-0.696754	0.052397	0.009444	-0.006860
421	2.155878	0.005000	8.312965	0.039240	-4.730296	-0.010376	-0.170041	-0.696546	0.060090	0.001302	-0.013691
422	2.160878	0.005000	8.210372	-0.033098	-4.681843	-0.010148	-0.169700	-0.696165	0.075263	0.011185	-0.019940
423	2.165878	0.005000	8.279640	0.077799	-4.787507	-0.009921	-0.169358	-0.695784	0.061689	0.013134	-0.002183
424	2.170878	0.005000	8.279640	-0.039240	-4.753274	-0.009693	-0.169017	-0.695403	0.062532	0.002977	-0.002156
425	2.175878	0.005000	8.274646	0.029252	-4.674554	-0.009466	-0.168676	-0.695022	0.058158	0.014194	-0.010474
426	2.180878	0.005000	8.311044	-0.023568	-4.716636	-0.009238	-0.168334	-0.694640	0.077487	0.006665	-0.009068
427	2.185878	0.005000	8.229720	0.039240	-4.698120	-0.009011	-0.167993	-0.694259	0.066250	0.007636	-0.012993
428	2.190878	0.005000	8.214684	-0.064956	-4.657367	-0.008783	-0.167652	-0.693878	0.068802	0.004574	-0.016377
429	2.195878	0.005000	8.263272	0.000000	-4.685928	-0.008555	-0.167310	-0.693497	0.063782	-0.001967	-0.008526
430	2.200878	0.005000	8.317155	0.000000	-4.708800	-0.008328	-0.166969	-0.693116	0.069268	0.008660	-0.013284
431	2.205878	0.005000	8.222762	-0.064805	-4.769642	-0.008100	-0.166628	-0.692734	0.066679	0.002941	-0.009981
432	2.210878	0.005000	8.206303	-0.088131	-4.748040	-0.007873	-0.166286	-0.692353	0.061154	0.007416	-0.011090
433	2.215878	0.005000	8.318880	-0.066529	-4.720751	-0.007645	-0.165945	-0.691972	0.069548	0.007735	-0.014582
434	2.220878	0.005000	8.279640	-0.020807	-4.729607	-0.007531	-0.165581	-0.691845	0.081608	0.003008	-0.016716
435	2.225878	0.005000	8.293103	0.000000	-4.669560	-0.007872	-0.165126	-0.692734	0.065413	0.000047	-0.019476
436	2.230878	0.005000	8.346457	0.000000	-4.740265	-0.008213	-0.164671	-0.693623	0.067460	-0.003111	-0.015087
437	2.235878	0.005000	8.202204	0.039240	-4.632408	-0.008555	-0.164216	-0.694512	0.049307	0.008811	-0.021331
438	2.240878	0.005000	8.165520	0.001800	-4.746240	-0.008896	-0.163761	-0.695401	0.058921	0.000841	-0.011819
439	2.245878	0.005000	8.127324	-0.048528	-4.600368	-0.009237	-0.163306	-0.696290	0.062373	0.003326	-0.007476
440	2.250878	0.005000	8.201160	0.103652	-4.701766	-0.009578	-0.162851	-0.697179	0.055083	0.006035	-0.007706
441	2.255878	0.005000	8.309002	-0.058724	-4.797158	-0.009919	-0.162396	-0.698068	0.059147	-0.001364	-0.007414
442	2.260878	0.005000	8.318880	-0.078480	-4.773484	-0.010261	-0.161941	-0.698957	0.052672	-0.002895	-0.010171
443	2.265878	0.005000	8.279640	-0.039240	-4.726162	-0.010602	-0.161486	-0.699846	0.057727	-0.006603	-0.007752
444	2.270878	0.005000	8.322238	-0.099779	-4.801863	-0.010943	-0.161031	-0.700735	0.059070	-0.002138	-0.002960
445	2.275878	0.005000	8.238070	0.000000	-4.727255	-0.011284	-0.160576	-0.701624	0.066176	-0.008958	-0.003619
446	2.280878	0.005000	8.208754	-0.070463	-4.802891	-0.011625	-0.160121	-0.702513	0.059759	0.005454	-0.000223
447	2.285878	0.005000	8.345353	-0.117720	-4.747102	-0.011905	-0.159736	-0.703304	0.045225	0.001549	-0.011605
448	2.290878	0.005000	8.308957	-0.029317	-4.875230	-0.011449	-0.160192	-0.702922	0.051975	-0.003233	-0.008704
449	2.295878	0.005000	8.279640	0.000000	-4.733881	-0.010994	-0.160647	-0.702541	0.049227	0.007315	-0.007351
450	2.300878	0.005000	8.289019	-0.034551	-4.748040	-0.010539	-0.161102	-0.702159	0.059512	-0.002612	-0.000553
451	2.305878	0.005000	8.315189	-0.035549	-4.749886	-0.010083	-0.161558	-0.701778	0.051305	0.001349	-0.001910
452	2.310878	0.005000	8.278642	0.077482	-4.787280	-0.009628	-0.162013	-0.701397	0.049828	-0.003752	-0.006590
453	2.315878	0.005000	8.322722	-0.035398	-4.826520	-0.009173	-0.162469	-0.701015	0.051063	-0.003869	0.001869
454	2.320878	0.005000	8.318880	0.013372	-4.852388	-0.008717	-0.162924	-0.700634	0.057294	0.002144	-0.005744
455	2.325878	0.005000	8.289170	0.039240	-4.915650	-0.008262	-0.163380	-0.700253	0.050739	-0.001452	-0.000168
456	2.330878	0.005000	8.240400	0.027012	-4.784724	-0.007807	-0.163835	-0.699871	0.039546	-0.004827	0.008097
457	2.335878	0.005000	8.230658	-0.009742	-4.757782	-0.007351	-0.164291	-0.699490	0.066553	-0.014704	-0.000482
458	2.340878	0.005000	8.283694	-0.021647	-4.726393	-0.006896	-0.164746	-0.699108	0.050733	-0.004260	0.006913
459	2.345878	0.005000	8.221597	0.001634	-4.787280	-0.006440	-0.165201	-0.698727	0.059623	-0.003360	-0.002212
460	2.350878	0.005000	8.240400	-0.078480	-4.841163	-0.005985	-0.165657	-0.698346	0.047568	0.000168	0.006891
461	2.355878	0.005000	8.161920	-0.078480	-4.813405	-0.006080	-0.166332	-0.698210	0.049999	-0.006912	0.005706
462	2.360878	0.005000	8.182463	-0.057937	-4.818094	-0.006194	-0.167014	-0.698083	0.059652	-0.003357	0.001131
463	2.365878	0.005000	8.257358	-0.014855	-4.802135	-0.006308	-0.167697	-0.697956	0.042409	-0.007755	0.011456
464	2.370878	0.005000	8.221370	-0.039240	-4.753092	-0.006421	-0.168379	-0.697829	0.053121	-0.003471	0.006220
465	2.375878	0.005000	8.235983	0.039240	-4.673977	-0.006535	-0.169061	-0.697702	0.051358	-0.000448	0.009224
466	2.380878	0.005000	8.123315	0.077845	-4.748040	-0.006649	-0.169744	-0.697575	0.032312	0.000717	0.009994
467	2.385878	0.005000	8.315401	0.081959	-4.898041	-0.006763	-0.170426	-0.697449	0.031546	-0.005629	0.015318
468	2.390878	0.005000	8.312557	0.150637	-4.793603	-0.006876	-0.171109	-0.697322	0.038603	-0.010188	0.011864
469	2.395878	0.005000	8.279640	-0.008815	-4.848130	-0.006990	-0.171791	-0.697195	0.043228	-0.012329	0.017680
470	2.400878	0.005000	8.314312	-0.011557	-4.787280	-0.007104	-0.172474	-0.697068	0.042222	-0.008488	0.018294
471	2.405878	0.005000	8.225999	-0.003963	-4.801681	-0.007218	-0.173156	-0.696941	0.049883	-0.004537	0.013644
472	2.410878	0.005000	8.245150	-0.021995	-4.809275	-0.007332	-0.173838	-0.696814	0.047090	-0.008093	0.015702
473	2.415878	0.005000	8.338031	-0.097631	-4.827458	-0.007445	-0.174521	-0.696687	0.057419	-0.001992	0.009248
474	2.420878	0.005000	8.269367	-0.045471	-4.748040	-0.007367	-0.173954	-0.696560	0.061342	-0.015122	0.024205
475	2.425878	0.005000	8.240400	0.000000	-4.789343	-0.007253	-0.173158	-0.696433	0.049111	-0.006965	0.020530
476	2.430878	0.005000	8.274527	-0.028152	-4.922064	-0.007139	-0.172361	-0.696306	0.061032	-0.005711	0.013154
477	2.435878	0.005000	8.153676	-0.055729	-4.890493	-0.007025	-0.171565	-0.696178	0.040488	-0.002021	0.021015
478	2.440878	0.005000	8.156520	-0.005400	-4.978080	-0.006912	-0.170768	-0.696051	0.055114	-0.002726	0.008047
479	2.445878	0.005000	8.232731	0.002556	-4.865760	-0.006798	-0.169972	-0.695924	0.066448	0.000305	0.021268
480	2.450878	0.005000	8.161633	-0.038665	-4.904713	-0.006684	-0.169175	-0.695797	0.054779	0.008162	0.021823
481	2.455878	0.005000	8.188635	-0.032977	-4.937977	-0.006570	-0.168379	-0.695670	0.049175	0.004714	0.020849
482	2.460878	0.005000	8.207135	-0.078480	-4.932289	-0.006456	-0.167582	-0.695543	0.058626	0.005803	0.022294
483	2.465878	0.005000	8.109898	-0.087299	-4.817701	-0.006342	-0.166785	-0.695416	0.038473	0.009414	0.014913
484	2.470878	0.005000	8.228737	-0.034989	-4.814857	-0.006229	-0.165989	-0.695289	0.044424	-0.000943	0.020776
485	2.475878	0.005000	8.240400	0.067675	-4.940827	-0.006115	-0.165192	-0.695162	0.041085	0.007943	0.021921
486	2.480878	0.005000	8.274194	-0.056137	-4.826520	-0.006001	-0.164396	-0.695035	0.051175	0.007133	0.022991
487	2.485878	0.005000	8.240400	-0.019741	-4.689059	-0.006218	-0.164096	-0.695092	0.050065	0.015312	0.019297
488	2.490878	0.005000	8.190435	0.005930	-4.748040	-0.006560	-0.163982	-0.695220	0.038644	0.008689	0.014064
489	2.495878	0.005000	8.268022	0.027622	-4.734229	-0.006901	-0.163869	-0.695347	0.041213	0.012353	0.017019
490	2.500878	0.005000	8.318880	0.067044	-4.775844	-0.007243	-0.163755	-0.695474	0.041811	0.012629	0.017520
491	2.505878	0.005000	8.301695	-0.030648	-4.734577	-0.007584	-0.163641	-0.695601	0.064076	0.002585	0.019753
492	2.510878	0.005000	8.246148	0.027743	-4.714548	-0.007925	-0.163527	-0.695728	0.057212	0.003692	0.012684
493	2.515878	0.005000	8.391551	-0.111911	-4.663751	-0.008267	-0.163414	-0.695855	0.058948	0.009562	0.014310
494	2.520878	0.005000	8.358181	-0.039119	-4.708861	-0.008608	-0.163300	-0.695982	0.044743	0.018194	0.025681
495	2.525878	0.005000	8.287990	0.075697	-4.675127	-0.008950	-0.163186	-0.696109	0.050008	0.007914	0.018756
496	2.530878	0.005000	8.308438	0.083701	-4.737598	-0.009291	-0.163072	-0.696236	0.050335	0.013073	0.015944
497	2.535878	0.005000	8.185155	-0.039240	-4.716802	-0.009633	-0.162959	-0.696363	0.053180	0.011981	0.010657
498	2.540878	0.005000	8.201160	0.000000	-4.894154	-0.009974	-0.162845	-0.696491	0.053524	0.003583	0.015005
499	2.545878	0.005000	8.254090	-0.013690	-4.802801	-0.010315	-0.162731	-0.696618	0.054759	0.005561	0.018568
500	2.550878	0.005000	8.184626	-0.010362	-4.737678	-0.010726	-0.162617	-0.696745	0.032847	0.010098	0.021973
501	2.555878	0.005000	8.240400	0.097858	-4.748040	-0.011181	-0.162504	-0.696872	0.044234	-0.000158	0.018906
502	2.560878	0.005000	8.201160	0.039240	-4.804298	-0.011637	-0.162390	-0.696999	0.046626	0.000484	0.009148
503	2.565878	0.005000	8.240400	0.000000	-4.783997	-0.012092	-0.162276	-0.697126	0.047584	0.001613	0.012237
504	2.570878	0.005000	8.173704	0.066696	-4.767599	-0.012547	-0.162162	-0.697253	0.047185	0.007721	0.013879
505	2.575878	0.005000	8.219040	0.048180	-4.699860	-0.013002	-0.162048	-0.697380	0.029529	0.000967	0.023526
506	2.580878	0.005000	8.279640	0.111624	-4.748040	-0.013457	-0.161934	-0.697507	0.052359	-0.000786	0.013374
507	2.585878	0.005000	8.233895	-0.003252	-4.790532	-0.013912	-0.161821	-0.697634	0.047628	-0.006145	0.014063
508	2.590878	0.005000	8.163145	-0.038423	-4.905000	-0.014368	-0.161707	-0.697761	0.048321	-0.003083	0.009647
509	2.595878	0.005000	8.242835	0.076045	-4.831391	-0.014823	-0.161593	-0.697888	0.060527	-0.005258	0.014594
510	2.600878	0.005000	8.279640	0.000000	-4.871039	-0.015278	-0.161479	-0.698015	0.066344	-0.007133	0.020943
511	2.605878	0.005000	8.327003	-0.117720	-4.826520	-0.015733	-0.161365	-0.698142	0.049517	-0.000405	0.015026
512	2.610878	0.005000	8.222157	-0.010498	-4.680058	-0.016188	-0.161251	-0.698269	0.051800	0.002840	0.018914
513	2.615878	0.005000	8.252956	0.000000	-4.695458	-0.016080	-0.161307	-0.698270	0.039922	0.000792	0.011248
514	2.620878	0.005000	8.263454	-0.006868	-4.630320	-0.015397	-0.161534	-0.698143	0.059070	-0.008430	0.007942
515	2.625878	0.005000	8.298670	-0.019030	-4.709980	-0.014715	-0.161762	-0.698016	0.065399	-0.002761	0.015260
516	2.630878	0.005000	8.375486	-0.021874	-4.721658	-0.014032	-0.161989	-0.697889	0.068026	0.002701	0.011244
517	2.635878	0.005000	8.422078	0.093002	-4.698604	-0.013349	-0.162217	-0.697762	0.077250	-0.000320	0.017732
518	2.640878	0.005000	8.385682	0.015884	-4.743835	-0.012666	-0.162445	-0.697635	0.051053	-0.007268	0.012745
519	2.645878	0.005000	8.370857	0.117720	-4.769611	-0.011984	-0.162672	-0.697508	0.074930	-0.007788	0.011352
520	2.650878	0.005000	8.318880	0.033250	-4.748040	-0.011301	-0.162900	-0.697381	0.069857	-0.007478	0.012355
521	2.655878	0.005000	8.286007	-0.012733	-4.633503	-0.010618	-0.163127	-0.697254	0.052111	-0.005696	0.004478
522	2.660878	0.005000	8.318124	-0.115451	-4.670316	-0.009936	-0.163355	-0.697127	0.074532	-0.012579	0.009142
523	2.665878	0.005000	8.316792	-0.037152	-4.634495	-0.009253	-0.163582	-0.697000	0.069090	-0.014970	0.010957
524	2.670878	0.005000	8.348257	-0.039240	-4.733246	-0.008570	-0.163810	-0.696873	0.070359	-0.013478	0.007140
525	2.675878	0.005000	8.216711	-0.078480	-4.771729	-0.007887	-0.164038	-0.696746	0.067986	-0.015230	0.013234
526	2.680878	0.005000	8.279640	-0.135721	-4.779898	-0.007549	-0.164394	-0.696763	0.067102	-0.011432	0.014583
527	2.685878	0.005000	8.226937	-0.117720	-4.748040	-0.007777	-0.164963	-0.697017	0.065598	-0.008811	0.016987
528	2.690878	0.005000	8.208340	-0.078480	-4.771250	-0.008004	-0.165532	-0.697271	0.053779	-0.000549	0.017027
529	2.695878	0.005000	8.259082	-0.117720	-4.886318	-0.008232	-0.166101	-0.697525	0.059494	-0.000617	0.013744
530	2.700878	0.005000	8.218874	-0.103818	-4.879662	-0.008459	-0.166670	-0.697780	0.049060	0.000244	0.011994
531	2.705878	0.005000	8.171420	-0.078480	-4.905000	-0.008687	-0.167239	-0.698034	0.057011	0.004699	0.006966
532	2.710878	0.005000	8.185972	-0.102532	-4.775254	-0.008915	-0.167808	-0.698288	0.064986	0.012509	0.003651
533	2.715878	0.005000	8.203227	-0.127013	-4.775920	-0.009142	-0.168377	-0.698542	0.055797	0.013327	0.002369
534	2.720878	0.005000	8.161920	-0.170574	-4.826520	-0.009370	-0.168946	-0.698796	0.072277	0.011979	0.011715
535	2.725878	0.005000	8.201160	-0.196200	-4.905000	-0.009597	-0.169515	-0.699050	0.048913	0.012481	0.011262
536	2.730878	0.005000	8.280759	-0.040359	-4.942001	-0.009825	-0.170084	-0.699304	0.045457	0.016905	0.009501
537	2.735878	0.005000	8.243849	-0.115995	-4.753214	-0.010052	-0.170653	-0.699558	0.041048	0.015026	0.002202
538	2.740878	0.005000	8.210297	-0.087617	-4.965206	-0.010280	-0.171222	-0.699812	0.047277	0.022232	0.001375
539	2.745878	0.005000	8.272228	-0.110308	-4.944240	-0.010359	-0.171433	-0.700000	0.080344	0.001361	-0.007852
540	2.750878	0.005000	8.387443	-0.059074	-4.797197	-0.010017	-0.170637	-0.700000	0.063910	0.025652	0.003260
541	2.755878	0.005000	8.266994	0.000000	-4.708800	-0.009676	-0.169841	-0.700000	0.053742	0.021033	0.001044
542	2.760878	0.005000	8.279640	-0.015490	-4.708800	-0.009335	-0.169045	-0.700000	0.053756	0.019615	0.016278
543	2.765878	0.005000	8.342357	-0.117720	-4.745468	-0.008994	-0.168249	-0.700000	0.070622	0.011118	0.001030
544	2.770878	0.005000	8.282756	-0.117720	-4.726862	-0.008652	-0.167452	-0.700000	0.061979	0.006057	0.006822
545	2.775878	0.005000	8.279640	-0.117720	-4.874564	-0.008311	-0.166656	-0.700000	0.049130	0.003612	0.008672
546	2.780878	0.005000	8.279640	-0.012374	-4.799654	-0.007970	-0.165860	-0.700000	0.063311	0.009787	0.013665
547	2.785878	0.005000	8.230870	-0.078480	-4.826520	-0.007629	-0.165064	-0.700000	0.047552	0.017446	0.017959
548	2.790878	0.005000	8.233714	-0.091852	-4.820711	-0.007287	-0.164268	-0.700000	0.055141	0.007455	0.008533
549	2.795878	0.005000	8.322722	-0.043082	-4.858075	-0.006946	-0.163472	-0.700000	0.046212	0.008777	0.004044
550	2.800878	0.005000	8.276705	0.037773	-4.864293	-0.006605	-0.162675	-0.700000	0.048773	0.010004	0.011449
551	2.805878	0.005000	8.125433	-0.037863	-4.826520	-0.006264	-0.161879	-0.700000	0.043958	0.009763	0.013412
552	2.810878	0.005000	8.087660	-0.082700	-4.830740	-0.005970	-0.161242	-0.700000	0.025006	0.008043	0.010137
553	2.815878	0.005000	8.097569	-0.149896	-4.819456	-0.005970	-0.161583	-0.700000	0.034473	0.007201	0.021138
554	2.820878	0.005000	8.201160	-0.059057	-4.767857	-0.005970	-0.161924	-0.700000	0.038488	0.019145	0.009629
555	2.825878	0.005000	8.280623	-0.026488	-4.788263	-0.005970	-0.162266	-0.700000	0.039215	0.011040	0.010723
556	2.830878	0.005000	8.240400	0.015596	-4.826520	-0.005970	-0.162607	-0.700000	0.035927	0.017525	0.015388
557	2.835878	0.005000	8.182720	0.041600	-4.844960	-0.005970	-0.162949	-0.700000	0.045027	0.006456	0.008139
558	2.840878	0.005000	8.201160	-0.057650	-4.824100	-0.005970	-0.163290	-0.700000	0.033309	0.016346	0.017723
559	2.845878	0.005000	8.153812	-0.031132	-4.834628	-0.005970	-0.163631	-0.700000	0.030881	0.014745	0.021687
560	2.850878	0.005000	8.135402	-0.039240	-4.865760	-0.005970	-0.163973	-0.700000	0.040882	0.011202	0.021055
561	2.855878	0.005000	8.240400	0.029362	-4.943968	-0.005970	-0.164314	-0.700000	0.041350	0.012916	0.023926
562	2.860878	0.005000	8.233366	-0.085514	-4.794314	-0.005970	-0.164656	-0.700000	0.030326	0.016799	0.018317
563	2.865878	0.005000	8.267069	-0.152770	-4.760611	-0.005970	-0.164997	-0.700000	0.044128	0.006497	0.025807
564	2.870878	0.005000	8.199814	-0.075787	-4.869799	-0.005970	-0.165338	-0.700000	0.026030	0.020051	0.008548
565	2.875878	0.005000	8.161920	-0.038199	-4.868883	-0.005973	-0.165680	-0.699988	0.033018	0.007602	0.026082
566	2.880878	0.005000	8.193415	-0.043113	-4.834265	-0.006086	-0.166021	-0.699480	0.039650	0.024355	0.025997
567	2.885878	0.005000	8.318880	-0.150244	-4.819804	-0.006200	-0.166363	-0.698971	0.050324	0.015999	0.022346
568	2.890878	0.005000	8.210720	-0.039240	-4.856200	-0.006314	-0.166704	-0.698463	0.034960	0.020535	0.026634
569	2.895878	0.005000	8.256858	-0.012404	-4.878164	-0.006428	-0.167046	-0.697954	0.029528	0.022568	0.016255
570	2.900878	0.005000	8.225152	0.023992	-4.850512	-0.006542	-0.167387	-0.697446	0.046806	0.010086	0.020282
571	2.905878	0.005000	8.240400	0.093516	-4.905000	-0.006656	-0.167729	-0.696937	0.029538	0.010779	0.009743
572	2.910878	0.005000	8.104376	-0.036608	-4.967808	-0.006770	-0.168070	-0.696429	0.049518	0.013870	0.016371
573	2.915878	0.005000	8.138327	-0.133367	-4.865760	-0.006884	-0.168412	-0.695920	0.040266	0.015343	0.011118
574	2.920878	0.005000	8.148835	-0.156960	-4.878845	-0.006998	-0.168753	-0.695412	0.048266	0.014388	0.022388
575	2.925878	0.005000	8.201160	-0.107479	-4.954481	-0.007111	-0.169095	-0.694903	0.046179	0.013386	0.019168
576	2.930878	0.005000	8.154523	-0.014794	-4.905000	-0.007225	-0.169436	-0.694395	0.037558	0.019043	0.019100
577	2.935878	0.005000	8.127233	-0.113167	-4.831073	-0.007339	-0.169778	-0.693886	0.044049	0.023061	0.018090
578	2.940878	0.005000	8.124389	-0.001709	-4.829939	-0.007453	-0.170119	-0.693377	0.039968	0.027313	0.015513
579	2.945878	0.005000	8.161920	-0.039240	-4.905000	-0.008917	-0.171499	-0.692289	0.041534	0.025682	0.010885
580	2.950878	0.005000	8.244378	-0.074502	-4.865760	-0.010510	-0.172978	-0.691146	0.031296	0.027207	0.027300
581	2.955878	0.005000	8.240400	-0.124089	-4.977111	-0.012103	-0.174458	-0.690002	0.029683	0.031442	0.018141
582	2.960878	0.005000	8.221975	-0.117720	-4.935028	-0.013696	-0.175937	-0.688859	0.044117	0.026914	0.018772
583	2.965878	0.005000	8.294767	-0.078480	-4.811393	-0.015289	-0.177416	-0.687715	0.034016	0.033672	0.012143
584	2.970878	0.005000	8.240400	-0.102820	-4.762940	-0.016882	-0.178895	-0.686571	0.045454	0.025102	0.021186
585	2.975878	0.005000	8.240400	-0.056984	-4.794783	-0.018475	-0.180375	-0.685428	0.047814	0.028179	0.015325
586	2.980878	0.005000	8.279640	-0.020363	-4.807643	-0.020068	-0.181854	-0.684284	0.040848	0.029998	0.010730
587	2.985878	0.005000	8.207846	-0.055517	-4.790184	-0.021661	-0.183333	-0.683140	0.052930	0.025669	0.020635
588	2.990878	0.005000	8.188786	-0.143527	-4.943181	-0.023254	-0.184813	-0.681997	0.047322	0.026347	0.008120
589	2.995878	0.005000	8.240400	-0.067891	-4.748040	-0.024847	-0.186292	-0.680853	0.048581	0.025132	0.007061
590	3.000878	0.005000	8.208905	-0.007745	-4.669560	-0.026440	-0.187771	-0.679710	0.055138	0.034720	0.021967
591	3.005878	0.005000	8.245301	-0.156960	-4.748040	-0.028033	-0.189251	-0.678566	0.059559	0.025153	0.008436
592	3.010878	0.005000	8.314765	-0.163132	-4.824463	-0.028630	-0.188465	-0.678940	0.067481	0.021075	0.002869
593	3.015878	0.005000	8.125040	-0.197773	-4.787280	-0.028971	-0.187099	-0.679702	0.060705	0.028699	0.004431
594	3.020878	0.005000	8.201160	0.026384	-4.787280	-0.029313	-0.185734	-0.680465	0.060524	0.027645	0.010617
595	3.025878	0.005000	8.240400	0.156960	-4.714821	-0.029654	-0.184368	-0.681227	0.051317	0.030238	0.002243
596	3.030878	0.005000	8.301151	-0.003782	-4.687289	-0.029995	-0.183003	-0.681990	0.056835	0.023247	0.002000
597	3.035878	0.005000	8.307172	-0.035125	-4.763863	-0.030337	-0.181637	-0.682752	0.049272	0.025992	0.009919
598	3.040878	0.005000	8.329015	0.010135	-4.801832	-0.030678	-0.180272	-0.683514	0.054345	0.021006	-0.001617
599	3.045878	0.005000	8.401807	0.078480	-4.765436	-0.031020	-0.178907	-0.684277	0.056204	0.014993	-0.003361
600	3.050878	0.005000	8.339120	-0.078480	-4.807520	-0.031361	-0.177541	-0.685039	0.061652	0.027843	-0.010195
601	3.055878	0.005000	8.289454	-0.101369	-4.826520	-0.031702	-0.176176	-0.685802	0.047980	0.015107	0.000446
602	3.060878	0.005000	8.305099	0.025459	-4.785177	-0.032044	-0.174810	-0.686564	0.053490	0.010113	-0.003602
603	3.065878	0.005000	8.251337	-0.039240	-4.719737	-0.032385	-0.173445	-0.687326	0.049867	0.009251	-0.002107
604	3.070878	0.005000	8.279640	-0.148867	-4.826520	-0.032727	-0.172079	-0.688089	0.056183	0.009694	-0.002005
605	3.075878	0.005000	8.279640	-0.112471	-4.792529	-0.031676	-0.171565	-0.687988	0.069304	0.019446	-0.002851
606	3.080878	0.005000	8.201160	0.036835	-4.745635	-0.029969	-0.171451	-0.687479	0.053358	0.019273	0.006921
607	3.085878	0.005000	8.278763	0.038801	-4.669999	-0.028262	-0.171337	-0.686971	0.045300	0.017266	-0.002893
608	3.090878	0.005000	8.204443	0.042523	-4.819955	-0.026555	-0.171223	-0.686463	0.050964	0.006489	-0.004686
609	3.095878	0.005000	8.207287	-0.006127	-4.754167	-0.024848	-0.171109	-0.685955	0.055251	0.015071	0.001150
610	3.100878	0.005000	8.210130	-0.008970	-4.739070	-0.023141	-0.170995	-0.685446	0.033611	0.012536	-0.010964
611	3.105878	0.005000	8.212505	-0.011345	-4.748040	-0.021435	-0.170882	-0.684938	0.058806	0.015719	0.001996
612	3.110878	0.005000	8.251261	-0.014189	-4.644509	-0.019728	-0.170768	-0.684430	0.043468	0.022670	-0.003669
613	3.115878	0.005000	8.358120	0.078480	-4.630320	-0.018021	-0.170654	-0.683922	0.055467	0.010133	-0.004990
614	3.120878	0.005000	8.397360	-0.058089	-4.767917	-0.016314	-0.170540	-0.683414	0.052895	0.014697	-0.000142
615	3.125878	0.005000	8.341408	-0.034159	-4.658663	-0.014607	-0.170426	-0.682905	0.054842	0.009013	-0.005588
616	3.130878	0.005000	8.333009	0.025111	-4.619338	-0.012900	-0.170313	-0.682397	0.054419	0.010057	0.010697
617	3.135878	0.005000	8.307595	-0.061810	-4.714185	-0.011194	-0.170199	-0.681889	0.051084	0.009300	0.006582
618	3.140878	0.005000	8.265723	-0.117720	-4.686442	-0.010512	-0.170085	-0.682096	0.028656	0.004137	0.013247
619	3.145878	0.005000	8.318880	-0.005597	-4.669560	-0.010626	-0.169971	-0.682859	0.041187	0.007076	0.012965
620	3.150878	0.005000	8.318880	-0.078480	-4.708800	-0.010740	-0.169857	-0.683621	0.070559	0.006215	0.008331
621	3.155878	0.005000	8.240582	-0.039331	-4.747949	-0.010853	-0.169744	-0.684384	0.056712	0.000707	0.009147
622	3.160878	0.005000	8.274709	-0.073549	-4.711266	-0.010967	-0.169630	-0.685146	0.060987	0.005134	0.016994
623	3.165878	0.005000	8.318880	-0.049988	-4.771158	-0.011081	-0.169516	-0.685908	0.057305	0.010385	0.021723
624	3.170878	0.005000	8.310726	-0.039240	-4.826520	-0.011195	-0.169402	-0.686671	0.046364	0.007237	0.004263
625	3.175878	0.005000	8.212157	-0.028243	-4.872008	-0.011308	-0.169289	-0.687433	0.065822	0.005344	0.005316
626	3.180878	0.005000	8.212717	0.025399	-4.787280	-0.011422	-0.169175	-0.688196	0.053943	0.011410	0.000324
627	3.185878	0.005000	8.268824	0.016685	-4.725485	-0.011536	-0.169061	-0.688958	0.056430	0.008247	0.001601
628	3.190878	0.005000	8.181449	0.078298	-4.689271	-0.011650	-0.168947	-0.689720	0.056212	0.007773	0.005685
629	3.195878	0.005000	8.189799	-0.112214	-4.848893	-0.011763	-0.168834	-0.690483	0.050640	0.007475	0.001020
630	3.200878	0.005000	8.161920	-0.193371	-4.770428	-0.011877	-0.168720	-0.691245	0.047981	0.008257	-0.000185
631	3.205878	0.005000	8.279640	-0.050873	-4.798913	-0.011787	-0.168454	-0.692064	0.010471	0.015266	0.005418
632	3.210878	0.005000	8.288429	-0.008789	-4.726378	-0.011446	-0.167998	-0.692954	0.052900	0.004577	0.006674
633	3.215878	0.005000	8.385470	-0.017835	-4.663615	-0.011105	-0.167543	-0.693843	0.051227	0.004162	0.001465
634	3.220878	0.005000	8.279640	-0.033038	-4.711901	-0.010764	-0.167088	-0.694733	0.070737	0.014919	-0.006112
635	3.225878	0.005000	8.240657	-0.038983	-4.865246	-0.010422	-0.166633	-0.695622	0.049175	0.008569	0.008971
636	3.230878	0.005000	8.316293	0.036653	-4.860586	-0.010081	-0.166178	-0.696511	0.048602	0.011344	0.000157
637	3.235878	0.005000	8.211083	-0.073518	-4.733609	-0.009740	-0.165723	-0.697401	0.045835	0.008969	0.003701
638	3.240878	0.005000	8.216771	-0.015611	-4.716606	-0.009398	-0.165268	-0.698290	0.048946	0.014670	0.004797
639	3.245878	0.005000	8.261699	-0.057181	-4.687501	-0.009057	-0.164812	-0.699180	0.046952	0.007501	-0.001694
640	3.250878	0.005000	8.252653	-0.025747	-4.734547	-0.008716	-0.164357	-0.700069	0.045216	0.009536	0.004632
641	3.255878	0.005000	8.217497	-0.085045	-4.721930	-0.008374	-0.163902	-0.700959	0.034702	0.019782	0.001218
642	3.260878	0.005000	8.239523	-0.117720	-4.727981	-0.008033	-0.163447	-0.701848	0.055740	-0.000472	0.009887
643	3.265878	0.005000	8.105465	-0.066076	-4.669560	-0.007692	-0.162992	-0.702737	0.050143	0.002502	0.004491
644	3.270878	0.005000	8.229902	-0.010498	-4.683931	-0.007463	-0.162687	-0.703249	0.062878	0.002898	0.002792
645	3.275878	0.005000	8.358120	-0.027574	-4.775614	-0.007463	-0.162687	-0.702995	0.042265	0.011407	0.012728
646	3.280878	0.005000	8.300576	0.020936	-4.687864	-0.007463	-0.162687	-0.702741	0.051912	0.009021	0.013047
647	3.285878	0.005000	8.293648	0.032932	-4.708800	-0.007463	-0.162687	-0.702487	0.051749	0.009537	0.013781
648	3.290878	0.005000	8.243864	-0.003464	-4.719192	-0.007463	-0.162687	-0.702233	0.036830	0.011910	0.005075
649	3.295878	0.005000	8.278400	-0.077860	-4.786660	-0.007463	-0.162687	-0.701978	0.061613	0.012826	0.003710
650	3.300878	0.005000	8.275193	-0.002224	-4.636991	-0.007463	-0.162687	-0.701724	0.054419	0.014847	0.002106
651	3.305878	0.005000	8.314212	-0.078480	-4.634988	-0.007463	-0.162687	-0.701470	0.039424	0.015929	0.006674
652	3.310878	0.005000	8.216075	-0.071022	-4.701342	-0.007463	-0.162687	-0.701216	0.038628	0.010469	0.011752
653	3.315878	0.005000	8.289942	0.000000	-4.913335	-0.007463	-0.162687	-0.700962	0.043736	0.015341	0.003084
654	3.320878	0.005000	8.266494	0.000000	-4.878906	-0.007463	-0.162687	-0.700708	0.049408	0.016328	0.006487
655	3.325878	0.005000	8.256389	0.000000	-4.756768	-0.007463	-0.162687	-0.700454	0.043224	0.011485	0.021451
656	3.330878	0.005000	8.241973	-0.058073	-4.689967	-0.007463	-0.162687	-0.700200	0.049213	0.002796	0.011890
657	3.335878	0.005000	8.240400	-0.078480	-4.787280	-0.007487	-0.162760	-0.699973	0.063473	0.008673	0.011698
658	3.340878	0.005000	8.231535	0.024052	-4.772092	-0.007601	-0.163101	-0.699846	0.042278	0.014589	0.006162
659	3.345878	0.005000	8.306536	0.000000	-4.826520	-0.007715	-0.163442	-0.699719	0.047025	0.003305	0.016018
660	3.350878	0.005000	8.249900	0.029740	-4.748040	-0.007828	-0.163784	-0.699592	0.040213	0.017616	0.013706
661	3.355878	0.005000	8.305568	-0.045896	-4.793936	-0.007942	-0.164125	-0.699465	0.043124	0.014143	0.012103
662	3.360878	0.005000	8.204972	-0.074668	-4.677184	-0.008056	-0.164466	-0.699338	0.040375	0.017231	0.003908
663	3.365878	0.005000	8.282544	-0.000968	-4.789216	-0.008170	-0.164807	-0.699211	0.054403	0.007132	0.007684
664	3.370878	0.005000	8.285267	-0.113968	-4.828396	-0.008283	-0.165148	-0.699084	0.042353	0.004749	0.013020
665	3.375878	0.005000	8.358120	-0.078480	-4.638952	-0.008397	-0.165489	-0.698957	0.048966	0.012575	0.010500
666	3.380878	0.005000	8.254620	0.071370	-4.708800	-0.008511	-0.165831	-0.698830	0.047706	0.005617	0.012493
667	3.385878	0.005000	8.338213	-0.009954	-4.669560	-0.008624	-0.166172	-0.698702	0.033215	0.014361	0.005516
668	3.390878	0.005000	8.318880	-0.065682	-4.788127	-0.008738	-0.166513	-0.698575	0.055141	0.006173	0.007863
669	3.395878	0.005000	8.193203	-0.102078	-4.779595	-0.008852	-0.166854	-0.698448	0.047648	0.014055	0.007318
670	3.400878	0.005000	8.205698	-0.076211	-4.729555	-0.008955	-0.167154	-0.698345	0.038643	0.016097	-0.001752
671	3.405878	0.005000	8.340209	-0.057151	-4.772788	-0.008955	-0.167040	-0.698472	0.028764	0.002420	0.008626
672	3.410878	0.005000	8.358120	0.000000	-4.708800	-0.008955	-0.166926	-0.698599	0.039880	0.013277	0.000283
673	3.415878	0.005000	8.291863	-0.039240	-4.733246	-0.008955	-0.166812	-0.698726	0.046362	0.011116	-0.000997
674	3.420878	0.005000	8.318880	0.039240	-4.758803	-0.008955	-0.166699	-0.698853	0.051815	0.013919	0.003718
675	3.425878	0.005000	8.337108	0.032236	-4.729812	-0.008955	-0.166585	-0.698980	0.037105	0.006970	0.003276
676	3.430878	0.005000	8.283800	0.000000	-4.795600	-0.008955	-0.166471	-0.699107	0.035655	0.000473	0.012006
677	3.435878	0.005000	8.278324	-0.001316	-4.863128	-0.008955	-0.166357	-0.699234	0.045007	0.008442	0.003819
678	3.440878	0.005000	8.240400	-0.039240	-4.711856	-0.008955	-0.166244	-0.699361	0.048785	0.003550	0.014958
679	3.445878	0.005000	8.240400	-0.148216	-4.708800	-0.008955	-0.166130	-0.699488	0.058751	0.012724	0.014804
680	3.450878	0.005000	8.175577	0.000000	-4.754868	-0.008955	-0.166016	-0.699616	0.059776	-0.000109	0.016872
681	3.455878	0.005000	8.161920	-0.058421	-4.816929	-0.008955	-0.165902	-0.699743	0.049302	0.006321	0.017580
682	3.460878	0.005000	8.213595	-0.078480	-4.774845	-0.008955	-0.165789	-0.699870	0.055668	0.000453	0.011746
683	3.465878	0.005000	8.270957	-0.102442	-4.748040	-0.008955	-0.165675	-0.699997	0.059387	-0.000193	0.015022
684	3.470878	0.005000	8.201160	0.021118	-4.769158	-0.008955	-0.165894	-0.700248	0.061994	0.001800	0.007844
685	3.475878	0.005000	8.279640	-0.018274	-4.769006	-0.008955	-0.166121	-0.700501	0.059103	0.000958	0.006678
686	3.480878	0.005000	8.279640	-0.071007	-4.732156	-0.008955	-0.166348	-0.700755	0.053321	-0.000056	0.013774
687	3.485878	0.005000	8.266600	-0.013161	-4.735000	-0.008955	-0.166576	-0.701009	0.051872	-0.004174	0.006758
688	3.490878	0.005000	8.161920	0.029044	-4.718996	-0.008955	-0.166803	-0.701263	0.056507	0.002002	0.016077
689	3.495878	0.005000	8.161920	0.007352	-4.755392	-0.008955	-0.167030	-0.701517	0.037812	0.010320	0.007563
690	3.500878	0.005000	8.284148	0.043748	-4.874776	-0.008955	-0.167258	-0.701771	0.058131	-0.000180	0.015552
691	3.505878	0.005000	8.279640	-0.004266	-4.863627	-0.008955	-0.167485	-0.702025	0.042898	0.011563	0.004276
692	3.510878	0.005000	8.318169	-0.117009	-4.787991	-0.008955	-0.167713	-0.702278	0.061213	0.003963	0.003378
693	3.515878	0.005000	8.169030	-0.117720	-4.865760	-0.008955	-0.167940	-0.702532	0.038378	-0.000355	0.008479
694	3.520878	0.005000	8.240400	-0.084879	-4.892202	-0.008955	-0.168167	-0.702786	0.044139	0.005803	0.012084
695	3.525878	0.005000	8.219645	-0.078480	-4.805765	-0.008955	-0.168395	-0.703040	0.055421	0.002236	0.006442
696	3.530878	0.005000	8.267553	-0.132787	-4.826520	-0.008955	-0.168622	-0.703294	0.042931	0.012391	0.011507
697	3.535878	0.005000	8.324432	-0.156960	-4.850829	-0.008666	-0.168272	-0.703010	0.040589	0.006599	0.011541
698	3.540878	0.005000	8.244593	0.043433	-4.717937	-0.008325	-0.167817	-0.702629	0.050020	0.002825	0.006949
699	3.545878	0.005000	8.202249	0.000000	-4.825431	-0.007984	-0.167362	-0.702248	0.059504	-0.002777	0.005699
700	3.550878	0.005000	8.184928	-0.016232	-4.741263	-0.007642	-0.166906	-0.701867	0.051630	0.009505	0.006367
701	3.555878	0.005000	8.241323	-0.025852	-4.839908	-0.007301	-0.166451	-0.701486	0.041032	0.006066	0.000731
702	3.560878	0.005000	8.368664	-0.060327	-4.855216	-0.006960	-0.165996	-0.701104	0.058542	0.007676	0.007826
703	3.565878	0.005000	8.311180	0.000000	-4.834220	-0.006618	-0.165541	-0.700723	0.052840	0.011771	0.007618
704	3.570878	0.005000	8.279640	-0.044096	-4.811952	-0.006277	-0.165086	-0.700342	0.050716	0.005539	-0.001502
705	3.575878	0.005000	8.356108	-0.117720	-4.785268	-0.005936	-0.164631	-0.699961	0.052576	0.009971	0.015524
706	3.580878	0.005000	8.242064	-0.002496	-4.671224	-0.005594	-0.164175	-0.699580	0.061397	0.000354	0.008706
707	3.585878	0.005000	8.119004	-0.003676	-4.751716	-0.005253	-0.163720	-0.699198	0.055459	0.002075	0.015194
708	3.590878	0.005000	8.300508	-0.078480	-4.793404	-0.004912	-0.163265	-0.698817	0.045529	0.001521	0.002957
709	3.595878	0.005000	8.240400	-0.065924	-4.705139	-0.004570	-0.162810	-0.698436	0.063972	0.001239	0.011431
710	3.600878	0.005000	8.224637	0.094243	-4.720539	-0.005143	-0.162521	-0.698426	0.050809	-0.005886	0.018400
711	3.605878	0.005000	8.289715	-0.053823	-4.768189	-0.006053	-0.162293	-0.698553	0.050536	0.002749	0.010571
712	3.610878	0.005000	8.196773	0.000000	-4.726227	-0.006964	-0.162065	-0.698680	0.040951	0.005014	0.017938
713	3.615878	0.005000	8.182826	-0.019191	-4.805614	-0.007875	-0.161838	-0.698807	0.031619	0.000817	0.011455
714	3.620878	0.005000	8.279640	0.055835	-4.894456	-0.008786	-0.161610	-0.698934	0.040063	-0.003267	0.013775
715	3.625878	0.005000	8.318880	0.025489	-4.828532	-0.009696	-0.161382	-0.699062	0.054474	-0.000591	0.010383
716	3.630878	0.005000	8.279640	-0.156960	-4.876667	-0.010607	-0.161154	-0.699189	0.055325	-0.002163	0.018556
717	3.635878	0.005000	8.271577	-0.047303	-4.857697	-0.011518	-0.160926	-0.699316	0.041866	0.002084	0.011563
718	3.640878	0.005000	8.240400	-0.123393	-4.770731	-0.012428	-0.160699	-0.699443	0.040506	-0.002186	0.017824
719	3.645878	0.005000	8.231914	-0.039240	-4.818034	-0.013339	-0.160471	-0.699570	0.043469	0.004422	0.019731
720	3.650878	0.005000	8.279579	-0.078465	-4.865699	-0.014250	-0.160243	-0.699697	0.043371	-0.004306	0.013276
721	3.655878	0.005000	8.316021	-0.039240	-4.792998	-0.015161	-0.160015	-0.699824	0.055515	-0.005123	0.015047
722	3.660878	0.005000	8.262531	-0.117720	-4.742337	-0.016071	-0.159788	-0.699952	0.040165	0.001014	0.017621
723	3.665878	0.005000	8.388813	0.022146	-4.865760	-0.016066	-0.159983	-0.700000	0.053937	-0.005374	0.022900
724	3.670878	0.005000	8.274572	-0.050631	-4.893609	-0.015497	-0.160438	-0.700000	0.055965	-0.000415	0.018524
725	3.675878	0.005000	8.215395	0.050011	-4.862296	-0.014928	-0.160893	-0.700000	0.042911	-0.002273	0.015251
726	3.680878	0.005000	8.184349	0.022429	-4.860141	-0.014359	-0.161349	-0.700000	0.049136	-0.000962	0.016988
727	3.685878	0.005000	8.201493	0.000333	-4.767494	-0.013790	-0.161804	-0.700000	0.037445	0.000977	0.012693
728	3.690878	0.005000	8.240400	0.044595	-4.708800	-0.013221	-0.162259	-0.700000	0.053627	0.001542	0.011997
729	3.695878	0.005000	8.215259	-0.106677	-4.865760	-0.012652	-0.162714	-0.700000	0.049095	0.000794	0.013541
730	3.700878	0.005000	8.201160	-0.128975	-4.905000	-0.012083	-0.163170	-0.700000	0.052320	0.001973	0.017262
731	3.705878	0.005000	8.139501	-0.109309	-4.834931	-0.011514	-0.163625	-0.700000	0.055353	0.007587	0.015882
732	3.710878	0.005000	8.206792	-0.044872	-4.854496	-0.010945	-0.164080	-0.700000	0.048355	0.008017	0.022983
733	3.715878	0.005000	8.276463	-0.036063	-4.751217	-0.010376	-0.164535	-0.700000	0.043740	0.006916	0.022016
734	3.720878	0.005000	8.241066	0.076816	-4.787280	-0.009807	-0.164991	-0.700000	0.042923	0.006979	0.013129
735	3.725878	0.005000	8.245422	-0.117720	-4.824009	-0.009238	-0.165446	-0.700000	0.064228	0.003393	0.016631
736	3.730878	0.005000	8.313525	-0.089190	-4.826520	-0.008898	-0.165328	-0.699680	0.047851	0.003920	0.016744
737	3.735878	0.005000	8.279640	-0.047439	-4.857561	-0.008784	-0.164645	-0.699045	0.037280	0.008803	0.020913
738	3.740878	0.005000	8.369163	-0.039240	-4.859649	-0.008670	-0.163962	-0.698409	0.050977	0.010293	0.019150
739	3.745878	0.005000	8.251866	-0.013887	-4.759506	-0.008556	-0.163279	-0.697773	0.035820	0.013393	0.009803
740	3.750878	0.005000	8.217422	-0.016262	-4.836065	-0.008443	-0.162596	-0.697138	0.053430	0.005622	0.021391
741	3.755878	0.005000	8.141786	-0.059374	-4.807414	-0.008329	-0.161913	-0.696502	0.034306	0.003383	0.023408
742	3.760878	0.005000	8.223110	-0.156960	-4.887710	-0.008215	-0.161230	-0.695867	0.046647	0.005733	0.017427
743	3.765878	0.005000	8.215606	-0.128067	-4.826520	-0.008101	-0.160547	-0.695231	0.040729	0.007941	0.018936
744	3.770878	0.005000	8.173523	-0.011603	-4.764075	-0.007987	-0.159863	-0.694595	0.038376	0.008730	0.013813
745	3.775878	0.005000	8.170679	-0.008759	-4.739281	-0.007874	-0.159180	-0.693960	0.051066	0.006245	0.021969
746	3.780878	0.005000	8.212989	-0.021496	-4.748040	-0.007760	-0.158497	-0.693324	0.041233	0.014065	0.018922
747	3.785878	0.005000	8.279640	0.000000	-4.751147	-0.007646	-0.157814	-0.692689	0.056596	0.013271	0.015859
748	3.790878	0.005000	8.279640	0.037879	-4.747359	-0.007532	-0.157131	-0.692053	0.050210	0.015344	0.021996
749	3.795878	0.005000	8.205486	-0.076317	-4.782954	-0.007374	-0.157029	-0.691767	0.065430	0.003965	0.016306
750	3.800878	0.005000	8.201160	-0.039240	-4.802262	-0.007146	-0.157825	-0.692021	0.052172	0.005793	0.013066
751	3.805878	0.005000	8.248236	-0.039240	-4.795116	-0.006919	-0.158621	-0.692275	0.046486	0.005216	0.011586
752	3.810878	0.005000	8.161920	-0.028560	-4.787280	-0.006691	-0.159417	-0.692529	0.056774	0.003822	0.009991
753	3.815878	0.005000	8.188090	-0.039240	-4.774180	-0.006464	-0.160213	-0.692783	0.052789	0.018765	0.011168
754	3.820878	0.005000	8.138594	-0.039240	-4.740628	-0.006236	-0.161010	-0.693037	0.051280	0.013690	0.014798
755	3.825878	0.005000	8.180678	0.059722	-4.806038	-0.006009	-0.161806	-0.693291	0.050011	0.014827	0.017567
756	3.830878	0.005000	8.169847	-0.096118	-4.836232	-0.005781	-0.162602	-0.693545	0.044035	0.013715	0.024711
757	3.835878	0.005000	8.201160	0.063686	-4.919794	-0.005554	-0.163398	-0.693799	0.049570	0.018730	0.025662
758	3.840878	0.005000	8.170482	-0.051191	-4.998819	-0.005326	-0.164194	-0.694053	0.043719	0.026706	0.015375
759	3.845878	0.005000	8.261207	-0.099287	-4.886567	-0.005099	-0.164990	-0.694307	0.051495	0.026353	0.017082
760	3.850878	0.005000	8.044200	-0.051554	-4.794012	-0.004872	-0.165787	-0.694561	0.040687	0.024853	0.017040
761	3.855878	0.005000	8.138231	0.035352	-4.834295	-0.004644	-0.166583	-0.694815	0.055645	0.026573	0.012250
762	3.860878	0.005000	8.238312	-0.001044	-4.867848	-0.004539	-0.167041	-0.695034	0.046731	0.025568	0.021004
763	3.865878	0.005000	8.199360	-0.039240	-4.981680	-0.004767	-0.166586	-0.695161	0.056798	0.030089	0.015629
764	3.870878	0.005000	8.235756	-0.009288	-4.978836	-0.004995	-0.166131	-0.695289	0.054472	0.033753	0.011762
765	3.875878	0.005000	8.233284	-0.078480	-5.008487	-0.005222	-0.165676	-0.695416	0.039815	0.038054	0.008066
766	3.880878	0.005000	8.181676	-0.078480	-4.934362	-0.005450	-0.165220	-0.695543	0.052966	0.040600	0.003991
767	3.885878	0.005000	8.136476	-0.103924	-4.864686	-0.005677	-0.164765	-0.695670	0.060097	0.035623	0.019666
768	3.890878	0.005000	8.185594	-0.141394	-4.779822	-0.005905	-0.164310	-0.695797	0.050428	0.045187	0.003132
769	3.895878	0.005000	8.282060	-0.117720	-4.847350	-0.006132	-0.163855	-0.695924	0.055654	0.041596	0.008987
770	3.900878	0.005000	8.297626	-0.039240	-4.901733	-0.006360	-0.163400	-0.696051	0.049646	0.045658	0.009783
771	3.905878	0.005000	8.334022	0.000000	-4.889858	-0.006588	-0.162945	-0.696178	0.060555	0.041785	0.003921
772	3.910878	0.005000	8.449367	-0.104015	-4.775451	-0.006815	-0.162490	-0.696305	0.048320	0.042223	0.013938
773	3.915878	0.005000	8.416753	-0.078480	-4.718723	-0.007043	-0.162034	-0.696432	0.057603	0.035501	0.013380
774	3.920878	0.005000	8.347198	-0.064321	-4.787280	-0.007270	-0.161579	-0.696559	0.048610	0.030259	0.013721
775	3.925878	0.005000	8.388889	-0.126191	-4.791516	-0.007428	-0.161334	-0.696628	0.031989	0.035918	0.006254
776	3.930878	0.005000	8.317488	-0.040632	-4.746648	-0.007200	-0.162244	-0.696374	0.054650	0.021683	0.008906
777	3.935878	0.005000	8.394330	-0.078480	-4.823490	-0.006973	-0.163154	-0.696120	0.054338	0.029133	0.007793
778	3.940878	0.005000	8.432758	0.027713	-4.748040	-0.006745	-0.164065	-0.695865	0.053868	0.033078	0.001805
779	3.945878	0.005000	8.475840	-0.039240	-4.591080	-0.006518	-0.164975	-0.695611	0.043300	0.020787	0.015776
780	3.950878	0.005000	8.328410	0.019060	-4.689740	-0.006290	-0.165885	-0.695357	0.046415	0.010254	0.006592
781	3.955878	0.005000	8.236164	0.051614	-4.814146	-0.006063	-0.166796	-0.695103	0.061012	0.002715	0.000305
782	3.960878	0.005000	8.218768	0.032826	-4.715214	-0.005835	-0.167706	-0.694849	0.049505	0.009513	0.007645
783	3.965878	0.005000	8.318880	0.121349	-4.569646	-0.005607	-0.168616	-0.694594	0.039886	0.003522	0.010017
784	3.970878	0.005000	8.298443	0.076846	-4.705533	-0.005380	-0.169527	-0.694340	0.043646	0.006244	0.015315
785	3.975878	0.005000	8.263681	0.046562	-4.771321	-0.005152	-0.170437	-0.694086	0.049054	0.011955	0.013752
786	3.980878	0.005000	8.345005	0.013115	-4.721809	-0.004925	-0.171347	-0.693832	0.057716	0.007652	0.016799
787	3.985878	0.005000	8.298337	0.076634	-4.582654	-0.004697	-0.172258	-0.693578	0.058329	0.012117	0.010775
788	3.990878	0.005000	8.232883	-0.039240	-4.716317	-0.004486	-0.173109	-0.693347	0.073130	0.010525	0.019717
789	3.995878	0.005000	8.363172	-0.034188	-4.664508	-0.004714	-0.172426	-0.693728	0.066204	0.006191	0.017037
790	4.000878	0.005000	8.360329	0.000000	-4.708800	-0.004942	-0.171743	-0.694110	0.067060	0.015562	0.010861
791	4.005878	0.005000	8.358755	0.038605	-4.708800	-0.005169	-0.171060	-0.694491	0.053673	0.013555	0.012616
792	4.010878	0.005000	8.393881	0.010438	-4.816082	-0.005397	-0.170378	-0.694872	0.048814	0.023669	0.009278
793	4.015878	0.005000	8.430277	-0.072157	-4.774634	-0.005624	-0.169695	-0.695253	0.066279	0.021413	0.007469
794	4.020878	0.005000	8.327593	-0.126433	-4.787280	-0.005852	-0.169012	-0.695634	0.051265	0.027050	0.018466
795	4.025878	0.005000	8.284208	-0.050797	-4.798837	-0.006080	-0.168329	-0.696016	0.061624	0.015984	0.017803
796	4.030878	0.005000	8.329318	-0.068042	-4.723201	-0.006307	-0.167647	-0.696397	0.055351	0.019321	0.017994
797	4.035878	0.005000	8.348620	-0.021995	-4.625570	-0.006535	-0.166964	-0.696778	0.061540	0.017528	0.004194
798	4.040878	0.005000	8.278702	-0.058391	-4.650409	-0.006762	-0.166281	-0.697159	0.057013	0.012726	0.010771
799	4.045878	0.005000	8.374427	-0.022933	-4.646627	-0.006990	-0.165599	-0.697540	0.049553	0.020659	0.006135
800	4.050878	0.005000	8.385046	0.026926	-4.800743	-0.007217	-0.164916	-0.697922	0.063868	0.013734	0.008816
801	4.055878	0.005000	8.386272	-0.050328	-4.787280	-0.007445	-0.164233	-0.698303	0.063679	0.006840	0.007765
802	4.060878	0.005000	8.372627	-0.101231	-4.826520	-0.007253	-0.164179	-0.698333	0.066618	-0.002606	0.011034
803	4.065878	0.005000	8.329681	0.000000	-4.771079	-0.007026	-0.164179	-0.698333	0.053655	0.011204	0.010438
804	4.070878	0.005000	8.358120	-0.078480	-4.672116	-0.006798	-0.164179	-0.698333	0.048470	0.006607	0.010634
805	4.075878	0.005000	8.280215	-0.117433	-4.747753	-0.006571	-0.164179	-0.698333	0.051271	0.000836	0.007219
806	4.080878	0.005000	8.279640	-0.078480	-4.787280	-0.006343	-0.164179	-0.698333	0.057706	0.005255	0.011143
807	4.085878	0.005000	8.318880	-0.151439	-4.753561	-0.006116	-0.164179	-0.698333	0.065498	0.000377	0.017429
808	4.090878	0.005000	8.358120	-0.100989	-4.630320	-0.005888	-0.164179	-0.698333	0.066469	0.003561	0.014197
809	4.095878	0.005000	8.386151	-0.095301	-4.613499	-0.005660	-0.164179	-0.698333	0.055348	0.008542	0.007140
810	4.100878	0.005000	8.358120	-0.142907	-4.658426	-0.005433	-0.164179	-0.698333	0.081142	0.003342	0.011534
811	4.105878	0.005000	8.347228	0.000000	-4.714806	-0.005205	-0.164179	-0.698333	0.073245	-0.000469	0.011331
812	4.110878	0.005000	8.318421	-0.039470	-4.708800	-0.004978	-0.164179	-0.698333	0.071757	-0.000124	0.013939
813	4.115878	0.005000	8.336004	-0.090612	-4.679544	-0.004750	-0.164179	-0.698333	0.052795	0.003089	0.017006
814	4.120878	0.005000	8.365200	-0.060600	-4.719480	-0.004523	-0.164179	-0.698333	0.067850	0.000998	0.011663
815	4.125878	0.005000	8.279640	-0.039240	-4.697364	-0.004661	-0.163904	-0.697924	0.075913	0.001436	0.009831
816	4.130878	0.005000	8.201160	-0.091943	-4.778688	-0.004889	-0.163563	-0.697416	0.060661	-0.002822	0.006531
817	4.135878	0.005000	8.218405	-0.084228	-4.748040	-0.005116	-0.163221	-0.696907	0.062723	-0.009168	0.007939
818	4.140878	0.005000	8.318880	-0.036336	-4.711704	-0.005344	-0.162880	-0.696399	0.064683	-0.000234	0.002133
819	4.145878	0.005000	8.201405	-0.078419	-4.630320	-0.005572	-0.162538	-0.695890	0.066807	-0.003161	0.011152
820	4.150878	0.005000	8.321195	-0.039240	-4.519546	-0.005800	-0.162196	-0.695382	0.061720	0.003547	0.008483
821	4.155878	0.005000	8.295115	-0.141485	-4.776963	-0.006027	-0.161855	-0.694873	0.053781	0.001823	0.007012
822	4.160878	0.005000	8.358120	-0.204202	-4.716802	-0.006255	-0.161513	-0.694365	0.065039	-0.003242	0.011311
823	4.165878	0.005000	8.379812	-0.135268	-4.612772	-0.006483	-0.161172	-0.693856	0.041020	-0.007794	0.007717
824	4.170878	0.005000	8.318880	-0.131410	-4.720660	-0.006710	-0.160830	-0.693348	0.060955	-0.000703	0.006504
825	4.175878	0.005000	8.211522	-0.045412	-4.624148	-0.006938	-0.160489	-0.692840	0.048656	0.003744	0.017235
826	4.180878	0.005000	8.240400	-0.117236	-4.748524	-0.007166	-0.160147	-0.692331	0.056726	-0.007441	0.014443
827	4.185878	0.005000	8.167124	-0.085091	-4.836928	-0.007393	-0.159806	-0.691823	0.052714	-0.002949	0.012344
828	4.190878	0.005000	8.226226	-0.131894	-4.722974	-0.007384	-0.159701	-0.692108	0.054258	-0.002299	0.011295
829	4.195878	0.005000	8.228937	-0.067017	-4.736577	-0.007270	-0.159701	-0.692743	0.055408	-0.014626	0.013917
830	4.200878	0.005000	8.279640	-0.165900	-4.796220	-0.007156	-0.159701	-0.693378	0.039206	-0.001529	0.015272
831	4.205878	0.005000	8.273544	-0.150864	-4.741944	-0.007043	-0.159701	-0.694013	0.055241	-0.011412	0.009441
832	4.210878	0.005000	8.273135	-0.120972	-4.751292	-0.006929	-0.159701	-0.694648	0.041912	-0.001304	0.016825
833	4.215878	0.005000	8.318472	-0.157368	-4.865760	-0.006815	-0.159701	-0.695283	0.046716	-0.010723	0.014050
834	4.220878	0.005000	8.242835	-0.159395	-4.902565	-0.006701	-0.159701	-0.695918	0.055456	-0.011004	0.008335
835	4.225878	0.005000	8.206439	-0.185641	-4.871039	-0.006588	-0.159701	-0.696553	0.042697	-0.005882	0.004823
836	4.230878	0.005000	8.145921	-0.156960	-4.834267	-0.006474	-0.159701	-0.697188	0.054799	-0.007330	0.004505
837	4.235878	0.005000	8.180163	-0.020997	-4.933742	-0.006360	-0.159701	-0.697823	0.046502	-0.004849	0.011759
838	4.240878	0.005000	8.305538	-0.182858	-4.930898	-0.006246	-0.159701	-0.698458	0.050665	-0.007991	0.010772
839	4.245878	0.005000	8.279640	-0.032372	-4.835838	-0.006133	-0.159701	-0.699093	0.059891	-0.012576	0.011010
840	4.250878	0.005000	8.240400	-0.078480	-4.826520	-0.006019	-0.159701	-0.699728	0.057425	-0.001762	0.005238
841	4.255878	0.005000	8.218526	-0.061114	-4.730674	-0.006230	-0.160546	-0.699274	0.068188	-0.014666	0.017904
842	4.260878	0.005000	8.112484	-0.078480	-4.811998	-0.006685	-0.162024	-0.698004	0.047162	0.004364	0.006258
843	4.265878	0.005000	8.122680	-0.039240	-4.865760	-0.007140	-0.163503	-0.696734	0.045412	-0.007507	0.001597
844	4.270878	0.005000	8.210448	-0.039240	-4.835808	-0.007595	-0.164982	-0.695464	0.041233	0.012492	0.005352
845	4.275878	0.005000	8.161920	-0.045684	-4.879223	-0.008050	-0.166460	-0.694194	0.040245	0.010457	0.012961
846	4.280878	0.005000	8.169121	-0.085681	-4.708800	-0.008505	-0.167939	-0.692924	0.041156	0.002043	0.004444
847	4.285878	0.005000	8.163433	-0.156204	-4.865760	-0.008960	-0.169417	-0.691654	0.046388	0.016579	0.002045
848	4.290878	0.005000	8.240400	-0.080568	-4.902912	-0.009415	-0.170896	-0.690384	0.042071	0.012788	-0.000504
849	4.295878	0.005000	8.171783	-0.107857	-4.865760	-0.009869	-0.172375	-0.689113	0.041181	0.020161	-0.000598
850	4.300878	0.005000	8.311574	-0.142347	-4.730719	-0.010324	-0.173853	-0.687843	0.049799	0.015460	0.015180
851	4.305878	0.005000	8.299941	-0.030451	-4.766979	-0.010779	-0.175332	-0.686573	0.042503	0.014532	0.020134
852	4.310878	0.005000	8.305886	-0.052491	-4.865760	-0.011234	-0.176810	-0.685303	0.035201	0.015997	0.013907
853	4.315878	0.005000	8.232836	-0.117720	-4.662707	-0.011689	-0.178289	-0.684033	0.051871	0.014591	0.017331
854	4.320878	0.005000	8.219842	-0.041116	-4.749916	-0.012553	-0.179053	-0.683333	0.066355	0.009274	0.005668
855	4.325878	0.005000	8.318880	-0.078480	-4.926526	-0.013917	-0.178939	-0.683333	0.070169	0.015170	0.009670
856	4.330878	0.005000	8.304010	-0.117720	-4.860390	-0.015282	-0.178826	-0.683333	0.047951	0.009788	0.015254
857	4.335878	0.005000	8.358120	-0.102823	-4.892828	-0.016647	-0.178712	-0.683333	0.045634	0.010499	0.008229
858	4.340878	0.005000	8.358755	-0.176898	-4.836171	-0.018012	-0.178598	-0.683333	0.059827	0.010076	0.026163
859	4.345878	0.005000	8.358120	-0.097298	-4.988684	-0.019377	-0.178484	-0.683333	0.027176	0.009342	0.013550
860	4.350878	0.005000	8.303027	0.035277	-4.814630	-0.020742	-0.178371	-0.683333	0.046575	0.012708	0.021785
861	4.355878	0.005000	8.279640	-0.079599	-4.748040	-0.022107	-0.178257	-0.683333	0.049654	0.012479	0.026399
862	4.360878	0.005000	8.279640	-0.117720	-4.748040	-0.023472	-0.178143	-0.683333	0.052910	0.013085	0.025380
863	4.365878	0.005000	8.166035	-0.121835	-4.756269	-0.024837	-0.178030	-0.683333	0.041475	0.012396	0.024400
864	4.370878	0.005000	8.272681	-0.096844	-4.780321	-0.026202	-0.177916	-0.683333	0.048920	0.018065	0.016881
865	4.375878	0.005000	8.260035	-0.107918	-4.846155	-0.027566	-0.177802	-0.683333	0.053874	0.013039	0.021450
866	4.380878	0.005000	8.240400	-0.091126	-4.694853	-0.028931	-0.177689	-0.683333	0.036970	0.012421	0.013052
867	4.385878	0.005000	8.240400	-0.156960	-4.740809	-0.029851	-0.177575	-0.683209	0.026402	0.000146	0.024517
868	4.390878	0.005000	8.245543	-0.175294	-4.863188	-0.029851	-0.177461	-0.682828	0.027578	0.010557	0.033239
869	4.395878	0.005000	8.336942	-0.099658	-4.769218	-0.029851	-0.177347	-0.682447	0.048435	0.007941	0.030331
870	4.400878	0.005000	8.295327	-0.039240	-4.732353	-0.029851	-0.177234	-0.682066	0.037606	0.006787	0.029824
871	4.405878	0.005000	8.280351	-0.156960	-4.813677	-0.029851	-0.177120	-0.681685	0.024882	0.013325	0.029737
872	4.410878	0.005000	8.152275	-0.078480	-4.816875	-0.029851	-0.177006	-0.681304	0.030544	0.006339	0.030087
873	4.415878	0.005000	8.154765	-0.078480	-4.805054	-0.029851	-0.176892	-0.680923	0.038069	0.005548	0.030375
874	4.420878	0.005000	8.323191	-0.152649	-4.830831	-0.029851	-0.176778	-0.680542	0.040308	0.000584	0.028815
875	4.425878	0.005000	8.276705	-0.004402	-4.982013	-0.029851	-0.176665	-0.680161	0.037270	0.004230	0.035716
876	4.430878	0.005000	8.125433	-0.041993	-4.906377	-0.029851	-0.176551	-0.679780	0.034224	0.006343	0.024521
877	4.435878	0.005000	8.205380	-0.078480	-4.739599	-0.029851	-0.176437	-0.679398	0.042733	-0.000187	0.043844
878	4.440878	0.005000	8.233336	0.032176	-4.794344	-0.029851	-0.176323	-0.679017	0.035179	-0.001186	0.031298
879	4.445878	0.005000	8.191645	-0.048755	-4.748040	-0.029851	-0.176210	-0.678636	0.031488	0.000334	0.027298
880	4.450878	0.005000	8.137035	-0.090922	-4.787280	-0.029596	-0.176050	-0.678566	0.042215	0.006106	0.036130
881	4.455878	0.005000	8.161920	0.000000	-4.865760	-0.028346	-0.175709	-0.679708	0.048380	0.010563	0.030972
882	4.460878	0.005000	8.219146	0.000000	-4.748040	-0.027095	-0.175368	-0.680851	0.048983	0.009696	0.036024
883	4.465878	0.005000	8.177909	0.023251	-4.768870	-0.025845	-0.175027	-0.681993	0.044982	0.016895	0.038660
884	4.470878	0.005000	8.130788	-0.078480	-4.842086	-0.024594	-0.174686	-0.683136	0.045324	0.015697	0.037316
885	4.475878	0.005000	8.134328	-0.104998	-4.841390	-0.023344	-0.174345	-0.684278	0.034634	0.020669	0.032728
886	4.480878	0.005000	8.142164	-0.166838	-4.777402	-0.022093	-0.174004	-0.685421	0.046658	0.020125	0.033959
887	4.485878	0.005000	8.150817	-0.196200	-4.833554	-0.020843	-0.173662	-0.686563	0.036896	0.013517	0.027061
888	4.490878	0.005000	8.157730	-0.187820	-4.962529	-0.019592	-0.173321	-0.687706	0.039648	0.014680	0.027501
889	4.495878	0.005000	8.160557	-0.079843	-4.823795	-0.018341	-0.172980	-0.688849	0.036279	0.023159	0.031623
890	4.500878	0.005000	8.199103	-0.003086	-4.633406	-0.017091	-0.172639	-0.689991	0.033066	0.019769	0.022414
891	4.505878	0.005000	8.322753	-0.078480	-4.755785	-0.015840	-0.172298	-0.691134	0.056757	0.021064	0.022584
892	4.510878	0.005000	8.318880	0.065047	-4.852327	-0.014590	-0.171957	-0.692276	0.050112	0.024816	0.031822
893	4.515878	0.005000	8.309320	0.000000	-4.816960	-0.013382	-0.171582	-0.693362	0.051647	0.027740	0.013847
894	4.520878	0.005000	8.277613	-0.012404	-4.774876	-0.012699	-0.170786	-0.693743	0.038335	0.019470	0.023619
895	4.525878	0.005000	8.207665	-0.141712	-4.835264	-0.012016	-0.169989	-0.694124	0.040533	0.022095	0.025545
896	4.530878	0.005000	8.243456	-0.114664	-4.862704	-0.011334	-0.169193	-0.694505	0.036741	0.022955	0.021289
897	4.535878	0.005000	8.279640	-0.120352	-4.750672	-0.010651	-0.168396	-0.694886	0.053927	0.026474	0.018181
898	4.540878	0.005000	8.303420	-0.093940	-4.732580	-0.009968	-0.167599	-0.695268	0.047101	0.029757	0.010906
899	4.545878	0.005000	8.292409	-0.052943	-4.695097	-0.009285	-0.166803	-0.695649	0.053994	0.022104	0.015692
900	4.550878	0.005000	8.378602	-0.117720	-4.690042	-0.008603	-0.166006	-0.696030	0.044262	0.018745	0.003692
901	4.555878	0.005000	8.453648	-0.046637	-4.922048	-0.007920	-0.165210	-0.696411	0.054476	0.018585	0.016463
902	4.560878	0.005000	8.466733	-0.147853	-4.826520	-0.007237	-0.164413	-0.696792	0.047440	0.018525	0.007237
903	4.565878	0.005000	8.317171	-0.080189	-4.744621	-0.006554	-0.163617	-0.697174	0.051891	0.014588	0.011646
904	4.570878	0.005000	8.279640	-0.079615	-4.745771	-0.005872	-0.162820	-0.697555	0.045900	0.014805	0.017825
905	4.575878	0.005000	8.322858	0.031283	-4.783302	-0.005189	-0.162024	-0.697936	0.058975	0.002673	0.010741
906	4.580878	0.005000	8.279640	-0.098614	-4.800017	-0.004506	-0.161227	-0.698317	0.058070	0.009640	0.011683
907	4.585878	0.005000	8.360510	-0.057665	-4.657957	-0.005568	-0.162611	-0.697846	0.068953	0.004553	0.012943
908	4.590878	0.005000	8.330936	0.000000	-4.672631	-0.006706	-0.164090	-0.697338	0.060226	0.005717	0.013161
909	4.595878	0.005000	8.382460	-0.117720	-4.772380	-0.007843	-0.165569	-0.696830	0.053641	0.015942	0.008166
910	4.600878	0.005000	8.415104	-0.096224	-4.883504	-0.008980	-0.167047	-0.696322	0.067339	0.018527	0.007325
911	4.605878	0.005000	8.259052	-0.022524	-4.768628	-0.010118	-0.168526	-0.695814	0.053443	0.019797	0.013367
912	4.610878	0.005000	8.240400	0.046482	-4.692801	-0.011255	-0.170004	-0.695306	0.057764	0.007586	-0.002681
913	4.615878	0.005000	8.293073	-0.090854	-4.734607	-0.012392	-0.171483	-0.694798	0.064372	0.012675	0.003738
914	4.620878	0.005000	8.279640	-0.089069	-4.808458	-0.013530	-0.172962	-0.694290	0.058826	0.019885	-0.004283
915	4.625878	0.005000	8.311135	-0.086225	-4.811030	-0.014667	-0.174440	-0.693782	0.051195	0.013306	0.008498
916	4.630878	0.005000	8.230598	-0.088282	-4.782379	-0.015804	-0.175919	-0.693274	0.051891	0.014968	0.007374
917	4.635878	0.005000	8.128924	-0.154879	-4.673723	-0.016942	-0.177397	-0.692766	0.069404	0.005604	-0.002813
918	4.640878	0.005000	8.240400	-0.039906	-4.786947	-0.018079	-0.178876	-0.692258	0.079787	0.002558	0.000538
919	4.645878	0.005000	8.197983	0.032887	-4.675913	-0.019216	-0.180355	-0.691750	0.075967	0.016808	-0.008460
920	4.650878	0.005000	8.207181	-0.066439	-4.775239	-0.018642	-0.179265	-0.691880	0.056769	0.015877	0.000211
921	4.655878	0.005000	8.179649	-0.078480	-4.826520	-0.017731	-0.177671	-0.692134	0.057439	0.013207	0.003929
922	4.660878	0.005000	8.212868	-0.062657	-4.787280	-0.016820	-0.176077	-0.692388	0.052122	0.018584	0.003364
923	4.665878	0.005000	8.186906	-0.131974	-4.905000	-0.015909	-0.174483	-0.692642	0.058482	0.009837	-0.008938
924	4.670878	0.005000	8.122680	-0.134647	-4.865760	-0.014999	-0.172889	-0.692896	0.067063	0.019447	-0.012315
925	4.675878	0.005000	8.240400	-0.176429	-4.905303	-0.014088	-0.171295	-0.693151	0.068858	0.017250	-0.009059
926	4.680878	0.005000	8.178545	-0.123710	-4.793270	-0.013177	-0.169701	-0.693405	0.050653	0.027714	0.002397
927	4.685878	0.005000	8.189804	-0.156960	-4.837876	-0.012267	-0.168108	-0.693659	0.071379	0.017722	0.004397
928	4.690878	0.005000	8.318880	-0.134178	-4.782212	-0.011356	-0.166514	-0.693913	0.058265	0.022019	0.003253
929	4.695878	0.005000	8.231939	-0.078480	-4.795741	-0.010445	-0.164920	-0.694168	0.064141	0.023595	-0.005575
930	4.700878	0.005000	8.273922	-0.139806	-4.765194	-0.009534	-0.163326	-0.694422	0.068311	0.024432	0.002343
931	4.705878	0.005000	8.240400	-0.109097	-4.938492	-0.008624	-0.161732	-0.694676	0.057426	0.022828	-0.007034
932	4.710878	0.005000	8.358059	-0.039301	-4.904939	-0.007713	-0.160138	-0.694930	0.064526	0.013724	0.000288
933	4.715878	0.005000	8.279640	-0.117720	-4.752815	-0.007380	-0.159701	-0.694908	0.047533	0.023031	0.005011
934	4.720878	0.005000	8.206364	-0.117720	-4.792484	-0.007267	-0.159701	-0.694781	0.059198	0.017474	0.005467
935	4.725878	0.005000	8.255497	-0.039240	-4.661512	-0.007153	-0.159701	-0.694654	0.045374	0.015954	-0.002940
936	4.730878	0.005000	8.297097	-0.146068	-4.776388	-0.007039	-0.159701	-0.694527	0.051812	0.007830	-0.005101
937	4.735878	0.005000	8.358120	-0.105951	-4.891264	-0.006925	-0.159701	-0.694399	0.067155	0.005896	0.001866
938	4.740878	0.005000	8.397360	-0.117720	-4.787280	-0.006811	-0.159701	-0.694272	0.059800	0.011623	0.000852
939	4.745878	0.005000	8.377074	-0.136674	-4.746709	-0.006697	-0.159701	-0.694145	0.084061	0.007698	0.002578
940	4.750878	0.005000	8.340678	-0.156960	-4.704443	-0.006584	-0.159701	-0.694018	0.055438	0.012712	0.010443
941	4.755878	0.005000	8.372718	-0.167004	-4.772682	-0.006470	-0.159701	-0.693891	0.057163	0.006706	0.004412
942	4.760878	0.005000	8.358120	-0.168714	-4.681314	-0.006356	-0.159701	-0.693764	0.058863	0.009114	0.001563
943	4.765878	0.005000	8.340300	-0.108810	-4.678470	-0.006242	-0.159701	-0.693637	0.052482	0.004881	-0.001729
944	4.770878	0.005000	8.312360	-0.117720	-4.754560	-0.006128	-0.159701	-0.693510	0.064506	0.005498	0.008573
945	4.775878	0.005000	8.212188	-0.067452	-4.708800	-0.006014	-0.159701	-0.693383	0.056248	0.004410	0.008577
946	4.780878	0.005000	8.397360	-0.039240	-4.670392	-0.005901	-0.159978	-0.693797	0.057710	-0.004839	0.016103
947	4.785878	0.005000	8.397360	-0.076468	-4.708800	-0.005787	-0.160433	-0.694559	0.052436	0.000601	0.013375
948	4.790878	0.005000	8.353264	-0.152104	-4.743184	-0.005673	-0.160888	-0.695321	0.054873	0.004515	0.004120
949	4.795878	0.005000	8.333517	-0.132357	-4.694163	-0.005560	-0.161343	-0.696083	0.056273	-0.004425	0.008458
950	4.800878	0.005000	8.339029	-0.098629	-4.689709	-0.005446	-0.161798	-0.696845	0.049940	0.001721	0.008627
951	4.805878	0.005000	8.266237	-0.052159	-4.721719	-0.005332	-0.162253	-0.697607	0.068723	-0.004182	0.021834
952	4.810878	0.005000	8.287355	-0.055003	-4.763803	-0.005219	-0.162708	-0.698370	0.046475	0.001750	0.016118
953	4.815878	0.005000	8.259006	-0.078480	-4.729434	-0.005105	-0.163163	-0.699132	0.055593	-0.002749	0.003209
954	4.820878	0.005000	8.258190	-0.117720	-4.708800	-0.004991	-0.163618	-0.699894	0.055088	-0.004089	0.009872
955	4.825878	0.005000	8.303480	-0.196200	-4.802680	-0.004877	-0.164073	-0.700656	0.053516	-0.005498	0.016733
956	4.830878	0.005000	8.240400	-0.156960	-4.774724	-0.004764	-0.164528	-0.701418	0.055051	-0.003214	0.019493
957	4.835878	0.005000	8.250112	-0.216017	-4.807097	-0.004650	-0.164983	-0.702180	0.040481	0.000752	0.018829
958	4.840878	0.005000	8.332616	-0.150092	-4.845157	-0.004536	-0.165438	-0.702942	0.035007	-0.007429	0.017592
959	4.845878	0.005000	8.275616	-0.160984	-4.744016	-0.004589	-0.165506	-0.703333	0.057291	0.003324	0.008256
960	4.850878	0.005000	8.278446	-0.156960	-4.746846	-0.004816	-0.165165	-0.703333	0.049712	-0.000538	0.008043
961	4.855878	0.005000	8.164310	-0.195005	-4.670755	-0.005044	-0.164823	-0.703333	0.064942	-0.000939	0.013434
962	4.860878	0.005000	8.126719	-0.109642	-4.669560	-0.005271	-0.164482	-0.703333	0.044055	0.004213	0.002903
963	4.865878	0.005000	8.233517	-0.110837	-4.676443	-0.005499	-0.164141	-0.703333	0.045831	0.000744	0.012106
964	4.870878	0.005000	8.299094	-0.156960	-4.708800	-0.005726	-0.163800	-0.703333	0.027942	0.001658	0.006820
965	4.875878	0.005000	8.240400	-0.093224	-4.708800	-0.005954	-0.163458	-0.703333	0.042862	0.000120	0.007429
966	4.880878	0.005000	8.201160	-0.039240	-4.708800	-0.006181	-0.163117	-0.703333	0.037476	0.000291	0.010385
967	4.885878	0.005000	8.201160	-0.057030	-4.751701	-0.006408	-0.162776	-0.703333	0.028249	-0.002901	0.014050
968	4.890878	0.005000	8.300274	-0.117720	-4.785253	-0.006636	-0.162435	-0.703333	0.049237	-0.001317	0.015408
969	4.895878	0.005000	8.279640	-0.086195	-4.748040	-0.006863	-0.162094	-0.703333	0.022431	0.003854	0.011490
970	4.900878	0.005000	8.318880	-0.131607	-4.735121	-0.007091	-0.161752	-0.703333	0.034532	-0.006109	0.012353
971	4.905878	0.005000	8.298495	0.018855	-4.718993	-0.007318	-0.161411	-0.703333	0.031823	-0.001795	0.019957
972	4.910878	0.005000	8.225031	-0.015369	-4.755725	-0.007422	-0.161277	-0.703241	0.018907	-0.002908	0.012045
973	4.915878	0.005000	8.166761	0.024718	-4.708800	-0.007308	-0.161504	-0.702987	0.029949	-0.000725	0.018637
974	4.920878	0.005000	8.201160	-0.158957	-4.787280	-0.007194	-0.161732	-0.702733	0.044063	-0.001833	0.020672
975	4.925878	0.005000	8.277946	-0.081021	-4.787280	-0.007080	-0.161959	-0.702479	0.042595	-0.004388	0.008635
976	4.930878	0.005000	8.133753	-0.160651	-4.748040	-0.006966	-0.162187	-0.702225	0.038190	0.000646	0.008916
977	4.935878	0.005000	8.201160	-0.124255	-4.793815	-0.006853	-0.162414	-0.701971	0.040862	0.006785	0.005629
978	4.940878	0.005000	8.171299	-0.018758	-4.807762	-0.006739	-0.162642	-0.701717	0.034687	0.000068	0.016665
979	4.945878	0.005000	8.161920	0.003978	-4.814766	-0.006625	-0.162869	-0.701463	0.038837	0.007217	0.006735
980	4.950878	0.005000	8.205713	0.034687	-4.777236	-0.006511	-0.163097	-0.701209	0.049137	-0.006196	0.009556
981	4.955878	0.005000	8.257842	-0.043597	-4.726242	-0.006398	-0.163324	-0.700955	0.035798	0.008203	0.003419
982	4.960878	0.005000	8.122680	-0.155629	-4.845474	-0.006284	-0.163552	-0.700701	0.045879	0.006655	0.002661
983	4.965878	0.005000	8.256510	-0.131758	-4.842630	-0.006170	-0.163779	-0.700447	0.030178	0.004355	-0.000961
984	4.970878	0.005000	8.332147	-0.118280	-4.826520	-0.006056	-0.164006	-0.700193	0.042704	-0.000190	0.007315
985	4.975878	0.005000	8.326852	-0.117720	-4.865760	-0.005997	-0.164234	-0.699877	0.063438	-0.011720	0.011788
986	4.980878	0.005000	8.201160	-0.086059	-4.826520	-0.006111	-0.164461	-0.699369	0.039186	-0.004051	0.009053
987	4.985878	0.005000	8.245135	-0.083215	-4.840724	-0.006225	-0.164689	-0.698861	0.048729	-0.000013	0.010805
988	4.990878	0.005000	8.314191	-0.115375	-4.784935	-0.006339	-0.164916	-0.698353	0.034391	0.001730	0.008711
989	4.995878	0.005000	8.162918	-0.155962	-4.709299	-0.006453	-0.165144	-0.697845	0.047209	0.002799	-0.002301
990	5.000878	0.005000	8.233714	-0.114377	-4.679589	-0.006566	-0.165371	-0.697337	0.055780	0.001165	0.008037
991	5.005878	0.005000	8.279640	-0.078480	-4.735666	-0.006680	-0.165599	-0.696829	0.046811	-0.006824	0.001820
992	5.010878	0.005000	8.309849	-0.187169	-4.799427	-0.006794	-0.165826	-0.696321	0.044686	-0.002402	0.006651
993	5.015878	0.005000	8.303390	-0.035625	-4.771790	-0.006908	-0.166054	-0.695813	0.050259	-0.003551	-0.001794
994	5.020878	0.005000	8.304161	-0.117720	-4.703884	-0.007021	-0.166281	-0.695305	0.056580	-0.007769	-0.002479
995	5.025878	0.005000	8.297203	-0.096043	-4.691237	-0.007135	-0.166509	-0.694797	0.047268	0.003288	0.009055
996	5.030878	0.005000	8.141513	-0.001573	-4.650727	-0.007249	-0.166736	-0.694289	0.059870	-0.002666	-0.002902
997	5.035878	0.005000	8.223942	0.029105	-4.758175	-0.007363	-0.166964	-0.693781	0.042782	-0.005062	0.005868
998	5.040878	0.005000	8.226786	-0.025626	-4.736029	-0.007422	-0.167110	-0.693333	0.025656	0.006880	0.012969
999	5.045878	0.005000	8.268869	0.000000	-4.730341	-0.007081	-0.166655	-0.693333	0.052733	-0.000703	0.002950
1000	5.050878	0.005000	8.318880	-0.094333	-4.865760	-0.006740	-0.166200	-0.693333	0.043469	0.002758	0.002996
1001	5.055878	0.005000	8.285570	-0.033688	-4.865760	-0.006398	-0.165744	-0.693333	0.047390	0.002951	0.003305
1002	5.060878	0.005000	8.161920	-0.081188	-4.829228	-0.006057	-0.165289	-0.693333	0.055894	0.001367	0.006429
1003	5.065878	0.005000	8.122816	-0.156824	-4.787552	-0.005715	-0.164834	-0.693333	0.039902	0.004633	-0.002119
1004	5.070878	0.005000	8.234440	-0.156960	-4.678500	-0.005374	-0.164379	-0.693333	0.053743	-0.003762	0.000925
1005	5.075878	0.005000	8.201160	-0.050888	-4.793104	-0.005033	-0.163924	-0.693333	0.057883	0.002679	0.004661
1006	5.080878	0.005000	8.122680	0.008668	-4.765376	-0.004691	-0.163469	-0.693333	0.057925	0.000718	-0.001082
1007	5.085878	0.005000	8.150862	-0.089538	-4.719858	-0.004350	-0.163013	-0.693333	0.051503	0.001758	0.005446
1008	5.090878	0.005000	8.108778	0.011436	-4.669560	-0.004008	-0.162558	-0.693333	0.047373	-0.007550	-0.002419
1009	5.095878	0.005000	8.217906	-0.084228	-4.877257	-0.003667	-0.162103	-0.693333	0.042384	0.003233	0.003821
1010	5.100878	0.005000	8.259990	-0.058830	-4.846110	-0.003326	-0.161648	-0.693333	0.046957	0.007081	-0.002819
1011	5.105878	0.005000	8.217966	-0.016806	-4.804086	-0.002986	-0.161194	-0.693334	0.047632	-0.003774	0.004678
1012	5.110878	0.005000	8.212475	0.011315	-4.812558	-0.003327	-0.161194	-0.693715	0.037775	-0.000522	0.017692
1013	5.115878	0.005000	8.223397	-0.017003	-4.708800	-0.003669	-0.161194	-0.694097	0.059198	0.000269	-0.001088
1014	5.120878	0.005000	8.263091	-0.016549	-4.717075	-0.004011	-0.161194	-0.694478	0.052522	0.009124	0.012347
1015	5.125878	0.005000	8.099732	-0.123151	-4.821089	-0.004352	-0.161194	-0.694859	0.055522	0.007212	0.006464
1016	5.130878	0.005000	8.161920	-0.156960	-4.871871	-0.004694	-0.161194	-0.695241	0.057289	0.005784	0.008500
1017	5.135878	0.005000	8.162555	-0.117296	-4.826308	-0.005035	-0.161194	-0.695622	0.047274	0.005769	0.008451
1018	5.140878	0.005000	8.206424	-0.039240	-4.787280	-0.005377	-0.161194	-0.696004	0.046990	0.011709	0.004344
1019	5.145878	0.005000	8.313404	0.073004	-4.798232	-0.005718	-0.161194	-0.696385	0.045398	0.007294	0.011531
1020	5.150878	0.005000	8.372400	-0.092760	-4.840800	-0.006060	-0.161194	-0.696766	0.050137	0.004154	-0.012096
1021	5.155878	0.005000	8.369284	-0.078480	-4.787280	-0.006401	-0.161194	-0.697148	0.049192	-0.001688	0.011841
1022	5.160878	0.005000	8.386136	-0.103712	-4.826520	-0.006743	-0.161194	-0.697529	0.036592	0.004726	-0.002878
1023	5.165878	0.005000	8.436600	-0.055830	-4.725390	-0.007085	-0.161194	-0.697911	0.057396	-0.006422	0.001924
1024	5.170878	0.005000	8.278884	0.019998	-4.885758	-0.007426	-0.161194	-0.698292	0.059787	0.005456	0.002490
1025	5.175878	0.005000	8.296794	-0.051463	-4.831451	-0.007260	-0.161092	-0.698106	0.065576	-0.000567	0.005689
1026	5.180878	0.005000	8.226090	0.000000	-4.812210	-0.007032	-0.160979	-0.697852	0.059436	0.003380	0.001231
1027	5.185878	0.005000	8.256707	0.016307	-4.787280	-0.006805	-0.160865	-0.697598	0.056558	0.004377	-0.001833
1028	5.190878	0.005000	8.296885	0.056485	-4.835143	-0.006577	-0.160751	-0.697344	0.068179	-0.000453	-0.004096
1029	5.195878	0.005000	8.391581	0.033461	-4.893443	-0.006350	-0.160637	-0.697090	0.047707	0.006380	0.001959
1030	5.200878	0.005000	8.394425	-0.045109	-4.717604	-0.006122	-0.160523	-0.696836	0.047114	0.006653	0.004726
1031	5.205878	0.005000	8.434361	-0.233201	-4.748040	-0.005895	-0.160409	-0.696582	0.045579	0.004069	0.000235
1032	5.210878	0.005000	8.242684	-0.004568	-4.711084	-0.005667	-0.160296	-0.696328	0.051215	-0.003614	0.001540
1033	5.215878	0.005000	8.255784	-0.044368	-4.850376	-0.005439	-0.160182	-0.696073	0.053079	-0.003370	0.006444
1034	5.220878	0.005000	8.185216	-0.070508	-4.936268	-0.005212	-0.160068	-0.695819	0.047948	0.001243	-0.002413
1035	5.225878	0.005000	8.297248	-0.117720	-4.826520	-0.004984	-0.159954	-0.695565	0.063710	-0.002542	-0.000431
1036	5.230878	0.005000	8.238660	-0.080220	-4.800940	-0.004757	-0.159840	-0.695311	0.051283	0.005515	0.002108
1037	5.235878	0.005000	8.193990	0.039240	-4.646355	-0.004529	-0.159727	-0.695057	0.061561	0.002443	0.005876
1038	5.240878	0.005000	8.241882	0.039240	-4.785798	-0.004919	-0.160231	-0.695296	0.073336	-0.006170	0.008843
1039	5.245878	0.005000	8.283845	0.000000	-4.721416	-0.005488	-0.160913	-0.695677	0.050492	0.001526	0.006620
1040	5.250878	0.005000	8.304207	-0.117720	-4.752820	-0.006057	-0.161596	-0.696058	0.056399	-0.002436	0.014014
1041	5.255878	0.005000	8.224819	-0.156960	-4.826520	-0.006626	-0.162279	-0.696439	0.055801	-0.003959	-0.003829
1042	5.260878	0.005000	8.210146	-0.165946	-4.808549	-0.007195	-0.162962	-0.696820	0.059258	-0.004989	0.006009
1043	5.265878	0.005000	8.252683	-0.045382	-4.748040	-0.007764	-0.163645	-0.697202	0.050391	-0.002125	-0.006106
1044	5.270878	0.005000	8.272137	-0.003752	-4.748040	-0.008333	-0.164327	-0.697583	0.063366	-0.007967	-0.005665
1045	5.275878	0.005000	8.318880	-0.039240	-4.748948	-0.008902	-0.165010	-0.697964	0.065487	0.000540	0.001115
1046	5.280878	0.005000	8.318880	-0.076544	-4.749976	-0.009470	-0.165693	-0.698345	0.048148	0.000063	0.004870
1047	5.285878	0.005000	8.274860	-0.088040	-4.925119	-0.010039	-0.166376	-0.698726	0.065515	-0.002001	0.002550
1048	5.290878	0.005000	8.255648	-0.086104	-4.834144	-0.010608	-0.167059	-0.699108	0.047324	0.000783	-0.003609
1049	5.295878	0.005000	8.279640	0.028772	-4.708800	-0.011177	-0.167741	-0.699489	0.048815	-0.003728	0.001022
1050	5.300878	0.005000	8.318880	0.000000	-4.786584	-0.011746	-0.168424	-0.699870	0.051476	-0.003906	-0.002251
1051	5.305878	0.005000	8.272712	-0.023084	-4.724956	-0.011640	-0.168432	-0.699916	0.059795	-0.005475	0.009633
1052	5.310878	0.005000	8.240400	-0.058240	-4.787280	-0.011185	-0.168091	-0.699789	0.071298	-0.005185	0.002914
1053	5.315878	0.005000	8.179785	-0.099855	-4.844385	-0.010730	-0.167749	-0.699662	0.057770	-0.000785	0.006895
1054	5.320878	0.005000	8.186139	-0.171981	-4.929219	-0.010274	-0.167408	-0.699535	0.078447	-0.004439	-0.004104
1055	5.325878	0.005000	8.228223	-0.090657	-4.799457	-0.009819	-0.167066	-0.699408	0.077154	-0.004017	0.007738
1056	5.330878	0.005000	8.259067	-0.078480	-4.777947	-0.009364	-0.166725	-0.699281	0.061855	-0.009438	-0.000519
1057	5.335878	0.005000	8.273150	-0.137491	-4.735061	-0.008909	-0.166384	-0.699154	0.058556	-0.004214	-0.000953
1058	5.340878	0.005000	8.201160	-0.082126	-4.708800	-0.008454	-0.166042	-0.699027	0.046895	-0.000916	0.006680
1059	5.345878	0.005000	8.201160	-0.077224	-4.825264	-0.007999	-0.165701	-0.698899	0.053145	-0.007715	0.007859
1060	5.350878	0.005000	8.314115	-0.114543	-4.824932	-0.007544	-0.165359	-0.698772	0.047727	-0.002489	0.003648
1061	5.355878	0.005000	8.170785	-0.043672	-4.930943	-0.007088	-0.165018	-0.698645	0.052179	0.002616	0.002861
1062	5.360878	0.005000	8.115404	-0.071204	-4.865760	-0.006633	-0.164676	-0.698518	0.051409	0.004903	0.002363
1063	5.365878	0.005000	8.151800	-0.069600	-4.915120	-0.006178	-0.164335	-0.698391	0.049223	0.003264	0.001156
1064	5.370878	0.005000	8.175232	-0.078828	-4.773968	-0.006155	-0.164179	-0.697919	0.040317	0.000097	0.009576
1065	5.375878	0.005000	8.240400	-0.110096	-4.810712	-0.006496	-0.164179	-0.697157	0.035371	0.007405	0.000662
1066	5.380878	0.005000	8.235531	-0.136123	-4.886597	-0.006838	-0.164179	-0.696395	0.049212	0.001898	0.006535
1067	5.385878	0.005000	8.237586	-0.075666	-4.847547	-0.007179	-0.164179	-0.695633	0.053826	0.013361	0.003325
1068	5.390878	0.005000	8.264271	-0.063111	-4.835021	-0.007520	-0.164179	-0.694871	0.050007	-0.001310	0.000392
1069	5.395878	0.005000	8.202824	-0.037576	-4.799805	-0.007861	-0.164179	-0.694109	0.067212	-0.001908	0.001020
1070	5.400878	0.005000	8.151724	-0.078480	-4.777599	-0.008203	-0.164179	-0.693347	0.047375	0.008970	0.009534
1071	5.405878	0.005000	8.226725	-0.104045	-4.806007	-0.008544	-0.164179	-0.692585	0.053769	0.002460	0.008068
1072	5.410878	0.005000	8.267514	0.070396	-4.748040	-0.008885	-0.164179	-0.691823	0.045249	0.015246	0.011021
1073	5.415878	0.005000	8.206016	-0.037621	-4.748040	-0.009226	-0.164179	-0.691061	0.043550	0.009170	0.006410
1074	5.420878	0.005000	8.318880	0.000000	-4.710025	-0.009568	-0.164179	-0.690299	0.049513	0.003295	0.015288
1075	5.425878	0.005000	8.244469	-0.047378	-4.900931	-0.009909	-0.164179	-0.689537	0.038868	0.013123	0.005566
1076	5.430878	0.005000	8.214986	-0.006913	-4.768779	-0.010250	-0.164179	-0.688775	0.051874	0.006057	0.006260
1077	5.435878	0.005000	8.181434	-0.078480	-4.777523	-0.010257	-0.164179	-0.688707	0.060034	0.000887	-0.000835
1078	5.440878	0.005000	8.186499	-0.105431	-4.799569	-0.009801	-0.164179	-0.689597	0.055274	0.003053	0.010351
1079	5.445878	0.005000	8.186169	-0.048498	-4.772289	-0.009346	-0.164179	-0.690487	0.060954	0.018096	0.014634
1080	5.450878	0.005000	8.311740	-0.060645	-4.826520	-0.008891	-0.164179	-0.691377	0.039820	0.002819	0.012636
1081	5.455878	0.005000	8.279640	-0.002118	-4.810077	-0.008435	-0.164179	-0.692267	0.043088	-0.001797	-0.001613
1082	5.460878	0.005000	8.248206	-0.047152	-4.865760	-0.007980	-0.164179	-0.693156	0.054681	0.008611	0.005096
1083	5.465878	0.005000	8.214033	-0.052733	-4.813647	-0.007524	-0.164179	-0.694046	0.066238	0.009511	0.008729
1084	5.470878	0.005000	8.172071	-0.039240	-4.942877	-0.007069	-0.164179	-0.694936	0.035914	0.008284	0.015157
1085	5.475878	0.005000	8.264331	-0.022963	-4.905000	-0.006614	-0.164179	-0.695826	0.055301	0.002256	0.009725
