# FOX Logger (IMU file)
# (c) INRIA 2011-2014
# File created from file sensbiotk output
#
# File format:
# id	t	dt	ax	ay	az	mx	my	mz	gx	gy	gz
#
# Units:
#	Time: s
#	Acceleration: m.s^-2
#	Magneto: gauss
#	Gyrometer: rad/s
#
1	0.032837	0.032837	3.105700	-8.801240	-2.006980	-0.534328	0.016418	-0.355000	-0.055475	0.001595	-0.002100
2	0.037837	0.005000	3.106652	-8.633714	-2.092191	-0.534780	0.016531	-0.353865	-0.060904	0.014721	-0.017914
3	0.042837	0.005000	3.060720	-8.742805	-2.016670	-0.535232	0.016644	-0.352730	-0.062998	0.005647	-0.011536
4	0.047837	0.005000	2.998754	-8.764989	-2.032223	-0.535684	0.016757	-0.351595	-0.054440	0.010845	-0.009602
5	0.052837	0.005000	3.042161	-8.780481	-2.109681	-0.536135	0.016870	-0.350459	-0.058293	0.006109	-0.022317
6	0.057837	0.005000	3.041046	-8.770194	-2.118960	-0.536587	0.016983	-0.349324	-0.061006	0.009546	-0.012392
7	0.062837	0.005000	3.049860	-8.761380	-2.097241	-0.537039	0.017095	-0.348189	-0.057469	0.012310	-0.016715
8	0.067837	0.005000	2.970358	-8.711280	-2.055956	-0.537491	0.017208	-0.347054	-0.057856	0.014066	-0.004529
9	0.072837	0.005000	2.969816	-8.711280	-2.001240	-0.537943	0.017321	-0.345919	-0.056677	0.015538	-0.007871
10	0.077837	0.005000	3.008033	-8.724727	-2.066273	-0.538395	0.017434	-0.344784	-0.044312	0.005434	-0.002422
11	0.082837	0.005000	3.021480	-8.750520	-2.094189	-0.538847	0.017547	-0.343648	-0.036457	0.018480	-0.019008
12	0.087837	0.005000	3.069565	-8.750520	-2.064523	-0.539299	0.017660	-0.342513	-0.030015	0.010698	-0.016644
13	0.092837	0.005000	3.115994	-8.734486	-2.111787	-0.539750	0.017773	-0.341378	-0.017187	0.005022	-0.007886
14	0.097837	0.005000	2.965184	-8.694224	-2.052408	-0.540202	0.017886	-0.340243	-0.022676	0.020114	-0.024726
15	0.102837	0.005000	3.063803	-8.672040	-2.019319	-0.540476	0.017555	-0.339505	-0.019734	0.011179	-0.002813
16	0.107837	0.005000	3.021480	-8.715277	-2.019861	-0.540702	0.017103	-0.338874	-0.013665	0.013466	-0.009357
17	0.112837	0.005000	3.060674	-8.691683	-2.001240	-0.540928	0.016652	-0.338244	-0.015030	0.011449	-0.011646
18	0.117837	0.005000	3.159643	-8.653243	-2.040480	-0.541154	0.016200	-0.337614	-0.006075	0.011323	0.001936
19	0.122837	0.005000	3.139200	-8.675247	-2.025670	-0.541380	0.015749	-0.336983	0.007810	0.012334	-0.002676
20	0.127837	0.005000	3.099960	-8.711280	-2.079720	-0.541605	0.015297	-0.336353	0.012883	0.011720	0.001260
21	0.132837	0.005000	3.070017	-8.750520	-2.135139	-0.541831	0.014846	-0.335723	0.013044	0.013648	-0.002952
22	0.137837	0.005000	3.006050	-8.742139	-2.118960	-0.542057	0.014394	-0.335092	0.009820	0.009139	0.002374
23	0.142837	0.005000	2.943000	-8.775353	-2.065313	-0.542283	0.013942	-0.334462	0.006904	0.015194	-0.001745
24	0.147837	0.005000	3.047335	-8.751434	-2.013711	-0.542509	0.013491	-0.333832	0.017606	0.012968	-0.010551
25	0.152837	0.005000	2.969398	-8.764075	-1.962000	-0.542734	0.013039	-0.333201	0.013659	0.020280	-0.002471
26	0.157837	0.005000	2.994060	-8.789760	-2.040480	-0.542960	0.012588	-0.332571	0.019529	0.025094	-0.003083
27	0.162837	0.005000	3.087068	-8.789760	-2.140823	-0.543186	0.012136	-0.331941	0.021033	0.008223	-0.011750
28	0.167837	0.005000	3.157929	-8.789760	-2.108705	-0.542901	0.012068	-0.332380	0.017818	0.022229	-0.010435
29	0.172837	0.005000	3.109193	-8.916713	-2.100494	-0.542224	0.012293	-0.333640	0.021328	0.015980	-0.011679
30	0.177837	0.005000	3.153513	-8.868240	-2.054793	-0.541547	0.012519	-0.334900	0.022967	0.019777	-0.003822
31	0.182837	0.005000	3.060720	-8.883552	-2.001240	-0.540870	0.012745	-0.336160	0.017575	0.025313	-0.008603
32	0.187837	0.005000	3.021480	-8.783114	-1.962000	-0.540192	0.012970	-0.337420	0.020864	0.019178	-0.007602
33	0.192837	0.005000	2.987931	-8.801142	-1.962000	-0.539515	0.013196	-0.338680	0.012780	0.025061	-0.012574
34	0.197837	0.005000	3.021480	-8.868240	-1.991109	-0.538838	0.013422	-0.339940	0.010339	0.015692	-0.005564
35	0.202837	0.005000	3.064763	-8.833043	-1.974130	-0.538161	0.013647	-0.341200	0.017664	0.018366	-0.008622
36	0.207837	0.005000	3.132198	-8.907480	-2.036979	-0.537484	0.013873	-0.342460	0.010170	0.016811	-0.012465
37	0.212837	0.005000	3.019001	-8.868240	-2.003719	-0.536807	0.014099	-0.343720	0.012239	0.022147	-0.006427
38	0.217837	0.005000	2.943000	-8.907480	-2.001240	-0.536130	0.014325	-0.344980	0.016799	0.029004	-0.007626
39	0.222837	0.005000	2.943914	-8.867326	-2.041394	-0.535452	0.014550	-0.346241	0.020109	0.015103	0.002073
40	0.227837	0.005000	3.021372	-8.829000	-1.962325	-0.534775	0.014776	-0.347501	0.014483	0.030642	-0.001380
41	0.232837	0.005000	3.139200	-8.944458	-1.923891	-0.534443	0.015040	-0.348547	0.017382	0.023224	-0.007893
42	0.237837	0.005000	2.910514	-8.909169	-1.962000	-0.534782	0.015379	-0.349177	0.011757	0.018134	-0.009204
43	0.242837	0.005000	2.867217	-8.876330	-1.888913	-0.535120	0.015717	-0.349808	0.012384	0.024930	-0.018419
44	0.247837	0.005000	2.936416	-8.914064	-1.958708	-0.535459	0.016056	-0.350438	0.016056	0.008859	-0.001949
45	0.252837	0.005000	2.930173	-8.903204	-1.962000	-0.535798	0.016395	-0.351069	0.012589	0.024677	-0.001429
46	0.257837	0.005000	2.914356	-8.902182	-2.011836	-0.536137	0.016734	-0.351699	0.018611	0.021865	-0.009548
47	0.262837	0.005000	2.931319	-8.795600	-1.989559	-0.536475	0.017072	-0.352329	0.019702	0.019501	-0.007947
48	0.267837	0.005000	2.975377	-8.711280	-1.968863	-0.536814	0.017411	-0.352960	0.008849	0.028633	-0.009013
49	0.272837	0.005000	2.903760	-8.891710	-1.954115	-0.537153	0.017750	-0.353590	0.006035	0.025621	-0.011874
50	0.277837	0.005000	2.816748	-8.885304	-1.992708	-0.537491	0.018088	-0.354221	0.009356	0.021632	-0.022803
51	0.282837	0.005000	2.914651	-8.877690	-1.902420	-0.537830	0.018427	-0.354851	0.011270	0.022436	-0.005529
52	0.287837	0.005000	2.885465	-8.897008	-1.883520	-0.538169	0.018766	-0.355481	0.006959	0.030883	-0.021515
53	0.292837	0.005000	2.836310	-8.974930	-1.979180	-0.538508	0.019105	-0.356112	0.015477	0.022532	-0.014547
54	0.297837	0.005000	2.891708	-8.868240	-1.937895	-0.538779	0.019443	-0.356682	0.014212	0.028550	-0.023035
55	0.302837	0.005000	2.877579	-8.868302	-2.014361	-0.538553	0.019782	-0.356808	0.006110	0.033209	-0.023529
56	0.307837	0.005000	2.903760	-8.880246	-1.962000	-0.538327	0.020121	-0.356934	0.011308	0.027343	-0.006035
57	0.312837	0.005000	2.952961	-8.829000	-1.976639	-0.538101	0.020460	-0.357060	0.018478	0.031458	-0.016650
58	0.317837	0.005000	2.943000	-8.891818	-1.930676	-0.537876	0.020799	-0.357186	0.016178	0.031647	-0.015597
59	0.322837	0.005000	2.909631	-8.845684	-2.001240	-0.537650	0.021138	-0.357312	0.018202	0.034652	-0.021031
60	0.327837	0.005000	2.925773	-8.885467	-1.935200	-0.537424	0.021477	-0.357438	0.015477	0.038395	-0.022476
61	0.332837	0.005000	3.042471	-8.826258	-1.962000	-0.537198	0.021816	-0.357565	0.011955	0.031093	-0.005061
62	0.337837	0.005000	2.942303	-8.750520	-1.941334	-0.536972	0.022154	-0.357691	0.011811	0.033940	-0.008520
63	0.342837	0.005000	2.942613	-8.828613	-1.942186	-0.536746	0.022493	-0.357817	0.010996	0.035162	-0.020940
64	0.347837	0.005000	2.984672	-8.946720	-1.922760	-0.536520	0.022832	-0.357943	0.015243	0.039401	-0.019271
65	0.352837	0.005000	3.025957	-8.951197	-1.883520	-0.536294	0.023171	-0.358069	0.007887	0.038985	-0.021687
66	0.357837	0.005000	3.043881	-8.913041	-1.984401	-0.536068	0.023510	-0.358195	-0.000338	0.040155	-0.020848
67	0.362837	0.005000	2.966423	-8.868240	-1.915154	-0.535842	0.023849	-0.358321	0.003971	0.041459	-0.019031
68	0.367837	0.005000	3.036274	-8.961514	-1.976794	-0.535923	0.023472	-0.358333	0.005371	0.045169	-0.013552
69	0.372837	0.005000	3.021480	-8.943250	-1.897757	-0.536036	0.023021	-0.358333	-0.018463	0.042862	-0.020227
70	0.377837	0.005000	3.008266	-8.894266	-1.962000	-0.536149	0.022569	-0.358333	-0.014362	0.034810	-0.018768
71	0.382837	0.005000	3.060720	-8.946720	-1.922760	-0.536262	0.022117	-0.358333	-0.010545	0.045300	-0.014836
72	0.387837	0.005000	2.970921	-8.935401	-1.878237	-0.536375	0.021666	-0.358333	-0.009412	0.034085	-0.019394
73	0.392837	0.005000	2.953627	-8.821642	-1.983254	-0.536487	0.021214	-0.358333	-0.004089	0.029016	-0.008102
74	0.397837	0.005000	2.902939	-8.877845	-2.021271	-0.536600	0.020762	-0.358333	-0.010212	0.040242	-0.028424
75	0.402837	0.005000	2.960377	-8.759209	-1.992551	-0.536713	0.020311	-0.358333	-0.007329	0.027780	-0.012360
76	0.407837	0.005000	2.982240	-8.829000	-1.993200	-0.536826	0.019859	-0.358333	-0.014966	0.037874	-0.015577
77	0.412837	0.005000	2.957035	-8.821982	-1.922760	-0.536939	0.019407	-0.358333	-0.013834	0.029752	-0.026214
78	0.417837	0.005000	3.015005	-8.809574	-1.844280	-0.537052	0.018956	-0.358333	-0.011056	0.022556	-0.011683
79	0.422837	0.005000	2.976787	-8.891121	-1.849733	-0.537165	0.018504	-0.358333	-0.024144	0.027880	-0.025723
80	0.427837	0.005000	2.951861	-8.907480	-1.853141	-0.537277	0.018052	-0.358333	-0.024811	0.013157	-0.016514
81	0.432837	0.005000	3.103409	-8.900582	-1.915862	-0.537545	0.017678	-0.357383	-0.033478	0.023664	-0.016051
82	0.437837	0.005000	3.099960	-8.759071	-1.849981	-0.537884	0.017339	-0.355996	-0.042303	0.019700	-0.017495
83	0.442837	0.005000	3.099960	-8.868240	-1.881691	-0.538223	0.017000	-0.354608	-0.039462	0.017305	-0.017410
84	0.447837	0.005000	3.136628	-8.868240	-1.965857	-0.538562	0.016662	-0.353221	-0.037570	0.013031	-0.010883
85	0.452837	0.005000	3.020953	-8.829000	-1.962263	-0.538901	0.016323	-0.351833	-0.044195	0.010441	-0.006233
86	0.457837	0.005000	3.096924	-8.867481	-2.039721	-0.539239	0.015984	-0.350446	-0.044392	0.018566	-0.019002
87	0.462837	0.005000	3.059403	-8.826365	-2.040480	-0.539578	0.015645	-0.349059	-0.037832	0.012051	-0.011978
88	0.467837	0.005000	2.945324	-8.902833	-2.005887	-0.539917	0.015306	-0.347671	-0.042417	0.026058	-0.027265
89	0.472837	0.005000	3.096614	-9.011815	-2.112268	-0.540256	0.014968	-0.346284	-0.040756	0.019100	-0.018728
90	0.477837	0.005000	3.069457	-8.833369	-1.996871	-0.540595	0.014629	-0.344896	-0.033077	0.019141	-0.015772
91	0.482837	0.005000	3.099960	-8.892565	-1.957028	-0.540934	0.014290	-0.343509	-0.034862	0.024857	-0.032341
92	0.487837	0.005000	3.072586	-8.840866	-1.901320	-0.541273	0.013951	-0.342122	-0.028542	0.006856	-0.006514
93	0.492837	0.005000	3.132244	-8.900524	-1.936671	-0.541612	0.013612	-0.340734	-0.031456	0.010382	-0.021171
94	0.497837	0.005000	3.146713	-8.821487	-1.986213	-0.542163	0.013167	-0.339585	-0.032376	0.012397	-0.018883
95	0.502837	0.005000	3.007801	-8.876760	-1.992720	-0.542953	0.012603	-0.338702	-0.031794	0.009573	-0.015050
96	0.507837	0.005000	3.022549	-8.838543	-1.913217	-0.543744	0.012038	-0.337819	-0.031604	0.012359	-0.025146
97	0.512837	0.005000	3.099960	-8.789760	-2.040480	-0.544534	0.011474	-0.336937	-0.028136	0.006826	-0.014216
98	0.517837	0.005000	3.032603	-8.778637	-2.012363	-0.545324	0.010909	-0.336054	-0.016742	0.007386	-0.020103
99	0.522837	0.005000	2.970095	-8.816855	-2.118960	-0.546115	0.010345	-0.335172	-0.015637	0.007209	-0.020936
100	0.527837	0.005000	3.008576	-8.724711	-2.014144	-0.546905	0.009780	-0.334289	-0.021207	0.004074	-0.010964
101	0.532837	0.005000	2.931180	-8.711280	-2.054190	-0.547695	0.009216	-0.333407	-0.011641	0.008402	-0.018764
102	0.537837	0.005000	2.992015	-8.863283	-2.030705	-0.548486	0.008651	-0.332524	-0.016763	0.009690	-0.019542
103	0.542837	0.005000	2.997995	-8.821270	-2.024725	-0.549276	0.008087	-0.331642	-0.004880	0.015808	-0.019167
104	0.547837	0.005000	3.011829	-8.838651	-1.955354	-0.550066	0.007522	-0.330759	-0.000392	-0.000903	-0.017626
105	0.552837	0.005000	2.977639	-8.750520	-1.922760	-0.550856	0.006958	-0.329877	-0.005994	0.018119	-0.021524
106	0.557837	0.005000	2.982240	-8.747018	-1.947634	-0.551647	0.006393	-0.328994	-0.000088	0.007177	-0.020857
107	0.562837	0.005000	2.960412	-8.690924	-1.941644	-0.552239	0.005970	-0.328681	0.004538	0.001110	-0.019044
108	0.567837	0.005000	2.825280	-8.672150	-1.903085	-0.552239	0.005970	-0.330068	0.000913	0.005878	-0.026540
109	0.572837	0.005000	2.844056	-8.690816	-1.941536	-0.552239	0.005970	-0.331456	0.004142	-0.000710	-0.012558
110	0.577837	0.005000	2.896293	-8.725300	-1.944247	-0.552239	0.005970	-0.332843	-0.000458	0.010916	-0.022668
111	0.582837	0.005000	2.960211	-8.811789	-1.922760	-0.552239	0.005970	-0.334230	-0.001070	0.000293	-0.024427
112	0.587837	0.005000	3.005291	-8.734331	-1.968863	-0.552239	0.005970	-0.335618	0.001275	0.007115	-0.022507
113	0.592837	0.005000	2.943000	-8.789760	-1.992708	-0.552239	0.005970	-0.337005	0.003879	0.006403	-0.011202
114	0.597837	0.005000	2.982240	-8.892856	-1.971992	-0.552239	0.005970	-0.338393	0.007586	0.006347	-0.014561
115	0.602837	0.005000	3.021480	-8.881842	-1.962000	-0.552239	0.005970	-0.339780	0.005636	0.003070	-0.004637
116	0.607837	0.005000	3.047676	-8.959764	-2.053632	-0.552239	0.005970	-0.341168	0.000953	0.002155	-0.012856
117	0.612837	0.005000	3.009459	-8.946720	-1.974021	-0.552239	0.005970	-0.342555	-0.005979	-0.000175	-0.013677
118	0.617837	0.005000	2.971226	-8.957734	-1.922760	-0.552239	0.005970	-0.343943	0.004039	0.005215	-0.009184
119	0.622837	0.005000	3.029350	-8.957177	-1.922760	-0.552239	0.005970	-0.345330	0.007023	0.008044	-0.014108
120	0.627837	0.005000	3.041851	-8.916914	-1.971434	-0.552198	0.006007	-0.346695	-0.004720	0.005019	-0.013327
121	0.632837	0.005000	2.977064	-8.946720	-2.054172	-0.551069	0.007023	-0.347451	-0.002698	0.007483	-0.007763
122	0.637837	0.005000	3.123461	-8.923111	-1.985609	-0.549940	0.008039	-0.348207	-0.008459	0.020982	-0.013682
123	0.642837	0.005000	2.943000	-8.815306	-2.054174	-0.548811	0.009055	-0.348964	-0.014268	0.019456	-0.010312
124	0.647837	0.005000	2.943000	-8.678345	-2.040480	-0.547682	0.010071	-0.349720	-0.004485	0.017100	-0.004883
125	0.652837	0.005000	2.875085	-8.761085	-2.051045	-0.546553	0.011087	-0.350477	-0.010646	0.017930	-0.012491
126	0.657837	0.005000	3.012960	-8.916000	-2.001240	-0.545424	0.012104	-0.351233	-0.005842	0.032269	-0.005938
127	0.662837	0.005000	2.939298	-8.871942	-2.001240	-0.544295	0.013120	-0.351989	0.001281	0.035460	-0.014671
128	0.667837	0.005000	2.903760	-8.912840	-2.006600	-0.543166	0.014136	-0.352746	-0.003744	0.033658	-0.011658
129	0.672837	0.005000	2.907106	-8.945047	-2.038807	-0.542037	0.015152	-0.353502	0.001073	0.033047	-0.017182
130	0.677837	0.005000	3.021480	-8.904134	-2.040480	-0.540908	0.016168	-0.354259	0.012142	0.030019	-0.011879
131	0.682837	0.005000	2.982147	-8.789760	-2.040294	-0.539779	0.017184	-0.355015	0.002941	0.032216	-0.002100
132	0.687837	0.005000	2.943000	-8.828545	-1.923215	-0.538650	0.018200	-0.355772	-0.006950	0.027472	-0.009774
133	0.692837	0.005000	3.134785	-8.714223	-1.922760	-0.537521	0.019216	-0.356528	-0.001615	0.020636	-0.002171
134	0.697837	0.005000	3.023974	-8.708786	-1.846774	-0.537405	0.019495	-0.356770	-0.008063	0.029645	-0.015514
135	0.702837	0.005000	2.979166	-8.708206	-1.844280	-0.537518	0.019608	-0.356896	-0.000000	0.017153	-0.019450
136	0.707837	0.005000	2.986299	-8.781642	-2.024245	-0.537631	0.019721	-0.357022	0.008514	0.015226	-0.014304
137	0.712837	0.005000	3.040395	-8.794841	-2.153119	-0.537744	0.019834	-0.357148	-0.006111	0.027491	-0.015631
138	0.717837	0.005000	2.982240	-8.840278	-2.068442	-0.537857	0.019947	-0.357274	0.003929	0.023825	-0.008171
139	0.722837	0.005000	2.949661	-8.880835	-2.047141	-0.537970	0.020060	-0.357400	-0.002656	0.024338	-0.018744
140	0.727837	0.005000	2.982240	-8.892112	-1.930444	-0.538083	0.020173	-0.357526	0.001129	0.020496	-0.017662
141	0.732837	0.005000	3.122748	-8.899254	-1.962000	-0.538196	0.020286	-0.357652	0.006947	0.024307	-0.012817
142	0.737837	0.005000	3.111455	-8.858992	-1.941257	-0.538309	0.020399	-0.357778	0.018705	0.021359	-0.015011
143	0.742837	0.005000	2.982163	-8.927061	-1.922760	-0.538422	0.020512	-0.357904	0.008235	0.032576	-0.014884
144	0.747837	0.005000	2.953813	-8.822199	-1.962000	-0.538535	0.020625	-0.358030	0.015497	0.024595	-0.017450
145	0.752837	0.005000	3.009644	-8.829000	-2.016809	-0.538647	0.020737	-0.358156	0.024435	0.014107	-0.007288
146	0.757837	0.005000	3.007005	-8.843475	-1.935143	-0.538760	0.020850	-0.358282	0.010240	0.028860	-0.014101
147	0.762837	0.005000	3.008080	-8.894080	-1.896920	-0.538806	0.020425	-0.358258	0.019272	0.017499	-0.016799
148	0.767837	0.005000	3.089565	-8.779365	-1.953944	-0.538806	0.019634	-0.358132	0.024340	0.022690	-0.007640
149	0.772837	0.005000	2.987941	-8.886799	-2.040480	-0.538806	0.018843	-0.358006	0.017869	0.023786	-0.014523
150	0.777837	0.005000	2.998243	-8.845003	-1.994005	-0.538806	0.018053	-0.357880	0.027344	0.019059	-0.013744
151	0.782837	0.005000	2.982240	-8.773010	-1.821790	-0.538806	0.017262	-0.357754	0.023306	0.027238	-0.029922
152	0.787837	0.005000	3.029691	-8.829000	-1.783367	-0.538806	0.016471	-0.357627	0.016476	0.019113	-0.020782
153	0.792837	0.005000	2.940940	-8.810410	-1.842220	-0.538806	0.015681	-0.357501	0.025274	0.023645	-0.029428
154	0.797837	0.005000	2.942498	-8.888111	-1.922760	-0.538806	0.014890	-0.357375	0.006740	0.020606	-0.022439
155	0.802837	0.005000	3.000257	-8.906411	-1.863366	-0.538806	0.014099	-0.357249	0.003488	0.013029	-0.018386
156	0.807837	0.005000	2.961063	-8.847063	-1.901583	-0.538806	0.013309	-0.357123	0.003794	0.015184	-0.015347
157	0.812837	0.005000	3.016730	-8.924725	-1.844280	-0.538806	0.012518	-0.356997	0.007286	0.012287	-0.012436
158	0.817837	0.005000	3.054477	-8.946720	-1.844280	-0.538806	0.011727	-0.356871	0.005081	0.023713	-0.028878
159	0.822837	0.005000	3.052432	-8.798048	-2.001240	-0.538806	0.010937	-0.356745	0.005488	0.014761	-0.023509
160	0.827837	0.005000	3.070706	-8.829000	-2.015867	-0.538677	0.010577	-0.356667	-0.010076	0.017069	-0.019998
161	0.832837	0.005000	3.074616	-8.801208	-1.987344	-0.538338	0.010916	-0.356667	0.005243	0.019197	-0.024355
162	0.837837	0.005000	2.982240	-8.750520	-1.857153	-0.537999	0.011255	-0.356667	0.015577	0.018606	-0.008993
163	0.842837	0.005000	2.958244	-8.777762	-1.907516	-0.537660	0.011594	-0.356667	0.002601	0.021453	-0.024968
164	0.847837	0.005000	2.948314	-8.812378	-1.973309	-0.537321	0.011933	-0.356667	0.003924	0.011511	-0.010640
165	0.852837	0.005000	3.031766	-8.847667	-1.933046	-0.536982	0.012271	-0.356667	0.004586	0.020129	-0.019202
166	0.857837	0.005000	2.982240	-8.770008	-1.903272	-0.536643	0.012610	-0.356667	-0.012062	0.012649	-0.030008
167	0.862837	0.005000	3.051998	-8.829000	-1.892242	-0.536304	0.012949	-0.356667	-0.003939	0.011527	-0.009952
168	0.867837	0.005000	2.982240	-8.868240	-1.914968	-0.535966	0.013288	-0.356667	0.000878	0.013850	-0.014608
169	0.872837	0.005000	2.992852	-8.875397	-1.858594	-0.535627	0.013627	-0.356667	-0.000596	0.021228	-0.005720
170	0.877837	0.005000	2.982240	-8.841269	-2.001240	-0.535288	0.013965	-0.356667	-0.012456	0.023692	-0.011049
171	0.882837	0.005000	2.987413	-8.839347	-1.922760	-0.534949	0.014304	-0.356667	-0.010563	0.022009	-0.004655
172	0.887837	0.005000	3.026035	-8.819891	-1.888075	-0.534610	0.014643	-0.356667	-0.015487	0.021976	-0.013034
173	0.892837	0.005000	3.025012	-8.718344	-2.033416	-0.534404	0.014963	-0.356625	-0.013090	0.023817	-0.026288
174	0.897837	0.005000	3.021480	-8.829000	-1.922760	-0.534855	0.015189	-0.356372	-0.015275	0.018719	-0.001702
175	0.902837	0.005000	2.982240	-8.791727	-1.956098	-0.535307	0.015414	-0.356120	-0.007705	0.029566	-0.018095
176	0.907837	0.005000	2.979390	-8.827575	-1.884945	-0.535759	0.015640	-0.355868	-0.013169	0.006760	-0.009829
177	0.912837	0.005000	2.904566	-8.868240	-1.883117	-0.536210	0.015866	-0.355616	-0.018132	0.021187	-0.006173
178	0.917837	0.005000	2.982240	-8.829620	-1.882900	-0.536662	0.016092	-0.355364	-0.031247	0.018197	-0.027048
179	0.922837	0.005000	3.018196	-8.824074	-1.926044	-0.537114	0.016318	-0.355112	-0.009412	0.014295	-0.013538
180	0.927837	0.005000	2.982240	-8.713480	-1.883520	-0.537565	0.016543	-0.354859	-0.011355	0.014716	-0.017575
181	0.932837	0.005000	2.988653	-8.858620	-1.958793	-0.538017	0.016769	-0.354607	-0.019291	0.016081	-0.016926
182	0.937837	0.005000	2.903760	-8.907480	-1.957771	-0.538469	0.016995	-0.354355	-0.007378	0.016253	-0.018719
183	0.942837	0.005000	3.055933	-8.932359	-2.001240	-0.538920	0.017221	-0.354103	-0.013743	0.010997	-0.015552
184	0.947837	0.005000	2.982240	-8.840619	-1.962000	-0.539372	0.017447	-0.353851	-0.016948	0.013870	-0.016480
185	0.952837	0.005000	2.910112	-8.934017	-1.955648	-0.539824	0.017672	-0.353598	-0.015471	0.014439	-0.015976
186	0.957837	0.005000	3.075468	-8.946720	-1.915386	-0.540275	0.017898	-0.353346	-0.012464	0.017245	-0.003433
187	0.962837	0.005000	3.035531	-8.938324	-1.922760	-0.540406	0.017696	-0.353214	-0.020243	0.018590	-0.016087
188	0.967837	0.005000	3.003381	-8.916529	-1.931809	-0.540519	0.017470	-0.353087	-0.017392	0.013975	-0.016695
189	0.972837	0.005000	2.982240	-8.975999	-1.981318	-0.540632	0.017244	-0.352961	-0.019172	0.020594	-0.015363
190	0.977837	0.005000	3.010497	-8.885513	-1.944727	-0.540745	0.017018	-0.352835	-0.019844	0.024172	-0.027265
191	0.982837	0.005000	3.033021	-8.923638	-1.883520	-0.540858	0.016792	-0.352709	-0.019825	0.017882	-0.003014
192	0.987837	0.005000	2.996374	-8.775626	-1.870967	-0.540971	0.016566	-0.352583	-0.016974	0.014496	-0.017417
193	0.992837	0.005000	2.994339	-8.842571	-1.845752	-0.541083	0.016341	-0.352457	-0.017267	0.010546	-0.014425
194	0.997837	0.005000	3.060720	-8.803888	-1.866247	-0.541196	0.016115	-0.352331	-0.021624	0.014074	-0.015442
195	1.002837	0.005000	2.982240	-8.750520	-1.898671	-0.541309	0.015889	-0.352205	-0.017033	0.011036	-0.024099
196	1.007837	0.005000	3.060720	-8.868240	-1.876626	-0.541422	0.015663	-0.352079	-0.018268	0.011010	-0.007792
197	1.012837	0.005000	2.965318	-8.817473	-1.833490	-0.541535	0.015437	-0.351953	-0.021834	0.012444	-0.015638
198	1.017837	0.005000	2.964502	-8.964458	-1.883520	-0.541648	0.015211	-0.351827	-0.028711	0.013558	-0.010804
199	1.022837	0.005000	2.963480	-8.808520	-1.919321	-0.541761	0.014985	-0.351701	-0.029473	0.015570	-0.013978
200	1.027837	0.005000	2.923698	-8.908115	-1.844280	-0.541460	0.014677	-0.351759	-0.027584	0.008657	-0.015378
201	1.032837	0.005000	2.982240	-8.887155	-1.882110	-0.541008	0.014338	-0.351886	-0.031456	0.015020	-0.015836
202	1.037837	0.005000	3.075158	-8.889587	-1.937198	-0.540556	0.013999	-0.352012	-0.021712	0.012827	-0.017936
203	1.042837	0.005000	3.060720	-8.811921	-2.045561	-0.540104	0.013660	-0.352138	-0.021098	0.013404	-0.002152
204	1.047837	0.005000	2.943000	-8.914064	-1.994656	-0.539652	0.013321	-0.352264	-0.015497	0.026242	-0.024981
205	1.052837	0.005000	2.973611	-8.844306	-1.985934	-0.539201	0.012982	-0.352390	-0.008704	0.006394	-0.009411
206	1.057837	0.005000	3.021480	-8.804508	-1.952256	-0.538749	0.012644	-0.352516	-0.018397	0.014120	-0.024856
207	1.062837	0.005000	3.048931	-8.776035	-1.948275	-0.538297	0.012305	-0.352642	-0.014236	0.013916	-0.018671
208	1.067837	0.005000	3.008777	-8.841703	-1.949297	-0.537845	0.011966	-0.352768	-0.016131	0.009431	-0.009040
209	1.072837	0.005000	3.037069	-8.852651	-1.985651	-0.537394	0.011627	-0.352894	-0.020351	0.018128	-0.020413
210	1.077837	0.005000	2.982240	-8.829000	-2.051618	-0.536942	0.011288	-0.353020	-0.014566	0.014849	-0.008926
211	1.082837	0.005000	3.011364	-8.750520	-2.011356	-0.536490	0.010950	-0.353146	-0.012333	0.014776	-0.018027
212	1.087837	0.005000	2.970619	-8.750520	-1.982828	-0.536038	0.010611	-0.353272	-0.002601	0.014385	-0.022365
213	1.092837	0.005000	2.965137	-8.680591	-1.922760	-0.535938	0.010565	-0.353464	-0.006498	0.018121	-0.006820
214	1.097837	0.005000	2.958058	-8.758049	-1.969529	-0.536164	0.010791	-0.353716	0.000342	0.017881	-0.013567
215	1.102837	0.005000	2.988827	-8.711280	-2.066546	-0.536390	0.011017	-0.353968	-0.003442	0.013604	-0.018265
216	1.107837	0.005000	3.021480	-8.823036	-1.916796	-0.536616	0.011243	-0.354221	-0.005517	0.024672	-0.011419
217	1.112837	0.005000	3.021480	-8.824058	-2.035538	-0.536841	0.011468	-0.354473	-0.001872	0.013813	-0.012207
218	1.117837	0.005000	3.060720	-8.801518	-2.001240	-0.537067	0.011694	-0.354725	-0.005848	0.023621	-0.012730
219	1.122837	0.005000	3.024802	-8.825678	-1.962000	-0.537293	0.011920	-0.354977	0.003432	0.019537	-0.012361
220	1.127837	0.005000	3.056042	-8.875258	-1.844280	-0.537519	0.012146	-0.355229	0.002530	0.023483	-0.006060
221	1.132837	0.005000	2.980908	-8.792425	-1.845612	-0.537745	0.012372	-0.355481	0.007716	0.020529	-0.009377
222	1.137837	0.005000	2.981465	-8.908255	-1.921985	-0.537970	0.012597	-0.355734	0.005077	0.014092	-0.003895
223	1.142837	0.005000	2.904008	-8.907728	-1.961504	-0.538196	0.012823	-0.355986	-0.004491	0.021208	-0.012306
224	1.147837	0.005000	3.058179	-8.868240	-2.040480	-0.538422	0.013049	-0.356238	-0.001448	0.016287	-0.010937
225	1.152837	0.005000	2.944835	-8.905645	-2.001240	-0.538648	0.013275	-0.356490	0.001752	0.014664	-0.007189
226	1.157837	0.005000	2.900925	-8.873910	-1.956330	-0.538874	0.013433	-0.356403	-0.016243	0.020839	-0.010505
227	1.162837	0.005000	2.950715	-8.907480	-1.922760	-0.539099	0.013433	-0.355521	-0.008050	0.025737	-0.005321
228	1.167837	0.005000	2.908214	-8.868240	-1.922760	-0.539325	0.013433	-0.354638	-0.000688	0.021926	-0.014735
229	1.172837	0.005000	3.016058	-8.946720	-1.917338	-0.539551	0.013433	-0.353756	-0.009715	0.016908	-0.013370
230	1.177837	0.005000	2.975796	-8.874684	-1.949111	-0.539777	0.013433	-0.352873	-0.017321	0.021577	-0.006684
231	1.182837	0.005000	3.060720	-8.882244	-2.008242	-0.540002	0.013433	-0.351991	-0.014531	0.008693	-0.004464
232	1.187837	0.005000	3.021480	-8.782569	-1.922760	-0.540228	0.013433	-0.351108	-0.021402	0.011457	-0.014263
233	1.192837	0.005000	2.952032	-8.750520	-1.901583	-0.540454	0.013433	-0.350226	-0.012971	0.015577	-0.021003
234	1.197837	0.005000	2.922938	-8.780171	-1.805040	-0.540680	0.013433	-0.349343	-0.009974	0.015104	-0.005062
235	1.202837	0.005000	2.971628	-8.800372	-1.833668	-0.540906	0.013433	-0.348461	-0.027679	0.016262	-0.002253
236	1.207837	0.005000	2.998896	-8.784396	-1.827624	-0.541131	0.013433	-0.347578	-0.012843	0.010331	-0.011824
237	1.212837	0.005000	2.915936	-8.777584	-1.817216	-0.541357	0.013433	-0.346695	-0.018348	0.007527	-0.006221
238	1.217837	0.005000	2.956199	-8.815801	-1.870321	-0.541583	0.013433	-0.345813	-0.030623	0.007115	-0.011771
239	1.222837	0.005000	2.943000	-8.840418	-1.911342	-0.541764	0.013397	-0.345040	-0.027172	-0.000031	-0.007146
240	1.227837	0.005000	3.099960	-8.804523	-1.922760	-0.541425	0.012946	-0.345544	-0.014853	0.019280	-0.013347
241	1.232837	0.005000	3.123414	-8.813214	-1.962000	-0.541087	0.012494	-0.346049	-0.021266	0.008683	-0.006714
242	1.237837	0.005000	3.038019	-8.851701	-2.017779	-0.540748	0.012042	-0.346553	-0.007444	0.013264	-0.014442
243	1.242837	0.005000	3.060720	-8.877256	-2.040480	-0.540409	0.011590	-0.347058	-0.013875	0.013266	-0.007764
244	1.247837	0.005000	2.977252	-8.826506	-2.116466	-0.540070	0.011138	-0.347562	-0.013211	0.007754	-0.017317
245	1.252837	0.005000	2.943000	-8.808918	-1.982082	-0.539731	0.010687	-0.348067	-0.017987	0.017912	-0.011209
246	1.257837	0.005000	3.099960	-8.907480	-2.059767	-0.539392	0.010235	-0.348572	-0.019702	0.006990	-0.009169
247	1.262837	0.005000	3.081696	-8.829000	-1.964711	-0.539053	0.009783	-0.349076	-0.007976	0.011055	-0.011741
248	1.267837	0.005000	2.999696	-8.872569	-1.900976	-0.538714	0.009331	-0.349581	-0.013563	0.007071	-0.013347
249	1.272837	0.005000	3.116660	-8.829000	-1.855140	-0.538375	0.008879	-0.350085	-0.011423	0.009810	-0.018419
250	1.277837	0.005000	3.099960	-8.836885	-1.954115	-0.538037	0.008428	-0.350590	-0.001014	0.015603	-0.016329
251	1.282837	0.005000	3.036615	-8.829000	-1.937895	-0.537698	0.007976	-0.351094	-0.001469	0.007385	-0.007621
252	1.287837	0.005000	3.035593	-8.803873	-2.001240	-0.537359	0.007524	-0.351599	-0.013180	0.014872	-0.022320
253	1.292837	0.005000	2.969181	-8.842090	-1.975090	-0.537411	0.008049	-0.351994	0.004679	0.010468	-0.012411
254	1.297837	0.005000	3.035655	-8.894947	-1.947825	-0.537524	0.008727	-0.352373	0.000627	0.016204	-0.016198
255	1.302837	0.005000	2.943000	-8.840515	-1.950485	-0.537637	0.009404	-0.352751	-0.009173	0.016051	-0.013011
256	1.307837	0.005000	3.003498	-8.889498	-1.983258	-0.537750	0.010082	-0.353129	0.003456	0.007738	-0.008196
257	1.312837	0.005000	3.070666	-8.819054	-1.991294	-0.537863	0.010760	-0.353508	-0.004265	0.010741	-0.011397
258	1.317837	0.005000	3.082114	-8.829000	-1.940606	-0.537976	0.011437	-0.353886	-0.007950	0.004848	-0.002842
259	1.322837	0.005000	3.013579	-8.883778	-1.954099	-0.538089	0.012115	-0.354265	-0.003424	0.015517	-0.004114
260	1.327837	0.005000	2.982240	-8.868240	-1.898237	-0.538202	0.012793	-0.354643	0.000125	0.010630	-0.017516
261	1.332837	0.005000	2.968344	-8.861904	-1.929096	-0.538315	0.013470	-0.355021	0.001418	0.016222	-0.005601
262	1.337837	0.005000	2.937686	-8.829000	-1.995926	-0.538428	0.014148	-0.355400	0.003691	0.013137	-0.018522
263	1.342837	0.005000	2.908104	-8.863896	-1.962000	-0.538541	0.014826	-0.355778	0.002147	0.011726	-0.015626
264	1.347837	0.005000	2.943000	-8.832749	-1.922760	-0.538654	0.015504	-0.356156	0.003665	0.016906	-0.026290
265	1.352837	0.005000	3.094507	-8.820820	-1.962000	-0.538767	0.016181	-0.356535	0.006562	0.003759	-0.004234
266	1.357837	0.005000	2.982240	-8.748795	-1.922760	-0.538806	0.016565	-0.356831	-0.004785	0.000798	-0.011470
267	1.362837	0.005000	3.021480	-8.712660	-1.922760	-0.538806	0.016791	-0.357083	0.006471	0.014298	-0.008915
268	1.367837	0.005000	3.099960	-8.828721	-1.883381	-0.538806	0.017016	-0.357335	0.013569	0.007247	-0.016105
269	1.372837	0.005000	3.176674	-8.827234	-1.882637	-0.538806	0.017242	-0.357587	-0.000234	0.018130	-0.025921
270	1.377837	0.005000	2.989862	-8.866335	-1.922760	-0.538806	0.017468	-0.357839	-0.002973	0.007954	-0.002344
271	1.382837	0.005000	2.947926	-8.865777	-1.993851	-0.538806	0.017694	-0.358092	0.003436	0.018358	-0.007679
272	1.387837	0.005000	2.868006	-8.875211	-2.001240	-0.538806	0.017920	-0.358344	-0.000521	0.012443	-0.017902
273	1.392837	0.005000	3.125722	-8.768490	-1.853265	-0.538806	0.018145	-0.358596	-0.006414	0.010993	-0.009007
274	1.397837	0.005000	3.089738	-8.823889	-1.912538	-0.538806	0.018371	-0.358848	0.000177	0.017703	-0.012362
275	1.402837	0.005000	3.106033	-8.874313	-1.850353	-0.538806	0.018597	-0.359100	0.011272	0.013525	-0.010892
276	1.407837	0.005000	3.053625	-8.825236	-2.012100	-0.538806	0.018823	-0.359352	0.009630	0.020815	-0.020777
277	1.412837	0.005000	3.076955	-8.782990	-2.040480	-0.538806	0.019049	-0.359604	-0.002667	0.022879	-0.019964
278	1.417837	0.005000	3.043400	-8.850920	-2.031820	-0.538806	0.019274	-0.359856	0.002910	0.024113	-0.018229
279	1.422837	0.005000	3.031162	-8.907480	-2.001240	-0.538952	0.019209	-0.359240	-0.004877	0.020074	-0.012629
280	1.427837	0.005000	3.067846	-8.975255	-1.990535	-0.539291	0.018757	-0.357474	0.000476	0.022348	-0.006755
281	1.432837	0.005000	3.060720	-8.903421	-1.895247	-0.539630	0.018305	-0.355708	-0.005400	0.018139	-0.014158
282	1.437837	0.005000	3.153901	-8.949152	-1.937461	-0.539969	0.017853	-0.353943	-0.003512	0.016744	-0.011085
283	1.442837	0.005000	3.152492	-8.881532	-1.948708	-0.540307	0.017401	-0.352177	-0.003915	0.021806	-0.014074
284	1.447837	0.005000	3.075034	-8.932406	-1.894132	-0.540646	0.016950	-0.350411	-0.005664	0.010301	-0.007690
285	1.452837	0.005000	3.045680	-8.952601	-1.859320	-0.540985	0.016498	-0.348645	-0.008751	0.011485	-0.013210
286	1.457837	0.005000	2.982240	-8.805639	-1.789161	-0.541324	0.016046	-0.346880	-0.009062	0.014584	-0.011737
287	1.462837	0.005000	3.088496	-8.845901	-1.905859	-0.541663	0.015594	-0.345114	0.000911	0.006959	-0.003197
288	1.467837	0.005000	3.000164	-8.825607	-1.904836	-0.542002	0.015142	-0.343348	-0.007284	0.013262	-0.016611
289	1.472837	0.005000	2.982240	-8.812796	-1.925037	-0.542341	0.014691	-0.341582	-0.005698	0.008015	-0.016062
290	1.477837	0.005000	2.923775	-8.848752	-1.863768	-0.542680	0.014239	-0.339816	-0.010774	0.014104	-0.004115
291	1.482837	0.005000	3.022813	-8.869573	-1.883520	-0.543018	0.013787	-0.338051	-0.007313	0.017417	-0.022332
292	1.487837	0.005000	2.921932	-8.826103	-1.823212	-0.543479	0.013335	-0.336558	-0.012772	0.011884	-0.005272
293	1.492837	0.005000	2.864520	-8.902538	-1.934967	-0.544383	0.012884	-0.336054	-0.023929	0.021908	-0.011945
294	1.497837	0.005000	3.008306	-8.946720	-1.952261	-0.545286	0.012432	-0.335549	-0.016754	0.010618	-0.012923
295	1.502837	0.005000	3.013967	-8.970376	-1.899104	-0.546189	0.011981	-0.335045	-0.022039	0.019498	-0.004390
296	1.507837	0.005000	2.986686	-8.907480	-1.922760	-0.547092	0.011529	-0.334541	-0.021771	0.015719	-0.016615
297	1.512837	0.005000	3.020101	-8.946720	-1.857820	-0.547995	0.011077	-0.334036	-0.022576	0.016998	-0.020084
298	1.517837	0.005000	2.956896	-8.868240	-1.883520	-0.548898	0.010626	-0.333532	-0.020365	0.019178	-0.017016
299	1.522837	0.005000	2.903760	-8.856265	-1.895495	-0.549802	0.010174	-0.333028	-0.018307	0.014158	-0.007173
300	1.527837	0.005000	3.004145	-8.839952	-2.001240	-0.550705	0.009723	-0.332523	-0.011226	0.017125	-0.011973
301	1.532837	0.005000	2.913813	-8.878293	-2.049561	-0.551608	0.009271	-0.332019	-0.007980	0.004225	-0.011197
302	1.537837	0.005000	3.021480	-8.858852	-1.943224	-0.552511	0.008819	-0.331515	-0.017078	0.013745	-0.021726
303	1.542837	0.005000	2.982240	-8.890749	-1.908616	-0.553414	0.008368	-0.331011	-0.020551	0.019897	-0.006591
304	1.547837	0.005000	2.982240	-8.811789	-1.915417	-0.554317	0.007916	-0.330506	-0.006115	0.017437	-0.004991
305	1.552837	0.005000	3.106745	-8.933149	-1.922760	-0.555221	0.007465	-0.330002	-0.014773	0.022217	-0.013765
306	1.557837	0.005000	3.050294	-8.940957	-1.928523	-0.554211	0.007801	-0.331633	-0.020125	0.010249	-0.000358
307	1.562837	0.005000	3.159243	-8.941921	-1.922760	-0.553195	0.008139	-0.333273	-0.014472	0.019921	-0.006538
308	1.567837	0.005000	3.013084	-8.894885	-1.957802	-0.552178	0.008478	-0.334913	-0.021438	0.011442	-0.013951
309	1.572837	0.005000	3.096784	-8.822648	-1.922760	-0.551162	0.008817	-0.336552	-0.016301	0.014590	0.000070
310	1.577837	0.005000	3.056413	-8.798373	-1.996933	-0.550145	0.009156	-0.338192	-0.021670	0.018915	-0.013461
311	1.582837	0.005000	2.943000	-8.948331	-2.001240	-0.549129	0.009495	-0.339832	-0.020924	0.010174	-0.014607
312	1.587837	0.005000	2.943000	-8.908069	-1.922171	-0.548112	0.009833	-0.341471	-0.015790	0.017193	-0.006782
313	1.592837	0.005000	3.059419	-8.907914	-1.922326	-0.547095	0.010172	-0.343111	-0.029983	0.015221	-0.009829
314	1.597837	0.005000	2.982240	-8.791736	-1.883520	-0.546079	0.010511	-0.344751	-0.020645	0.013844	-0.017039
315	1.602837	0.005000	2.982240	-8.752518	-1.999242	-0.545062	0.010850	-0.346391	-0.026359	0.010926	-0.023073
316	1.607837	0.005000	2.939979	-8.711280	-2.073678	-0.544046	0.011189	-0.348030	-0.030456	0.016145	-0.018558
317	1.612837	0.005000	3.025523	-8.785717	-2.032393	-0.543029	0.011527	-0.349670	-0.029883	0.015420	-0.016947
318	1.617837	0.005000	2.992371	-8.839131	-1.937957	-0.542013	0.011866	-0.351310	-0.023964	0.010347	-0.012853
319	1.622837	0.005000	3.015870	-8.823390	-1.844280	-0.541526	0.012205	-0.352061	-0.022424	0.015573	-0.012915
320	1.627837	0.005000	3.211050	-8.757150	-1.922760	-0.541187	0.012544	-0.352566	-0.016796	0.009468	-0.007676
321	1.632837	0.005000	3.092307	-8.837629	-1.898826	-0.540848	0.012883	-0.353070	-0.022285	0.019253	-0.009099
322	1.637837	0.005000	3.029691	-8.938509	-1.993029	-0.540509	0.013222	-0.353575	-0.021162	0.017276	-0.020082
323	1.642837	0.005000	3.099960	-8.985960	-1.931993	-0.540170	0.013561	-0.354079	-0.015266	0.003115	-0.010124
324	1.647837	0.005000	3.050465	-8.917735	-1.914286	-0.539832	0.013899	-0.354584	-0.030251	0.013673	-0.017597
325	1.652837	0.005000	2.993038	-8.896682	-1.876673	-0.539493	0.014238	-0.355088	-0.023178	0.011562	-0.028325
326	1.657837	0.005000	2.986020	-8.774160	-1.977600	-0.539154	0.014577	-0.355593	-0.019560	0.009786	-0.018358
327	1.662837	0.005000	3.021480	-8.816485	-1.974515	-0.538815	0.014916	-0.356097	-0.015191	0.015487	-0.018905
328	1.667837	0.005000	3.047335	-8.816529	-1.949529	-0.538476	0.015255	-0.356602	-0.005665	0.016332	-0.003836
329	1.672837	0.005000	3.046313	-8.800186	-1.947593	-0.538137	0.015594	-0.357106	-0.014863	0.014904	-0.008370
330	1.677837	0.005000	3.051749	-8.678204	-1.946865	-0.537798	0.015933	-0.357611	-0.004535	0.008912	-0.011386
331	1.682837	0.005000	2.974943	-8.766492	-1.962000	-0.537459	0.016272	-0.358115	-0.011854	0.011666	-0.009244
332	1.687837	0.005000	2.926006	-8.806754	-1.956748	-0.537185	0.016482	-0.358118	-0.008858	0.010688	-0.016142
333	1.692837	0.005000	2.921312	-8.903344	-1.836008	-0.536959	0.016595	-0.357740	-0.018683	0.011843	-0.013134
334	1.697837	0.005000	2.945091	-8.909571	-1.846371	-0.536733	0.016708	-0.357361	-0.013803	0.014509	-0.014354
335	1.702837	0.005000	2.884117	-8.946720	-1.903117	-0.536507	0.016821	-0.356983	-0.003430	0.009464	-0.009044
336	1.707837	0.005000	3.002603	-8.888603	-1.863157	-0.536281	0.016934	-0.356605	-0.021566	0.018563	-0.017176
337	1.712837	0.005000	3.021480	-8.792843	-2.022401	-0.536055	0.017047	-0.356226	-0.009904	0.010179	-0.013660
338	1.717837	0.005000	2.964973	-8.715985	-2.001240	-0.535829	0.017160	-0.355848	-0.009927	0.017220	-0.014195
339	1.722837	0.005000	2.976028	-8.800062	-1.906246	-0.535603	0.017272	-0.355469	-0.011714	0.008221	-0.023228
340	1.727837	0.005000	3.068977	-8.907480	-1.953743	-0.535378	0.017385	-0.355091	-0.002303	0.002773	-0.016658
341	1.732837	0.005000	2.943000	-8.853598	-2.065078	-0.535152	0.017498	-0.354713	-0.013641	0.019145	-0.025908
342	1.737837	0.005000	2.943000	-8.789760	-2.001240	-0.534926	0.017611	-0.354334	-0.013173	0.018240	-0.017484
343	1.742837	0.005000	2.995671	-8.816096	-1.974904	-0.534700	0.017724	-0.353956	-0.007045	0.009301	-0.003133
344	1.747837	0.005000	3.046173	-8.775213	-1.910413	-0.534474	0.017837	-0.353578	-0.004777	0.019633	-0.018005
345	1.752837	0.005000	3.116551	-8.840324	-1.934084	-0.534328	0.017910	-0.353422	0.000871	0.016175	-0.003785
346	1.757837	0.005000	2.982240	-8.868240	-1.968894	-0.534328	0.017910	-0.353674	0.008780	0.015041	-0.007099
347	1.762837	0.005000	2.952760	-8.887961	-1.922760	-0.534328	0.017910	-0.353927	0.008727	0.013042	-0.003114
348	1.767837	0.005000	2.929972	-8.741783	-1.979474	-0.534328	0.017910	-0.354179	0.001827	0.015283	-0.012444
349	1.772837	0.005000	3.029675	-8.719475	-2.040480	-0.534328	0.017910	-0.354431	0.010227	0.010753	-0.011898
350	1.777837	0.005000	3.046375	-8.861067	-2.040480	-0.534328	0.017910	-0.354683	-0.006841	0.012865	-0.017708
351	1.782837	0.005000	3.042270	-8.789760	-1.962000	-0.534328	0.017910	-0.354935	-0.009702	0.015216	-0.013502
352	1.787837	0.005000	2.982240	-8.857055	-1.933945	-0.534328	0.017910	-0.355188	0.001234	0.016736	-0.004804
353	1.792837	0.005000	2.986812	-8.902908	-1.948285	-0.534328	0.017910	-0.355440	-0.015202	0.021042	-0.017960
354	1.797837	0.005000	3.167623	-8.982354	-1.929972	-0.534328	0.017910	-0.355692	-0.006914	0.018398	-0.010518
355	1.802837	0.005000	2.979235	-8.868240	-1.992224	-0.534328	0.017910	-0.355944	-0.000408	0.021141	-0.012406
356	1.807837	0.005000	2.982240	-8.832966	-1.918794	-0.534328	0.017910	-0.356196	-0.013160	0.015306	-0.020541
357	1.812837	0.005000	3.059297	-8.829000	-1.919913	-0.534328	0.017910	-0.356449	-0.000480	0.017419	-0.022348
358	1.817837	0.005000	3.059883	-8.868240	-1.884357	-0.534328	0.017910	-0.356667	-0.012142	0.025962	-0.020783
359	1.822837	0.005000	2.943604	-8.868240	-1.846093	-0.534328	0.017910	-0.356667	-0.014416	0.019059	-0.004383
360	1.827837	0.005000	2.943000	-8.906319	-1.921599	-0.534328	0.017910	-0.356667	-0.013325	0.019775	-0.015101
361	1.832837	0.005000	2.980071	-8.870409	-1.920591	-0.534328	0.017910	-0.356667	-0.004393	0.007790	-0.011270
362	1.837837	0.005000	3.093577	-8.832191	-1.998049	-0.534328	0.017910	-0.356667	-0.015934	0.015645	-0.017801
363	1.842837	0.005000	3.068218	-8.829000	-2.143204	-0.534328	0.017910	-0.356667	-0.006467	0.020796	-0.024614
364	1.847837	0.005000	2.957314	-8.760063	-2.010783	-0.534328	0.017910	-0.356667	-0.009157	0.009064	-0.005597
365	1.852837	0.005000	2.943000	-8.829000	-1.967377	-0.534328	0.017910	-0.356667	-0.006883	0.022493	-0.013462
366	1.857837	0.005000	3.099960	-8.829000	-1.902528	-0.534328	0.017910	-0.356667	-0.000388	0.013107	-0.009495
367	1.862837	0.005000	3.043555	-8.821642	-1.930118	-0.534328	0.017910	-0.356667	-0.003861	0.004001	-0.016592
368	1.867837	0.005000	3.068621	-8.805561	-2.079720	-0.534328	0.017910	-0.356667	-0.009814	0.018766	-0.018412
369	1.872837	0.005000	3.142748	-8.798683	-1.992317	-0.534328	0.017910	-0.356667	-0.011461	0.016333	-0.012138
370	1.877837	0.005000	3.030949	-8.780291	-1.892989	-0.534328	0.017910	-0.356667	-0.003912	0.019386	-0.020396
371	1.882837	0.005000	3.042456	-8.847264	-1.951512	-0.534328	0.017910	-0.356667	-0.009183	0.008357	-0.002118
372	1.887837	0.005000	3.128022	-8.924364	-1.855458	-0.534536	0.018118	-0.356667	-0.012710	0.021873	-0.024494
373	1.892837	0.005000	3.072788	-8.907480	-1.949932	-0.534762	0.018344	-0.356667	-0.008520	0.014319	-0.007900
374	1.897837	0.005000	3.099960	-8.815941	-1.948941	-0.534987	0.018570	-0.356667	-0.001880	0.019900	-0.007507
375	1.902837	0.005000	3.035113	-8.919455	-1.934735	-0.535213	0.018796	-0.356667	-0.011056	0.015533	-0.011402
376	1.907837	0.005000	3.109890	-8.912205	-1.976655	-0.535439	0.019022	-0.356667	-0.006743	0.005869	-0.006959
377	1.912837	0.005000	2.958677	-8.860355	-2.040480	-0.535665	0.019248	-0.356667	-0.005303	0.009009	-0.015909
378	1.917837	0.005000	2.982240	-8.829000	-1.892939	-0.535891	0.019474	-0.356667	-0.008410	0.006529	-0.004519
379	1.922837	0.005000	2.886518	-8.951476	-1.770556	-0.536117	0.019700	-0.356667	-0.012169	0.016027	-0.001977
380	1.927837	0.005000	3.003467	-8.883039	-1.823053	-0.536343	0.019926	-0.356667	-0.018518	0.018823	-0.009862
381	1.932837	0.005000	2.961822	-8.866644	-1.823862	-0.536569	0.020152	-0.356667	-0.008547	0.020458	-0.008859
382	1.937837	0.005000	3.020643	-8.828582	-1.844698	-0.536795	0.020377	-0.356667	-0.015528	0.019599	-0.010947
383	1.942837	0.005000	3.042111	-8.868240	-1.902129	-0.537021	0.020603	-0.356667	-0.014150	0.006743	-0.010292
384	1.947837	0.005000	3.000071	-8.932468	-1.958421	-0.537246	0.020829	-0.356667	-0.019106	0.009139	-0.004830
385	1.952837	0.005000	3.083152	-8.907480	-1.967623	-0.537552	0.020339	-0.356667	-0.015786	0.011137	-0.011700
386	1.957837	0.005000	2.982240	-8.851974	-1.844280	-0.537891	0.019548	-0.356667	-0.007511	0.017958	-0.016661
387	1.962837	0.005000	3.003975	-8.829000	-1.874767	-0.538229	0.018758	-0.356667	-0.019282	0.016920	-0.025800
388	1.967837	0.005000	3.046499	-8.854019	-1.976221	-0.538568	0.017968	-0.356667	-0.021394	0.014533	-0.019365
389	1.972837	0.005000	2.956362	-8.868240	-1.936122	-0.538907	0.017177	-0.356667	-0.011555	0.015949	-0.024146
390	1.977837	0.005000	3.008823	-8.894823	-1.936687	-0.539246	0.016387	-0.356667	-0.007528	0.008084	-0.013673
391	1.982837	0.005000	2.982240	-8.879874	-1.934394	-0.539584	0.015597	-0.356667	-0.006362	0.011757	-0.019936
392	1.987837	0.005000	3.021480	-8.817924	-1.956934	-0.539923	0.014806	-0.356667	-0.013072	0.015110	-0.031461
393	1.992837	0.005000	3.040604	-8.799818	-1.893578	-0.540262	0.014016	-0.356667	0.001034	0.010745	-0.006228
394	1.997837	0.005000	2.943000	-8.829000	-1.962000	-0.540600	0.013226	-0.356667	-0.013703	0.013142	-0.015032
395	2.002837	0.005000	2.959979	-8.837489	-1.922760	-0.540939	0.012435	-0.356667	-0.007934	0.006755	-0.010293
396	2.007837	0.005000	3.045786	-8.900013	-1.930227	-0.541278	0.011645	-0.356667	0.008800	0.013420	-0.010786
397	2.012837	0.005000	2.949925	-8.842849	-1.929685	-0.541617	0.010855	-0.356667	-0.000795	0.012519	-0.003558
398	2.017837	0.005000	2.982240	-8.801565	-1.971729	-0.541517	0.010667	-0.356728	-0.001647	0.012447	-0.009985
399	2.022837	0.005000	2.977300	-8.833940	-1.888460	-0.540952	0.011119	-0.356854	-0.003407	0.025848	-0.021442
400	2.027837	0.005000	2.986578	-8.890130	-1.896533	-0.540387	0.011571	-0.356980	-0.005338	0.012990	-0.015264
401	2.032837	0.005000	3.054090	-8.907480	-1.955370	-0.539823	0.012023	-0.357106	-0.006050	0.023636	-0.018538
402	2.037837	0.005000	2.986880	-8.829000	-1.996600	-0.539258	0.012474	-0.357232	-0.002779	0.014538	-0.013115
403	2.042837	0.005000	2.903760	-8.866505	-1.922760	-0.538693	0.012926	-0.357359	-0.011368	0.016725	-0.003674
404	2.047837	0.005000	2.905899	-8.830426	-1.689459	-0.538128	0.013378	-0.357485	-0.001754	0.010860	-0.006880
405	2.052837	0.005000	2.982534	-8.790643	-1.882931	-0.537564	0.013830	-0.357611	0.001432	0.006323	-0.006700
406	2.057837	0.005000	3.099108	-8.829000	-2.076312	-0.536999	0.014282	-0.357737	-0.017601	0.020159	-0.012314
407	2.062837	0.005000	2.907509	-8.864491	-1.926509	-0.536434	0.014733	-0.357863	-0.009908	0.016933	-0.010363
408	2.067837	0.005000	2.979343	-8.725765	-1.956206	-0.535869	0.015185	-0.357989	-0.007675	0.020998	-0.009432
409	2.072837	0.005000	2.982240	-8.861362	-1.955122	-0.535304	0.015637	-0.358115	-0.013555	0.007449	-0.014107
410	2.077837	0.005000	3.008095	-8.868240	-1.931683	-0.534740	0.016089	-0.358241	0.000262	0.012436	-0.001876
411	2.082837	0.005000	2.982240	-8.784694	-2.030348	-0.534328	0.016479	-0.358333	-0.010155	0.016164	-0.007317
412	2.087837	0.005000	2.943000	-8.835026	-1.934812	-0.534328	0.016705	-0.358333	-0.008661	0.012311	-0.010198
413	2.092837	0.005000	3.053671	-8.861191	-1.890569	-0.534328	0.016931	-0.358333	-0.011704	0.017753	-0.012889
414	2.097837	0.005000	2.958213	-8.829000	-1.962000	-0.534328	0.017157	-0.358333	-0.011197	0.006612	-0.006853
415	2.102837	0.005000	3.113314	-8.876869	-1.979258	-0.534328	0.017383	-0.358333	-0.010775	0.014458	-0.013049
416	2.107837	0.005000	3.090675	-8.898195	-1.962000	-0.534328	0.017609	-0.358333	-0.004093	0.006462	-0.011971
417	2.112837	0.005000	3.091300	-8.965573	-2.001240	-0.534328	0.017835	-0.358333	-0.001299	0.007007	-0.014819
418	2.117837	0.005000	2.993456	-8.896264	-2.023641	-0.534328	0.018060	-0.358333	-0.008287	0.030174	-0.014830
419	2.122837	0.005000	3.006047	-8.813567	-2.013144	-0.534328	0.018286	-0.358333	-0.005529	0.000803	-0.006799
420	2.127837	0.005000	2.995020	-8.803439	-1.962000	-0.534328	0.018512	-0.358333	-0.004783	0.016303	-0.018314
421	2.132837	0.005000	3.044748	-8.842803	-2.015043	-0.534328	0.018738	-0.358333	-0.014542	0.007941	-0.020254
422	2.137837	0.005000	3.021480	-8.878790	-1.844280	-0.534328	0.018964	-0.358333	-0.001283	0.009675	-0.002640
423	2.142837	0.005000	2.943000	-8.868240	-1.922760	-0.534328	0.019190	-0.358333	-0.002087	0.014209	-0.015861
424	2.147837	0.005000	2.998356	-8.914488	-1.883520	-0.534386	0.019364	-0.358326	-0.002482	0.008435	-0.004439
425	2.152837	0.005000	2.959948	-8.919083	-1.866572	-0.535402	0.018687	-0.358200	-0.012337	0.019065	-0.010751
426	2.157837	0.005000	2.982240	-8.825700	-1.883520	-0.536418	0.018010	-0.358074	-0.012141	0.022041	-0.013165
427	2.162837	0.005000	3.041978	-8.888738	-1.922760	-0.537434	0.017332	-0.357948	-0.006599	0.018073	-0.017092
428	2.167837	0.005000	2.962535	-8.848364	-1.883690	-0.538450	0.016655	-0.357822	-0.001074	0.010816	-0.020498
429	2.172837	0.005000	2.943000	-8.825251	-1.900328	-0.539466	0.015978	-0.357696	-0.005505	0.016162	-0.016892
430	2.177837	0.005000	3.060720	-8.714762	-2.022601	-0.540482	0.015300	-0.357570	-0.009838	0.018013	-0.022062
431	2.182837	0.005000	2.999358	-8.784756	-1.944882	-0.541498	0.014623	-0.357444	0.003646	0.010559	-0.011633
432	2.187837	0.005000	2.982240	-8.812904	-1.938856	-0.542515	0.013945	-0.357318	-0.011354	0.020834	-0.028441
433	2.192837	0.005000	2.958260	-8.829000	-1.946740	-0.543531	0.013268	-0.357192	-0.005253	0.015974	-0.026604
434	2.197837	0.005000	3.021480	-8.868240	-1.829749	-0.544547	0.012591	-0.357066	-0.004170	0.010901	-0.010118
435	2.202837	0.005000	3.023252	-8.854569	-1.885292	-0.545563	0.011913	-0.356940	-0.010079	0.014198	-0.025892
436	2.207837	0.005000	3.073671	-8.763471	-1.909809	-0.546579	0.011236	-0.356814	-0.007735	0.011603	-0.009468
437	2.212837	0.005000	3.123817	-8.829000	-2.004695	-0.547595	0.010559	-0.356688	-0.000025	0.012940	-0.019466
438	2.217837	0.005000	3.060720	-8.789760	-1.922760	-0.547289	0.011015	-0.356667	-0.003949	0.000683	-0.015024
439	2.222837	0.005000	3.031844	-8.800124	-2.048629	-0.546724	0.011693	-0.356667	0.000257	0.015757	-0.008462
440	2.227837	0.005000	3.060720	-8.877581	-1.894736	-0.546159	0.012370	-0.356667	-0.004124	0.016473	-0.017212
441	2.232837	0.005000	2.973818	-8.812156	-1.830306	-0.545594	0.013048	-0.356667	-0.000887	0.010553	-0.008971
442	2.237837	0.005000	3.037033	-8.758297	-1.852057	-0.545030	0.013726	-0.356667	0.000111	0.020756	-0.010996
443	2.242837	0.005000	2.975486	-8.835754	-1.897029	-0.544465	0.014403	-0.356667	0.000254	0.006476	-0.020812
444	2.247837	0.005000	2.976437	-8.868240	-1.889323	-0.543900	0.015081	-0.356667	-0.003777	0.023739	-0.009613
445	2.252837	0.005000	2.977050	-8.794950	-1.967190	-0.543336	0.015759	-0.356667	-0.005655	0.017884	-0.015121
446	2.257837	0.005000	3.104127	-8.973458	-1.922760	-0.542771	0.016436	-0.356667	0.003182	0.010158	-0.007665
447	2.262837	0.005000	3.136055	-8.835290	-1.853714	-0.542206	0.017114	-0.356667	-0.016013	0.019981	-0.011647
448	2.267837	0.005000	3.055546	-8.910067	-2.001240	-0.541642	0.017792	-0.356667	-0.008273	0.009747	-0.017383
449	2.272837	0.005000	3.096831	-8.905915	-1.881955	-0.541077	0.018470	-0.356667	-0.013381	0.017962	-0.023829
450	2.277837	0.005000	3.022578	-8.868240	-1.808334	-0.540512	0.019147	-0.356667	-0.004803	0.012257	-0.017581
451	2.282837	0.005000	3.060720	-8.789760	-2.079720	-0.540158	0.019403	-0.356588	-0.000539	0.008290	-0.010618
452	2.287837	0.005000	3.058675	-8.865173	-1.922760	-0.539932	0.019403	-0.356462	-0.010535	0.017705	-0.020097
453	2.292837	0.005000	2.905805	-8.868240	-2.001240	-0.539706	0.019403	-0.356336	-0.014457	0.009367	-0.010283
454	2.297837	0.005000	2.940413	-8.868240	-1.959413	-0.539480	0.019403	-0.356210	-0.018632	0.016954	-0.012069
455	2.302837	0.005000	3.060720	-8.946720	-1.962000	-0.539254	0.019403	-0.356084	-0.015293	0.016694	-0.017242
456	2.307837	0.005000	2.991504	-8.803656	-1.957368	-0.539028	0.019403	-0.355958	-0.016278	0.005792	-0.016282
457	2.312837	0.005000	3.021480	-8.818652	-1.972348	-0.538802	0.019403	-0.355832	-0.014113	0.013078	-0.022617
458	2.317837	0.005000	2.870717	-8.874437	-1.889717	-0.538577	0.019403	-0.355705	-0.009317	0.011071	-0.012028
459	2.322837	0.005000	2.975021	-8.900261	-2.050844	-0.538351	0.019403	-0.355579	-0.008319	0.012259	-0.020123
460	2.327837	0.005000	2.966687	-8.844553	-1.977553	-0.538125	0.019403	-0.355453	-0.012964	0.011165	-0.011605
461	2.332837	0.005000	3.012681	-8.820201	-1.931559	-0.537899	0.019403	-0.355327	-0.012975	0.016934	-0.012950
462	2.337837	0.005000	3.041100	-8.789760	-1.952190	-0.537673	0.019403	-0.355201	-0.010994	0.011111	-0.015847
463	2.342837	0.005000	3.000504	-8.896992	-1.972488	-0.537447	0.019403	-0.355075	-0.017496	0.017231	-0.010997
464	2.347837	0.005000	3.021480	-8.879626	-1.906293	-0.537267	0.019357	-0.354948	-0.020714	0.019786	-0.017640
465	2.352837	0.005000	2.969831	-8.826986	-1.869097	-0.537154	0.019244	-0.354822	-0.011969	0.003691	-0.007226
466	2.357837	0.005000	3.008529	-8.802711	-1.830942	-0.537041	0.019131	-0.354696	-0.007792	0.017611	-0.014889
467	2.362837	0.005000	2.993533	-8.803733	-1.925440	-0.536928	0.019018	-0.354570	-0.006000	0.013848	-0.010560
468	2.367837	0.005000	3.051472	-8.985960	-1.962000	-0.536815	0.018905	-0.354444	-0.001742	0.016176	-0.004651
469	2.372837	0.005000	3.107334	-8.876404	-1.930924	-0.536702	0.018792	-0.354318	-0.009910	0.020034	-0.012759
470	2.377837	0.005000	2.998800	-8.839441	-1.978560	-0.536589	0.018679	-0.354192	-0.012508	0.019224	-0.012788
471	2.382837	0.005000	2.960323	-8.868240	-1.866197	-0.536477	0.018566	-0.354065	-0.012822	0.015840	-0.013450
472	2.387837	0.005000	3.060720	-8.789760	-1.847239	-0.536364	0.018453	-0.353939	-0.006782	0.015222	-0.017066
473	2.392837	0.005000	3.079875	-8.828070	-1.902675	-0.536251	0.018340	-0.353813	-0.015688	0.014268	-0.012586
474	2.397837	0.005000	2.982240	-8.848364	-2.020945	-0.536138	0.018227	-0.353687	-0.006178	0.008298	-0.013087
475	2.402837	0.005000	2.984455	-8.891183	-2.021968	-0.536025	0.018114	-0.353561	-0.006593	0.015456	-0.014722
476	2.407837	0.005000	3.139200	-8.903220	-1.983750	-0.535912	0.018001	-0.353435	-0.013272	0.012105	-0.016234
477	2.412837	0.005000	3.184337	-8.896705	-1.978672	-0.535931	0.017756	-0.353137	-0.005736	0.007122	-0.006248
478	2.417837	0.005000	3.060720	-8.859704	-1.985315	-0.536496	0.016966	-0.352128	-0.008000	0.019131	-0.013052
479	2.422837	0.005000	3.021480	-8.912949	-1.971434	-0.537060	0.016175	-0.351119	-0.000516	0.014477	-0.002391
480	2.427837	0.005000	3.124839	-8.878759	-1.937121	-0.537625	0.015385	-0.350110	-0.010125	0.014451	-0.006300
481	2.432837	0.005000	3.021480	-8.802324	-2.053818	-0.538190	0.014594	-0.349101	-0.012899	0.021224	-0.018930
482	2.437837	0.005000	3.021480	-8.762836	-1.974316	-0.538755	0.013803	-0.348092	-0.008859	0.009728	-0.008674
483	2.442837	0.005000	3.009722	-8.813276	-2.063996	-0.539319	0.013013	-0.347083	-0.007758	0.022848	-0.010123
484	2.447837	0.005000	2.943000	-8.907480	-1.922760	-0.539884	0.012222	-0.346074	-0.005422	0.011572	-0.001763
485	2.452837	0.005000	2.943000	-8.917325	-2.030635	-0.540449	0.011432	-0.345065	-0.004565	0.013463	-0.012121
486	2.457837	0.005000	2.903760	-8.928378	-2.022138	-0.541014	0.010641	-0.344056	-0.010009	0.009964	0.003570
487	2.462837	0.005000	3.005183	-9.008903	-1.970149	-0.541579	0.009850	-0.343047	-0.010711	0.013522	-0.000175
488	2.467837	0.005000	2.964643	-8.985960	-1.922760	-0.542143	0.009060	-0.342038	-0.012436	0.013934	-0.023708
489	2.472837	0.005000	3.086792	-8.953041	-1.994656	-0.542708	0.008269	-0.341029	-0.011169	0.009333	-0.010790
490	2.477837	0.005000	3.128077	-8.834561	-1.889081	-0.543273	0.007479	-0.340020	-0.008937	0.019128	-0.018760
491	2.482837	0.005000	2.977221	-8.897442	-1.917741	-0.543948	0.007242	-0.339382	-0.011813	0.008802	-0.009985
492	2.487837	0.005000	2.978243	-8.872237	-2.067730	-0.544626	0.007016	-0.338751	-0.006958	0.017726	-0.007959
493	2.492837	0.005000	3.027500	-8.898450	-1.922760	-0.545304	0.006790	-0.338121	-0.013595	0.016310	-0.015250
494	2.497837	0.005000	3.058303	-8.799427	-1.883520	-0.545981	0.006564	-0.337490	-0.008121	0.018410	-0.005898
495	2.502837	0.005000	2.983634	-8.791154	-1.884914	-0.546659	0.006338	-0.336859	-0.021380	0.020840	-0.013901
496	2.507837	0.005000	3.098256	-8.867388	-1.883520	-0.547337	0.006112	-0.336229	-0.014683	0.019101	-0.018922
497	2.512837	0.005000	3.060550	-8.789930	-1.961659	-0.548014	0.005886	-0.335598	-0.005363	0.020265	-0.018978
498	2.517837	0.005000	3.059527	-8.714859	-1.884713	-0.548692	0.005660	-0.334968	-0.015450	0.013007	-0.020313
499	2.522837	0.005000	3.064190	-8.864770	-1.958530	-0.549370	0.005434	-0.334337	-0.010036	0.014749	-0.016318
500	2.527837	0.005000	3.026995	-8.829000	-1.962000	-0.550047	0.005209	-0.333706	-0.012297	0.012166	-0.021630
501	2.532837	0.005000	3.195000	-8.864460	-1.883520	-0.550725	0.004983	-0.333076	-0.013609	0.011297	-0.015782
502	2.537837	0.005000	3.030124	-8.837644	-2.036158	-0.551403	0.004757	-0.332445	-0.014966	0.018327	-0.013170
503	2.542837	0.005000	3.026825	-8.789760	-1.967345	-0.552081	0.004531	-0.331814	-0.011617	0.007862	-0.014103
504	2.547837	0.005000	3.008746	-8.802494	-2.040480	-0.551806	0.004910	-0.332343	-0.009085	0.024030	-0.011398
505	2.552837	0.005000	3.099960	-8.789760	-1.897369	-0.551242	0.005475	-0.333226	-0.012910	0.021494	-0.019445
506	2.557837	0.005000	3.099960	-8.719322	-1.852322	-0.550677	0.006039	-0.334108	-0.001387	0.006670	-0.007553
507	2.562837	0.005000	3.030450	-8.759490	-1.883520	-0.550113	0.006604	-0.334990	-0.014548	0.023054	-0.024133
508	2.567837	0.005000	3.011503	-8.877550	-1.962000	-0.549548	0.007168	-0.335873	-0.012528	0.002461	-0.017122
509	2.572837	0.005000	3.071254	-8.829000	-1.990706	-0.548984	0.007733	-0.336755	-0.015326	0.012077	-0.011094
510	2.577837	0.005000	3.099960	-8.868240	-1.911203	-0.548419	0.008297	-0.337638	-0.009545	0.014010	-0.024681
511	2.582837	0.005000	3.021480	-8.909974	-1.817289	-0.547855	0.008862	-0.338520	-0.009551	0.013813	-0.011728
512	2.587837	0.005000	3.060720	-8.933723	-1.922760	-0.547290	0.009426	-0.339403	-0.010199	0.024608	-0.018198
513	2.592837	0.005000	3.071672	-8.879192	-1.844280	-0.546726	0.009990	-0.340285	-0.015671	0.006480	-0.008357
514	2.597837	0.005000	2.933132	-8.819132	-1.912892	-0.546161	0.010555	-0.341167	-0.007191	0.015291	-0.011102
515	2.602837	0.005000	3.076366	-8.836823	-1.773685	-0.545597	0.011119	-0.342050	-0.012956	0.015616	-0.023990
516	2.607837	0.005000	2.998971	-8.924211	-1.855837	-0.545032	0.011684	-0.342932	-0.017651	0.021572	-0.028838
517	2.612837	0.005000	3.047473	-8.868240	-1.944504	-0.544838	0.012002	-0.343815	-0.017404	0.018508	-0.019676
518	2.617837	0.005000	3.039791	-8.889169	-2.040480	-0.544951	0.012115	-0.344698	-0.010132	0.015835	-0.004182
519	2.622837	0.005000	3.040217	-8.926806	-1.942086	-0.545064	0.012228	-0.345581	-0.015526	0.021212	-0.017589
520	2.627837	0.005000	3.018599	-8.887140	-1.903860	-0.545177	0.012341	-0.346464	-0.015643	0.004932	-0.015526
521	2.632837	0.005000	3.042378	-8.946720	-1.943658	-0.545290	0.012454	-0.347347	-0.011821	0.018881	-0.015779
522	2.637837	0.005000	3.060720	-8.951321	-1.809641	-0.545403	0.012567	-0.348230	0.001125	0.019451	-0.017401
523	2.642837	0.005000	3.005183	-8.907480	-1.798394	-0.545516	0.012680	-0.349113	-0.005284	0.015766	-0.013948
524	2.647837	0.005000	2.982240	-8.891725	-1.844280	-0.545629	0.012793	-0.349995	-0.011755	0.021965	-0.024155
525	2.652837	0.005000	2.957732	-8.868240	-1.908028	-0.545742	0.012906	-0.350878	-0.006924	0.010378	-0.008566
526	2.657837	0.005000	3.033300	-8.868240	-1.922760	-0.545855	0.013019	-0.351761	-0.011590	0.018453	-0.012433
527	2.662837	0.005000	3.034384	-8.920648	-1.948832	-0.545968	0.013132	-0.352644	-0.009870	0.011171	-0.017470
528	2.667837	0.005000	2.967291	-8.829000	-1.989095	-0.546081	0.013245	-0.353527	-0.000439	0.010958	-0.007158
529	2.672837	0.005000	3.004486	-8.845994	-1.984246	-0.546194	0.013358	-0.354410	-0.005191	0.016347	-0.022828
530	2.677837	0.005000	2.982240	-8.839565	-2.019350	-0.546007	0.013545	-0.355126	-0.007585	0.015079	-0.007469
531	2.682837	0.005000	2.943000	-8.858682	-1.962000	-0.545216	0.013884	-0.355504	0.004291	0.014204	-0.007037
532	2.687837	0.005000	2.934362	-8.798398	-1.962000	-0.544425	0.014223	-0.355882	0.001435	0.017191	-0.021363
533	2.692837	0.005000	3.021480	-9.017222	-1.922760	-0.543635	0.014562	-0.356261	-0.005510	0.018021	-0.015026
534	2.697837	0.005000	2.982240	-8.972049	-1.975911	-0.542844	0.014901	-0.356639	-0.001556	0.014675	-0.019726
535	2.702837	0.005000	3.127186	-8.777746	-2.001240	-0.542053	0.015239	-0.357017	-0.005738	0.018362	-0.014799
536	2.707837	0.005000	2.971458	-8.823609	-1.917369	-0.541263	0.015578	-0.357396	-0.012296	0.024080	-0.022481
537	2.712837	0.005000	3.051983	-8.824631	-2.005609	-0.540472	0.015917	-0.357774	-0.001385	0.018881	-0.010402
538	2.717837	0.005000	2.953038	-8.757212	-1.972038	-0.539681	0.016256	-0.358153	-0.010208	0.024727	-0.019024
539	2.722837	0.005000	3.052308	-8.907480	-1.925564	-0.538891	0.016595	-0.358531	-0.000730	0.008735	-0.020296
540	2.727837	0.005000	3.021480	-8.793323	-1.920978	-0.538100	0.016933	-0.358909	-0.000393	0.019900	-0.005663
541	2.732837	0.005000	2.982240	-8.907480	-1.962000	-0.537309	0.017272	-0.359288	-0.009618	0.025037	-0.017856
542	2.737837	0.005000	3.021263	-8.829434	-1.962217	-0.536519	0.017611	-0.359666	-0.003593	0.014993	-0.004150
543	2.742837	0.005000	2.982240	-8.869046	-1.847502	-0.535821	0.017910	-0.359970	-0.012447	0.014586	-0.013061
544	2.747837	0.005000	3.015996	-8.905652	-1.806868	-0.535821	0.017910	-0.359718	-0.008191	0.008994	-0.012310
545	2.752837	0.005000	3.021480	-8.831414	-1.954757	-0.535821	0.017910	-0.359466	-0.001570	0.010331	-0.002891
546	2.757837	0.005000	3.064128	-8.864832	-1.844280	-0.535821	0.017910	-0.359214	-0.008477	0.005869	-0.005070
547	2.762837	0.005000	3.047428	-8.868240	-1.987948	-0.535821	0.017910	-0.358962	-0.008420	0.016668	0.000743
548	2.767837	0.005000	3.060720	-8.677074	-1.927794	-0.535821	0.017910	-0.358710	-0.019163	0.015872	-0.010852
549	2.772837	0.005000	3.015485	-8.850254	-1.904774	-0.535821	0.017910	-0.358458	-0.027217	0.005091	-0.011131
550	2.777837	0.005000	2.989258	-8.810813	-1.851298	-0.535821	0.017910	-0.358206	-0.024129	0.011614	-0.018919
551	2.782837	0.005000	3.013920	-8.922600	-1.891080	-0.535821	0.017910	-0.357953	-0.025937	0.003415	-0.008730
552	2.787837	0.005000	3.038645	-8.806925	-1.900685	-0.535821	0.017910	-0.357701	-0.023882	0.010377	-0.002344
553	2.792837	0.005000	3.001449	-8.877845	-1.863489	-0.535821	0.017910	-0.357449	-0.032260	0.017880	-0.017633
554	2.797837	0.005000	3.001186	-8.849294	-1.932907	-0.535821	0.017910	-0.357197	-0.033812	0.008600	-0.002177
555	2.802837	0.005000	3.088791	-8.952158	-1.894689	-0.535821	0.017910	-0.356945	-0.049737	0.014907	-0.024044
556	2.807837	0.005000	3.124344	-8.816808	-1.856472	-0.535821	0.017910	-0.356693	-0.045572	0.016149	-0.012603
557	2.812837	0.005000	3.164699	-8.854499	-1.870770	-0.535821	0.018214	-0.356101	-0.039336	0.014216	-0.005119
558	2.817837	0.005000	3.046948	-8.699584	-1.920684	-0.535821	0.018553	-0.355470	-0.034476	0.018001	-0.014986
559	2.822837	0.005000	3.070977	-8.682297	-2.005475	-0.535821	0.018892	-0.354840	-0.012786	0.014106	-0.010076
560	2.827837	0.005000	3.091393	-8.774423	-2.049047	-0.535821	0.019231	-0.354209	-0.004435	0.016561	-0.014183
561	2.832837	0.005000	3.031317	-8.829000	-2.086242	-0.535821	0.019570	-0.353578	-0.003412	0.009215	-0.013485
562	2.837837	0.005000	2.982240	-8.868240	-2.074701	-0.535821	0.019909	-0.352948	-0.005556	0.013251	-0.012201
563	2.842837	0.005000	3.024873	-8.750520	-1.979924	-0.535821	0.020247	-0.352317	-0.016963	0.008475	-0.016401
564	2.847837	0.005000	3.002534	-8.730226	-1.980946	-0.535821	0.020586	-0.351686	-0.024805	0.009193	-0.016206
565	2.852837	0.005000	2.943000	-8.691528	-1.981488	-0.535821	0.020925	-0.351055	-0.034434	0.007004	-0.013949
566	2.857837	0.005000	2.984022	-8.730009	-1.980729	-0.535821	0.021264	-0.350425	-0.022937	0.005961	0.004295
567	2.862837	0.005000	3.043013	-8.825174	-2.001240	-0.535821	0.021603	-0.349794	-0.021218	0.018138	-0.010551
568	2.867837	0.005000	2.943000	-8.873711	-1.962000	-0.535821	0.021942	-0.349163	-0.011885	0.000634	-0.008506
569	2.872837	0.005000	3.005353	-8.829000	-2.001240	-0.535821	0.022281	-0.348533	-0.007209	0.009345	-0.010865
570	2.877837	0.005000	2.943000	-8.765624	-1.977104	-0.535744	0.022311	-0.348850	-0.015854	0.009129	-0.016295
571	2.882837	0.005000	2.953708	-8.804026	-2.001240	-0.535631	0.022198	-0.349606	-0.011892	0.009799	0.003342
572	2.887837	0.005000	2.917300	-8.908859	-1.910599	-0.535518	0.022085	-0.350363	-0.015860	0.019627	-0.015515
573	2.892837	0.005000	3.033997	-8.855723	-1.962000	-0.535405	0.021972	-0.351119	-0.009667	0.012569	-0.007915
574	2.897837	0.005000	3.154490	-8.695990	-1.926075	-0.535292	0.021859	-0.351876	-0.012719	0.009282	-0.005708
575	2.902837	0.005000	3.071672	-8.711280	-1.837897	-0.535179	0.021747	-0.352632	-0.013597	0.018735	-0.017988
576	2.907837	0.005000	2.992170	-8.759970	-1.971930	-0.535066	0.021634	-0.353388	-0.002946	0.017262	-0.010406
577	2.912837	0.005000	2.973222	-8.777574	-1.998072	-0.534953	0.021521	-0.354145	-0.012391	0.019722	-0.007113
578	2.917837	0.005000	2.982240	-8.890749	-1.984509	-0.534840	0.021408	-0.354901	-0.014644	0.015443	-0.005972
579	2.922837	0.005000	2.950343	-8.679383	-1.979211	-0.534727	0.021295	-0.355658	-0.006879	0.019062	-0.007640
580	2.927837	0.005000	3.034273	-8.829000	-1.903571	-0.534614	0.021182	-0.356414	-0.001325	0.014966	-0.014995
581	2.932837	0.005000	3.054957	-8.756283	-1.928523	-0.534502	0.021069	-0.357171	-0.004920	0.022954	-0.023951
582	2.937837	0.005000	3.055978	-8.824258	-1.971485	-0.534389	0.020957	-0.357927	-0.006970	0.016820	-0.017572
583	2.942837	0.005000	3.013924	-8.750520	-1.844280	-0.534223	0.020844	-0.358391	-0.003508	0.009194	-0.009018
584	2.947837	0.005000	2.985416	-8.684743	-1.883520	-0.533997	0.020731	-0.358518	-0.006144	0.022512	-0.014706
585	2.952837	0.005000	2.988700	-8.872547	-1.916300	-0.533772	0.020618	-0.358644	-0.000581	0.012329	-0.007354
586	2.957837	0.005000	3.057285	-8.945575	-1.885810	-0.533546	0.020505	-0.358770	-0.001159	0.012197	-0.007248
587	2.962837	0.005000	3.100549	-8.791526	-1.962000	-0.533320	0.020392	-0.358896	-0.000167	0.016638	-0.013500
588	2.967837	0.005000	3.100394	-8.752255	-2.000806	-0.533094	0.020279	-0.359022	0.003356	0.012944	-0.005042
589	2.972837	0.005000	3.021480	-8.750520	-1.959088	-0.532868	0.020166	-0.359148	-0.012842	0.017883	-0.019695
590	2.977837	0.005000	2.980242	-8.789760	-2.001240	-0.532642	0.020053	-0.359274	0.001888	0.006270	-0.006646
591	2.982837	0.005000	2.988282	-8.822958	-2.040480	-0.532416	0.019940	-0.359401	-0.000035	0.017121	-0.013744
592	2.987837	0.005000	2.911847	-8.684170	-1.966043	-0.532190	0.019827	-0.359527	-0.009784	0.022375	-0.007585
593	2.992837	0.005000	2.938399	-8.824399	-1.966601	-0.531964	0.019714	-0.359653	-0.005613	0.014681	-0.009160
594	2.997837	0.005000	3.015870	-8.789760	-1.950780	-0.531739	0.019601	-0.359779	-0.004827	0.014050	-0.012833
595	3.002837	0.005000	2.994959	-8.835630	-1.948739	-0.531513	0.019488	-0.359905	-0.008804	0.023306	-0.013021
596	3.007837	0.005000	2.974966	-8.725828	-1.979417	-0.531399	0.019375	-0.359969	-0.007641	0.019194	-0.023021
597	3.012837	0.005000	3.013269	-8.820789	-1.945579	-0.531625	0.019262	-0.359843	-0.010700	0.009177	-0.019548
598	3.017837	0.005000	3.060720	-8.798993	-1.962000	-0.531851	0.019149	-0.359716	-0.005418	0.015907	-0.020690
599	3.022837	0.005000	2.972465	-8.848690	-1.893295	-0.532077	0.019036	-0.359590	-0.004220	0.013335	-0.010113
600	3.027837	0.005000	3.156845	-8.929075	-1.872722	-0.532302	0.018923	-0.359464	-0.007552	0.007155	0.007763
601	3.032837	0.005000	3.045120	-8.868240	-1.910940	-0.532528	0.018810	-0.359338	-0.004821	0.015364	-0.017893
602	3.037837	0.005000	3.099960	-8.880602	-1.910398	-0.532754	0.018697	-0.359212	0.011394	0.004795	-0.006599
603	3.042837	0.005000	2.982240	-8.880711	-1.897819	-0.532980	0.018584	-0.359086	0.000371	0.017174	-0.015887
604	3.047837	0.005000	2.985328	-8.879261	-1.872499	-0.533206	0.018471	-0.358960	-0.005537	0.016077	-0.011234
605	3.052837	0.005000	3.006525	-8.858910	-1.932090	-0.533431	0.018358	-0.358834	0.001721	0.008540	-0.003916
606	3.057837	0.005000	2.958972	-8.844972	-1.906788	-0.533657	0.018246	-0.358708	-0.001785	0.019013	-0.019711
607	3.062837	0.005000	3.043992	-8.862455	-1.894463	-0.533883	0.018133	-0.358582	-0.002792	0.018500	-0.019743
608	3.067837	0.005000	3.021480	-8.868240	-1.844280	-0.534109	0.018020	-0.358455	-0.004066	0.015673	-0.017874
609	3.072837	0.005000	3.021480	-8.888906	-1.765800	-0.534341	0.017890	-0.358329	-0.009741	0.014943	-0.016988
610	3.077837	0.005000	3.001357	-8.829000	-1.903643	-0.534793	0.017213	-0.358203	-0.004513	0.017172	-0.012548
611	3.082837	0.005000	2.962101	-8.886303	-1.940823	-0.535245	0.016535	-0.358077	0.000656	0.016396	-0.014961
612	3.087837	0.005000	2.924697	-8.891812	-2.001240	-0.535697	0.015857	-0.357951	0.000676	0.014165	-0.007987
613	3.092837	0.005000	2.960536	-8.885776	-1.944464	-0.536148	0.015180	-0.357825	-0.004563	0.016831	-0.027243
614	3.097837	0.005000	3.066932	-8.829000	-1.860794	-0.536600	0.014502	-0.357699	-0.009503	0.007442	-0.009385
615	3.102837	0.005000	3.021480	-8.844492	-1.946508	-0.537052	0.013824	-0.357573	-0.016591	0.013283	-0.014506
616	3.107837	0.005000	3.006546	-8.877612	-1.805040	-0.537504	0.013147	-0.357447	-0.015272	0.005482	-0.011897
617	3.112837	0.005000	2.920227	-8.840386	-1.830353	-0.537956	0.012469	-0.357321	-0.013958	0.002736	-0.010761
618	3.117837	0.005000	3.008576	-8.959624	-1.870089	-0.538408	0.011791	-0.357195	-0.013482	0.010663	-0.023223
619	3.122837	0.005000	2.927809	-8.868240	-1.962000	-0.538860	0.011114	-0.357069	-0.007134	0.005607	-0.008299
620	3.127837	0.005000	2.998831	-8.868240	-1.906169	-0.539312	0.010436	-0.356943	-0.010763	0.009193	-0.014268
621	3.132837	0.005000	2.971938	-8.926116	-1.912458	-0.539763	0.009758	-0.356816	-0.011461	0.006847	-0.019725
622	3.137837	0.005000	2.962519	-8.946720	-2.020961	-0.540215	0.009081	-0.356690	-0.005690	0.015044	-0.010179
623	3.142837	0.005000	3.021480	-8.977223	-1.970737	-0.540391	0.009507	-0.356667	-0.020075	0.014046	-0.025828
624	3.147837	0.005000	3.092150	-8.891859	-1.899329	-0.540504	0.010184	-0.356667	-0.009602	0.012735	-0.011740
625	3.152837	0.005000	3.039202	-8.757693	-1.840903	-0.540617	0.010862	-0.356667	-0.010329	0.002208	-0.013432
626	3.157837	0.005000	3.042270	-8.789760	-2.001240	-0.540730	0.011539	-0.356667	-0.012037	0.007901	0.002552
627	3.162837	0.005000	2.987429	-8.800138	-1.956811	-0.540842	0.012216	-0.356667	-0.012213	0.018569	-0.012886
628	3.167837	0.005000	3.047005	-8.824428	-1.922760	-0.540955	0.012894	-0.356667	-0.006645	0.006184	-0.014706
629	3.172837	0.005000	2.864520	-8.796886	-1.815729	-0.541068	0.013571	-0.356667	-0.012277	0.015586	-0.007596
630	3.177837	0.005000	2.825280	-8.979949	-1.922760	-0.541181	0.014248	-0.356667	-0.015884	0.025841	-0.022668
631	3.182837	0.005000	2.944983	-8.905497	-1.918794	-0.541294	0.014926	-0.356667	-0.010758	0.008726	-0.007368
632	3.187837	0.005000	3.058775	-8.830945	-1.920815	-0.541407	0.015603	-0.356667	-0.013817	0.021819	-0.026169
633	3.192837	0.005000	2.903760	-8.945883	-1.805040	-0.541520	0.016281	-0.356667	-0.019545	0.002943	-0.013580
634	3.197837	0.005000	2.903760	-8.906876	-1.843676	-0.541632	0.016958	-0.356667	-0.015123	0.011655	-0.012150
635	3.202837	0.005000	2.906081	-8.868240	-1.768121	-0.541745	0.017635	-0.356667	-0.013772	0.015557	-0.011914
636	3.207837	0.005000	2.864520	-8.866071	-1.920591	-0.541657	0.017776	-0.356742	0.005850	0.020936	0.002456
637	3.212837	0.005000	2.972666	-8.756903	-1.726560	-0.541431	0.017550	-0.356868	-0.011254	0.020454	-0.012471
638	3.217837	0.005000	3.170852	-8.739138	-1.993652	-0.541205	0.017324	-0.356994	-0.001108	0.009627	-0.014679
639	3.222837	0.005000	3.099960	-8.902709	-2.114189	-0.540979	0.017098	-0.357120	-0.006016	0.015947	-0.017816
640	3.227837	0.005000	2.982240	-8.935163	-1.973557	-0.540753	0.016872	-0.357246	-0.009233	0.016779	-0.010767
641	3.232837	0.005000	2.994912	-8.887248	-1.935432	-0.540527	0.016646	-0.357372	-0.012493	0.019942	-0.014309
642	3.237837	0.005000	3.043555	-8.868240	-2.011046	-0.540301	0.016420	-0.357498	-0.014544	0.020527	-0.023904
643	3.242837	0.005000	2.982240	-8.790513	-2.009239	-0.540075	0.016194	-0.357624	0.000415	0.012330	-0.013635
644	3.247837	0.005000	3.012557	-8.780837	-1.862126	-0.539850	0.015969	-0.357751	-0.017033	0.023156	-0.015648
645	3.252837	0.005000	3.031426	-8.888131	-1.962000	-0.539624	0.015743	-0.357877	-0.016540	0.015919	-0.018401
646	3.257837	0.005000	3.015144	-8.772456	-1.972968	-0.539398	0.015517	-0.358003	-0.009471	0.020954	-0.010391
647	3.262837	0.005000	2.998460	-8.695060	-2.001240	-0.539172	0.015291	-0.358129	-0.010917	0.012857	-0.019325
648	3.267837	0.005000	3.021480	-8.869882	-1.896053	-0.538946	0.015065	-0.358255	-0.003265	0.009611	-0.010962
649	3.272837	0.005000	3.008734	-8.868240	-1.922760	-0.538677	0.014925	-0.358285	-0.012885	0.019237	-0.015136
650	3.277837	0.005000	2.957113	-8.893367	-1.933774	-0.538338	0.014925	-0.358159	-0.009465	0.011959	-0.005553
651	3.282837	0.005000	2.982240	-8.829000	-1.995103	-0.538000	0.014925	-0.358033	-0.008100	0.016501	-0.008579
652	3.287837	0.005000	2.966563	-8.836885	-1.914875	-0.537661	0.014925	-0.357907	-0.006553	0.009652	-0.016588
653	3.292837	0.005000	3.044020	-8.829000	-1.984540	-0.537322	0.014925	-0.357781	-0.010890	0.018200	-0.022612
654	3.297837	0.005000	3.060720	-8.785431	-1.914103	-0.536984	0.014925	-0.357655	0.001289	0.018833	-0.014393
655	3.302837	0.005000	3.000504	-8.789760	-1.807751	-0.536645	0.014925	-0.357529	-0.000033	0.011552	0.000824
656	3.307837	0.005000	3.060054	-8.750520	-1.943379	-0.536306	0.014925	-0.357403	-0.016127	0.015996	-0.014691
657	3.312837	0.005000	3.078976	-8.868240	-1.981165	-0.535967	0.014925	-0.357277	-0.007942	0.010640	-0.017105
658	3.317837	0.005000	3.104886	-8.868240	-2.019628	-0.535629	0.014925	-0.357151	-0.002512	0.015703	-0.009487
659	3.322837	0.005000	3.038846	-8.833508	-1.962000	-0.535290	0.014925	-0.357025	-0.007509	0.021846	-0.023912
660	3.327837	0.005000	3.027641	-8.855918	-2.017779	-0.534951	0.014925	-0.356899	0.002456	0.008712	-0.005272
661	3.332837	0.005000	2.989908	-8.805546	-2.056266	-0.534612	0.014925	-0.356773	-0.009537	0.019988	-0.016225
662	3.337837	0.005000	2.943000	-8.868240	-2.035430	-0.534364	0.014961	-0.356707	-0.007616	0.012789	-0.006528
663	3.342837	0.005000	3.010682	-8.829000	-2.026259	-0.534590	0.015187	-0.356960	-0.002856	0.018819	-0.008994
664	3.347837	0.005000	3.086761	-8.842199	-1.962000	-0.534816	0.015413	-0.357212	-0.006093	0.012438	-0.016068
665	3.352837	0.005000	2.955176	-8.816824	-1.989064	-0.535042	0.015639	-0.357464	-0.008131	0.021702	-0.018854
666	3.357837	0.005000	2.915052	-8.840292	-2.057136	-0.535268	0.015865	-0.357716	-0.014496	0.017621	-0.021855
667	3.362837	0.005000	3.021480	-8.857628	-1.962000	-0.535494	0.016091	-0.357969	-0.013069	0.013744	-0.010613
668	3.367837	0.005000	2.982240	-8.897772	-1.991532	-0.535720	0.016317	-0.358221	-0.006457	0.027455	-0.019810
669	3.372837	0.005000	3.051673	-8.789760	-1.913713	-0.535945	0.016542	-0.358473	-0.005767	0.009927	-0.011770
670	3.377837	0.005000	2.974215	-8.758545	-1.922760	-0.536171	0.016768	-0.358725	-0.007158	0.023922	-0.009744
671	3.382837	0.005000	2.926161	-8.797227	-1.892892	-0.536397	0.016994	-0.358977	-0.003863	0.018969	-0.014481
672	3.387837	0.005000	3.099960	-8.874684	-1.896409	-0.536623	0.017220	-0.359230	0.005315	0.014412	-0.008418
673	3.392837	0.005000	3.055298	-8.873662	-2.068876	-0.536849	0.017446	-0.359482	-0.015554	0.029188	-0.023343
674	3.397837	0.005000	2.982240	-8.897720	-1.996360	-0.537075	0.017672	-0.359734	-0.003252	0.006376	-0.013639
675	3.402837	0.005000	3.017623	-8.797475	-2.008955	-0.537301	0.017898	-0.359986	0.005242	0.008636	-0.010462
676	3.407837	0.005000	2.979405	-8.901810	-2.034810	-0.537633	0.017483	-0.359404	-0.004337	0.014026	-0.014776
677	3.412837	0.005000	3.097667	-8.826707	-2.001240	-0.537972	0.017031	-0.358773	-0.006513	0.019795	-0.010454
678	3.417837	0.005000	3.101230	-8.674581	-1.887331	-0.538311	0.016580	-0.358143	-0.012675	0.014163	-0.012910
679	3.422837	0.005000	3.099464	-8.867992	-2.039984	-0.538650	0.016128	-0.357513	-0.000248	0.008939	-0.011763
680	3.427837	0.005000	3.021480	-8.867942	-2.078826	-0.538988	0.015676	-0.356882	-0.005498	0.023859	-0.016476
681	3.432837	0.005000	2.943000	-8.866923	-1.963317	-0.539327	0.015225	-0.356252	-0.008992	0.020283	-0.010147
682	3.437837	0.005000	3.019141	-8.907480	-1.922760	-0.539666	0.014773	-0.355622	-0.006061	0.024391	-0.018278
683	3.442837	0.005000	3.133406	-8.826103	-1.959103	-0.540005	0.014322	-0.354991	-0.006535	0.017824	-0.017505
684	3.447837	0.005000	2.990079	-8.872159	-1.922760	-0.540343	0.013870	-0.354361	0.002633	0.018082	-0.014518
685	3.452837	0.005000	3.016538	-8.838884	-1.922760	-0.540682	0.013419	-0.353731	-0.011259	0.024056	-0.019147
686	3.457837	0.005000	2.987724	-8.722248	-1.956516	-0.541021	0.012967	-0.353100	-0.010350	0.014658	-0.005750
687	3.462837	0.005000	2.982240	-8.861734	-1.975013	-0.541359	0.012515	-0.352470	-0.001504	0.022346	-0.003766
688	3.467837	0.005000	2.515698	-8.899951	-2.001240	-0.541698	0.012064	-0.351840	-0.007379	0.022560	-0.011011
689	3.472837	0.005000	2.823665	-8.868240	-1.891691	-0.542365	0.011530	-0.350843	-0.003140	0.010281	0.001166
690	3.477837	0.005000	3.012386	-9.007013	-1.883520	-0.543155	0.010966	-0.349709	-0.014421	0.021221	-0.018154
691	3.482837	0.005000	3.030372	-8.975844	-1.941768	-0.543945	0.010401	-0.348574	-0.003238	0.011668	-0.006109
692	3.487837	0.005000	3.021480	-8.935930	-2.058140	-0.544736	0.009837	-0.347440	0.002154	0.018665	-0.015647
693	3.492837	0.005000	2.993921	-8.852361	-1.950319	-0.545526	0.009273	-0.346305	-0.010584	0.014656	-0.021177
694	3.497837	0.005000	2.956834	-8.802463	-1.935463	-0.546316	0.008708	-0.345170	0.000293	0.013621	-0.009292
695	3.502837	0.005000	3.021480	-8.868240	-1.948739	-0.547106	0.008144	-0.344036	0.003367	0.009973	-0.011526
696	3.507837	0.005000	2.985850	-8.893197	-1.926370	-0.547897	0.007579	-0.342901	-0.003360	0.020567	-0.005100
697	3.512837	0.005000	2.919056	-8.962016	-1.914112	-0.548687	0.007015	-0.341766	-0.008202	0.023758	-0.012828
698	3.517837	0.005000	2.958848	-8.813911	-1.899368	-0.549477	0.006450	-0.340632	-0.008065	0.009729	-0.019434
699	3.522837	0.005000	2.937501	-8.818001	-1.878021	-0.550268	0.005886	-0.339497	-0.015918	0.019467	-0.011014
700	3.527837	0.005000	2.925107	-8.753975	-1.844280	-0.551058	0.005321	-0.338363	-0.011756	0.013780	-0.019399
701	3.532837	0.005000	2.903760	-8.852175	-1.901955	-0.551848	0.004757	-0.337228	-0.011096	0.012969	0.004194
702	3.537837	0.005000	3.001372	-8.829651	-1.962000	-0.551782	0.004649	-0.337049	-0.011916	0.019399	-0.016336
703	3.542837	0.005000	3.081200	-8.907480	-1.904000	-0.550879	0.004988	-0.337806	-0.011766	0.012001	-0.009501
704	3.547837	0.005000	3.120982	-8.889262	-1.883520	-0.549976	0.005327	-0.338562	-0.018705	0.016318	-0.009969
705	3.552837	0.005000	3.060720	-8.885436	-1.883520	-0.549073	0.005665	-0.339319	-0.021230	0.017272	-0.020018
706	3.557837	0.005000	3.060720	-8.917341	-1.945633	-0.548170	0.006004	-0.340075	-0.018003	0.009399	-0.007491
707	3.562837	0.005000	3.021480	-8.883855	-1.985625	-0.547267	0.006342	-0.340832	-0.019473	0.015786	-0.016673
708	3.567837	0.005000	3.031522	-8.946720	-1.972042	-0.546363	0.006681	-0.341588	-0.010548	0.003605	-0.013402
709	3.572837	0.005000	2.982240	-8.918618	-1.883520	-0.545460	0.007020	-0.342344	-0.016386	0.004666	-0.019005
710	3.577837	0.005000	3.073748	-8.802788	-1.935943	-0.544557	0.007358	-0.343101	-0.020378	0.006707	-0.014123
711	3.582837	0.005000	3.112115	-8.814069	-1.962000	-0.543654	0.007697	-0.343857	-0.023487	0.013052	-0.009805
712	3.587837	0.005000	3.134351	-8.879704	-1.911296	-0.542751	0.008036	-0.344614	-0.015822	0.011618	-0.014749
713	3.592837	0.005000	3.068261	-8.936154	-1.904653	-0.541848	0.008374	-0.345370	-0.014934	0.010281	-0.009443
714	3.597837	0.005000	3.080518	-8.868240	-1.962000	-0.540944	0.008713	-0.346126	-0.023049	0.006720	-0.016248
715	3.602837	0.005000	3.121447	-8.837877	-1.983487	-0.540267	0.009213	-0.346847	-0.018243	0.010784	-0.006414
716	3.607837	0.005000	3.021480	-8.938401	-1.914441	-0.540154	0.010117	-0.347478	-0.020565	0.019029	-0.017991
717	3.612837	0.005000	3.014183	-8.939423	-1.969297	-0.540041	0.011021	-0.348109	-0.010404	0.017456	-0.019586
718	3.617837	0.005000	3.008776	-8.861888	-1.949296	-0.539928	0.011925	-0.348740	-0.017694	0.000944	-0.013605
719	3.622837	0.005000	2.881716	-8.756252	-1.889252	-0.539815	0.012829	-0.349371	-0.026764	0.016875	-0.011498
720	3.627837	0.005000	3.095251	-8.789760	-1.922760	-0.539702	0.013733	-0.350002	-0.025901	0.011383	-0.008767
721	3.632837	0.005000	3.104127	-8.754687	-1.860949	-0.539589	0.014637	-0.350632	-0.021471	0.008205	-0.012054
722	3.637837	0.005000	3.106250	-8.858806	-1.889810	-0.539475	0.015542	-0.351263	-0.016703	0.005011	-0.010328
723	3.642837	0.005000	3.102108	-8.796203	-1.966296	-0.539362	0.016446	-0.351894	-0.007602	0.012170	-0.017643
724	3.647837	0.005000	3.057591	-8.869805	-2.001240	-0.539249	0.017350	-0.352525	-0.007649	0.006526	-0.015673
725	3.652837	0.005000	2.982240	-8.947805	-1.922760	-0.539136	0.018254	-0.353156	-0.007215	0.012182	-0.011171
726	3.657837	0.005000	2.943465	-8.986425	-1.922760	-0.539023	0.019158	-0.353787	-0.010486	0.029430	-0.021083
727	3.662837	0.005000	2.944022	-8.750520	-1.960978	-0.538910	0.020062	-0.354418	-0.002068	0.017220	-0.006572
728	3.667837	0.005000	3.021480	-8.787715	-2.001240	-0.538797	0.020887	-0.355020	-0.011664	0.029931	-0.015385
729	3.672837	0.005000	2.909895	-8.868240	-1.962000	-0.538684	0.020774	-0.355272	0.000201	0.018861	-0.018618
730	3.677837	0.005000	3.121152	-8.943110	-1.773019	-0.538571	0.020661	-0.355524	0.003897	0.012312	-0.005671
731	3.682837	0.005000	2.986872	-8.838264	-1.844280	-0.538458	0.020548	-0.355776	-0.010747	0.018240	-0.022850
732	3.687837	0.005000	2.993549	-8.784106	-2.034826	-0.538346	0.020436	-0.356028	0.000647	0.012323	-0.007714
733	3.692837	0.005000	2.930607	-8.750520	-1.928957	-0.538233	0.020323	-0.356280	-0.004330	0.021663	-0.012911
734	3.697837	0.005000	2.903760	-8.775322	-1.869082	-0.538120	0.020210	-0.356532	-0.007130	0.018872	-0.026984
735	3.702837	0.005000	2.935130	-8.829000	-1.930520	-0.538007	0.020097	-0.356784	-0.009834	0.019242	-0.012321
736	3.707837	0.005000	3.021480	-8.898681	-1.901118	-0.537894	0.019984	-0.357036	-0.009089	0.014767	-0.026094
737	3.712837	0.005000	2.952810	-8.838810	-1.863900	-0.537781	0.019871	-0.357289	-0.006507	0.020242	-0.009356
738	3.717837	0.005000	2.971411	-8.896651	-1.951171	-0.537668	0.019758	-0.357541	-0.015679	0.020066	-0.009930
739	3.722837	0.005000	2.943000	-8.946720	-2.001240	-0.537555	0.019645	-0.357793	-0.013959	0.008209	-0.004276
740	3.727837	0.005000	3.009071	-8.998369	-1.842266	-0.537442	0.019532	-0.358045	-0.011468	0.018950	-0.016416
741	3.732837	0.005000	2.994618	-8.960151	-1.896951	-0.537329	0.019419	-0.358297	-0.012186	0.005884	-0.004762
742	3.737837	0.005000	3.035453	-8.884893	-1.897493	-0.537410	0.019693	-0.358009	-0.003326	0.006501	-0.008087
743	3.742837	0.005000	2.997236	-8.829000	-1.883520	-0.537523	0.020032	-0.357630	-0.006584	0.017558	-0.022159
744	3.747837	0.005000	3.013701	-8.821221	-1.946269	-0.537636	0.020371	-0.357252	-0.003622	0.009335	0.000172
745	3.752837	0.005000	3.021480	-8.930160	-1.838161	-0.537749	0.020710	-0.356874	-0.012207	0.022306	-0.018213
746	3.757837	0.005000	2.964657	-8.911554	-1.983657	-0.537862	0.021049	-0.356495	-0.011882	0.013104	-0.009953
747	3.762837	0.005000	2.943000	-8.826041	-2.001240	-0.537975	0.021388	-0.356117	-0.011301	0.014678	-0.008416
748	3.767837	0.005000	3.021480	-8.848155	-1.922760	-0.538088	0.021727	-0.355738	-0.019047	0.024717	-0.017630
749	3.772837	0.005000	3.020380	-8.831200	-1.865550	-0.538201	0.022066	-0.355360	-0.006892	0.014123	-0.013356
750	3.777837	0.005000	2.924488	-8.806057	-1.883520	-0.538314	0.022405	-0.354982	-0.018704	0.015503	-0.010985
751	3.782837	0.005000	2.921250	-8.929230	-1.883520	-0.538427	0.022743	-0.354603	-0.010272	0.006186	-0.017024
752	3.787837	0.005000	3.038152	-8.789760	-1.900192	-0.538540	0.023082	-0.354225	-0.007024	0.017044	-0.020525
753	3.792837	0.005000	2.974851	-8.789760	-1.906835	-0.538653	0.023421	-0.353846	-0.006328	0.007771	-0.004817
754	3.797837	0.005000	3.051286	-8.814097	-1.986337	-0.538766	0.023760	-0.353468	-0.005276	0.021898	-0.013217
755	3.802837	0.005000	3.136799	-8.789760	-1.922760	-0.538733	0.023445	-0.353495	-0.012362	0.020408	-0.019452
756	3.807837	0.005000	3.034818	-8.815662	-1.909422	-0.538620	0.022767	-0.353748	-0.007154	0.015395	-0.016871
757	3.812837	0.005000	2.994556	-8.735912	-1.962000	-0.538507	0.022090	-0.354000	-0.017370	0.021030	-0.022706
758	3.817837	0.005000	3.010051	-8.879669	-1.844280	-0.538394	0.021412	-0.354252	-0.013618	0.014550	-0.007709
759	3.822837	0.005000	3.014447	-8.878976	-1.962000	-0.538281	0.020734	-0.354504	-0.007264	0.011681	-0.013975
760	3.827837	0.005000	3.040937	-8.917209	-1.922760	-0.538168	0.020056	-0.354757	-0.010391	0.016246	-0.017266
761	3.832837	0.005000	3.021480	-8.859069	-1.922760	-0.538055	0.019379	-0.355009	-0.019107	0.007583	0.000023
762	3.837837	0.005000	3.013331	-8.845297	-1.939057	-0.537942	0.018701	-0.355261	-0.008346	0.011868	-0.021287
763	3.842837	0.005000	3.021480	-8.743394	-1.890646	-0.537829	0.018023	-0.355514	-0.017303	0.011973	-0.014129
764	3.847837	0.005000	3.106544	-8.757104	-1.955416	-0.537716	0.017345	-0.355766	-0.009365	0.003953	-0.008160
765	3.852837	0.005000	3.060720	-8.901919	-1.900204	-0.537603	0.016668	-0.356018	-0.009139	0.008614	-0.015044
766	3.857837	0.005000	3.016941	-8.902941	-1.957461	-0.537491	0.015990	-0.356271	-0.014479	0.008789	-0.005608
767	3.862837	0.005000	2.946997	-8.872237	-1.883520	-0.537378	0.015312	-0.356523	-0.008762	0.010993	-0.015087
768	3.867837	0.005000	2.979266	-8.820077	-1.962000	-0.537216	0.015022	-0.356721	-0.016849	0.007826	-0.012071
769	3.872837	0.005000	3.054794	-8.756446	-1.962000	-0.536990	0.015248	-0.356847	-0.014447	0.010531	-0.019224
770	3.877837	0.005000	2.944394	-8.868240	-1.960606	-0.536765	0.015473	-0.356973	-0.001790	0.000418	-0.010355
771	3.882837	0.005000	2.904147	-8.828613	-1.883520	-0.536539	0.015699	-0.357099	-0.011986	0.011786	-0.019529
772	3.887837	0.005000	2.943000	-8.906963	-1.961655	-0.536313	0.015925	-0.357225	-0.011710	0.011746	-0.024704
773	3.892837	0.005000	3.055949	-8.867047	-1.925146	-0.536087	0.016151	-0.357351	-0.001438	-0.001749	-0.005789
774	3.897837	0.005000	3.058505	-8.831215	-1.994594	-0.535861	0.016377	-0.357477	-0.018258	0.009793	-0.021467
775	3.902837	0.005000	3.099960	-8.933769	-1.962000	-0.535636	0.016602	-0.357603	-0.014572	0.004621	-0.014904
776	3.907837	0.005000	3.064500	-8.864460	-1.816380	-0.535410	0.016828	-0.357729	-0.007173	0.010010	-0.015562
777	3.912837	0.005000	2.987042	-8.833802	-1.913155	-0.535184	0.017054	-0.357855	-0.020112	0.014305	-0.021794
778	3.917837	0.005000	3.094135	-8.756345	-1.922760	-0.534958	0.017280	-0.357981	-0.011606	0.009770	-0.011141
779	3.922837	0.005000	3.047986	-8.783393	-1.916393	-0.534732	0.017506	-0.358107	-0.012612	0.013246	-0.019326
780	3.927837	0.005000	3.085181	-8.868240	-1.819819	-0.534507	0.017731	-0.358233	-0.012012	0.011916	-0.016408
781	3.932837	0.005000	3.076614	-8.868240	-1.922760	-0.534328	0.017816	-0.358122	-0.015497	0.013096	-0.015930
782	3.937837	0.005000	2.991210	-8.868240	-2.001240	-0.534328	0.017364	-0.357113	-0.013609	0.003124	-0.022311
783	3.942837	0.005000	3.031106	-8.917106	-1.942012	-0.534328	0.016912	-0.356104	-0.011608	0.010910	-0.013628
784	3.947837	0.005000	2.992774	-8.829000	-2.037583	-0.534328	0.016460	-0.355095	-0.016681	0.013956	-0.021427
785	3.952837	0.005000	3.049163	-8.856683	-1.996670	-0.534328	0.016009	-0.354086	-0.002800	0.003598	-0.003592
786	3.957837	0.005000	3.008901	-8.921562	-1.922760	-0.534328	0.015557	-0.353077	-0.007107	0.018186	-0.015037
787	3.962837	0.005000	2.956284	-8.737848	-1.987956	-0.534328	0.015105	-0.352068	-0.005221	0.005237	-0.013556
788	3.967837	0.005000	2.953952	-8.868240	-1.962000	-0.534328	0.014653	-0.351059	-0.003193	0.013701	-0.009072
789	3.972837	0.005000	2.958166	-8.837908	-1.929019	-0.534328	0.014201	-0.350050	-0.002641	0.012952	-0.013341
790	3.977837	0.005000	3.068543	-8.907480	-1.954177	-0.534328	0.013750	-0.349041	-0.001560	0.009181	-0.001356
791	3.982837	0.005000	3.026654	-8.856683	-1.939491	-0.534328	0.013298	-0.348032	-0.000055	0.024237	-0.021908
792	3.987837	0.005000	3.003727	-8.832733	-1.844280	-0.534328	0.012846	-0.347023	0.002986	0.014092	-0.019747
793	3.992837	0.005000	3.039791	-8.847311	-1.844280	-0.534328	0.012394	-0.346014	-0.000696	0.009163	-0.015256
794	3.997837	0.005000	3.099371	-8.848914	-1.864783	-0.534328	0.011942	-0.345005	-0.005396	0.008625	-0.022535
795	4.002837	0.005000	2.961900	-8.927820	-1.842839	-0.534103	0.012614	-0.346129	-0.002887	0.019786	-0.011501
796	4.007837	0.005000	2.943000	-8.829000	-1.886076	-0.533878	0.013291	-0.347263	-0.004183	0.010581	-0.017613
797	4.012837	0.005000	3.038800	-8.885560	-1.848881	-0.533652	0.013969	-0.348398	-0.003031	0.011561	-0.017303
798	4.017837	0.005000	2.959499	-8.812501	-1.860779	-0.533426	0.014646	-0.349532	-0.014180	0.021704	-0.025550
799	4.022837	0.005000	3.068745	-8.852485	-1.946245	-0.533200	0.015324	-0.350667	-0.001005	0.008955	-0.004783
800	4.027837	0.005000	2.943000	-8.882972	-1.962000	-0.532974	0.016001	-0.351802	-0.009397	0.021750	-0.016011
801	4.032837	0.005000	2.903760	-8.985960	-1.869640	-0.532749	0.016678	-0.352936	-0.008848	0.014501	-0.016848
802	4.037837	0.005000	2.864520	-8.933552	-1.948832	-0.532523	0.017356	-0.354071	0.002910	0.019907	-0.000821
803	4.042837	0.005000	2.891615	-8.883189	-1.868571	-0.532297	0.018033	-0.355206	0.001578	0.016877	-0.020080
804	4.047837	0.005000	2.931744	-8.761776	-1.883520	-0.532071	0.018711	-0.356340	0.001098	0.014843	-0.022472
805	4.052837	0.005000	2.932435	-8.829000	-1.883520	-0.531846	0.019388	-0.357475	0.000068	0.019626	-0.016574
806	4.057837	0.005000	2.991798	-8.799318	-1.893078	-0.531620	0.020066	-0.358609	-0.004515	0.009725	-0.011401
807	4.062837	0.005000	2.921761	-8.955721	-1.883520	-0.531394	0.020743	-0.359744	-0.008522	0.012660	-0.010256
808	4.067837	0.005000	3.029458	-8.805716	-1.828324	-0.531518	0.020634	-0.359902	-0.013421	0.018021	-0.024388
809	4.072837	0.005000	3.021480	-8.868240	-1.823413	-0.531744	0.020295	-0.359776	-0.006428	0.008817	-0.012733
810	4.077837	0.005000	2.975827	-8.907480	-1.824280	-0.531969	0.019956	-0.359650	-0.017510	0.016025	-0.022591
811	4.082837	0.005000	2.971458	-8.875134	-1.888911	-0.532195	0.019618	-0.359524	-0.005900	0.015520	-0.011677
812	4.087837	0.005000	2.873257	-8.754889	-1.892257	-0.532421	0.019279	-0.359398	-0.017566	0.022662	-0.026633
813	4.092837	0.005000	3.017654	-8.829000	-1.918934	-0.532647	0.018940	-0.359272	-0.015872	0.011304	-0.022287
814	4.097837	0.005000	3.097156	-8.904676	-1.914348	-0.532873	0.018601	-0.359146	-0.015125	0.026566	-0.013914
815	4.102837	0.005000	2.905542	-8.907480	-1.846062	-0.533098	0.018263	-0.359020	-0.016384	0.026748	-0.011646
816	4.107837	0.005000	2.943000	-8.865792	-1.841832	-0.533324	0.017924	-0.358894	-0.006470	0.007025	-0.000556
817	4.112837	0.005000	3.060503	-8.868240	-1.766234	-0.533550	0.017585	-0.358767	-0.012046	0.026184	-0.013889
818	4.117837	0.005000	3.059914	-8.906674	-1.767411	-0.533776	0.017246	-0.358641	-0.016701	0.018949	-0.015797
819	4.122837	0.005000	3.057961	-8.753279	-1.915862	-0.534002	0.016908	-0.358515	-0.008924	0.016188	-0.001524
820	4.127837	0.005000	3.055949	-8.865854	-1.994083	-0.534227	0.016569	-0.358389	-0.023965	0.021994	-0.024435
821	4.132837	0.005000	2.870448	-8.831964	-1.922760	-0.534704	0.016293	-0.358123	-0.027628	0.010245	-0.010398
822	4.137837	0.005000	3.021480	-8.723131	-1.965950	-0.535381	0.016067	-0.357745	-0.014659	0.015052	-0.022766
823	4.142837	0.005000	3.036398	-8.868240	-2.109014	-0.536059	0.015841	-0.357367	-0.027312	0.010079	-0.014324
824	4.147837	0.005000	3.128033	-8.935553	-1.962000	-0.536737	0.015615	-0.356988	-0.028059	0.011854	-0.016262
825	4.152837	0.005000	3.073795	-8.907480	-1.929297	-0.537415	0.015389	-0.356610	-0.024695	0.016143	-0.023859
826	4.157837	0.005000	3.092400	-8.758080	-1.859400	-0.538092	0.015163	-0.356231	-0.023982	0.023113	-0.011432
827	4.162837	0.005000	3.077150	-8.891050	-1.930975	-0.538770	0.014937	-0.355853	-0.018082	0.012400	-0.021655
828	4.167837	0.005000	3.160160	-8.789760	-1.931900	-0.539448	0.014712	-0.355475	-0.009119	0.013325	-0.009993
829	4.172837	0.005000	3.021480	-8.878387	-1.941706	-0.540126	0.014486	-0.355096	-0.016945	0.012320	-0.016822
830	4.177837	0.005000	3.078551	-8.818295	-1.962000	-0.540804	0.014260	-0.354718	-0.016227	0.007399	-0.014613
831	4.182837	0.005000	3.048993	-8.844786	-1.997181	-0.541481	0.014034	-0.354339	-0.020251	0.010361	-0.008595
832	4.187837	0.005000	3.125459	-8.855490	-1.962000	-0.542159	0.013808	-0.353961	-0.019734	0.014226	-0.017761
833	4.192837	0.005000	3.152492	-8.894188	-1.987948	-0.542837	0.013582	-0.353583	-0.018031	0.007370	-0.009439
834	4.197837	0.005000	3.035794	-8.814686	-1.962000	-0.543053	0.013587	-0.353419	-0.015704	0.007116	-0.001665
835	4.202837	0.005000	2.997577	-8.798327	-1.868183	-0.542375	0.014039	-0.353671	-0.016628	0.009298	-0.005995
836	4.207837	0.005000	3.013084	-8.782278	-2.008722	-0.541697	0.014491	-0.353924	-0.010760	0.011959	-0.006306
837	4.212837	0.005000	3.083059	-8.856776	-2.006678	-0.541019	0.014943	-0.354176	-0.015747	0.009704	-0.013980
838	4.217837	0.005000	3.039148	-8.911384	-1.958096	-0.540341	0.015395	-0.354429	-0.017471	0.015859	-0.015080
839	4.222837	0.005000	3.058443	-8.845204	-1.865039	-0.539663	0.015847	-0.354681	-0.012553	0.011837	-0.019961
840	4.227837	0.005000	3.060720	-8.770535	-1.922760	-0.538985	0.016299	-0.354933	-0.016720	0.007320	-0.013449
841	4.232837	0.005000	2.943852	-8.829000	-1.844280	-0.538307	0.016751	-0.355186	-0.019517	0.025784	-0.010721
842	4.237837	0.005000	3.078892	-8.850068	-1.883520	-0.537629	0.017203	-0.355438	-0.008548	0.015723	-0.012842
843	4.242837	0.005000	3.077869	-8.794702	-1.962000	-0.536951	0.017655	-0.355691	-0.020709	0.015292	-0.002849
844	4.247837	0.005000	3.044394	-8.829000	-1.906434	-0.536273	0.018107	-0.355943	-0.017443	0.017613	-0.012421
845	4.252837	0.005000	3.021480	-8.805344	-1.954487	-0.535595	0.018559	-0.356195	-0.010012	0.016787	-0.005249
846	4.257837	0.005000	3.011725	-8.716267	-1.962000	-0.534917	0.019011	-0.356448	-0.013378	0.019242	-0.013317
847	4.262837	0.005000	3.046700	-8.932700	-1.987220	-0.534388	0.019373	-0.356667	-0.004962	0.018960	-0.016577
848	4.267837	0.005000	2.981992	-8.881237	-2.014485	-0.534839	0.019147	-0.356667	-0.003363	0.018418	-0.004976
849	4.272837	0.005000	3.048602	-8.880358	-2.001240	-0.535291	0.018922	-0.356667	-0.013069	0.019427	-0.018114
850	4.277837	0.005000	3.010063	-8.750520	-1.989823	-0.535743	0.018696	-0.356667	0.001767	0.017410	-0.004156
851	4.282837	0.005000	2.943000	-8.800159	-1.912361	-0.536194	0.018470	-0.356667	-0.006109	0.018646	-0.011259
852	4.287837	0.005000	2.972740	-8.887241	-1.913260	-0.536646	0.018244	-0.356667	-0.008949	0.018281	-0.007363
853	4.292837	0.005000	2.894930	-8.811340	-1.970830	-0.537098	0.018018	-0.356667	-0.001006	0.021177	-0.018621
854	4.297837	0.005000	2.982240	-8.813385	-1.946385	-0.537549	0.017793	-0.356667	0.003274	0.010008	-0.008037
855	4.302837	0.005000	2.975371	-8.764259	-1.851149	-0.538001	0.017567	-0.356667	-0.008013	0.013841	-0.005500
856	4.307837	0.005000	3.033966	-8.769249	-1.929003	-0.538453	0.017341	-0.356667	-0.008085	0.022521	-0.011930
857	4.312837	0.005000	3.016259	-8.857799	-1.985578	-0.538904	0.017115	-0.356667	-0.000564	0.016360	-0.010623
858	4.317837	0.005000	2.938750	-8.829000	-1.887770	-0.539356	0.016889	-0.356667	-0.011606	0.022218	-0.013213
859	4.322837	0.005000	2.950312	-8.750520	-1.855248	-0.539808	0.016664	-0.356667	0.004198	0.016570	-0.011419
860	4.327837	0.005000	3.058086	-8.758421	-1.922760	-0.540259	0.016438	-0.356667	-0.002079	0.021580	-0.013639
861	4.332837	0.005000	3.017328	-8.795988	-1.887672	-0.540093	0.016624	-0.356667	-0.015748	0.019825	-0.013167
862	4.337837	0.005000	2.985400	-8.907480	-2.039427	-0.539867	0.016850	-0.356667	0.000285	0.008205	0.000263
863	4.342837	0.005000	2.982287	-8.868287	-1.922713	-0.539641	0.017076	-0.356667	-0.008763	0.025735	-0.004583
864	4.347837	0.005000	2.944022	-8.907480	-1.960978	-0.539415	0.017302	-0.356667	-0.005120	0.021028	-0.018466
865	4.352837	0.005000	3.018413	-8.829000	-1.968135	-0.539189	0.017528	-0.356667	0.001973	0.014350	-0.009993
866	4.357837	0.005000	3.024036	-8.792316	-1.967112	-0.538963	0.017753	-0.356667	-0.008510	0.017314	-0.019002
867	4.362837	0.005000	3.018382	-8.940523	-1.962000	-0.538737	0.017979	-0.356667	0.000302	0.017101	-0.013440
868	4.367837	0.005000	3.025601	-8.754641	-1.891761	-0.538511	0.018205	-0.356667	0.000107	0.014867	-0.010288
869	4.372837	0.005000	3.021480	-8.892050	-2.001240	-0.538285	0.018431	-0.356667	-0.000974	0.015100	-0.011723
870	4.377837	0.005000	3.009968	-8.868240	-2.028968	-0.538059	0.018657	-0.356667	-0.006665	0.017138	-0.016485
871	4.382837	0.005000	3.034896	-8.914188	-1.890228	-0.537833	0.018883	-0.356667	-0.000079	0.009641	-0.014271
872	4.387837	0.005000	3.005431	-8.805221	-2.001240	-0.537607	0.019109	-0.356667	0.001731	0.020284	-0.008639
873	4.392837	0.005000	3.021480	-8.798048	-1.970288	-0.537381	0.019335	-0.356667	-0.002776	0.014854	-0.017630
874	4.397837	0.005000	3.111269	-8.898170	-1.991930	-0.537234	0.018930	-0.355699	-0.007151	0.009653	-0.016851
875	4.402837	0.005000	3.099960	-8.857923	-1.883520	-0.537121	0.018253	-0.354312	0.003722	0.019979	-0.021258
876	4.407837	0.005000	3.121710	-8.839875	-1.855155	-0.537009	0.017576	-0.352926	0.010563	0.012846	-0.011635
877	4.412837	0.005000	3.009583	-8.911028	-1.871623	-0.536896	0.016898	-0.351539	0.002355	0.007617	-0.017641
878	4.417837	0.005000	2.955920	-8.920880	-1.909360	-0.536783	0.016221	-0.350152	-0.002226	0.015471	-0.019754
879	4.422837	0.005000	2.930684	-8.842462	-1.792724	-0.536670	0.015543	-0.348765	-0.001016	0.013424	-0.008056
880	4.427837	0.005000	2.953271	-8.775275	-1.854551	-0.536557	0.014866	-0.347378	-0.010330	0.019130	-0.023522
881	4.432837	0.005000	2.967027	-8.907480	-1.883520	-0.536444	0.014189	-0.345992	-0.006828	0.013417	-0.015294
882	4.437837	0.005000	2.998289	-8.930671	-1.851422	-0.536331	0.013511	-0.344605	-0.013439	0.011122	-0.012064
883	4.442837	0.005000	2.982240	-8.885312	-1.844280	-0.536219	0.012834	-0.343218	-0.011110	0.014206	-0.010378
884	4.447837	0.005000	2.986221	-8.807389	-1.922760	-0.536106	0.012157	-0.341831	-0.015551	0.023118	-0.019246
885	4.452837	0.005000	3.077435	-8.829000	-1.883520	-0.535993	0.011479	-0.340444	-0.013548	0.018239	-0.030347
886	4.457837	0.005000	3.099960	-8.946797	-1.903101	-0.535880	0.010802	-0.339057	-0.010382	0.001441	-0.008328
887	4.462837	0.005000	3.060720	-8.927696	-1.865689	-0.536414	0.010394	-0.337791	-0.015043	0.014871	-0.009653
888	4.467837	0.005000	3.021480	-8.847001	-1.829517	-0.537657	0.010281	-0.336656	-0.006387	0.005684	-0.007824
889	4.472837	0.005000	3.066003	-8.919176	-1.855976	-0.538899	0.010168	-0.335521	-0.016071	0.019627	-0.016515
890	4.477837	0.005000	2.965804	-8.901113	-1.899956	-0.540142	0.010055	-0.334385	-0.017251	0.020763	-0.020218
891	4.482837	0.005000	2.864520	-8.924304	-1.907346	-0.541384	0.009942	-0.333250	-0.016816	0.011677	-0.017267
892	4.487837	0.005000	2.957570	-8.775190	-1.902560	-0.542627	0.009829	-0.332115	-0.016403	0.021821	-0.019755
893	4.492837	0.005000	3.009939	-8.817459	-1.975849	-0.543869	0.009716	-0.330980	-0.015268	0.017734	-0.003892
894	4.497837	0.005000	2.982999	-8.855413	-1.988413	-0.545112	0.009603	-0.329845	-0.014008	0.012013	-0.004585
895	4.502837	0.005000	2.903760	-8.789760	-1.957136	-0.546354	0.009490	-0.328710	-0.016826	0.010936	-0.014014
896	4.507837	0.005000	3.049473	-8.733774	-2.023734	-0.547596	0.009377	-0.327575	-0.018194	0.014870	0.001092
897	4.512837	0.005000	3.031708	-8.868240	-1.893748	-0.548839	0.009264	-0.326439	-0.015882	0.011345	-0.005502
898	4.517837	0.005000	2.991922	-8.897798	-1.991558	-0.550081	0.009151	-0.325304	-0.015619	0.015231	-0.010027
899	4.522837	0.005000	2.982240	-8.968640	-1.922760	-0.551324	0.009038	-0.324169	-0.011157	0.015272	-0.016857
900	4.527837	0.005000	3.092323	-8.845328	-1.962000	-0.552358	0.008776	-0.323399	-0.017289	0.008964	-0.005436
901	4.532837	0.005000	3.078675	-8.900385	-1.883520	-0.552810	0.008099	-0.323652	-0.023392	0.019718	-0.015302
902	4.537837	0.005000	3.015407	-8.940647	-1.916687	-0.553262	0.007421	-0.323904	-0.019810	0.011869	-0.015206
903	4.542837	0.005000	3.031706	-8.829000	-2.001240	-0.553713	0.006743	-0.324156	-0.005984	0.005605	-0.007201
904	4.547837	0.005000	2.982240	-8.798776	-1.992224	-0.554165	0.006066	-0.324409	-0.024204	0.011494	-0.019170
905	4.552837	0.005000	2.946486	-8.903994	-1.837309	-0.554617	0.005388	-0.324661	-0.027450	0.005249	-0.001009
906	4.557837	0.005000	2.982240	-8.909943	-1.834427	-0.555069	0.004710	-0.324913	-0.021067	0.016759	-0.007562
907	4.562837	0.005000	2.903760	-8.829000	-1.846185	-0.555521	0.004033	-0.325166	-0.022023	0.008071	-0.016180
908	4.567837	0.005000	2.944767	-8.830767	-1.924527	-0.555972	0.003355	-0.325418	-0.001607	0.007569	-0.002372
909	4.572837	0.005000	2.904132	-8.829248	-1.962124	-0.556424	0.002677	-0.325670	-0.012576	0.013179	-0.013661
910	4.577837	0.005000	2.981550	-8.868930	-1.962000	-0.556876	0.002000	-0.325923	-0.015822	0.009798	-0.008467
911	4.582837	0.005000	3.094848	-8.750520	-1.999536	-0.557328	0.001322	-0.326175	-0.011521	0.013917	-0.013831
912	4.587837	0.005000	3.094507	-8.820820	-1.964727	-0.557780	0.000644	-0.326427	-0.007217	0.004959	-0.010879
913	4.592837	0.005000	3.067338	-8.825691	-1.850898	-0.558131	0.000056	-0.326785	-0.009966	0.016262	-0.021143
914	4.597837	0.005000	3.060720	-8.794051	-1.883520	-0.556550	0.001185	-0.329182	-0.001105	0.012013	-0.002462
915	4.602837	0.005000	3.066034	-8.857613	-1.854907	-0.554968	0.002315	-0.331578	-0.007952	0.009305	-0.003395
916	4.607837	0.005000	2.982240	-8.729065	-1.904975	-0.553387	0.003444	-0.333974	-0.004437	0.023058	-0.015144
917	4.612837	0.005000	2.968484	-8.900602	-1.922760	-0.551806	0.004574	-0.336371	0.003653	0.017715	0.000690
918	4.617837	0.005000	2.982240	-8.923018	-1.914859	-0.550224	0.005703	-0.338767	-0.010536	0.016000	-0.017375
919	4.622837	0.005000	2.920879	-8.829000	-1.861399	-0.548643	0.006833	-0.341164	0.002709	0.016611	-0.011619
920	4.627837	0.005000	2.963302	-8.907480	-1.922760	-0.547062	0.007962	-0.343560	0.004396	0.016210	-0.006386
921	4.632837	0.005000	2.943000	-8.857752	-1.922760	-0.545480	0.009092	-0.345956	0.000334	0.011897	-0.019088
922	4.637837	0.005000	3.032658	-8.952426	-1.816218	-0.543899	0.010221	-0.348353	0.006537	0.008145	-0.013690
923	4.642837	0.005000	2.979204	-8.853136	-1.977104	-0.542318	0.011350	-0.350749	0.003179	0.014238	-0.010276
924	4.647837	0.005000	3.021449	-8.881299	-1.975090	-0.540736	0.012480	-0.353145	-0.003831	0.018674	-0.011626
925	4.652837	0.005000	2.945164	-8.803561	-2.001240	-0.539155	0.013609	-0.355542	-0.001776	0.017428	-0.013111
926	4.657837	0.005000	2.996895	-8.922135	-1.976655	-0.537574	0.014739	-0.357938	-0.009187	0.018847	-0.025382
927	4.662837	0.005000	2.950885	-8.946720	-1.954115	-0.537502	0.015302	-0.358228	-0.010874	0.019075	-0.005740
928	4.667837	0.005000	2.881220	-8.907480	-1.922760	-0.537728	0.015754	-0.358102	-0.003538	0.010385	-0.016061
929	4.672837	0.005000	2.943000	-8.946720	-1.822282	-0.537954	0.016206	-0.357976	-0.001893	0.008288	-0.014457
930	4.677837	0.005000	2.982240	-8.865529	-1.901784	-0.538180	0.016658	-0.357849	0.000084	0.015187	-0.013786
931	4.682837	0.005000	2.982240	-8.809047	-1.883520	-0.538406	0.017110	-0.357723	0.007313	0.014036	-0.008928
932	4.687837	0.005000	2.943000	-8.849075	-1.885339	-0.538632	0.017562	-0.357597	-0.012530	0.014856	-0.016177
933	4.692837	0.005000	2.843668	-8.831463	-1.823428	-0.538858	0.018014	-0.357471	-0.008071	0.017281	-0.029105
934	4.697837	0.005000	2.977732	-8.868240	-1.814056	-0.539084	0.018465	-0.357345	-0.000936	0.003411	-0.016381
935	4.702837	0.005000	3.028033	-8.812656	-1.782144	-0.539310	0.018917	-0.357219	-0.013373	0.015775	-0.014688
936	4.707837	0.005000	2.966454	-8.868240	-1.860066	-0.539535	0.019369	-0.357093	-0.008679	0.005865	-0.012504
937	4.712837	0.005000	3.021480	-8.814237	-1.913047	-0.539761	0.019821	-0.356967	-0.009018	0.009431	-0.018159
938	4.717837	0.005000	3.046964	-8.881996	-1.989513	-0.539987	0.020273	-0.356841	-0.012984	0.004226	-0.018197
939	4.722837	0.005000	3.021124	-8.894638	-2.001240	-0.540213	0.020725	-0.356715	-0.004017	0.001763	-0.012946
940	4.727837	0.005000	3.018769	-8.895304	-1.976887	-0.540860	0.020615	-0.356745	-0.020444	0.019533	-0.021065
941	4.732837	0.005000	3.088806	-8.879394	-1.894674	-0.541764	0.020163	-0.356871	-0.011474	0.009292	-0.013589
942	4.737837	0.005000	3.078737	-8.857628	-1.990628	-0.542667	0.019712	-0.356997	-0.007378	0.014707	-0.017071
943	4.742837	0.005000	3.060720	-8.839472	-1.952411	-0.543571	0.019260	-0.357124	-0.017791	0.021004	-0.019669
944	4.747837	0.005000	3.021480	-8.776220	-1.883520	-0.544475	0.018808	-0.357250	-0.020062	0.018479	-0.017646
945	4.752837	0.005000	2.974602	-8.875878	-2.017566	-0.545378	0.018356	-0.357376	-0.013740	0.018746	-0.012667
946	4.757837	0.005000	3.028482	-8.900478	-1.969002	-0.546282	0.017904	-0.357502	-0.010933	0.011589	-0.004987
947	4.762837	0.005000	3.027460	-8.834980	-1.962000	-0.547185	0.017452	-0.357628	-0.015505	0.009983	-0.010135
948	4.767837	0.005000	3.032324	-8.823578	-2.035058	-0.548089	0.017000	-0.357754	-0.007059	0.009669	-0.010983
949	4.772837	0.005000	3.073965	-8.894235	-1.957585	-0.548992	0.016549	-0.357880	-0.015772	0.014366	-0.017079
950	4.777837	0.005000	3.093175	-8.718065	-1.883520	-0.549896	0.016097	-0.358006	-0.016408	0.007916	-0.013445
951	4.782837	0.005000	3.053524	-8.792159	-1.925159	-0.550800	0.015645	-0.358132	-0.014142	0.011095	-0.005122
952	4.787837	0.005000	2.980427	-8.752333	-2.042293	-0.551703	0.015193	-0.358258	-0.014343	0.018293	-0.016107
953	4.792837	0.005000	2.943790	-8.791340	-2.041270	-0.551917	0.014787	-0.358384	-0.009066	0.014706	-0.009638
954	4.797837	0.005000	2.943232	-8.907248	-1.923689	-0.551127	0.014448	-0.358510	-0.007163	0.017045	-0.011613
955	4.802837	0.005000	3.020705	-8.868240	-1.882745	-0.550336	0.014110	-0.358637	-0.013773	0.014301	-0.026075
956	4.807837	0.005000	2.984037	-8.912871	-1.887114	-0.549545	0.013771	-0.358763	-0.008737	0.009796	0.001782
957	4.812837	0.005000	3.021480	-8.831368	-1.885888	-0.548755	0.013432	-0.358889	-0.008653	0.016393	-0.014055
958	4.817837	0.005000	2.946362	-8.897395	-2.027033	-0.547964	0.013093	-0.359015	-0.009952	0.010994	-0.013694
959	4.822837	0.005000	2.951768	-8.785376	-2.057800	-0.547173	0.012754	-0.359141	-0.007726	0.024500	-0.008373
960	4.827837	0.005000	2.977239	-8.682042	-1.956999	-0.546383	0.012415	-0.359267	-0.005298	0.013263	-0.011573
961	4.832837	0.005000	2.948949	-8.711280	-1.979846	-0.545592	0.012077	-0.359394	0.000223	0.015611	-0.011699
962	4.837837	0.005000	3.053749	-8.718251	-2.033509	-0.544801	0.011738	-0.359520	-0.000708	0.018428	-0.020783
963	4.842837	0.005000	3.053101	-8.782141	-2.016478	-0.544011	0.011399	-0.359646	-0.011716	0.018395	-0.025633
964	4.847837	0.005000	3.021480	-8.846103	-1.844280	-0.543220	0.011060	-0.359772	-0.009739	0.020885	-0.027864
965	4.852837	0.005000	2.971721	-8.760094	-1.913186	-0.542429	0.010721	-0.359898	-0.008238	0.007557	-0.009503
966	4.857837	0.005000	3.021480	-8.779164	-1.962000	-0.541704	0.010535	-0.359927	-0.007692	0.022295	-0.005444
967	4.862837	0.005000	3.099960	-8.845696	-1.973272	-0.541252	0.010987	-0.359549	-0.008342	0.010827	-0.007558
968	4.867837	0.005000	3.021480	-8.907480	-1.949839	-0.540800	0.011439	-0.359170	-0.013240	0.012453	0.000139
969	4.872837	0.005000	2.956183	-8.842183	-1.935943	-0.540349	0.011890	-0.358792	-0.015027	0.020000	-0.017251
970	4.877837	0.005000	3.046824	-8.803656	-1.844280	-0.539897	0.012342	-0.358414	-0.006004	0.012591	-0.011550
971	4.882837	0.005000	3.021480	-8.868240	-1.947252	-0.539445	0.012794	-0.358035	-0.013486	0.025831	-0.014363
972	4.887837	0.005000	3.146899	-8.860169	-1.906990	-0.538993	0.013246	-0.357657	-0.011964	0.018221	-0.011938
973	4.892837	0.005000	2.998553	-8.783145	-1.929375	-0.538541	0.013698	-0.357278	-0.005029	0.010339	-0.008429
974	4.897837	0.005000	2.986810	-8.846335	-2.040480	-0.538090	0.014149	-0.356900	-0.008192	0.013377	-0.020921
975	4.902837	0.005000	2.982240	-8.750520	-2.019597	-0.537638	0.014601	-0.356522	-0.009471	0.014051	-0.012530
976	4.907837	0.005000	2.943000	-8.730195	-1.921350	-0.537186	0.015053	-0.356143	-0.002799	0.024499	-0.013342
977	4.912837	0.005000	3.000907	-8.771093	-1.921490	-0.536734	0.015505	-0.355765	-0.013606	0.014965	-0.018492
978	4.917837	0.005000	2.984889	-8.789760	-1.786745	-0.536282	0.015957	-0.355386	-0.012212	0.027103	-0.020353
979	4.922837	0.005000	3.021480	-8.968222	-1.801276	-0.535831	0.016408	-0.355008	-0.007941	0.008879	-0.013225
980	4.927837	0.005000	2.965525	-8.868240	-1.821755	-0.535600	0.016418	-0.354877	-0.014226	0.019598	-0.019421
981	4.932837	0.005000	2.982240	-8.813307	-1.883520	-0.535374	0.016418	-0.354750	-0.011138	0.019854	-0.019901
982	4.937837	0.005000	3.031016	-8.843852	-1.922760	-0.535148	0.016418	-0.354624	-0.010001	0.007118	-0.011341
983	4.942837	0.005000	3.046592	-8.843128	-1.894503	-0.534923	0.016418	-0.354498	-0.018227	0.020464	-0.023262
984	4.947837	0.005000	3.073826	-8.829000	-1.883597	-0.534697	0.016418	-0.354372	-0.012354	0.014690	-0.021503
985	4.952837	0.005000	3.139200	-8.789760	-1.986466	-0.534471	0.016418	-0.354246	-0.010856	0.013818	-0.004231
986	4.957837	0.005000	2.998398	-8.801301	-1.922760	-0.534245	0.016418	-0.354120	-0.013282	0.017115	-0.016167
987	4.962837	0.005000	2.971721	-8.789760	-1.972519	-0.534019	0.016418	-0.353994	-0.003208	0.013742	-0.005280
988	4.967837	0.005000	2.962220	-8.819390	-1.971610	-0.533794	0.016418	-0.353868	-0.012164	0.026019	-0.015508
989	4.972837	0.005000	3.042836	-8.816586	-1.970942	-0.533568	0.016418	-0.353742	-0.007107	0.013651	-0.015700
990	4.977837	0.005000	2.943000	-8.797692	-2.016685	-0.533342	0.016418	-0.353616	-0.015539	0.015354	-0.007576
991	4.982837	0.005000	3.004362	-8.907480	-1.915386	-0.533116	0.016418	-0.353490	-0.014353	0.022544	-0.014629
992	4.987837	0.005000	3.054368	-8.763223	-2.067017	-0.532891	0.016418	-0.353363	-0.011977	0.017848	-0.001613
993	4.992837	0.005000	3.133871	-8.868240	-2.035151	-0.532922	0.016418	-0.353429	-0.001637	0.015210	-0.016320
994	4.997837	0.005000	3.095600	-8.833360	-1.918400	-0.533035	0.016418	-0.353555	-0.003216	0.011191	-0.001919
995	5.002837	0.005000	3.025244	-8.899951	-1.887284	-0.533147	0.016418	-0.353681	-0.006510	0.018645	-0.023308
996	5.007837	0.005000	3.024222	-8.876466	-1.967484	-0.533260	0.016418	-0.353807	-0.010868	0.007394	-0.018730
997	5.012837	0.005000	3.021480	-8.905280	-2.036080	-0.533373	0.016418	-0.353933	-0.015387	0.022137	-0.015744
998	5.017837	0.005000	3.021480	-8.906303	-1.963177	-0.533486	0.016418	-0.354059	-0.014489	0.017044	-0.023244
999	5.022837	0.005000	2.982240	-8.828843	-1.844437	-0.533599	0.016418	-0.354186	-0.011498	0.014577	-0.004503
1000	5.027837	0.005000	3.021077	-8.828597	-1.961194	-0.533712	0.016418	-0.354312	-0.016023	0.024085	-0.025644
1001	5.032837	0.005000	3.025711	-8.866830	-1.805040	-0.533825	0.016418	-0.354438	-0.018926	0.011748	-0.007720
1002	5.037837	0.005000	2.870493	-8.829000	-1.803049	-0.533938	0.016418	-0.354564	-0.007369	0.012475	-0.010803
1003	5.042837	0.005000	3.018490	-8.829000	-1.880530	-0.534051	0.016418	-0.354690	-0.020554	0.020413	-0.011429
1004	5.047837	0.005000	3.017468	-8.981948	-1.918748	-0.534164	0.016418	-0.354816	0.000828	0.013429	-0.001004
1005	5.052837	0.005000	3.035313	-8.803593	-1.952778	-0.534277	0.016418	-0.354943	-0.006114	0.019579	-0.009856
1006	5.057837	0.005000	3.027057	-8.795337	-1.962000	-0.534512	0.016418	-0.355069	-0.005769	0.006532	-0.009749
1007	5.062837	0.005000	3.086761	-8.835599	-1.890119	-0.534851	0.016418	-0.355195	-0.014622	0.014213	-0.016837
1008	5.067837	0.005000	2.989470	-8.764980	-1.962000	-0.535190	0.016418	-0.355321	-0.002318	0.011355	-0.015523
1009	5.072837	0.005000	2.965912	-8.804508	-2.001240	-0.535529	0.016418	-0.355447	-0.011040	0.013249	-0.015700
1010	5.077837	0.005000	3.012294	-8.879921	-2.010426	-0.535868	0.016418	-0.355573	-0.004551	0.018455	-0.017414
1011	5.082837	0.005000	3.070464	-8.838744	-1.971744	-0.536207	0.016418	-0.355699	-0.001891	0.019184	-0.011107
1012	5.087837	0.005000	2.943000	-8.946720	-1.826551	-0.536546	0.016418	-0.355826	-0.010468	0.015515	-0.018699
1013	5.092837	0.005000	3.021480	-8.880014	-1.871746	-0.536885	0.016418	-0.355952	-0.004659	0.013095	-0.016130
1014	5.097837	0.005000	3.006902	-8.895149	-1.922760	-0.537224	0.016418	-0.356078	0.001309	0.015885	-0.016341
1015	5.102837	0.005000	3.047366	-8.803114	-1.909406	-0.537562	0.016418	-0.356204	-0.000828	0.019019	-0.012019
1016	5.107837	0.005000	3.050232	-8.725656	-1.937136	-0.537901	0.016418	-0.356330	-0.001724	0.008307	-0.007641
1017	5.112837	0.005000	3.045802	-8.789760	-1.962000	-0.538240	0.016418	-0.356456	-0.009937	0.018794	-0.012776
1018	5.117837	0.005000	3.005539	-8.837582	-1.899461	-0.538579	0.016418	-0.356583	-0.001769	0.008005	-0.013023
1019	5.122837	0.005000	2.976374	-8.767207	-2.051302	-0.538694	0.016418	-0.356750	0.001714	0.016369	-0.012762
1020	5.127837	0.005000	2.956276	-8.728785	-1.940265	-0.538355	0.016418	-0.357003	-0.006141	0.018060	-0.014483
1021	5.132837	0.005000	2.903760	-8.794129	-1.939104	-0.538016	0.016418	-0.357255	-0.013260	0.017070	-0.011289
1022	5.137837	0.005000	2.923074	-8.867629	-1.942074	-0.537677	0.016418	-0.357507	-0.005386	0.012534	-0.015156
1023	5.142837	0.005000	3.002348	-8.829000	-1.921784	-0.537339	0.016418	-0.357759	-0.004780	0.015990	-0.012775
1024	5.147837	0.005000	2.945990	-8.810875	-1.922760	-0.537000	0.016418	-0.358011	-0.011664	0.016303	-0.019875
1025	5.152837	0.005000	2.886452	-8.890172	-1.900828	-0.536661	0.016418	-0.358264	-0.007776	0.009311	-0.009094
1026	5.157837	0.005000	2.914155	-8.946720	-1.912365	-0.536322	0.016418	-0.358516	0.001504	0.018585	-0.018657
1027	5.162837	0.005000	3.052525	-8.954915	-1.844280	-0.535983	0.016418	-0.358768	-0.002138	0.015554	-0.013886
1028	5.167837	0.005000	2.952279	-8.843980	-1.907780	-0.535644	0.016418	-0.359020	0.010959	0.016982	-0.006182
1029	5.172837	0.005000	2.956958	-8.815042	-1.908802	-0.535305	0.016418	-0.359273	-0.012787	0.018603	-0.034502
1030	5.177837	0.005000	2.877936	-8.895071	-1.909344	-0.534966	0.016418	-0.359525	-0.000976	0.005680	-0.008131
1031	5.182837	0.005000	2.967786	-8.855847	-1.988847	-0.534628	0.016418	-0.359777	0.001269	0.018833	-0.007016
1032	5.187837	0.005000	2.970733	-8.812774	-2.107453	-0.534367	0.016392	-0.359971	-0.012364	0.022183	-0.022054
1033	5.192837	0.005000	3.099960	-8.889866	-2.062106	-0.534706	0.016166	-0.359718	-0.001357	0.017613	-0.016742
1034	5.197837	0.005000	3.109751	-9.005619	-2.011108	-0.535045	0.015940	-0.359466	-0.000870	0.019029	-0.019455
1035	5.202837	0.005000	2.999783	-8.937948	-1.970772	-0.535384	0.015714	-0.359214	0.004357	0.016593	-0.010085
1036	5.207837	0.005000	3.052494	-8.884692	-1.891746	-0.535723	0.015488	-0.358962	-0.004967	0.016768	-0.013194
1037	5.212837	0.005000	3.053516	-9.017996	-1.947593	-0.536062	0.015262	-0.358710	-0.006716	0.011969	-0.014493
1038	5.217837	0.005000	2.961773	-8.927947	-1.896035	-0.536401	0.015036	-0.358457	-0.009411	0.019640	-0.019725
1039	5.222837	0.005000	3.094321	-8.851323	-1.844280	-0.536740	0.014810	-0.358205	-0.000189	0.022462	-0.021603
1040	5.227837	0.005000	2.982240	-8.907480	-1.848896	-0.537078	0.014585	-0.357953	-0.001272	0.012828	-0.005451
1041	5.232837	0.005000	2.938926	-8.824926	-1.989017	-0.537417	0.014359	-0.357701	0.002037	0.023145	-0.014202
1042	5.237837	0.005000	2.876727	-8.829000	-1.811144	-0.537756	0.014133	-0.357448	0.004219	0.005669	-0.004248
1043	5.242837	0.005000	3.099960	-8.750520	-1.918701	-0.538095	0.013907	-0.357196	-0.008664	0.015369	-0.016201
1044	5.247837	0.005000	3.099960	-8.750520	-1.882501	-0.538434	0.013681	-0.356944	-0.008552	0.012511	-0.015302
1045	5.252837	0.005000	2.981791	-8.750071	-1.922760	-0.538773	0.013455	-0.356692	-0.003865	0.012866	-0.004995
1046	5.257837	0.005000	2.981667	-8.827280	-1.922760	-0.538602	0.013535	-0.356667	-0.009588	0.018637	-0.017895
1047	5.262837	0.005000	2.978854	-8.827871	-1.923889	-0.538376	0.013648	-0.356667	-0.005270	0.016237	-0.008738
1048	5.267837	0.005000	3.054307	-8.789760	-1.920622	-0.538150	0.013761	-0.356667	-0.003667	0.017867	-0.012215
1049	5.272837	0.005000	3.021480	-8.868240	-1.929081	-0.537925	0.013874	-0.356667	-0.007245	0.016970	-0.015783
1050	5.277837	0.005000	3.057018	-8.829000	-1.926462	-0.537699	0.013987	-0.356667	-0.006969	0.011462	-0.012598
1051	5.282837	0.005000	3.016755	-8.824275	-1.962000	-0.537473	0.014099	-0.356667	0.002524	0.015512	-0.010733
1052	5.287837	0.005000	2.925089	-8.716612	-1.956668	-0.537247	0.014212	-0.356667	-0.015381	0.014298	-0.013427
1053	5.292837	0.005000	3.021480	-8.783470	-1.916470	-0.537021	0.014325	-0.356667	-0.016832	0.017233	-0.026636
1054	5.297837	0.005000	3.060720	-8.829000	-1.986616	-0.536795	0.014438	-0.356667	-0.016005	0.002980	-0.014702
1055	5.302837	0.005000	2.943000	-8.687968	-1.930724	-0.536569	0.014551	-0.356667	-0.015085	0.015510	-0.011592
1056	5.307837	0.005000	3.112524	-8.750520	-1.962000	-0.536343	0.014664	-0.356667	-0.008719	0.015449	-0.018415
1057	5.312837	0.005000	2.982240	-8.819504	-1.991325	-0.536117	0.014777	-0.356667	-0.005937	0.020541	-0.007226
1058	5.317837	0.005000	3.000566	-8.800217	-2.069263	-0.535891	0.014890	-0.356667	-0.013921	0.017852	-0.027609
1059	5.322837	0.005000	2.943000	-8.884522	-2.012719	-0.535821	0.015080	-0.356841	-0.017021	0.012633	-0.018937
1060	5.327837	0.005000	3.036379	-8.934550	-1.989070	-0.535821	0.015306	-0.357093	-0.010365	0.013268	-0.009870
1061	5.332837	0.005000	3.086916	-8.907480	-1.857215	-0.535821	0.015532	-0.357345	-0.014397	0.008928	-0.012858
1062	5.337837	0.005000	2.996306	-8.943761	-1.908694	-0.535821	0.015758	-0.357597	-0.007627	0.016122	-0.011813
1063	5.342837	0.005000	3.080704	-8.882864	-1.883520	-0.535821	0.015984	-0.357849	-0.003516	0.005934	-0.007556
1064	5.347837	0.005000	2.974262	-8.852609	-1.867889	-0.535821	0.016210	-0.358102	-0.003339	0.011090	-0.008152
1065	5.352837	0.005000	3.044067	-8.868240	-1.956067	-0.535821	0.016436	-0.358354	-0.012574	0.019749	-0.013891
1066	5.357837	0.005000	3.056315	-8.985960	-1.844280	-0.535821	0.016662	-0.358606	-0.007886	0.010790	-0.003775
1067	5.362837	0.005000	3.102733	-8.847234	-1.938221	-0.535821	0.016888	-0.358858	-0.011880	0.020752	-0.014592
1068	5.367837	0.005000	3.001248	-8.908703	-1.960777	-0.535821	0.017113	-0.359111	-0.010722	0.013051	-0.017066
1069	5.372837	0.005000	2.962798	-9.025200	-1.942558	-0.535821	0.017339	-0.359363	-0.008244	0.012237	-0.000160
1070	5.377837	0.005000	2.943000	-8.946720	-1.962000	-0.535821	0.017565	-0.359615	-0.008746	0.026031	-0.026656
1071	5.382837	0.005000	2.903760	-8.811123	-1.922760	-0.535821	0.017791	-0.359867	-0.012109	0.013646	-0.007807
1072	5.387837	0.005000	2.965385	-8.868240	-1.962000	-0.536624	0.017589	-0.359223	-0.001969	0.015708	-0.010279
1073	5.392837	0.005000	3.021480	-8.838651	-2.017537	-0.538318	0.016911	-0.357583	-0.005309	0.021262	-0.015459
1074	5.397837	0.005000	2.990931	-8.829000	-2.025205	-0.540012	0.016234	-0.355944	-0.006078	0.010286	-0.008168
1075	5.402837	0.005000	2.986286	-8.843429	-1.972382	-0.541707	0.015556	-0.354304	-0.014220	0.020118	-0.016207
1076	5.407837	0.005000	3.086250	-8.842710	-1.830570	-0.543401	0.014878	-0.352664	-0.009283	0.013783	-0.002454
1077	5.412837	0.005000	3.087272	-8.841688	-1.883520	-0.545095	0.014200	-0.351025	-0.011075	0.015364	-0.004448
1078	5.417837	0.005000	3.021480	-8.856095	-1.895665	-0.546789	0.013523	-0.349385	-0.009468	0.003755	-0.008727
1079	5.422837	0.005000	2.903760	-8.761643	-1.889391	-0.548484	0.012845	-0.347745	-0.003834	0.019097	-0.025322
1080	5.427837	0.005000	2.924203	-8.829000	-1.883520	-0.550178	0.012167	-0.346106	-0.006013	0.008242	-0.026966
