# FOX Logger (IMU file)
# (c) INRIA 2011-2014
# File created from file sensbiotk output
#
# File format:
# id	t	dt	ax	ay	az	mx	my	mz	gx	gy	gz
#
# Units:
#	Time: s
#	Acceleration: m.s^-2
#	Magneto: gauss
#	Gyrometer: rad/s
#
1	0.057587	0.057587	9.378360	-0.313920	-2.699240	-0.071642	-0.141791	-0.843333	0.052540	-0.001143	0.014845
2	0.062587	0.005000	9.337804	-0.351844	-2.703612	-0.071642	-0.142132	-0.842825	0.041052	0.001418	0.003305
3	0.067587	0.005000	9.375304	-0.389344	-2.552128	-0.071642	-0.142474	-0.842317	0.043800	-0.010270	0.016534
4	0.072587	0.005000	9.417600	-0.357532	-2.659576	-0.071642	-0.142815	-0.841808	0.040780	-0.010380	0.020213
5	0.077587	0.005000	9.352613	-0.353160	-2.733307	-0.071642	-0.143157	-0.841300	0.039381	-0.009918	0.036225
6	0.082587	0.005000	9.230991	-0.264212	-2.638671	-0.071642	-0.143498	-0.840792	0.042091	0.003818	0.020913
7	0.087587	0.005000	9.326685	-0.290987	-2.550600	-0.071642	-0.143839	-0.840284	0.056020	0.005078	0.006757
8	0.092587	0.005000	9.363082	-0.337882	-2.544005	-0.071642	-0.144181	-0.839775	0.051617	0.008371	0.010690
9	0.097587	0.005000	9.339120	-0.253562	-2.607962	-0.071642	-0.144522	-0.839267	0.049647	0.008524	0.012777
10	0.102587	0.005000	9.376575	-0.313920	-2.651378	-0.071642	-0.144864	-0.838759	0.060872	0.001424	0.008389
11	0.107587	0.005000	9.433484	-0.345687	-2.691676	-0.071642	-0.145205	-0.838251	0.053713	0.002181	0.010289
12	0.112587	0.005000	9.391521	-0.340120	-2.576921	-0.071642	-0.145546	-0.837743	0.046604	0.007344	0.000853
13	0.117587	0.005000	9.279489	-0.392400	-2.629080	-0.071642	-0.145888	-0.837234	0.045340	0.002715	0.002330
14	0.122587	0.005000	9.331768	-0.345808	-2.597192	-0.071642	-0.146229	-0.836726	0.052483	0.001184	0.001465
15	0.127587	0.005000	9.364836	-0.348652	-2.620064	-0.072848	-0.147776	-0.835769	0.045401	-0.004816	0.007377
16	0.132587	0.005000	9.225666	-0.390267	-2.522025	-0.074213	-0.149483	-0.834753	0.039779	-0.003251	0.003454
17	0.137587	0.005000	9.338409	-0.276102	-2.630502	-0.075578	-0.151189	-0.833737	0.059835	-0.011774	0.001468
18	0.142587	0.005000	9.224955	-0.310365	-2.550600	-0.076942	-0.152895	-0.832721	0.043345	-0.005405	0.007164
19	0.147587	0.005000	9.326322	-0.274680	-2.622681	-0.078307	-0.154601	-0.831705	0.045231	-0.005916	0.003579
20	0.152587	0.005000	9.249128	-0.274680	-2.698317	-0.079672	-0.156307	-0.830689	0.059989	-0.008731	-0.000542
21	0.157587	0.005000	9.263620	-0.274680	-2.614013	-0.081037	-0.158013	-0.829673	0.054672	0.002784	-0.005761
22	0.162587	0.005000	9.329741	-0.274680	-2.550600	-0.082402	-0.159719	-0.828656	0.057563	0.002051	0.005138
23	0.167587	0.005000	9.221400	-0.313920	-2.607161	-0.083767	-0.161425	-0.827640	0.036510	0.004217	0.005386
24	0.172587	0.005000	9.182160	-0.235440	-2.569675	-0.085131	-0.163131	-0.826624	0.053049	-0.006477	0.005338
25	0.177587	0.005000	9.244408	-0.267903	-2.612848	-0.086496	-0.164837	-0.825608	0.048246	-0.003463	0.002529
26	0.182587	0.005000	9.248175	-0.287145	-2.589840	-0.087861	-0.166543	-0.824592	0.043765	0.002258	0.001671
27	0.187587	0.005000	9.307106	-0.285351	-2.589840	-0.089226	-0.168249	-0.823576	0.038489	-0.004221	0.004294
28	0.192587	0.005000	9.268809	-0.243609	-2.629080	-0.089898	-0.168224	-0.823430	0.043225	0.006884	0.006040
29	0.197587	0.005000	9.271290	-0.274680	-2.623755	-0.090353	-0.167655	-0.823557	0.067730	-0.006695	-0.001831
30	0.202587	0.005000	9.150363	-0.316401	-2.629080	-0.090808	-0.167087	-0.823684	0.057678	-0.004331	0.006221
31	0.207587	0.005000	9.299517	-0.314283	-2.512449	-0.091263	-0.166518	-0.823811	0.047801	0.003303	0.005908
32	0.212587	0.005000	9.303087	-0.356367	-2.632287	-0.091718	-0.165949	-0.823938	0.041689	-0.010991	0.012359
33	0.217587	0.005000	9.272742	-0.347109	-2.683356	-0.092173	-0.165381	-0.824065	0.038778	-0.000310	0.006416
34	0.222587	0.005000	9.199746	-0.353160	-2.550600	-0.092628	-0.164812	-0.824192	0.039606	-0.003607	0.014552
35	0.227587	0.005000	9.238070	-0.341875	-2.550600	-0.093083	-0.164243	-0.824319	0.018041	-0.007207	0.010358
36	0.232587	0.005000	9.314009	-0.328049	-2.715396	-0.093538	-0.163675	-0.824446	0.033855	-0.000940	0.007113
37	0.237587	0.005000	9.260640	-0.274680	-2.769076	-0.093993	-0.163106	-0.824573	0.034501	0.006208	0.013884
38	0.242587	0.005000	9.240475	-0.333358	-2.726998	-0.094448	-0.162537	-0.824700	0.027893	-0.000225	0.008134
39	0.247587	0.005000	9.243592	-0.296872	-2.729752	-0.094903	-0.161968	-0.824827	0.032796	-0.002108	0.015566
40	0.252587	0.005000	9.339120	-0.328124	-2.614876	-0.095357	-0.161400	-0.824954	0.026755	0.000386	0.005209
41	0.257587	0.005000	9.283361	-0.313920	-2.656959	-0.095740	-0.161557	-0.824270	0.007540	-0.000723	0.013196
42	0.262587	0.005000	9.265814	-0.344643	-2.598357	-0.096081	-0.162126	-0.823127	0.020932	-0.001321	0.012926
43	0.267587	0.005000	9.187833	-0.274680	-2.584167	-0.096422	-0.162695	-0.821984	0.030376	0.003575	0.009509
44	0.272587	0.005000	9.302709	-0.313920	-2.595498	-0.096764	-0.163263	-0.820841	0.028296	-0.001564	0.015101
45	0.277587	0.005000	9.299895	-0.392370	-2.668320	-0.097105	-0.163832	-0.819698	0.021474	0.005395	0.002672
46	0.282587	0.005000	9.299880	-0.280398	-2.668320	-0.097446	-0.164401	-0.818555	0.030491	-0.005235	-0.002345
47	0.287587	0.005000	9.289412	-0.206668	-2.668320	-0.097787	-0.164969	-0.817412	0.019527	-0.003197	0.001773
48	0.292587	0.005000	9.299880	-0.281608	-2.777962	-0.098129	-0.165538	-0.816269	0.030413	0.000369	0.002710
49	0.297587	0.005000	9.232322	-0.342238	-2.746800	-0.098470	-0.166107	-0.815126	0.036656	0.002840	0.008979
50	0.302587	0.005000	9.235166	-0.288446	-2.735092	-0.098811	-0.166676	-0.813983	0.033723	0.010805	0.006454
51	0.307587	0.005000	9.384910	-0.219095	-2.629080	-0.099152	-0.167244	-0.812839	0.033741	0.002107	0.011680
52	0.312587	0.005000	9.398600	-0.235440	-2.649320	-0.099494	-0.167813	-0.811696	0.023541	-0.001368	0.004105
53	0.317587	0.005000	9.360964	-0.274680	-2.629080	-0.099835	-0.168382	-0.810553	0.039367	0.002506	0.003517
54	0.322587	0.005000	9.363808	-0.171512	-2.536048	-0.099119	-0.168187	-0.810918	0.057324	-0.005398	0.004113
55	0.327587	0.005000	9.366652	-0.196200	-2.550600	-0.097412	-0.167277	-0.812697	0.018967	0.000470	0.003071
56	0.332587	0.005000	9.291015	-0.183554	-2.568329	-0.095706	-0.166367	-0.814476	0.027539	0.002236	0.011715
57	0.337587	0.005000	9.293390	-0.189710	-2.661830	-0.093999	-0.165456	-0.816255	0.037336	-0.007025	0.005896
58	0.342587	0.005000	9.260640	-0.171543	-2.557891	-0.092292	-0.164546	-0.818033	0.045427	-0.000116	0.003620
59	0.347587	0.005000	9.220598	-0.274680	-2.628278	-0.090585	-0.163635	-0.819812	0.033079	0.003272	0.007590
60	0.352587	0.005000	9.219358	-0.237482	-2.664236	-0.088878	-0.162725	-0.821591	0.037043	-0.001430	-0.001906
61	0.357587	0.005000	9.260640	-0.161444	-2.603292	-0.087171	-0.161815	-0.823370	0.036789	0.006300	-0.005805
62	0.362587	0.005000	9.246088	-0.321196	-2.643632	-0.085465	-0.160904	-0.825149	0.036379	0.001828	-0.009147
63	0.367587	0.005000	9.250520	-0.322800	-2.550600	-0.083758	-0.159994	-0.826928	0.037630	-0.004245	0.008552
64	0.372587	0.005000	9.299880	-0.261368	-2.537636	-0.082051	-0.159084	-0.828707	0.037551	0.002079	-0.002019
65	0.377587	0.005000	9.330936	-0.298112	-2.628520	-0.080344	-0.158173	-0.830486	0.038574	-0.004276	0.007575
66	0.382587	0.005000	9.341056	-0.313920	-2.705624	-0.078637	-0.157263	-0.832265	0.026185	0.004813	0.008444
67	0.387587	0.005000	9.318093	-0.295707	-2.647293	-0.077657	-0.156489	-0.833536	0.053057	0.000567	0.000469
68	0.392587	0.005000	9.299880	-0.243941	-2.598341	-0.077771	-0.155919	-0.834045	0.035512	-0.002542	-0.000371
69	0.397587	0.005000	9.339120	-0.222915	-2.604029	-0.077885	-0.155350	-0.834553	0.041088	-0.001472	-0.001831
70	0.402587	0.005000	9.368679	-0.245121	-2.540919	-0.077999	-0.154781	-0.835062	0.039402	-0.002445	0.001528
71	0.407587	0.005000	9.188998	-0.313920	-2.596678	-0.078113	-0.154212	-0.835570	0.026475	0.005870	-0.005364
72	0.412587	0.005000	9.290955	-0.318383	-2.589840	-0.078226	-0.153643	-0.836079	0.043167	-0.006006	-0.003156
73	0.417587	0.005000	9.260640	-0.313920	-2.629080	-0.078340	-0.153074	-0.836587	0.035776	0.010023	-0.001852
74	0.422587	0.005000	9.222625	-0.199876	-2.667095	-0.078454	-0.152504	-0.837096	0.035208	0.002553	-0.005313
75	0.427587	0.005000	9.182160	-0.266542	-2.699422	-0.078568	-0.151935	-0.837604	0.040170	0.010600	-0.002646
76	0.432587	0.005000	9.221400	-0.203113	-2.635993	-0.078682	-0.151366	-0.838113	0.043712	0.020753	0.004773
77	0.437587	0.005000	9.290577	-0.216834	-2.688954	-0.078795	-0.150797	-0.838621	0.055952	0.006325	-0.001314
78	0.442587	0.005000	9.245694	-0.235440	-2.707560	-0.078909	-0.150228	-0.839130	0.054800	0.012644	0.006522
79	0.447587	0.005000	9.275631	-0.274680	-2.728284	-0.079023	-0.149659	-0.839639	0.062146	0.010144	0.003955
80	0.452587	0.005000	9.224970	-0.296085	-2.671890	-0.079104	-0.149320	-0.840000	0.040483	0.013814	0.004839
81	0.457587	0.005000	9.341238	-0.297477	-2.767479	-0.079104	-0.149547	-0.840000	0.025952	0.006672	-0.001624
82	0.462587	0.005000	9.268552	-0.141243	-2.746800	-0.079104	-0.149775	-0.840000	0.040237	0.002911	0.001527
83	0.467587	0.005000	9.313373	-0.209073	-2.708180	-0.079104	-0.150002	-0.840000	0.033478	0.004659	0.003506
84	0.472587	0.005000	9.241459	-0.225411	-2.639109	-0.079104	-0.150230	-0.840000	0.046734	0.016914	-0.003314
85	0.477587	0.005000	9.331466	-0.164614	-2.660666	-0.079104	-0.150457	-0.840000	0.048214	0.008759	0.004514
86	0.482587	0.005000	9.353551	-0.235440	-2.555410	-0.079104	-0.150685	-0.840000	0.050104	0.022076	-0.001080
87	0.487587	0.005000	9.413667	-0.270747	-2.660454	-0.079104	-0.150912	-0.840000	0.061740	-0.000129	0.009002
88	0.492587	0.005000	9.377483	-0.196200	-2.549723	-0.079104	-0.151140	-0.840000	0.041369	0.002994	0.002107
89	0.497587	0.005000	9.371749	-0.225523	-2.583229	-0.079104	-0.151367	-0.840000	0.064336	0.004504	0.000457
90	0.502587	0.005000	9.299880	-0.235440	-2.511360	-0.079104	-0.151594	-0.840000	0.055994	0.011725	0.004146
91	0.507587	0.005000	9.378360	-0.196200	-2.659365	-0.079104	-0.151822	-0.840000	0.066413	-0.005998	-0.003448
92	0.512587	0.005000	9.284238	-0.196200	-2.534958	-0.079104	-0.152049	-0.840000	0.063763	-0.000374	-0.005077
93	0.517587	0.005000	9.299880	-0.196200	-2.624391	-0.079104	-0.152220	-0.839958	0.060388	-0.001869	0.002791
94	0.522587	0.005000	9.282862	-0.274680	-2.663116	-0.079104	-0.152106	-0.839704	0.060174	0.002445	-0.004610
95	0.527587	0.005000	9.339604	-0.235440	-2.589356	-0.079104	-0.151992	-0.839450	0.061405	0.007960	-0.008140
96	0.532587	0.005000	9.266812	-0.218906	-2.596012	-0.079104	-0.151879	-0.839196	0.054233	-0.002266	-0.001437
97	0.537587	0.005000	9.311740	-0.209890	-2.629080	-0.079104	-0.151765	-0.838942	0.059974	0.004074	0.002120
98	0.542587	0.005000	9.299880	-0.285526	-2.622379	-0.079104	-0.151651	-0.838688	0.045130	0.010103	-0.011220
99	0.547587	0.005000	9.229496	-0.266584	-2.629080	-0.079104	-0.151537	-0.838434	0.079696	-0.002384	-0.001106
100	0.552587	0.005000	9.232624	-0.229828	-2.735576	-0.079104	-0.151424	-0.838180	0.063961	0.009454	-0.008252
101	0.557587	0.005000	9.305417	-0.235440	-2.665552	-0.079104	-0.151310	-0.837926	0.066033	-0.002762	-0.006534
102	0.562587	0.005000	9.339196	-0.274604	-2.629080	-0.079104	-0.151196	-0.837672	0.074585	0.002704	-0.000821
103	0.567587	0.005000	9.375440	-0.202039	-2.477959	-0.079104	-0.151082	-0.837418	0.064625	-0.004521	0.002494
104	0.572587	0.005000	9.299880	-0.235440	-2.589840	-0.079104	-0.150969	-0.837164	0.063348	-0.010508	0.013095
105	0.577587	0.005000	9.198437	-0.274680	-2.652043	-0.079104	-0.150855	-0.836910	0.058362	-0.008882	0.010720
106	0.582587	0.005000	9.232382	-0.218165	-2.768765	-0.079094	-0.150741	-0.836678	0.068353	-0.015008	0.004931
107	0.587587	0.005000	9.272227	-0.235440	-2.786040	-0.078867	-0.150627	-0.836932	0.080360	-0.014647	-0.000881
108	0.592587	0.005000	9.355790	-0.173630	-2.724230	-0.078639	-0.150514	-0.837186	0.078656	-0.009281	0.002965
109	0.597587	0.005000	9.202124	-0.196200	-2.649733	-0.078412	-0.150400	-0.837440	0.082425	0.003460	0.008088
110	0.602587	0.005000	9.243289	-0.257329	-2.663782	-0.078184	-0.150286	-0.837694	0.067515	0.007740	0.000916
111	0.607587	0.005000	9.167653	-0.210707	-2.525867	-0.077957	-0.150173	-0.837948	0.054346	-0.004255	0.018883
112	0.612587	0.005000	9.299880	-0.223777	-2.550600	-0.077729	-0.150059	-0.838202	0.057060	0.000137	0.002805
113	0.617587	0.005000	9.356758	-0.205019	-2.577058	-0.077502	-0.149945	-0.838456	0.056863	-0.004899	0.010603
114	0.622587	0.005000	9.333145	-0.190225	-2.601791	-0.077274	-0.149831	-0.838710	0.061715	0.000377	0.009201
115	0.627587	0.005000	9.310635	-0.239025	-2.700390	-0.077047	-0.149718	-0.838964	0.071872	-0.004504	0.006669
116	0.632587	0.005000	9.300621	-0.313179	-2.746800	-0.076819	-0.149604	-0.839218	0.073986	-0.008331	0.004577
117	0.637587	0.005000	9.339120	-0.163268	-2.672525	-0.076592	-0.149490	-0.839472	0.066069	-0.007517	0.002502
118	0.642587	0.005000	9.260640	-0.245333	-2.604680	-0.076364	-0.149377	-0.839726	0.082469	-0.009041	0.013506
119	0.647587	0.005000	9.347198	-0.243231	-2.754878	-0.076137	-0.149263	-0.839980	0.073112	0.000091	0.012416
120	0.652587	0.005000	9.328486	-0.217469	-2.728829	-0.075804	-0.149044	-0.840234	0.064082	0.007051	0.008767
121	0.657587	0.005000	9.325642	-0.221962	-2.811802	-0.075463	-0.148817	-0.840488	0.090377	0.012439	0.009774
122	0.662587	0.005000	9.345715	-0.281275	-2.808958	-0.075122	-0.148589	-0.840742	0.091746	0.019886	0.010061
123	0.667587	0.005000	9.397057	-0.196200	-2.761806	-0.074781	-0.148362	-0.840996	0.091637	0.010478	0.023348
124	0.672587	0.005000	9.435299	-0.196200	-2.646779	-0.074439	-0.148134	-0.841251	0.085360	-0.002014	0.021697
125	0.677587	0.005000	9.393215	-0.186670	-2.707560	-0.074098	-0.147906	-0.841505	0.078004	-0.017062	0.015935
126	0.682587	0.005000	9.299880	-0.184189	-2.758811	-0.073757	-0.147679	-0.841759	0.084511	-0.025718	0.020087
127	0.687587	0.005000	9.260640	-0.156960	-2.834447	-0.073415	-0.147451	-0.842013	0.097138	-0.022171	0.021832
128	0.692587	0.005000	9.182160	-0.196200	-2.812634	-0.073074	-0.147224	-0.842267	0.111950	-0.006793	0.026697
129	0.697587	0.005000	9.231960	-0.313920	-2.861000	-0.072733	-0.146996	-0.842521	0.105443	-0.001621	0.019196
130	0.702587	0.005000	9.299880	-0.271413	-2.902671	-0.072391	-0.146769	-0.842775	0.102435	-0.009659	0.018555
131	0.707587	0.005000	9.224910	-0.156960	-2.789550	-0.072050	-0.146541	-0.843029	0.105921	-0.004669	0.009286
132	0.712587	0.005000	9.334521	-0.196200	-2.889964	-0.071709	-0.146313	-0.843283	0.129100	-0.013377	0.019656
133	0.717587	0.005000	9.197045	-0.299035	-2.857077	-0.071734	-0.146727	-0.843026	0.131198	-0.000694	0.012808
134	0.722587	0.005000	9.182160	-0.342873	-2.767373	-0.071847	-0.147296	-0.842645	0.142796	-0.006848	0.005892
135	0.727587	0.005000	9.208585	-0.300309	-2.655505	-0.071961	-0.147865	-0.842264	0.147929	-0.001727	0.008564
136	0.732587	0.005000	9.182160	-0.274680	-2.668320	-0.072075	-0.148434	-0.841883	0.144448	-0.002104	0.016235
137	0.737587	0.005000	9.184701	-0.295571	-2.728451	-0.072189	-0.149003	-0.841501	0.153138	-0.015574	0.019168
138	0.742587	0.005000	9.203353	-0.335113	-2.807233	-0.072302	-0.149571	-0.841120	0.135032	-0.021551	0.018587
139	0.747587	0.005000	9.158123	-0.305086	-2.801243	-0.072416	-0.150140	-0.840739	0.128439	-0.027057	0.017857
140	0.752587	0.005000	9.157442	-0.353160	-2.786040	-0.072530	-0.150709	-0.840358	0.129078	-0.025603	0.015351
141	0.757587	0.005000	9.171810	-0.333180	-2.746080	-0.072644	-0.151278	-0.839977	0.131351	-0.018420	0.013029
142	0.762587	0.005000	9.253500	-0.360300	-2.693280	-0.072757	-0.151847	-0.839595	0.109898	-0.016657	0.017659
143	0.767587	0.005000	9.260640	-0.322512	-2.707560	-0.072871	-0.152416	-0.839214	0.100416	-0.013270	0.032251
144	0.772587	0.005000	9.183612	-0.348803	-2.629080	-0.072985	-0.152985	-0.838833	0.092975	-0.022093	0.027270
145	0.777587	0.005000	9.221400	-0.235440	-2.553383	-0.073099	-0.153554	-0.838452	0.098662	-0.026097	0.031485
146	0.782587	0.005000	9.217164	-0.239676	-2.624844	-0.073291	-0.153418	-0.838333	0.104150	-0.025046	0.026269
147	0.787587	0.005000	9.234806	-0.228737	-2.733394	-0.073518	-0.152962	-0.838333	0.107246	-0.021551	0.033601
148	0.792587	0.005000	9.230870	-0.265210	-2.737330	-0.073746	-0.152507	-0.838333	0.099633	-0.005729	0.036102
149	0.797587	0.005000	9.285267	-0.196200	-2.773726	-0.073973	-0.152052	-0.838333	0.116741	-0.007171	0.038646
150	0.802587	0.005000	9.221400	-0.250597	-2.753032	-0.074201	-0.151597	-0.838333	0.109652	-0.003559	0.028194
151	0.807587	0.005000	9.160452	-0.139428	-2.650788	-0.074429	-0.151142	-0.838333	0.122972	-0.007377	0.030061
152	0.812587	0.005000	9.279504	-0.136584	-2.726424	-0.074656	-0.150687	-0.838333	0.129636	0.000626	0.032570
153	0.817587	0.005000	9.355140	-0.156960	-2.691540	-0.074884	-0.150232	-0.838333	0.131406	0.005913	0.034429
154	0.822587	0.005000	9.482904	-0.170136	-2.681208	-0.075111	-0.149776	-0.838333	0.135440	-0.001419	0.031076
155	0.827587	0.005000	9.425482	-0.264227	-2.678773	-0.075339	-0.149321	-0.838333	0.137509	-0.001379	0.027140
156	0.832587	0.005000	9.378360	-0.196200	-2.684204	-0.075566	-0.148866	-0.838333	0.143394	-0.018386	0.025408
157	0.837587	0.005000	9.412502	-0.186004	-2.854324	-0.075794	-0.148411	-0.838333	0.141299	-0.007897	0.022854
158	0.842587	0.005000	9.334612	-0.235440	-2.777024	-0.076022	-0.147956	-0.838333	0.155141	0.003264	0.018719
159	0.847587	0.005000	9.260640	-0.235440	-2.667730	-0.076054	-0.147696	-0.838406	0.182625	0.005222	0.020230
160	0.852587	0.005000	9.299880	-0.307052	-2.625646	-0.075940	-0.147582	-0.838533	0.163732	0.008093	0.015026
161	0.857587	0.005000	9.360723	-0.347281	-2.634959	-0.075826	-0.147468	-0.838660	0.173762	0.005157	0.017253
162	0.862587	0.005000	9.330467	-0.244093	-2.581187	-0.075713	-0.147355	-0.838787	0.161458	0.012770	0.016724
163	0.867587	0.005000	9.154417	-0.330167	-2.668320	-0.075599	-0.147241	-0.838914	0.171513	0.008960	0.020737
164	0.872587	0.005000	9.296098	-0.328261	-2.500801	-0.075485	-0.147127	-0.839041	0.170559	0.007674	0.012225
165	0.877587	0.005000	9.326806	-0.358031	-2.607025	-0.075371	-0.147013	-0.839168	0.170457	0.007655	0.005906
166	0.882587	0.005000	9.319684	-0.353160	-2.668320	-0.075258	-0.146900	-0.839295	0.166766	0.001290	0.018192
167	0.887587	0.005000	9.361539	-0.336339	-2.746800	-0.075144	-0.146786	-0.839422	0.169885	-0.003025	0.019213
168	0.892587	0.005000	9.288595	-0.339182	-2.760778	-0.075030	-0.146672	-0.839550	0.178035	-0.002366	0.015345
169	0.897587	0.005000	9.322147	-0.364294	-2.640214	-0.074916	-0.146558	-0.839677	0.172614	0.008191	0.006617
170	0.902587	0.005000	9.425890	-0.305630	-2.693189	-0.074803	-0.146445	-0.839804	0.173408	0.013912	-0.003358
171	0.907587	0.005000	9.406577	-0.190688	-2.741288	-0.074689	-0.146331	-0.839931	0.175131	0.004156	0.009281
172	0.912587	0.005000	9.302951	-0.238511	-2.822209	-0.074575	-0.146062	-0.840405	0.189148	-0.004080	0.018179
173	0.917587	0.005000	9.378133	-0.196200	-2.707560	-0.074461	-0.145607	-0.841294	0.207798	-0.007003	0.017071
174	0.922587	0.005000	9.229251	-0.196200	-2.670937	-0.074348	-0.145152	-0.842183	0.206846	-0.008773	0.007161
175	0.927587	0.005000	9.215939	-0.196200	-2.623619	-0.074234	-0.144697	-0.843072	0.216389	-0.006775	-0.005014
176	0.932587	0.005000	9.299880	-0.274680	-2.723008	-0.074120	-0.144242	-0.843961	0.222749	0.007652	-0.008077
177	0.937587	0.005000	9.282000	-0.178320	-2.725440	-0.074006	-0.143787	-0.844850	0.216401	0.014591	-0.019832
178	0.942587	0.005000	9.234924	-0.119051	-2.707560	-0.073893	-0.143332	-0.845740	0.220410	0.020286	-0.022228
179	0.947587	0.005000	9.283512	-0.147097	-2.596345	-0.073779	-0.142877	-0.846629	0.238207	0.027999	-0.038525
180	0.952587	0.005000	9.200555	-0.196200	-2.648292	-0.073665	-0.142422	-0.847518	0.253429	0.011995	-0.044623
181	0.957587	0.005000	9.299880	-0.309049	-2.594711	-0.073551	-0.141967	-0.848407	0.278138	0.019801	-0.037260
182	0.962587	0.005000	9.353461	-0.392400	-2.607962	-0.073437	-0.141512	-0.849296	0.261544	0.020089	-0.036229
183	0.967587	0.005000	9.327169	-0.419689	-2.668320	-0.073324	-0.141057	-0.850185	0.259954	0.005441	-0.038247
184	0.972587	0.005000	9.311800	-0.422533	-2.795147	-0.073210	-0.140602	-0.851074	0.266512	-0.008477	-0.038546
185	0.977587	0.005000	9.175897	-0.458355	-2.726348	-0.073210	-0.140488	-0.851625	0.260647	0.003070	-0.039616
186	0.982587	0.005000	9.224819	-0.388981	-2.932744	-0.073437	-0.141057	-0.851498	0.231283	0.018857	-0.040747
187	0.987587	0.005000	9.339120	-0.353160	-2.746800	-0.073665	-0.141626	-0.851370	0.238492	0.021445	-0.047820
188	0.992587	0.005000	9.189448	-0.315742	-2.709382	-0.073893	-0.142195	-0.851243	0.269062	0.008604	-0.038891
189	0.997587	0.005000	9.251352	-0.383112	-2.751444	-0.074120	-0.142764	-0.851116	0.271950	0.020096	-0.051188
190	1.002587	0.005000	9.221400	-0.384912	-2.644056	-0.074348	-0.143333	-0.850989	0.300070	0.006523	-0.045905
191	1.007587	0.005000	9.231732	-0.460548	-2.841769	-0.074575	-0.143902	-0.850862	0.307328	0.009851	-0.055166
192	1.012587	0.005000	9.168662	-0.392400	-2.878018	-0.074803	-0.144471	-0.850735	0.315772	0.008489	-0.053583
193	1.017587	0.005000	9.001526	-0.353160	-2.903760	-0.075030	-0.145040	-0.850608	0.299024	0.031648	-0.048958
194	1.022587	0.005000	9.066860	-0.373990	-2.966251	-0.075258	-0.145609	-0.850481	0.333406	0.046595	-0.056838
195	1.027587	0.005000	9.164174	-0.410386	-2.871055	-0.075486	-0.146178	-0.850354	0.351736	0.062180	-0.053579
196	1.032587	0.005000	9.103680	-0.479835	-2.677275	-0.075713	-0.146746	-0.850227	0.336588	0.074628	-0.051658
197	1.037587	0.005000	9.091382	-0.495477	-2.641378	-0.075941	-0.147315	-0.850100	0.343944	0.083383	-0.050249
198	1.042587	0.005000	9.034655	-0.489789	-2.677775	-0.076144	-0.147638	-0.850028	0.344879	0.079743	-0.041220
199	1.047587	0.005000	9.149611	-0.477571	-2.760181	-0.076257	-0.147069	-0.850155	0.323759	0.083129	-0.035980
200	1.052587	0.005000	9.221400	-0.549360	-2.864520	-0.076371	-0.146500	-0.850282	0.311668	0.102744	-0.031907
201	1.057587	0.005000	9.184943	-0.591383	-2.860345	-0.076485	-0.145931	-0.850409	0.321418	0.123395	-0.036870
202	1.062587	0.005000	9.260640	-0.704868	-2.973527	-0.076599	-0.145362	-0.850536	0.291032	0.126107	-0.014053
203	1.067587	0.005000	9.299880	-0.736968	-2.908056	-0.076713	-0.144793	-0.850663	0.263745	0.114192	0.000189
204	1.072587	0.005000	9.299880	-0.745560	-2.871660	-0.076827	-0.144224	-0.850790	0.264776	0.092853	0.009210
205	1.077587	0.005000	9.329832	-0.735576	-2.746800	-0.076940	-0.143655	-0.850917	0.242683	0.082746	0.009437
206	1.082587	0.005000	9.339120	-0.745560	-2.705442	-0.077054	-0.143087	-0.851044	0.239353	0.081404	0.020267
207	1.087587	0.005000	9.315098	-0.824040	-2.620276	-0.077168	-0.142518	-0.851171	0.240934	0.074596	0.022989
208	1.092587	0.005000	9.321058	-0.820924	-2.511360	-0.077282	-0.141949	-0.851298	0.216409	0.088074	0.024308
209	1.097587	0.005000	9.297308	-0.693129	-2.553172	-0.077396	-0.141380	-0.851426	0.197981	0.086217	0.042361
210	1.102587	0.005000	9.378360	-0.636069	-2.652815	-0.077510	-0.140811	-0.851553	0.167841	0.086861	0.047614
211	1.107587	0.005000	9.443725	-0.588600	-2.563609	-0.077601	-0.140299	-0.851680	0.197481	0.088259	0.044013
212	1.112587	0.005000	9.368089	-0.441911	-2.431034	-0.077487	-0.140299	-0.851807	0.188843	0.078163	0.042372
213	1.117587	0.005000	9.299880	-0.581173	-2.307733	-0.077373	-0.140299	-0.851934	0.179294	0.085539	0.034428
214	1.122587	0.005000	9.256056	-0.544776	-2.319744	-0.077259	-0.140299	-0.852061	0.186994	0.076566	0.026239
215	1.127587	0.005000	9.223161	-0.551121	-2.395401	-0.077145	-0.140299	-0.852188	0.172843	0.082385	0.013521
216	1.132587	0.005000	9.260640	-0.434181	-2.548694	-0.077031	-0.140299	-0.852315	0.156743	0.093222	0.014133
217	1.137587	0.005000	9.185639	-0.506641	-2.432880	-0.076918	-0.140299	-0.852442	0.116248	0.118516	0.018439
218	1.142587	0.005000	9.274587	-0.405046	-2.229056	-0.076804	-0.140299	-0.852569	0.125617	0.114400	0.019428
219	1.147587	0.005000	9.278974	-0.323087	-2.414546	-0.076690	-0.140299	-0.852696	0.127877	0.105504	0.032882
220	1.152587	0.005000	9.288323	-0.420083	-2.377514	-0.076576	-0.140299	-0.852823	0.139021	0.088624	0.016701
221	1.157587	0.005000	9.378360	-0.392400	-2.354400	-0.076462	-0.140299	-0.852950	0.127819	0.082403	0.034149
222	1.162587	0.005000	9.417600	-0.431640	-2.388890	-0.076348	-0.140299	-0.853077	0.111392	0.085508	0.030530
223	1.167587	0.005000	9.455902	-0.372311	-2.256769	-0.076235	-0.140299	-0.853204	0.102264	0.088224	0.027248
224	1.172587	0.005000	9.417600	-0.336384	-2.214216	-0.076121	-0.140299	-0.853331	0.098344	0.079238	0.016620
225	1.177587	0.005000	9.431532	-0.299988	-2.275920	-0.076231	-0.140634	-0.854332	0.114922	0.062898	0.019072
226	1.182587	0.005000	9.406512	-0.342072	-2.326248	-0.076345	-0.140975	-0.855348	0.139684	0.048156	0.019496
227	1.187587	0.005000	9.448596	-0.274680	-2.346156	-0.076458	-0.141316	-0.856363	0.131095	0.061118	0.009926
228	1.192587	0.005000	9.417600	-0.313920	-2.366108	-0.076572	-0.141657	-0.857379	0.157098	0.059937	-0.000959
229	1.197587	0.005000	9.345141	-0.313920	-2.348379	-0.076686	-0.141999	-0.858395	0.164270	0.079594	-0.010996
230	1.202587	0.005000	9.417766	-0.274846	-2.236514	-0.076799	-0.142340	-0.859410	0.143161	0.093401	-0.016737
231	1.207587	0.005000	9.347153	-0.387045	-2.270565	-0.076913	-0.142681	-0.860426	0.144085	0.093655	-0.022104
232	1.212587	0.005000	9.406557	-0.465359	-2.326203	-0.077027	-0.143022	-0.861442	0.136475	0.095286	-0.032732
233	1.217587	0.005000	9.330755	-0.423275	-2.455389	-0.077141	-0.143363	-0.862457	0.132862	0.088489	-0.027227
234	1.222587	0.005000	9.417600	-0.448461	-2.455299	-0.077254	-0.143704	-0.863473	0.118957	0.084873	-0.033306
235	1.227587	0.005000	9.380366	-0.482623	-2.381897	-0.077368	-0.144045	-0.864488	0.120487	0.078090	-0.036834
236	1.232587	0.005000	9.401172	-0.386016	-2.269536	-0.077482	-0.144386	-0.865504	0.129503	0.086383	-0.039238
237	1.237587	0.005000	9.378360	-0.353160	-2.433576	-0.077596	-0.144727	-0.866520	0.107979	0.086134	-0.034372
238	1.242587	0.005000	9.451848	-0.365292	-2.528484	-0.077807	-0.144679	-0.866667	0.100078	0.065747	-0.029473
239	1.247587	0.005000	9.403320	-0.403080	-2.457840	-0.078034	-0.144565	-0.866667	0.095750	0.065089	-0.034469
240	1.252587	0.005000	9.394460	-0.427110	-2.421310	-0.078262	-0.144451	-0.866667	0.114454	0.075288	-0.037499
241	1.257587	0.005000	9.360268	-0.470880	-2.363446	-0.078489	-0.144337	-0.866667	0.088992	0.064455	-0.029458
242	1.262587	0.005000	9.312284	-0.419236	-2.465918	-0.078717	-0.144224	-0.866667	0.071255	0.040133	-0.032505
243	1.267587	0.005000	9.339120	-0.313920	-2.393640	-0.078944	-0.144110	-0.866667	0.104894	0.047778	-0.031241
244	1.272587	0.005000	9.221929	-0.314449	-2.315160	-0.079172	-0.143996	-0.866667	0.113850	0.050988	-0.037440
245	1.277587	0.005000	9.372713	-0.390518	-2.315160	-0.079400	-0.143882	-0.866667	0.116037	0.036516	-0.035591
246	1.282587	0.005000	9.373655	-0.470880	-2.241385	-0.079627	-0.143769	-0.866667	0.111812	0.043779	-0.034425
247	1.287587	0.005000	9.410052	-0.502572	-2.275920	-0.079855	-0.143655	-0.866667	0.105312	0.042109	-0.038641
248	1.292587	0.005000	9.349512	-0.481272	-2.440943	-0.080082	-0.143541	-0.866667	0.107361	0.040834	-0.029586
249	1.297587	0.005000	9.313116	-0.470880	-2.537364	-0.080310	-0.143427	-0.866667	0.097735	0.044406	-0.031456
250	1.302587	0.005000	9.392519	-0.588600	-2.536441	-0.080538	-0.143314	-0.866667	0.100025	0.034461	-0.026815
251	1.307587	0.005000	9.318335	-0.607055	-2.573714	-0.080765	-0.143116	-0.866479	0.066122	0.033136	-0.034075
252	1.312587	0.005000	9.278581	-0.585242	-2.625722	-0.080992	-0.142889	-0.866225	0.052129	0.031795	-0.024238
253	1.317587	0.005000	9.305931	-0.573503	-2.559646	-0.081220	-0.142661	-0.865971	0.036828	0.040668	-0.021033
254	1.322587	0.005000	9.339120	-0.510120	-2.550600	-0.081447	-0.142434	-0.865717	0.035617	0.036074	-0.013141
255	1.327587	0.005000	9.318698	-0.500711	-2.392037	-0.081675	-0.142206	-0.865463	0.038376	0.023911	-0.008376
256	1.332587	0.005000	9.378360	-0.463861	-2.486158	-0.081902	-0.141979	-0.865209	0.015592	0.008952	-0.000162
257	1.337587	0.005000	9.409250	-0.435815	-2.542250	-0.082130	-0.141751	-0.864955	0.023010	0.006844	-0.004683
258	1.342587	0.005000	9.336458	-0.508789	-2.317822	-0.082357	-0.141524	-0.864701	0.016264	0.009691	0.002853
259	1.347587	0.005000	9.222913	-0.395425	-2.393640	-0.082585	-0.141296	-0.864447	0.024562	-0.005106	-0.003519
260	1.352587	0.005000	9.251927	-0.396757	-2.533173	-0.082812	-0.141069	-0.864193	0.023809	-0.004276	0.011046
261	1.357587	0.005000	9.228132	-0.445103	-2.511360	-0.083040	-0.140841	-0.863939	0.040031	-0.005724	-0.001485
262	1.362587	0.005000	9.329544	-0.422064	-2.530511	-0.083267	-0.140614	-0.863685	0.034306	-0.012194	-0.001924
263	1.367587	0.005000	9.314281	-0.404819	-2.523779	-0.083495	-0.140386	-0.863431	0.013748	0.002933	-0.003886
264	1.372587	0.005000	9.275903	-0.416377	-2.511360	-0.083302	-0.140579	-0.863411	0.015540	0.000139	-0.008516
265	1.377587	0.005000	9.239507	-0.428615	-2.472120	-0.082847	-0.141034	-0.863538	0.023705	0.003549	0.002899
266	1.382587	0.005000	9.278929	-0.428978	-2.490409	-0.082392	-0.141489	-0.863665	0.020010	-0.000927	0.000083
267	1.387587	0.005000	9.229389	-0.369138	-2.526986	-0.081937	-0.141944	-0.863792	0.009355	-0.000100	0.004060
268	1.392587	0.005000	9.260564	-0.300865	-2.524490	-0.081482	-0.142399	-0.863919	0.011833	-0.001379	0.002637
269	1.397587	0.005000	9.398782	-0.303709	-2.364611	-0.081027	-0.142854	-0.864046	0.035753	0.003695	0.000712
270	1.402587	0.005000	9.370993	-0.367894	-2.386273	-0.080572	-0.143309	-0.864173	0.047020	0.001346	-0.003525
271	1.407587	0.005000	9.295357	-0.475403	-2.441926	-0.080117	-0.143764	-0.864300	0.049671	-0.014154	-0.001546
272	1.412587	0.005000	9.187258	-0.390701	-2.513059	-0.079662	-0.144219	-0.864428	0.014032	-0.010780	0.004240
273	1.417587	0.005000	9.222792	-0.391704	-2.589144	-0.079207	-0.144674	-0.864555	0.004285	0.002522	-0.004288
274	1.422587	0.005000	9.328501	-0.424560	-2.486279	-0.078752	-0.145129	-0.864682	0.018750	-0.003090	0.004650
275	1.427587	0.005000	9.371976	-0.398784	-2.406407	-0.078297	-0.145584	-0.864809	0.018298	-0.004082	-0.007136
276	1.432587	0.005000	9.251412	-0.203098	-2.305932	-0.077842	-0.146039	-0.864936	0.015514	-0.013948	-0.005240
277	1.437587	0.005000	9.350863	-0.223697	-2.358411	-0.077724	-0.146269	-0.865000	0.028378	-0.014400	0.004990
278	1.442587	0.005000	9.246194	-0.299474	-2.472120	-0.077952	-0.146269	-0.865000	0.024076	-0.011703	-0.004689
279	1.447587	0.005000	9.299880	-0.331210	-2.319819	-0.078179	-0.146269	-0.865000	0.020964	-0.014651	0.002298
280	1.452587	0.005000	9.300909	-0.392400	-2.372477	-0.078407	-0.146269	-0.865000	0.024403	-0.009003	-0.001113
281	1.457587	0.005000	9.283618	-0.424924	-2.481665	-0.078635	-0.146269	-0.865000	0.026421	-0.015699	0.007514
282	1.462587	0.005000	9.195578	-0.418222	-2.485538	-0.078862	-0.146269	-0.865000	0.040307	-0.002136	0.002086
283	1.467587	0.005000	9.360515	-0.335315	-2.493515	-0.079090	-0.146269	-0.865000	0.053666	-0.000170	0.005781
284	1.472587	0.005000	9.376681	-0.344976	-2.463936	-0.079317	-0.146269	-0.865000	0.031168	-0.000866	0.010321
285	1.477587	0.005000	9.299880	-0.269340	-2.539920	-0.079545	-0.146269	-0.865000	0.023870	-0.006434	0.010744
286	1.482587	0.005000	9.299880	-0.313920	-2.356896	-0.079772	-0.146269	-0.865000	0.028045	-0.017394	0.004595
287	1.487587	0.005000	9.377664	-0.313920	-2.315856	-0.080000	-0.146269	-0.865000	0.032438	-0.016074	0.002392
288	1.492587	0.005000	9.335928	-0.353160	-2.315160	-0.080228	-0.146269	-0.865000	0.038757	-0.000582	0.002159
289	1.497587	0.005000	9.405528	-0.313920	-2.315160	-0.080455	-0.146269	-0.865000	0.026971	-0.007371	0.010889
290	1.502587	0.005000	9.308291	-0.344749	-2.446888	-0.081069	-0.146827	-0.863994	0.026749	-0.001492	0.010779
291	1.507587	0.005000	9.417600	-0.285935	-2.511360	-0.082321	-0.148306	-0.861326	0.019162	-0.003519	0.012847
292	1.512587	0.005000	9.428643	-0.274680	-2.472120	-0.083572	-0.149785	-0.858657	0.024539	-0.002731	0.001751
293	1.517587	0.005000	9.333765	-0.252382	-2.455178	-0.084824	-0.151265	-0.855989	0.034551	-0.001818	0.016471
294	1.522587	0.005000	9.280094	-0.333706	-2.354733	-0.086076	-0.152744	-0.853320	0.020860	0.002925	0.017148
295	1.527587	0.005000	9.417600	-0.291744	-2.467007	-0.087327	-0.154223	-0.850652	0.012111	-0.008408	0.020426
296	1.532587	0.005000	9.406799	-0.353160	-2.554019	-0.088579	-0.155702	-0.847984	0.014412	-0.008552	0.031377
297	1.537587	0.005000	9.434089	-0.353160	-2.606329	-0.089831	-0.157182	-0.845315	0.020062	-0.014068	0.031050
298	1.542587	0.005000	9.322056	-0.392400	-2.533536	-0.091083	-0.158661	-0.842647	0.034196	-0.017416	0.033016
299	1.547587	0.005000	9.266797	-0.419326	-2.360557	-0.092334	-0.160140	-0.839978	0.013218	-0.010364	0.029150
300	1.552587	0.005000	9.296567	-0.353160	-2.383701	-0.093586	-0.161620	-0.837310	0.007493	-0.012721	0.029408
301	1.557587	0.005000	9.339120	-0.313451	-2.395516	-0.094838	-0.163099	-0.834641	0.006124	-0.013699	0.033953
302	1.562587	0.005000	9.302255	-0.274680	-2.440005	-0.096089	-0.164578	-0.831973	0.023807	-0.018770	0.028217
303	1.567587	0.005000	9.305099	-0.274680	-2.500922	-0.097104	-0.165702	-0.830397	0.003999	-0.008698	0.035177
304	1.572587	0.005000	9.316006	-0.258554	-2.581777	-0.097445	-0.165815	-0.831922	0.023062	-0.005346	0.032833
305	1.577587	0.005000	9.339120	-0.293014	-2.629080	-0.097787	-0.165929	-0.833447	0.017967	-0.007231	0.035789
306	1.582587	0.005000	9.260640	-0.287977	-2.655674	-0.098128	-0.166043	-0.834972	0.010613	0.003692	0.029733
307	1.587587	0.005000	9.316021	-0.274680	-2.432880	-0.098470	-0.166157	-0.836497	0.024452	-0.010210	0.024732
308	1.592587	0.005000	9.301151	-0.275951	-2.472120	-0.098811	-0.166270	-0.838021	0.037841	-0.010322	0.028648
309	1.597587	0.005000	9.282469	-0.270263	-2.472120	-0.099152	-0.166384	-0.839546	0.049278	-0.010666	0.030204
310	1.602587	0.005000	9.363792	-0.328488	-2.511360	-0.099494	-0.166498	-0.841071	0.049425	-0.013367	0.028707
311	1.607587	0.005000	9.354913	-0.408193	-2.546531	-0.099835	-0.166612	-0.842596	0.051850	0.004552	0.015766
312	1.612587	0.005000	9.269989	-0.332617	-2.500166	-0.100177	-0.166725	-0.844121	0.054784	0.007219	0.007583
313	1.617587	0.005000	9.240914	-0.431640	-2.524369	-0.100518	-0.166839	-0.845645	0.046970	0.007656	0.018040
314	1.622587	0.005000	9.260640	-0.392400	-2.468459	-0.100859	-0.166953	-0.847170	0.047871	-0.005000	0.019208
315	1.627587	0.005000	9.340754	-0.353160	-2.474571	-0.101201	-0.167067	-0.848695	0.049369	-0.012070	0.025974
316	1.632587	0.005000	9.231535	-0.315947	-2.552627	-0.101247	-0.166885	-0.850055	0.034587	-0.009438	0.020674
317	1.637587	0.005000	9.295009	-0.387529	-2.545729	-0.099540	-0.164951	-0.850436	0.042805	-0.004492	0.014714
318	1.642587	0.005000	9.299880	-0.360875	-2.613650	-0.097833	-0.163016	-0.850817	0.047212	0.003652	0.008699
319	1.647587	0.005000	9.368148	-0.353160	-2.521572	-0.096126	-0.161082	-0.851199	0.043182	0.004821	0.010162
320	1.652587	0.005000	9.260201	-0.379466	-2.459186	-0.094419	-0.159147	-0.851580	0.057177	0.007518	0.025041
321	1.657587	0.005000	9.307565	-0.392400	-2.440565	-0.092712	-0.157213	-0.851961	0.053161	0.006444	0.021270
322	1.662587	0.005000	9.318502	-0.413018	-2.511360	-0.091005	-0.155279	-0.852342	0.040772	-0.005150	0.027666
323	1.667587	0.005000	9.399826	-0.396091	-2.511360	-0.089298	-0.153344	-0.852723	0.048249	-0.001973	0.021954
324	1.672587	0.005000	9.324189	-0.368091	-2.604771	-0.087591	-0.151410	-0.853105	0.066236	-0.004193	0.023319
325	1.677587	0.005000	9.354187	-0.380313	-2.511360	-0.085885	-0.149475	-0.853486	0.067631	0.000627	0.025029
326	1.682587	0.005000	9.310030	-0.353160	-2.452727	-0.084178	-0.147541	-0.853867	0.058380	-0.000147	0.018485
327	1.687587	0.005000	9.221400	-0.320773	-2.400493	-0.082471	-0.145606	-0.854248	0.058440	0.000305	0.018428
328	1.692587	0.005000	9.225409	-0.309911	-2.432880	-0.080764	-0.143672	-0.854629	0.065991	0.001681	0.016458
329	1.697587	0.005000	9.182160	-0.391235	-2.510195	-0.079110	-0.141807	-0.855007	0.080913	-0.002303	0.020120
330	1.702587	0.005000	9.219721	-0.353160	-2.434559	-0.079338	-0.142375	-0.855261	0.062146	-0.001660	0.011855
331	1.707587	0.005000	9.269686	-0.313920	-2.476643	-0.079565	-0.142944	-0.855515	0.074496	0.002790	0.009880
332	1.712587	0.005000	9.370993	-0.282047	-2.526094	-0.079793	-0.143513	-0.855769	0.073886	0.008673	0.018015
333	1.717587	0.005000	9.309740	-0.343300	-2.609560	-0.080020	-0.144082	-0.856023	0.060219	0.012547	0.016966
334	1.722587	0.005000	9.273226	-0.367228	-2.603908	-0.080248	-0.144650	-0.856277	0.074166	0.001665	0.017272
335	1.727587	0.005000	9.260640	-0.392400	-2.542220	-0.080476	-0.145219	-0.856531	0.055082	0.020157	0.009546
336	1.732587	0.005000	9.299880	-0.413366	-2.532326	-0.080703	-0.145788	-0.856785	0.077791	0.013643	0.002799
337	1.737587	0.005000	9.339120	-0.353160	-2.475115	-0.080931	-0.146356	-0.857039	0.068259	0.014000	0.003532
338	1.742587	0.005000	9.308563	-0.368438	-2.456842	-0.081158	-0.146925	-0.857293	0.074861	0.005957	0.005420
339	1.747587	0.005000	9.219464	-0.497685	-2.484555	-0.081386	-0.147494	-0.857547	0.078545	0.007441	0.012394
340	1.752587	0.005000	9.329417	-0.500417	-2.511360	-0.081613	-0.148063	-0.857801	0.074860	0.011080	0.011171
341	1.757587	0.005000	9.307081	-0.438841	-2.543399	-0.081841	-0.148631	-0.858055	0.066791	0.010883	0.004496
342	1.762587	0.005000	9.365290	-0.353160	-2.511360	-0.082068	-0.149200	-0.858309	0.052998	0.018096	0.012671
343	1.767587	0.005000	9.260640	-0.392400	-2.515898	-0.081987	-0.149254	-0.858793	0.058344	0.008667	0.005484
344	1.772587	0.005000	9.184822	-0.392400	-2.591171	-0.081873	-0.149254	-0.859301	0.065667	0.006919	0.010093
345	1.777587	0.005000	9.248115	-0.505945	-2.441230	-0.081759	-0.149254	-0.859810	0.065055	0.005803	-0.006718
346	1.782587	0.005000	9.299880	-0.431640	-2.563640	-0.081646	-0.149254	-0.860318	0.080922	0.005261	0.007728
347	1.787587	0.005000	9.329726	-0.353160	-2.599234	-0.081532	-0.149254	-0.860826	0.070291	0.018578	0.001720
348	1.792587	0.005000	9.326882	-0.365398	-2.592366	-0.081418	-0.149254	-0.861334	0.071256	0.010962	0.005984
349	1.797587	0.005000	9.363278	-0.313920	-2.511360	-0.081304	-0.149254	-0.861843	0.058021	0.009317	0.011090
350	1.802587	0.005000	9.295976	-0.388496	-2.515264	-0.081190	-0.149254	-0.862351	0.067741	0.002261	0.011789
351	1.807587	0.005000	9.260640	-0.373461	-2.570901	-0.081076	-0.149254	-0.862859	0.057123	0.006839	0.007039
352	1.812587	0.005000	9.332071	-0.415545	-2.605935	-0.080963	-0.149254	-0.863368	0.049544	0.012764	-0.001893
353	1.817587	0.005000	9.391611	-0.418903	-2.720297	-0.080849	-0.149254	-0.863876	0.061602	0.010305	0.001742
354	1.822587	0.005000	9.250232	-0.431640	-2.597857	-0.080735	-0.149254	-0.864384	0.063790	0.008516	0.005972
355	1.827587	0.005000	9.268657	-0.321937	-2.448068	-0.080621	-0.149254	-0.864893	0.084595	0.003324	-0.001580
356	1.832587	0.005000	9.221400	-0.363507	-2.383293	-0.080687	-0.149344	-0.865100	0.050082	0.009894	0.006026
357	1.837587	0.005000	9.184490	-0.394730	-2.393640	-0.080800	-0.149457	-0.865227	0.070989	0.012041	0.001279
358	1.842587	0.005000	9.260126	-0.431640	-2.393640	-0.080914	-0.149571	-0.865354	0.069798	0.011390	0.007678
359	1.847587	0.005000	9.218042	-0.503404	-2.311802	-0.081028	-0.149685	-0.865481	0.067262	0.002755	0.005745
360	1.852587	0.005000	9.411398	-0.549360	-2.459716	-0.081142	-0.149798	-0.865608	0.066760	0.002313	0.002225
361	1.857587	0.005000	9.395722	-0.558041	-2.472120	-0.081256	-0.149912	-0.865735	0.065782	0.013553	0.001306
362	1.862587	0.005000	9.433998	-0.577179	-2.460699	-0.081369	-0.150026	-0.865862	0.058349	0.011973	-0.001319
363	1.867587	0.005000	9.506790	-0.535095	-2.443590	-0.081483	-0.150140	-0.865989	0.050527	0.011699	0.005924
364	1.872587	0.005000	9.439731	-0.527229	-2.489229	-0.081597	-0.150253	-0.866116	0.033497	0.008055	0.011343
365	1.877587	0.005000	9.417600	-0.470880	-2.491407	-0.081711	-0.150367	-0.866243	0.038048	0.000039	0.010126
366	1.882587	0.005000	9.427690	-0.526563	-2.567043	-0.081824	-0.150481	-0.866371	0.018435	-0.013587	0.009400
367	1.887587	0.005000	9.482027	-0.417587	-2.629080	-0.081938	-0.150594	-0.866498	0.035214	-0.021269	0.004212
368	1.892587	0.005000	9.288671	-0.498911	-2.550600	-0.082052	-0.150708	-0.866625	0.026603	-0.007551	0.010311
369	1.897587	0.005000	9.269005	-0.384035	-2.525504	-0.081938	-0.150594	-0.866159	0.045457	-0.002442	0.002205
370	1.902587	0.005000	9.344641	-0.324963	-2.477641	-0.081711	-0.150367	-0.865397	0.024324	0.006109	0.005862
371	1.907587	0.005000	9.305300	-0.386980	-2.511360	-0.081483	-0.150139	-0.864634	0.040170	0.008178	-0.003734
372	1.912587	0.005000	9.338817	-0.431035	-2.511663	-0.081255	-0.149912	-0.863872	0.034780	0.004083	-0.003077
373	1.917587	0.005000	9.226483	-0.353160	-2.550600	-0.081028	-0.149684	-0.863110	0.040022	0.012143	-0.003168
374	1.922587	0.005000	9.299880	-0.392400	-2.500589	-0.080800	-0.149457	-0.862347	0.036931	0.015990	-0.004308
375	1.927587	0.005000	9.361902	-0.431640	-2.480349	-0.080572	-0.149229	-0.861585	0.046550	0.005028	-0.000651
376	1.932587	0.005000	9.332111	-0.431640	-2.500616	-0.080345	-0.149001	-0.860822	0.039635	0.020312	-0.009656
377	1.937587	0.005000	9.417600	-0.378937	-2.561764	-0.080117	-0.148774	-0.860060	0.042366	0.022613	0.005642
378	1.942587	0.005000	9.378360	-0.376093	-2.560281	-0.079889	-0.148546	-0.859298	0.023373	0.013296	0.001966
379	1.947587	0.005000	9.475991	-0.411551	-2.551538	-0.079662	-0.148319	-0.858535	0.043149	0.007458	0.016646
380	1.952587	0.005000	9.427100	-0.370405	-2.516110	-0.079434	-0.148091	-0.857773	0.022718	0.009458	0.011275
381	1.957587	0.005000	9.299880	-0.456010	-2.432880	-0.079207	-0.147864	-0.857010	0.022574	-0.001760	0.016555
382	1.962587	0.005000	9.339120	-0.404426	-2.547438	-0.078979	-0.147636	-0.856946	0.041310	-0.002342	0.008149
383	1.967587	0.005000	9.260640	-0.323102	-2.589840	-0.078751	-0.147408	-0.857455	0.026211	-0.001639	0.009135
384	1.972587	0.005000	9.221400	-0.405077	-2.544262	-0.078524	-0.147181	-0.857963	0.032047	-0.003369	0.005084
385	1.977587	0.005000	9.224894	-0.510120	-2.543611	-0.078296	-0.146953	-0.858471	0.019808	0.002520	0.014639
386	1.982587	0.005000	9.258401	-0.430521	-2.589840	-0.078069	-0.146726	-0.858979	0.028862	0.008243	0.010963
387	1.987587	0.005000	9.219675	-0.392400	-2.477294	-0.077841	-0.146498	-0.859487	0.020246	0.008393	0.014415
388	1.992587	0.005000	9.216832	-0.431640	-2.324297	-0.077613	-0.146270	-0.859996	0.014173	0.014173	0.009404
389	1.997587	0.005000	9.165157	-0.392400	-2.393640	-0.077386	-0.146043	-0.860504	0.032975	0.006060	0.011352
390	2.002587	0.005000	9.231656	-0.353160	-2.335673	-0.077158	-0.145815	-0.861012	0.047927	0.013999	0.006298
391	2.007587	0.005000	9.273680	-0.379360	-2.367440	-0.076931	-0.145588	-0.861520	0.039247	0.013092	0.006921
392	2.012587	0.005000	9.260640	-0.392400	-2.472120	-0.076703	-0.145360	-0.862029	0.031669	0.012930	0.013710
393	2.017587	0.005000	9.218828	-0.452546	-2.493026	-0.076476	-0.145133	-0.862537	0.037856	0.015485	0.012329
394	2.022587	0.005000	9.160982	-0.413578	-2.611018	-0.076248	-0.144905	-0.863045	0.048485	0.005166	0.011072
395	2.027587	0.005000	9.221400	-0.401204	-2.605058	-0.076168	-0.144776	-0.863333	0.015342	0.019242	0.004802
396	2.032587	0.005000	9.275132	-0.365534	-2.577466	-0.076282	-0.144776	-0.863333	0.036509	0.013630	0.002145
397	2.037587	0.005000	9.251110	-0.362690	-2.501830	-0.076396	-0.144776	-0.863333	0.018758	0.022423	0.010728
398	2.042587	0.005000	9.196470	-0.367470	-2.511360	-0.076510	-0.144776	-0.863333	0.024097	0.017676	0.008298
399	2.047587	0.005000	9.339120	-0.470880	-2.620457	-0.076623	-0.144776	-0.863333	0.013667	0.020425	0.002082
400	2.052587	0.005000	9.376893	-0.472347	-2.592775	-0.076737	-0.144776	-0.863333	0.020896	0.015376	0.000179
401	2.057587	0.005000	9.225530	-0.396530	-2.592593	-0.076851	-0.144776	-0.863333	0.026030	0.024078	0.008764
402	2.062587	0.005000	9.413380	-0.361601	-2.594060	-0.076965	-0.144776	-0.863333	0.033628	0.032572	0.003670
403	2.067587	0.005000	9.431729	-0.424576	-2.532553	-0.077078	-0.144776	-0.863333	0.034703	0.025607	0.006541
404	2.072587	0.005000	9.437931	-0.401855	-2.472120	-0.077192	-0.144776	-0.863333	0.012648	0.020909	0.008359
405	2.077587	0.005000	9.390658	-0.392400	-2.511360	-0.077306	-0.144776	-0.863333	0.027308	0.006774	-0.001562
406	2.082587	0.005000	9.423787	-0.383445	-2.526502	-0.077420	-0.144776	-0.863333	0.016796	0.012114	0.000944
407	2.087587	0.005000	9.321134	-0.331906	-2.550600	-0.077534	-0.144776	-0.863333	0.015378	0.022204	-0.003718
408	2.092587	0.005000	9.323206	-0.411279	-2.530239	-0.077753	-0.144635	-0.863333	0.021215	0.007693	-0.011652
409	2.097587	0.005000	9.276675	-0.353160	-2.566635	-0.078208	-0.144180	-0.863333	0.032500	0.015597	-0.012056
410	2.102587	0.005000	9.351978	-0.353160	-2.472453	-0.078663	-0.143725	-0.863333	0.043614	0.020959	-0.013081
411	2.107587	0.005000	9.328652	-0.303452	-2.500892	-0.079118	-0.143270	-0.863333	0.042187	0.017532	-0.005338
412	2.112587	0.005000	9.425012	-0.353160	-2.503403	-0.079573	-0.142815	-0.863333	0.049347	0.017630	-0.000877
413	2.117587	0.005000	9.383473	-0.353160	-2.472120	-0.080028	-0.142360	-0.863333	0.043764	0.011515	-0.003729
414	2.122587	0.005000	9.447764	-0.276949	-2.430611	-0.080483	-0.141905	-0.863333	0.050503	0.022190	-0.002961
415	2.127587	0.005000	9.338545	-0.313920	-2.393640	-0.080938	-0.141450	-0.863333	0.051371	0.009598	-0.009348
416	2.132587	0.005000	9.378360	-0.353160	-2.543790	-0.081393	-0.140995	-0.863333	0.039288	0.012415	-0.007918
417	2.137587	0.005000	9.372498	-0.319782	-2.656597	-0.081848	-0.140540	-0.863333	0.054254	0.004939	-0.015275
418	2.142587	0.005000	9.308518	-0.361798	-2.668320	-0.082303	-0.140085	-0.863333	0.039741	-0.001928	0.002655
419	2.147587	0.005000	9.311362	-0.353160	-2.573563	-0.082758	-0.139630	-0.863333	0.035618	0.004555	-0.011804
420	2.152587	0.005000	9.403275	-0.328245	-2.482709	-0.083213	-0.139175	-0.863333	0.044365	0.010330	-0.008370
421	2.157587	0.005000	9.334219	-0.313920	-2.533431	-0.083518	-0.138913	-0.863238	0.043955	0.018010	-0.003668
422	2.162587	0.005000	9.358901	-0.392722	-2.530498	-0.083177	-0.139482	-0.862730	0.046507	0.010221	-0.005892
423	2.167587	0.005000	9.395212	-0.336308	-2.455268	-0.082835	-0.140050	-0.862222	0.058038	0.014720	-0.008869
424	2.172587	0.005000	9.389584	-0.325144	-2.421656	-0.082494	-0.140619	-0.861714	0.046809	0.012361	-0.008017
425	2.177587	0.005000	9.311044	-0.313920	-2.444044	-0.082153	-0.141188	-0.861206	0.054745	-0.002367	-0.000084
426	2.182587	0.005000	9.347894	-0.274680	-2.450428	-0.081812	-0.141756	-0.860698	0.046456	0.014924	-0.007242
427	2.187587	0.005000	9.456840	-0.280610	-2.456599	-0.081470	-0.142325	-0.860190	0.068709	0.011361	-0.006036
428	2.192587	0.005000	9.456840	-0.313920	-2.589840	-0.081129	-0.142894	-0.859682	0.061638	0.015793	0.003413
429	2.197587	0.005000	9.456840	-0.314162	-2.472362	-0.080788	-0.143463	-0.859174	0.059405	0.019334	-0.010796
430	2.202587	0.005000	9.420202	-0.316522	-2.474722	-0.080447	-0.144031	-0.858666	0.072280	0.007603	0.006060
431	2.207587	0.005000	9.423046	-0.353160	-2.359846	-0.080105	-0.144600	-0.858158	0.058163	0.008858	0.005782
432	2.212587	0.005000	9.472334	-0.306005	-2.401555	-0.079764	-0.145169	-0.857650	0.057933	-0.003067	0.004611
433	2.217587	0.005000	9.378360	-0.353160	-2.461455	-0.079423	-0.145737	-0.857142	0.058282	-0.001833	0.013685
434	2.222587	0.005000	9.416314	-0.351874	-2.472120	-0.079082	-0.146254	-0.856675	0.043025	-0.001983	0.006619
435	2.227587	0.005000	9.433953	-0.330273	-2.455767	-0.078740	-0.146027	-0.856802	0.049355	-0.004736	0.009130
436	2.232587	0.005000	9.378360	-0.313920	-2.452076	-0.078399	-0.145799	-0.856929	0.061828	0.003869	0.018664
437	2.237587	0.005000	9.382293	-0.427707	-2.389707	-0.078058	-0.145571	-0.857056	0.063861	0.001972	0.023379
438	2.242587	0.005000	9.417600	-0.446450	-2.369210	-0.077716	-0.145344	-0.857183	0.048104	-0.008831	0.012394
439	2.247587	0.005000	9.429566	-0.407709	-2.275920	-0.077375	-0.145116	-0.857310	0.043814	-0.013247	0.031686
440	2.252587	0.005000	9.526198	-0.353160	-2.432880	-0.077034	-0.144889	-0.857437	0.024624	-0.010876	0.020804
441	2.257587	0.005000	9.410853	-0.418147	-2.361147	-0.076692	-0.144661	-0.857564	0.020882	-0.017827	0.029689
442	2.262587	0.005000	9.421503	-0.357063	-2.534989	-0.076351	-0.144433	-0.857691	0.017985	-0.019095	0.041524
443	2.267587	0.005000	9.491844	-0.430581	-2.508183	-0.076010	-0.144206	-0.857818	-0.008756	-0.027031	0.041417
444	2.272587	0.005000	9.301665	-0.392400	-2.468550	-0.075668	-0.143978	-0.857945	-0.005713	-0.041725	0.051603
445	2.277587	0.005000	9.382989	-0.427011	-2.437509	-0.075327	-0.143751	-0.858072	-0.013144	-0.039007	0.054929
446	2.282587	0.005000	9.456840	-0.463861	-2.497322	-0.074986	-0.143523	-0.858200	-0.027997	-0.048697	0.050913
447	2.287587	0.005000	9.446977	-0.470880	-2.491846	-0.074644	-0.143296	-0.858327	-0.026323	-0.051048	0.059726
448	2.292587	0.005000	9.456840	-0.378574	-2.393640	-0.074951	-0.143068	-0.858212	-0.033596	-0.056481	0.064889
449	2.297587	0.005000	9.402049	-0.353160	-2.260369	-0.075292	-0.142840	-0.858085	-0.037514	-0.064450	0.077959
450	2.302587	0.005000	9.440941	-0.334780	-2.255060	-0.075634	-0.142613	-0.857958	-0.045069	-0.050197	0.067551
451	2.307587	0.005000	9.496080	-0.274680	-2.269506	-0.075975	-0.142385	-0.857831	-0.026670	-0.067641	0.079776
452	2.312587	0.005000	9.590186	-0.274680	-2.299534	-0.076316	-0.142158	-0.857704	-0.035445	-0.072616	0.090484
453	2.317587	0.005000	9.574560	-0.261898	-2.289595	-0.076658	-0.141930	-0.857577	-0.030570	-0.080036	0.094178
454	2.322587	0.005000	9.545259	-0.274680	-2.217317	-0.076999	-0.141703	-0.857450	-0.021925	-0.096855	0.091677
455	2.327587	0.005000	9.510269	-0.321015	-2.236680	-0.077340	-0.141475	-0.857323	-0.014849	-0.101457	0.089489
456	2.332587	0.005000	9.605299	-0.318171	-2.397891	-0.077682	-0.141247	-0.857196	-0.015889	-0.101597	0.092316
457	2.337587	0.005000	9.573136	-0.315344	-2.399335	-0.078023	-0.141020	-0.857069	-0.012122	-0.096585	0.100074
458	2.342587	0.005000	9.573592	-0.314888	-2.627144	-0.078364	-0.140792	-0.856942	-0.014036	-0.106998	0.091929
459	2.347587	0.005000	9.429036	-0.313920	-2.558224	-0.078706	-0.140565	-0.856815	-0.030795	-0.111450	0.098019
460	2.352587	0.005000	9.345776	-0.359816	-2.328472	-0.079047	-0.140337	-0.856688	-0.016036	-0.112458	0.098447
461	2.357587	0.005000	9.467580	-0.343660	-2.423380	-0.078725	-0.140394	-0.855821	-0.005803	-0.116828	0.096924
462	2.362587	0.005000	9.525185	-0.365504	-2.197440	-0.078270	-0.140507	-0.854804	-0.028117	-0.115165	0.094375
463	2.367587	0.005000	9.613800	-0.455692	-2.140471	-0.077815	-0.140621	-0.853787	-0.030105	-0.122286	0.097652
464	2.372587	0.005000	9.631378	-0.396484	-2.101382	-0.077360	-0.140735	-0.852771	-0.033293	-0.137191	0.100002
465	2.377587	0.005000	9.577767	-0.469277	-2.374822	-0.076904	-0.140849	-0.851754	-0.020255	-0.152104	0.099218
466	2.382587	0.005000	9.488789	-0.556651	-2.424197	-0.076449	-0.140962	-0.850738	-0.042985	-0.152962	0.092762
467	2.387587	0.005000	9.587539	-0.523250	-2.484948	-0.075994	-0.141076	-0.849721	-0.048082	-0.148219	0.097390
468	2.392587	0.005000	9.467127	-0.452213	-2.424500	-0.075539	-0.141190	-0.848704	-0.051475	-0.149304	0.097010
469	2.397587	0.005000	9.441955	-0.532448	-2.629080	-0.075084	-0.141304	-0.847688	-0.070383	-0.147714	0.098743
470	2.402587	0.005000	9.260640	-0.553959	-2.529755	-0.074629	-0.141417	-0.846671	-0.078071	-0.148201	0.084230
471	2.407587	0.005000	9.295433	-0.588600	-2.705336	-0.074173	-0.141531	-0.845655	-0.089901	-0.148714	0.094049
472	2.412587	0.005000	9.144160	-0.588600	-2.552461	-0.073718	-0.141645	-0.844638	-0.098173	-0.137002	0.083125
473	2.417587	0.005000	9.296416	-0.581672	-2.746800	-0.073263	-0.141759	-0.843622	-0.086107	-0.141677	0.088287
474	2.422587	0.005000	9.227708	-0.588600	-2.464420	-0.072971	-0.141791	-0.843333	-0.123727	-0.119542	0.070502
475	2.427587	0.005000	9.309032	-0.609536	-2.755952	-0.072744	-0.141791	-0.843333	-0.108755	-0.148619	0.078417
476	2.432587	0.005000	9.221400	-0.552612	-2.695564	-0.072516	-0.141791	-0.843333	-0.100408	-0.143543	0.090651
477	2.437587	0.005000	9.157474	-0.652526	-2.691720	-0.072289	-0.141791	-0.843333	-0.105324	-0.146583	0.083803
478	2.442587	0.005000	9.125690	-0.566590	-2.773590	-0.072061	-0.141791	-0.843333	-0.145047	-0.130272	0.090982
479	2.447587	0.005000	9.182160	-0.608674	-2.924741	-0.071834	-0.141791	-0.843333	-0.144430	-0.121275	0.077069
480	2.452587	0.005000	9.080762	-0.549360	-2.867651	-0.071606	-0.141791	-0.843333	-0.129782	-0.137103	0.084828
481	2.457587	0.005000	8.998243	-0.587405	-2.824085	-0.071379	-0.141791	-0.843333	-0.127408	-0.134338	0.078782
482	2.462587	0.005000	9.106978	-0.452909	-2.753395	-0.071151	-0.141791	-0.843333	-0.136518	-0.141957	0.070910
483	2.467587	0.005000	9.126401	-0.462621	-2.783983	-0.070924	-0.141791	-0.843333	-0.132788	-0.125638	0.069439
484	2.472587	0.005000	9.169998	-0.397816	-2.661573	-0.070696	-0.141791	-0.843333	-0.144972	-0.138654	0.066246
485	2.477587	0.005000	9.292165	-0.426497	-2.744228	-0.070469	-0.141791	-0.843333	-0.140626	-0.139300	0.057369
486	2.482587	0.005000	9.260095	-0.314192	-2.863431	-0.070241	-0.141791	-0.843333	-0.138806	-0.158473	0.062089
487	2.487587	0.005000	9.116145	-0.359392	-2.873869	-0.070149	-0.141656	-0.843031	-0.144124	-0.155771	0.055239
488	2.492587	0.005000	9.204926	-0.229949	-2.954784	-0.070149	-0.141429	-0.842523	-0.131961	-0.172481	0.059949
489	2.497587	0.005000	9.050205	-0.252110	-3.007245	-0.070149	-0.141201	-0.842016	-0.113671	-0.144792	0.042553
490	2.502587	0.005000	9.131741	-0.353160	-3.049768	-0.070149	-0.140974	-0.841508	-0.100496	-0.148270	0.037358
491	2.507587	0.005000	8.977595	-0.353160	-2.957023	-0.070149	-0.140746	-0.841000	-0.100498	-0.143313	0.027167
492	2.512587	0.005000	9.099135	-0.313920	-3.004875	-0.070149	-0.140519	-0.840492	-0.110717	-0.149100	0.031502
493	2.517587	0.005000	9.044457	-0.333903	-2.806023	-0.070149	-0.140291	-0.839984	-0.072697	-0.125687	0.017083
494	2.522587	0.005000	9.103680	-0.465918	-2.920899	-0.070149	-0.140064	-0.839476	-0.064349	-0.151171	0.016038
495	2.527587	0.005000	9.078735	-0.499470	-2.839575	-0.070149	-0.139836	-0.838968	-0.081820	-0.140436	0.015819
496	2.532587	0.005000	9.131469	-0.459429	-2.982240	-0.070149	-0.139609	-0.838460	-0.110095	-0.148663	0.008691
497	2.537587	0.005000	9.003383	-0.483986	-2.903760	-0.070149	-0.139381	-0.837952	-0.080077	-0.122215	0.000029
498	2.542587	0.005000	9.025200	-0.404865	-2.969775	-0.070149	-0.139154	-0.837444	-0.108981	-0.129884	-0.011912
499	2.547587	0.005000	9.110457	-0.405954	-2.753577	-0.070149	-0.138926	-0.836936	-0.111681	-0.124176	-0.009203
500	2.552587	0.005000	9.181615	-0.469791	-2.863975	-0.069988	-0.139128	-0.836069	-0.108523	-0.138972	-0.007540
501	2.557587	0.005000	9.179861	-0.429341	-2.825280	-0.069647	-0.139810	-0.834798	-0.137371	-0.142552	-0.019045
502	2.562587	0.005000	9.182160	-0.470880	-2.948143	-0.069306	-0.140493	-0.833527	-0.147348	-0.152810	0.003763
503	2.567587	0.005000	9.213867	-0.534293	-2.952107	-0.068964	-0.141176	-0.832256	-0.146243	-0.153607	-0.003081
504	2.572587	0.005000	9.124435	-0.580492	-2.974132	-0.068623	-0.141858	-0.830986	-0.154433	-0.158062	0.003062
505	2.577587	0.005000	9.273014	-0.640638	-2.903336	-0.068282	-0.142541	-0.829715	-0.176829	-0.152873	0.005044
506	2.582587	0.005000	9.221400	-0.690255	-2.880585	-0.067940	-0.143224	-0.828444	-0.184832	-0.151742	0.008479
507	2.587587	0.005000	9.317367	-0.646749	-2.983662	-0.067599	-0.143907	-0.827174	-0.196995	-0.160316	0.021807
508	2.592587	0.005000	9.256797	-0.584757	-2.917616	-0.067258	-0.144589	-0.825903	-0.218725	-0.148214	0.006829
509	2.597587	0.005000	9.221400	-0.543264	-3.066816	-0.066916	-0.145272	-0.824632	-0.232159	-0.156559	0.021733
510	2.602587	0.005000	9.339120	-0.392400	-3.153904	-0.066575	-0.145955	-0.823362	-0.248044	-0.150465	0.025033
511	2.607587	0.005000	9.279489	-0.332769	-3.051296	-0.066234	-0.146638	-0.822091	-0.221456	-0.151311	0.036427
512	2.612587	0.005000	9.378360	-0.431640	-3.040979	-0.065892	-0.147320	-0.820820	-0.224832	-0.145549	0.037396
513	2.617587	0.005000	9.299880	-0.392400	-3.017744	-0.065793	-0.147680	-0.819865	-0.246814	-0.150054	0.025999
514	2.622587	0.005000	9.220497	-0.469074	-3.141006	-0.066134	-0.147453	-0.819484	-0.241320	-0.167801	0.048701
515	2.627587	0.005000	9.068933	-0.392400	-3.179938	-0.066475	-0.147225	-0.819103	-0.226698	-0.181991	0.059524
516	2.632587	0.005000	8.990302	-0.274680	-3.178440	-0.066816	-0.146998	-0.818722	-0.236950	-0.176997	0.065150
517	2.637587	0.005000	8.993145	-0.235440	-3.067905	-0.067158	-0.146770	-0.818341	-0.205250	-0.137964	0.063053
518	2.642587	0.005000	9.084499	-0.293861	-3.089931	-0.067499	-0.146543	-0.817960	-0.174009	-0.121604	0.062243
519	2.647587	0.005000	9.038073	-0.274680	-3.020860	-0.067840	-0.146316	-0.817579	-0.185360	-0.113201	0.063262
520	2.652587	0.005000	9.049013	-0.211627	-2.950040	-0.068181	-0.146088	-0.817198	-0.174633	-0.128767	0.058946
521	2.657587	0.005000	9.064440	-0.235440	-3.060720	-0.068522	-0.145861	-0.816817	-0.158581	-0.130546	0.056898
522	2.662587	0.005000	9.006896	-0.332224	-3.099960	-0.068863	-0.145633	-0.816436	-0.160452	-0.109966	0.058155
523	2.667587	0.005000	9.001420	-0.313920	-3.162980	-0.069205	-0.145406	-0.816055	-0.156146	-0.105712	0.058608
524	2.672587	0.005000	9.037816	-0.288688	-3.191056	-0.069546	-0.145178	-0.815674	-0.147027	-0.098912	0.053568
525	2.677587	0.005000	9.074363	-0.196200	-3.247148	-0.069887	-0.144951	-0.815293	-0.131754	-0.107982	0.050632
526	2.682587	0.005000	9.049646	-0.181406	-3.225077	-0.070096	-0.144802	-0.814882	-0.107230	-0.116303	0.047788
527	2.687587	0.005000	9.029753	-0.200753	-3.252367	-0.069869	-0.144916	-0.814374	-0.082316	-0.105376	0.038617
528	2.692587	0.005000	8.866531	-0.117720	-3.294451	-0.069641	-0.145030	-0.813865	-0.071184	-0.111104	0.035947
529	2.697587	0.005000	8.943316	-0.117720	-3.256920	-0.069413	-0.145144	-0.813357	-0.054028	-0.117678	0.013432
530	2.702587	0.005000	8.978003	-0.227483	-3.182418	-0.069186	-0.145258	-0.812849	-0.047386	-0.121053	0.013247
531	2.707587	0.005000	9.057997	-0.189757	-3.165554	-0.068958	-0.145372	-0.812341	-0.039620	-0.112976	0.005838
532	2.712587	0.005000	8.995172	-0.175385	-3.190043	-0.068731	-0.145485	-0.811832	-0.053418	-0.122155	-0.005122
533	2.717587	0.005000	9.010073	-0.208256	-3.178440	-0.068503	-0.145599	-0.811324	-0.040750	-0.124516	-0.008698
534	2.722587	0.005000	8.883140	-0.259780	-3.187879	-0.068276	-0.145713	-0.810816	-0.040878	-0.119838	-0.011361
535	2.727587	0.005000	8.971967	-0.235440	-3.199936	-0.068048	-0.145827	-0.810307	-0.021843	-0.118659	-0.029572
536	2.732587	0.005000	8.985960	-0.197685	-3.217680	-0.067820	-0.145941	-0.809799	-0.032525	-0.103988	-0.023249
537	2.737587	0.005000	9.008923	-0.179923	-3.227271	-0.067593	-0.146055	-0.809291	-0.021052	-0.087859	-0.048262
538	2.742587	0.005000	9.011767	-0.132212	-3.282727	-0.067365	-0.146168	-0.808783	-0.025342	-0.079412	-0.041547
539	2.747587	0.005000	9.082502	-0.289626	-3.246331	-0.067125	-0.146256	-0.808333	-0.001912	-0.090625	-0.054601
540	2.752587	0.005000	8.883730	-0.172450	-3.107705	-0.066783	-0.146142	-0.808333	-0.008656	-0.086336	-0.046206
541	2.757587	0.005000	8.985960	-0.123075	-3.167730	-0.066442	-0.146028	-0.808333	-0.039938	-0.069294	-0.048682
542	2.762587	0.005000	9.116236	-0.201222	-3.060720	-0.066101	-0.145914	-0.808333	-0.029304	-0.065274	-0.038869
543	2.767587	0.005000	9.222066	-0.235773	-3.060720	-0.065759	-0.145801	-0.808333	-0.029168	-0.062402	-0.036564
544	2.772587	0.005000	9.335943	-0.353160	-2.975887	-0.065418	-0.145687	-0.808333	-0.029963	-0.071268	-0.037165
545	2.777587	0.005000	9.227421	-0.353160	-2.915801	-0.065077	-0.145573	-0.808333	-0.056782	-0.077218	-0.022507
546	2.782587	0.005000	9.308745	-0.353160	-3.042991	-0.064735	-0.145459	-0.808333	-0.061965	-0.089262	-0.016054
547	2.787587	0.005000	9.304994	-0.353160	-3.065834	-0.064394	-0.145345	-0.808333	-0.075456	-0.103694	-0.006956
548	2.792587	0.005000	9.339120	-0.535277	-3.102970	-0.064053	-0.145231	-0.808333	-0.101006	-0.110804	0.004632
549	2.797587	0.005000	9.445298	-0.487807	-3.004553	-0.063711	-0.145118	-0.808333	-0.107991	-0.111937	0.004887
550	2.802587	0.005000	9.476611	-0.549663	-3.139200	-0.063370	-0.145004	-0.808333	-0.127569	-0.111390	0.017002
551	2.807587	0.005000	9.479455	-0.538726	-3.099960	-0.063029	-0.144890	-0.808333	-0.141354	-0.115044	0.017313
552	2.812587	0.005000	9.531856	-0.470880	-3.060720	-0.062687	-0.144776	-0.808333	-0.140559	-0.136112	0.032247
553	2.817587	0.005000	9.383382	-0.515142	-3.016458	-0.062460	-0.145231	-0.807571	-0.172248	-0.140517	0.046339
554	2.822587	0.005000	9.317004	-0.440202	-3.139200	-0.062232	-0.145686	-0.806809	-0.163604	-0.146895	0.044490
555	2.827587	0.005000	9.361206	-0.504402	-3.144918	-0.062004	-0.146141	-0.806047	-0.179148	-0.152980	0.061830
556	2.832587	0.005000	9.215652	-0.395274	-3.091337	-0.061777	-0.146596	-0.805284	-0.181988	-0.157851	0.062375
557	2.837587	0.005000	9.221400	-0.353160	-3.099990	-0.061549	-0.147051	-0.804522	-0.175790	-0.168199	0.073771
558	2.842587	0.005000	9.147695	-0.316307	-3.176053	-0.061321	-0.147506	-0.803759	-0.156760	-0.163229	0.073609
559	2.847587	0.005000	9.046015	-0.397604	-3.359029	-0.061094	-0.147962	-0.802997	-0.114182	-0.173587	0.083600
560	2.852587	0.005000	9.095632	-0.290775	-3.390735	-0.060866	-0.148417	-0.802235	-0.113653	-0.174904	0.091829
561	2.857587	0.005000	9.182160	-0.342268	-3.453120	-0.060638	-0.148872	-0.801472	-0.097370	-0.200670	0.102443
562	2.862587	0.005000	9.168733	-0.327347	-3.478933	-0.060411	-0.149327	-0.800710	-0.083417	-0.194468	0.116401
563	2.867587	0.005000	9.097051	-0.330225	-3.508665	-0.060183	-0.149782	-0.799947	-0.087309	-0.196952	0.128803
564	2.872587	0.005000	9.125297	-0.372114	-3.354354	-0.059955	-0.150237	-0.799185	-0.076884	-0.185774	0.144759
565	2.877587	0.005000	9.203958	-0.409842	-3.278718	-0.059728	-0.150693	-0.798423	-0.073764	-0.157188	0.148800
566	2.882587	0.005000	9.231444	-0.436193	-3.291607	-0.061107	-0.151851	-0.795866	-0.094347	-0.166977	0.166742
567	2.887587	0.005000	9.076331	-0.419749	-3.226005	-0.062700	-0.153102	-0.793070	-0.100210	-0.187415	0.198117
568	2.892587	0.005000	9.036349	-0.362524	-3.355913	-0.064293	-0.154354	-0.790275	-0.097657	-0.191201	0.208429
569	2.897587	0.005000	8.900960	-0.359680	-3.315719	-0.065886	-0.155606	-0.787479	-0.096379	-0.195807	0.234242
570	2.902587	0.005000	8.943044	-0.385048	-3.399176	-0.067480	-0.156858	-0.784684	-0.090617	-0.179446	0.231543
571	2.907587	0.005000	8.947552	-0.276344	-3.375472	-0.069073	-0.158109	-0.781889	-0.093046	-0.183689	0.247233
572	2.912587	0.005000	8.872925	-0.353160	-3.451558	-0.070666	-0.159361	-0.779093	-0.101346	-0.175872	0.246603
573	2.917587	0.005000	8.785373	-0.313920	-3.557679	-0.072259	-0.160613	-0.776298	-0.072360	-0.189959	0.249812
574	2.922587	0.005000	8.750520	-0.392400	-3.467582	-0.073852	-0.161864	-0.773502	-0.061127	-0.166577	0.245819
575	2.927587	0.005000	8.818925	-0.313920	-3.521525	-0.075445	-0.163116	-0.770707	-0.050922	-0.167285	0.243119
576	2.932587	0.005000	8.724683	-0.340241	-3.426799	-0.077038	-0.164368	-0.767911	-0.057065	-0.159422	0.236103
577	2.937587	0.005000	8.805523	-0.392400	-3.437690	-0.078631	-0.165620	-0.765116	-0.060370	-0.168445	0.234724
578	2.942587	0.005000	8.711280	-0.353160	-3.492360	-0.080225	-0.166871	-0.762321	-0.038888	-0.167841	0.221561
579	2.947587	0.005000	8.651043	-0.295677	-3.392883	-0.080771	-0.166379	-0.762446	-0.057838	-0.156958	0.196047
580	2.952587	0.005000	8.585119	-0.180800	-3.632438	-0.080999	-0.165355	-0.763462	-0.072367	-0.145968	0.180637
581	2.957587	0.005000	8.672040	-0.156960	-3.611653	-0.081227	-0.164331	-0.764479	-0.025907	-0.133059	0.173717
582	2.962587	0.005000	8.730703	-0.205912	-3.502072	-0.081454	-0.163307	-0.765495	0.015149	-0.120393	0.146616
583	2.967587	0.005000	8.750520	-0.228572	-3.524732	-0.081682	-0.162283	-0.766512	0.023529	-0.109924	0.130873
584	2.972587	0.005000	8.684258	-0.183982	-3.390930	-0.081909	-0.161259	-0.767528	-0.006116	-0.098259	0.109882
585	2.977587	0.005000	8.748871	-0.117720	-3.726151	-0.082137	-0.160234	-0.768545	0.003054	-0.099926	0.103383
586	2.982587	0.005000	8.673235	-0.041630	-3.764650	-0.082364	-0.159210	-0.769561	0.010999	-0.112218	0.093582
587	2.987587	0.005000	8.715319	-0.156960	-3.814358	-0.082592	-0.158186	-0.770578	0.024832	-0.093642	0.075967
588	2.992587	0.005000	8.672040	-0.196200	-3.720917	-0.082820	-0.157162	-0.771594	0.032489	-0.090962	0.065165
589	2.997587	0.005000	8.769974	-0.127447	-3.826066	-0.083047	-0.156138	-0.772611	0.007730	-0.069861	0.047887
590	3.002587	0.005000	8.780593	-0.132756	-3.646385	-0.083275	-0.155114	-0.773628	0.017787	-0.076967	0.031410
591	3.007587	0.005000	8.756117	-0.259734	-3.694157	-0.083502	-0.154090	-0.774644	0.032448	-0.066300	0.011942
592	3.012587	0.005000	8.646929	-0.139170	-3.606419	-0.082843	-0.154470	-0.774752	0.029277	-0.068964	0.000751
593	3.017587	0.005000	8.769126	-0.196200	-3.630714	-0.081706	-0.155608	-0.774371	0.054288	-0.058640	-0.008149
594	3.022587	0.005000	8.656277	-0.211963	-3.610080	-0.080568	-0.156745	-0.773990	0.053223	-0.049421	-0.013202
595	3.027587	0.005000	8.777265	-0.274680	-3.701932	-0.079431	-0.157882	-0.773609	0.047647	-0.060092	-0.024312
596	3.032587	0.005000	8.868240	-0.274680	-3.759386	-0.078294	-0.159020	-0.773228	0.032390	-0.056049	-0.022277
597	3.037587	0.005000	8.915165	-0.282365	-3.790094	-0.077156	-0.160157	-0.772847	0.032492	-0.067733	-0.035326
598	3.042587	0.005000	8.946720	-0.235440	-3.722959	-0.076019	-0.161295	-0.772466	0.044066	-0.052868	-0.036649
599	3.047587	0.005000	8.981966	-0.274680	-3.880766	-0.074881	-0.162432	-0.772085	0.047908	-0.051783	-0.042235
600	3.052587	0.005000	8.946337	-0.235823	-3.806280	-0.073744	-0.163570	-0.771704	0.034397	-0.065239	-0.031584
601	3.057587	0.005000	8.904258	-0.202644	-3.767040	-0.072607	-0.164707	-0.771323	0.038734	-0.055700	-0.038616
602	3.062587	0.005000	8.901414	-0.184068	-3.760974	-0.071469	-0.165844	-0.770942	0.053876	-0.063750	-0.038417
603	3.067587	0.005000	8.873550	-0.265770	-3.767040	-0.070332	-0.166982	-0.770561	0.040118	-0.061806	-0.046250
604	3.072587	0.005000	8.912423	-0.224008	-3.917511	-0.069195	-0.168119	-0.770180	0.047396	-0.071186	-0.057370
605	3.077587	0.005000	8.882384	-0.302968	-3.884760	-0.068057	-0.167637	-0.770469	0.066137	-0.061011	-0.055490
606	3.082587	0.005000	8.874699	-0.257692	-3.818004	-0.066919	-0.165703	-0.771358	0.053040	-0.053988	-0.057842
607	3.087587	0.005000	8.770352	-0.294088	-3.767040	-0.065781	-0.163768	-0.772248	0.052668	-0.059214	-0.048626
608	3.092587	0.005000	8.862129	-0.330484	-3.632756	-0.064643	-0.161834	-0.773137	0.052386	-0.036067	-0.052744
609	3.097587	0.005000	8.921669	-0.353160	-3.638459	-0.063505	-0.159899	-0.774027	0.056125	-0.048398	-0.056815
610	3.102587	0.005000	8.862098	-0.308716	-3.705109	-0.062367	-0.157965	-0.774916	0.056293	-0.033656	-0.046905
611	3.107587	0.005000	8.759021	-0.414637	-3.640819	-0.061229	-0.156030	-0.775806	0.059801	-0.038554	-0.052881
612	3.112587	0.005000	8.756178	-0.437298	-3.627053	-0.060091	-0.154096	-0.776695	0.045712	-0.033466	-0.051567
613	3.117587	0.005000	8.826153	-0.510120	-3.724953	-0.058953	-0.152162	-0.777585	0.028765	-0.035925	-0.047999
614	3.122587	0.005000	8.632800	-0.392400	-3.569993	-0.057815	-0.150227	-0.778474	0.018943	-0.027189	-0.051008
615	3.127587	0.005000	8.632800	-0.318761	-3.602819	-0.056677	-0.148293	-0.779364	0.021484	-0.017766	-0.044341
616	3.132587	0.005000	8.734727	-0.319184	-3.659849	-0.055539	-0.146358	-0.780253	0.011837	-0.007045	-0.062787
617	3.137587	0.005000	8.820892	-0.353160	-3.696668	-0.054401	-0.144424	-0.781143	0.018093	-0.010158	-0.038555
618	3.142587	0.005000	8.782350	-0.392400	-3.599470	-0.053544	-0.143424	-0.781771	0.007227	0.002234	-0.049795
619	3.147587	0.005000	8.789760	-0.405727	-3.675233	-0.053089	-0.143765	-0.782025	0.019915	-0.004895	-0.046577
620	3.152587	0.005000	8.773589	-0.415469	-3.619353	-0.052634	-0.144106	-0.782279	0.023113	0.012298	-0.040858
621	3.157587	0.005000	8.750520	-0.450655	-3.570840	-0.052179	-0.144448	-0.782533	0.031914	0.014535	-0.039900
622	3.162587	0.005000	8.829000	-0.413790	-3.513750	-0.051724	-0.144789	-0.782787	0.027018	0.006240	-0.037459
623	3.167587	0.005000	8.726286	-0.353160	-3.438114	-0.051269	-0.145130	-0.783041	0.020288	0.005045	-0.030042
624	3.172587	0.005000	8.801922	-0.326082	-3.386802	-0.050814	-0.145471	-0.783295	0.024836	-0.001156	-0.033147
625	3.177587	0.005000	8.711280	-0.334523	-3.473723	-0.050360	-0.145812	-0.783549	0.041773	-0.001871	-0.027930
626	3.182587	0.005000	8.769943	-0.235440	-3.315583	-0.049905	-0.146153	-0.783803	0.042374	-0.014378	-0.023469
627	3.187587	0.005000	8.825327	-0.310247	-3.374640	-0.049450	-0.146495	-0.784057	0.052409	-0.011973	-0.008657
628	3.192587	0.005000	8.830240	-0.191238	-3.377121	-0.048995	-0.146836	-0.784311	0.058858	-0.012893	-0.016069
629	3.197587	0.005000	8.830603	-0.152150	-3.490757	-0.048540	-0.147177	-0.784565	0.078689	-0.018748	-0.009037
630	3.202587	0.005000	8.789760	-0.048135	-3.379087	-0.048085	-0.147518	-0.784819	0.099877	-0.017465	-0.019548
631	3.207587	0.005000	8.796665	-0.085385	-3.478550	-0.047794	-0.147499	-0.785037	0.121137	-0.021823	-0.022691
632	3.212587	0.005000	9.025775	-0.255347	-3.462786	-0.047908	-0.146588	-0.785164	0.119477	-0.019203	-0.024872
633	3.217587	0.005000	9.092879	-0.194491	-3.545820	-0.048021	-0.145678	-0.785291	0.128952	-0.033231	-0.029003
634	3.222587	0.005000	9.103680	-0.250794	-3.531600	-0.048135	-0.144768	-0.785418	0.113246	-0.038200	-0.039039
635	3.227587	0.005000	9.128304	-0.317256	-3.691896	-0.048249	-0.143857	-0.785545	0.118682	-0.053736	-0.047064
636	3.232587	0.005000	8.985960	-0.373748	-3.647384	-0.048363	-0.142947	-0.785672	0.129151	-0.043808	-0.050025
637	3.237587	0.005000	9.001768	-0.337352	-3.673312	-0.048477	-0.142037	-0.785799	0.125695	-0.048183	-0.064734
638	3.242587	0.005000	8.894516	-0.313920	-3.649668	-0.048591	-0.141127	-0.785926	0.120630	-0.034362	-0.063162
639	3.247587	0.005000	9.015080	-0.313920	-3.521480	-0.048704	-0.140216	-0.786053	0.139676	-0.042990	-0.060791
640	3.252587	0.005000	9.001450	-0.266935	-3.335400	-0.048818	-0.139306	-0.786180	0.154601	-0.040812	-0.063556
641	3.257587	0.005000	9.147821	-0.392400	-3.541402	-0.048932	-0.138396	-0.786308	0.175374	-0.069243	-0.063029
642	3.262587	0.005000	9.058268	-0.351103	-3.610080	-0.049046	-0.137485	-0.786435	0.163348	-0.056759	-0.081789
643	3.267587	0.005000	8.946720	-0.352373	-3.648533	-0.049160	-0.136575	-0.786562	0.158955	-0.075977	-0.072024
644	3.272587	0.005000	8.903849	-0.321181	-3.638428	-0.049313	-0.135997	-0.786602	0.153092	-0.064975	-0.069369
645	3.277587	0.005000	9.091498	-0.425549	-3.622262	-0.049654	-0.137020	-0.786221	0.155636	-0.077580	-0.071590
646	3.282587	0.005000	9.034065	-0.470880	-3.492360	-0.049995	-0.138043	-0.785840	0.143204	-0.077870	-0.064827
647	3.287587	0.005000	9.036908	-0.482588	-3.488245	-0.050336	-0.139066	-0.785459	0.137001	-0.091435	-0.063614
648	3.292587	0.005000	9.035335	-0.520255	-3.477808	-0.050677	-0.140089	-0.785078	0.123595	-0.098649	-0.064857
649	3.297587	0.005000	9.064440	-0.505673	-3.553444	-0.051018	-0.141113	-0.784697	0.123983	-0.107497	-0.054999
650	3.302587	0.005000	9.084211	-0.607766	-3.590611	-0.051359	-0.142136	-0.784317	0.121950	-0.116981	-0.059944
651	3.307587	0.005000	8.991950	-0.611215	-3.587465	-0.051700	-0.143159	-0.783936	0.107861	-0.115828	-0.044124
652	3.312587	0.005000	8.948823	-0.602381	-3.607977	-0.052041	-0.144182	-0.783555	0.090272	-0.112737	-0.047098
653	3.317587	0.005000	9.042566	-0.627840	-3.492360	-0.052382	-0.145205	-0.783174	0.086258	-0.110987	-0.031898
654	3.322587	0.005000	8.977769	-0.667080	-3.500551	-0.052723	-0.146228	-0.782793	0.064086	-0.117924	-0.026851
655	3.327587	0.005000	8.851872	-0.622122	-3.576558	-0.053064	-0.147252	-0.782412	0.034854	-0.128129	-0.018486
656	3.332587	0.005000	8.949594	-0.546486	-3.498108	-0.053405	-0.148275	-0.782031	0.028382	-0.117050	-0.013555
657	3.337587	0.005000	8.868210	-0.470910	-3.610080	-0.053721	-0.149259	-0.781656	0.024225	-0.107202	-0.019256
658	3.342587	0.005000	8.938279	-0.473694	-3.573654	-0.053494	-0.149373	-0.781402	0.029446	-0.095722	-0.011237
659	3.347587	0.005000	9.053125	-0.470880	-3.638005	-0.053266	-0.149486	-0.781148	0.030342	-0.099270	-0.012536
660	3.352587	0.005000	8.845095	-0.439688	-3.649320	-0.053038	-0.149600	-0.780894	0.030870	-0.104635	-0.001761
661	3.357587	0.005000	8.711280	-0.420748	-3.716908	-0.052811	-0.149714	-0.780639	0.026392	-0.110975	-0.008552
662	3.362587	0.005000	8.683809	-0.521889	-3.727800	-0.052583	-0.149828	-0.780385	0.038174	-0.110338	-0.003925
663	3.367587	0.005000	8.665959	-0.510120	-3.733881	-0.052356	-0.149941	-0.780131	0.003817	-0.086776	-0.003415
664	3.372587	0.005000	8.711280	-0.450594	-3.767040	-0.052128	-0.150055	-0.779877	-0.012373	-0.073587	-0.011250
665	3.377587	0.005000	8.767962	-0.505763	-3.775768	-0.051901	-0.150169	-0.779623	-0.006114	-0.083766	-0.015422
666	3.382587	0.005000	8.785207	-0.563958	-3.742398	-0.051673	-0.150283	-0.779368	-0.012545	-0.081281	-0.012293
667	3.387587	0.005000	8.750520	-0.553338	-3.716046	-0.051445	-0.150396	-0.779114	-0.004517	-0.083003	-0.001567
668	3.392587	0.005000	8.829000	-0.431640	-3.676363	-0.051218	-0.150510	-0.778860	-0.023382	-0.067516	-0.017091
669	3.397587	0.005000	8.750520	-0.405440	-3.799760	-0.050990	-0.150624	-0.778606	-0.005609	-0.069741	-0.012974
670	3.402587	0.005000	8.800788	-0.553036	-3.888436	-0.050763	-0.150738	-0.778352	-0.008941	-0.068764	-0.016997
671	3.407587	0.005000	8.943392	-0.469216	-3.847184	-0.051062	-0.150957	-0.777745	-0.022782	-0.068430	-0.021125
672	3.412587	0.005000	8.826988	-0.429628	-3.924000	-0.051403	-0.151184	-0.777110	-0.023426	-0.075188	-0.029631
673	3.417587	0.005000	8.645961	-0.357547	-3.815054	-0.051745	-0.151412	-0.776475	-0.017513	-0.052168	-0.031968
674	3.422587	0.005000	8.679271	-0.345929	-3.938462	-0.052086	-0.151639	-0.775840	0.005916	-0.063960	-0.035101
675	3.427587	0.005000	8.670981	-0.303845	-3.933016	-0.052427	-0.151867	-0.775205	-0.019811	-0.052179	-0.038570
676	3.432587	0.005000	8.670194	-0.260370	-4.000634	-0.052768	-0.152094	-0.774570	-0.011035	-0.063270	-0.053235
677	3.437587	0.005000	8.556256	-0.117720	-3.963240	-0.053110	-0.152322	-0.773935	-0.012413	-0.056927	-0.049427
678	3.442587	0.005000	8.711280	0.024022	-3.764105	-0.053451	-0.152549	-0.773300	0.012465	-0.035373	-0.067319
679	3.447587	0.005000	8.823494	0.078480	-3.649320	-0.053792	-0.152777	-0.772665	0.036770	-0.048333	-0.064265
680	3.452587	0.005000	8.891612	0.110217	-3.563337	-0.054133	-0.153004	-0.772029	0.042921	-0.034358	-0.068368
681	3.457587	0.005000	8.907480	0.013025	-3.832329	-0.054475	-0.153231	-0.771394	0.054536	-0.046058	-0.082456
682	3.462587	0.005000	8.897299	0.156960	-3.767040	-0.054816	-0.153459	-0.770759	0.054823	-0.037790	-0.081388
683	3.467587	0.005000	8.878133	0.210873	-3.830847	-0.055157	-0.153686	-0.770124	0.058787	-0.047203	-0.088428
684	3.472587	0.005000	8.799653	0.225547	-3.850467	-0.055132	-0.154463	-0.770306	0.065253	-0.037268	-0.101609
685	3.477587	0.005000	8.942515	0.121925	-3.919795	-0.055019	-0.155373	-0.770688	0.086162	-0.034819	-0.099649
686	3.482587	0.005000	8.829726	0.157686	-3.884034	-0.054905	-0.156284	-0.771069	0.086378	-0.042975	-0.114492
687	3.487587	0.005000	8.939580	0.153390	-3.849090	-0.054791	-0.157194	-0.771450	0.070100	-0.049889	-0.110508
688	3.492587	0.005000	8.874270	0.274680	-3.718709	-0.054677	-0.158104	-0.771831	0.094564	-0.045764	-0.121703
689	3.497587	0.005000	8.903456	0.213808	-3.924000	-0.054563	-0.159015	-0.772212	0.080270	-0.046648	-0.124537
690	3.502587	0.005000	8.879888	0.180256	-3.767040	-0.054450	-0.159925	-0.772594	0.104627	-0.032418	-0.145224
691	3.507587	0.005000	8.829000	0.132212	-3.771276	-0.054336	-0.160836	-0.772975	0.125146	-0.046331	-0.152247
692	3.512587	0.005000	8.924347	0.156960	-3.755679	-0.054222	-0.161746	-0.773356	0.117787	-0.042641	-0.170823
693	3.517587	0.005000	8.868422	0.156960	-3.884760	-0.054108	-0.162656	-0.773737	0.127057	-0.045125	-0.166608
694	3.522587	0.005000	8.907480	0.028424	-3.957371	-0.053994	-0.163567	-0.774119	0.119632	-0.041948	-0.160150
695	3.527587	0.005000	8.840233	0.000000	-3.991247	-0.053880	-0.164477	-0.774500	0.141761	-0.026037	-0.164394
696	3.532587	0.005000	8.824114	-0.078480	-4.009045	-0.053767	-0.165388	-0.774881	0.155158	-0.036025	-0.146114
697	3.537587	0.005000	8.851025	-0.025822	-4.080960	-0.053966	-0.165750	-0.774913	0.122455	-0.030818	-0.158635
698	3.542587	0.005000	8.946720	-0.078480	-4.120200	-0.054307	-0.165864	-0.774786	0.151406	-0.055183	-0.150502
699	3.547587	0.005000	8.910400	-0.159880	-4.038800	-0.054649	-0.165978	-0.774658	0.154444	-0.055107	-0.141947
700	3.552587	0.005000	9.063351	-0.234895	-3.961606	-0.054990	-0.166091	-0.774531	0.161403	-0.079810	-0.142952
701	3.557587	0.005000	9.022901	-0.159259	-3.808579	-0.055331	-0.166205	-0.774404	0.135485	-0.077800	-0.127098
702	3.562587	0.005000	8.962150	-0.303633	-3.845520	-0.055673	-0.166319	-0.774277	0.110272	-0.081203	-0.113189
703	3.567587	0.005000	8.789760	-0.078480	-3.790306	-0.056014	-0.166433	-0.774150	0.122236	-0.087618	-0.103323
704	3.572587	0.005000	8.765435	-0.078480	-3.838773	-0.056356	-0.166546	-0.774023	0.113389	-0.088876	-0.100698
705	3.577587	0.005000	8.802248	-0.091856	-3.844632	-0.056697	-0.166660	-0.773896	0.127888	-0.082987	-0.095040
706	3.582587	0.005000	8.852175	-0.055305	-3.784951	-0.057038	-0.166774	-0.773769	0.115064	-0.065420	-0.086859
707	3.587587	0.005000	8.908902	0.042084	-3.787371	-0.057380	-0.166888	-0.773642	0.118115	-0.066807	-0.097386
708	3.592587	0.005000	8.824734	0.178713	-3.710313	-0.057721	-0.167001	-0.773515	0.128698	-0.063753	-0.097983
709	3.597587	0.005000	8.937704	0.102608	-3.806280	-0.058063	-0.167115	-0.773387	0.150115	-0.067465	-0.107239
710	3.602587	0.005000	9.049736	0.156960	-3.740068	-0.057949	-0.167034	-0.773188	0.192545	-0.068416	-0.100792
711	3.607587	0.005000	8.976536	-0.018849	-3.854944	-0.057494	-0.166806	-0.772934	0.177881	-0.067044	-0.102437
712	3.612587	0.005000	8.940140	0.045820	-3.858681	-0.057039	-0.166579	-0.772680	0.175669	-0.070374	-0.117671
713	3.617587	0.005000	8.875713	-0.031767	-3.955767	-0.056584	-0.166351	-0.772426	0.187762	-0.070732	-0.114171
714	3.622587	0.005000	8.908826	0.000000	-3.846866	-0.056128	-0.166124	-0.772171	0.192064	-0.073302	-0.113986
715	3.627587	0.005000	8.833493	0.113227	-3.884760	-0.055673	-0.165896	-0.771917	0.186787	-0.092195	-0.100973
716	3.632587	0.005000	8.811634	0.191858	-3.836837	-0.055218	-0.165669	-0.771663	0.170717	-0.085929	-0.104606
717	3.637587	0.005000	8.718465	0.213884	-3.877575	-0.054763	-0.165441	-0.771409	0.191450	-0.087963	-0.110014
718	3.642587	0.005000	8.681192	0.059299	-3.855549	-0.054308	-0.165213	-0.771155	0.200091	-0.078058	-0.103371
719	3.647587	0.005000	8.622423	0.053671	-3.859951	-0.053853	-0.164986	-0.770901	0.199485	-0.079979	-0.104058
720	3.652587	0.005000	8.641544	0.047984	-3.908752	-0.053398	-0.164758	-0.770647	0.201146	-0.080956	-0.096118
721	3.657587	0.005000	8.572412	-0.003056	-3.884760	-0.052942	-0.164531	-0.770393	0.189716	-0.074982	-0.088478
722	3.662587	0.005000	8.494144	-0.057544	-3.848152	-0.052487	-0.164303	-0.770139	0.194503	-0.084714	-0.058712
723	3.667587	0.005000	8.467894	-0.094127	-3.790633	-0.052239	-0.164024	-0.770058	0.194193	-0.082496	-0.051661
724	3.672587	0.005000	8.580475	-0.209270	-3.950155	-0.052239	-0.163682	-0.770185	0.175729	-0.075689	-0.044452
725	3.677587	0.005000	8.574802	-0.225199	-3.992239	-0.052239	-0.163341	-0.770312	0.169048	-0.067370	-0.032595
726	3.682587	0.005000	8.608354	-0.220646	-4.041720	-0.052239	-0.163000	-0.770439	0.162313	-0.062473	-0.023735
727	3.687587	0.005000	8.711280	-0.265467	-4.080960	-0.052239	-0.162658	-0.770566	0.160229	-0.069868	-0.005108
728	3.692587	0.005000	8.634963	-0.274680	-4.083123	-0.052239	-0.162317	-0.770693	0.147158	-0.074061	0.002666
729	3.697587	0.005000	8.672040	-0.236121	-4.043081	-0.052239	-0.161975	-0.770820	0.154182	-0.076641	0.010668
730	3.702587	0.005000	8.746995	-0.271155	-4.077435	-0.052239	-0.161634	-0.770947	0.136519	-0.072823	0.027256
731	3.707587	0.005000	8.678409	-0.301183	-4.120200	-0.052239	-0.161293	-0.771075	0.131347	-0.069041	0.038800
732	3.712587	0.005000	8.680889	-0.292379	-4.172132	-0.052239	-0.160951	-0.771202	0.133826	-0.071566	0.054791
733	3.717587	0.005000	8.754998	-0.140895	-4.104135	-0.052239	-0.160610	-0.771329	0.122781	-0.073915	0.050038
734	3.722587	0.005000	8.740143	-0.167337	-4.105769	-0.052239	-0.160268	-0.771456	0.135788	-0.083067	0.059143
735	3.727587	0.005000	8.737934	-0.191511	-3.997791	-0.052239	-0.159927	-0.771583	0.123781	-0.064938	0.069461
736	3.732587	0.005000	8.770639	-0.334039	-4.160438	-0.052124	-0.159509	-0.771667	0.125733	-0.062120	0.077110
737	3.737587	0.005000	8.783981	-0.291411	-4.013432	-0.051782	-0.158940	-0.771667	0.109582	-0.062631	0.076836
738	3.742587	0.005000	8.669620	-0.286146	-4.011526	-0.051441	-0.158371	-0.771667	0.101626	-0.057159	0.081010
739	3.747587	0.005000	8.637731	-0.313920	-3.917889	-0.051099	-0.157802	-0.771667	0.105794	-0.058455	0.091181
740	3.752587	0.005000	8.686386	-0.297324	-3.946644	-0.050758	-0.157233	-0.771667	0.085084	-0.055021	0.093209
741	3.757587	0.005000	8.722928	-0.319744	-4.131848	-0.050417	-0.156664	-0.771667	0.087062	-0.062092	0.094649
742	3.762587	0.005000	8.705320	-0.274680	-4.038740	-0.050075	-0.156095	-0.771667	0.067122	-0.049425	0.099464
743	3.767587	0.005000	8.672585	-0.274680	-4.041448	-0.049734	-0.155526	-0.771667	0.075361	-0.060466	0.102951
744	3.772587	0.005000	8.755936	-0.238148	-3.963240	-0.049392	-0.154957	-0.771667	0.085024	-0.058446	0.099762
745	3.777587	0.005000	8.745422	-0.240538	-4.173191	-0.049051	-0.154388	-0.771667	0.076285	-0.067501	0.108439
746	3.782587	0.005000	8.844415	-0.243382	-3.931942	-0.048709	-0.153820	-0.771667	0.083028	-0.071275	0.121746
747	3.787587	0.005000	8.942817	-0.217771	-3.980909	-0.048368	-0.153251	-0.771667	0.076854	-0.073945	0.125116
748	3.792587	0.005000	8.842630	-0.080129	-3.976870	-0.048027	-0.152682	-0.771667	0.093036	-0.084139	0.128427
749	3.797587	0.005000	8.852042	-0.078480	-4.127044	-0.047761	-0.152214	-0.771582	0.080457	-0.083504	0.144722
750	3.802587	0.005000	8.770911	-0.001543	-4.019786	-0.047761	-0.152100	-0.771201	0.084949	-0.071771	0.133619
751	3.807587	0.005000	8.929172	0.060932	-4.059268	-0.047761	-0.151986	-0.770820	0.112071	-0.085717	0.137026
752	3.812587	0.005000	8.760353	0.147127	-3.870056	-0.047761	-0.151872	-0.770439	0.110776	-0.061498	0.129231
753	3.817587	0.005000	8.825339	0.184340	-3.990620	-0.047761	-0.151759	-0.770058	0.153570	-0.090309	0.122269
754	3.822587	0.005000	8.829000	0.226424	-3.875744	-0.047761	-0.151645	-0.769677	0.158121	-0.079126	0.114617
755	3.827587	0.005000	8.783119	0.228799	-3.995839	-0.047761	-0.151531	-0.769296	0.177054	-0.084592	0.099373
756	3.832587	0.005000	8.761911	0.227846	-3.955646	-0.047761	-0.151417	-0.768915	0.212150	-0.080813	0.100567
757	3.837587	0.005000	8.828047	0.156007	-3.848379	-0.047761	-0.151304	-0.768534	0.219021	-0.095947	0.097264
758	3.842587	0.005000	8.752411	0.192418	-3.925891	-0.047761	-0.151190	-0.768153	0.231368	-0.077040	0.082495
759	3.847587	0.005000	8.971756	0.087950	-4.027516	-0.047761	-0.151076	-0.767772	0.222271	-0.082839	0.081158
760	3.852587	0.005000	8.836579	0.149381	-4.010059	-0.047761	-0.150962	-0.767391	0.236613	-0.087313	0.065025
761	3.857587	0.005000	8.936635	-0.058309	-4.051805	-0.047761	-0.150848	-0.767010	0.257538	-0.119576	0.069167
762	3.862587	0.005000	8.776750	-0.156960	-4.028605	-0.047750	-0.150701	-0.766705	0.263093	-0.119334	0.052097
763	3.867587	0.005000	8.679770	-0.204127	-4.159440	-0.047636	-0.150246	-0.767086	0.282616	-0.143657	0.062236
764	3.872587	0.005000	8.651301	-0.256179	-4.122439	-0.047522	-0.149791	-0.767467	0.240820	-0.118447	0.056861
765	3.877587	0.005000	8.590111	-0.267782	-4.259265	-0.047408	-0.149335	-0.767848	0.248978	-0.132523	0.081254
766	3.882587	0.005000	8.460319	-0.368681	-4.222399	-0.047295	-0.148880	-0.768230	0.217809	-0.123507	0.085184
767	3.887587	0.005000	8.541643	-0.379723	-4.237920	-0.047181	-0.148425	-0.768611	0.237648	-0.115461	0.097298
768	3.892587	0.005000	8.466098	-0.274680	-4.208513	-0.047067	-0.147970	-0.768992	0.219175	-0.091017	0.105935
769	3.897587	0.005000	8.468851	-0.242429	-4.230931	-0.046953	-0.147515	-0.769373	0.225104	-0.112209	0.107547
770	3.902587	0.005000	8.323025	-0.287115	-4.120200	-0.046840	-0.147060	-0.769754	0.213602	-0.112029	0.116972
771	3.907587	0.005000	8.355488	-0.468248	-4.083592	-0.046726	-0.146604	-0.770136	0.212056	-0.115475	0.144463
772	3.912587	0.005000	8.355942	-0.392400	-4.159440	-0.046612	-0.146149	-0.770517	0.208921	-0.111948	0.126918
773	3.917587	0.005000	8.444466	-0.466947	-4.171239	-0.046498	-0.145694	-0.770898	0.211684	-0.098882	0.150454
774	3.922587	0.005000	8.450154	-0.399177	-4.179771	-0.046385	-0.145239	-0.771279	0.214691	-0.087803	0.143272
775	3.927587	0.005000	8.515080	-0.441261	-4.100202	-0.046271	-0.144784	-0.771660	0.217035	-0.096992	0.150620
776	3.932587	0.005000	8.502615	-0.470880	-4.004326	-0.045710	-0.145000	-0.770918	0.199658	-0.093815	0.151448
777	3.937587	0.005000	8.545119	-0.603619	-4.110999	-0.045141	-0.145227	-0.770155	0.194987	-0.087001	0.166407
778	3.942587	0.005000	8.558193	-0.610156	-4.102516	-0.044572	-0.145455	-0.769393	0.175929	-0.073964	0.162490
779	3.947587	0.005000	8.655143	-0.571703	-4.140728	-0.044003	-0.145682	-0.768631	0.183025	-0.077906	0.166598
780	3.952587	0.005000	8.632800	-0.486748	-4.222914	-0.043434	-0.145910	-0.767868	0.173514	-0.078650	0.174773
781	3.957587	0.005000	8.580092	-0.496943	-4.316400	-0.042865	-0.146138	-0.767106	0.141766	-0.079993	0.178551
782	3.962587	0.005000	8.525714	-0.581263	-4.327034	-0.042296	-0.146365	-0.766343	0.128357	-0.077828	0.175763
783	3.967587	0.005000	8.475840	-0.620049	-4.237920	-0.041727	-0.146593	-0.765581	0.109039	-0.067360	0.189071
784	3.972587	0.005000	8.485733	-0.676973	-4.257706	-0.041158	-0.146820	-0.764819	0.107063	-0.079437	0.192325
785	3.977587	0.005000	8.438703	-0.662875	-4.196577	-0.040589	-0.147048	-0.764056	0.087945	-0.068145	0.188034
786	3.982587	0.005000	8.514354	-0.627114	-4.274981	-0.040020	-0.147275	-0.763294	0.081217	-0.077798	0.186717
787	3.987587	0.005000	8.436600	-0.850815	-4.201796	-0.039451	-0.147503	-0.762531	0.067680	-0.059042	0.180055
788	3.992587	0.005000	8.481800	-0.806160	-4.204640	-0.038882	-0.147731	-0.761769	0.057465	-0.074808	0.185587
789	3.997587	0.005000	8.454208	-0.784800	-4.177048	-0.038609	-0.146972	-0.761997	0.047483	-0.072239	0.179586
790	4.002587	0.005000	8.480136	-0.745560	-4.269808	-0.038381	-0.146062	-0.762378	0.021860	-0.075857	0.189532
791	4.007587	0.005000	8.440836	-0.691828	-4.301908	-0.038154	-0.145152	-0.762760	0.014336	-0.063069	0.181648
792	4.012587	0.005000	8.542959	-0.767933	-4.338773	-0.037926	-0.144242	-0.763141	0.004663	-0.073765	0.177360
793	4.017587	0.005000	8.475840	-0.726212	-4.355822	-0.037699	-0.143331	-0.763522	-0.019336	-0.050636	0.172636
794	4.022587	0.005000	8.509211	-0.683765	-4.394880	-0.037471	-0.142421	-0.763903	-0.002954	-0.059451	0.169427
795	4.027587	0.005000	8.607401	-0.655523	-4.212521	-0.037243	-0.141511	-0.764284	-0.023111	-0.023824	0.159893
796	4.032587	0.005000	8.560182	-0.627840	-4.327526	-0.037016	-0.140600	-0.764666	-0.015588	-0.048600	0.157803
797	4.037587	0.005000	8.493055	-0.653662	-4.299185	-0.036788	-0.139690	-0.765047	-0.023854	-0.030543	0.155437
798	4.042587	0.005000	8.593560	-0.672843	-4.327927	-0.036561	-0.138780	-0.765428	-0.034040	-0.046858	0.152178
799	4.047587	0.005000	8.551400	-0.712159	-4.391960	-0.036333	-0.137869	-0.765809	-0.035064	-0.041593	0.146239
800	4.052587	0.005000	8.593409	-0.863204	-4.551613	-0.036106	-0.136959	-0.766190	-0.037235	-0.053390	0.147099
801	4.057587	0.005000	8.369193	-0.824040	-4.324705	-0.035878	-0.136049	-0.766572	-0.043263	-0.042738	0.135774
802	4.062587	0.005000	8.420984	-0.863280	-4.496984	-0.036077	-0.135650	-0.766477	-0.074604	-0.047649	0.144548
803	4.067587	0.005000	8.366107	-0.879254	-4.230629	-0.036418	-0.135423	-0.766222	-0.056200	-0.040057	0.128968
804	4.072587	0.005000	8.368951	-0.813209	-4.423289	-0.036759	-0.135196	-0.765968	-0.042237	-0.044006	0.153676
805	4.077587	0.005000	8.293315	-0.757450	-4.304510	-0.037101	-0.134968	-0.765714	-0.049827	-0.030747	0.138829
806	4.082587	0.005000	8.312678	-0.931443	-4.434120	-0.037442	-0.134741	-0.765460	-0.053495	-0.042180	0.141878
807	4.087587	0.005000	8.221270	-0.862301	-4.296290	-0.037783	-0.134513	-0.765206	-0.061382	-0.028817	0.136803
808	4.092587	0.005000	8.375353	-0.863280	-4.259927	-0.038124	-0.134286	-0.764952	-0.046668	-0.030837	0.147594
809	4.097587	0.005000	8.333523	-0.784800	-4.164129	-0.038466	-0.134058	-0.764698	-0.052197	-0.025245	0.137982
810	4.102587	0.005000	8.401202	-0.627840	-4.226121	-0.038807	-0.133831	-0.764444	-0.050776	-0.023211	0.140959
811	4.107587	0.005000	8.318880	-0.606511	-4.186306	-0.039148	-0.133603	-0.764190	-0.032406	-0.037075	0.144036
812	4.112587	0.005000	8.312769	-0.745560	-4.349529	-0.039489	-0.133376	-0.763936	-0.032034	-0.011638	0.126692
813	4.117587	0.005000	8.322616	-0.781064	-4.269687	-0.039831	-0.133148	-0.763682	-0.016205	-0.020457	0.127973
814	4.122587	0.005000	8.438385	-0.665295	-4.162118	-0.040172	-0.132921	-0.763428	-0.032667	-0.005355	0.121888
815	4.127587	0.005000	8.515080	-0.514023	-4.314449	-0.040013	-0.132836	-0.763174	-0.009989	-0.013295	0.116082
816	4.132587	0.005000	8.441395	-0.544565	-4.306809	-0.039558	-0.132836	-0.762919	-0.008486	-0.006282	0.114935
817	4.137587	0.005000	8.491118	-0.439279	-4.277160	-0.039102	-0.132836	-0.762665	-0.002073	-0.008554	0.098526
818	4.142587	0.005000	8.465357	-0.510120	-4.313707	-0.038647	-0.132836	-0.762411	-0.015479	-0.005711	0.097791
819	4.147587	0.005000	8.449473	-0.405273	-4.355640	-0.038192	-0.132836	-0.762157	-0.017715	0.006510	0.090111
820	4.152587	0.005000	8.436600	-0.329622	-4.292862	-0.037736	-0.132836	-0.761902	-0.017219	0.001592	0.080565
821	4.157587	0.005000	8.455146	-0.313920	-4.415574	-0.037281	-0.132836	-0.761648	-0.019380	0.003119	0.074452
822	4.162587	0.005000	8.475840	-0.445950	-4.316400	-0.036825	-0.132836	-0.761394	-0.004446	0.012319	0.064141
823	4.167587	0.005000	8.505852	-0.416634	-4.247148	-0.036370	-0.132836	-0.761140	-0.014719	0.007107	0.060012
824	4.172587	0.005000	8.620638	-0.416725	-4.262245	-0.035914	-0.132836	-0.760885	-0.013151	0.007474	0.048493
825	4.177587	0.005000	8.593560	-0.480652	-4.335944	-0.035459	-0.132836	-0.760631	0.000042	-0.000823	0.040148
826	4.182587	0.005000	8.586632	-0.470880	-4.394880	-0.035003	-0.132836	-0.760377	-0.006473	0.001728	0.038075
827	4.187587	0.005000	8.566573	-0.510120	-4.281244	-0.034548	-0.132836	-0.760123	-0.003724	0.015448	0.037323
828	4.192587	0.005000	8.513840	-0.472120	-4.389918	-0.034446	-0.132777	-0.759672	0.005298	0.010832	0.037269
829	4.197587	0.005000	8.513477	-0.547757	-4.275557	-0.034673	-0.132663	-0.759037	-0.013902	0.025854	0.033798
830	4.202587	0.005000	8.584665	-0.588600	-4.385985	-0.034901	-0.132550	-0.758402	0.000809	0.019756	0.031246
831	4.207587	0.005000	8.650166	-0.652497	-4.245211	-0.035128	-0.132436	-0.757767	-0.010345	0.020268	0.040403
832	4.212587	0.005000	8.661905	-0.656945	-4.267025	-0.035355	-0.132322	-0.757132	-0.017163	0.013961	0.038371
833	4.217587	0.005000	8.593560	-0.613923	-4.198680	-0.035583	-0.132208	-0.756497	-0.037979	0.012865	0.038922
834	4.222587	0.005000	8.608914	-0.557892	-4.222566	-0.035810	-0.132095	-0.755862	-0.036532	0.007192	0.036513
835	4.227587	0.005000	8.572518	-0.606798	-4.240764	-0.036038	-0.131981	-0.755227	-0.029135	-0.006697	0.044352
836	4.232587	0.005000	8.499726	-0.531162	-4.258962	-0.036265	-0.131867	-0.754592	-0.029066	-0.002513	0.037247
837	4.237587	0.005000	8.428068	-0.470880	-4.277160	-0.036493	-0.131753	-0.753957	-0.035769	0.002138	0.038324
838	4.242587	0.005000	8.515080	-0.576090	-4.341420	-0.036720	-0.131639	-0.753322	-0.038707	0.002046	0.052714
839	4.247587	0.005000	8.613241	-0.510120	-4.336081	-0.036948	-0.131526	-0.752687	-0.037914	0.002071	0.048841
840	4.252587	0.005000	8.475840	-0.510120	-4.237920	-0.037175	-0.131412	-0.752052	-0.032376	-0.001540	0.049876
841	4.257587	0.005000	8.397360	-0.544928	-4.233488	-0.037717	-0.132016	-0.750915	-0.035735	0.009406	0.048442
842	4.262587	0.005000	8.513492	-0.506943	-4.161028	-0.038741	-0.133723	-0.749009	-0.026416	-0.000165	0.044650
843	4.267587	0.005000	8.513824	-0.431640	-4.198680	-0.039765	-0.135430	-0.747103	-0.022320	0.004012	0.049506
844	4.272587	0.005000	8.672040	-0.428009	-4.163071	-0.040789	-0.137137	-0.745197	-0.010195	0.001050	0.048248
845	4.277587	0.005000	8.606509	-0.425166	-4.283634	-0.041813	-0.138844	-0.743291	-0.010195	0.000289	0.045250
846	4.282587	0.005000	8.602878	-0.431640	-4.247238	-0.042838	-0.140550	-0.741385	-0.008068	0.003971	0.040895
847	4.287587	0.005000	8.473087	-0.431640	-4.304238	-0.043862	-0.142257	-0.739479	-0.001826	0.001023	0.036781
848	4.292587	0.005000	8.564115	-0.382605	-4.277160	-0.044886	-0.143964	-0.737573	0.005492	0.008550	0.042795
849	4.297587	0.005000	8.453996	-0.353160	-4.250869	-0.045910	-0.145671	-0.735667	0.014578	0.002096	0.034539
850	4.302587	0.005000	8.513840	-0.411400	-4.275920	-0.046934	-0.147378	-0.733761	0.014102	0.004277	0.033088
851	4.307587	0.005000	8.570671	-0.353160	-4.349103	-0.047958	-0.149085	-0.731855	0.027376	0.007094	0.028426
852	4.312587	0.005000	8.683718	-0.366941	-4.394880	-0.048982	-0.150791	-0.729949	0.017039	0.005960	0.033390
853	4.317587	0.005000	8.593560	-0.470880	-4.394880	-0.050006	-0.152498	-0.728044	0.019524	-0.002115	0.022256
854	4.322587	0.005000	8.569281	-0.439733	-4.465267	-0.050620	-0.153573	-0.727302	0.019709	-0.010007	0.025609
855	4.327587	0.005000	8.436600	-0.486627	-4.350391	-0.050164	-0.153004	-0.729590	0.034844	-0.005324	0.017080
856	4.332587	0.005000	8.399794	-0.546926	-4.313966	-0.049709	-0.152435	-0.731877	0.039402	-0.003887	0.021536
857	4.337587	0.005000	8.475931	-0.510150	-4.277130	-0.049254	-0.151866	-0.734164	0.031598	-0.009182	0.019970
858	4.342587	0.005000	8.520707	-0.512934	-4.310773	-0.048799	-0.151297	-0.736451	0.044412	-0.010762	0.017925
859	4.347587	0.005000	8.554320	-0.549360	-4.316400	-0.048344	-0.150728	-0.738738	0.048850	-0.006109	0.011260
860	4.352587	0.005000	8.576557	-0.549360	-4.333403	-0.047889	-0.150160	-0.741026	0.022889	-0.008577	0.013756
861	4.357587	0.005000	8.588356	-0.510120	-4.355640	-0.047433	-0.149591	-0.743313	0.032647	-0.013687	0.011813
862	4.362587	0.005000	8.489736	-0.459432	-4.344192	-0.046978	-0.149022	-0.745600	0.037012	-0.015577	0.014291
863	4.367587	0.005000	8.498501	-0.454301	-4.372219	-0.046523	-0.148453	-0.747887	0.024713	-0.016273	0.020674
864	4.372587	0.005000	8.515080	-0.529937	-4.297370	-0.046068	-0.147884	-0.750175	0.034535	-0.023247	0.022916
865	4.377587	0.005000	8.441895	-0.520709	-4.394880	-0.045613	-0.147315	-0.752462	0.036446	-0.010938	0.029478
866	4.382587	0.005000	8.450729	-0.535231	-4.437266	-0.045158	-0.146746	-0.754749	0.043799	-0.011932	0.028405
867	4.387587	0.005000	8.385606	-0.510120	-4.355640	-0.044978	-0.146453	-0.756442	0.027693	-0.005757	0.023379
868	4.392587	0.005000	8.354520	-0.579690	-4.416300	-0.046229	-0.147590	-0.755044	0.039517	-0.014447	0.019385
869	4.397587	0.005000	8.515080	-0.483012	-4.373838	-0.047480	-0.148727	-0.753647	0.042786	-0.009624	0.020055
870	4.402587	0.005000	8.472618	-0.519786	-4.355640	-0.048731	-0.149865	-0.752250	0.047759	-0.011089	0.026025
871	4.407587	0.005000	8.437748	-0.627457	-4.433355	-0.049982	-0.151002	-0.750853	0.050155	-0.008871	0.029199
872	4.412587	0.005000	8.479864	-0.439688	-4.430096	-0.051234	-0.152139	-0.749456	0.044574	0.001584	0.018028
873	4.417587	0.005000	8.475840	-0.500408	-4.473360	-0.052485	-0.153277	-0.748059	0.069825	-0.001546	0.031705
874	4.422587	0.005000	8.373520	-0.517820	-4.316400	-0.053736	-0.154414	-0.746662	0.058032	0.001139	0.029262
875	4.427587	0.005000	8.426056	-0.510120	-4.345096	-0.054987	-0.155551	-0.745264	0.070642	0.000012	0.021075
876	4.432587	0.005000	8.502161	-0.483799	-4.290079	-0.056238	-0.156689	-0.743867	0.063573	0.002582	0.030767
877	4.437587	0.005000	8.475840	-0.510120	-4.237920	-0.057489	-0.157826	-0.742470	0.065935	0.002507	0.026134
878	4.442587	0.005000	8.572926	-0.567966	-4.316400	-0.058740	-0.158963	-0.741073	0.066413	0.005632	0.026903
879	4.447587	0.005000	8.554320	-0.549360	-4.259370	-0.059991	-0.160101	-0.739676	0.066438	0.010978	0.035464
880	4.452587	0.005000	8.544971	-0.597949	-4.316400	-0.061101	-0.161110	-0.738397	0.083636	0.000440	0.040875
881	4.457587	0.005000	8.566876	-0.577618	-4.277160	-0.058712	-0.158948	-0.740049	0.087962	-0.002441	0.048274
882	4.462587	0.005000	8.613377	-0.608023	-4.336217	-0.056322	-0.156786	-0.741701	0.068694	-0.009097	0.046942
883	4.467587	0.005000	8.554320	-0.556228	-4.251656	-0.053932	-0.154624	-0.743353	0.079451	-0.008574	0.039775
884	4.472587	0.005000	8.558344	-0.553384	-4.359664	-0.051543	-0.152462	-0.745005	0.071359	-0.001302	0.044701
885	4.477587	0.005000	8.593560	-0.549360	-4.318788	-0.049153	-0.150300	-0.746657	0.094903	-0.001548	0.052265
886	4.482587	0.005000	8.555515	-0.511315	-4.356835	-0.046764	-0.148138	-0.748309	0.064757	-0.001463	0.048933
887	4.487587	0.005000	8.519119	-0.470880	-4.281199	-0.044374	-0.145976	-0.749960	0.076749	-0.001932	0.050810
888	4.492587	0.005000	8.607326	-0.535594	-4.244803	-0.041984	-0.143814	-0.751612	0.080870	-0.003013	0.051882
889	4.497587	0.005000	8.572836	-0.657822	-4.307142	-0.039595	-0.141652	-0.753264	0.093150	-0.007938	0.046740
890	4.502587	0.005000	8.527182	-0.627840	-4.301364	-0.037205	-0.139490	-0.754916	0.095938	-0.010531	0.058176
891	4.507587	0.005000	8.451546	-0.612894	-4.346291	-0.034816	-0.137328	-0.756568	0.090109	-0.005959	0.052371
892	4.512587	0.005000	8.475840	-0.567150	-4.252049	-0.032426	-0.135166	-0.758220	0.081144	-0.003913	0.059110
893	4.517587	0.005000	8.496474	-0.528726	-4.335006	-0.030036	-0.133004	-0.759872	0.076681	0.002197	0.048395
894	4.522587	0.005000	8.530843	-0.651317	-4.324115	-0.029641	-0.132416	-0.760234	0.088313	0.006472	0.050815
895	4.527587	0.005000	8.436600	-0.588600	-4.381810	-0.029414	-0.131961	-0.760488	0.092264	-0.002435	0.062610
896	4.532587	0.005000	8.386831	-0.706320	-4.237920	-0.029186	-0.131506	-0.760742	0.102682	0.001557	0.056595
897	4.537587	0.005000	8.421231	-0.658579	-4.331769	-0.028959	-0.131052	-0.760996	0.106924	-0.000372	0.053224
898	4.542587	0.005000	8.362961	-0.809518	-4.409402	-0.028731	-0.130597	-0.761250	0.100707	0.010439	0.052063
899	4.547587	0.005000	8.434603	-0.702326	-4.394880	-0.028504	-0.130142	-0.761504	0.110776	0.009594	0.054015
900	4.552587	0.005000	8.320574	-0.551054	-4.433273	-0.028276	-0.129687	-0.761758	0.116804	0.016398	0.053855
901	4.557587	0.005000	8.426934	-0.585378	-4.434120	-0.028049	-0.129232	-0.762012	0.115337	0.019438	0.034290
902	4.562587	0.005000	8.475840	-0.582534	-4.415922	-0.027821	-0.128777	-0.762266	0.141921	0.021483	0.030641
903	4.567587	0.005000	8.397360	-0.479790	-4.385970	-0.027594	-0.128322	-0.762520	0.139730	0.031638	0.023388
904	4.572587	0.005000	8.436600	-0.549360	-4.406634	-0.027366	-0.127867	-0.762774	0.140165	0.016050	0.019281
905	4.577587	0.005000	8.372429	-0.524429	-4.380571	-0.027139	-0.127412	-0.763028	0.138776	0.028072	0.022602
906	4.582587	0.005000	8.475840	-0.515384	-4.311136	-0.026912	-0.126957	-0.763282	0.139917	0.014067	0.001577
907	4.587587	0.005000	8.495248	-0.569192	-4.375472	-0.027048	-0.126866	-0.763536	0.138876	0.006059	0.017104
908	4.592587	0.005000	8.537756	-0.644404	-4.283271	-0.027276	-0.126866	-0.763790	0.137446	0.025503	0.006565
909	4.597587	0.005000	8.517499	-0.720206	-4.302514	-0.027503	-0.126866	-0.764045	0.157593	0.019371	0.010911
910	4.602587	0.005000	8.554320	-0.734215	-4.260611	-0.027731	-0.126866	-0.764299	0.152529	0.029686	0.020373
911	4.607587	0.005000	8.532083	-0.714821	-4.290896	-0.027958	-0.126866	-0.764553	0.153331	0.026525	0.020323
912	4.612587	0.005000	8.660725	-0.723293	-4.288475	-0.028186	-0.126866	-0.764807	0.143469	0.026817	0.031244
913	4.617587	0.005000	8.551506	-0.899706	-4.397694	-0.028413	-0.126866	-0.765061	0.123033	0.023938	0.026669
914	4.622587	0.005000	8.671919	-0.784861	-4.434120	-0.028641	-0.126866	-0.765316	0.107731	0.017459	0.029835
915	4.627587	0.005000	8.669591	-0.713666	-4.355640	-0.028869	-0.126866	-0.765570	0.111549	0.020016	0.029761
916	4.632587	0.005000	8.739991	-0.745560	-4.316400	-0.029096	-0.126866	-0.765824	0.132516	0.016001	0.028273
917	4.637587	0.005000	8.593560	-0.784800	-4.277160	-0.029324	-0.126866	-0.766078	0.127904	0.013694	0.030024
918	4.642587	0.005000	8.536984	-0.671648	-4.344688	-0.029551	-0.126866	-0.766332	0.131277	0.002621	0.020317
919	4.647587	0.005000	8.463254	-0.627840	-4.394880	-0.029779	-0.126866	-0.766587	0.134455	0.007940	0.027151
920	4.652587	0.005000	8.475840	-0.588600	-4.371811	-0.030162	-0.126866	-0.766233	0.146830	0.027655	0.015605
921	4.657587	0.005000	8.456825	-0.725335	-4.335415	-0.030617	-0.126866	-0.765597	0.151524	0.028609	0.018951
922	4.662587	0.005000	8.532671	-0.675194	-4.312343	-0.031072	-0.126866	-0.764962	0.123006	0.043669	0.008393
923	4.667587	0.005000	8.475840	-0.687865	-4.340634	-0.031528	-0.126866	-0.764327	0.135195	0.039348	0.003688
924	4.672587	0.005000	8.448762	-0.836202	-4.355640	-0.031983	-0.126866	-0.763691	0.132884	0.041026	0.013760
925	4.677587	0.005000	8.367438	-0.824040	-4.355640	-0.032438	-0.126866	-0.763056	0.134101	0.043579	0.017072
926	4.682587	0.005000	8.443074	-0.784800	-4.355640	-0.032893	-0.126866	-0.762420	0.135714	0.039096	0.015269
927	4.687587	0.005000	8.488093	-0.749644	-4.403049	-0.033348	-0.126866	-0.761785	0.128687	0.035885	0.015319
928	4.692587	0.005000	8.474600	-0.746800	-4.431639	-0.033803	-0.126866	-0.761150	0.123809	0.029726	0.007234
929	4.697587	0.005000	8.436600	-0.822437	-4.355640	-0.034258	-0.126866	-0.760514	0.097035	0.035255	0.006975
930	4.702587	0.005000	8.510633	-0.789247	-4.385985	-0.034714	-0.126866	-0.759879	0.100835	0.027174	-0.001208
931	4.707587	0.005000	8.483131	-0.745560	-4.426829	-0.035169	-0.126866	-0.759244	0.110424	0.026100	0.003388
932	4.712587	0.005000	8.456507	-0.775134	-4.463694	-0.035624	-0.126866	-0.758608	0.094596	0.025669	-0.001698
933	4.717587	0.005000	8.500860	-0.770580	-4.353931	-0.035498	-0.126737	-0.758549	0.094541	0.031406	0.004204
934	4.722587	0.005000	8.538966	-0.667080	-4.331754	-0.034929	-0.126509	-0.758930	0.088399	0.027232	0.005798
935	4.727587	0.005000	8.451954	-0.688122	-4.373838	-0.034360	-0.126282	-0.759312	0.092852	0.029318	0.008920
936	4.732587	0.005000	8.515080	-0.763971	-4.318818	-0.033791	-0.126054	-0.759693	0.077513	0.024843	0.006440
937	4.737587	0.005000	8.468216	-0.761368	-4.300592	-0.033222	-0.125827	-0.760074	0.072693	0.024314	0.003037
938	4.742587	0.005000	8.358120	-0.706668	-4.276812	-0.032653	-0.125599	-0.760455	0.088979	0.022321	0.008177
939	4.747587	0.005000	8.456840	-0.608840	-4.356880	-0.032084	-0.125371	-0.760836	0.062893	0.028118	0.005698
940	4.752587	0.005000	8.468476	-0.610693	-4.434120	-0.031516	-0.125144	-0.761218	0.080899	0.028582	0.006503
941	4.757587	0.005000	8.470939	-0.681784	-4.394880	-0.030947	-0.124916	-0.761599	0.069843	0.034191	0.010419
942	4.762587	0.005000	8.477897	-0.830212	-4.353583	-0.030378	-0.124689	-0.761980	0.075545	0.032662	-0.004774
943	4.767587	0.005000	8.553533	-0.864853	-4.239493	-0.029809	-0.124461	-0.762361	0.085374	0.032252	0.009055
944	4.772587	0.005000	8.326141	-0.717212	-4.312769	-0.029240	-0.124234	-0.762742	0.049075	0.040835	0.013221
945	4.777587	0.005000	8.436600	-0.600782	-4.322491	-0.028671	-0.124006	-0.763124	0.064060	0.028000	0.002103
946	4.782587	0.005000	8.466975	-0.749342	-4.355640	-0.028512	-0.124035	-0.763505	0.067737	0.035776	0.017392
947	4.787587	0.005000	8.464132	-0.757268	-4.284754	-0.028853	-0.124376	-0.763886	0.087075	0.041443	0.015219
948	4.792587	0.005000	8.465705	-0.770248	-4.252472	-0.029194	-0.124717	-0.764267	0.077336	0.034817	0.019108
949	4.797587	0.005000	8.397360	-0.863280	-4.259764	-0.029535	-0.125058	-0.764648	0.068678	0.029443	-0.005340
950	4.802587	0.005000	8.358901	-0.745560	-4.355640	-0.029877	-0.125399	-0.765029	0.081779	0.025635	-0.001012
951	4.807587	0.005000	8.380735	-0.700330	-4.339015	-0.030218	-0.125741	-0.765410	0.076013	0.034452	-0.006774
952	4.812587	0.005000	8.424922	-0.796478	-4.290941	-0.030559	-0.126082	-0.765791	0.074548	0.037896	-0.000343
953	4.817587	0.005000	8.526017	-0.734623	-4.294526	-0.030900	-0.126423	-0.766172	0.064030	0.038161	0.010898
954	4.822587	0.005000	8.506987	-0.784800	-4.277160	-0.031242	-0.126764	-0.766553	0.079334	0.030246	0.012706
955	4.827587	0.005000	8.458686	-0.633558	-4.355640	-0.031583	-0.127105	-0.766934	0.077054	0.025836	0.008413
956	4.832587	0.005000	8.433726	-0.552234	-4.277160	-0.031924	-0.127446	-0.767315	0.068276	0.039142	-0.002279
957	4.837587	0.005000	8.318880	-0.627840	-4.159531	-0.032265	-0.127788	-0.767696	0.072127	0.033479	0.010698
958	4.842587	0.005000	8.318880	-0.591414	-4.313586	-0.032607	-0.128129	-0.768077	0.064510	0.039147	0.005344
959	4.847587	0.005000	8.402625	-0.667080	-4.321665	-0.032724	-0.128470	-0.768291	0.080847	0.042042	0.000107
960	4.852587	0.005000	8.483888	-0.753608	-4.309351	-0.032383	-0.128811	-0.768164	0.074002	0.043590	0.011432
961	4.857587	0.005000	8.458383	-0.656188	-4.344748	-0.032041	-0.129153	-0.768037	0.075331	0.047584	-0.000263
962	4.862587	0.005000	8.475840	-0.667080	-4.316400	-0.031700	-0.129494	-0.767910	0.085231	0.043757	0.010740
963	4.867587	0.005000	8.531385	-0.706320	-4.300095	-0.031358	-0.129836	-0.767783	0.087266	0.052342	0.009123
964	4.872587	0.005000	8.613846	-0.765846	-4.297446	-0.031017	-0.130177	-0.767656	0.096940	0.049362	0.011082
965	4.877587	0.005000	8.536878	-0.667080	-4.394880	-0.030676	-0.130518	-0.767529	0.069365	0.053450	0.017114
966	4.882587	0.005000	8.622756	-0.603198	-4.355640	-0.030334	-0.130860	-0.767402	0.082539	0.049654	0.022728
967	4.887587	0.005000	8.554320	-0.651348	-4.277160	-0.029993	-0.131201	-0.767275	0.059066	0.051677	0.033220
968	4.892587	0.005000	8.536292	-0.815026	-4.316400	-0.029651	-0.131543	-0.767148	0.054045	0.054515	0.030242
969	4.897587	0.005000	8.482360	-0.712840	-4.139881	-0.029310	-0.131884	-0.767021	0.059013	0.053611	0.024271
970	4.902587	0.005000	8.589884	-0.792152	-4.163116	-0.028969	-0.132225	-0.766894	0.059074	0.060558	0.024012
971	4.907587	0.005000	8.514248	-0.823208	-4.160272	-0.028627	-0.132567	-0.766767	0.071074	0.061054	0.023610
972	4.912587	0.005000	8.475840	-0.784800	-4.198680	-0.028406	-0.132716	-0.766748	0.053745	0.049611	0.027354
973	4.917587	0.005000	8.489160	-0.898080	-4.242360	-0.028634	-0.132147	-0.767129	0.053626	0.055262	0.024298
974	4.922587	0.005000	8.579098	-0.720782	-4.166671	-0.028861	-0.131578	-0.767510	0.056544	0.055855	0.033269
975	4.927587	0.005000	8.564395	-0.706320	-4.227845	-0.029089	-0.131009	-0.767891	0.044988	0.057573	0.023440
976	4.932587	0.005000	8.489243	-0.811121	-4.199164	-0.029316	-0.130440	-0.768272	0.045850	0.055628	0.029739
977	4.937587	0.005000	8.444648	-0.784800	-4.261397	-0.029544	-0.129871	-0.768654	0.041227	0.065703	0.032567
978	4.942587	0.005000	8.477867	-0.667080	-4.219314	-0.029772	-0.129302	-0.769035	0.027476	0.068252	0.024404
979	4.947587	0.005000	8.557564	-0.649082	-4.223167	-0.029999	-0.128733	-0.769416	0.039677	0.068591	0.028580
980	4.952587	0.005000	8.475840	-0.667080	-4.307959	-0.030227	-0.128164	-0.769797	0.034997	0.069888	0.029230
981	4.957587	0.005000	8.461711	-0.718876	-4.237920	-0.030454	-0.127595	-0.770178	0.040668	0.075059	0.033383
982	4.962587	0.005000	8.475840	-0.696215	-4.277160	-0.030682	-0.127026	-0.770560	0.037054	0.077155	0.029617
983	4.967587	0.005000	8.515080	-0.706320	-4.198680	-0.030909	-0.126457	-0.770941	0.045520	0.073134	0.020220
984	4.972587	0.005000	8.501602	-0.662587	-4.237920	-0.031137	-0.125888	-0.771322	0.035469	0.079717	0.032871
985	4.977587	0.005000	8.554320	-0.667080	-4.275511	-0.031343	-0.125427	-0.771679	0.050110	0.087986	0.023101
986	4.982587	0.005000	8.478230	-0.667080	-4.275965	-0.031343	-0.125996	-0.771806	0.047942	0.083025	0.035517
987	4.987587	0.005000	8.546242	-0.710359	-4.089038	-0.031343	-0.126565	-0.771933	0.042078	0.086829	0.023624
988	4.992587	0.005000	8.436600	-0.738677	-4.087843	-0.031343	-0.127134	-0.772060	0.045396	0.080792	0.028858
989	4.997587	0.005000	8.496564	-0.637098	-4.200889	-0.031343	-0.127703	-0.772187	0.048182	0.086237	0.033003
990	5.002587	0.005000	8.448702	-0.745560	-4.304298	-0.031343	-0.128272	-0.772314	0.052201	0.092394	0.027780
991	5.007587	0.005000	8.475840	-0.745560	-4.286509	-0.031343	-0.128841	-0.772441	0.044017	0.091565	0.013538
992	5.012587	0.005000	8.415150	-0.745560	-4.234259	-0.031343	-0.129410	-0.772568	0.027184	0.107818	0.009774
993	5.017587	0.005000	8.337940	-0.843100	-4.198680	-0.031343	-0.129979	-0.772695	0.040867	0.101026	0.013992
994	5.022587	0.005000	8.420384	-0.824040	-4.260944	-0.031343	-0.130548	-0.772822	0.027766	0.104910	0.010793
995	5.027587	0.005000	8.449972	-0.797295	-4.278037	-0.031343	-0.131117	-0.772949	0.040707	0.100503	0.016478
996	5.032587	0.005000	8.554320	-0.777146	-4.334583	-0.031343	-0.131686	-0.773076	0.038092	0.091392	0.009686
997	5.037587	0.005000	8.412915	-0.886613	-4.190550	-0.031343	-0.132255	-0.773203	0.031212	0.105943	0.005430
998	5.042587	0.005000	8.520390	-0.941760	-4.305781	-0.031343	-0.132824	-0.773330	0.018345	0.111084	0.012971
999	5.047587	0.005000	8.399826	-1.017774	-4.203611	-0.031788	-0.132391	-0.773333	0.021945	0.105534	0.008249
1000	5.052587	0.005000	8.320015	-0.942138	-4.238298	-0.032243	-0.131936	-0.773333	0.022430	0.112708	0.009357
1001	5.057587	0.005000	8.322102	-0.935316	-4.309956	-0.032698	-0.131481	-0.773333	0.011916	0.115237	0.016354
1002	5.062587	0.005000	8.285706	-0.947826	-4.349574	-0.033153	-0.131026	-0.773333	-0.004922	0.122508	0.011840
1003	5.067587	0.005000	8.397360	-0.863280	-4.268704	-0.033608	-0.130571	-0.773333	-0.004742	0.122704	0.027419
1004	5.072587	0.005000	8.436600	-0.835340	-4.271820	-0.034063	-0.130116	-0.773333	0.009590	0.133874	0.008830
1005	5.077587	0.005000	8.318880	-0.902520	-4.366592	-0.034518	-0.129661	-0.773333	0.014764	0.131100	0.009088
1006	5.082587	0.005000	8.397360	-0.919508	-4.400144	-0.034973	-0.129206	-0.773333	0.002133	0.150745	0.003986
1007	5.087587	0.005000	8.416768	-0.902520	-4.336232	-0.035428	-0.128751	-0.773333	0.003728	0.152757	0.020821
1008	5.092587	0.005000	8.368467	-0.863280	-4.389706	-0.035883	-0.128296	-0.773333	0.001396	0.155993	0.019336
1009	5.097587	0.005000	8.346653	-0.810154	-4.369526	-0.036338	-0.127841	-0.773333	-0.002793	0.162713	0.022930
1010	5.102587	0.005000	8.392156	-0.768251	-4.316400	-0.036793	-0.127386	-0.773333	0.001179	0.166474	0.017506
1011	5.107587	0.005000	8.428099	-0.784800	-4.403381	-0.037247	-0.126932	-0.773333	0.004239	0.181320	0.016250
1012	5.112587	0.005000	8.470182	-0.824040	-4.389222	-0.037118	-0.126769	-0.773659	0.006568	0.180234	0.018093
1013	5.117587	0.005000	8.436600	-0.815599	-4.319214	-0.036891	-0.126655	-0.774041	0.008764	0.175004	0.023926
1014	5.122587	0.005000	8.475810	-0.745530	-4.316430	-0.036663	-0.126541	-0.774422	0.017442	0.184498	0.012836
1015	5.127587	0.005000	8.587812	-0.591474	-4.316400	-0.036435	-0.126427	-0.774803	0.019675	0.188735	0.020779
1016	5.132587	0.005000	8.564972	-0.504794	-4.350314	-0.036208	-0.126313	-0.775184	0.022162	0.192391	0.021247
1017	5.137587	0.005000	8.703172	-0.557468	-4.285268	-0.035980	-0.126199	-0.775565	0.040091	0.197194	0.015129
1018	5.142587	0.005000	8.682992	-0.481832	-4.316400	-0.035753	-0.126086	-0.775947	0.031945	0.202268	0.012271
1019	5.147587	0.005000	8.683688	-0.588600	-4.226272	-0.035525	-0.125972	-0.776328	0.043618	0.201743	0.008352
1020	5.152587	0.005000	8.739840	-0.650440	-4.215320	-0.035298	-0.125858	-0.776709	0.064554	0.191279	0.015127
1021	5.157587	0.005000	8.632528	-0.549360	-4.139684	-0.035070	-0.125744	-0.777090	0.058362	0.185599	0.017265
1022	5.162587	0.005000	8.733403	-0.544354	-3.968246	-0.034842	-0.125630	-0.777471	0.082248	0.183816	0.017835
1023	5.167587	0.005000	8.804297	-0.534823	-3.973405	-0.034615	-0.125516	-0.777853	0.079447	0.186551	0.011728
1024	5.172587	0.005000	8.718813	-0.561053	-3.935693	-0.034387	-0.125403	-0.778234	0.083087	0.167386	0.032720
1025	5.177587	0.005000	8.916329	-0.501271	-4.002480	-0.034412	-0.126130	-0.778615	0.095151	0.162717	0.027965
1026	5.182587	0.005000	8.874714	-0.510120	-3.943817	-0.034526	-0.127155	-0.778996	0.084204	0.158214	0.030227
1027	5.187587	0.005000	8.868240	-0.502859	-3.881129	-0.034640	-0.128179	-0.779377	0.091791	0.154206	0.033909
1028	5.192587	0.005000	8.944360	-0.507760	-3.804707	-0.034754	-0.129203	-0.779759	0.092306	0.155861	0.038500
1029	5.197587	0.005000	8.866183	-0.429583	-3.802165	-0.034867	-0.130227	-0.780140	0.114862	0.139498	0.032851
1030	5.202587	0.005000	8.902579	-0.480682	-3.806280	-0.034981	-0.131251	-0.780521	0.113352	0.134556	0.036212
1031	5.207587	0.005000	8.875985	-0.470880	-3.727800	-0.035095	-0.132275	-0.780902	0.132297	0.121791	0.041427
1032	5.212587	0.005000	8.936585	-0.451910	-3.756905	-0.035209	-0.133299	-0.781283	0.120715	0.114979	0.039996
1033	5.217587	0.005000	8.829000	-0.405682	-3.701539	-0.035323	-0.134324	-0.781665	0.121926	0.105963	0.043385
1034	5.222587	0.005000	8.844823	-0.517714	-3.743623	-0.035437	-0.135348	-0.782046	0.139747	0.096198	0.057125
1035	5.227587	0.005000	8.806521	-0.568027	-3.688560	-0.035550	-0.136372	-0.782427	0.149583	0.102886	0.044440
1036	5.232587	0.005000	8.785978	-0.545578	-3.731582	-0.035664	-0.137396	-0.782808	0.160549	0.082446	0.032334
1037	5.237587	0.005000	8.720390	-0.549360	-3.797170	-0.035778	-0.138420	-0.783189	0.170657	0.088460	0.021070
1038	5.242587	0.005000	8.816490	-0.497610	-3.560039	-0.035963	-0.137955	-0.783491	0.176217	0.091598	0.027906
1039	5.247587	0.005000	8.877906	-0.520361	-3.610080	-0.036190	-0.136591	-0.783745	0.169531	0.079535	0.036910
1040	5.252587	0.005000	8.868240	-0.445285	-3.695382	-0.036418	-0.135226	-0.783999	0.160295	0.067026	0.032059
1041	5.257587	0.005000	8.907480	-0.561295	-3.719843	-0.036645	-0.133861	-0.784254	0.185046	0.057992	0.030115
1042	5.262587	0.005000	8.985960	-0.587452	-3.570840	-0.036873	-0.132496	-0.784508	0.169487	0.081940	0.019448
1043	5.267587	0.005000	8.834022	-0.511376	-3.532856	-0.037100	-0.131131	-0.784762	0.176308	0.065311	0.003244
1044	5.272587	0.005000	8.899281	-0.584501	-3.750642	-0.037328	-0.129767	-0.785016	0.184483	0.073606	0.004506
1045	5.277587	0.005000	9.050553	-0.789323	-3.720857	-0.037555	-0.128402	-0.785270	0.189718	0.079984	-0.005059
1046	5.282587	0.005000	8.966295	-0.814253	-3.590415	-0.037783	-0.127037	-0.785524	0.198394	0.076885	0.002755
1047	5.287587	0.005000	8.948066	-0.916498	-3.675929	-0.038010	-0.125672	-0.785778	0.189669	0.063495	0.014948
1048	5.292587	0.005000	8.985960	-0.941760	-3.696850	-0.038237	-0.124307	-0.786032	0.186403	0.037860	0.023124
1049	5.297587	0.005000	8.980756	-1.038559	-3.706879	-0.038465	-0.122942	-0.786286	0.167939	0.041676	0.030459
1050	5.302587	0.005000	8.923127	-0.981000	-3.712153	-0.038692	-0.121578	-0.786540	0.146422	0.034392	0.033967
1051	5.307587	0.005000	8.970258	-0.941760	-3.696396	-0.038749	-0.121124	-0.786794	0.111827	0.026380	0.038206
1052	5.312587	0.005000	8.842524	-0.916044	-3.662178	-0.038635	-0.121579	-0.787048	0.112779	0.026808	0.030849
1053	5.317587	0.005000	8.917494	-0.911717	-3.678546	-0.038521	-0.122034	-0.787302	0.120645	0.015111	0.026200
1054	5.322587	0.005000	8.907480	-0.824040	-3.602910	-0.038408	-0.122489	-0.787557	0.113375	0.019666	0.031460
1055	5.327587	0.005000	8.907480	-0.863280	-3.531600	-0.038294	-0.122944	-0.787811	0.114251	0.018825	0.026096
1056	5.332587	0.005000	9.023249	-0.824040	-3.529649	-0.038180	-0.123400	-0.788065	0.098927	0.024228	0.022366
1057	5.337587	0.005000	9.024307	-0.862387	-3.530707	-0.038066	-0.123855	-0.788319	0.097025	0.010517	0.032150
1058	5.342587	0.005000	8.950456	-0.749296	-3.684824	-0.037952	-0.124310	-0.788573	0.097994	0.007330	0.031154
1059	5.347587	0.005000	8.789760	-0.850119	-3.740719	-0.037838	-0.124765	-0.788827	0.099929	0.013176	0.025636
1060	5.352587	0.005000	8.871598	-0.902520	-3.697530	-0.037725	-0.125220	-0.789081	0.110548	0.004794	0.017807
1061	5.357587	0.005000	8.868240	-0.941760	-3.724003	-0.037611	-0.125675	-0.789335	0.097596	0.015624	0.028199
1062	5.362587	0.005000	8.927327	-0.902520	-3.830862	-0.037497	-0.126130	-0.789589	0.102099	0.019896	0.027882
1063	5.367587	0.005000	8.933453	-0.841542	-3.784542	-0.037383	-0.126586	-0.789843	0.101269	0.027314	0.028607
1064	5.372587	0.005000	9.024205	-0.745560	-3.767040	-0.037269	-0.126516	-0.789951	0.119849	0.032080	0.021260
1065	5.377587	0.005000	9.070642	-0.768281	-3.711281	-0.037156	-0.125606	-0.789824	0.128570	0.001612	0.039140
1066	5.382587	0.005000	8.997850	-0.825825	-3.688560	-0.037042	-0.124696	-0.789697	0.118330	-0.015854	0.058039
1067	5.387587	0.005000	9.025200	-0.859196	-3.823858	-0.036928	-0.123785	-0.789570	0.114318	-0.042987	0.062833
1068	5.392587	0.005000	9.001238	-0.816053	-3.719813	-0.036814	-0.122875	-0.789443	0.101332	-0.054974	0.072088
1069	5.397587	0.005000	8.823403	-0.790397	-3.806280	-0.036701	-0.121964	-0.789316	0.096043	-0.065382	0.084045
1070	5.402587	0.005000	8.708527	-0.703567	-3.859286	-0.036587	-0.121054	-0.789189	0.107850	-0.072629	0.092910
1071	5.407587	0.005000	8.672040	-0.706229	-4.041720	-0.036473	-0.120144	-0.789062	0.114336	-0.053094	0.078071
1072	5.412587	0.005000	8.714215	-0.700451	-3.932804	-0.036359	-0.119233	-0.788934	0.133174	-0.028871	0.074405
1073	5.417587	0.005000	8.722028	-0.677828	-3.845520	-0.036246	-0.118323	-0.788807	0.130563	-0.024983	0.059491
1074	5.422587	0.005000	8.696501	-0.698166	-3.767040	-0.036132	-0.117413	-0.788680	0.141222	-0.032484	0.064925
1075	5.427587	0.005000	8.728525	-0.706320	-3.677563	-0.036018	-0.116502	-0.788553	0.135798	-0.044046	0.074220
1076	5.432587	0.005000	8.803601	-0.731719	-3.896317	-0.035904	-0.115592	-0.788426	0.141808	-0.035885	0.061233
1077	5.437587	0.005000	8.688272	-0.729328	-3.884760	-0.035912	-0.114895	-0.788333	0.169702	-0.031509	0.050792
1078	5.442587	0.005000	8.751609	-0.783711	-3.885849	-0.036254	-0.114781	-0.788333	0.158720	-0.031527	0.051803
1079	5.447587	0.005000	8.785161	-0.802121	-3.867439	-0.036595	-0.114667	-0.788333	0.159956	-0.032817	0.049118
