# FOX Logger (IMU file)
# (c) INRIA 2011-2014
# File created from file sensbiotk output
#
# File format:
# id	t	dt	ax	ay	az	mx	my	mz	gx	gy	gz
#
# Units:
#	Time: s
#	Acceleration: m.s^-2
#	Magneto: gauss
#	Gyrometer: rad/s
#
1	0.016968	0.016968	0.167495	-9.606165	-1.177200	-0.449254	0.079104	-0.341667	-0.015755	0.010612	-0.006434
2	0.021968	0.005000	0.274680	-9.604118	-1.049798	-0.447561	0.081362	-0.343432	-0.001222	0.009474	-0.012948
3	0.026968	0.005000	0.156960	-9.674620	-1.029070	-0.445867	0.083620	-0.345197	-0.007553	0.006193	-0.004137
4	0.031968	0.005000	0.064104	-9.599424	-1.028528	-0.444174	0.085878	-0.346962	-0.001997	0.023342	-0.025644
5	0.036968	0.005000	0.139517	-9.621066	-0.998443	-0.442480	0.088136	-0.348727	-0.012126	0.010140	-0.010108
6	0.041968	0.005000	0.196200	-9.620120	-0.935440	-0.440787	0.090394	-0.350492	-0.006450	0.017136	-0.014488
7	0.046968	0.005000	0.196200	-9.608099	-0.986701	-0.439093	0.092652	-0.352257	-0.010246	0.020453	-0.027466
8	0.051968	0.005000	0.191522	-9.696958	-1.123925	-0.437400	0.094910	-0.354022	-0.010233	0.015358	-0.012674
9	0.056968	0.005000	0.078480	-9.613800	-1.027552	-0.435706	0.097168	-0.355787	-0.007585	0.012995	-0.014911
10	0.061968	0.005000	0.081578	-9.577658	-1.177200	-0.434013	0.099426	-0.357552	-0.001495	0.008962	-0.012971
11	0.066968	0.005000	0.159051	-9.650949	-1.137960	-0.432319	0.101684	-0.359317	0.000527	0.015493	-0.012470
12	0.071968	0.005000	0.235440	-9.536402	-1.019158	-0.430626	0.103942	-0.361081	0.011260	0.009306	-0.009014
13	0.076968	0.005000	0.274680	-9.535831	-0.981000	-0.428932	0.106200	-0.362846	-0.007043	0.015992	-0.013047
14	0.081968	0.005000	0.197222	-9.535831	-1.097186	-0.427239	0.108458	-0.364611	-0.011845	0.017054	-0.009612
15	0.086968	0.005000	0.197734	-9.571493	-1.018706	-0.426778	0.109219	-0.365590	-0.009022	0.010565	-0.007174
16	0.091968	0.005000	0.196200	-9.539472	-1.057404	-0.426665	0.109558	-0.366346	-0.017595	0.025242	-0.015234
17	0.096968	0.005000	0.160058	-9.649942	-1.089425	-0.426552	0.109897	-0.367103	-0.010586	0.014430	-0.006717
18	0.101968	0.005000	0.156960	-9.688159	-1.067721	-0.426439	0.110235	-0.367859	-0.016432	0.018920	-0.012769
19	0.106968	0.005000	0.265354	-9.682954	-0.951086	-0.426326	0.110574	-0.368616	-0.001667	0.017197	-0.029359
20	0.111968	0.005000	0.207571	-9.619485	-0.981000	-0.426213	0.110913	-0.369372	-0.001962	0.014995	-0.011255
21	0.116968	0.005000	0.124038	-9.685962	-1.098720	-0.426100	0.111251	-0.370128	0.001527	0.017940	-0.017276
22	0.121968	0.005000	0.203466	-9.685014	-1.059480	-0.425987	0.111590	-0.370885	-0.007062	0.018267	-0.019741
23	0.126968	0.005000	0.274680	-9.692280	-1.067752	-0.425874	0.111929	-0.371641	-0.014060	0.014741	-0.014971
24	0.131968	0.005000	0.192281	-9.674620	-0.989830	-0.425762	0.112268	-0.372398	-0.016983	0.018673	-0.020418
25	0.136968	0.005000	0.147278	-9.711815	-0.961465	-0.425649	0.112606	-0.373154	-0.015911	0.022248	-0.010829
26	0.141968	0.005000	0.146436	-9.702804	-0.902520	-0.425536	0.112945	-0.373910	-0.012175	0.024626	-0.022022
27	0.146968	0.005000	0.224023	-9.720103	-1.059480	-0.425423	0.113284	-0.374667	-0.017040	0.022338	-0.019084
28	0.151968	0.005000	0.171321	-9.506599	-0.954200	-0.425563	0.113307	-0.375000	-0.012971	0.027641	-0.022794
29	0.156968	0.005000	0.235440	-9.626116	-1.006778	-0.425902	0.113081	-0.375000	-0.009789	0.017734	-0.011680
30	0.161968	0.005000	0.235440	-9.664271	-1.045476	-0.426240	0.112855	-0.375000	-0.008086	0.024724	-0.013297
31	0.166968	0.005000	0.156960	-9.638013	-0.917547	-0.426579	0.112629	-0.375000	-0.011865	0.018561	-0.020647
32	0.171968	0.005000	0.219391	-9.574560	-0.979234	-0.426918	0.112403	-0.375000	-0.009849	0.020321	-0.009674
33	0.176968	0.005000	0.274680	-9.591167	-1.020240	-0.427257	0.112177	-0.375000	-0.021149	0.025945	-0.024364
34	0.181968	0.005000	0.253061	-9.613800	-1.098720	-0.427596	0.111951	-0.375000	-0.009927	0.013975	-0.007025
35	0.186968	0.005000	0.196200	-9.651073	-1.078116	-0.427935	0.111725	-0.375000	-0.012229	0.020389	-0.011109
36	0.191968	0.005000	0.234588	-9.614652	-1.000194	-0.428274	0.111499	-0.375000	-0.024638	0.018804	-0.011230
37	0.196968	0.005000	0.175984	-9.712496	-1.057094	-0.428613	0.111274	-0.375000	-0.019427	0.015451	-0.009712
38	0.201968	0.005000	0.253441	-9.635039	-1.002239	-0.428951	0.111048	-0.375000	-0.017535	0.019850	-0.015835
39	0.206968	0.005000	0.196200	-9.596341	-1.002781	-0.429290	0.110822	-0.375000	-0.018122	0.022147	-0.006780
40	0.211968	0.005000	0.163327	-9.669476	-0.925324	-0.429629	0.110596	-0.375000	-0.027963	0.022629	-0.011471
41	0.216968	0.005000	0.196200	-9.668454	-0.988002	-0.429695	0.110370	-0.374738	-0.017112	0.017223	-0.002524
42	0.221968	0.005000	0.274680	-9.653040	-1.083848	-0.429243	0.110144	-0.373982	-0.022185	0.026407	-0.008312
43	0.226968	0.005000	0.300071	-9.576868	-0.992541	-0.428791	0.109918	-0.373225	-0.010816	0.023877	-0.021075
44	0.231968	0.005000	0.209786	-9.705866	-1.020240	-0.428340	0.109692	-0.372468	-0.003492	0.012165	-0.012068
45	0.236968	0.005000	0.129994	-9.547594	-1.098720	-0.427888	0.109466	-0.371711	-0.012136	0.020134	-0.020618
46	0.241968	0.005000	0.196200	-9.585822	-1.020240	-0.427436	0.109240	-0.370955	-0.009712	0.011484	-0.004887
47	0.246968	0.005000	0.185960	-9.595040	-0.981000	-0.426984	0.109015	-0.370198	-0.013616	0.015670	-0.008917
48	0.251968	0.005000	0.145704	-9.692280	-1.001584	-0.426532	0.108789	-0.369441	-0.015775	0.015330	-0.012363
49	0.256968	0.005000	0.187540	-9.574560	-1.020240	-0.426081	0.108563	-0.368684	-0.014010	0.012867	-0.010079
50	0.261968	0.005000	0.274680	-9.542957	-1.232768	-0.425629	0.108337	-0.367928	-0.018197	0.019195	-0.014935
51	0.266968	0.005000	0.292635	-9.645945	-1.091625	-0.425177	0.108111	-0.367171	-0.020224	0.006240	-0.010996
52	0.271968	0.005000	0.196200	-9.646967	-1.008095	-0.424725	0.107885	-0.366414	-0.019750	0.012834	-0.013441
53	0.276968	0.005000	0.274680	-9.603700	-0.893581	-0.424273	0.107659	-0.365657	-0.012034	0.006580	-0.007016
54	0.281968	0.005000	0.274680	-9.504235	-1.094642	-0.423896	0.107478	-0.364983	-0.016969	0.015886	-0.011578
55	0.286968	0.005000	0.306949	-9.649554	-0.977514	-0.424009	0.107591	-0.364857	-0.027046	0.013991	-0.013351
56	0.291968	0.005000	0.237903	-9.611337	-0.944223	-0.424122	0.107704	-0.364731	-0.020510	0.007385	-0.011375
57	0.296968	0.005000	0.233542	-9.615698	-1.061378	-0.424234	0.107816	-0.364605	-0.012471	0.009989	-0.010430
58	0.301968	0.005000	0.156960	-9.691381	-1.022037	-0.424347	0.107929	-0.364479	-0.020422	0.013238	-0.004170
59	0.306968	0.005000	0.156960	-9.653040	-1.059604	-0.424460	0.108042	-0.364353	-0.017926	0.014698	-0.015483
60	0.311968	0.005000	0.195510	-9.692280	-1.058790	-0.424573	0.108155	-0.364227	-0.015256	0.017715	-0.013509
61	0.316968	0.005000	0.192792	-9.613800	-1.173792	-0.424686	0.108268	-0.364101	-0.014214	0.017139	-0.009713
62	0.321968	0.005000	0.159687	-9.613800	-1.022967	-0.424799	0.108381	-0.363975	-0.011082	0.024866	-0.014479
63	0.326968	0.005000	0.156960	-9.610491	-0.945069	-0.424912	0.108494	-0.363849	-0.004970	0.017610	0.001584
64	0.331968	0.005000	0.179035	-9.526738	-1.055189	-0.425024	0.108606	-0.363722	-0.019820	0.024181	-0.016309
65	0.336968	0.005000	0.060494	-9.574560	-1.054166	-0.425137	0.108719	-0.363596	-0.014328	0.014492	-0.013433
66	0.341968	0.005000	0.124056	-9.580896	-1.086048	-0.425250	0.108832	-0.363470	-0.009426	0.025960	-0.009640
67	0.346968	0.005000	0.163838	-9.581438	-1.313525	-0.425363	0.108945	-0.363344	-0.007717	0.029538	-0.020523
68	0.351968	0.005000	0.188299	-9.527419	-1.224341	-0.425579	0.108749	-0.363908	-0.006786	0.017699	0.000621
69	0.356968	0.005000	0.135566	-9.565637	-1.120114	-0.425805	0.108523	-0.364538	-0.008240	0.030535	-0.021995
70	0.361968	0.005000	0.196200	-9.535320	-1.010775	-0.426031	0.108297	-0.365169	-0.001436	0.011930	-0.019475
71	0.366968	0.005000	0.167448	-9.642552	-1.059480	-0.426257	0.108071	-0.365800	0.002245	0.021108	-0.024286
72	0.371968	0.005000	0.196200	-9.636820	-1.031750	-0.426482	0.107846	-0.366430	0.006906	0.016480	-0.012031
73	0.376968	0.005000	0.141856	-9.628904	-1.020240	-0.426708	0.107620	-0.367061	0.001015	0.019745	-0.015005
74	0.381968	0.005000	0.156960	-9.574560	-1.033320	-0.426934	0.107394	-0.367692	0.005650	0.021454	-0.010690
75	0.386968	0.005000	0.156960	-9.484432	-1.059480	-0.427160	0.107168	-0.368322	-0.001511	0.014283	-0.013175
76	0.391968	0.005000	0.156960	-9.569835	-1.137960	-0.427386	0.106942	-0.368953	-0.015442	0.021245	-0.012755
77	0.396968	0.005000	0.117720	-9.613800	-1.043803	-0.427612	0.106716	-0.369584	-0.005266	0.005285	-0.001433
78	0.401968	0.005000	0.179500	-9.574560	-1.082020	-0.427838	0.106490	-0.370215	-0.006841	0.012910	-0.004218
79	0.406968	0.005000	0.192405	-9.635318	-1.177200	-0.428064	0.106264	-0.370845	-0.027526	0.012167	-0.018504
80	0.411968	0.005000	0.217176	-9.632064	-1.077744	-0.428290	0.106038	-0.371476	-0.014691	0.004001	-0.001293
81	0.416968	0.005000	0.215487	-9.613800	-1.080099	-0.428043	0.105970	-0.371931	-0.021310	0.011665	-0.019821
82	0.421968	0.005000	0.175891	-9.574560	-1.097341	-0.427592	0.105970	-0.372309	-0.016446	0.001574	-0.008200
83	0.426968	0.005000	0.217532	-9.617224	-1.038148	-0.427140	0.105970	-0.372687	-0.017928	0.011377	-0.005035
84	0.431968	0.005000	0.196200	-9.535320	-1.094212	-0.426689	0.105970	-0.373065	-0.020278	0.016008	-0.016371
85	0.436968	0.005000	0.235440	-9.568007	-1.105273	-0.426237	0.105970	-0.373443	-0.009137	0.009866	-0.001925
86	0.441968	0.005000	0.156960	-9.637719	-1.028838	-0.425785	0.105970	-0.373822	-0.019504	0.016200	-0.016867
87	0.446968	0.005000	0.201297	-9.501177	-1.083941	-0.425334	0.105970	-0.374200	-0.017378	0.015304	-0.028904
88	0.451968	0.005000	0.207927	-9.586287	-1.018211	-0.424882	0.105970	-0.374578	-0.013137	0.016499	-0.020615
89	0.456968	0.005000	0.116682	-9.534282	-1.020240	-0.424431	0.105970	-0.374956	-0.014086	0.016905	-0.020280
90	0.461968	0.005000	0.235440	-9.617484	-0.981000	-0.423979	0.105970	-0.375334	-0.016619	0.013249	-0.005160
91	0.466968	0.005000	0.185046	-9.524166	-1.042548	-0.423527	0.105970	-0.375713	-0.010059	0.010996	-0.017361
92	0.471968	0.005000	0.146813	-9.535320	-1.098720	-0.423076	0.105970	-0.376091	-0.011736	0.014179	-0.020825
93	0.476968	0.005000	0.156960	-9.406062	-1.038708	-0.422624	0.105970	-0.376469	-0.026038	0.016628	-0.018292
94	0.481968	0.005000	0.156960	-9.473974	-1.120826	-0.422603	0.105970	-0.376246	-0.013744	0.024175	-0.007518
95	0.486968	0.005000	0.164504	-9.613800	-0.996089	-0.423055	0.105970	-0.375363	-0.013884	0.028405	-0.015548
96	0.491968	0.005000	0.124242	-9.672714	-1.020240	-0.423507	0.105970	-0.374480	-0.025000	0.021491	-0.019236
97	0.496968	0.005000	0.135659	-9.619780	-1.092740	-0.423959	0.105970	-0.373597	-0.010467	0.018631	-0.011978
98	0.501968	0.005000	0.156960	-9.648083	-1.049565	-0.424411	0.105970	-0.372714	-0.025746	0.017934	-0.019158
99	0.506968	0.005000	0.160895	-9.613800	-0.902520	-0.424862	0.105970	-0.371831	-0.017671	0.008341	-0.010646
100	0.511968	0.005000	0.274680	-9.649647	-1.056087	-0.425314	0.105970	-0.370948	-0.026133	0.025727	-0.017921
101	0.516968	0.005000	0.230700	-9.726780	-1.052369	-0.425766	0.105970	-0.370066	-0.024663	0.025386	-0.025369
102	0.521968	0.005000	0.198896	-9.688237	-1.056784	-0.426218	0.105970	-0.369183	-0.020004	0.021974	-0.013207
103	0.526968	0.005000	0.196990	-9.613800	-1.020240	-0.426670	0.105970	-0.368300	-0.019512	0.026620	-0.026745
104	0.531968	0.005000	0.235440	-9.652823	-1.098286	-0.427121	0.105970	-0.367417	-0.012651	0.024041	-0.011543
105	0.536968	0.005000	0.235440	-9.578278	-1.023958	-0.427573	0.105970	-0.366534	-0.016261	0.025669	-0.020732
106	0.541968	0.005000	0.198462	-9.611538	-1.061742	-0.428025	0.105970	-0.365651	-0.022846	0.030587	-0.020054
107	0.546968	0.005000	0.232621	-9.568921	-1.095901	-0.428299	0.106059	-0.365133	-0.017413	0.035425	-0.022905
108	0.551968	0.005000	0.200042	-9.653040	-1.067164	-0.428073	0.106398	-0.365637	-0.021754	0.022575	-0.010508
109	0.556968	0.005000	0.269829	-9.657891	-0.985851	-0.427847	0.106737	-0.366142	-0.018491	0.022453	-0.011368
110	0.561968	0.005000	0.207143	-9.512494	-0.970057	-0.427621	0.107076	-0.366646	-0.012631	0.029089	-0.027902
111	0.566968	0.005000	0.241869	-9.496080	-1.092291	-0.427395	0.107415	-0.367151	-0.002381	0.025989	-0.005676
112	0.571968	0.005000	0.181297	-9.496080	-1.066931	-0.427169	0.107753	-0.367655	-0.015603	0.030088	-0.014799
113	0.576968	0.005000	0.266206	-9.557612	-1.191018	-0.426943	0.108092	-0.368160	-0.023686	0.020363	-0.017652
114	0.581968	0.005000	0.196200	-9.613800	-1.168184	-0.426717	0.108431	-0.368664	-0.022184	0.023697	-0.009036
115	0.586968	0.005000	0.206238	-9.555397	-1.021154	-0.426491	0.108770	-0.369169	-0.013405	0.025711	-0.027556
116	0.591968	0.005000	0.213318	-9.535320	-0.981000	-0.426266	0.109109	-0.369673	-0.009128	0.011018	-0.006458
117	0.596968	0.005000	0.141595	-9.653040	-1.098720	-0.426040	0.109448	-0.370178	-0.022736	0.015780	-0.012828
118	0.601968	0.005000	0.196200	-9.653040	-1.072106	-0.425814	0.109787	-0.370682	-0.020920	0.017576	-0.004380
119	0.606968	0.005000	0.196200	-9.666688	-1.018536	-0.425588	0.110126	-0.371187	-0.010803	0.026082	-0.015761
120	0.611968	0.005000	0.196200	-9.643141	-1.064251	-0.425384	0.110432	-0.371698	-0.016830	0.017402	-0.029481
121	0.616968	0.005000	0.165398	-9.606837	-0.981000	-0.425610	0.110093	-0.372328	-0.016475	0.013827	-0.016403
122	0.621968	0.005000	0.101485	-9.653040	-0.957995	-0.425836	0.109754	-0.372959	-0.015937	0.016629	-0.019822
123	0.626968	0.005000	0.161685	-9.613800	-1.098720	-0.426062	0.109415	-0.373590	-0.012828	0.009231	-0.011821
124	0.631968	0.005000	0.214229	-9.595771	-1.134778	-0.426288	0.109076	-0.374220	-0.002239	0.013336	-0.012827
125	0.636968	0.005000	0.175798	-9.516482	-1.117558	-0.426513	0.108737	-0.374851	-0.006743	0.014129	-0.022002
126	0.641968	0.005000	0.196200	-9.535800	-1.137480	-0.426739	0.108398	-0.375481	-0.006271	0.014804	-0.019548
127	0.646968	0.005000	0.295547	-9.595427	-1.082841	-0.426965	0.108059	-0.376112	-0.003831	0.018624	-0.028058
128	0.651968	0.005000	0.196200	-9.610190	-1.095110	-0.427191	0.107720	-0.376743	-0.004673	0.010110	-0.022221
129	0.656968	0.005000	0.257887	-9.602662	-1.076273	-0.427417	0.107382	-0.377373	-0.009385	0.014830	-0.025241
130	0.661968	0.005000	0.211970	-9.551090	-1.106419	-0.427643	0.107043	-0.378004	-0.014680	0.014661	-0.010355
131	0.666968	0.005000	0.274680	-9.589788	-1.098720	-0.427869	0.106704	-0.378634	-0.009030	0.014180	-0.016198
132	0.671968	0.005000	0.221234	-9.574560	-1.191406	-0.428095	0.106365	-0.379265	-0.010827	0.009573	-0.013510
133	0.676968	0.005000	0.235440	-9.613800	-1.072353	-0.428321	0.106026	-0.379896	-0.013767	0.002488	-0.002149
134	0.681968	0.005000	0.223128	-9.547632	-1.074097	-0.429018	0.105310	-0.377895	-0.017653	0.012916	-0.020543
135	0.686968	0.005000	0.106101	-9.602181	-1.043477	-0.429809	0.104519	-0.375372	-0.013527	-0.000370	-0.005623
136	0.691968	0.005000	0.110269	-9.603204	-1.195248	-0.430599	0.103729	-0.372850	-0.002376	0.004425	-0.004354
137	0.696968	0.005000	0.274680	-9.545358	-1.147998	-0.431390	0.102938	-0.370327	-0.010774	0.008900	-0.002682
138	0.701968	0.005000	0.265648	-9.604768	-1.225472	-0.432181	0.102147	-0.367805	-0.002575	0.006689	-0.004570
139	0.706968	0.005000	0.235440	-9.535320	-1.051471	-0.432971	0.101357	-0.365282	-0.004622	0.011305	-0.016214
140	0.711968	0.005000	0.274680	-9.598897	-1.052029	-0.433762	0.100566	-0.362760	-0.011326	0.007667	-0.009175
141	0.716968	0.005000	0.301062	-9.541749	-0.981000	-0.434553	0.099775	-0.360237	-0.003463	0.016189	-0.009571
142	0.721968	0.005000	0.235440	-9.579967	-0.957980	-0.435343	0.098985	-0.357715	-0.000846	0.012523	-0.016869
143	0.726968	0.005000	0.225711	-9.604071	-0.990729	-0.436134	0.098194	-0.355192	-0.003238	0.006785	-0.011887
144	0.731968	0.005000	0.156960	-9.535320	-1.102562	-0.436925	0.097403	-0.352670	0.009625	0.005708	-0.008341
145	0.736968	0.005000	0.199019	-9.465298	-1.056661	-0.437715	0.096613	-0.350147	-0.001972	0.011549	-0.009746
146	0.741968	0.005000	0.270125	-9.535320	-0.904797	-0.438506	0.095822	-0.347625	-0.004626	0.007819	-0.023552
147	0.746968	0.005000	0.235440	-9.573305	-1.097465	-0.439226	0.095522	-0.346980	-0.000100	0.006182	-0.007967
148	0.751968	0.005000	0.195968	-9.574328	-1.058783	-0.439904	0.095522	-0.347484	-0.004040	0.014454	-0.015407
149	0.756968	0.005000	0.195410	-9.458420	-1.057110	-0.440581	0.095522	-0.347988	0.005275	0.007172	-0.008205
150	0.761968	0.005000	0.196200	-9.532655	-0.905185	-0.441258	0.095522	-0.348493	0.006497	0.007056	-0.007354
151	0.766968	0.005000	0.233085	-9.496080	-0.941760	-0.441936	0.095522	-0.348997	-0.002084	0.013318	-0.017778
152	0.771968	0.005000	0.196200	-9.613800	-1.085211	-0.442613	0.095522	-0.349501	0.003985	0.001862	-0.003494
153	0.776968	0.005000	0.192218	-9.609818	-1.106684	-0.443290	0.095522	-0.350005	0.002226	0.010932	-0.014124
154	0.781968	0.005000	0.156960	-9.535320	-1.098720	-0.443968	0.095522	-0.350509	0.002457	0.004852	-0.017022
155	0.786968	0.005000	0.123700	-9.562601	-1.065460	-0.444645	0.095522	-0.351014	0.004356	0.017803	-0.009646
156	0.791968	0.005000	0.117720	-9.574560	-1.066080	-0.445323	0.095522	-0.351518	0.005817	0.009194	-0.010075
157	0.796968	0.005000	0.125264	-9.550409	-1.115327	-0.446000	0.095522	-0.352022	0.001896	0.009048	-0.002150
158	0.801968	0.005000	0.156960	-9.697253	-1.163660	-0.446677	0.095522	-0.352526	0.002385	0.010982	-0.011280
159	0.806968	0.005000	0.177022	-9.632978	-1.089131	-0.447355	0.095522	-0.353031	0.003711	0.005823	-0.002651
160	0.811968	0.005000	0.303789	-9.535320	-1.020240	-0.448123	0.095251	-0.352576	0.000355	0.010779	-0.015094
161	0.816968	0.005000	0.179268	-9.574560	-1.020240	-0.449026	0.094573	-0.350684	0.002277	0.005192	-0.013718
162	0.821968	0.005000	0.169136	-9.589447	-1.179911	-0.449930	0.093895	-0.348792	-0.006949	0.008039	-0.009821
163	0.826968	0.005000	0.183481	-9.665759	-1.111439	-0.450833	0.093218	-0.346900	-0.001534	0.005624	-0.012476
164	0.831968	0.005000	0.080463	-9.655023	-1.086962	-0.451737	0.092540	-0.345008	0.005253	0.005950	-0.007844
165	0.836968	0.005000	0.117720	-9.564847	-1.059480	-0.452640	0.091862	-0.343116	-0.008379	0.015717	-0.016018
166	0.841968	0.005000	0.172465	-9.622031	-1.020240	-0.453544	0.091185	-0.341224	0.000043	0.008060	-0.015696
167	0.846968	0.005000	0.179865	-9.636705	-1.052909	-0.454448	0.090507	-0.339333	-0.005590	0.014358	-0.010735
168	0.851968	0.005000	0.218090	-9.613800	-1.116070	-0.455351	0.089829	-0.337441	-0.018948	0.015137	-0.013733
169	0.856968	0.005000	0.117720	-9.634917	-1.035368	-0.456255	0.089152	-0.335549	0.000917	0.011416	0.002941
170	0.861968	0.005000	0.098789	-9.632731	-1.021619	-0.457158	0.088474	-0.333657	-0.014090	0.022964	-0.011036
171	0.866968	0.005000	0.137007	-9.672327	-1.000953	-0.458062	0.087796	-0.331765	-0.004428	0.016723	-0.008073
172	0.871968	0.005000	0.196200	-9.595055	-0.981000	-0.458965	0.087119	-0.329873	0.002600	0.022732	-0.000268
173	0.876968	0.005000	0.213922	-9.688485	-1.041758	-0.459218	0.086840	-0.328943	-0.019767	0.023549	-0.016911
174	0.881968	0.005000	0.179500	-9.692280	-1.070340	-0.456619	0.088309	-0.332224	-0.017470	0.022321	-0.009973
175	0.886968	0.005000	0.212072	-9.574560	-1.130463	-0.454020	0.089778	-0.335505	-0.003073	0.026363	-0.014478
176	0.891968	0.005000	0.220305	-9.589695	-1.083585	-0.451420	0.091247	-0.338786	-0.012346	0.026291	-0.014860
177	0.896968	0.005000	0.274680	-9.599687	-0.981000	-0.448821	0.092716	-0.342067	-0.010233	0.020937	-0.008565
178	0.901968	0.005000	0.209290	-9.522230	-1.059480	-0.446222	0.094185	-0.345348	-0.012012	0.020560	-0.010389
179	0.906968	0.005000	0.169508	-9.483532	-0.941760	-0.443623	0.095654	-0.348629	-0.014534	0.026158	-0.017393
180	0.911968	0.005000	0.251629	-9.535320	-0.987863	-0.441024	0.097123	-0.351909	-0.011304	0.020002	-0.022640
181	0.916968	0.005000	0.156960	-9.477846	-1.009737	-0.438425	0.098593	-0.355190	-0.010365	0.024131	-0.010592
182	0.921968	0.005000	0.156960	-9.506026	-1.098720	-0.435826	0.100062	-0.358471	-0.015208	0.032466	-0.029070
183	0.926968	0.005000	0.135566	-9.483609	-1.059480	-0.433227	0.101531	-0.361752	-0.002060	0.021221	-0.011039
184	0.931968	0.005000	0.258872	-9.613800	-1.059480	-0.430628	0.103000	-0.365033	-0.005566	0.029233	-0.006775
185	0.936968	0.005000	0.257515	-9.581918	-1.130602	-0.428029	0.104469	-0.368314	-0.013887	0.027306	-0.012564
186	0.941968	0.005000	0.268344	-9.528984	-1.131624	-0.425430	0.105938	-0.371595	-0.005347	0.023812	-0.015680
187	0.946968	0.005000	0.196200	-9.540634	-1.093406	-0.425483	0.105970	-0.372283	-0.013918	0.026661	-0.023998
188	0.951968	0.005000	0.270336	-9.653040	-1.068169	-0.425596	0.105970	-0.372914	0.000867	0.019710	-0.016188
189	0.956968	0.005000	0.227942	-9.653040	-1.059480	-0.425709	0.105970	-0.373544	-0.007012	0.021091	-0.018567
190	0.961968	0.005000	0.120447	-9.655767	-0.983727	-0.425822	0.105970	-0.374174	-0.004940	0.018852	-0.019871
191	0.966968	0.005000	0.235440	-9.687911	-1.055111	-0.425935	0.105970	-0.374805	-0.006527	0.013744	-0.018623
192	0.971968	0.005000	0.117720	-9.536482	-1.135636	-0.426048	0.105970	-0.375435	-0.009055	0.019386	-0.018038
193	0.976968	0.005000	0.117861	-9.613800	-1.098861	-0.426161	0.105970	-0.376065	-0.010707	0.017008	-0.007531
194	0.981968	0.005000	0.234603	-9.574978	-1.099138	-0.426274	0.105970	-0.376696	-0.011046	0.015334	-0.020989
195	0.986968	0.005000	0.158401	-9.536761	-1.174319	-0.426387	0.105970	-0.377326	-0.005218	0.010173	-0.014240
196	0.991968	0.005000	0.152063	-9.687383	-1.103617	-0.426500	0.105970	-0.377956	-0.017994	0.012517	-0.015268
197	0.996968	0.005000	0.156960	-9.574560	-1.065491	-0.426613	0.105970	-0.378587	-0.014858	0.016167	-0.016712
198	1.001968	0.005000	0.152932	-9.609772	-0.910576	-0.426726	0.105970	-0.379217	-0.006174	0.004567	-0.005161
199	1.006968	0.005000	0.260800	-9.539947	-0.941760	-0.426839	0.105970	-0.379847	-0.016055	0.017268	-0.020810
200	1.011968	0.005000	0.168145	-9.540912	-0.902520	-0.426780	0.106141	-0.379809	-0.017624	0.005880	0.000998
201	1.016968	0.005000	0.156960	-9.600570	-0.922365	-0.426667	0.106367	-0.379557	-0.018801	0.009499	-0.003657
202	1.021968	0.005000	0.228283	-9.638726	-0.998769	-0.426554	0.106593	-0.379304	-0.018206	0.006191	-0.014255
203	1.026968	0.005000	0.165140	-9.613800	-1.059480	-0.426441	0.106819	-0.379052	-0.015680	0.013307	-0.006156
204	1.031968	0.005000	0.256996	-9.535320	-1.020240	-0.426328	0.107045	-0.378800	-0.009287	0.013662	-0.014801
205	1.036968	0.005000	0.274680	-9.594281	-1.078999	-0.426215	0.107271	-0.378548	-0.015511	0.008955	-0.013605
206	1.041968	0.005000	0.224658	-9.546102	-1.116396	-0.426102	0.107497	-0.378295	-0.014787	0.013744	-0.017761
207	1.046968	0.005000	0.223646	-9.586354	-1.071274	-0.425989	0.107722	-0.378043	-0.016958	0.009882	-0.004066
208	1.051968	0.005000	0.208547	-9.496080	-1.074027	-0.425876	0.107948	-0.377791	-0.013991	0.021823	-0.013536
209	1.056968	0.005000	0.274680	-9.496080	-1.059480	-0.425764	0.108174	-0.377539	-0.007760	0.011579	-0.011314
210	1.061968	0.005000	0.132112	-9.613800	-0.995392	-0.425651	0.108400	-0.377287	-0.000861	0.014723	-0.007447
211	1.066968	0.005000	0.127092	-9.535320	-1.171639	-0.425538	0.108626	-0.377034	-0.008108	0.020831	-0.014179
212	1.071968	0.005000	0.203527	-9.597844	-1.052153	-0.425425	0.108852	-0.376782	0.000713	0.016203	-0.000094
213	1.076968	0.005000	0.212903	-9.535320	-1.059480	-0.425312	0.108709	-0.376461	-0.004532	0.026656	-0.009270
214	1.081968	0.005000	0.156960	-9.517799	-0.972604	-0.425199	0.108258	-0.376083	-0.014812	0.020872	-0.015576
215	1.086968	0.005000	0.159113	-9.576713	-0.981000	-0.425086	0.107806	-0.375704	-0.004310	0.020406	-0.000133
216	1.091968	0.005000	0.274680	-9.653040	-1.060060	-0.424973	0.107354	-0.375326	-0.006064	0.017607	-0.005340
217	1.096968	0.005000	0.215317	-9.574560	-1.060487	-0.424860	0.106902	-0.374948	-0.005455	0.009830	-0.000092
218	1.101968	0.005000	0.138866	-9.674186	-1.077574	-0.424747	0.106450	-0.374569	-0.004963	0.017005	-0.013416
219	1.106968	0.005000	0.152304	-9.618456	-1.086084	-0.424634	0.105999	-0.374191	-0.016144	0.020042	-0.010284
220	1.111968	0.005000	0.196200	-9.624148	-1.020240	-0.424521	0.105547	-0.373813	-0.009321	0.021022	-0.023856
221	1.116968	0.005000	0.243666	-9.692280	-1.043973	-0.424408	0.105095	-0.373434	-0.005008	0.019377	-0.022235
222	1.121968	0.005000	0.142475	-9.682009	-1.034725	-0.424295	0.104643	-0.373056	-0.007147	0.023743	-0.010182
223	1.126968	0.005000	0.196200	-9.678338	-1.087365	-0.424183	0.104191	-0.372677	0.002283	0.028036	-0.020768
224	1.131968	0.005000	0.196200	-9.679360	-1.125040	-0.424070	0.103740	-0.372299	-0.009588	0.015845	-0.002334
225	1.136968	0.005000	0.168857	-9.601903	-1.110617	-0.423957	0.103288	-0.371921	-0.010970	0.025131	-0.015137
226	1.141968	0.005000	0.117720	-9.581175	-1.009365	-0.423955	0.103022	-0.371709	-0.006984	0.020338	-0.003823
227	1.146968	0.005000	0.186225	-9.583876	-1.050164	-0.424181	0.103135	-0.371835	-0.017680	0.021818	-0.008985
228	1.151968	0.005000	0.226130	-9.533322	-1.078101	-0.424407	0.103248	-0.371961	-0.009311	0.025416	-0.013791
229	1.156968	0.005000	0.289056	-9.661328	-0.981000	-0.424633	0.103361	-0.372087	-0.001076	0.015125	-0.004656
230	1.161968	0.005000	0.227707	-9.653040	-1.020240	-0.424859	0.103474	-0.372213	-0.008090	0.028677	-0.017277
231	1.166968	0.005000	0.189477	-9.639593	-0.974277	-0.425084	0.103587	-0.372339	-0.005419	0.023444	-0.014134
232	1.171968	0.005000	0.235440	-9.653040	-1.048078	-0.425310	0.103700	-0.372465	-0.009828	0.019475	-0.008639
233	1.176968	0.005000	0.244909	-9.657775	-0.951229	-0.425536	0.103813	-0.372591	-0.019163	0.016429	-0.015376
234	1.181968	0.005000	0.266439	-9.688159	-1.137960	-0.425762	0.103926	-0.372717	-0.014355	0.017084	-0.008912
235	1.186968	0.005000	0.196200	-9.613800	-0.947957	-0.425988	0.104039	-0.372843	-0.017339	0.021884	-0.025174
236	1.191968	0.005000	0.202474	-9.578743	-1.094537	-0.426213	0.104152	-0.372969	-0.021516	0.015662	-0.015744
237	1.196968	0.005000	0.274680	-9.648439	-1.056413	-0.426439	0.104264	-0.373095	-0.025645	0.010518	-0.015516
238	1.201968	0.005000	0.313409	-9.613800	-0.864814	-0.426665	0.104377	-0.373221	-0.025645	0.013797	-0.016542
239	1.206968	0.005000	0.235951	-9.652529	-0.942271	-0.426841	0.104478	-0.373361	-0.023283	0.011523	-0.012795
240	1.211968	0.005000	0.233307	-9.574560	-1.057347	-0.426615	0.104478	-0.373613	-0.023732	0.011531	-0.012217
241	1.216968	0.005000	0.163188	-9.498156	-1.065708	-0.426389	0.104478	-0.373865	-0.029228	0.012600	-0.011322
242	1.221968	0.005000	0.196200	-9.722225	-0.908717	-0.426164	0.104478	-0.374118	-0.029716	0.022040	-0.021087
243	1.226968	0.005000	0.196200	-9.656726	-0.945446	-0.425938	0.104478	-0.374370	-0.024486	0.003769	-0.012323
244	1.231968	0.005000	0.240103	-9.613800	-0.981000	-0.425712	0.104478	-0.374622	-0.031388	0.010152	-0.016225
245	1.236968	0.005000	0.190515	-9.664411	-1.120904	-0.425486	0.104478	-0.374874	-0.025431	0.017894	-0.030019
246	1.241968	0.005000	0.189492	-9.685572	-1.079603	-0.425260	0.104478	-0.375127	-0.021727	0.006494	-0.015962
247	1.246968	0.005000	0.164226	-9.667571	-1.081277	-0.425034	0.104478	-0.375379	-0.025633	0.020708	-0.025623
248	1.251968	0.005000	0.196200	-9.739792	-1.051208	-0.424808	0.104478	-0.375631	-0.021610	0.015120	-0.012727
249	1.256968	0.005000	0.165896	-9.540760	-1.129024	-0.424582	0.104478	-0.375884	-0.021035	0.016085	-0.014328
250	1.261968	0.005000	0.107867	-9.564707	-1.039945	-0.424356	0.104478	-0.376136	-0.029784	0.014753	-0.027469
251	1.266968	0.005000	0.185325	-9.546195	-1.052865	-0.424131	0.104478	-0.376388	-0.029121	0.011462	-0.017104
252	1.271968	0.005000	0.168377	-9.546737	-1.103708	-0.423905	0.104478	-0.376641	-0.026109	0.016750	-0.017237
253	1.276968	0.005000	0.196200	-9.574560	-1.137960	-0.423780	0.104680	-0.376667	-0.021465	0.016249	-0.024171
254	1.281968	0.005000	0.235440	-9.665356	-1.136814	-0.423667	0.104906	-0.376667	-0.020769	0.016160	-0.017798
255	1.286968	0.005000	0.210509	-9.638731	-1.034549	-0.423554	0.105132	-0.376667	-0.021693	0.005192	-0.006956
256	1.291968	0.005000	0.196200	-9.613800	-1.074507	-0.423441	0.105358	-0.376667	-0.033374	0.014730	-0.010271
257	1.296968	0.005000	0.212249	-9.567418	-1.098720	-0.423328	0.105584	-0.376667	-0.026088	0.009845	-0.025345
258	1.301968	0.005000	0.134526	-9.563382	-1.059480	-0.423215	0.105810	-0.376667	-0.026048	0.017277	-0.006249
259	1.306968	0.005000	0.196200	-9.653040	-1.041859	-0.423102	0.106036	-0.376667	-0.028497	0.020067	-0.019301
260	1.311968	0.005000	0.136356	-9.611833	-1.020240	-0.422989	0.106262	-0.376667	-0.017084	0.010445	-0.014887
261	1.316968	0.005000	0.177858	-9.594606	-1.060332	-0.422876	0.106487	-0.376667	-0.027765	0.018106	-0.014644
262	1.321968	0.005000	0.196200	-9.594776	-1.098720	-0.422763	0.106713	-0.376667	-0.036846	0.021225	-0.030759
263	1.326968	0.005000	0.238678	-9.631801	-1.159199	-0.422650	0.106939	-0.376667	-0.026815	0.018675	-0.011462
264	1.331968	0.005000	0.217981	-9.600663	-1.063802	-0.422537	0.107165	-0.376667	-0.031633	0.024448	-0.014557
265	1.336968	0.005000	0.219004	-9.502447	-1.082284	-0.422424	0.107391	-0.376667	-0.033713	0.018008	-0.018056
266	1.341968	0.005000	0.259266	-9.511494	-1.066482	-0.422465	0.107386	-0.376581	-0.030532	0.014972	-0.018336
267	1.346968	0.005000	0.289072	-9.588952	-1.080394	-0.422578	0.107273	-0.376455	-0.016777	0.019622	-0.021613
268	1.351968	0.005000	0.260831	-9.613800	-1.073329	-0.422691	0.107160	-0.376329	-0.014966	0.016511	-0.018326
269	1.356968	0.005000	0.209786	-9.705866	-1.112306	-0.422804	0.107047	-0.376203	-0.028768	0.019450	-0.013249
270	1.361968	0.005000	0.208151	-9.653040	-1.153298	-0.422917	0.106934	-0.376077	-0.029400	0.016188	-0.009029
271	1.366968	0.005000	0.229987	-9.669755	-1.042765	-0.423030	0.106821	-0.375951	-0.023109	0.022677	-0.019548
272	1.371968	0.005000	0.225200	-9.595040	-1.069720	-0.423143	0.106708	-0.375825	-0.020769	0.019995	-0.018795
273	1.376968	0.005000	0.265352	-9.553976	-1.177200	-0.423255	0.106596	-0.375698	-0.026479	0.029419	-0.017233
274	1.381968	0.005000	0.226780	-9.591880	-1.233760	-0.423368	0.106483	-0.375572	-0.015004	0.019109	-0.017078
275	1.386968	0.005000	0.164597	-9.653040	-1.154288	-0.423481	0.106370	-0.375446	-0.010670	0.026753	-0.022495
276	1.391968	0.005000	0.143566	-9.632949	-1.046086	-0.423594	0.106257	-0.375320	-0.020901	0.031099	-0.016369
277	1.396968	0.005000	0.163033	-9.502153	-1.137960	-0.423707	0.106144	-0.375194	-0.009420	0.008842	-0.003888
278	1.401968	0.005000	0.274680	-9.550471	-1.148060	-0.423820	0.106031	-0.375068	-0.013537	0.025066	-0.017607
279	1.406968	0.005000	0.191692	-9.544336	-1.112244	-0.424037	0.106074	-0.374942	-0.015157	0.024471	-0.017978
280	1.411968	0.005000	0.088937	-9.613800	-1.066451	-0.424376	0.106300	-0.374816	-0.008613	0.018632	-0.006901
281	1.416968	0.005000	0.159423	-9.574560	-1.172274	-0.424714	0.106526	-0.374690	-0.010488	0.021554	-0.025518
282	1.421968	0.005000	0.198121	-9.653040	-1.251838	-0.425053	0.106751	-0.374564	-0.008600	0.014073	-0.004310
283	1.426968	0.005000	0.273781	-9.613800	-1.292224	-0.425392	0.106977	-0.374437	0.002604	0.020572	-0.009881
284	1.431968	0.005000	0.157208	-9.574684	-1.216316	-0.425730	0.107203	-0.374311	-0.009643	0.008290	-0.013584
285	1.436968	0.005000	0.157642	-9.612437	-1.060162	-0.426069	0.107429	-0.374185	-0.007353	0.013144	-0.019235
286	1.441968	0.005000	0.117720	-9.692280	-1.059480	-0.426408	0.107655	-0.374059	-0.010822	0.014140	-0.010655
287	1.446968	0.005000	0.151507	-9.616527	-0.981000	-0.426746	0.107880	-0.373933	-0.015392	0.015445	-0.007451
288	1.451968	0.005000	0.199509	-9.535320	-1.059480	-0.427085	0.108106	-0.373807	-0.012162	0.013784	-0.014024
289	1.456968	0.005000	0.270389	-9.461131	-1.033113	-0.427424	0.108332	-0.373681	-0.000386	0.001784	-0.002107
290	1.461968	0.005000	0.230126	-9.563933	-1.250366	-0.427762	0.108558	-0.373555	-0.001527	0.013719	-0.008491
291	1.466968	0.005000	0.105048	-9.607464	-1.111392	-0.428101	0.108784	-0.373429	-0.001016	0.010142	-0.009369
292	1.471968	0.005000	0.267802	-9.477475	-1.163444	-0.428304	0.108928	-0.373394	0.002749	0.014676	-0.003802
293	1.476968	0.005000	0.204101	-9.558759	-1.185101	-0.428078	0.108815	-0.373646	-0.000215	0.016466	-0.012108
294	1.481968	0.005000	0.204747	-9.583107	-1.199345	-0.427852	0.108702	-0.373898	0.008887	-0.003601	-0.006382
295	1.486968	0.005000	0.186735	-9.584025	-1.147425	-0.427626	0.108589	-0.374150	-0.000988	0.007989	-0.012583
296	1.491968	0.005000	0.120431	-9.566783	-1.059480	-0.427400	0.108476	-0.374402	0.003108	0.003967	-0.006542
297	1.496968	0.005000	0.251660	-9.613800	-1.108139	-0.427175	0.108364	-0.374655	0.008925	0.006128	-0.007703
298	1.501968	0.005000	0.196200	-9.565528	-1.098720	-0.426949	0.108251	-0.374907	-0.005129	0.015537	-0.013676
299	1.506968	0.005000	0.222360	-9.535320	-1.190280	-0.426723	0.108138	-0.375159	0.004610	0.008714	-0.004448
300	1.511968	0.005000	0.246485	-9.624845	-1.137960	-0.426497	0.108025	-0.375411	0.009108	0.006924	-0.006400
301	1.516968	0.005000	0.235440	-9.692280	-1.098720	-0.426272	0.107912	-0.375663	-0.003811	0.000950	-0.007067
302	1.521968	0.005000	0.141283	-9.653040	-1.137960	-0.426046	0.107799	-0.375916	0.004731	0.015076	-0.017789
303	1.526968	0.005000	0.179500	-9.597100	-1.065320	-0.425820	0.107686	-0.376168	0.000569	0.005371	-0.008360
304	1.531968	0.005000	0.156960	-9.613800	-1.046353	-0.425594	0.107574	-0.376420	-0.005431	0.003740	0.002615
305	1.536968	0.005000	0.177936	-9.653040	-1.062191	-0.425378	0.107454	-0.376670	-0.004243	0.008110	-0.004887
306	1.541968	0.005000	0.294633	-9.672327	-1.118673	-0.425603	0.107002	-0.376796	-0.005911	0.005719	-0.004107
307	1.546968	0.005000	0.294989	-9.750451	-1.156891	-0.425829	0.106551	-0.376922	-0.005074	0.018801	-0.011826
308	1.551968	0.005000	0.292810	-9.656020	-1.098720	-0.426055	0.106099	-0.377048	0.003907	0.005781	-0.003364
309	1.556968	0.005000	0.252806	-9.687772	-1.020240	-0.426281	0.105647	-0.377174	-0.000882	0.014519	-0.002156
310	1.561968	0.005000	0.202753	-9.754416	-1.105273	-0.426507	0.105196	-0.377300	0.009297	0.004199	-0.011663
311	1.566968	0.005000	0.211521	-9.661638	-0.965679	-0.426732	0.104744	-0.377426	0.007546	0.005732	0.001558
312	1.571968	0.005000	0.210979	-9.564878	-1.074259	-0.426958	0.104293	-0.377552	0.002050	0.021705	-0.029016
313	1.576968	0.005000	0.223713	-9.627556	-1.020240	-0.427184	0.103841	-0.377678	0.009180	0.007885	-0.020996
314	1.581968	0.005000	0.156960	-9.653040	-0.876014	-0.427410	0.103389	-0.377804	0.002767	0.017358	-0.020634
315	1.586968	0.005000	0.223588	-9.519784	-0.965464	-0.427636	0.102938	-0.377930	0.004917	0.014179	-0.018109
316	1.591968	0.005000	0.207354	-9.613800	-0.958692	-0.427861	0.102486	-0.378056	0.006180	0.012013	-0.004715
317	1.596968	0.005000	0.177254	-9.506227	-1.001294	-0.428087	0.102035	-0.378182	-0.006443	0.020584	-0.011890
318	1.601968	0.005000	0.208066	-9.574560	-1.071346	-0.428313	0.101583	-0.378308	-0.002414	0.018363	-0.006195
319	1.606968	0.005000	0.204767	-9.653040	-0.950327	-0.428268	0.101945	-0.378232	-0.002033	0.013244	-0.008378
320	1.611968	0.005000	0.203744	-9.496080	-0.981000	-0.428155	0.102510	-0.378106	-0.011541	0.009086	-0.010772
321	1.616968	0.005000	0.163482	-9.522168	-0.981000	-0.428042	0.103074	-0.377980	-0.011451	0.017665	-0.014047
322	1.621968	0.005000	0.123700	-9.653040	-0.986980	-0.427929	0.103639	-0.377854	-0.005120	0.007920	-0.020399
323	1.626968	0.005000	0.156960	-9.692280	-1.162328	-0.427816	0.104204	-0.377728	-0.006074	0.016941	0.003302
324	1.631968	0.005000	0.196200	-9.613800	-1.102655	-0.427703	0.104768	-0.377602	0.002097	0.026337	-0.012969
325	1.636968	0.005000	0.123617	-9.574560	-1.201698	-0.427590	0.105333	-0.377476	-0.002956	0.008451	-0.009431
326	1.641968	0.005000	0.267569	-9.576930	-1.209329	-0.427477	0.105898	-0.377350	-0.012507	0.026771	-0.016087
327	1.646968	0.005000	0.193504	-9.651692	-0.982348	-0.427364	0.106463	-0.377223	-0.007117	0.021455	-0.018187
328	1.651968	0.005000	0.196200	-9.653040	-1.060131	-0.427251	0.107027	-0.377097	-0.017684	0.018022	-0.010353
329	1.656968	0.005000	0.196200	-9.691583	-1.099417	-0.427139	0.107592	-0.376971	-0.019548	0.024943	-0.024855
330	1.661968	0.005000	0.158199	-9.537799	-1.137960	-0.427026	0.108157	-0.376845	-0.016082	0.010779	-0.000703
331	1.666968	0.005000	0.154698	-9.496080	-1.054956	-0.426913	0.108721	-0.376719	-0.017580	0.023482	-0.014748
332	1.671968	0.005000	0.163528	-9.463408	-1.092152	-0.427462	0.108160	-0.375188	-0.015754	0.018799	-0.014485
333	1.676968	0.005000	0.266904	-9.464616	-1.059480	-0.428478	0.106805	-0.372666	-0.018898	0.016238	-0.009748
334	1.681968	0.005000	0.235440	-9.564858	-1.103571	-0.429495	0.105450	-0.370143	-0.017437	0.018184	-0.018706
335	1.686968	0.005000	0.168703	-9.574560	-1.026111	-0.430512	0.104094	-0.367620	-0.012016	0.019706	-0.021833
336	1.691968	0.005000	0.150066	-9.620694	-1.098720	-0.431528	0.102739	-0.365098	-0.020154	0.029293	-0.019225
337	1.696968	0.005000	0.142057	-9.606349	-1.106171	-0.432545	0.101384	-0.362575	-0.010665	0.021879	-0.015381
338	1.701968	0.005000	0.047714	-9.574560	-1.168726	-0.433561	0.100028	-0.360052	-0.015482	0.020563	-0.011957
339	1.706968	0.005000	0.166456	-9.584056	-1.147456	-0.434578	0.098673	-0.357530	-0.010337	0.018741	-0.021463
340	1.711968	0.005000	0.156960	-9.514305	-1.088213	-0.435595	0.097317	-0.355007	-0.013996	0.020650	-0.015935
341	1.716968	0.005000	0.185139	-9.585621	-1.109781	-0.436611	0.095962	-0.352485	-0.013928	0.023944	-0.019976
342	1.721968	0.005000	0.196200	-9.562477	-1.059480	-0.437628	0.094607	-0.349962	-0.012499	0.011778	-0.019352
343	1.726968	0.005000	0.143854	-9.600694	-1.111748	-0.438644	0.093251	-0.347439	-0.016128	0.017738	-0.014301
344	1.731968	0.005000	0.194496	-9.562616	-1.214736	-0.439661	0.091896	-0.344917	-0.006984	0.004147	-0.004470
345	1.736968	0.005000	0.220770	-9.525421	-1.255680	-0.440341	0.091129	-0.343568	-0.009137	0.017484	-0.017064
346	1.741968	0.005000	0.180507	-9.472533	-1.208586	-0.440454	0.091355	-0.344198	-0.025745	0.012332	-0.015567
347	1.746968	0.005000	0.196200	-9.518605	-1.216440	-0.440567	0.091581	-0.344829	-0.015236	0.009308	-0.010119
348	1.751968	0.005000	0.252911	-9.578857	-1.198969	-0.440680	0.091807	-0.345460	-0.018788	0.017593	-0.024055
349	1.756968	0.005000	0.274680	-9.694960	-1.062160	-0.440793	0.092033	-0.346090	-0.001914	0.012028	-0.010834
350	1.761968	0.005000	0.196200	-9.651770	-1.217075	-0.440906	0.092259	-0.346721	-0.017650	0.015384	-0.017410
351	1.766968	0.005000	0.216298	-9.613800	-1.040338	-0.441018	0.092484	-0.347352	-0.017327	0.018183	-0.013705
352	1.771968	0.005000	0.156960	-9.595427	-1.056986	-0.441131	0.092710	-0.347983	-0.003041	0.003376	-0.009412
353	1.776968	0.005000	0.196200	-9.631150	-0.998350	-0.441244	0.092936	-0.348613	-0.008631	0.013666	-0.016292
354	1.781968	0.005000	0.251964	-9.580752	-1.076004	-0.441357	0.093162	-0.349244	-0.010561	0.006729	-0.021529
355	1.786968	0.005000	0.274680	-9.574560	-1.082950	-0.441470	0.093388	-0.349875	-0.011909	0.011592	-0.015872
356	1.791968	0.005000	0.259932	-9.648036	-1.020240	-0.441583	0.093614	-0.350505	-0.018331	0.005849	-0.015209
357	1.796968	0.005000	0.260784	-9.588456	-1.020240	-0.441696	0.093840	-0.351136	-0.006883	0.009610	-0.001624
358	1.801968	0.005000	0.248623	-9.613800	-1.125087	-0.441666	0.094119	-0.351906	-0.005460	0.011988	-0.011399
359	1.806968	0.005000	0.247601	-9.677362	-1.020240	-0.440875	0.094684	-0.353420	-0.012724	0.002560	-0.010495
360	1.811968	0.005000	0.224302	-9.692280	-1.132646	-0.440085	0.095249	-0.354933	-0.008813	0.010287	-0.019125
361	1.816968	0.005000	0.206796	-9.681684	-1.048884	-0.439294	0.095814	-0.356447	-0.007623	0.007456	-0.008646
362	1.821968	0.005000	0.196200	-9.682706	-1.029814	-0.438503	0.096378	-0.357960	-0.005992	0.020919	-0.011118
363	1.826968	0.005000	0.213515	-9.622457	-1.055434	-0.437713	0.096943	-0.359474	-0.002825	0.004787	-0.021374
364	1.831968	0.005000	0.266671	-9.590578	-1.012231	-0.436922	0.097508	-0.360987	0.003664	0.002850	0.001476
365	1.836968	0.005000	0.189213	-9.613800	-1.066467	-0.436131	0.098073	-0.362501	-0.014996	0.017487	-0.013739
366	1.841968	0.005000	0.202164	-9.607836	-1.086792	-0.435341	0.098637	-0.364014	0.000775	0.010130	-0.009194
367	1.846968	0.005000	0.167773	-9.619207	-0.997220	-0.434550	0.099202	-0.365528	-0.003689	0.012946	-0.013239
368	1.851968	0.005000	0.200584	-9.648656	-1.059480	-0.433759	0.099767	-0.367041	-0.007317	0.015689	-0.007949
369	1.856968	0.005000	0.281434	-9.545451	-1.020240	-0.432969	0.100332	-0.368555	0.000053	0.011105	-0.003694
370	1.861968	0.005000	0.235440	-9.683822	-1.062299	-0.432178	0.100896	-0.370068	-0.003136	0.013179	-0.015779
371	1.866968	0.005000	0.233643	-9.576357	-1.023834	-0.431387	0.101461	-0.371582	-0.005061	0.008255	-0.002021
372	1.871968	0.005000	0.157735	-9.611476	-0.982549	-0.431450	0.101280	-0.371905	-0.000897	0.013449	-0.010784
373	1.876968	0.005000	0.196200	-9.535072	-1.020488	-0.431563	0.101054	-0.372157	-0.005983	0.003335	-0.012948
374	1.881968	0.005000	0.197000	-9.573760	-1.059480	-0.431676	0.100828	-0.372410	-0.004912	0.009153	-0.007955
375	1.886968	0.005000	0.156960	-9.572747	-1.057667	-0.431789	0.100602	-0.372662	-0.014284	0.013134	-0.002768
376	1.891968	0.005000	0.199035	-9.616635	-0.986670	-0.431902	0.100376	-0.372914	-0.016180	0.013744	-0.001639
377	1.896968	0.005000	0.231583	-9.574560	-1.020240	-0.432015	0.100150	-0.373166	-0.020173	0.019007	-0.005716
378	1.901968	0.005000	0.191800	-9.687880	-0.985400	-0.432128	0.099924	-0.373418	-0.013229	0.011453	-0.015749
379	1.906968	0.005000	0.230018	-9.613800	-0.975578	-0.432241	0.099698	-0.373671	-0.024512	0.021595	-0.018660
380	1.911968	0.005000	0.163404	-9.574560	-1.092276	-0.432354	0.099472	-0.373923	-0.017715	0.014126	-0.004542
381	1.916968	0.005000	0.214480	-9.620787	-1.059480	-0.432467	0.099246	-0.374175	-0.012465	0.020319	-0.013150
382	1.921968	0.005000	0.180182	-9.566551	-1.028249	-0.432579	0.099020	-0.374427	-0.021651	0.019118	-0.018534
383	1.926968	0.005000	0.217377	-9.644008	-1.029272	-0.432692	0.098794	-0.374680	-0.012246	0.007509	-0.011762
384	1.931968	0.005000	0.255272	-9.692280	-1.000408	-0.432805	0.098568	-0.374932	-0.028216	0.015482	-0.022452
385	1.936968	0.005000	0.139198	-9.663779	-0.970261	-0.432589	0.099001	-0.374816	-0.021829	0.007901	-0.019305
386	1.941968	0.005000	0.133692	-9.708252	-1.047846	-0.432250	0.099679	-0.374564	-0.023018	0.018945	-0.008410
387	1.946968	0.005000	0.144638	-9.679958	-0.993322	-0.431911	0.100356	-0.374312	-0.011616	0.026150	-0.014598
388	1.951968	0.005000	0.117364	-9.653040	-1.059124	-0.431573	0.101034	-0.374060	-0.014747	0.020024	-0.006742
389	1.956968	0.005000	0.117720	-9.745741	-1.009442	-0.431234	0.101711	-0.373808	-0.020211	0.024687	-0.024614
390	1.961968	0.005000	0.181437	-9.589323	-0.941760	-0.430895	0.102389	-0.373555	-0.022855	0.024211	-0.020077
391	1.966968	0.005000	0.156960	-9.598014	-1.004454	-0.430556	0.103066	-0.373303	-0.031145	0.028190	-0.012729
392	1.971968	0.005000	0.100912	-9.546505	-1.042672	-0.430218	0.103744	-0.373051	-0.019422	0.023300	-0.019879
393	1.976968	0.005000	0.178850	-9.535320	-1.081370	-0.429879	0.104421	-0.372799	-0.018944	0.026731	-0.024293
394	1.981968	0.005000	0.112732	-9.516947	-1.020240	-0.429540	0.105098	-0.372547	-0.027747	0.026266	-0.018282
395	1.986968	0.005000	0.176805	-9.574560	-1.040085	-0.429202	0.105776	-0.372295	-0.023331	0.027893	-0.013537
396	1.991968	0.005000	0.237036	-9.574560	-1.095529	-0.428863	0.106453	-0.372043	-0.018937	0.025992	-0.018363
397	1.996968	0.005000	0.256416	-9.632064	-1.043927	-0.428524	0.107131	-0.371791	-0.016179	0.017648	-0.003683
398	2.001968	0.005000	0.117720	-9.579285	-1.120702	-0.428185	0.107348	-0.371860	-0.029609	0.021247	-0.009833
399	2.006968	0.005000	0.196200	-9.473075	-1.121725	-0.427847	0.107122	-0.372238	-0.023421	0.028571	-0.020914
400	2.011968	0.005000	0.180805	-9.589955	-1.153355	-0.427508	0.106896	-0.372617	-0.015555	0.022457	-0.001933
401	2.016968	0.005000	0.117720	-9.545250	-1.182405	-0.427169	0.106670	-0.372995	-0.021720	0.026337	-0.023894
402	2.021968	0.005000	0.144985	-9.627433	-1.125985	-0.426830	0.106444	-0.373373	-0.017893	0.014173	-0.010142
403	2.026968	0.005000	0.196200	-9.626410	-1.202420	-0.426491	0.106218	-0.373752	-0.018865	0.022441	-0.012835
404	2.031968	0.005000	0.247508	-9.535320	-1.255680	-0.426153	0.105993	-0.374130	-0.034437	0.024510	-0.013869
405	2.036968	0.005000	0.168005	-9.602755	-1.205395	-0.425814	0.105767	-0.374508	-0.019375	0.019296	-0.002830
406	2.041968	0.005000	0.216246	-9.594606	-1.157154	-0.425475	0.105541	-0.374887	-0.024463	0.015854	-0.022430
407	2.046968	0.005000	0.283792	-9.622912	-1.128848	-0.425136	0.105315	-0.375265	-0.014674	0.019112	-0.015000
408	2.051968	0.005000	0.165418	-9.574560	-1.107178	-0.424797	0.105089	-0.375644	-0.007217	0.020987	-0.014050
409	2.056968	0.005000	0.156960	-9.653040	-1.231312	-0.424459	0.104863	-0.376022	-0.011384	0.016799	-0.013385
410	2.061968	0.005000	0.169946	-9.581053	-1.164214	-0.424120	0.104637	-0.376400	-0.014511	0.014634	-0.011787
411	2.066968	0.005000	0.145217	-9.613800	-1.065351	-0.423981	0.104411	-0.376704	-0.000036	0.010167	-0.011841
412	2.071968	0.005000	0.127418	-9.657889	-1.103569	-0.424320	0.104185	-0.376830	-0.010935	0.021392	-0.015487
413	2.076968	0.005000	0.235440	-9.542973	-1.184853	-0.424659	0.103959	-0.376956	-0.010280	0.015292	-0.008255
414	2.081968	0.005000	0.196200	-9.563210	-1.143635	-0.424998	0.103734	-0.377082	0.001607	0.009767	-0.007948
415	2.086968	0.005000	0.198447	-9.533073	-1.209699	-0.425336	0.103508	-0.377209	0.000202	0.018747	-0.010406
416	2.091968	0.005000	0.117720	-9.574560	-1.101199	-0.425675	0.103282	-0.377335	-0.010389	-0.001555	-0.013053
417	2.096968	0.005000	0.118378	-9.613142	-1.177419	-0.426014	0.103056	-0.377461	-0.009987	0.010059	-0.000289
418	2.101968	0.005000	0.118742	-9.496080	-1.138642	-0.426353	0.102830	-0.377587	-0.015527	0.016997	-0.014430
419	2.106968	0.005000	0.234077	-9.535320	-1.020240	-0.426692	0.102604	-0.377713	-0.009325	0.007310	-0.011158
420	2.111968	0.005000	0.191429	-9.569789	-1.061866	-0.427030	0.102378	-0.377839	-0.014398	0.014200	-0.017052
421	2.116968	0.005000	0.126504	-9.574560	-1.062408	-0.427369	0.102152	-0.377965	-0.008957	0.009667	-0.015770
422	2.121968	0.005000	0.223589	-9.578510	-0.953611	-0.427708	0.101926	-0.378091	-0.014818	0.010410	-0.008213
423	2.126968	0.005000	0.269707	-9.545266	-1.172227	-0.428047	0.101701	-0.378217	-0.007597	0.011301	-0.013210
424	2.131968	0.005000	0.235440	-9.608217	-1.137960	-0.428367	0.101511	-0.378312	-0.002425	0.004102	-0.014247
425	2.136968	0.005000	0.196200	-9.633428	-1.170663	-0.428480	0.101737	-0.378060	-0.009751	0.010622	-0.028004
426	2.141968	0.005000	0.243000	-9.494639	-1.106280	-0.428593	0.101963	-0.377808	-0.005084	0.010860	-0.013704
427	2.146968	0.005000	0.235440	-9.597395	-1.012038	-0.428706	0.102189	-0.377555	-0.001343	0.013638	-0.010461
428	2.151968	0.005000	0.226315	-9.653040	-1.128835	-0.428819	0.102415	-0.377303	0.003739	0.011000	-0.016493
429	2.156968	0.005000	0.156960	-9.584707	-1.079774	-0.428932	0.102641	-0.377051	0.002984	0.010733	-0.021460
430	2.161968	0.005000	0.196200	-9.642335	-1.020240	-0.429045	0.102867	-0.376798	-0.004100	0.011893	-0.017167
431	2.166968	0.005000	0.247167	-9.692280	-1.047753	-0.429158	0.103093	-0.376546	0.005716	0.004817	-0.004584
432	2.171968	0.005000	0.170701	-9.587310	-1.008482	-0.429272	0.103319	-0.376294	-0.008602	0.012708	-0.016514
433	2.176968	0.005000	0.184473	-9.549076	-1.151716	-0.429385	0.103545	-0.376041	-0.006144	0.011745	-0.020414
434	2.181968	0.005000	0.117720	-9.574560	-1.045166	-0.429498	0.103771	-0.375789	-0.011567	0.014473	-0.016306
435	2.186968	0.005000	0.133057	-9.653040	-1.114057	-0.429611	0.103997	-0.375537	0.000079	0.015613	-0.015204
436	2.191968	0.005000	0.156960	-9.607278	-1.170678	-0.429724	0.104223	-0.375284	-0.001573	0.005563	-0.001556
437	2.196968	0.005000	0.112282	-9.535320	-1.115621	-0.429837	0.104449	-0.375032	-0.014035	0.023998	-0.017700
438	2.201968	0.005000	0.139036	-9.496080	-1.056087	-0.429654	0.104478	-0.375110	-0.006861	0.010180	-0.008677
439	2.206968	0.005000	0.116372	-9.554266	-1.060828	-0.429428	0.104478	-0.375236	0.000291	0.010335	-0.017612
440	2.211968	0.005000	0.117983	-9.653040	-1.020240	-0.429202	0.104478	-0.375363	-0.016896	0.016610	-0.021055
441	2.216968	0.005000	0.179252	-9.733302	-1.059480	-0.428976	0.104478	-0.375489	-0.003410	0.010716	-0.012210
442	2.221968	0.005000	0.213907	-9.635333	-1.116427	-0.428750	0.104478	-0.375615	-0.004753	0.009574	-0.010901
443	2.226968	0.005000	0.196200	-9.579502	-1.076629	-0.428524	0.104478	-0.375741	-0.012553	0.015741	-0.022604
444	2.231968	0.005000	0.251573	-9.551453	-1.052506	-0.428298	0.104478	-0.375868	-0.016893	0.019989	-0.026863
445	2.236968	0.005000	0.244441	-9.653040	-0.947879	-0.428072	0.104478	-0.375994	-0.022535	0.008074	-0.019080
446	2.241968	0.005000	0.131817	-9.692280	-0.981000	-0.427846	0.104478	-0.376120	-0.010856	0.019112	-0.010405
447	2.246968	0.005000	0.156960	-9.625961	-1.021619	-0.427620	0.104478	-0.376246	-0.010283	0.019909	-0.014189
448	2.251968	0.005000	0.169477	-9.574560	-1.073686	-0.427394	0.104478	-0.376372	-0.013289	0.019342	-0.013040
449	2.256968	0.005000	0.297669	-9.507575	-1.121709	-0.427168	0.104478	-0.376499	-0.012457	0.027374	-0.019843
450	2.261968	0.005000	0.274680	-9.545922	-1.137960	-0.426942	0.104478	-0.376625	-0.012075	0.011485	-0.012189
451	2.266968	0.005000	0.254820	-9.613800	-1.069410	-0.426866	0.104703	-0.376331	-0.006658	0.013872	-0.008938
452	2.271968	0.005000	0.214015	-9.504988	-1.089812	-0.426866	0.105042	-0.375827	-0.002719	0.019469	-0.013918
453	2.276968	0.005000	0.266315	-9.591291	-1.107085	-0.426866	0.105381	-0.375322	0.000638	0.010324	-0.011627
454	2.281968	0.005000	0.220754	-9.653040	-1.216440	-0.426866	0.105720	-0.374818	-0.013209	0.014932	-0.020927
455	2.286968	0.005000	0.196200	-9.607479	-1.170879	-0.426866	0.106059	-0.374313	-0.009222	0.012461	-0.005533
456	2.291968	0.005000	0.230142	-9.619098	-1.025538	-0.426866	0.106397	-0.373809	0.000060	0.017755	-0.014325
457	2.296968	0.005000	0.205712	-9.692280	-1.015484	-0.426866	0.106736	-0.373304	-0.007443	0.018197	-0.019645
458	2.301968	0.005000	0.235440	-9.649307	-0.988467	-0.426866	0.107075	-0.372800	-0.006229	0.022297	-0.006849
459	2.306968	0.005000	0.123142	-9.647618	-1.020240	-0.426866	0.107414	-0.372295	-0.020723	0.025582	-0.011839
460	2.311968	0.005000	0.196200	-9.533167	-1.212133	-0.426866	0.107753	-0.371790	-0.017086	0.014548	-0.004777
461	2.316968	0.005000	0.197331	-9.497211	-1.058349	-0.426866	0.108091	-0.371286	-0.011487	0.019688	-0.019607
462	2.321968	0.005000	0.274680	-9.613924	-1.098472	-0.426866	0.108430	-0.370781	-0.016914	0.016747	-0.011168
463	2.326968	0.005000	0.313481	-9.536637	-1.097842	-0.426866	0.108769	-0.370277	-0.020159	0.020772	-0.024427
464	2.331968	0.005000	0.235440	-9.610853	-1.021714	-0.426662	0.108904	-0.370228	-0.028588	0.019089	-0.014897
465	2.336968	0.005000	0.156960	-9.584475	-1.017761	-0.426210	0.108791	-0.370732	-0.023091	0.013480	-0.002663
466	2.341968	0.005000	0.192699	-9.642537	-1.166697	-0.425759	0.108678	-0.371237	-0.015665	0.011750	-0.006162
467	2.346968	0.005000	0.196200	-9.692280	-1.173107	-0.425307	0.108565	-0.371741	-0.011453	0.012588	-0.002437
468	2.351968	0.005000	0.196200	-9.687214	-1.113917	-0.424855	0.108452	-0.372246	-0.023957	0.019200	-0.014746
469	2.356968	0.005000	0.196200	-9.653040	-1.098720	-0.424403	0.108340	-0.372750	-0.010028	0.017505	-0.010895
470	2.361968	0.005000	0.267967	-9.653040	-1.144673	-0.423951	0.108227	-0.373255	-0.015367	0.019718	-0.004223
471	2.366968	0.005000	0.172266	-9.582213	-1.106373	-0.423500	0.108114	-0.373759	-0.021805	0.019647	-0.014209
472	2.371968	0.005000	0.148285	-9.613800	-1.168525	-0.423048	0.108001	-0.374264	-0.012987	0.018055	-0.008191
473	2.376968	0.005000	0.117720	-9.505412	-1.216440	-0.422596	0.107888	-0.374769	-0.009052	0.016141	-0.007542
474	2.381968	0.005000	0.196200	-9.582028	-1.088129	-0.422144	0.107775	-0.375273	-0.005242	0.023799	-0.008758
475	2.386968	0.005000	0.196200	-9.585822	-1.109982	-0.421692	0.107662	-0.375778	-0.001222	0.027310	-0.003147
476	2.391968	0.005000	0.115334	-9.559890	-1.084050	-0.421241	0.107549	-0.376282	-0.009271	0.030625	-0.018032
477	2.396968	0.005000	0.196913	-9.548875	-1.177913	-0.421030	0.107436	-0.376667	-0.007000	0.024712	-0.005008
478	2.401968	0.005000	0.078480	-9.641530	-1.008730	-0.421595	0.107323	-0.376667	-0.002241	0.020485	-0.016671
479	2.406968	0.005000	0.181322	-9.584045	-1.147445	-0.422160	0.107210	-0.376667	-0.011258	0.021234	-0.012713
480	2.411968	0.005000	0.141530	-9.496080	-1.051099	-0.422725	0.107097	-0.376667	-0.008142	0.029221	-0.020565
481	2.416968	0.005000	0.101268	-9.597348	-0.974664	-0.423290	0.106984	-0.376667	-0.009475	0.023950	-0.008997
482	2.421968	0.005000	0.117720	-9.618091	-1.028822	-0.423855	0.106871	-0.376667	-0.012660	0.034349	-0.020396
483	2.426968	0.005000	0.160167	-9.532113	-1.119943	-0.424420	0.106758	-0.376667	-0.016542	0.023046	-0.027066
484	2.431968	0.005000	0.117720	-9.437801	-1.059480	-0.424985	0.106645	-0.376667	-0.002813	0.019494	-0.008847
485	2.436968	0.005000	0.156960	-9.555382	-1.079542	-0.425550	0.106532	-0.376667	-0.010198	0.023907	-0.026107
486	2.441968	0.005000	0.080958	-9.516939	-1.017762	-0.426115	0.106419	-0.376667	-0.008994	0.019612	-0.012439
487	2.446968	0.005000	0.135334	-9.535320	-0.959374	-0.426680	0.106306	-0.376667	-0.014458	0.021994	-0.010490
488	2.451968	0.005000	0.078480	-9.518729	-0.941760	-0.427244	0.106193	-0.376667	-0.020475	0.017532	-0.016662
489	2.456968	0.005000	0.172716	-9.551076	-1.106449	-0.427809	0.106080	-0.376667	-0.013104	0.013759	0.008494
490	2.461968	0.005000	0.156960	-9.653040	-1.068686	-0.428348	0.105973	-0.376663	-0.022547	0.026806	-0.025691
491	2.466968	0.005000	0.210204	-9.585791	-1.126729	-0.428009	0.106086	-0.376537	-0.029964	0.017104	-0.014488
492	2.471968	0.005000	0.209182	-9.626782	-1.111996	-0.427671	0.106199	-0.376411	-0.031363	0.013053	-0.009381
493	2.476968	0.005000	0.196200	-9.611833	-0.981000	-0.427332	0.106312	-0.376285	-0.034469	0.011429	-0.012934
494	2.481968	0.005000	0.313920	-9.641638	-1.020240	-0.426993	0.106425	-0.376159	-0.025546	0.009705	-0.007706
495	2.486968	0.005000	0.227338	-9.584939	-0.991379	-0.426654	0.106538	-0.376033	-0.031516	0.018631	-0.025000
496	2.491968	0.005000	0.293626	-9.584033	-1.031062	-0.426315	0.106651	-0.375906	-0.031980	0.016052	-0.013156
497	2.496968	0.005000	0.305105	-9.552949	-0.989815	-0.425977	0.106764	-0.375780	-0.026505	0.022075	-0.019975
498	2.501968	0.005000	0.266888	-9.598216	-1.098720	-0.425638	0.106877	-0.375654	-0.022606	0.008993	-0.018409
499	2.506968	0.005000	0.267826	-9.496080	-1.137960	-0.425299	0.106990	-0.375528	-0.036101	0.018891	-0.018997
500	2.511968	0.005000	0.235440	-9.613800	-1.098720	-0.424960	0.107103	-0.375402	-0.022795	0.023341	-0.022088
501	2.516968	0.005000	0.235440	-9.530115	-1.127550	-0.424621	0.107216	-0.375276	-0.023507	0.013142	-0.011572
502	2.521968	0.005000	0.235440	-9.574560	-1.129491	-0.424282	0.107329	-0.375149	-0.032617	0.022876	-0.028499
503	2.526968	0.005000	0.164241	-9.613800	-1.052199	-0.423944	0.107442	-0.375023	-0.003881	0.014604	-0.022750
504	2.531968	0.005000	0.232822	-9.613800	-0.983618	-0.423973	0.107647	-0.375000	-0.015947	0.020803	-0.007567
505	2.536968	0.005000	0.232249	-9.690684	-1.098720	-0.424086	0.107873	-0.375000	-0.022389	0.008830	-0.010203
506	2.541968	0.005000	0.197238	-9.611724	-1.135884	-0.424199	0.108099	-0.375000	-0.022863	0.013116	-0.008355
507	2.546968	0.005000	0.235425	-9.535289	-0.941791	-0.424312	0.108325	-0.375000	-0.027097	0.022634	-0.019071
508	2.551968	0.005000	0.196200	-9.571584	-0.981992	-0.424425	0.108551	-0.375000	-0.020403	0.009390	-0.007740
509	2.556968	0.005000	0.233426	-9.615814	-1.057466	-0.424538	0.108777	-0.375000	-0.018880	0.017746	-0.004435
510	2.561968	0.005000	0.238012	-9.616372	-1.022812	-0.424651	0.109003	-0.375000	-0.008917	0.015547	-0.016012
511	2.566968	0.005000	0.164148	-9.578154	-1.059480	-0.424764	0.109229	-0.375000	-0.009710	0.019882	-0.017239
512	2.571968	0.005000	0.121907	-9.578747	-1.133773	-0.424877	0.109455	-0.375000	-0.014271	0.023258	-0.012419
513	2.576968	0.005000	0.219964	-9.467157	-1.132801	-0.424990	0.109681	-0.375000	-0.015310	0.016265	-0.022297
514	2.581968	0.005000	0.169322	-9.586922	-1.137960	-0.425103	0.109907	-0.375000	-0.006435	0.019196	-0.011873
515	2.586968	0.005000	0.188996	-9.471247	-1.091516	-0.425216	0.110133	-0.375000	0.001309	0.014470	-0.012227
516	2.591968	0.005000	0.062765	-9.558877	-1.247838	-0.425329	0.110359	-0.375000	-0.005616	0.021351	-0.012533
517	2.596968	0.005000	0.100184	-9.565792	-1.225208	-0.425579	0.110311	-0.375077	-0.005619	0.010700	-0.018520
518	2.601968	0.005000	0.107929	-9.554901	-1.157541	-0.425918	0.110085	-0.375203	-0.013157	0.012891	-0.008554
519	2.606968	0.005000	0.078480	-9.535320	-1.059480	-0.426257	0.109859	-0.375329	-0.015580	0.020014	-0.014298
520	2.611968	0.005000	0.145605	-9.563205	-1.003711	-0.426596	0.109633	-0.375455	-0.021733	0.012804	-0.003542
521	2.616968	0.005000	0.223062	-9.560075	-1.111098	-0.426935	0.109407	-0.375581	-0.013004	0.024146	-0.019277
522	2.621968	0.005000	0.104630	-9.509139	-1.151050	-0.427274	0.109181	-0.375708	-0.012154	0.015129	-0.021255
523	2.626968	0.005000	0.103762	-9.535320	-1.137960	-0.427613	0.108955	-0.375834	-0.014577	0.014360	-0.024569
524	2.631968	0.005000	0.171940	-9.589540	-1.089441	-0.427952	0.108729	-0.375960	-0.011364	0.021447	-0.022248
525	2.636968	0.005000	0.140966	-9.590554	-1.105973	-0.428291	0.108503	-0.376086	-0.009850	0.014970	-0.004538
526	2.641968	0.005000	0.156960	-9.518775	-1.092570	-0.428630	0.108277	-0.376213	-0.020503	0.013609	-0.019038
527	2.646968	0.005000	0.113615	-9.556993	-1.142065	-0.428969	0.108051	-0.376339	-0.013299	0.018565	-0.022066
528	2.651968	0.005000	0.057830	-9.553910	-1.197850	-0.429308	0.107825	-0.376465	-0.008854	0.010318	-0.021317
529	2.656968	0.005000	0.058372	-9.555428	-1.235572	-0.429647	0.107599	-0.376591	-0.016331	0.013630	-0.018263
530	2.661968	0.005000	0.176046	-9.574560	-1.137960	-0.430121	0.106967	-0.376063	-0.018680	0.012242	-0.014157
531	2.666968	0.005000	0.081594	-9.613800	-1.041417	-0.430799	0.105725	-0.374550	-0.007866	0.013925	-0.017345
532	2.671968	0.005000	0.152762	-9.670561	-1.094522	-0.431477	0.104482	-0.373036	-0.018510	0.014649	-0.017430
533	2.676968	0.005000	0.202443	-9.558062	-1.088465	-0.432154	0.103240	-0.371523	-0.032553	0.031131	-0.026087
534	2.681968	0.005000	0.141484	-9.582848	-1.035716	-0.432832	0.101997	-0.370009	-0.020932	0.023310	-0.011736
535	2.686968	0.005000	0.171587	-9.496080	-1.044853	-0.433510	0.100755	-0.368495	-0.023506	0.025446	-0.015059
536	2.691968	0.005000	0.288576	-9.574560	-1.061928	-0.434187	0.099513	-0.366982	-0.024009	0.023463	-0.020053
537	2.696968	0.005000	0.261791	-9.496080	-1.098720	-0.434865	0.098270	-0.365468	-0.024273	0.023698	-0.007798
538	2.701968	0.005000	0.156960	-9.550827	-1.153467	-0.435543	0.097028	-0.363955	-0.022846	0.037049	-0.034208
539	2.706968	0.005000	0.196200	-9.468149	-1.126651	-0.436221	0.095785	-0.362441	-0.016637	0.017391	-0.018460
540	2.711968	0.005000	0.225154	-9.535320	-1.098720	-0.436898	0.094543	-0.360928	-0.016721	0.034153	-0.023893
541	2.716968	0.005000	0.265301	-9.535320	-1.078237	-0.437576	0.093300	-0.359414	-0.019332	0.026363	-0.031335
542	2.721968	0.005000	0.244162	-9.544042	-1.159757	-0.438254	0.092058	-0.357901	-0.005549	0.016124	-0.001222
543	2.726968	0.005000	0.313920	-9.660739	-1.177200	-0.438890	0.091149	-0.356457	-0.003826	0.016173	-0.012198
544	2.731968	0.005000	0.307160	-9.581320	-1.196161	-0.439342	0.091714	-0.355321	0.004643	0.017137	-0.015369
545	2.736968	0.005000	0.280815	-9.541455	-1.177200	-0.439794	0.092279	-0.354186	-0.003223	0.021728	-0.015630
546	2.741968	0.005000	0.303696	-9.584784	-1.182312	-0.440246	0.092844	-0.353050	-0.008570	0.017051	-0.015810
547	2.746968	0.005000	0.208469	-9.601531	-1.212350	-0.440698	0.093409	-0.351914	-0.008858	0.019319	-0.020639
548	2.751968	0.005000	0.267613	-9.613800	-1.141493	-0.441150	0.093974	-0.350779	-0.015568	0.010394	-0.021433
549	2.756968	0.005000	0.159485	-9.613800	-1.253155	-0.441602	0.094539	-0.349643	-0.017732	-0.002071	-0.010663
550	2.761968	0.005000	0.197703	-9.536823	-1.174195	-0.442054	0.095104	-0.348507	-0.011355	0.008552	-0.017177
551	2.766968	0.005000	0.235440	-9.576450	-1.176255	-0.442506	0.095669	-0.347372	-0.012717	-0.004206	-0.013969
552	2.771968	0.005000	0.235440	-9.613877	-1.137960	-0.442958	0.096234	-0.346236	-0.030826	0.007323	-0.014345
553	2.776968	0.005000	0.274680	-9.729320	-1.215340	-0.443410	0.096799	-0.345100	-0.023057	0.004723	-0.023698
554	2.781968	0.005000	0.235440	-9.727305	-1.179308	-0.443862	0.097364	-0.343965	-0.026174	-0.004433	-0.017543
555	2.786968	0.005000	0.159656	-9.616496	-1.135264	-0.444314	0.097929	-0.342829	-0.034839	-0.002791	-0.026913
556	2.791968	0.005000	0.153273	-9.535320	-1.201692	-0.444766	0.098494	-0.341693	-0.019529	-0.007955	-0.014018
557	2.796968	0.005000	0.230731	-9.525901	-1.221149	-0.443893	0.098507	-0.343761	-0.024120	-0.006512	-0.016504
558	2.801968	0.005000	0.156960	-9.563096	-1.171468	-0.442990	0.098507	-0.345906	-0.020362	-0.007210	-0.015206
559	2.806968	0.005000	0.150686	-9.508628	-1.131686	-0.442086	0.098507	-0.348050	-0.020437	-0.013587	-0.007756
560	2.811968	0.005000	0.125017	-9.567263	-1.155310	-0.441183	0.098507	-0.350194	-0.030130	-0.003252	-0.020824
561	2.816968	0.005000	0.095118	-9.394998	-1.222404	-0.440279	0.098507	-0.352338	-0.023575	-0.002403	-0.002146
562	2.821968	0.005000	0.039240	-9.417600	-1.225301	-0.439375	0.098507	-0.354482	-0.023110	-0.002138	-0.005738
563	2.826968	0.005000	0.107836	-9.476607	-1.255680	-0.438472	0.098507	-0.356626	-0.027488	-0.005160	-0.001422
564	2.831968	0.005000	0.146054	-9.513508	-1.188106	-0.437568	0.098507	-0.358771	-0.027810	0.007607	-0.012593
565	2.836968	0.005000	0.184736	-9.563096	-1.003927	-0.436665	0.098507	-0.360915	-0.023972	0.008165	-0.008653
566	2.841968	0.005000	0.117720	-9.560261	-1.125489	-0.435761	0.098507	-0.363059	-0.025903	0.011631	-0.008171
567	2.846968	0.005000	0.117720	-9.496080	-1.139199	-0.434858	0.098507	-0.365203	-0.020874	0.023619	-0.018993
568	2.851968	0.005000	0.191893	-9.549836	-1.094413	-0.433954	0.098507	-0.367347	-0.014083	0.016415	-0.013963
569	2.856968	0.005000	0.054313	-9.559487	-1.083647	-0.433050	0.098507	-0.369491	-0.012415	0.027696	-0.022595
570	2.861968	0.005000	0.147913	-9.542369	-1.147007	-0.432664	0.099024	-0.370385	-0.010508	0.017713	-0.010662
571	2.866968	0.005000	0.191196	-9.518202	-1.105831	-0.432438	0.099702	-0.370889	-0.003311	0.022998	-0.007671
572	2.871968	0.005000	0.082399	-9.613800	-1.059480	-0.432212	0.100380	-0.371394	-0.007589	0.033861	-0.022635
573	2.876968	0.005000	0.099037	-9.574560	-1.160392	-0.431986	0.101057	-0.371898	-0.002388	0.030039	0.000843
574	2.881968	0.005000	0.176665	-9.613800	-1.040116	-0.431760	0.101735	-0.372403	-0.011631	0.041480	-0.010842
575	2.886968	0.005000	0.138218	-9.593302	-0.996229	-0.431534	0.102413	-0.372908	-0.007558	0.036196	0.003774
576	2.891968	0.005000	0.235440	-9.556590	-1.020240	-0.431308	0.103091	-0.373412	-0.012689	0.042281	-0.012224
577	2.896968	0.005000	0.184597	-9.535320	-1.093375	-0.431082	0.103768	-0.373917	-0.015969	0.041454	-0.023800
578	2.901968	0.005000	0.212323	-9.528325	-1.114843	-0.430857	0.104446	-0.374421	-0.012671	0.042704	-0.010075
579	2.906968	0.005000	0.196200	-9.574560	-1.114103	-0.430631	0.105124	-0.374926	-0.002644	0.045446	-0.018679
580	2.911968	0.005000	0.196200	-9.574560	-1.109239	-0.430405	0.105802	-0.375430	-0.015924	0.039106	-0.010490
581	2.916968	0.005000	0.261342	-9.587898	-1.020240	-0.430179	0.106479	-0.375935	-0.009421	0.045538	-0.011959
582	2.921968	0.005000	0.156960	-9.613800	-1.020240	-0.429953	0.107157	-0.376439	-0.002975	0.042189	-0.008858
583	2.926968	0.005000	0.180507	-9.551013	-1.008466	-0.429789	0.107339	-0.376598	0.005930	0.038420	-0.008325
584	2.931968	0.005000	0.253178	-9.578324	-1.105707	-0.429676	0.107113	-0.376472	0.002081	0.029651	-0.013644
585	2.936968	0.005000	0.264835	-9.672589	-1.118269	-0.429563	0.106887	-0.376345	-0.006168	0.032969	-0.012144
586	2.941968	0.005000	0.235440	-9.583731	-1.126233	-0.429450	0.106661	-0.376219	-0.006522	0.035783	-0.015022
587	2.946968	0.005000	0.204349	-9.621949	-1.201646	-0.429337	0.106435	-0.376093	-0.007713	0.024358	-0.008400
588	2.951968	0.005000	0.306794	-9.574560	-1.191452	-0.429224	0.106210	-0.375967	-0.012780	0.030857	-0.014928
589	2.956968	0.005000	0.280872	-9.436177	-1.288728	-0.429111	0.105984	-0.375841	-0.014196	0.029924	-0.009820
590	2.961968	0.005000	0.308359	-9.568999	-1.261241	-0.428998	0.105758	-0.375715	-0.006619	0.019877	0.002051
591	2.966968	0.005000	0.274680	-9.539859	-1.255680	-0.428885	0.105532	-0.375589	-0.003841	0.028997	-0.007724
592	2.971968	0.005000	0.235440	-9.578077	-1.223473	-0.428772	0.105306	-0.375462	0.005462	0.023965	-0.005084
593	2.976968	0.005000	0.202149	-9.577534	-1.283023	-0.428659	0.105080	-0.375336	0.006545	0.026233	-0.000101
594	2.981968	0.005000	0.351208	-9.656944	-1.175248	-0.428546	0.104854	-0.375210	0.007729	0.024299	0.001910
595	2.986968	0.005000	0.312061	-9.611012	-1.216440	-0.428433	0.104628	-0.375084	0.013314	0.023456	-0.002285
596	2.991968	0.005000	0.235440	-9.613521	-1.216440	-0.428320	0.104440	-0.375084	0.014024	0.018176	-0.008578
597	2.996968	0.005000	0.273410	-9.652405	-1.217075	-0.428207	0.104327	-0.375337	0.022505	0.012964	0.002462
598	3.001968	0.005000	0.274680	-9.615458	-1.142933	-0.428094	0.104214	-0.375589	0.019221	0.019012	-0.007853
599	3.006968	0.005000	0.274680	-9.613800	-1.216440	-0.427981	0.104101	-0.375841	0.023061	0.006048	-0.003570
600	3.011968	0.005000	0.164365	-9.610098	-1.141662	-0.427869	0.103988	-0.376093	0.020562	0.004611	0.003025
601	3.016968	0.005000	0.130454	-9.508814	-1.168711	-0.427756	0.103875	-0.376346	0.018364	-0.002618	-0.004036
602	3.021968	0.005000	0.235440	-9.647773	-1.250413	-0.427643	0.103762	-0.376598	0.025152	-0.000086	0.003486
603	3.026968	0.005000	0.274680	-9.659330	-1.006158	-0.427530	0.103649	-0.376850	0.018934	-0.008861	-0.002704
604	3.031968	0.005000	0.313920	-9.660352	-1.162576	-0.427417	0.103536	-0.377102	0.019037	-0.013206	-0.001121
605	3.036968	0.005000	0.306050	-9.653040	-1.059480	-0.427304	0.103423	-0.377354	0.013819	-0.013298	-0.012527
606	3.041968	0.005000	0.222876	-9.622692	-1.068372	-0.427191	0.103310	-0.377607	0.026573	-0.019836	-0.002321
607	3.046968	0.005000	0.264781	-9.682381	-1.078922	-0.427078	0.103197	-0.377859	0.015788	-0.012741	-0.004475
608	3.051968	0.005000	0.253516	-9.603218	-0.984088	-0.426965	0.103084	-0.378111	0.020769	-0.017415	-0.002899
609	3.056968	0.005000	0.302441	-9.540122	-1.075762	-0.426866	0.103039	-0.378348	0.022339	-0.014536	0.003578
610	3.061968	0.005000	0.247942	-9.533585	-0.954262	-0.426866	0.103491	-0.378474	0.005333	-0.009413	-0.011403
611	3.066968	0.005000	0.156960	-9.665232	-0.955284	-0.426866	0.103943	-0.378600	0.012907	-0.011248	-0.003213
612	3.071968	0.005000	0.053777	-9.731520	-0.966463	-0.426866	0.104395	-0.378727	0.003636	-0.014376	0.001022
613	3.076968	0.005000	0.030177	-9.698306	-1.035329	-0.426866	0.104847	-0.378853	0.004576	-0.011050	-0.005443
614	3.081968	0.005000	0.101609	-9.692280	-0.981000	-0.426866	0.105298	-0.378979	0.004464	-0.013373	0.003159
615	3.086968	0.005000	0.112747	-9.675146	-0.936787	-0.426866	0.105750	-0.379105	0.001896	-0.004492	-0.015031
616	3.091968	0.005000	0.035790	-9.535320	-0.902520	-0.426866	0.106202	-0.379231	0.006741	-0.003390	-0.004846
617	3.096968	0.005000	0.059782	-9.613800	-0.943603	-0.426866	0.106654	-0.379357	0.001896	0.007109	-0.013417
618	3.101968	0.005000	0.098201	-9.652839	-1.079402	-0.426866	0.107105	-0.379484	-0.003940	0.001871	-0.015872
619	3.106968	0.005000	0.136217	-9.553817	-0.925509	-0.426866	0.107557	-0.379610	-0.002702	0.004951	-0.007846
620	3.111968	0.005000	0.099765	-9.674325	-0.884565	-0.426866	0.108009	-0.379736	0.000311	0.006354	-0.016938
621	3.116968	0.005000	0.151584	-9.535320	-0.947136	-0.426866	0.108461	-0.379862	-0.013523	0.021249	-0.025533
622	3.121968	0.005000	0.141050	-9.472750	-0.934340	-0.426866	0.108913	-0.379988	-0.020777	0.018473	-0.021554
623	3.126968	0.005000	0.087945	-9.584025	-0.951225	-0.427173	0.108341	-0.379886	-0.021953	0.016909	-0.010006
624	3.131968	0.005000	0.050407	-9.717483	-0.941760	-0.427512	0.107664	-0.379760	-0.020381	0.020353	-0.017366
625	3.136968	0.005000	-0.065885	-9.574560	-0.902520	-0.427850	0.106986	-0.379634	-0.012667	0.025062	-0.018652
626	3.141968	0.005000	0.036901	-9.559921	-0.981000	-0.428189	0.106309	-0.379507	-0.028112	0.030772	-0.014533
627	3.146968	0.005000	0.117720	-9.585838	-1.059480	-0.428527	0.105632	-0.379381	-0.025371	0.037832	-0.015745
628	3.151968	0.005000	0.136203	-9.595317	-1.059480	-0.428866	0.104954	-0.379255	-0.038464	0.024471	-0.013537
629	3.156968	0.005000	0.137565	-9.643342	-1.020240	-0.429205	0.104277	-0.379129	-0.029732	0.029305	-0.032245
630	3.161968	0.005000	0.087171	-9.653040	-0.959141	-0.429543	0.103600	-0.379003	-0.019122	0.036457	-0.025281
631	3.166968	0.005000	0.109960	-9.613800	-1.012480	-0.429882	0.102922	-0.378877	-0.029975	0.031331	-0.025580
632	3.171968	0.005000	0.135628	-9.567449	-1.041572	-0.430221	0.102245	-0.378751	-0.039973	0.036601	-0.041158
633	3.176968	0.005000	0.129896	-9.607712	-1.014152	-0.430559	0.101567	-0.378625	-0.038247	0.028723	-0.015384
634	3.181968	0.005000	0.162026	-9.545451	-0.962023	-0.430898	0.100890	-0.378499	-0.045355	0.033991	-0.031477
635	3.186968	0.005000	0.235440	-9.500604	-1.033811	-0.431237	0.100213	-0.378373	-0.041217	0.023052	-0.032070
636	3.191968	0.005000	0.124722	-9.538821	-1.062981	-0.431498	0.100000	-0.378073	-0.041293	0.027219	-0.022452
637	3.196968	0.005000	0.235440	-9.650561	-1.133003	-0.431724	0.100000	-0.377695	-0.059688	0.038120	-0.030013
638	3.201968	0.005000	0.233504	-9.611864	-1.098720	-0.431950	0.100000	-0.377316	-0.051354	0.022683	-0.018454
639	3.206968	0.005000	0.272852	-9.611058	-1.139788	-0.432176	0.100000	-0.376938	-0.048608	0.029721	-0.020836
640	3.211968	0.005000	0.157068	-9.574343	-1.138177	-0.432402	0.100000	-0.376559	-0.063467	0.024957	-0.028293
641	3.216968	0.005000	0.197331	-9.497211	-1.137960	-0.432628	0.100000	-0.376181	-0.055941	0.026255	-0.015603
642	3.221968	0.005000	0.233746	-9.496080	-1.139654	-0.432854	0.100000	-0.375802	-0.061691	0.029926	-0.016418
643	3.226968	0.005000	0.232744	-9.574560	-1.104111	-0.433080	0.100000	-0.375423	-0.067392	0.033720	-0.021971
644	3.231968	0.005000	0.306484	-9.542756	-1.173482	-0.433306	0.100000	-0.375045	-0.054672	0.036220	-0.021723
645	3.236968	0.005000	0.274680	-9.456840	-1.073701	-0.433532	0.100000	-0.374666	-0.054303	0.027650	-0.014917
646	3.241968	0.005000	0.235440	-9.490782	-1.104018	-0.433758	0.100000	-0.374288	-0.051033	0.031765	-0.023896
647	3.246968	0.005000	0.248055	-9.613800	-1.288612	-0.433984	0.100000	-0.373909	-0.036637	0.024940	-0.014059
648	3.251968	0.005000	0.210855	-9.581887	-1.231095	-0.434210	0.100000	-0.373531	-0.028817	0.034931	-0.013718
649	3.256968	0.005000	0.227555	-9.613800	-1.169315	-0.434058	0.100162	-0.373333	-0.031768	0.037418	-0.017987
650	3.261968	0.005000	0.235440	-9.522803	-1.146868	-0.433494	0.100501	-0.373333	-0.029660	0.031452	-0.010098
651	3.266968	0.005000	0.343230	-9.525390	-1.245750	-0.432929	0.100839	-0.373333	-0.029054	0.031986	-0.024751
652	3.271968	0.005000	0.324522	-9.506682	-1.294920	-0.432365	0.101178	-0.373333	-0.025629	0.017845	-0.014656
653	3.276968	0.005000	0.274680	-9.519069	-1.188695	-0.431800	0.101517	-0.373333	-0.027643	0.018820	-0.008423
654	3.281968	0.005000	0.313920	-9.601283	-1.216440	-0.431236	0.101856	-0.373333	-0.020195	0.026490	-0.025873
655	3.286968	0.005000	0.313982	-9.600741	-1.268801	-0.430672	0.102194	-0.373333	-0.010205	0.022764	-0.016326
656	3.291968	0.005000	0.235440	-9.535320	-1.280838	-0.430107	0.102533	-0.373333	-0.015852	0.024996	-0.009206
657	3.296968	0.005000	0.181385	-9.550135	-1.304530	-0.429543	0.102872	-0.373333	-0.010234	0.017401	-0.008195
658	3.301968	0.005000	0.274680	-9.598138	-1.232102	-0.428978	0.103210	-0.373333	-0.018897	0.017215	-0.007591
659	3.306968	0.005000	0.268778	-9.630469	-1.249778	-0.428414	0.103549	-0.373333	-0.014840	0.015354	-0.010297
660	3.311968	0.005000	0.196200	-9.535320	-1.273113	-0.427849	0.103888	-0.373333	-0.003967	0.024257	-0.019803
661	3.316968	0.005000	0.238182	-9.475089	-1.237431	-0.427285	0.104227	-0.373333	-0.002391	0.014776	-0.012019
662	3.321968	0.005000	0.216169	-9.456840	-1.216440	-0.426808	0.104420	-0.373170	0.006199	0.018747	-0.003145
663	3.326968	0.005000	0.235440	-9.496958	-1.335038	-0.426582	0.104194	-0.372540	0.005104	0.027593	-0.018276
664	3.331968	0.005000	0.196200	-9.477676	-1.253248	-0.426356	0.103968	-0.371909	0.007794	0.012700	-0.014385
665	3.336968	0.005000	0.213581	-9.417600	-1.290443	-0.426130	0.103742	-0.371279	0.006843	0.027298	-0.000211
666	3.341968	0.005000	0.252002	-9.440278	-1.239118	-0.425904	0.103516	-0.370648	0.015087	0.018197	-0.015124
667	3.346968	0.005000	0.266469	-9.551137	-1.334160	-0.425678	0.103290	-0.370017	0.019362	0.014395	-0.001130
668	3.351968	0.005000	0.210994	-9.574560	-1.265331	-0.425452	0.103064	-0.369387	0.015417	0.017243	-0.018429
669	3.356968	0.005000	0.129086	-9.473348	-1.098720	-0.425226	0.102838	-0.368756	0.024877	0.016487	-0.002842
670	3.361968	0.005000	0.117720	-9.574560	-1.203221	-0.425001	0.102613	-0.368125	0.027982	0.009741	-0.003751
671	3.366968	0.005000	0.156960	-9.550145	-1.216440	-0.424775	0.102387	-0.367495	0.025494	0.019128	-0.010273
672	3.371968	0.005000	0.185015	-9.591430	-1.244495	-0.424549	0.102161	-0.366864	0.030078	0.013058	-0.005401
673	3.376968	0.005000	0.203558	-9.545947	-1.098720	-0.424323	0.101935	-0.366234	0.024176	0.016070	-0.012749
674	3.381968	0.005000	0.127325	-9.633831	-1.157169	-0.424097	0.101709	-0.365603	0.026333	0.016315	-0.005991
675	3.386968	0.005000	0.047822	-9.583142	-1.076645	-0.423886	0.101508	-0.365017	0.026848	0.009421	-0.011272
676	3.391968	0.005000	0.133052	-9.574560	-1.059480	-0.423999	0.101847	-0.365395	0.023197	0.002064	-0.012484
677	3.396968	0.005000	0.196200	-9.581578	-1.059480	-0.424112	0.102185	-0.365773	0.023368	0.007688	-0.018686
678	3.401968	0.005000	0.235440	-9.586550	-1.104715	-0.424225	0.102524	-0.366152	0.025153	-0.004730	-0.019468
679	3.406968	0.005000	0.201234	-9.716417	-1.132926	-0.424338	0.102863	-0.366530	0.022959	0.006335	-0.008865
680	3.411968	0.005000	0.113289	-9.613800	-1.094289	-0.424450	0.103202	-0.366908	0.009712	-0.002221	-0.012849
681	3.416968	0.005000	0.160368	-9.610392	-0.905928	-0.424563	0.103541	-0.367287	0.007246	0.000995	-0.008069
682	3.421968	0.005000	0.120106	-9.653040	-0.973843	-0.424676	0.103879	-0.367665	-0.002077	0.010908	-0.014285
683	3.426968	0.005000	0.155580	-9.578700	-0.941760	-0.424789	0.104218	-0.368044	-0.008851	-0.002714	-0.020499
684	3.431968	0.005000	0.155318	-9.614621	-0.825682	-0.424902	0.104557	-0.368422	-0.017468	-0.005192	-0.012188
685	3.436968	0.005000	0.156557	-9.692079	-0.980597	-0.425015	0.104896	-0.368800	-0.012489	0.001623	-0.015888
686	3.441968	0.005000	0.118944	-9.575784	-0.904968	-0.425128	0.105235	-0.369179	-0.009693	-0.001080	-0.002033
687	3.446968	0.005000	0.197982	-9.690498	-0.863280	-0.425241	0.105573	-0.369557	-0.012797	0.009726	-0.020898
688	3.451968	0.005000	0.156960	-9.580137	-0.863280	-0.425354	0.105912	-0.369936	-0.023852	0.006597	-0.020139
689	3.456968	0.005000	0.267907	-9.656426	-0.938374	-0.425560	0.105876	-0.370314	-0.010657	0.011010	-0.011588
690	3.461968	0.005000	0.274680	-9.648671	-0.915626	-0.425786	0.105763	-0.370692	-0.016715	0.008942	-0.021728
691	3.466968	0.005000	0.123111	-9.647649	-0.897129	-0.426012	0.105651	-0.371071	-0.024033	0.024101	-0.015087
692	3.471968	0.005000	0.156960	-9.580973	-0.935347	-0.426238	0.105538	-0.371449	-0.017135	0.016129	-0.022878
693	3.476968	0.005000	0.196200	-9.627711	-0.927849	-0.426464	0.105425	-0.371827	-0.024555	0.011032	-0.012498
694	3.481968	0.005000	0.172916	-9.551276	-0.996306	-0.426690	0.105312	-0.372206	-0.029019	0.020107	-0.024230
695	3.486968	0.005000	0.147959	-9.574560	-1.080719	-0.426916	0.105199	-0.372584	-0.022618	0.012047	-0.014204
696	3.491968	0.005000	0.147417	-9.653040	-1.048868	-0.427142	0.105086	-0.372963	-0.027195	0.015611	-0.020440
697	3.496968	0.005000	0.117720	-9.702845	-1.098720	-0.427368	0.104973	-0.373341	-0.030666	0.016673	-0.021134
698	3.501968	0.005000	0.196200	-9.653040	-1.186154	-0.427593	0.104860	-0.373719	-0.032877	0.007731	-0.009030
699	3.506968	0.005000	0.250120	-9.655440	-1.162520	-0.427819	0.104747	-0.374098	-0.037144	0.020620	-0.026195
700	3.511968	0.005000	0.248375	-9.614017	-1.137960	-0.428045	0.104634	-0.374476	-0.032595	0.018694	-0.020647
701	3.516968	0.005000	0.224549	-9.574560	-1.188091	-0.428271	0.104521	-0.374855	-0.035818	0.013184	-0.013518
702	3.521968	0.005000	0.189848	-9.637843	-1.177200	-0.428428	0.104548	-0.374689	-0.049953	0.019298	-0.021471
703	3.526968	0.005000	0.117720	-9.668795	-1.185225	-0.428541	0.104660	-0.374185	-0.044899	0.015564	-0.012066
704	3.531968	0.005000	0.196200	-9.731520	-1.154737	-0.428654	0.104773	-0.373680	-0.051749	0.027525	-0.017645
705	3.536968	0.005000	0.235440	-9.706393	-1.216440	-0.428767	0.104886	-0.373176	-0.052822	0.014625	-0.022310
706	3.541968	0.005000	0.198316	-9.630245	-1.100836	-0.428879	0.104999	-0.372671	-0.046013	0.016096	-0.010700
707	3.546968	0.005000	0.235440	-9.613800	-1.040116	-0.428992	0.105112	-0.372167	-0.046688	0.015999	-0.025220
708	3.551968	0.005000	0.293533	-9.616867	-1.178734	-0.429105	0.105225	-0.371662	-0.044327	0.022563	-0.013241
709	3.556968	0.005000	0.235440	-9.499659	-1.195031	-0.429218	0.105338	-0.371158	-0.039492	0.020603	-0.028159
710	3.561968	0.005000	0.178911	-9.535320	-1.137960	-0.429331	0.105451	-0.370653	-0.045739	0.034544	-0.027236
711	3.566968	0.005000	0.150252	-9.505638	-1.052772	-0.429444	0.105564	-0.370149	-0.042320	0.033421	-0.038494
712	3.571968	0.005000	0.211444	-9.535320	-1.201196	-0.429557	0.105677	-0.369644	-0.040995	0.019355	-0.017314
713	3.576968	0.005000	0.260459	-9.521099	-1.137960	-0.429670	0.105790	-0.369140	-0.035151	0.023778	-0.022835
714	3.581968	0.005000	0.168842	-9.588239	-1.255680	-0.429783	0.105902	-0.368635	-0.030849	0.031072	-0.020562
715	3.586968	0.005000	0.182273	-9.535320	-1.230367	-0.429851	0.105925	-0.368232	-0.022181	0.026182	-0.009206
716	3.591968	0.005000	0.223806	-9.500418	-1.244046	-0.429851	0.105812	-0.367980	-0.022719	0.034143	-0.022527
717	3.596968	0.005000	0.213954	-9.399846	-1.180933	-0.429851	0.105699	-0.367727	-0.024292	0.023362	-0.008001
718	3.601968	0.005000	0.186131	-9.506149	-1.333122	-0.429851	0.105586	-0.367475	-0.031231	0.030866	-0.017306
719	3.606968	0.005000	0.226393	-9.465887	-1.225487	-0.429851	0.105473	-0.367223	-0.036569	0.029980	-0.027078
720	3.611968	0.005000	0.219198	-9.496080	-1.357158	-0.429851	0.105360	-0.366971	-0.031591	0.024041	-0.011715
721	3.616968	0.005000	0.117720	-9.432534	-1.225812	-0.429851	0.105247	-0.366718	-0.037949	0.022590	-0.010026
722	3.621968	0.005000	0.202647	-9.581007	-1.170753	-0.429851	0.105134	-0.366466	-0.027601	0.018936	-0.005232
723	3.626968	0.005000	0.230002	-9.613800	-1.177200	-0.429851	0.105021	-0.366214	-0.031380	0.022105	-0.019100
724	3.631968	0.005000	0.201080	-9.505840	-1.182080	-0.429851	0.104908	-0.365962	-0.028061	0.025652	-0.018219
725	3.636968	0.005000	0.156960	-9.613800	-1.184915	-0.429851	0.104796	-0.365709	-0.016620	0.025753	-0.013030
726	3.641968	0.005000	0.156960	-9.532485	-1.255680	-0.429851	0.104683	-0.365457	-0.021311	0.026105	-0.008904
727	3.646968	0.005000	0.198493	-9.579145	-1.251095	-0.429851	0.104570	-0.365205	-0.023171	0.027971	-0.016222
728	3.651968	0.005000	0.196200	-9.573290	-1.216440	-0.429999	0.104266	-0.364716	-0.011166	0.030095	-0.013669
729	3.656968	0.005000	0.156960	-9.456840	-1.255432	-0.430790	0.103137	-0.363203	-0.001317	0.022217	0.000248
730	3.661968	0.005000	0.234844	-9.573666	-1.177498	-0.431580	0.102007	-0.361689	-0.008546	0.029311	-0.016827
731	3.666968	0.005000	0.274680	-9.424184	-1.139277	-0.432371	0.100878	-0.360176	-0.006618	0.024644	-0.025836
732	3.671968	0.005000	0.198539	-9.572221	-1.140299	-0.433162	0.099748	-0.358662	-0.003551	0.030923	-0.014591
733	3.676968	0.005000	0.238802	-9.574560	-1.216440	-0.433952	0.098619	-0.357149	0.002522	0.029429	-0.017536
734	3.681968	0.005000	0.235440	-9.605989	-1.255680	-0.434743	0.097489	-0.355635	0.011514	0.015466	-0.007330
735	3.686968	0.005000	0.230514	-9.540246	-1.187053	-0.435534	0.096360	-0.354122	0.008825	0.021418	-0.018012
736	3.691968	0.005000	0.196200	-9.569010	-1.210890	-0.436324	0.095230	-0.352608	0.004517	0.014307	-0.014307
737	3.696968	0.005000	0.196200	-9.548333	-1.288414	-0.437115	0.094100	-0.351095	0.008400	0.011446	-0.011729
738	3.701968	0.005000	0.164489	-9.479427	-1.121307	-0.437906	0.092971	-0.349581	-0.006735	0.019272	-0.020903
739	3.706968	0.005000	0.140618	-9.518978	-1.169029	-0.438696	0.091841	-0.348068	0.001119	0.007560	-0.008106
740	3.711968	0.005000	0.126814	-9.586519	-1.207346	-0.439487	0.090712	-0.346554	0.008102	0.004026	-0.000133
741	3.716968	0.005000	0.177192	-9.603684	-1.187316	-0.440278	0.089582	-0.345041	0.010072	0.005650	-0.000297
742	3.721968	0.005000	0.156960	-9.506870	-1.319449	-0.440299	0.089662	-0.345614	0.001862	-0.002050	-0.010285
743	3.726968	0.005000	0.145279	-9.574560	-1.255680	-0.440299	0.089775	-0.346244	-0.006972	0.002310	-0.010474
744	3.731968	0.005000	0.183497	-9.508783	-1.241846	-0.440299	0.089888	-0.346875	-0.000957	0.006571	-0.009204
745	3.736968	0.005000	0.249165	-9.496080	-1.216440	-0.440299	0.090001	-0.347506	0.006865	0.000878	-0.013977
746	3.741968	0.005000	0.274680	-9.610237	-1.212877	-0.440299	0.090114	-0.348136	0.008376	-0.002152	-0.013682
747	3.746968	0.005000	0.266020	-9.676990	-1.247020	-0.440299	0.090227	-0.348767	0.004571	0.001815	-0.022094
748	3.751968	0.005000	0.235440	-9.590598	-1.177200	-0.440299	0.090340	-0.349397	0.012396	-0.005851	-0.010974
749	3.756968	0.005000	0.252310	-9.512950	-1.093221	-0.440299	0.090453	-0.350028	0.013300	-0.005662	-0.010506
750	3.761968	0.005000	0.217547	-9.496080	-1.123522	-0.440299	0.090566	-0.350659	0.013050	0.002834	-0.011257
751	3.766968	0.005000	0.256017	-9.514743	-1.156623	-0.440299	0.090679	-0.351289	0.025504	-0.000775	-0.003900
752	3.771968	0.005000	0.215657	-9.574560	-1.137960	-0.440299	0.090792	-0.351920	0.007276	0.009342	-0.021684
753	3.776968	0.005000	0.216680	-9.593320	-1.155001	-0.440299	0.090905	-0.352550	0.018916	0.005213	-0.008091
754	3.781968	0.005000	0.174698	-9.492316	-1.177200	-0.440299	0.091018	-0.353181	0.018752	0.018020	-0.013876
755	3.786968	0.005000	0.179004	-9.535320	-1.155156	-0.439956	0.091731	-0.353907	0.012931	0.006464	-0.010862
756	3.791968	0.005000	0.219267	-9.606906	-1.167921	-0.439505	0.092634	-0.354664	0.018924	0.006975	0.000133
757	3.796968	0.005000	0.220289	-9.613800	-1.162049	-0.439053	0.093537	-0.355420	0.015143	0.009174	-0.011784
758	3.801968	0.005000	0.196200	-9.564537	-1.020240	-0.438601	0.094440	-0.356176	0.001339	0.012345	-0.013128
759	3.806968	0.005000	0.208268	-9.651522	-0.994586	-0.438150	0.095343	-0.356933	0.002333	0.009649	-0.007826
760	3.811968	0.005000	0.208764	-9.665604	-0.968436	-0.437698	0.096246	-0.357689	0.009384	0.001319	-0.006778
761	3.816968	0.005000	0.168501	-9.653040	-1.054864	-0.437246	0.097149	-0.358446	0.017104	0.012710	-0.003084
762	3.821968	0.005000	0.218167	-9.653040	-1.087737	-0.436795	0.098053	-0.359202	0.011593	0.011220	-0.009452
763	3.826968	0.005000	0.225463	-9.583870	-1.049503	-0.436343	0.098956	-0.359958	0.001141	0.015729	-0.006418
764	3.831968	0.005000	0.165914	-9.574560	-1.038148	-0.435891	0.099859	-0.360715	-0.000213	0.026573	-0.016285
765	3.836968	0.005000	0.274680	-9.644644	-1.020240	-0.435440	0.100762	-0.361471	-0.002610	0.018780	-0.008635
766	3.841968	0.005000	0.203574	-9.645666	-1.091346	-0.434988	0.101665	-0.362228	-0.004819	0.018828	-0.006594
767	3.846968	0.005000	0.156960	-9.593615	-1.032943	-0.434536	0.102568	-0.362984	-0.003922	0.012831	-0.006674
768	3.851968	0.005000	0.168579	-9.607991	-1.126341	-0.434389	0.102924	-0.363809	0.003632	0.017629	0.002149
769	3.856968	0.005000	0.196200	-9.569773	-1.069054	-0.434502	0.102811	-0.364692	-0.015803	0.024907	-0.016680
770	3.861968	0.005000	0.231676	-9.653040	-1.012711	-0.434615	0.102698	-0.365575	-0.011302	0.023980	-0.014921
771	3.866968	0.005000	0.196200	-9.728744	-1.059480	-0.434728	0.102585	-0.366458	-0.010268	0.023802	-0.012053
772	3.871968	0.005000	0.198400	-9.616000	-1.135760	-0.434841	0.102473	-0.367340	-0.019083	0.024730	-0.024758
773	3.876968	0.005000	0.158137	-9.689925	-1.136783	-0.434954	0.102360	-0.368223	-0.007357	0.025024	-0.006265
774	3.881968	0.005000	0.197470	-9.573925	-1.099355	-0.435067	0.102247	-0.369106	-0.014008	0.031515	-0.013354
775	3.886968	0.005000	0.196975	-9.535320	-1.099107	-0.435180	0.102134	-0.369989	-0.012118	0.026416	-0.012812
776	3.891968	0.005000	0.158370	-9.651630	-1.136550	-0.435293	0.102021	-0.370872	-0.017029	0.031861	-0.013525
777	3.896968	0.005000	0.119711	-9.617782	-1.177200	-0.435406	0.101908	-0.371755	-0.017503	0.021415	-0.008587
778	3.901968	0.005000	0.156960	-9.574560	-1.134970	-0.435519	0.101795	-0.372638	-0.023789	0.032007	-0.015002
779	3.906968	0.005000	0.156960	-9.609788	-1.106745	-0.435632	0.101682	-0.373521	-0.021252	0.028725	-0.014045
780	3.911968	0.005000	0.083035	-9.535320	-1.168091	-0.435745	0.101569	-0.374404	-0.023737	0.027445	-0.009491
781	3.916968	0.005000	0.123297	-9.563406	-1.323006	-0.435601	0.101603	-0.375041	-0.028428	0.030149	-0.021178
782	3.921968	0.005000	0.170159	-9.502679	-1.229639	-0.434923	0.101942	-0.375167	-0.023513	0.022411	-0.005093
783	3.926968	0.005000	0.252990	-9.417600	-1.184430	-0.434246	0.102281	-0.375293	-0.033897	0.028809	-0.020823
784	3.931968	0.005000	0.274680	-9.502664	-1.154288	-0.433568	0.102619	-0.375419	-0.031996	0.018936	-0.021078
785	3.936968	0.005000	0.235440	-9.505266	-1.119587	-0.432890	0.102958	-0.375546	-0.025656	0.027336	-0.002560
786	3.941968	0.005000	0.196200	-9.653040	-1.030089	-0.432212	0.103297	-0.375672	-0.024051	0.025516	-0.006179
787	3.946968	0.005000	0.185449	-9.635302	-1.223427	-0.431535	0.103636	-0.375798	-0.026779	0.018443	-0.000601
788	3.951968	0.005000	0.156960	-9.547094	-1.216440	-0.430857	0.103975	-0.375924	-0.022936	0.024612	-0.009461
789	3.956968	0.005000	0.223109	-9.508411	-1.268011	-0.430179	0.104313	-0.376050	-0.021401	0.032546	-0.025297
790	3.961968	0.005000	0.222086	-9.600446	-1.281566	-0.429502	0.104652	-0.376176	-0.014002	0.029255	-0.027671
791	3.966968	0.005000	0.221064	-9.588936	-1.220328	-0.428824	0.104991	-0.376302	-0.016975	0.030121	-0.015634
792	3.971968	0.005000	0.117720	-9.550238	-1.167797	-0.428146	0.105330	-0.376429	-0.002526	0.023925	-0.008173
793	3.976968	0.005000	0.141019	-9.542678	-1.161259	-0.427469	0.105669	-0.376555	-0.007111	0.028854	-0.012537
794	3.981968	0.005000	0.179237	-9.630763	-1.182514	-0.426941	0.105982	-0.376667	-0.008428	0.016842	-0.011373
795	3.986968	0.005000	0.239669	-9.570331	-1.229716	-0.427618	0.106095	-0.376667	-0.006130	0.027718	-0.018839
796	3.991968	0.005000	0.154776	-9.615984	-1.179384	-0.428296	0.106208	-0.376667	0.001755	0.016992	-0.012855
797	3.996968	0.005000	0.117859	-9.554870	-1.157510	-0.428973	0.106321	-0.376667	-0.000291	0.020001	-0.012148
798	4.001968	0.005000	0.156960	-9.476932	-1.118812	-0.429650	0.106434	-0.376667	-0.006533	0.025230	-0.023052
799	4.006968	0.005000	0.156960	-9.592685	-1.201305	-0.430328	0.106547	-0.376667	0.002401	0.006067	-0.006978
800	4.011968	0.005000	0.218132	-9.548003	-1.167950	-0.431005	0.106660	-0.376667	-0.008278	0.008894	-0.010168
801	4.016968	0.005000	0.202350	-9.558015	-1.255680	-0.431683	0.106773	-0.376667	-0.016783	0.003797	-0.009023
802	4.021968	0.005000	0.117720	-9.559038	-1.146155	-0.432360	0.106886	-0.376667	-0.011809	0.007016	-0.007016
803	4.026968	0.005000	0.274680	-9.613800	-1.137960	-0.433037	0.106999	-0.376667	-0.007173	0.012096	-0.007322
804	4.031968	0.005000	0.196200	-9.599842	-1.073438	-0.433715	0.107112	-0.376667	0.000682	0.003691	0.001130
805	4.036968	0.005000	0.182831	-9.600431	-1.112089	-0.434392	0.107225	-0.376667	-0.009559	0.009803	-0.016968
806	4.041968	0.005000	0.172374	-9.613800	-1.114134	-0.435069	0.107338	-0.376667	-0.001424	0.006421	-0.005970
807	4.046968	0.005000	0.140462	-9.664411	-1.008869	-0.435747	0.107451	-0.376667	-0.002656	0.006688	-0.016429
808	4.051968	0.005000	0.225092	-9.624148	-1.109068	-0.435620	0.106658	-0.376555	-0.002306	0.000274	-0.013377
809	4.056968	0.005000	0.235440	-9.692280	-0.981000	-0.435394	0.105755	-0.376429	-0.005738	0.008764	-0.012669
810	4.061968	0.005000	0.196200	-9.653040	-0.968111	-0.435168	0.104851	-0.376302	-0.007893	0.014420	-0.018787
811	4.066968	0.005000	0.196200	-9.653040	-1.051719	-0.434942	0.103947	-0.376176	-0.000916	0.003275	-0.009270
812	4.071968	0.005000	0.274680	-9.613800	-1.052741	-0.434716	0.103044	-0.376050	-0.006904	0.010286	-0.015446
813	4.076968	0.005000	0.274680	-9.574560	-1.144141	-0.434490	0.102140	-0.375924	-0.003339	0.006234	-0.018374
814	4.081968	0.005000	0.235440	-9.608639	-1.127639	-0.434264	0.101236	-0.375798	-0.004962	0.011744	-0.005312
815	4.086968	0.005000	0.227137	-9.683977	-1.011937	-0.434039	0.100333	-0.375672	-0.002526	0.019097	-0.016923
816	4.091968	0.005000	0.189012	-9.649446	-0.941760	-0.433813	0.099429	-0.375545	0.007707	0.008239	-0.004534
817	4.096968	0.005000	0.120292	-9.498652	-0.991286	-0.433587	0.098525	-0.375419	-0.004930	0.013037	-0.017239
818	4.101968	0.005000	0.158509	-9.533771	-1.023338	-0.433361	0.097622	-0.375293	-0.004820	0.011837	-0.006972
819	4.106968	0.005000	0.197207	-9.574560	-1.100734	-0.433135	0.096718	-0.375167	0.014654	0.008257	-0.010066
820	4.111968	0.005000	0.117766	-9.535335	-1.216425	-0.432909	0.095814	-0.375041	0.004510	0.016752	-0.003340
821	4.116968	0.005000	0.194124	-9.649926	-1.179276	-0.432683	0.096210	-0.375171	0.006769	0.019242	-0.003641
822	4.121968	0.005000	0.155360	-9.574560	-1.139560	-0.432457	0.097226	-0.375423	-0.002855	0.023649	-0.008387
823	4.126968	0.005000	0.311317	-9.577163	-1.028048	-0.432231	0.098243	-0.375675	0.003643	0.018763	-0.009817
824	4.131968	0.005000	0.231815	-9.692280	-1.173575	-0.432006	0.099259	-0.375927	-0.001443	0.021680	-0.014724
825	4.136968	0.005000	0.161193	-9.609567	-1.325694	-0.431780	0.100276	-0.376180	0.003396	0.015649	-0.010998
826	4.141968	0.005000	0.225057	-9.647848	-1.294920	-0.431554	0.101292	-0.376432	-0.006825	0.021157	-0.010118
827	4.146968	0.005000	0.229228	-9.586984	-1.255680	-0.431328	0.102309	-0.376684	-0.004938	0.022911	-0.011217
828	4.151968	0.005000	0.092949	-9.613800	-1.241211	-0.431102	0.103326	-0.376936	0.002013	0.016759	-0.004085
829	4.156968	0.005000	0.134041	-9.653040	-1.209841	-0.430876	0.104342	-0.377188	-0.000332	0.028594	-0.020600
830	4.161968	0.005000	0.156960	-9.622615	-1.059480	-0.430650	0.105359	-0.377441	0.012176	0.013062	-0.007897
831	4.166968	0.005000	0.166797	-9.633366	-1.079154	-0.430424	0.106375	-0.377693	0.012920	0.018863	-0.014504
832	4.171968	0.005000	0.138727	-9.556327	-1.106449	-0.430198	0.107392	-0.377945	0.004440	0.016548	-0.016860
833	4.176968	0.005000	0.067078	-9.590996	-1.132925	-0.429972	0.108408	-0.378197	0.001833	0.007818	-0.007911
834	4.181968	0.005000	0.196200	-9.626224	-1.007816	-0.429694	0.108955	-0.378216	-0.010669	0.012571	-0.011652
835	4.186968	0.005000	0.170087	-9.679153	-1.020381	-0.429355	0.108955	-0.377964	-0.013852	0.004155	-0.013454
836	4.191968	0.005000	0.184938	-9.655767	-1.020240	-0.429017	0.108955	-0.377712	-0.012729	0.009881	-0.014973
837	4.196968	0.005000	0.181189	-9.653040	-1.038675	-0.428678	0.108955	-0.377460	-0.013760	0.007041	-0.018695
838	4.201968	0.005000	0.298174	-9.637294	-1.114466	-0.428339	0.108955	-0.377208	-0.017522	0.005658	-0.020631
839	4.206968	0.005000	0.245928	-9.619888	-1.144048	-0.428000	0.108955	-0.376955	-0.024869	-0.001759	-0.013705
840	4.211968	0.005000	0.192157	-9.627355	-1.212397	-0.427661	0.108955	-0.376703	-0.023181	-0.000316	-0.013566
841	4.216968	0.005000	0.078480	-9.653040	-1.139958	-0.427322	0.108955	-0.376451	-0.013268	0.003219	-0.028068
842	4.221968	0.005000	0.137317	-9.594203	-1.157603	-0.426983	0.108955	-0.376199	-0.016591	0.001523	-0.015251
843	4.226968	0.005000	0.118867	-9.593607	-1.021387	-0.426644	0.108955	-0.375946	-0.030554	0.000683	-0.014358
844	4.231968	0.005000	0.096512	-9.574560	-1.098720	-0.426306	0.108955	-0.375694	-0.017033	-0.005864	-0.025067
845	4.236968	0.005000	0.134730	-9.574560	-1.149749	-0.425967	0.108955	-0.375442	-0.028941	-0.001769	-0.005499
846	4.241968	0.005000	0.156960	-9.574560	-1.199988	-0.425628	0.108955	-0.375190	-0.036013	0.001189	-0.017601
847	4.246968	0.005000	0.172390	-9.668470	-1.122530	-0.425401	0.108955	-0.374875	-0.017962	0.002078	-0.008184
848	4.251968	0.005000	0.274680	-9.649059	-1.109146	-0.425514	0.108955	-0.374370	-0.028835	0.002828	-0.017360
849	4.256968	0.005000	0.235440	-9.548871	-1.032379	-0.425627	0.108955	-0.373866	-0.032733	0.006344	-0.013330
850	4.261968	0.005000	0.221252	-9.638852	-1.059480	-0.425740	0.108955	-0.373361	-0.022794	0.009093	-0.010003
851	4.266968	0.005000	0.313920	-9.653040	-1.086900	-0.425853	0.108955	-0.372857	-0.015325	0.014997	-0.022026
852	4.271968	0.005000	0.263882	-9.663838	-1.048682	-0.425966	0.108955	-0.372352	-0.017875	0.002433	-0.010846
853	4.276968	0.005000	0.196200	-9.651258	-0.991255	-0.426079	0.108955	-0.371848	-0.024640	0.013978	-0.010065
854	4.281968	0.005000	0.196200	-9.683047	-1.119494	-0.426192	0.108955	-0.371343	-0.028919	0.007100	-0.018981
855	4.286968	0.005000	0.109509	-9.669461	-1.020240	-0.426305	0.108955	-0.370839	-0.024793	0.012627	-0.015966
856	4.291968	0.005000	0.078480	-9.653040	-1.059480	-0.426418	0.108955	-0.370334	-0.018300	0.012453	-0.026206
857	4.296968	0.005000	0.144303	-9.593862	-0.987646	-0.426531	0.108955	-0.369829	-0.009545	0.014021	-0.016003
858	4.301968	0.005000	0.268989	-9.523938	-1.137960	-0.426644	0.108955	-0.369325	-0.013095	0.019757	-0.015061
859	4.306968	0.005000	0.235440	-9.545451	-1.240483	-0.426757	0.108955	-0.368820	-0.018281	0.018846	0.002338
860	4.311968	0.005000	0.078480	-9.543407	-1.177200	-0.426862	0.108951	-0.368354	-0.016256	0.022839	-0.022942
861	4.316968	0.005000	0.123793	-9.610764	-1.144033	-0.426749	0.108838	-0.368985	-0.013940	0.017365	-0.018355
862	4.321968	0.005000	0.235440	-9.653040	-1.101199	-0.426636	0.108725	-0.369616	-0.016362	0.024928	-0.015737
863	4.326968	0.005000	0.233984	-9.653040	-1.177200	-0.426523	0.108612	-0.370246	-0.016088	0.027790	-0.022781
864	4.331968	0.005000	0.235874	-9.612932	-1.176332	-0.426410	0.108500	-0.370877	-0.010664	0.020808	-0.011833
865	4.336968	0.005000	0.313810	-9.574450	-1.176980	-0.426297	0.108387	-0.371508	-0.023473	0.033156	-0.023287
866	4.341968	0.005000	0.236571	-9.497211	-1.136829	-0.426184	0.108274	-0.372139	-0.026176	0.020189	-0.015791
867	4.346968	0.005000	0.276833	-9.572407	-1.175047	-0.426071	0.108161	-0.372769	-0.019073	0.018664	-0.020022
868	4.351968	0.005000	0.123178	-9.538049	-1.208253	-0.425958	0.108048	-0.373400	-0.031539	0.023688	-0.025238
869	4.356968	0.005000	0.121438	-9.535320	-1.255680	-0.425845	0.107935	-0.374031	-0.026821	0.018861	-0.019910
870	4.361968	0.005000	0.196200	-9.565079	-1.133220	-0.425732	0.107822	-0.374661	-0.030272	0.026263	-0.030830
871	4.366968	0.005000	0.156960	-9.501442	-1.177200	-0.425619	0.107709	-0.375292	-0.030089	0.017250	-0.022997
872	4.371968	0.005000	0.268372	-9.574560	-1.210132	-0.425506	0.107596	-0.375923	-0.023613	0.020558	-0.019633
873	4.376968	0.005000	0.282007	-9.613800	-1.130633	-0.425393	0.107483	-0.376553	-0.019468	0.011840	-0.025831
874	4.381968	0.005000	0.235440	-9.574560	-1.176542	-0.425743	0.107278	-0.376357	-0.021145	0.017629	-0.013682
875	4.386968	0.005000	0.253255	-9.535320	-1.125443	-0.426195	0.107052	-0.375978	-0.022013	0.025679	-0.016936
876	4.391968	0.005000	0.245370	-9.603870	-1.118580	-0.426647	0.106826	-0.375600	-0.020813	0.008258	-0.014874
877	4.396968	0.005000	0.196200	-9.632095	-1.117015	-0.427099	0.106600	-0.375222	-0.025483	0.019819	-0.019838
878	4.401968	0.005000	0.207695	-9.597549	-1.193451	-0.427551	0.106374	-0.374843	-0.017629	0.009847	-0.014366
879	4.406968	0.005000	0.169477	-9.601283	-1.255680	-0.428002	0.106148	-0.374465	-0.024924	0.014760	-0.012222
880	4.411968	0.005000	0.222381	-9.600741	-1.255680	-0.428454	0.105922	-0.374086	-0.025958	0.015561	-0.031842
881	4.416968	0.005000	0.221358	-9.638958	-1.126884	-0.428906	0.105697	-0.373708	-0.024662	0.010347	-0.017627
882	4.421968	0.005000	0.156960	-9.662072	-1.168168	-0.429358	0.105471	-0.373330	-0.021922	0.027131	-0.023310
883	4.426968	0.005000	0.140833	-9.669167	-1.068620	-0.429810	0.105245	-0.372951	-0.026644	0.014382	-0.007036
884	4.431968	0.005000	0.196200	-9.613800	-1.199771	-0.430261	0.105019	-0.372573	-0.021715	0.006547	-0.009597
885	4.436968	0.005000	0.143126	-9.553011	-1.155651	-0.430713	0.104793	-0.372195	-0.032797	0.010158	-0.014859
886	4.441968	0.005000	0.233627	-9.613800	-1.095095	-0.431165	0.104567	-0.371816	-0.028055	0.011263	-0.009035
887	4.446968	0.005000	0.254942	-9.653040	-1.176965	-0.431138	0.104683	-0.371514	-0.020316	0.010512	-0.019077
888	4.451968	0.005000	0.156960	-9.593506	-1.216440	-0.430799	0.105022	-0.371262	-0.021967	0.012870	-0.018835
889	4.456968	0.005000	0.232047	-9.610407	-1.198516	-0.430460	0.105361	-0.371010	-0.024247	0.008434	-0.018195
890	4.461968	0.005000	0.213117	-9.596883	-1.334160	-0.430121	0.105700	-0.370757	-0.024268	0.011122	-0.021893
891	4.466968	0.005000	0.173319	-9.613800	-1.229484	-0.429783	0.106038	-0.370505	-0.026878	0.011601	-0.013744
892	4.471968	0.005000	0.220103	-9.637703	-1.168633	-0.429444	0.106377	-0.370253	-0.022162	0.014258	-0.008693
893	4.476968	0.005000	0.221126	-9.563948	-1.216440	-0.429105	0.106716	-0.370000	-0.026838	0.012074	-0.019947
894	4.481968	0.005000	0.196200	-9.600028	-1.255680	-0.428766	0.107055	-0.369748	-0.017529	0.022055	-0.026603
895	4.486968	0.005000	0.222690	-9.509821	-1.229190	-0.428427	0.107394	-0.369496	-0.021936	0.011411	-0.005333
896	4.491968	0.005000	0.145233	-9.492021	-1.177200	-0.428089	0.107732	-0.369243	-0.010284	0.027008	-0.018307
897	4.496968	0.005000	0.156960	-9.602615	-1.278050	-0.427750	0.108071	-0.368991	-0.014064	0.025619	-0.020680
898	4.501968	0.005000	0.196200	-9.603638	-1.235355	-0.427411	0.108410	-0.368739	-0.004057	0.009985	-0.008368
899	4.506968	0.005000	0.187060	-9.535320	-1.198160	-0.427072	0.108749	-0.368487	-0.015132	0.019422	-0.022631
900	4.511968	0.005000	0.156960	-9.504662	-1.242187	-0.426866	0.108778	-0.368432	-0.002933	0.015497	-0.008421
901	4.516968	0.005000	0.267105	-9.503655	-1.303859	-0.426866	0.108326	-0.368684	0.006482	0.027605	-0.014539
902	4.521968	0.005000	0.281233	-9.541873	-1.177200	-0.426866	0.107874	-0.368936	0.002840	0.020427	-0.019151
903	4.526968	0.005000	0.274680	-9.580555	-1.183195	-0.426866	0.107423	-0.369189	0.003349	0.013860	-0.016383
904	4.531968	0.005000	0.269707	-9.648067	-1.206494	-0.426866	0.106971	-0.369441	0.002568	0.021961	-0.017324
905	4.536968	0.005000	0.200199	-9.539319	-1.169201	-0.426866	0.106519	-0.369693	-0.000776	0.016871	-0.012777
906	4.541968	0.005000	0.238848	-9.456840	-1.219848	-0.426866	0.106067	-0.369946	0.001019	0.014853	-0.009173
907	4.546968	0.005000	0.196200	-9.532934	-1.179586	-0.426866	0.105616	-0.370198	0.007924	0.013088	-0.009388
908	4.551968	0.005000	0.196200	-9.574560	-1.213680	-0.426866	0.105164	-0.370450	-0.002744	0.023819	-0.010683
909	4.556968	0.005000	0.194558	-9.691459	-1.137139	-0.426866	0.104712	-0.370703	0.006193	0.013114	-0.010892
910	4.561968	0.005000	0.117720	-9.574963	-1.176797	-0.426866	0.104260	-0.370955	0.001922	0.021137	-0.006206
911	4.566968	0.005000	0.077256	-9.536544	-1.294920	-0.426866	0.103808	-0.371207	0.000505	0.018971	-0.018432
912	4.571968	0.005000	0.123065	-9.572778	-1.178982	-0.426866	0.103357	-0.371460	0.004055	0.007208	-0.008017
913	4.576968	0.005000	0.232652	-9.577348	-1.213652	-0.426926	0.103025	-0.371712	-0.009650	0.021566	-0.014813
914	4.581968	0.005000	0.278491	-9.613800	-1.220251	-0.427265	0.103251	-0.371964	-0.003989	0.015273	-0.024807
915	4.586968	0.005000	0.200569	-9.613800	-1.142329	-0.427604	0.103477	-0.372216	-0.001486	0.020799	-0.013118
916	4.591968	0.005000	0.190809	-9.608409	-1.109502	-0.427943	0.103703	-0.372468	-0.002713	0.018609	-0.015598
917	4.596968	0.005000	0.123727	-9.541327	-1.137960	-0.428281	0.103929	-0.372721	-0.000913	0.012873	-0.004933
918	4.601968	0.005000	0.143049	-9.639129	-1.137960	-0.428620	0.104155	-0.372973	0.006720	0.014555	-0.006126
919	4.606968	0.005000	0.180244	-9.621778	-1.098720	-0.428959	0.104380	-0.373225	-0.001370	0.011447	-0.003621
920	4.611968	0.005000	0.156960	-9.683279	-1.137960	-0.429298	0.104606	-0.373477	0.008851	0.013354	-0.008829
921	4.616968	0.005000	0.186657	-9.584103	-1.177200	-0.429637	0.104832	-0.373730	0.003971	0.014383	-0.008468
922	4.621968	0.005000	0.224875	-9.681715	-1.137960	-0.429975	0.105058	-0.373982	0.002642	0.016530	-0.013834
923	4.626968	0.005000	0.212265	-9.680692	-1.142437	-0.430314	0.105284	-0.374234	0.004648	0.016381	-0.017573
924	4.631968	0.005000	0.211171	-9.640905	-1.122989	-0.430653	0.105510	-0.374486	0.000305	0.010219	-0.010664
925	4.636968	0.005000	0.261528	-9.613800	-1.111872	-0.430992	0.105736	-0.374739	-0.011683	0.023327	-0.021753
926	4.641968	0.005000	0.171135	-9.585451	-1.152135	-0.431331	0.105962	-0.374991	-0.002212	0.016536	-0.020453
927	4.646968	0.005000	0.220708	-9.604025	-1.240948	-0.431125	0.106079	-0.375000	-0.015789	0.020269	-0.018136
928	4.651968	0.005000	0.188470	-9.637285	-1.177200	-0.430899	0.106192	-0.375000	-0.014264	0.022010	-0.022024
929	4.656968	0.005000	0.224348	-9.613800	-1.177200	-0.430674	0.106305	-0.375000	-0.004302	0.014939	-0.005311
930	4.661968	0.005000	0.235440	-9.638927	-1.095049	-0.430448	0.106418	-0.375000	-0.008526	0.023708	-0.008723
931	4.666968	0.005000	0.295578	-9.694836	-1.122174	-0.430222	0.106531	-0.375000	-0.006087	0.009847	-0.014295
932	4.671968	0.005000	0.294044	-9.613289	-1.098720	-0.429996	0.106644	-0.375000	-0.007797	0.015490	-0.001349
933	4.676968	0.005000	0.295067	-9.615334	-1.137960	-0.429770	0.106757	-0.375000	-0.015677	0.018005	-0.017147
934	4.681968	0.005000	0.178148	-9.649903	-1.119908	-0.429544	0.106870	-0.375000	-0.003783	0.007474	-0.009485
935	4.686968	0.005000	0.139671	-9.579223	-1.142623	-0.429318	0.106983	-0.375000	-0.007164	0.012336	-0.015811
936	4.691968	0.005000	0.219174	-9.512346	-1.052772	-0.429092	0.107096	-0.375000	-0.005843	0.010896	-0.022912
937	4.696968	0.005000	0.227065	-9.550753	-1.192633	-0.428866	0.107209	-0.375000	-0.007218	0.012876	-0.013039
938	4.701968	0.005000	0.235440	-9.574560	-1.128123	-0.428641	0.107322	-0.375000	-0.012266	0.007795	-0.012034
939	4.706968	0.005000	0.184318	-9.613800	-1.124281	-0.428415	0.107435	-0.375000	-0.009333	0.016188	-0.007176
940	4.711968	0.005000	0.235440	-9.588487	-1.099990	-0.429542	0.106786	-0.373394	-0.014178	0.011657	-0.011067
941	4.716968	0.005000	0.262902	-9.586338	-1.059480	-0.431123	0.105883	-0.371251	-0.012514	0.009594	-0.011924
942	4.721968	0.005000	0.213256	-9.664132	-1.126868	-0.432704	0.104980	-0.369108	-0.012630	0.024615	-0.024327
943	4.726968	0.005000	0.216339	-9.653040	-1.059480	-0.434284	0.104076	-0.366965	-0.015119	0.012444	-0.006716
944	4.731968	0.005000	0.304873	-9.613800	-0.950807	-0.435865	0.103173	-0.364821	-0.018559	0.017834	-0.018353
945	4.736968	0.005000	0.297678	-9.574560	-1.036482	-0.437445	0.102270	-0.362678	-0.008994	0.004035	-0.021761
946	4.741968	0.005000	0.257841	-9.567093	-1.037079	-0.439026	0.101367	-0.360535	-0.009409	0.012345	-0.010376
947	4.746968	0.005000	0.268233	-9.541767	-1.098720	-0.440607	0.100464	-0.358392	-0.014749	0.023213	-0.017257
948	4.751968	0.005000	0.269242	-9.585435	-1.177200	-0.442187	0.099560	-0.356249	-0.009824	0.007508	-0.014554
949	4.756968	0.005000	0.196200	-9.609332	-1.172732	-0.443768	0.098657	-0.354106	-0.009207	0.013257	-0.017090
950	4.761968	0.005000	0.239297	-9.609943	-1.134103	-0.445348	0.097754	-0.351963	-0.005211	0.020190	-0.019480
951	4.766968	0.005000	0.271845	-9.574560	-1.135125	-0.446929	0.096851	-0.349820	-0.009401	0.013958	-0.007232
952	4.771968	0.005000	0.154667	-9.576853	-1.133375	-0.448510	0.095947	-0.347676	-0.012480	0.012565	-0.018185
953	4.776968	0.005000	0.077210	-9.535320	-1.056939	-0.448477	0.095582	-0.347267	-0.016963	0.008907	-0.009146
954	4.781968	0.005000	0.156712	-9.575056	-1.098968	-0.447009	0.095695	-0.348403	-0.013670	0.010677	-0.023274
955	4.786968	0.005000	0.156662	-9.653040	-1.060076	-0.445541	0.095808	-0.349538	-0.013904	0.015266	-0.013616
956	4.791968	0.005000	0.196200	-9.494763	-1.097403	-0.444072	0.095921	-0.350673	-0.021755	0.014889	-0.011851
957	4.796968	0.005000	0.233101	-9.532981	-1.135621	-0.442604	0.096034	-0.351808	-0.013728	0.009897	-0.013010
958	4.801968	0.005000	0.232118	-9.613800	-1.102042	-0.441135	0.096147	-0.352943	-0.029151	0.023724	-0.017410
959	4.806968	0.005000	0.200105	-9.609895	-1.098720	-0.439667	0.096260	-0.354078	-0.023753	0.018858	-0.026833
960	4.811968	0.005000	0.196200	-9.599021	-1.142886	-0.438199	0.096373	-0.355214	-0.014778	0.010736	-0.006866
961	4.816968	0.005000	0.207299	-9.529770	-1.104270	-0.436730	0.096486	-0.356349	-0.022049	0.018372	-0.012809
962	4.821968	0.005000	0.261667	-9.607294	-1.137960	-0.435262	0.096599	-0.357484	-0.023288	0.016280	-0.020442
963	4.826968	0.005000	0.235440	-9.613800	-1.074538	-0.433794	0.096712	-0.358619	-0.025555	0.019634	-0.006178
964	4.831968	0.005000	0.235440	-9.582731	-1.270407	-0.432325	0.096825	-0.359754	-0.037944	0.019317	-0.015571
965	4.836968	0.005000	0.235440	-9.526226	-1.207346	-0.430857	0.096938	-0.360889	-0.032992	0.006069	0.001885
966	4.841968	0.005000	0.156960	-9.584676	-1.294920	-0.429993	0.097193	-0.361707	-0.039164	0.019316	-0.011172
967	4.846968	0.005000	0.174620	-9.603010	-1.205650	-0.430445	0.097758	-0.361833	-0.029865	0.020330	-0.009376
968	4.851968	0.005000	0.274680	-9.531122	-1.177200	-0.430897	0.098322	-0.361959	-0.015119	0.011278	-0.005559
969	4.856968	0.005000	0.248143	-9.417600	-1.229143	-0.431349	0.098887	-0.362085	-0.019730	0.012705	-0.013801
970	4.861968	0.005000	0.169381	-9.509489	-1.242271	-0.431800	0.099452	-0.362211	-0.017512	0.010191	-0.000266
971	4.866968	0.005000	0.249708	-9.588828	-1.177200	-0.432252	0.100017	-0.362337	-0.024240	0.017824	-0.023490
972	4.871968	0.005000	0.298630	-9.637750	-1.255680	-0.432704	0.100582	-0.362463	-0.029863	0.008755	-0.008257
973	4.876968	0.005000	0.220351	-9.653040	-1.130416	-0.433156	0.101146	-0.362589	-0.033120	0.015246	-0.007234
974	4.881968	0.005000	0.218570	-9.596930	-1.087721	-0.433608	0.101711	-0.362715	-0.027507	0.003004	-0.008541
975	4.886968	0.005000	0.196200	-9.535320	-1.219895	-0.434059	0.102276	-0.362841	-0.028776	0.004478	0.002207
976	4.891968	0.005000	0.193830	-9.613800	-1.258050	-0.434511	0.102841	-0.362967	-0.029668	0.001488	-0.015806
977	4.896968	0.005000	0.216308	-9.614125	-1.255355	-0.434963	0.103405	-0.363094	-0.020115	0.000522	-0.007678
978	4.901968	0.005000	0.215193	-9.615055	-1.253171	-0.435415	0.103970	-0.363220	-0.010347	0.017254	-0.023910
979	4.906968	0.005000	0.214158	-9.571235	-1.219765	-0.435775	0.104478	-0.363435	-0.003277	0.010356	-0.025795
980	4.911968	0.005000	0.100524	-9.596604	-1.290071	-0.435323	0.104478	-0.364444	0.013254	0.013279	-0.013070
981	4.916968	0.005000	0.094653	-9.565281	-1.232613	-0.434871	0.104478	-0.365454	0.007553	0.016817	-0.028974
982	4.921968	0.005000	0.141329	-9.543298	-1.200809	-0.434419	0.104478	-0.366463	0.018631	0.014283	-0.007819
983	4.926968	0.005000	0.142352	-9.491495	-1.177200	-0.433967	0.104478	-0.367473	0.014975	0.015007	-0.009708
984	4.931968	0.005000	0.066738	-9.535320	-1.163451	-0.433515	0.104478	-0.368482	0.010484	0.006242	-0.014099
985	4.936968	0.005000	0.169988	-9.535320	-1.164327	-0.433063	0.104478	-0.369492	-0.000065	0.015124	-0.007224
986	4.941968	0.005000	0.208206	-9.586566	-1.068264	-0.432611	0.104478	-0.370502	-0.005885	0.014947	-0.008736
987	4.946968	0.005000	0.207320	-9.574560	-1.177200	-0.432159	0.104478	-0.371511	-0.010029	0.010385	-0.007591
988	4.951968	0.005000	0.235440	-9.556203	-1.137960	-0.431707	0.104478	-0.372521	-0.005653	0.015788	-0.005789
989	4.956968	0.005000	0.166379	-9.604381	-1.078318	-0.431255	0.104478	-0.373530	-0.011606	0.006598	-0.000866
990	4.961968	0.005000	0.266180	-9.653040	-1.177200	-0.430803	0.104478	-0.374540	-0.020555	0.014314	-0.017785
991	4.966968	0.005000	0.211908	-9.629508	-1.255680	-0.430351	0.104478	-0.375549	-0.015190	0.000802	-0.007036
992	4.971968	0.005000	0.235440	-9.574560	-1.267593	-0.429899	0.104478	-0.376559	-0.010601	0.009146	-0.011618
993	4.976968	0.005000	0.196200	-9.607919	-1.171319	-0.429548	0.104579	-0.375879	-0.008210	0.011246	-0.017201
994	4.981968	0.005000	0.196200	-9.653040	-1.054213	-0.429210	0.104692	-0.374996	0.001044	0.011091	-0.006925
995	4.986968	0.005000	0.235440	-9.609555	-1.137960	-0.428871	0.104805	-0.374113	-0.006354	0.021221	-0.024009
996	4.991968	0.005000	0.228066	-9.539007	-1.063167	-0.428532	0.104918	-0.373230	0.004498	0.013852	-0.006941
997	4.996968	0.005000	0.162289	-9.619129	-1.025569	-0.428193	0.105030	-0.372347	0.010632	0.017395	-0.011349
998	5.001968	0.005000	0.233798	-9.572918	-1.177200	-0.427854	0.105143	-0.371464	0.001568	0.023283	-0.026376
999	5.006968	0.005000	0.196835	-9.537225	-1.255680	-0.427515	0.105256	-0.370581	0.005691	0.014939	-0.009754
1000	5.011968	0.005000	0.117875	-9.613723	-1.255603	-0.427176	0.105369	-0.369698	-0.003167	0.018815	-0.023797
1001	5.016968	0.005000	0.196200	-9.612855	-1.139850	-0.426837	0.105482	-0.368815	-0.007199	0.011398	-0.015832
1002	5.021968	0.005000	0.196200	-9.570625	-1.063415	-0.426498	0.105595	-0.367932	-0.001705	0.008936	-0.013062
1003	5.026968	0.005000	0.159501	-9.501161	-1.135419	-0.426160	0.105708	-0.367049	-0.007237	0.005014	-0.008491
1004	5.031968	0.005000	0.189136	-9.538852	-1.137960	-0.425821	0.105821	-0.366167	-0.017042	0.015512	-0.010780
1005	5.036968	0.005000	0.196200	-9.574560	-1.281256	-0.425482	0.105934	-0.365284	-0.006059	0.012894	-0.018918
1006	5.041968	0.005000	0.162057	-9.603607	-1.221537	-0.425756	0.105893	-0.365342	-0.005702	0.013102	-0.010438
1007	5.046968	0.005000	0.235440	-9.640802	-1.144079	-0.426321	0.105780	-0.365847	-0.017845	0.017017	-0.016537
1008	5.051968	0.005000	0.235440	-9.581702	-1.027382	-0.426886	0.105668	-0.366352	-0.016391	0.003962	-0.017700
1009	5.056968	0.005000	0.235440	-9.613800	-1.146124	-0.427451	0.105555	-0.366856	-0.007990	0.016453	-0.017649
1010	5.061968	0.005000	0.235440	-9.557117	-1.246958	-0.428015	0.105442	-0.367361	-0.009151	0.013602	-0.015759
1011	5.066968	0.005000	0.196200	-9.554777	-1.245626	-0.428580	0.105329	-0.367865	-0.002626	0.013707	-0.007436
1012	5.071968	0.005000	0.263929	-9.563809	-1.187951	-0.429145	0.105216	-0.368370	-0.001778	0.018806	-0.023803
1013	5.076968	0.005000	0.286124	-9.512431	-1.204996	-0.429710	0.105103	-0.368874	-0.000426	0.008659	-0.008358
1014	5.081968	0.005000	0.274680	-9.601469	-1.189531	-0.430275	0.104990	-0.369379	-0.003103	0.015070	-0.008267
1015	5.086968	0.005000	0.353160	-9.639686	-1.124606	-0.430839	0.104877	-0.369883	-0.007614	0.016032	-0.017037
1016	5.091968	0.005000	0.249508	-9.613800	-1.163132	-0.431404	0.104764	-0.370388	-0.001224	0.010994	-0.009478
1017	5.096968	0.005000	0.211118	-9.613800	-1.059480	-0.431969	0.104651	-0.370892	-0.013221	0.020167	-0.019853
1018	5.101968	0.005000	0.228082	-9.629741	-1.193141	-0.432534	0.104538	-0.371397	-0.015888	0.013702	-0.025598
1019	5.106968	0.005000	0.212887	-9.580426	-1.154647	-0.432626	0.104373	-0.371667	-0.015433	0.016926	-0.017473
1020	5.111968	0.005000	0.209476	-9.613800	-1.111996	-0.432174	0.104147	-0.371667	-0.010850	0.010923	-0.010675
1021	5.116968	0.005000	0.154776	-9.613800	-1.216440	-0.431723	0.103921	-0.371667	-0.014772	0.020674	-0.015917
1022	5.121968	0.005000	0.058790	-9.535320	-1.157650	-0.431271	0.103695	-0.371667	-0.013644	0.012436	-0.008689
1023	5.126968	0.005000	0.156015	-9.495135	-1.099665	-0.430819	0.103469	-0.371667	-0.016426	0.019246	-0.007136
1024	5.131968	0.005000	0.235440	-9.556435	-1.140950	-0.430367	0.103244	-0.371667	-0.015258	0.022321	-0.018005
1025	5.136968	0.005000	0.213508	-9.496080	-1.137960	-0.429915	0.103018	-0.371667	-0.007921	0.005317	-0.009218
1026	5.141968	0.005000	0.173505	-9.574560	-1.088325	-0.429464	0.102792	-0.371667	-0.012463	0.017515	-0.016284
1027	5.146968	0.005000	0.227245	-9.480558	-1.177200	-0.429012	0.102566	-0.371667	-0.010570	0.014866	-0.025420
1028	5.151968	0.005000	0.235440	-9.446631	-1.094413	-0.428560	0.102340	-0.371667	-0.006802	0.011341	-0.018617
1029	5.156968	0.005000	0.143002	-9.560602	-1.098720	-0.428108	0.102114	-0.371667	-0.006489	0.022467	-0.027283
1030	5.161968	0.005000	0.169895	-9.496514	-1.137526	-0.427656	0.101888	-0.371667	-0.005985	0.015576	-0.005133
1031	5.166968	0.005000	0.129633	-9.496080	-1.204527	-0.427205	0.101662	-0.371667	-0.012124	0.021624	-0.015049
1032	5.171968	0.005000	0.140462	-9.496080	-1.065723	-0.426866	0.101578	-0.371699	-0.013744	0.016186	-0.020915
1033	5.176968	0.005000	0.253983	-9.595257	-1.197897	-0.426866	0.101917	-0.371825	-0.011554	0.021130	-0.006662
1034	5.181968	0.005000	0.235440	-9.643599	-1.238271	-0.426866	0.102256	-0.371951	-0.014693	0.014861	-0.026702
1035	5.186968	0.005000	0.226656	-9.526536	-1.037807	-0.426866	0.102594	-0.372077	-0.007964	0.016493	-0.018036
1036	5.191968	0.005000	0.259158	-9.448645	-1.059480	-0.426866	0.102933	-0.372203	0.006615	0.026322	-0.021117
1037	5.196968	0.005000	0.235440	-9.509558	-1.105459	-0.426866	0.103272	-0.372329	0.000222	0.020564	-0.020548
1038	5.201968	0.005000	0.201985	-9.608015	-1.110290	-0.426866	0.103611	-0.372455	-0.001350	0.020648	-0.024931
1039	5.206968	0.005000	0.230279	-9.579721	-1.245359	-0.426866	0.103950	-0.372581	0.006683	0.017151	-0.022910
1040	5.211968	0.005000	0.196200	-9.574560	-1.129657	-0.426866	0.104288	-0.372707	-0.007417	0.020734	-0.006089
1041	5.216968	0.005000	0.160127	-9.656207	-1.213273	-0.426866	0.104627	-0.372833	-0.006921	0.010034	-0.010378
1042	5.221968	0.005000	0.193628	-9.611228	-1.140532	-0.426866	0.104966	-0.372959	0.002166	0.009396	-0.001377
1043	5.226968	0.005000	0.232342	-9.573011	-1.175651	-0.426866	0.105305	-0.373085	-0.004892	0.026225	-0.012105
1044	5.231968	0.005000	0.195673	-9.535847	-1.215387	-0.426866	0.105644	-0.373212	0.003928	0.014007	-0.004867
1045	5.236968	0.005000	0.196184	-9.574560	-1.059511	-0.426870	0.105982	-0.373319	-0.009166	0.018386	-0.005750
1046	5.241968	0.005000	0.274680	-9.572484	-1.177200	-0.426983	0.106321	-0.372941	0.000093	0.010768	-0.006631
1047	5.246968	0.005000	0.311860	-9.613800	-1.177200	-0.427096	0.106660	-0.372562	0.010075	0.015148	0.000883
1048	5.251968	0.005000	0.311285	-9.611165	-1.211170	-0.427209	0.106999	-0.372184	0.004762	0.010522	-0.013456
1049	5.256968	0.005000	0.267430	-9.531695	-1.145210	-0.427322	0.107338	-0.371806	-0.000853	0.011855	-0.005129
1050	5.261968	0.005000	0.265385	-9.491433	-1.098720	-0.427435	0.107677	-0.371427	0.004315	0.012880	-0.008869
1051	5.266968	0.005000	0.235440	-9.468180	-1.171530	-0.427548	0.108016	-0.371049	0.005889	0.011345	-0.008454
1052	5.271968	0.005000	0.136587	-9.522742	-1.236813	-0.427660	0.108355	-0.370671	0.003365	0.002182	-0.012589
1053	5.276968	0.005000	0.242675	-9.439304	-1.034709	-0.427773	0.108693	-0.370292	0.001976	0.009383	-0.002290
1054	5.281968	0.005000	0.196200	-9.448583	-1.073949	-0.427886	0.109032	-0.369914	0.012552	0.011614	0.000753
1055	5.286968	0.005000	0.214759	-9.505359	-1.098720	-0.427999	0.109371	-0.369535	0.011581	0.015020	-0.009323
1056	5.291968	0.005000	0.225603	-9.633366	-1.137960	-0.428112	0.109710	-0.369157	0.012308	0.002172	-0.009338
1057	5.296968	0.005000	0.185356	-9.506924	-1.205596	-0.428225	0.110049	-0.368779	0.002800	0.014593	-0.013371
1058	5.301968	0.005000	0.208066	-9.562694	-1.189066	-0.428338	0.110388	-0.368400	-0.000412	0.010765	-0.015028
1059	5.306968	0.005000	0.248013	-9.574560	-1.188252	-0.428544	0.109798	-0.368852	0.001993	0.002713	-0.010815
1060	5.311968	0.005000	0.209647	-9.574560	-1.163753	-0.428770	0.109007	-0.369482	-0.007490	-0.000876	-0.023185
1061	5.316968	0.005000	0.181731	-9.564258	-1.152429	-0.428996	0.108216	-0.370113	0.005578	-0.006711	-0.000499
1062	5.321968	0.005000	0.211397	-9.480883	-1.240483	-0.429221	0.107426	-0.370744	-0.000302	0.007863	-0.013650
1063	5.326968	0.005000	0.172994	-9.519286	-1.193234	-0.429447	0.106635	-0.371374	-0.003299	0.008097	-0.019587
1064	5.331968	0.005000	0.122848	-9.552376	-1.093592	-0.429673	0.105844	-0.372005	-0.004599	-0.001532	-0.002608
1065	5.336968	0.005000	0.117720	-9.517504	-1.184414	-0.429899	0.105054	-0.372636	0.007834	0.011176	-0.026407
1066	5.341968	0.005000	0.194202	-9.613800	-1.235061	-0.430125	0.104263	-0.373266	0.002873	0.003951	-0.019581
1067	5.346968	0.005000	0.137317	-9.633397	-1.059480	-0.430351	0.103472	-0.373897	0.006286	0.007701	-0.007557
1068	5.351968	0.005000	0.175534	-9.673706	-1.117294	-0.430577	0.102682	-0.374528	0.011943	0.009342	-0.008490
1069	5.356968	0.005000	0.174992	-9.595768	-1.059480	-0.430803	0.101891	-0.375159	0.015058	0.014261	-0.007227
1070	5.361968	0.005000	0.274680	-9.636030	-1.088279	-0.431029	0.101100	-0.375789	0.009847	0.005364	-0.011224
1071	5.366968	0.005000	0.219453	-9.653040	-1.153947	-0.431254	0.100310	-0.376420	-0.007799	0.011974	-0.005068
1072	5.371968	0.005000	0.093910	-9.574560	-1.161770	-0.431480	0.100275	-0.376437	0.004082	0.009127	-0.017884
1073	5.376968	0.005000	0.146534	-9.560153	-1.191607	-0.431706	0.100727	-0.376058	-0.000442	-0.000658	-0.004480
1074	5.381968	0.005000	0.196200	-9.575972	-1.124409	-0.431932	0.101178	-0.375680	0.010436	0.022128	-0.011877
1075	5.386968	0.005000	0.237102	-9.613800	-1.032766	-0.432158	0.101630	-0.375302	0.007506	0.010946	-0.018464
1076	5.391968	0.005000	0.180600	-9.586380	-1.083120	-0.432384	0.102082	-0.374923	0.002335	0.014309	-0.012287
1077	5.396968	0.005000	0.235440	-9.546118	-1.031038	-0.432610	0.102534	-0.374545	0.001953	0.004082	-0.014281
1078	5.401968	0.005000	0.137513	-9.731520	-1.049584	-0.432836	0.102985	-0.374167	-0.001418	0.004813	-0.009003
1079	5.406968	0.005000	0.235440	-9.653040	-1.029473	-0.433062	0.103437	-0.373788	-0.011511	0.019330	-0.016441
1080	5.411968	0.005000	0.156960	-9.605589	-1.067691	-0.433288	0.103889	-0.373410	-0.007268	0.013407	-0.019454
