# FOX Logger (IMU file)
# (c) INRIA 2011-2014
# File created from file sensbiotk output
#
# File format:
# id	t	dt	ax	ay	az	mx	my	mz	gx	gy	gz
#
# Units:
#	Time: s
#	Acceleration: m.s^-2
#	Magneto: gauss
#	Gyrometer: rad/s
#
1	0.038696	0.038696	9.460101	-1.569600	1.847541	0.514925	-0.050746	-0.293333	0.009203	-0.013459	0.004200
2	0.043696	0.005000	9.299023	-1.532074	1.926188	0.515482	-0.049520	-0.293831	0.006839	-0.014769	0.008053
3	0.048696	0.005000	9.411428	-1.571143	2.042023	0.516040	-0.048294	-0.294329	0.007686	-0.013942	0.012837
4	0.053696	0.005000	9.382278	-1.459716	1.969836	0.516597	-0.047068	-0.294827	0.012605	-0.009979	0.017116
5	0.058696	0.005000	9.469456	-1.589916	2.027864	0.517154	-0.045842	-0.295324	0.011344	-0.010277	0.006555
6	0.063696	0.005000	9.500588	-1.639397	2.001240	0.517712	-0.044616	-0.295822	0.010876	-0.013339	0.009409
7	0.068696	0.005000	9.439716	-1.619898	2.007306	0.518269	-0.043390	-0.296320	0.000922	-0.010313	0.003470
8	0.073696	0.005000	9.417600	-1.477672	2.079720	0.518826	-0.042164	-0.296818	0.015308	-0.018992	0.006152
9	0.078696	0.005000	9.370131	-1.593017	2.017063	0.519383	-0.040938	-0.297316	0.008967	-0.020008	0.003572
10	0.083696	0.005000	9.396786	-1.705746	1.980426	0.519941	-0.039712	-0.297814	0.009431	-0.013205	-0.000472
11	0.088696	0.005000	9.396763	-1.684886	1.985271	0.520498	-0.038486	-0.298312	0.003249	-0.015129	0.009860
12	0.093696	0.005000	9.394168	-1.710752	1.899328	0.521055	-0.037260	-0.298810	0.002443	-0.010039	0.004060
13	0.098696	0.005000	9.404182	-1.673902	1.936178	0.521613	-0.036034	-0.299307	0.015439	-0.022849	-0.000011
14	0.103696	0.005000	9.395514	-1.687320	1.917829	0.522170	-0.034808	-0.299805	0.004585	-0.012928	0.009649
15	0.108696	0.005000	9.373731	-1.670014	1.940066	0.522320	-0.034396	-0.300000	0.009601	-0.022235	0.006831
16	0.113696	0.005000	9.450562	-1.509953	2.027924	0.522209	-0.034507	-0.300000	0.006254	-0.021246	0.009765
17	0.118696	0.005000	9.405937	-1.561825	1.926648	0.522097	-0.034619	-0.300000	0.000234	-0.015882	0.008314
18	0.123696	0.005000	9.378360	-1.569600	1.922760	0.521986	-0.034731	-0.300000	-0.001034	-0.015437	0.007611
19	0.128696	0.005000	9.455065	-1.646305	1.884408	0.521874	-0.034842	-0.300000	-0.004713	-0.008043	0.003097
20	0.133696	0.005000	9.460132	-1.572892	1.952125	0.521763	-0.034954	-0.300000	-0.005049	-0.016417	0.004114
21	0.138696	0.005000	9.429017	-1.530360	2.034772	0.521651	-0.035065	-0.300000	-0.000982	-0.010167	0.012370
22	0.143696	0.005000	9.378360	-1.491120	1.948219	0.521540	-0.035177	-0.300000	0.000518	-0.012922	-0.004583
23	0.148696	0.005000	9.452635	-1.615496	2.001240	0.521428	-0.035288	-0.300000	0.008878	-0.012766	-0.002612
24	0.153696	0.005000	9.444103	-1.634829	1.988503	0.521317	-0.035400	-0.300000	0.004804	-0.014089	0.004809
25	0.158696	0.005000	9.511706	-1.553974	1.930747	0.521205	-0.035511	-0.300000	0.001727	-0.021839	0.005471
26	0.163696	0.005000	9.453603	-1.530360	1.898284	0.521094	-0.035623	-0.300000	-0.005200	-0.004879	0.006600
27	0.168696	0.005000	9.419143	-1.569600	1.922760	0.520983	-0.035734	-0.300000	-0.008549	-0.014037	0.002437
28	0.173696	0.005000	9.407419	-1.507594	2.040480	0.520971	-0.035871	-0.299972	0.008235	-0.013211	0.015666
29	0.178696	0.005000	9.313963	-1.541433	1.987157	0.521305	-0.036094	-0.299848	0.006493	-0.005673	0.007844
30	0.183696	0.005000	9.429308	-1.487005	1.832572	0.521640	-0.036317	-0.299723	0.007146	-0.007664	0.016793
31	0.188696	0.005000	9.507365	-1.599522	1.844280	0.521974	-0.036540	-0.299599	0.000168	-0.009630	0.008652
32	0.193696	0.005000	9.365254	-1.608840	1.968553	0.522309	-0.036763	-0.299474	0.004734	-0.013580	0.011257
33	0.198696	0.005000	9.312322	-1.683173	1.988798	0.522643	-0.036986	-0.299349	0.014947	-0.012401	0.013948
34	0.203696	0.005000	9.415870	-1.685590	1.811960	0.522978	-0.037209	-0.299225	0.013819	-0.007761	0.010971
35	0.208696	0.005000	9.416934	-1.532357	1.923426	0.523312	-0.037432	-0.299100	0.009054	-0.014816	0.008973
36	0.213696	0.005000	9.342176	-1.572656	1.847336	0.523647	-0.037655	-0.298976	0.013051	-0.003857	0.006805
37	0.218696	0.005000	9.305311	-1.564169	1.888951	0.523981	-0.037878	-0.298851	0.013034	-0.013394	0.012310
38	0.223696	0.005000	9.370539	-1.671678	2.032659	0.524316	-0.038101	-0.298727	0.005291	-0.008408	0.009468
39	0.228696	0.005000	9.378360	-1.697639	2.048763	0.524650	-0.038324	-0.298602	0.007607	-0.001222	-0.005943
40	0.233696	0.005000	9.365627	-1.634306	2.013973	0.524985	-0.038547	-0.298478	0.004549	-0.008235	0.009497
41	0.238696	0.005000	9.471982	-1.617796	2.127916	0.525319	-0.038770	-0.298353	0.000128	-0.000764	0.005472
42	0.243696	0.005000	9.474394	-1.626394	2.053902	0.524999	-0.039087	-0.298751	0.020665	0.000943	0.011274
43	0.248696	0.005000	9.398324	-1.570289	1.981964	0.524553	-0.039421	-0.299249	0.008932	0.005319	0.013059
44	0.253696	0.005000	9.434472	-1.603344	1.973375	0.524107	-0.039756	-0.299747	0.015138	-0.006691	0.000471
45	0.258696	0.005000	9.452693	-1.559285	1.951685	0.523661	-0.040090	-0.300245	0.005260	-0.005395	0.015083
46	0.263696	0.005000	9.362930	-1.648080	1.910855	0.523215	-0.040425	-0.300743	-0.007078	-0.006985	0.001129
47	0.268696	0.005000	9.447310	-1.638550	1.971530	0.522769	-0.040759	-0.301241	0.001801	-0.013184	0.017907
48	0.273696	0.005000	9.474660	-1.583880	1.954860	0.522323	-0.041094	-0.301739	-0.000540	-0.001259	0.003582
49	0.278696	0.005000	9.456840	-1.648080	1.888285	0.521877	-0.041428	-0.302237	0.002110	-0.008463	-0.002550
50	0.283696	0.005000	9.535320	-1.648080	1.957250	0.521431	-0.041763	-0.302736	-0.007300	0.002457	-0.001682
51	0.288696	0.005000	9.535320	-1.687320	1.962000	0.520985	-0.042098	-0.303234	-0.006755	-0.011752	-0.004809
52	0.293696	0.005000	9.348792	-1.645662	1.925178	0.520539	-0.042432	-0.303732	-0.001051	-0.015006	0.007240
53	0.298696	0.005000	9.373537	-1.574423	2.030835	0.520093	-0.042767	-0.304230	-0.005725	-0.016149	-0.007636
54	0.303696	0.005000	9.392838	-1.704843	2.026002	0.519647	-0.043101	-0.304728	0.001121	-0.005571	0.003342
55	0.308696	0.005000	9.466839	-1.618839	1.952001	0.519555	-0.043183	-0.304943	-0.001885	-0.006113	0.010983
56	0.313696	0.005000	9.405226	-1.555108	2.001240	0.519889	-0.042960	-0.304819	0.008312	-0.010581	0.003204
57	0.318696	0.005000	9.314644	-1.515596	2.025716	0.520224	-0.042737	-0.304694	0.005207	-0.013985	0.011631
58	0.323696	0.005000	9.361221	-1.586739	1.996278	0.520558	-0.042514	-0.304570	-0.002744	-0.007497	-0.001286
59	0.328696	0.005000	9.398071	-1.609022	1.962182	0.520893	-0.042291	-0.304445	0.001405	-0.013846	0.003003
60	0.333696	0.005000	9.413032	-1.630744	2.018576	0.521228	-0.042068	-0.304321	0.007268	-0.018310	-0.000845
61	0.338696	0.005000	9.363699	-1.633419	1.991323	0.521562	-0.041845	-0.304196	0.014560	-0.013544	0.003291
62	0.343696	0.005000	9.339120	-1.660328	2.015984	0.521897	-0.041622	-0.304072	0.013973	-0.004329	0.012583
63	0.348696	0.005000	9.270484	-1.638236	1.863831	0.522231	-0.041399	-0.303947	0.015388	-0.005363	0.000995
64	0.353696	0.005000	9.314756	-1.648080	1.962000	0.522566	-0.041176	-0.303823	0.012323	-0.005056	0.004952
65	0.358696	0.005000	9.451818	-1.608840	1.962000	0.522900	-0.040953	-0.303698	0.018318	-0.002361	-0.001570
66	0.363696	0.005000	9.341737	-1.535594	2.006474	0.523235	-0.040730	-0.303574	0.018106	-0.012087	0.005322
67	0.368696	0.005000	9.378950	-1.530753	2.079327	0.523569	-0.040507	-0.303449	0.004842	-0.005477	0.010169
68	0.373696	0.005000	9.496080	-1.645875	1.964205	0.523812	-0.040383	-0.303196	0.021666	-0.001575	0.011324
69	0.378696	0.005000	9.535320	-1.682698	2.001240	0.522808	-0.041610	-0.301204	0.004432	-0.008091	0.010151
70	0.383696	0.005000	9.567533	-1.615867	1.897575	0.521805	-0.042836	-0.299211	-0.002576	-0.007409	0.001250
71	0.388696	0.005000	9.485168	-1.668435	1.892963	0.520801	-0.044063	-0.297219	0.003930	-0.015611	0.008816
72	0.393696	0.005000	9.460530	-1.679160	1.895370	0.519798	-0.045289	-0.295227	-0.006354	-0.009475	0.001316
73	0.398696	0.005000	9.406887	-1.637367	1.897784	0.518794	-0.046516	-0.293235	0.002044	-0.016129	0.002915
74	0.403696	0.005000	9.355793	-1.586273	1.967894	0.517790	-0.047743	-0.291243	-0.010659	-0.013596	0.012157
75	0.408696	0.005000	9.419743	-1.648080	1.962000	0.516787	-0.048969	-0.289250	-0.004497	-0.007278	0.002391
76	0.413696	0.005000	9.339120	-1.587345	1.908766	0.515783	-0.050196	-0.287258	-0.010367	-0.009163	0.017561
77	0.418696	0.005000	9.432935	-1.648080	1.883520	0.514780	-0.051422	-0.285266	-0.019676	-0.006472	0.004126
78	0.423696	0.005000	9.456840	-1.569600	1.922285	0.513776	-0.052649	-0.283274	-0.001322	-0.021487	0.002594
79	0.428696	0.005000	9.464538	-1.598326	2.019452	0.512773	-0.053875	-0.281281	-0.006346	-0.004877	0.000552
80	0.433696	0.005000	9.409595	-1.569600	1.914755	0.511769	-0.055102	-0.279289	-0.004168	-0.011912	0.001494
81	0.438696	0.005000	9.344747	-1.603213	1.799413	0.510765	-0.056328	-0.277297	-0.009587	-0.003172	0.008704
82	0.443696	0.005000	9.460092	-1.638323	1.837775	0.509838	-0.057174	-0.277348	-0.023202	-0.013134	0.000040
83	0.448696	0.005000	9.457702	-1.529498	1.805040	0.508945	-0.057843	-0.278345	0.002431	-0.016989	0.012533
84	0.453696	0.005000	9.458371	-1.528829	1.880458	0.508053	-0.058513	-0.279342	0.000045	-0.003840	0.001926
85	0.458696	0.005000	9.386257	-1.530360	1.954103	0.507160	-0.059182	-0.280338	0.008558	-0.008713	-0.002285
86	0.463696	0.005000	9.561067	-1.634587	1.955253	0.506268	-0.059851	-0.281335	0.012022	-0.014264	0.008058
87	0.468696	0.005000	9.523445	-1.578722	1.901763	0.505375	-0.060521	-0.282331	0.004198	-0.007656	0.014237
88	0.473696	0.005000	9.456840	-1.581112	1.962000	0.504483	-0.061190	-0.283328	0.011390	-0.010249	0.013711
89	0.478696	0.005000	9.482025	-1.648080	1.919836	0.503590	-0.061860	-0.284324	0.009904	-0.012928	0.011634
90	0.483696	0.005000	9.408009	-1.615526	1.899797	0.502698	-0.062529	-0.285321	0.010492	-0.012809	0.016585
91	0.488696	0.005000	9.378360	-1.689256	1.945284	0.501805	-0.063198	-0.286318	0.009543	-0.007368	0.009313
92	0.493696	0.005000	9.299880	-1.783998	1.959156	0.500913	-0.063868	-0.287314	0.023451	-0.003758	0.003679
93	0.498696	0.005000	9.330960	-1.758420	1.977540	0.500020	-0.064537	-0.288311	0.018598	-0.006522	0.019552
94	0.503696	0.005000	9.456840	-1.595709	1.962000	0.499127	-0.065207	-0.289307	0.007392	-0.005386	0.014736
95	0.508696	0.005000	9.389077	-1.648080	1.919131	0.498949	-0.065230	-0.290190	0.002036	-0.008908	0.012658
96	0.513696	0.005000	9.409290	-1.639770	1.866900	0.500398	-0.063781	-0.290812	0.001936	-0.008858	0.005561
97	0.518696	0.005000	9.345014	-1.636291	1.822723	0.501848	-0.062331	-0.291435	0.002412	-0.007620	-0.000253
98	0.523696	0.005000	9.417600	-1.605349	1.951528	0.503298	-0.060881	-0.292057	0.005080	-0.005550	0.005907
99	0.528696	0.005000	9.380508	-1.571748	1.887816	0.504747	-0.059432	-0.292680	0.005107	-0.010784	0.006876
100	0.533696	0.005000	9.494749	-1.572263	1.964663	0.506197	-0.057982	-0.293303	-0.006391	-0.010442	0.010835
101	0.538696	0.005000	9.393303	-1.605104	1.922760	0.507646	-0.056533	-0.293925	-0.011615	-0.008728	-0.008828
102	0.543696	0.005000	9.471471	-1.563448	1.889672	0.509096	-0.055083	-0.294548	-0.007339	-0.005121	-0.002080
103	0.548696	0.005000	9.426158	-1.639522	1.975565	0.510546	-0.053633	-0.295170	0.006446	-0.013936	0.007153
104	0.553696	0.005000	9.474134	-1.630786	1.972973	0.511995	-0.052184	-0.295793	0.002420	-0.016505	0.008264
105	0.558696	0.005000	9.456840	-1.583290	1.857970	0.513445	-0.050734	-0.296415	-0.001513	-0.019670	0.004530
106	0.563696	0.005000	9.440775	-1.687320	1.945935	0.514895	-0.049284	-0.297038	-0.000710	-0.004167	-0.003330
107	0.568696	0.005000	9.415270	-1.705775	1.883520	0.516344	-0.047835	-0.297661	0.002372	-0.009389	0.008125
108	0.573696	0.005000	9.380780	-1.650500	1.943590	0.517794	-0.046385	-0.298283	0.003625	-0.010200	0.013117
109	0.578696	0.005000	9.355140	-1.616041	1.892339	0.518423	-0.045859	-0.298906	0.016302	-0.013247	0.014935
110	0.583696	0.005000	9.337426	-1.598584	2.028529	0.518980	-0.045413	-0.299528	0.009983	-0.006720	0.009279
111	0.588696	0.005000	9.282494	-1.597913	2.007698	0.519538	-0.044967	-0.300151	0.013003	-0.000378	-0.011767
112	0.593696	0.005000	9.325417	-1.595137	1.844280	0.520096	-0.044521	-0.300774	0.014548	-0.014296	0.001871
113	0.598696	0.005000	9.456840	-1.602734	1.811146	0.520653	-0.044075	-0.301396	0.008938	-0.005913	0.003211
114	0.603696	0.005000	9.460530	-1.608840	1.808730	0.521211	-0.043629	-0.302019	0.008847	-0.012683	0.010747
115	0.608696	0.005000	9.531463	-1.646794	1.845566	0.521768	-0.043183	-0.302642	0.003412	-0.004893	0.011708
116	0.613696	0.005000	9.417600	-1.608840	1.921641	0.522326	-0.042737	-0.303264	0.006729	-0.012790	0.011387
117	0.618696	0.005000	9.381854	-1.608840	1.880026	0.522883	-0.042291	-0.303887	0.004331	-0.013098	0.020678
118	0.623696	0.005000	9.339120	-1.602900	1.922760	0.523441	-0.041845	-0.304509	-0.001587	-0.010731	0.004256
119	0.628696	0.005000	9.386716	-1.600484	1.931116	0.523998	-0.041399	-0.305132	0.010728	-0.009821	0.012036
120	0.633696	0.005000	9.389123	-1.676557	1.901234	0.524556	-0.040953	-0.305755	-0.000589	0.005869	0.002050
121	0.638696	0.005000	9.404714	-1.687029	1.896697	0.525114	-0.040506	-0.306377	0.000785	-0.003863	0.000893
122	0.643696	0.005000	9.378360	-1.592703	1.883520	0.525373	-0.040239	-0.306001	0.011989	-0.002368	0.006299
123	0.648696	0.005000	9.396358	-1.569600	1.883520	0.525373	-0.040128	-0.304756	0.004774	-0.000848	0.003783
124	0.653696	0.005000	9.415573	-1.470486	1.900099	0.525373	-0.040016	-0.303511	0.006579	-0.002448	0.008392
125	0.658696	0.005000	9.378360	-1.585832	1.883520	0.525373	-0.039905	-0.302265	-0.002219	-0.000899	0.013134
126	0.663696	0.005000	9.378360	-1.611124	2.015081	0.525373	-0.039793	-0.301020	0.005896	-0.012074	0.015879
127	0.668696	0.005000	9.401293	-1.703627	1.939067	0.525373	-0.039682	-0.299775	0.001287	-0.008238	-0.008429
128	0.673696	0.005000	9.465916	-1.590687	1.940913	0.525373	-0.039570	-0.298530	0.003135	-0.010916	-0.000194
129	0.678696	0.005000	9.574560	-1.589704	1.902656	0.525373	-0.039459	-0.297285	0.003260	-0.005368	0.004757
130	0.683696	0.005000	9.613800	-1.652391	1.848591	0.525373	-0.039347	-0.296039	-0.003355	-0.004558	-0.008194
131	0.688696	0.005000	9.572624	-1.610776	1.958127	0.525373	-0.039235	-0.294794	0.009203	-0.011586	0.005925
132	0.693696	0.005000	9.458655	-1.801409	1.845188	0.525373	-0.039124	-0.293549	0.005053	-0.005059	0.001062
133	0.698696	0.005000	9.453542	-1.615435	1.850875	0.525373	-0.039012	-0.292304	0.002818	-0.004188	-0.003504
134	0.703696	0.005000	9.344793	-1.580945	1.984222	0.525373	-0.038901	-0.291059	0.003054	-0.013712	0.010690
135	0.708696	0.005000	9.275692	-1.616903	2.001240	0.525390	-0.038856	-0.290112	0.010760	-0.005317	0.009218
136	0.713696	0.005000	9.407162	-1.648080	2.001240	0.525501	-0.039191	-0.290859	0.015433	-0.016727	0.019682
137	0.718696	0.005000	9.548934	-1.725758	1.817853	0.525613	-0.039525	-0.291606	0.007472	-0.006698	0.009299
138	0.723696	0.005000	9.432803	-1.669651	1.877151	0.525724	-0.039860	-0.292353	0.016055	-0.013824	0.012098
139	0.728696	0.005000	9.439262	-1.569600	1.962000	0.525836	-0.040194	-0.293100	0.010891	-0.009710	0.012802
140	0.733696	0.005000	9.475878	-1.492283	1.944125	0.525947	-0.040529	-0.293847	0.010265	-0.012358	0.006179
141	0.738696	0.005000	9.479453	-1.507747	1.844280	0.526059	-0.040863	-0.294595	0.002679	-0.013779	0.011606
142	0.743696	0.005000	9.431818	-1.569600	1.933565	0.526171	-0.041198	-0.295342	0.000153	-0.015664	0.011912
143	0.748696	0.005000	9.405796	-1.494948	1.918932	0.526282	-0.041533	-0.296089	0.002450	-0.018041	0.005224
144	0.753696	0.005000	9.387757	-1.588394	1.962000	0.526394	-0.041867	-0.296836	0.005968	-0.014143	0.007681
145	0.758696	0.005000	9.449942	-1.595044	1.883520	0.526505	-0.042202	-0.297583	0.007946	-0.017267	0.002283
146	0.763696	0.005000	9.408554	-1.617886	1.848803	0.526617	-0.042536	-0.298330	-0.005688	-0.018762	-0.002155
147	0.768696	0.005000	9.302013	-1.648080	1.842147	0.526728	-0.042871	-0.299077	0.001541	-0.013324	0.006184
148	0.773696	0.005000	9.339120	-1.648080	1.844035	0.526840	-0.043205	-0.299824	0.011000	-0.018021	0.005188
149	0.778696	0.005000	9.454177	-1.619492	1.813029	0.526440	-0.043199	-0.300286	0.012578	-0.008966	0.001188
150	0.783696	0.005000	9.451364	-1.575076	1.849756	0.525882	-0.043087	-0.300659	0.012107	-0.006389	0.006635
151	0.788696	0.005000	9.488229	-1.718709	1.969851	0.525324	-0.042976	-0.301033	0.004918	-0.006878	0.008943
152	0.793696	0.005000	9.456840	-1.755559	1.875003	0.524767	-0.042864	-0.301406	0.003683	-0.009577	0.016817
153	0.798696	0.005000	9.483464	-1.648080	1.883520	0.524209	-0.042753	-0.301780	0.012150	-0.010326	0.007612
154	0.803696	0.005000	9.441658	-1.602535	1.835404	0.523652	-0.042641	-0.302153	0.009907	-0.015999	-0.005658
155	0.808696	0.005000	9.452769	-1.573671	1.966071	0.523094	-0.042529	-0.302527	0.011214	-0.020508	0.010690
156	0.813696	0.005000	9.417600	-1.588845	2.098965	0.522537	-0.042418	-0.302901	0.015914	-0.010644	0.004664
157	0.818696	0.005000	9.316715	-1.636816	1.917189	0.521979	-0.042306	-0.303274	0.016781	-0.006103	-0.002467
158	0.823696	0.005000	9.314302	-1.569600	1.819462	0.521421	-0.042195	-0.303648	0.013887	-0.010249	0.005767
159	0.828696	0.005000	9.248626	-1.494319	1.962000	0.520864	-0.042083	-0.304021	0.010520	-0.010091	-0.005376
160	0.833696	0.005000	9.299880	-1.539845	1.941730	0.520306	-0.041972	-0.304395	0.014571	-0.018496	0.009783
161	0.838696	0.005000	9.353340	-1.655190	2.015460	0.519749	-0.041860	-0.304768	0.017594	-0.014966	0.005150
162	0.843696	0.005000	9.392519	-1.677881	1.913321	0.519445	-0.041749	-0.304669	0.030405	-0.015089	0.010208
163	0.848696	0.005000	9.454495	-1.650425	1.890554	0.519557	-0.041637	-0.303797	0.016773	-0.016670	0.015976
164	0.853696	0.005000	9.417600	-1.648126	2.001240	0.519668	-0.041526	-0.302926	0.018664	-0.019162	0.002058
165	0.858696	0.005000	9.493630	-1.576949	1.964450	0.519780	-0.041414	-0.302054	0.021956	-0.021815	0.010188
166	0.863696	0.005000	9.412733	-1.648080	1.927627	0.519892	-0.041303	-0.301182	0.006880	-0.018037	0.002009
167	0.868696	0.005000	9.378360	-1.608840	1.915106	0.520003	-0.041191	-0.300311	0.020193	-0.020873	-0.000998
168	0.873696	0.005000	9.407571	-1.608840	2.010392	0.520115	-0.041080	-0.299439	0.013713	-0.019944	0.012965
169	0.878696	0.005000	9.498062	-1.542779	1.960018	0.520226	-0.040968	-0.298567	0.016219	-0.019255	0.000148
170	0.883696	0.005000	9.432394	-1.559949	1.844280	0.520338	-0.040857	-0.297696	0.007351	-0.018539	0.010143
171	0.888696	0.005000	9.417600	-1.525489	1.866335	0.520449	-0.040745	-0.296824	0.006565	-0.019470	0.004819
172	0.893696	0.005000	9.358558	-1.628521	1.942319	0.520561	-0.040634	-0.295952	0.010314	-0.027354	0.011910
173	0.898696	0.005000	9.361320	-1.608840	1.888680	0.520672	-0.040523	-0.295081	-0.000722	-0.017218	0.002123
174	0.903696	0.005000	9.442209	-1.584231	1.922760	0.520784	-0.040411	-0.294209	-0.004193	-0.022254	0.004400
175	0.908696	0.005000	9.417600	-1.753728	1.998215	0.520895	-0.040300	-0.293338	-0.000284	-0.017800	0.010880
176	0.913696	0.005000	9.358513	-1.638383	1.903821	0.521007	-0.040410	-0.294201	-0.013520	-0.015655	0.004253
177	0.918696	0.005000	9.339120	-1.640774	1.748479	0.521118	-0.040521	-0.295073	0.001508	-0.020925	0.004782
178	0.923696	0.005000	9.344051	-1.682389	1.917829	0.521230	-0.040633	-0.295945	-0.002722	-0.017290	0.005876
179	0.928696	0.005000	9.375819	-1.684779	1.883520	0.521341	-0.040744	-0.296817	-0.003854	-0.015935	0.016162
180	0.933696	0.005000	9.416995	-1.570205	1.883520	0.521453	-0.040856	-0.297689	-0.006270	-0.016716	0.004371
181	0.938696	0.005000	9.454162	-1.535715	1.886198	0.521565	-0.040968	-0.298561	-0.004015	-0.014720	0.007798
182	0.943696	0.005000	9.451772	-1.535428	1.849348	0.521676	-0.041079	-0.299433	0.005992	-0.024567	0.003062
183	0.948696	0.005000	9.370827	-1.586242	1.829215	0.521788	-0.041191	-0.300305	0.002197	-0.013806	0.007459
184	0.953696	0.005000	9.417600	-1.618237	1.893468	0.521899	-0.041302	-0.301177	0.000143	-0.014795	0.009433
185	0.958696	0.005000	9.417600	-1.660435	1.895875	0.522011	-0.041414	-0.302049	0.005601	-0.010152	0.008057
186	0.963696	0.005000	9.417600	-1.638377	1.780569	0.522122	-0.041525	-0.302921	0.005194	-0.017617	0.001018
187	0.968696	0.005000	9.451956	-1.574484	1.871226	0.522234	-0.041637	-0.303793	0.003425	-0.012799	0.012679
188	0.973696	0.005000	9.378360	-1.569539	1.903171	0.522345	-0.041748	-0.304665	0.010646	-0.008230	0.011449
189	0.978696	0.005000	9.343881	-1.591601	1.805040	0.522182	-0.041516	-0.305077	0.009714	-0.009385	0.011349
190	0.983696	0.005000	9.353950	-1.623670	1.868690	0.521847	-0.041070	-0.305201	0.005406	0.003742	0.004685
191	0.988696	0.005000	9.390777	-1.608840	1.895937	0.521513	-0.040624	-0.305326	0.007801	-0.006166	0.010181
192	0.993696	0.005000	9.397814	-1.687320	1.912867	0.521178	-0.040178	-0.305450	0.005132	0.002883	0.016438
193	0.998696	0.005000	9.378360	-1.679802	1.836762	0.520844	-0.039732	-0.305575	0.018457	0.001631	0.010327
194	1.003696	0.005000	9.490952	-1.653208	1.760672	0.520509	-0.039286	-0.305699	0.007982	-0.003904	0.013945
195	1.008696	0.005000	9.465099	-1.491120	1.729313	0.520175	-0.038840	-0.305824	-0.005373	0.008256	0.010882
196	1.013696	0.005000	9.534231	-1.570326	1.843917	0.519840	-0.038394	-0.305949	0.000679	-0.003699	0.004785
197	1.018696	0.005000	9.417600	-1.610876	1.730633	0.519506	-0.037948	-0.306073	-0.005874	0.008485	0.005928
198	1.023696	0.005000	9.412744	-1.569600	1.834568	0.519171	-0.037502	-0.306198	-0.001610	0.002398	0.003888
199	1.028696	0.005000	9.481588	-1.608840	1.890766	0.518836	-0.037056	-0.306322	-0.006041	0.001583	0.009442
200	1.033696	0.005000	9.476082	-1.677699	1.883520	0.518502	-0.036610	-0.306447	-0.002651	0.000856	0.003960
201	1.038696	0.005000	9.468851	-1.675309	1.989229	0.518167	-0.036164	-0.306571	-0.000212	0.003417	0.010555
202	1.043696	0.005000	9.442454	-1.658548	1.887438	0.518064	-0.035898	-0.306495	-0.013375	0.003084	0.000958
203	1.048696	0.005000	9.417600	-1.687320	1.827504	0.518734	-0.036233	-0.305747	-0.006352	-0.001963	0.012807
204	1.053696	0.005000	9.339120	-1.648555	1.943092	0.519403	-0.036567	-0.305000	0.005739	-0.000401	0.007068
205	1.058696	0.005000	9.378360	-1.648080	1.962000	0.520072	-0.036902	-0.304253	0.000271	-0.001776	0.004411
206	1.063696	0.005000	9.324085	-1.578771	1.971171	0.520741	-0.037236	-0.303506	-0.000372	-0.005634	0.016693
207	1.068696	0.005000	9.337758	-1.621466	1.935386	0.521410	-0.037571	-0.302759	0.008713	0.000069	-0.007336
208	1.073696	0.005000	9.397176	-1.608840	1.991028	0.522079	-0.037906	-0.302012	-0.000124	-0.013110	0.006681
209	1.078696	0.005000	9.362930	-1.600460	2.016670	0.522748	-0.038240	-0.301265	0.010175	0.000080	0.001484
210	1.083696	0.005000	9.333795	-1.648080	2.040480	0.523417	-0.038575	-0.300518	0.020339	-0.002550	-0.003434
211	1.088696	0.005000	9.372460	-1.732460	2.001240	0.524086	-0.038909	-0.299771	0.018545	-0.011265	0.002057
212	1.093696	0.005000	9.418175	-1.686745	1.962575	0.524756	-0.039244	-0.299024	0.016210	-0.011193	0.002880
213	1.098696	0.005000	9.382033	-1.610677	2.038643	0.525425	-0.039578	-0.298276	0.016229	-0.007277	0.004324
214	1.103696	0.005000	9.351843	-1.648080	1.957759	0.526094	-0.039913	-0.297529	0.007814	0.003033	0.005796
215	1.108696	0.005000	9.482012	-1.705458	2.033446	0.526763	-0.040247	-0.296782	0.013738	-0.001122	0.006925
216	1.113696	0.005000	9.466264	-1.696744	2.010664	0.526300	-0.040488	-0.297088	-0.003262	-0.007122	0.003058
217	1.118696	0.005000	9.496080	-1.593198	2.028681	0.525631	-0.040711	-0.297586	0.014021	-0.006280	0.006722
218	1.123696	0.005000	9.481891	-1.723232	2.026291	0.524962	-0.040934	-0.298084	0.008805	-0.002655	0.002349
219	1.128696	0.005000	9.568449	-1.697773	1.945436	0.524293	-0.041157	-0.298582	0.006323	-0.012279	-0.005986
220	1.133696	0.005000	9.496080	-1.705609	1.922760	0.523624	-0.041380	-0.299080	-0.002124	-0.013527	0.011213
221	1.138696	0.005000	9.556907	-1.669667	1.879585	0.522955	-0.041603	-0.299578	0.000126	-0.009729	-0.001668
222	1.143696	0.005000	9.465594	-1.530360	1.962000	0.522285	-0.041826	-0.300076	0.000059	-0.019173	-0.003003
223	1.148696	0.005000	9.352700	-1.556770	2.014070	0.521616	-0.042049	-0.300574	0.002633	-0.017410	0.001833
224	1.153696	0.005000	9.399204	-1.480698	2.040480	0.520947	-0.042272	-0.301072	-0.006062	-0.017895	0.001919
225	1.158696	0.005000	9.393865	-1.365488	2.008834	0.520278	-0.042495	-0.301570	-0.001396	-0.014614	0.010662
226	1.163696	0.005000	9.367287	-1.507730	1.889057	0.519609	-0.042718	-0.302068	-0.000271	-0.018086	0.001173
227	1.168696	0.005000	9.335974	-1.602547	1.929053	0.518940	-0.042941	-0.302566	-0.002485	-0.021727	-0.000437
228	1.173696	0.005000	9.339120	-1.528817	1.961229	0.518271	-0.043164	-0.303064	0.003167	-0.015898	0.005503
229	1.178696	0.005000	9.339120	-1.527114	1.922760	0.518116	-0.043233	-0.303161	-0.001134	-0.022472	-0.002808
230	1.183696	0.005000	9.378360	-1.600759	1.883520	0.518562	-0.043121	-0.302787	0.010003	-0.019083	0.008260
231	1.188696	0.005000	9.385198	-1.557710	1.890358	0.519008	-0.043010	-0.302414	-0.000460	-0.011553	0.005411
232	1.193696	0.005000	9.327517	-1.511935	1.865095	0.519454	-0.042898	-0.302040	0.007024	-0.024595	0.019501
233	1.198696	0.005000	9.350723	-1.530360	1.809472	0.519900	-0.042786	-0.301667	0.001343	-0.020219	0.013199
234	1.203696	0.005000	9.378360	-1.477142	1.869542	0.520346	-0.042675	-0.301293	0.014556	-0.012591	0.014300
235	1.208696	0.005000	9.401232	-1.592472	1.883520	0.520792	-0.042563	-0.300920	0.006229	-0.003037	0.004544
236	1.213696	0.005000	9.376605	-1.569600	1.803285	0.521238	-0.042452	-0.300546	0.000746	-0.005926	0.000667
237	1.218696	0.005000	9.360253	-1.623922	1.762775	0.521684	-0.042340	-0.300172	0.003665	-0.016403	0.014841
238	1.223696	0.005000	9.433332	-1.648080	1.812997	0.522130	-0.042229	-0.299799	0.003443	-0.003018	0.011246
239	1.228696	0.005000	9.470002	-1.700359	1.844402	0.522577	-0.042117	-0.299425	0.001333	-0.005276	0.009525
240	1.233696	0.005000	9.360371	-1.715935	1.865531	0.523023	-0.042006	-0.299052	0.002667	-0.011065	0.014072
241	1.238696	0.005000	9.401163	-1.600622	1.937345	0.523469	-0.041894	-0.298678	-0.003797	-0.011554	0.016920
242	1.243696	0.005000	9.339120	-1.620445	1.889323	0.523864	-0.041783	-0.298342	-0.001629	-0.019419	0.015122
243	1.248696	0.005000	9.378360	-1.680525	1.997842	0.523641	-0.041671	-0.298467	0.002293	-0.011270	0.015820
244	1.253696	0.005000	9.416632	-1.530360	1.886424	0.523418	-0.041560	-0.298592	0.008145	-0.008751	0.013409
245	1.258696	0.005000	9.302728	-1.568176	1.925608	0.523195	-0.041448	-0.298716	-0.004009	-0.007505	0.019242
246	1.263696	0.005000	9.378360	-1.538043	1.922760	0.522972	-0.041336	-0.298841	-0.007032	-0.007325	0.001546
247	1.268696	0.005000	9.365867	-1.608840	1.937014	0.522749	-0.041225	-0.298965	0.002357	-0.017781	0.016123
248	1.273696	0.005000	9.448190	-1.630779	1.883520	0.522525	-0.041113	-0.299090	0.004099	-0.005675	0.000615
249	1.278696	0.005000	9.389751	-1.648080	1.844280	0.522302	-0.041002	-0.299215	0.002669	-0.012164	0.018968
250	1.283696	0.005000	9.454737	-1.597162	1.962000	0.522079	-0.040890	-0.299339	-0.007144	0.003002	0.003436
251	1.288696	0.005000	9.401444	-1.678092	1.860436	0.521856	-0.040779	-0.299464	-0.002812	-0.011089	0.002686
252	1.293696	0.005000	9.297231	-1.629784	1.841631	0.521633	-0.040667	-0.299588	-0.003491	-0.004482	0.008299
253	1.298696	0.005000	9.281561	-1.645478	1.825961	0.521410	-0.040556	-0.299713	-0.002089	-0.009121	0.002071
254	1.303696	0.005000	9.355049	-1.624769	1.820969	0.521187	-0.040444	-0.299838	0.004882	-0.006729	0.010829
255	1.308696	0.005000	9.446130	-1.595286	1.791486	0.520964	-0.040333	-0.299962	-0.000958	0.003037	0.000381
256	1.313696	0.005000	9.569144	-1.591928	1.754636	0.521129	-0.040610	-0.300000	0.010236	-0.003291	0.007094
257	1.318696	0.005000	9.453977	-1.670479	1.718139	0.521464	-0.041056	-0.300000	-0.001296	0.006156	0.010634
258	1.323696	0.005000	9.456840	-1.602825	1.805040	0.521798	-0.041502	-0.300000	-0.001816	0.003220	-0.005258
259	1.328696	0.005000	9.456840	-1.605242	1.879922	0.522133	-0.041948	-0.300000	0.009164	0.000315	0.003956
260	1.333696	0.005000	9.378360	-1.646886	1.921566	0.522467	-0.042394	-0.300000	0.004072	-0.009800	-0.001602
261	1.338696	0.005000	9.416390	-1.570810	1.845490	0.522802	-0.042840	-0.300000	0.012755	-0.003665	-0.001408
262	1.343696	0.005000	9.417600	-1.537530	1.954830	0.523136	-0.043286	-0.300000	0.007613	0.004207	0.010690
263	1.348696	0.005000	9.372315	-1.596750	1.962000	0.523470	-0.043732	-0.300000	0.014622	0.012403	0.008162
264	1.353696	0.005000	9.325234	-1.608840	1.914309	0.523805	-0.044178	-0.300000	0.011103	0.005936	0.004924
265	1.358696	0.005000	9.367494	-1.637214	1.844280	0.524139	-0.044624	-0.300000	0.017987	0.006925	0.006704
266	1.363696	0.005000	9.443566	-1.661354	1.948726	0.524474	-0.045070	-0.300000	0.011498	-0.004220	0.012997
267	1.368696	0.005000	9.417600	-1.663758	1.977678	0.524808	-0.045516	-0.300000	0.021380	-0.004126	-0.004165
268	1.373696	0.005000	9.456840	-1.611901	1.925821	0.525143	-0.045962	-0.300000	0.009012	-0.003788	0.000580
269	1.378696	0.005000	9.535320	-1.552621	1.941500	0.524886	-0.046547	-0.299573	0.013819	0.009549	0.009526
270	1.383696	0.005000	9.525571	-1.546690	1.984910	0.523325	-0.047439	-0.298203	0.022549	0.009015	-0.005793
271	1.388696	0.005000	9.456840	-1.530360	1.948083	0.521764	-0.048331	-0.296833	0.005861	0.001041	0.005380
272	1.393696	0.005000	9.440618	-1.518851	1.950491	0.520203	-0.049223	-0.295464	0.006428	0.013946	-0.002109
273	1.398696	0.005000	9.456840	-1.539454	1.931854	0.518642	-0.050115	-0.294094	0.009105	-0.007830	0.009522
274	1.403696	0.005000	9.450229	-1.576211	1.883520	0.517081	-0.051008	-0.292724	0.009108	-0.004794	0.006974
275	1.408696	0.005000	9.491860	-1.683100	1.926980	0.515519	-0.051900	-0.291355	0.002481	-0.011616	0.006812
276	1.413696	0.005000	9.454994	-1.644389	1.960154	0.513958	-0.052792	-0.289985	-0.004398	-0.007158	0.014548
277	1.418696	0.005000	9.494978	-1.569600	1.922760	0.512397	-0.053684	-0.288615	-0.003410	-0.006533	-0.010248
278	1.423696	0.005000	9.345030	-1.497030	2.031615	0.510836	-0.054576	-0.287246	-0.000804	-0.011245	0.008238
279	1.428696	0.005000	9.362245	-1.553485	2.035108	0.509275	-0.055468	-0.285876	0.001996	-0.006054	0.005121
280	1.433696	0.005000	9.519013	-1.592533	2.001240	0.507714	-0.056360	-0.284506	0.002195	-0.016451	0.007274
281	1.438696	0.005000	9.428129	-1.598311	1.962000	0.506153	-0.057252	-0.283137	-0.004616	-0.016758	0.014201
282	1.443696	0.005000	9.418084	-1.621759	1.909841	0.504592	-0.058144	-0.281767	-0.006020	-0.014686	0.008946
283	1.448696	0.005000	9.456840	-1.593546	2.025186	0.505305	-0.057485	-0.282591	-0.012471	-0.016684	0.004526
284	1.453696	0.005000	9.378360	-1.548251	2.037021	0.506198	-0.056704	-0.283587	-0.004608	-0.007861	0.006115
285	1.458696	0.005000	9.340875	-1.510301	2.059661	0.507090	-0.055923	-0.284584	0.002642	-0.021087	0.014206
286	1.463696	0.005000	9.333493	-1.642453	2.062914	0.507983	-0.055142	-0.285580	0.007044	-0.015129	-0.004219
287	1.468696	0.005000	9.389348	-1.673194	2.040480	0.508875	-0.054361	-0.286577	-0.001398	-0.020788	-0.003341
288	1.473696	0.005000	9.456840	-1.683217	1.844280	0.509768	-0.053580	-0.287574	-0.002345	-0.020821	0.010312
289	1.478696	0.005000	9.417600	-1.698645	1.902130	0.510660	-0.052800	-0.288570	0.006844	-0.011497	0.008075
290	1.483696	0.005000	9.385250	-1.622619	1.902091	0.511552	-0.052019	-0.289567	0.004649	-0.014390	0.009036
291	1.488696	0.005000	9.422084	-1.613324	1.818492	0.512445	-0.051238	-0.290563	0.002919	-0.014619	0.008757
292	1.493696	0.005000	9.419667	-1.650147	1.887654	0.513337	-0.050457	-0.291560	0.008876	-0.012007	0.012484
293	1.498696	0.005000	9.456840	-1.648413	2.000907	0.514230	-0.049676	-0.292556	0.003027	-0.016299	0.004360
294	1.503696	0.005000	9.496080	-1.687320	2.032216	0.515122	-0.048895	-0.293553	0.004718	-0.022194	0.002764
295	1.508696	0.005000	9.456840	-1.642920	2.035320	0.516015	-0.048114	-0.294550	0.003022	-0.024916	0.008672
296	1.513696	0.005000	9.385936	-1.584751	1.891096	0.516540	-0.047455	-0.294932	-0.021251	-0.024654	0.020482
297	1.518696	0.005000	9.399024	-1.608840	1.718316	0.516763	-0.046898	-0.294807	0.003641	-0.029627	0.007024
298	1.523696	0.005000	9.430307	-1.582307	1.779626	0.516986	-0.046341	-0.294683	-0.007311	-0.018842	0.010119
299	1.528696	0.005000	9.354217	-1.614891	1.823132	0.517209	-0.045783	-0.294558	-0.004372	-0.016139	-0.001125
300	1.533696	0.005000	9.317352	-1.626312	1.962000	0.517432	-0.045226	-0.294434	0.002198	-0.023491	0.005579
301	1.538696	0.005000	9.417116	-1.588978	1.843796	0.517655	-0.044668	-0.294309	0.002362	-0.020441	0.011850
302	1.543696	0.005000	9.322386	-1.642308	1.844280	0.517878	-0.044111	-0.294184	-0.000668	-0.023207	0.011485
303	1.548696	0.005000	9.299880	-1.648080	1.904679	0.518101	-0.043553	-0.294060	-0.007066	-0.017864	0.007280
304	1.553696	0.005000	9.390282	-1.608840	1.828884	0.518324	-0.042996	-0.293935	0.002902	-0.017412	0.005346
305	1.558696	0.005000	9.348628	-1.538658	1.864505	0.518547	-0.042438	-0.293811	0.003043	-0.012099	-0.000888
306	1.563696	0.005000	9.403398	-1.737395	1.844280	0.518770	-0.041881	-0.293686	0.001191	-0.010402	0.004448
307	1.568696	0.005000	9.373675	-1.657450	1.947945	0.518993	-0.041323	-0.293562	0.002793	-0.014555	0.004382
308	1.573696	0.005000	9.376106	-1.731068	1.927268	0.519216	-0.040766	-0.293437	-0.008132	-0.011398	-0.008259
309	1.578696	0.005000	9.339120	-1.765938	1.844831	0.519367	-0.040317	-0.293374	-0.006523	-0.019961	0.004762
310	1.583696	0.005000	9.375819	-1.574683	1.805040	0.519144	-0.040429	-0.293623	-0.007914	-0.017981	0.003732
311	1.588696	0.005000	9.422559	-1.726560	1.775717	0.518921	-0.040540	-0.293872	0.000376	-0.013269	-0.000700
312	1.593696	0.005000	9.378360	-1.584328	1.861427	0.518698	-0.040652	-0.294121	-0.005592	-0.011012	0.005339
313	1.598696	0.005000	9.388139	-1.657982	1.873741	0.518475	-0.040763	-0.294370	0.003100	-0.012262	-0.003840
314	1.603696	0.005000	9.496080	-1.660267	1.819906	0.518252	-0.040875	-0.294619	0.006660	-0.010385	0.005369
315	1.608696	0.005000	9.535320	-1.701920	1.908160	0.518029	-0.040986	-0.294868	-0.001527	-0.010435	0.000578
316	1.613696	0.005000	9.451619	-1.530360	1.839059	0.517806	-0.041097	-0.295117	0.005819	-0.003314	0.005811
317	1.618696	0.005000	9.515501	-1.589419	1.844678	0.517583	-0.041209	-0.295366	0.007340	-0.009006	-0.000302
318	1.623696	0.005000	9.339120	-1.547560	1.905560	0.517360	-0.041320	-0.295615	-0.000245	-0.010638	-0.003896
319	1.628696	0.005000	9.344354	-1.584425	1.893111	0.517137	-0.041432	-0.295864	0.008585	-0.009052	0.002625
320	1.633696	0.005000	9.405165	-1.621275	1.856715	0.516914	-0.041543	-0.296114	0.008696	0.001164	-0.001794
321	1.638696	0.005000	9.407540	-1.579660	1.931821	0.516691	-0.041655	-0.296363	0.019324	-0.005159	-0.002614
322	1.643696	0.005000	9.393729	-1.632711	1.891205	0.516468	-0.041766	-0.296612	0.011610	-0.008164	0.003827
323	1.648696	0.005000	9.446251	-1.642785	1.883520	0.516852	-0.042138	-0.297055	0.004298	-0.001300	0.000315
324	1.653696	0.005000	9.420520	-1.533280	1.919840	0.517410	-0.042584	-0.297553	0.009883	-0.006947	0.011541
325	1.658696	0.005000	9.418129	-1.531948	1.884049	0.517968	-0.043031	-0.298051	0.018152	-0.001723	-0.000406
326	1.663696	0.005000	9.493766	-1.685006	1.959686	0.518525	-0.043477	-0.298549	0.016068	-0.004025	0.013068
327	1.668696	0.005000	9.426979	-1.648080	1.844280	0.519083	-0.043923	-0.299048	0.010626	-0.002499	0.008078
328	1.673696	0.005000	9.385440	-1.544519	1.901521	0.519641	-0.044369	-0.299546	0.004739	-0.011527	0.014602
329	1.678696	0.005000	9.506956	-1.520905	1.902429	0.520199	-0.044816	-0.300044	0.002942	-0.000590	0.003346
330	1.683696	0.005000	9.507925	-1.624391	1.871675	0.520757	-0.045262	-0.300542	-0.005707	0.000415	-0.005458
331	1.688696	0.005000	9.417600	-1.598039	1.844280	0.521315	-0.045708	-0.301041	-0.003129	-0.010667	0.012148
332	1.693696	0.005000	9.473450	-1.569600	1.928781	0.521872	-0.046154	-0.301539	0.001861	-0.005076	0.002942
333	1.698696	0.005000	9.398386	-1.550386	1.942786	0.522430	-0.046600	-0.302037	-0.003576	-0.008512	0.012188
334	1.703696	0.005000	9.413590	-1.608840	1.857885	0.522988	-0.047047	-0.302535	-0.001173	-0.008188	0.011411
335	1.708696	0.005000	9.487246	-1.512692	1.913926	0.523546	-0.047493	-0.303034	0.000524	-0.008741	0.015474
336	1.713696	0.005000	9.430394	-1.477469	1.949206	0.523792	-0.047494	-0.303085	0.014456	-0.010153	0.015127
337	1.718696	0.005000	9.456840	-1.559220	1.922760	0.523569	-0.046825	-0.302462	0.005672	-0.015512	0.007090
338	1.723696	0.005000	9.472160	-1.624787	2.048453	0.523346	-0.046157	-0.301840	0.007133	-0.006454	0.015558
339	1.728696	0.005000	9.378360	-1.664753	2.074162	0.523123	-0.045488	-0.301218	0.010036	-0.004907	0.006894
340	1.733696	0.005000	9.339120	-1.720252	2.043634	0.522900	-0.044819	-0.300595	0.005498	-0.009686	0.004933
341	1.738696	0.005000	9.379110	-1.609590	2.001990	0.522677	-0.044150	-0.299973	-0.003628	-0.010532	0.001775
342	1.743696	0.005000	9.417600	-1.648080	2.078071	0.522455	-0.043482	-0.299351	0.000031	-0.014461	0.001696
343	1.748696	0.005000	9.339120	-1.604816	2.036456	0.522232	-0.042813	-0.298729	0.002685	-0.016024	0.005211
344	1.753696	0.005000	9.378360	-1.608840	2.066892	0.522009	-0.042144	-0.298106	-0.001179	-0.011424	0.006077
345	1.758696	0.005000	9.487291	-1.569600	1.970789	0.521786	-0.041476	-0.297484	0.006682	-0.011663	0.010173
346	1.763696	0.005000	9.490377	-1.530360	1.950821	0.521563	-0.040807	-0.296862	0.003283	-0.005398	0.006083
347	1.768696	0.005000	9.325402	-1.661798	1.871716	0.521340	-0.040138	-0.296240	-0.002195	-0.010516	-0.000207
348	1.773696	0.005000	9.362229	-1.631949	1.860411	0.521117	-0.039469	-0.295617	0.000786	-0.009949	0.020680
349	1.778696	0.005000	9.475381	-1.590299	1.864979	0.520895	-0.038807	-0.295005	-0.002165	-0.009417	-0.005112
350	1.783696	0.005000	9.441214	-1.548649	1.883520	0.520784	-0.038918	-0.295628	0.011887	-0.015252	0.012277
351	1.788696	0.005000	9.370873	-1.569600	1.962000	0.520672	-0.039030	-0.296250	-0.006821	-0.007739	0.012317
352	1.793696	0.005000	9.417600	-1.583068	2.001240	0.520560	-0.039142	-0.296873	-0.003693	-0.018326	0.005955
353	1.798696	0.005000	9.378360	-1.670188	1.962000	0.520449	-0.039253	-0.297495	0.007888	-0.009041	0.009380
354	1.803696	0.005000	9.409053	-1.695867	1.892067	0.520337	-0.039365	-0.298118	-0.007867	-0.019655	0.005649
355	1.808696	0.005000	9.378360	-1.720403	2.007397	0.520226	-0.039476	-0.298740	-0.001341	-0.022843	0.008640
356	1.813696	0.005000	9.382142	-1.726560	1.891084	0.520114	-0.039588	-0.299363	-0.000996	-0.018732	0.005372
357	1.818696	0.005000	9.378360	-1.723777	1.882128	0.520003	-0.039699	-0.299985	0.006575	-0.015457	0.015268
358	1.823696	0.005000	9.416605	-1.609835	1.729545	0.519891	-0.039811	-0.300608	0.011302	-0.017396	0.009482
359	1.828696	0.005000	9.378360	-1.494519	1.919361	0.519780	-0.039922	-0.301231	-0.000687	-0.012929	0.011139
360	1.833696	0.005000	9.423416	-1.496936	1.922760	0.519668	-0.040034	-0.301853	0.005696	-0.014006	0.013031
361	1.838696	0.005000	9.347342	-1.507563	1.821483	0.519557	-0.040145	-0.302476	-0.005140	-0.005218	0.007739
362	1.843696	0.005000	9.331789	-1.491120	1.773131	0.519445	-0.040257	-0.303098	0.007877	-0.010635	0.015774
363	1.848696	0.005000	9.352164	-1.621991	1.883627	0.519611	-0.040716	-0.302945	0.015860	-0.007144	0.001999
364	1.853696	0.005000	9.339120	-1.601065	1.962000	0.519946	-0.041384	-0.302323	0.011514	-0.009117	0.002033
365	1.858696	0.005000	9.399478	-1.626962	1.904638	0.520280	-0.042053	-0.301701	0.014564	-0.008110	0.014204
366	1.863696	0.005000	9.415845	-1.687320	1.885275	0.520615	-0.042722	-0.301079	0.002871	-0.014885	-0.000225
367	1.868696	0.005000	9.447022	-1.726560	1.876985	0.520949	-0.043391	-0.300456	0.009922	-0.015554	0.005974
368	1.873696	0.005000	9.389645	-1.634102	1.908782	0.521283	-0.044059	-0.299834	0.013243	-0.006985	0.014169
369	1.878696	0.005000	9.333672	-1.670608	1.894784	0.521618	-0.044728	-0.299212	0.008247	-0.011820	-0.000208
370	1.883696	0.005000	9.347969	-1.726560	1.953151	0.521952	-0.045397	-0.298589	0.005588	-0.014441	-0.004233
371	1.888696	0.005000	9.247172	-1.765800	1.949114	0.522287	-0.046065	-0.297967	-0.002069	-0.015094	0.002660
372	1.893696	0.005000	9.452813	-1.644053	1.891573	0.522621	-0.046734	-0.297345	-0.002252	-0.012559	0.002622
373	1.898696	0.005000	9.262262	-1.572844	1.841036	0.522955	-0.047403	-0.296723	-0.009155	-0.009989	-0.004186
374	1.903696	0.005000	9.338333	-1.686533	1.881160	0.523290	-0.048072	-0.296100	0.007085	-0.008310	0.000457
375	1.908696	0.005000	9.417600	-1.648080	1.805040	0.523624	-0.048740	-0.295478	0.002425	-0.016793	-0.002128
376	1.913696	0.005000	9.417600	-1.636873	1.872313	0.523933	-0.049099	-0.295173	0.003030	-0.014661	0.000094
377	1.918696	0.005000	9.401561	-1.577619	1.852299	0.524156	-0.048430	-0.295921	0.004084	-0.014363	-0.002898
378	1.923696	0.005000	9.407174	-1.561639	1.862668	0.524379	-0.047760	-0.296668	0.007409	-0.010063	0.002050
379	1.928696	0.005000	9.496799	-1.582440	2.001959	0.524602	-0.047091	-0.297416	0.008152	-0.010795	0.005666
380	1.933696	0.005000	9.589809	-1.521618	2.031738	0.524825	-0.046421	-0.298163	0.005013	-0.009347	0.005400
381	1.938696	0.005000	9.478419	-1.534278	1.944339	0.525048	-0.045752	-0.298911	0.007547	-0.010942	0.000467
382	1.943696	0.005000	9.397299	-1.627779	1.844280	0.525271	-0.045083	-0.299658	-0.004467	-0.010718	0.000172
383	1.948696	0.005000	9.446387	-1.637627	1.854733	0.525495	-0.044413	-0.300405	-0.000225	-0.008703	-0.014164
384	1.953696	0.005000	9.364186	-1.673146	1.869346	0.525718	-0.043744	-0.301153	0.001602	-0.010585	-0.000051
385	1.958696	0.005000	9.417600	-1.663722	1.938402	0.525941	-0.043075	-0.301900	0.002180	-0.007803	-0.010603
386	1.963696	0.005000	9.427009	-1.558587	1.794027	0.526164	-0.042405	-0.302648	0.013971	-0.010754	0.001151
387	1.968696	0.005000	9.463874	-1.648080	1.876486	0.526387	-0.041736	-0.303395	0.001425	-0.010644	0.001767
388	1.973696	0.005000	9.461484	-1.578888	1.918116	0.526610	-0.041067	-0.304143	-0.004795	-0.000389	-0.001172
389	1.978696	0.005000	9.461378	-1.530360	1.839742	0.526833	-0.040397	-0.304890	0.008667	-0.003822	0.011137
390	1.983696	0.005000	9.496655	-1.491695	1.881795	0.526581	-0.040584	-0.304894	0.018391	-0.002048	0.008142
391	1.988696	0.005000	9.529390	-1.448915	1.802075	0.526246	-0.040919	-0.304769	0.006878	-0.007629	0.010690
392	1.993696	0.005000	9.467520	-1.501800	1.760460	0.525912	-0.041253	-0.304645	0.001542	-0.007723	-0.000154
393	1.998696	0.005000	9.456840	-1.577330	1.915030	0.525577	-0.041588	-0.304520	0.006115	-0.010012	0.003058
394	2.003696	0.005000	9.475870	-1.648080	1.766980	0.525242	-0.041922	-0.304396	0.013884	-0.001549	0.006288
395	2.008696	0.005000	9.456840	-1.582080	1.767600	0.524908	-0.042257	-0.304271	0.017988	-0.000204	-0.001798
396	2.013696	0.005000	9.402730	-1.618340	1.844280	0.524573	-0.042591	-0.304147	0.025371	-0.002928	0.006707
397	2.018696	0.005000	9.417600	-1.687320	1.918427	0.524239	-0.042926	-0.304022	0.022767	0.000869	0.008810
398	2.023696	0.005000	9.496080	-1.628705	1.922760	0.523904	-0.043260	-0.303897	0.030088	-0.005939	0.013653
399	2.028696	0.005000	9.456840	-1.642767	2.040480	0.523570	-0.043595	-0.303773	0.014966	-0.007000	0.011401
400	2.033696	0.005000	9.407469	-1.648080	2.001240	0.523235	-0.043929	-0.303648	0.009069	0.000766	0.006170
401	2.038696	0.005000	9.393318	-1.635939	2.013381	0.522901	-0.044264	-0.303524	0.010976	-0.008541	0.008796
402	2.043696	0.005000	9.417600	-1.579221	1.981998	0.522566	-0.044598	-0.303399	0.003910	0.002234	0.001383
403	2.048696	0.005000	9.417600	-1.623302	1.962000	0.522231	-0.044880	-0.303450	0.011919	-0.010683	-0.000395
404	2.053696	0.005000	9.456840	-1.613696	1.834568	0.521897	-0.045103	-0.303699	-0.001210	-0.017128	0.005736
405	2.058696	0.005000	9.412669	-1.564669	1.736423	0.521562	-0.045326	-0.303948	0.006720	-0.018835	0.000815
406	2.063696	0.005000	9.378451	-1.491120	1.844643	0.521228	-0.045549	-0.304197	0.008270	-0.009559	0.006641
407	2.068696	0.005000	9.490574	-1.637067	1.964753	0.520893	-0.045772	-0.304446	0.002123	-0.005505	0.003963
408	2.073696	0.005000	9.559130	-1.677033	1.888663	0.520559	-0.045995	-0.304695	0.000792	-0.014721	0.007040
409	2.078696	0.005000	9.567042	-1.577118	1.915242	0.520224	-0.046218	-0.304944	-0.008944	-0.008491	-0.005215
410	2.083696	0.005000	9.368845	-1.520845	1.922760	0.519890	-0.046441	-0.305193	-0.001961	-0.012304	0.001315
411	2.088696	0.005000	9.339120	-1.530360	1.856563	0.519555	-0.046664	-0.305442	0.003846	-0.010694	0.012644
412	2.093696	0.005000	9.314553	-1.618733	1.986567	0.519220	-0.046887	-0.305691	-0.002512	-0.020471	0.005484
413	2.098696	0.005000	9.365836	-1.542884	1.979255	0.518886	-0.047110	-0.305940	0.006888	-0.018645	0.019458
414	2.103696	0.005000	9.417753	-1.471462	1.942342	0.518551	-0.047333	-0.306190	-0.001312	-0.013755	0.009887
415	2.108696	0.005000	9.395531	-1.508291	1.927657	0.518217	-0.047556	-0.306439	-0.007095	-0.019039	0.012285
416	2.113696	0.005000	9.353879	-1.623599	1.908001	0.517929	-0.047724	-0.306626	0.001645	-0.013999	0.012288
417	2.118696	0.005000	9.429808	-1.618431	1.934968	0.518152	-0.047278	-0.306128	0.006246	-0.014108	0.004660
418	2.123696	0.005000	9.397771	-1.628669	1.932465	0.518375	-0.046832	-0.305629	0.003234	-0.015001	0.009628
419	2.128696	0.005000	9.371386	-1.594893	1.962000	0.518598	-0.046386	-0.305131	0.009116	-0.016647	0.004115
420	2.133696	0.005000	9.382959	-1.604241	1.996641	0.518821	-0.045940	-0.304633	0.007876	-0.015931	0.004396
421	2.138696	0.005000	9.382777	-1.456297	1.881311	0.519044	-0.045494	-0.304135	-0.001458	-0.013208	0.004790
422	2.143696	0.005000	9.456840	-1.569432	1.805208	0.519267	-0.045048	-0.303637	0.015794	-0.018528	0.017941
423	2.148696	0.005000	9.344293	-1.572186	1.802454	0.519490	-0.044602	-0.303139	0.015009	-0.010076	0.012390
424	2.153696	0.005000	9.406799	-1.671119	1.990439	0.519713	-0.044156	-0.302641	0.012061	-0.012808	0.011254
425	2.158696	0.005000	9.433151	-1.648080	1.930535	0.519936	-0.043710	-0.302143	0.005306	-0.014012	0.005115
426	2.163696	0.005000	9.475511	-1.569600	1.883520	0.520159	-0.043264	-0.301645	0.004079	-0.012036	-0.008320
427	2.168696	0.005000	9.509936	-1.543052	1.856972	0.520382	-0.042818	-0.301147	0.011237	-0.021337	0.015939
428	2.173696	0.005000	9.456840	-1.554495	1.922760	0.520606	-0.042372	-0.300649	0.005901	-0.019343	0.012899
429	2.178696	0.005000	9.435115	-1.626355	1.926970	0.520829	-0.041926	-0.300150	0.015907	-0.021667	0.004637
430	2.183696	0.005000	9.319806	-1.608228	1.981926	0.520662	-0.041480	-0.300000	-0.001027	-0.025583	0.011468
431	2.188696	0.005000	9.439938	-1.569600	1.939662	0.520328	-0.041034	-0.300000	0.011606	-0.020566	0.010895
432	2.193696	0.005000	9.407011	-1.583925	1.908435	0.519993	-0.040588	-0.300000	0.014583	-0.022152	0.013061
433	2.198696	0.005000	9.468791	-1.624179	1.856231	0.519659	-0.040142	-0.300000	0.015612	-0.015141	0.015031
434	2.203696	0.005000	9.417600	-1.628959	1.941881	0.519324	-0.039696	-0.300000	0.011613	-0.019818	0.012010
435	2.208696	0.005000	9.410415	-1.680135	1.922760	0.518990	-0.039250	-0.300000	0.001777	-0.021833	0.012495
436	2.213696	0.005000	9.422395	-1.604045	1.800245	0.518655	-0.038804	-0.300000	-0.002856	-0.020795	0.011745
437	2.218696	0.005000	9.456840	-1.527940	1.922760	0.518321	-0.038358	-0.300000	-0.003598	-0.026085	0.022054
438	2.223696	0.005000	9.417570	-1.491211	1.844280	0.517986	-0.037912	-0.300000	-0.006570	-0.020846	0.010121
439	2.228696	0.005000	9.378360	-1.571973	1.844280	0.517651	-0.037465	-0.300000	-0.005085	-0.024304	0.018377
440	2.233696	0.005000	9.348700	-1.491120	1.814620	0.517317	-0.037019	-0.300000	0.013177	-0.007913	0.014831
441	2.238696	0.005000	9.339120	-1.427797	1.868363	0.516982	-0.036573	-0.300000	0.029096	-0.026486	0.021387
442	2.243696	0.005000	9.309259	-1.598886	1.902853	0.516648	-0.036127	-0.300000	0.041897	-0.028662	0.021581
443	2.248696	0.005000	9.326776	-1.658215	1.986688	0.516558	-0.035926	-0.299883	0.038355	-0.013028	0.005345
444	2.253696	0.005000	9.324401	-1.662799	1.883520	0.517004	-0.036260	-0.299510	0.042464	-0.016398	0.004704
445	2.258696	0.005000	9.383382	-1.648080	1.866411	0.517450	-0.036595	-0.299136	0.040063	-0.010037	0.012810
446	2.263696	0.005000	9.476596	-1.628324	1.883792	0.517896	-0.036929	-0.298762	0.054352	-0.005023	0.022743
447	2.268696	0.005000	9.535320	-1.670210	2.001240	0.518342	-0.037264	-0.298389	0.041084	0.001432	0.015401
448	2.273696	0.005000	9.451107	-1.593849	2.055471	0.518788	-0.037598	-0.298015	0.038374	-0.015305	0.021630
449	2.278696	0.005000	9.353158	-1.621441	2.015278	0.519234	-0.037933	-0.297642	0.035605	-0.015482	0.028013
450	2.283696	0.005000	9.407725	-1.667570	1.981750	0.519680	-0.038268	-0.297268	0.032511	0.001584	0.015674
451	2.288696	0.005000	9.378360	-1.593897	1.905934	0.520126	-0.038602	-0.296895	0.042359	-0.016581	0.012520
452	2.293696	0.005000	9.491014	-1.608840	1.996174	0.520572	-0.038937	-0.296521	0.027225	0.000739	0.019667
453	2.298696	0.005000	9.451543	-1.679374	1.962000	0.521018	-0.039271	-0.296148	0.036112	-0.009021	0.016720
454	2.303696	0.005000	9.495590	-1.569845	1.884010	0.521464	-0.039606	-0.295774	0.035306	-0.009480	0.025384
455	2.308696	0.005000	9.343416	-1.608840	1.962000	0.521910	-0.039940	-0.295400	0.030963	-0.009273	0.007135
456	2.313696	0.005000	9.373837	-1.678274	2.070674	0.522356	-0.040275	-0.295027	0.032589	-0.004829	0.018926
457	2.318696	0.005000	9.482254	-1.687320	2.086633	0.521042	-0.041955	-0.292341	0.033746	-0.002345	0.016326
458	2.323696	0.005000	9.396936	-1.795752	2.079720	0.519592	-0.043740	-0.289476	0.019417	-0.003272	0.009511
459	2.328696	0.005000	9.456840	-1.781684	1.997035	0.518142	-0.045525	-0.286611	-0.002764	-0.002893	0.008075
460	2.333696	0.005000	9.456840	-1.687320	1.883520	0.516691	-0.047310	-0.283746	-0.020142	-0.007953	0.006093
461	2.338696	0.005000	9.434236	-1.743196	1.962000	0.515241	-0.049095	-0.280880	-0.026592	-0.012529	0.014358
462	2.343696	0.005000	9.378360	-1.726560	1.884668	0.513791	-0.050880	-0.278015	-0.022588	-0.003248	0.013359
463	2.348696	0.005000	9.339120	-1.587383	1.908650	0.512341	-0.052665	-0.275150	-0.014409	-0.018795	0.019549
464	2.353696	0.005000	9.339120	-1.578097	1.868149	0.510890	-0.054450	-0.272285	-0.009977	-0.013729	0.020433
465	2.358696	0.005000	9.351933	-1.439067	1.830666	0.509440	-0.056234	-0.269420	-0.016004	-0.024853	0.019128
466	2.363696	0.005000	9.407177	-1.530360	1.865125	0.507990	-0.058019	-0.266555	-0.018436	-0.013567	0.019140
467	2.368696	0.005000	9.464888	-1.569600	1.930808	0.506540	-0.059804	-0.263690	-0.015291	-0.008780	0.011254
468	2.373696	0.005000	9.501738	-1.681662	1.922760	0.505089	-0.061589	-0.260824	0.001789	-0.014220	0.016988
469	2.378696	0.005000	9.558147	-1.677472	1.844280	0.503639	-0.063374	-0.257959	0.012249	-0.011534	0.019821
470	2.383696	0.005000	9.379268	-1.571415	1.882612	0.503352	-0.063689	-0.257487	0.030126	-0.009764	0.008572
471	2.388696	0.005000	9.493080	-1.685820	1.882020	0.504021	-0.062798	-0.258980	0.021180	-0.014537	0.017791
472	2.393696	0.005000	9.417600	-1.652406	1.944694	0.504690	-0.061906	-0.260474	0.029732	-0.012409	0.007522
473	2.398696	0.005000	9.385061	-1.726560	1.968701	0.505358	-0.061015	-0.261968	0.028156	-0.010011	0.008799
474	2.403696	0.005000	9.408509	-1.756709	1.962000	0.506027	-0.060123	-0.263461	0.009004	-0.012126	0.015868
475	2.408696	0.005000	9.378360	-1.675854	1.978307	0.506696	-0.059231	-0.264955	0.021437	-0.010539	0.019008
476	2.413696	0.005000	9.468367	-1.611170	1.897377	0.507365	-0.058340	-0.266448	0.032173	-0.012776	0.014611
477	2.418696	0.005000	9.440608	-1.537137	1.962000	0.508033	-0.057448	-0.267942	0.027517	-0.003359	0.014356
478	2.423696	0.005000	9.516698	-1.586225	1.862902	0.508702	-0.056556	-0.269435	0.039675	-0.001517	0.022949
479	2.428696	0.005000	9.538581	-1.548349	1.787051	0.509371	-0.055665	-0.270929	0.031920	-0.003289	0.018919
480	2.433696	0.005000	9.433180	-1.600759	1.844280	0.510039	-0.054773	-0.272422	0.032856	-0.006760	0.020381
481	2.438696	0.005000	9.508986	-1.556433	1.726560	0.510708	-0.053881	-0.273916	0.028590	-0.009402	0.019624
482	2.443696	0.005000	9.467599	-1.469602	1.794281	0.511377	-0.052990	-0.275409	0.026255	-0.007814	0.012725
483	2.448696	0.005000	9.566216	-1.451880	1.790832	0.511993	-0.052151	-0.276943	0.025520	-0.007671	0.025036
484	2.453696	0.005000	9.456840	-1.502996	1.877582	0.512328	-0.051593	-0.278687	0.021540	-0.002406	0.018238
485	2.458696	0.005000	9.489121	-1.569600	1.990802	0.512662	-0.051035	-0.280431	0.020609	0.000787	0.023921
486	2.463696	0.005000	9.419809	-1.530360	2.002344	0.512997	-0.050477	-0.282175	0.018448	-0.005070	0.011915
487	2.468696	0.005000	9.534019	-1.530360	1.888723	0.513332	-0.049920	-0.283919	0.030903	-0.018256	0.018028
488	2.473696	0.005000	9.492375	-1.601430	1.919055	0.513666	-0.049362	-0.285663	0.020717	-0.005274	0.014585
489	2.478696	0.005000	9.456840	-1.608840	1.910542	0.514001	-0.048804	-0.287407	0.010589	-0.009010	0.019303
490	2.483696	0.005000	9.447960	-1.696200	1.862039	0.514336	-0.048246	-0.289151	0.006133	-0.005780	0.015539
491	2.488696	0.005000	9.456840	-1.620110	1.844280	0.514671	-0.047688	-0.290895	-0.005178	-0.006694	0.006447
492	2.493696	0.005000	9.431245	-1.687320	1.844280	0.515005	-0.047131	-0.292639	0.001096	-0.012259	0.011753
493	2.498696	0.005000	9.426465	-1.608840	1.938795	0.515340	-0.046573	-0.294383	-0.007908	-0.005376	0.013418
494	2.503696	0.005000	9.362371	-1.744970	1.881100	0.515675	-0.046015	-0.296127	-0.000566	-0.017213	0.005315
495	2.508696	0.005000	9.396800	-1.828200	1.920400	0.516009	-0.045457	-0.297871	-0.006099	-0.014493	0.018945
496	2.513696	0.005000	9.339120	-1.569600	1.860345	0.516344	-0.044899	-0.299615	-0.001167	-0.017529	0.011381
497	2.518696	0.005000	9.339120	-1.557710	1.832390	0.516592	-0.045037	-0.300194	-0.001367	-0.009535	0.014161
498	2.523696	0.005000	9.367398	-1.626156	1.798686	0.516815	-0.045371	-0.300443	-0.019689	-0.007639	0.005127
499	2.528696	0.005000	9.409045	-1.573135	1.944890	0.517038	-0.045706	-0.300692	-0.008603	-0.017581	0.005024
500	2.533696	0.005000	9.326841	-1.648080	1.850419	0.517261	-0.046041	-0.300941	-0.016688	-0.015425	-0.000159
501	2.538696	0.005000	9.335386	-1.648080	1.844280	0.517484	-0.046376	-0.301191	-0.013916	-0.020421	0.008476
502	2.543696	0.005000	9.414967	-1.683370	1.884837	0.517707	-0.046710	-0.301440	-0.010713	-0.020441	-0.001386
503	2.548696	0.005000	9.300954	-1.607766	1.960926	0.517930	-0.047045	-0.301689	-0.019645	-0.007954	-0.002040
504	2.553696	0.005000	9.410672	-1.648080	1.851208	0.518154	-0.047380	-0.301938	-0.002431	-0.011301	0.012183
505	2.558696	0.005000	9.429278	-1.603001	1.877681	0.518377	-0.047714	-0.302187	-0.008282	-0.001173	-0.004325
506	2.563696	0.005000	9.355578	-1.592382	1.860738	0.518600	-0.048049	-0.302436	0.000754	-0.011208	-0.001855
507	2.568696	0.005000	9.328516	-1.655507	1.894124	0.518823	-0.048384	-0.302685	-0.004936	-0.009800	-0.004724
508	2.573696	0.005000	9.417903	-1.608840	1.843977	0.519046	-0.048718	-0.302934	-0.001222	-0.015379	-0.012421
509	2.578696	0.005000	9.496080	-1.648080	1.891662	0.519269	-0.049053	-0.303184	0.012049	-0.010419	0.011622
510	2.583696	0.005000	9.414278	-1.608840	1.862239	0.519537	-0.049076	-0.303333	0.005726	-0.005051	-0.003888
511	2.588696	0.005000	9.339120	-1.629428	1.922760	0.519871	-0.048630	-0.303333	0.024232	-0.007192	-0.007413
512	2.593696	0.005000	9.394818	-1.625298	2.007563	0.520206	-0.048184	-0.303333	0.020282	-0.012217	0.004772
513	2.598696	0.005000	9.417600	-1.662129	1.819089	0.520540	-0.047738	-0.303333	0.015745	-0.011329	-0.001241
514	2.603696	0.005000	9.350756	-1.648080	1.844280	0.520875	-0.047292	-0.303333	0.008532	-0.008887	0.002510
515	2.608696	0.005000	9.507635	-1.696548	1.825823	0.521210	-0.046845	-0.303333	0.009864	-0.002705	-0.001752
516	2.613696	0.005000	9.431226	-1.648080	1.851093	0.521544	-0.046399	-0.303333	0.003230	-0.010829	0.006461
517	2.618696	0.005000	9.517893	-1.709133	1.970713	0.521879	-0.045953	-0.303333	-0.009426	-0.003650	0.010343
518	2.623696	0.005000	9.421533	-1.569600	1.877620	0.522213	-0.045507	-0.303333	-0.005775	-0.009055	0.006643
519	2.628696	0.005000	9.457253	-1.491947	1.843453	0.522548	-0.045061	-0.303333	-0.016999	-0.005607	0.009062
520	2.633696	0.005000	9.490417	-1.457543	2.037649	0.522882	-0.044615	-0.303333	-0.019121	0.005889	0.002165
521	2.638696	0.005000	9.472548	-1.485884	2.001240	0.523217	-0.044169	-0.303333	-0.011327	-0.010005	0.006295
522	2.643696	0.005000	9.409948	-1.530360	1.725581	0.523551	-0.043723	-0.303333	-0.011178	0.001527	0.007268
523	2.648696	0.005000	9.475962	-1.540419	1.834221	0.523878	-0.043281	-0.303335	-0.005560	-0.007620	0.004923
524	2.653696	0.005000	9.404818	-1.608840	1.805040	0.523655	-0.043058	-0.303459	-0.015893	-0.001558	0.002336
525	2.658696	0.005000	9.450608	-1.593683	1.868363	0.523432	-0.042835	-0.303584	-0.005319	-0.001657	-0.015514
526	2.663696	0.005000	9.439292	-1.630532	1.944452	0.523209	-0.042612	-0.303708	0.002339	-0.002606	0.006824
527	2.668696	0.005000	9.398283	-1.608840	1.980712	0.522986	-0.042389	-0.303833	-0.003200	0.000146	0.010212
528	2.673696	0.005000	9.383745	-1.631153	1.810425	0.522763	-0.042166	-0.303957	-0.008364	-0.011548	0.006302
529	2.678696	0.005000	9.328985	-1.530360	1.902490	0.522540	-0.041943	-0.304082	-0.000652	-0.004023	0.008604
530	2.683696	0.005000	9.363445	-1.569600	1.989078	0.522317	-0.041720	-0.304206	0.004307	-0.002485	-0.002225
531	2.688696	0.005000	9.437175	-1.648080	1.942335	0.522094	-0.041497	-0.304331	0.010582	-0.001889	0.008713
532	2.693696	0.005000	9.488683	-1.601443	2.025686	0.521871	-0.041274	-0.304455	0.014872	0.000217	0.004079
533	2.698696	0.005000	9.388404	-1.574622	1.972044	0.521649	-0.041052	-0.304580	0.003283	-0.004274	0.015963
534	2.703696	0.005000	9.380992	-1.488488	1.922760	0.521426	-0.040829	-0.304704	0.000291	0.002465	0.011507
535	2.708696	0.005000	9.456628	-1.529936	1.922760	0.521203	-0.040606	-0.304829	0.005876	-0.006738	0.012757
536	2.713696	0.005000	9.459427	-1.530360	1.959413	0.520980	-0.040383	-0.304953	0.014058	-0.001552	0.014198
537	2.718696	0.005000	9.393291	-1.486143	1.981333	0.520896	-0.040438	-0.305000	0.008968	-0.005118	0.006585
538	2.723696	0.005000	9.410248	-1.601488	1.922760	0.520896	-0.040661	-0.305000	0.003190	-0.010604	0.020264
539	2.728696	0.005000	9.466582	-1.471364	1.981484	0.520896	-0.040884	-0.305000	0.005550	-0.010572	0.020010
540	2.733696	0.005000	9.417600	-1.505833	2.028217	0.520896	-0.041107	-0.305000	0.012748	-0.010151	0.011345
541	2.738696	0.005000	9.481403	-1.530360	1.819717	0.520896	-0.041330	-0.305000	0.011939	-0.002760	0.007475
542	2.743696	0.005000	9.395446	-1.591754	1.805040	0.520896	-0.041553	-0.305000	0.008858	-0.008331	0.011746
543	2.748696	0.005000	9.397590	-1.648080	1.883520	0.520896	-0.041776	-0.305000	0.015254	-0.015367	0.014128
544	2.753696	0.005000	9.429777	-1.625979	1.861419	0.520896	-0.041999	-0.305000	0.003220	-0.008233	-0.003940
545	2.758696	0.005000	9.393109	-1.613847	1.883520	0.520896	-0.042222	-0.305000	-0.001139	-0.012143	0.008395
546	2.763696	0.005000	9.403108	-1.753426	1.947508	0.520896	-0.042445	-0.305000	-0.016702	-0.015737	0.006607
547	2.768696	0.005000	9.388344	-1.667352	1.971984	0.520896	-0.042668	-0.305000	-0.018120	-0.011890	0.020599
548	2.773696	0.005000	9.464449	-1.648080	1.844280	0.520896	-0.042891	-0.305000	-0.015021	-0.011389	0.021174
549	2.778696	0.005000	9.407162	-1.624497	1.888739	0.520896	-0.043114	-0.305000	-0.016354	-0.023809	0.007623
550	2.783696	0.005000	9.299880	-1.760112	1.962000	0.520896	-0.043311	-0.305000	-0.018371	-0.019591	0.012392
551	2.788696	0.005000	9.416692	-1.686866	1.883520	0.520896	-0.043422	-0.305000	-0.019233	-0.016946	0.000511
552	2.793696	0.005000	9.227233	-1.648080	1.771633	0.520896	-0.043534	-0.305000	-0.016301	-0.020019	0.012863
553	2.798696	0.005000	9.334355	-1.505415	1.765800	0.520896	-0.043645	-0.305000	-0.021517	-0.017807	0.010909
554	2.803696	0.005000	9.410445	-1.601685	1.740870	0.520896	-0.043757	-0.305000	-0.015607	-0.016725	0.001548
555	2.808696	0.005000	9.260640	-1.599310	1.795510	0.520896	-0.043868	-0.305000	-0.004055	-0.027569	0.018459
556	2.813696	0.005000	9.327200	-1.636160	1.883520	0.520896	-0.043979	-0.305000	-0.018019	-0.017006	-0.001415
557	2.818696	0.005000	9.310530	-1.673025	1.701615	0.520896	-0.044091	-0.305000	-0.010700	-0.011842	0.019976
558	2.823696	0.005000	9.339120	-1.586285	1.765800	0.520896	-0.044202	-0.305000	-0.013386	-0.006702	0.014609
559	2.828696	0.005000	9.339120	-1.708619	1.708619	0.520896	-0.044314	-0.305000	-0.002535	-0.005719	0.003337
560	2.833696	0.005000	9.378360	-1.687320	1.762139	0.520896	-0.044425	-0.305000	0.000228	-0.007458	0.011266
561	2.838696	0.005000	9.417600	-1.711145	1.835869	0.520896	-0.044537	-0.305000	0.006867	-0.005076	-0.003029
562	2.843696	0.005000	9.312603	-1.726560	1.778523	0.520896	-0.044648	-0.305000	0.018154	0.003826	0.002759
563	2.848696	0.005000	9.398990	-1.844280	1.776115	0.520896	-0.044760	-0.305000	0.009164	0.004607	-0.003588
564	2.853696	0.005000	9.378360	-1.805040	1.867720	0.520705	-0.044586	-0.305000	0.007634	0.000604	-0.000184
565	2.858696	0.005000	9.496080	-1.822303	1.849774	0.520482	-0.044363	-0.305000	0.014463	0.014522	0.008244
566	2.863696	0.005000	9.499121	-1.723519	1.808081	0.520259	-0.044140	-0.305000	0.014440	0.004029	-0.008938
567	2.868696	0.005000	9.572563	-1.570266	1.806371	0.520036	-0.043917	-0.305000	0.010776	-0.000113	-0.009395
568	2.873696	0.005000	9.381849	-1.571345	1.883520	0.519813	-0.043694	-0.305000	0.012649	0.007562	-0.010385
569	2.878696	0.005000	9.413451	-1.565451	1.883520	0.519590	-0.043470	-0.305000	0.015051	0.007979	0.001649
570	2.883696	0.005000	9.299880	-1.641514	1.896651	0.519367	-0.043247	-0.305000	0.013439	0.006568	-0.002220
571	2.888696	0.005000	9.299880	-1.597600	1.844280	0.519144	-0.043024	-0.305000	0.010018	0.002810	-0.017960
572	2.893696	0.005000	9.405892	-1.597132	1.871812	0.518921	-0.042801	-0.305000	0.016351	0.010144	-0.001229
573	2.898696	0.005000	9.339120	-1.544459	1.947901	0.518698	-0.042578	-0.305000	0.011947	0.014085	-0.002810
574	2.903696	0.005000	9.394834	-1.491120	1.978474	0.518475	-0.042355	-0.305000	0.022759	0.002897	-0.005553
575	2.908696	0.005000	9.437976	-1.509984	1.940111	0.518252	-0.042132	-0.305000	0.031014	0.002008	-0.001291
576	2.913696	0.005000	9.492329	-1.487369	2.029227	0.518028	-0.041909	-0.305000	0.025923	0.000651	0.003555
577	2.918696	0.005000	9.472451	-1.522343	2.072126	0.518119	-0.041791	-0.304825	0.006002	0.005814	0.004459
578	2.923696	0.005000	9.483313	-1.582367	1.935996	0.518565	-0.041791	-0.304451	0.022584	0.000428	0.003142
579	2.928696	0.005000	9.478532	-1.501966	2.001240	0.519011	-0.041791	-0.304078	0.026797	-0.007030	0.003166
580	2.933696	0.005000	9.439898	-1.586542	2.110489	0.519458	-0.041791	-0.303704	0.026633	0.002769	0.002374
581	2.938696	0.005000	9.456840	-1.654176	2.013433	0.519904	-0.041791	-0.303331	0.024947	-0.004490	0.007767
582	2.943696	0.005000	9.460130	-1.572890	2.076430	0.520350	-0.041791	-0.302957	0.017706	-0.004634	0.007692
583	2.948696	0.005000	9.419345	-1.687320	1.923633	0.520796	-0.041791	-0.302583	0.030924	-0.011711	0.005666
584	2.953696	0.005000	9.420625	-1.649593	2.075182	0.521242	-0.041791	-0.302210	0.007360	-0.014484	0.013533
585	2.958696	0.005000	9.492177	-1.565697	2.197440	0.521688	-0.041791	-0.301836	0.014749	-0.021642	0.011515
586	2.963696	0.005000	9.503931	-1.648080	2.145644	0.522134	-0.041791	-0.301463	0.015411	-0.025574	0.019908
587	2.968696	0.005000	9.496080	-1.757132	2.088388	0.522580	-0.041791	-0.301089	0.009778	-0.022643	0.015098
588	2.973696	0.005000	9.467883	-1.687320	2.079720	0.523026	-0.041791	-0.300716	0.000808	-0.034416	0.004750
589	2.978696	0.005000	9.391793	-1.661513	2.158200	0.523472	-0.041791	-0.300342	0.000850	-0.035687	0.015997
590	2.983696	0.005000	9.424842	-1.703319	2.102961	0.523825	-0.041763	-0.300021	-0.002630	-0.035258	0.016450
591	2.988696	0.005000	9.355113	-1.509531	2.058891	0.523156	-0.041429	-0.300270	-0.000825	-0.042380	0.007062
592	2.993696	0.005000	9.359942	-1.648080	1.962000	0.522487	-0.041094	-0.300519	-0.012390	-0.041295	0.007216
593	2.998696	0.005000	9.417600	-1.671312	2.001240	0.521818	-0.040760	-0.300768	-0.018339	-0.046887	0.009780
594	3.003696	0.005000	9.417600	-1.634485	1.962000	0.521150	-0.040425	-0.301016	-0.016195	-0.043162	0.023545
595	3.008696	0.005000	9.473705	-1.608840	1.922760	0.520481	-0.040091	-0.301265	-0.003341	-0.045872	0.007292
596	3.013696	0.005000	9.400055	-1.608840	1.905215	0.519812	-0.039757	-0.301514	-0.011885	-0.047883	0.015549
597	3.018696	0.005000	9.384653	-1.608840	1.949414	0.519143	-0.039422	-0.301763	-0.006469	-0.044866	0.009130
598	3.023696	0.005000	9.374410	-1.604890	1.918810	0.518474	-0.039088	-0.302012	0.001246	-0.046921	0.022254
599	3.028696	0.005000	9.417600	-1.492666	1.880427	0.517806	-0.038753	-0.302261	0.005419	-0.040332	0.015538
600	3.033696	0.005000	9.379207	-1.607146	1.766647	0.517137	-0.038419	-0.302510	0.006186	-0.042545	0.015293
601	3.038696	0.005000	9.460077	-1.612077	1.805040	0.516468	-0.038085	-0.302759	0.002375	-0.037243	0.012245
602	3.043696	0.005000	9.417600	-1.648080	1.810652	0.515799	-0.037750	-0.303008	0.001665	-0.038928	0.004887
603	3.048696	0.005000	9.307882	-1.679318	1.844280	0.515130	-0.037416	-0.303257	0.005729	-0.036946	0.013513
604	3.053696	0.005000	9.367983	-1.540737	1.776177	0.515389	-0.038627	-0.302988	0.001386	-0.034169	0.016350
605	3.058696	0.005000	9.378360	-1.608840	1.726560	0.516058	-0.040524	-0.302490	0.021380	-0.031203	0.014257
606	3.063696	0.005000	9.393502	-1.530360	1.765800	0.516728	-0.042420	-0.301991	0.008705	-0.026389	0.008363
607	3.068696	0.005000	9.395892	-1.587132	1.761625	0.517397	-0.044317	-0.301493	0.000614	-0.034816	0.001531
608	3.073696	0.005000	9.378360	-1.570175	1.745318	0.518066	-0.046213	-0.300995	0.005158	-0.025079	0.004275
609	3.078696	0.005000	9.456840	-1.603485	1.726560	0.518736	-0.048110	-0.300497	0.001255	-0.014140	-0.007569
610	3.083696	0.005000	9.442571	-1.633811	1.740829	0.519405	-0.050006	-0.299998	0.003612	-0.026213	0.014774
611	3.088696	0.005000	9.368890	-1.593955	1.714383	0.520075	-0.051903	-0.299500	0.001511	-0.019077	0.003473
612	3.093696	0.005000	9.260640	-1.648080	1.657882	0.520744	-0.053800	-0.299002	0.011814	-0.018262	0.002105
613	3.098696	0.005000	9.353945	-1.733972	1.765800	0.521414	-0.055696	-0.298504	0.012184	-0.011207	0.006301
614	3.103696	0.005000	9.422224	-1.678073	1.648080	0.522083	-0.057593	-0.298005	0.010326	-0.007631	-0.002184
615	3.108696	0.005000	9.415381	-1.608840	1.691758	0.522752	-0.059489	-0.297507	0.006621	-0.004080	0.012316
616	3.113696	0.005000	9.378360	-1.608840	1.765800	0.523422	-0.061386	-0.297009	0.006931	0.001900	0.006836
617	3.118696	0.005000	9.493508	-1.613983	1.729132	0.523846	-0.062197	-0.296823	0.006305	-0.004870	0.001707
618	3.123696	0.005000	9.260640	-1.648080	1.834387	0.523734	-0.060636	-0.297321	0.008077	-0.002851	0.002129
619	3.128696	0.005000	9.395590	-1.608840	1.836943	0.523623	-0.059075	-0.297819	0.010928	0.004517	-0.007759
620	3.133696	0.005000	9.329015	-1.589023	1.795328	0.523511	-0.057513	-0.298317	0.003058	0.009773	-0.010077
621	3.138696	0.005000	9.354156	-1.542462	1.620942	0.523400	-0.055952	-0.298815	0.010621	0.010977	-0.007120
622	3.143696	0.005000	9.339120	-1.530360	1.868868	0.523288	-0.054391	-0.299313	0.013927	0.002783	0.000146
623	3.148696	0.005000	9.412488	-1.557647	1.827216	0.523177	-0.052830	-0.299811	0.010730	0.018358	-0.005328
624	3.153696	0.005000	9.398416	-1.569891	1.922760	0.523065	-0.051269	-0.300309	0.012296	0.017778	-0.006184
625	3.158696	0.005000	9.321765	-1.660905	1.787685	0.522954	-0.049708	-0.300807	0.014411	0.008286	-0.005601
626	3.163696	0.005000	9.408245	-1.663023	1.790097	0.522842	-0.048147	-0.301305	0.006283	0.021329	0.002593
627	3.168696	0.005000	9.572922	-1.662252	1.712388	0.522731	-0.046586	-0.301804	0.000114	0.023216	0.006377
628	3.173696	0.005000	9.417600	-1.579720	1.805040	0.522619	-0.045024	-0.302302	0.005429	0.020723	0.004834
629	3.178696	0.005000	9.479712	-1.482376	1.891144	0.522507	-0.043463	-0.302800	0.011127	0.013711	-0.002890
630	3.183696	0.005000	9.485612	-1.467582	1.956766	0.522396	-0.041902	-0.303298	-0.000736	0.014330	0.011297
631	3.188696	0.005000	9.381219	-1.572459	1.889238	0.522492	-0.041895	-0.303333	0.006365	0.012852	-0.002174
632	3.193696	0.005000	9.456371	-1.491120	1.883989	0.522603	-0.042006	-0.303333	0.007259	0.020574	0.007573
633	3.198696	0.005000	9.454911	-1.528431	1.960071	0.522715	-0.042118	-0.303333	-0.002542	0.025883	0.003631
634	3.203696	0.005000	9.535320	-1.595842	1.953334	0.522826	-0.042229	-0.303333	0.000214	0.016337	0.002223
635	3.208696	0.005000	9.474705	-1.640955	1.962000	0.522938	-0.042341	-0.303333	0.004495	0.011239	-0.000367
636	3.213696	0.005000	9.466355	-1.717045	2.040480	0.523049	-0.042452	-0.303333	0.005776	0.012909	0.005004
637	3.218696	0.005000	9.417600	-1.726560	1.934650	0.523161	-0.042564	-0.303333	-0.001845	0.007513	0.012736
638	3.223696	0.005000	9.417600	-1.701600	2.001240	0.523272	-0.042675	-0.303333	-0.005676	0.015147	0.004876
639	3.228696	0.005000	9.322465	-1.715835	1.939415	0.523383	-0.042786	-0.303333	-0.005620	0.010434	0.014443
640	3.233696	0.005000	9.377656	-1.825012	1.923464	0.523495	-0.042898	-0.303333	-0.011836	0.013701	0.006949
641	3.238696	0.005000	9.371159	-1.805040	2.001240	0.523606	-0.043009	-0.303333	-0.014882	0.012085	0.012158
642	3.243696	0.005000	9.471991	-1.720346	1.953062	0.523718	-0.043121	-0.303333	-0.016973	0.014923	0.004800
643	3.248696	0.005000	9.469578	-1.661844	1.934472	0.523829	-0.043232	-0.303333	-0.029999	0.007589	-0.011358
644	3.253696	0.005000	9.485750	-1.540690	2.061141	0.523581	-0.043284	-0.302529	-0.018355	0.009227	0.003183
645	3.258696	0.005000	9.480249	-1.608840	2.118960	0.523023	-0.043284	-0.301034	-0.018069	0.002020	-0.001479
646	3.263696	0.005000	9.378360	-1.519341	2.074210	0.522465	-0.043284	-0.299539	-0.030648	-0.011155	0.013869
647	3.268696	0.005000	9.414544	-1.566544	1.955889	0.521908	-0.043284	-0.298044	-0.044070	-0.007932	0.012977
648	3.273696	0.005000	9.379041	-1.531041	1.845641	0.521350	-0.043284	-0.296550	-0.056450	0.001555	0.007394
649	3.278696	0.005000	9.492621	-1.607111	1.922760	0.520792	-0.043284	-0.295055	-0.047673	-0.004913	0.007627
650	3.283696	0.005000	9.390761	-1.600573	1.887654	0.520234	-0.043284	-0.293560	-0.035366	-0.001224	0.002220
651	3.288696	0.005000	9.424150	-1.543460	1.948900	0.519676	-0.043284	-0.292065	-0.014690	-0.005666	0.010617
652	3.293696	0.005000	9.369404	-1.569600	1.901433	0.519118	-0.043284	-0.290570	-0.021888	-0.013159	0.004763
653	3.298696	0.005000	9.339120	-1.541720	1.900040	0.518561	-0.043284	-0.289075	-0.016481	-0.016667	0.005937
654	3.303696	0.005000	9.364292	-1.566635	1.947932	0.518003	-0.043284	-0.287580	-0.026437	-0.022237	0.005683
655	3.308696	0.005000	9.423923	-1.608840	1.906302	0.517445	-0.043284	-0.286085	-0.022040	-0.013663	0.002486
656	3.313696	0.005000	9.475673	-1.509953	1.922760	0.516887	-0.043284	-0.284590	-0.008491	-0.016066	0.012950
657	3.318696	0.005000	9.496080	-1.527153	1.980017	0.516294	-0.043443	-0.283254	0.005418	-0.007713	0.001114
658	3.323696	0.005000	9.386317	-1.702962	1.946358	0.515513	-0.044447	-0.282756	0.020223	-0.011449	0.011493
659	3.328696	0.005000	9.377846	-1.726560	1.896257	0.514733	-0.045450	-0.282258	0.020275	-0.008321	0.009258
660	3.333696	0.005000	9.406724	-1.665567	1.905273	0.513952	-0.046454	-0.281760	0.029363	-0.013413	0.013694
661	3.338696	0.005000	9.402740	-1.592587	1.962000	0.513172	-0.047457	-0.281262	0.021989	-0.013080	0.005303
662	3.343696	0.005000	9.333409	-1.524649	1.962000	0.512391	-0.048461	-0.280764	0.005136	-0.011618	0.011414
663	3.348696	0.005000	9.303186	-1.533666	2.001240	0.511611	-0.049464	-0.280266	0.016920	-0.014731	0.012087
664	3.353696	0.005000	9.299880	-1.569600	1.962888	0.510830	-0.050468	-0.279768	0.011684	-0.014152	0.006974
665	3.358696	0.005000	9.413107	-1.531858	1.963498	0.510049	-0.051471	-0.279270	0.024377	-0.020534	0.007330
666	3.363696	0.005000	9.390023	-1.538135	1.965888	0.509269	-0.052475	-0.278772	0.019853	-0.016893	0.004770
667	3.368696	0.005000	9.378360	-1.596315	1.916497	0.508488	-0.053478	-0.278274	0.008623	-0.017395	0.000568
668	3.373696	0.005000	9.361054	-1.608840	1.953347	0.507708	-0.054482	-0.277776	0.011752	-0.022923	0.008903
669	3.378696	0.005000	9.456840	-1.519332	1.984055	0.506927	-0.055485	-0.277278	0.017014	-0.013513	0.008334
670	3.383696	0.005000	9.470415	-1.528875	1.885005	0.506147	-0.056489	-0.276780	0.020569	-0.020524	0.010541
671	3.388696	0.005000	9.417600	-1.585584	1.860264	0.506574	-0.055681	-0.277052	0.008619	-0.016287	0.009406
672	3.393696	0.005000	9.378360	-1.548748	1.883520	0.507355	-0.054343	-0.277550	-0.000721	-0.013042	-0.003357
673	3.398696	0.005000	9.417600	-1.588042	1.823482	0.508135	-0.053004	-0.278048	-0.002933	-0.008869	0.011106
674	3.403696	0.005000	9.394198	-1.569600	1.922760	0.508916	-0.051666	-0.278546	-0.000048	-0.014789	-0.003053
675	3.408696	0.005000	9.352583	-1.608840	1.922760	0.509696	-0.050328	-0.279044	0.012140	-0.007915	0.007920
676	3.413696	0.005000	9.445767	-1.648080	1.833207	0.510477	-0.048990	-0.279542	0.014145	-0.011740	0.009399
677	3.418696	0.005000	9.439444	-1.608840	1.826884	0.511257	-0.047652	-0.280040	0.006369	-0.013177	0.009030
678	3.423696	0.005000	9.430216	-1.635464	1.811348	0.512038	-0.046314	-0.280539	-0.002924	-0.013575	0.014033
679	3.428696	0.005000	9.378360	-1.533866	1.844280	0.512819	-0.044976	-0.281037	-0.008765	-0.009784	0.002490
680	3.433696	0.005000	9.379462	-1.606636	1.921658	0.513599	-0.043638	-0.281535	-0.007717	-0.009895	0.014348
681	3.438696	0.005000	9.455539	-1.568299	1.845581	0.514380	-0.042300	-0.282033	-0.004035	-0.005417	0.010112
682	3.443696	0.005000	9.464192	-1.605164	1.808716	0.515160	-0.040962	-0.282531	-0.003527	-0.006873	0.004977
683	3.448696	0.005000	9.523188	-1.648080	1.883520	0.515941	-0.039624	-0.283029	0.000866	-0.013649	0.009036
684	3.453696	0.005000	9.386903	-1.648080	1.892063	0.516548	-0.038719	-0.283914	0.007308	-0.010969	0.010943
685	3.458696	0.005000	9.389318	-1.641713	1.815998	0.516883	-0.038496	-0.285409	-0.006647	-0.010763	0.014114
686	3.463696	0.005000	9.326612	-1.634714	1.805040	0.517218	-0.038273	-0.286904	-0.011802	-0.003533	-0.000143
687	3.468696	0.005000	9.441061	-1.703099	1.789261	0.517552	-0.038050	-0.288399	-0.013979	-0.007361	0.006837
688	3.473696	0.005000	9.475028	-1.653806	1.765800	0.517887	-0.037827	-0.289894	-0.016027	-0.000122	0.001721
689	3.478696	0.005000	9.458799	-1.668679	1.761882	0.518222	-0.037604	-0.291389	-0.012876	-0.003018	0.014266
690	3.483696	0.005000	9.394410	-1.601700	1.788990	0.518556	-0.037381	-0.292884	-0.001503	0.001295	0.012412
691	3.488696	0.005000	9.392020	-1.622500	1.832360	0.518891	-0.037157	-0.294379	0.001693	-0.005277	0.002393
692	3.493696	0.005000	9.428885	-1.676035	1.821710	0.519226	-0.036934	-0.295873	0.000198	-0.002931	0.011585
693	3.498696	0.005000	9.408705	-1.578495	1.853175	0.519561	-0.036711	-0.297368	-0.000299	0.005196	0.013020
694	3.503696	0.005000	9.437281	-1.589281	1.883520	0.519895	-0.036488	-0.298863	-0.000980	-0.003661	0.011604
695	3.508696	0.005000	9.268899	-1.648080	1.786449	0.520230	-0.036265	-0.300358	0.005192	0.006582	0.011153
696	3.513696	0.005000	9.419355	-1.721296	1.880010	0.520565	-0.036042	-0.301853	0.008839	-0.004842	0.008107
697	3.518696	0.005000	9.342387	-1.646991	1.805040	0.520897	-0.035821	-0.303333	0.006563	-0.002470	0.008385
698	3.523696	0.005000	9.335641	-1.726560	1.798081	0.521009	-0.035821	-0.303333	-0.012096	0.000008	0.013365
699	3.528696	0.005000	9.417600	-1.653934	1.844280	0.521120	-0.035821	-0.303333	-0.005032	-0.000955	0.012125
700	3.533696	0.005000	9.417600	-1.695564	1.852524	0.521232	-0.035821	-0.303333	-0.005764	0.009394	0.010847
701	3.538696	0.005000	9.513825	-1.705065	1.951252	0.521343	-0.035821	-0.303333	-0.015500	0.008096	0.012716
702	3.543696	0.005000	9.483163	-1.726560	1.870358	0.521454	-0.035821	-0.303333	-0.007714	0.003427	0.015796
703	3.548696	0.005000	9.433170	-1.648080	1.805040	0.521566	-0.035821	-0.303333	-0.003733	0.010989	0.011270
704	3.553696	0.005000	9.339120	-1.669338	1.765800	0.521677	-0.035821	-0.303333	-0.006637	0.005384	0.001418
705	3.558696	0.005000	9.436447	-1.784647	1.864673	0.521789	-0.035821	-0.303333	-0.020823	0.008428	0.001043
706	3.563696	0.005000	9.407530	-1.772167	1.906323	0.521900	-0.035821	-0.303333	-0.018977	-0.003836	-0.002120
707	3.568696	0.005000	9.325096	-1.648080	1.858304	0.522012	-0.035821	-0.303333	-0.012275	-0.012068	0.013414
708	3.573696	0.005000	9.343915	-1.754318	1.939037	0.522123	-0.035821	-0.303333	-0.015322	-0.001678	0.004936
709	3.578696	0.005000	9.299880	-1.705746	1.913547	0.522235	-0.035821	-0.303333	-0.021979	-0.000061	0.012017
710	3.583696	0.005000	9.424316	-1.661513	1.805040	0.522346	-0.035821	-0.303333	-0.015672	0.010523	-0.001466
711	3.588696	0.005000	9.413258	-1.717877	1.813723	0.522597	-0.036100	-0.303333	-0.005503	0.013953	-0.001979
712	3.593696	0.005000	9.417600	-1.642226	1.958097	0.522932	-0.036546	-0.303333	-0.001480	0.015885	0.002880
713	3.598696	0.005000	9.378789	-1.491549	1.883520	0.523267	-0.036992	-0.303333	-0.009585	0.001857	0.004416
714	3.603696	0.005000	9.344813	-1.451880	1.883520	0.523601	-0.037439	-0.303333	-0.004285	-0.002046	0.008462
715	3.608696	0.005000	9.344778	-1.491120	1.939370	0.523936	-0.037885	-0.303333	-0.006565	0.010273	-0.009111
716	3.613696	0.005000	9.386393	-1.491120	1.922760	0.524271	-0.038331	-0.303333	0.001970	0.001775	0.008511
717	3.618696	0.005000	9.409628	-1.559177	1.836308	0.524605	-0.038777	-0.303333	0.005049	0.006060	0.004775
718	3.623696	0.005000	9.456840	-1.555955	1.869875	0.524940	-0.039223	-0.303333	0.022546	0.004859	0.002147
719	3.628696	0.005000	9.423923	-1.578465	1.953135	0.525275	-0.039670	-0.303333	0.030062	0.003858	-0.004552
720	3.633696	0.005000	9.439065	-1.569600	1.926450	0.525610	-0.040116	-0.303333	0.021380	0.002189	-0.000007
721	3.638696	0.005000	9.437786	-1.707506	2.000107	0.525944	-0.040562	-0.303333	0.029178	-0.002934	0.005505
722	3.643696	0.005000	9.479438	-1.737247	2.113004	0.526279	-0.041008	-0.303333	0.018726	-0.000084	0.003082
723	3.648696	0.005000	9.431833	-1.712327	2.051254	0.526614	-0.041455	-0.303333	0.030841	-0.010346	0.019118
724	3.653696	0.005000	9.429419	-1.597021	2.091539	0.526811	-0.041791	-0.303364	0.017847	-0.003935	0.013627
725	3.658696	0.005000	9.486668	-1.531952	2.010652	0.526588	-0.041791	-0.303488	0.019782	-0.010667	-0.003101
726	3.663696	0.005000	9.489167	-1.504946	2.047393	0.526365	-0.041791	-0.303613	0.005997	-0.012868	0.010215
727	3.668696	0.005000	9.408524	-1.495658	2.109884	0.526142	-0.041791	-0.303737	0.007064	-0.010535	0.000800
728	3.673696	0.005000	9.378360	-1.567437	1.964163	0.525919	-0.041791	-0.303862	0.006048	-0.012609	0.008976
729	3.678696	0.005000	9.417370	-1.569370	1.962230	0.525696	-0.041791	-0.303987	-0.017856	-0.012331	-0.000731
730	3.683696	0.005000	9.496080	-1.451880	1.998607	0.525472	-0.041791	-0.304111	-0.002179	-0.009755	0.000668
731	3.688696	0.005000	9.373310	-1.559499	1.967050	0.525249	-0.041791	-0.304236	-0.003548	-0.010969	0.002910
732	3.693696	0.005000	9.378360	-1.616676	2.001240	0.525026	-0.041791	-0.304360	-0.002553	-0.020361	0.007526
733	3.698696	0.005000	9.456840	-1.569600	2.030269	0.524803	-0.041791	-0.304485	0.001423	-0.027800	0.004341
734	3.703696	0.005000	9.417600	-1.542961	1.907285	0.524580	-0.041791	-0.304610	-0.012808	-0.014288	0.002749
735	3.708696	0.005000	9.441864	-1.539648	1.829304	0.524357	-0.041791	-0.304734	-0.005171	-0.020769	0.013451
736	3.713696	0.005000	9.522462	-1.569600	1.900886	0.524134	-0.041791	-0.304859	-0.003629	-0.010409	0.006969
737	3.718696	0.005000	9.437583	-1.530360	1.883278	0.523911	-0.041791	-0.304983	-0.000612	-0.022514	0.002071
738	3.723696	0.005000	9.451300	-1.664930	1.905910	0.523688	-0.041501	-0.304676	0.011215	-0.015173	0.026898
739	3.728696	0.005000	9.481642	-1.676955	1.873155	0.523465	-0.041166	-0.304303	-0.004428	-0.020373	0.010108
740	3.733696	0.005000	9.378360	-1.644927	1.856309	0.523242	-0.040832	-0.303929	-0.008611	-0.023842	0.019696
741	3.738696	0.005000	9.416819	-1.648080	1.971615	0.523019	-0.040497	-0.303555	-0.008049	-0.017835	0.012852
742	3.743696	0.005000	9.513695	-1.616048	1.994032	0.522796	-0.040163	-0.303182	-0.008359	-0.025897	0.005176
743	3.748696	0.005000	9.427070	-1.657550	1.918025	0.522573	-0.039828	-0.302808	-0.009774	-0.027473	0.011033
744	3.753696	0.005000	9.449760	-1.728920	1.883520	0.522350	-0.039494	-0.302435	-0.004194	-0.020069	0.013934
745	3.758696	0.005000	9.299911	-1.687381	1.883520	0.522127	-0.039159	-0.302061	-0.000742	-0.026503	0.010489
746	3.763696	0.005000	9.299880	-1.692189	1.881086	0.521904	-0.038824	-0.301688	-0.003717	-0.013360	0.003426
747	3.768696	0.005000	9.412762	-1.795364	1.927598	0.521681	-0.038490	-0.301314	-0.003920	-0.018717	0.004975
748	3.773696	0.005000	9.392868	-1.719306	1.844280	0.521457	-0.038155	-0.300941	-0.008161	-0.020807	0.009447
749	3.778696	0.005000	9.378360	-1.726560	1.933018	0.521234	-0.037821	-0.300567	-0.013322	-0.013245	-0.003238
750	3.783696	0.005000	9.444451	-1.660469	1.805040	0.521011	-0.037486	-0.300193	-0.004164	-0.019770	0.005249
751	3.788696	0.005000	9.363581	-1.751021	1.907981	0.520950	-0.037367	-0.300000	-0.016301	-0.009561	-0.000907
752	3.793696	0.005000	9.395514	-1.743714	1.871297	0.521061	-0.037478	-0.300000	-0.014276	-0.018401	0.000086
753	3.798696	0.005000	9.398056	-1.726560	1.844280	0.521173	-0.037590	-0.300000	-0.009896	-0.008827	0.003834
754	3.803696	0.005000	9.456840	-1.778522	1.940081	0.521284	-0.037702	-0.300000	-0.004395	-0.008430	0.006228
755	3.808696	0.005000	9.417600	-1.750869	1.907829	0.521396	-0.037813	-0.300000	-0.003119	-0.008896	0.007688
756	3.813696	0.005000	9.364231	-1.674764	1.767373	0.521507	-0.037925	-0.300000	-0.014257	-0.009185	-0.003556
757	3.818696	0.005000	9.427425	-1.648080	1.844280	0.521619	-0.038036	-0.300000	-0.010486	-0.007840	0.007626
758	3.823696	0.005000	9.432420	-1.577010	1.851690	0.521730	-0.038148	-0.300000	-0.013707	0.003561	0.010154
759	3.828696	0.005000	9.486071	-1.603836	1.805040	0.521842	-0.038260	-0.300000	-0.000632	-0.010473	0.011291
760	3.833696	0.005000	9.415013	-1.614015	1.729147	0.521953	-0.038371	-0.300000	0.003072	-0.001177	0.005372
761	3.838696	0.005000	9.417233	-1.648447	1.882969	0.522065	-0.038483	-0.300000	-0.000934	-0.006955	-0.003451
762	3.843696	0.005000	9.302089	-1.689529	1.765800	0.522176	-0.038594	-0.300000	-0.009244	0.001248	0.000671
763	3.848696	0.005000	9.417600	-1.682736	1.922760	0.522288	-0.038706	-0.300000	0.000349	0.003691	-0.002749
764	3.853696	0.005000	9.353037	-1.655039	2.026563	0.522365	-0.038760	-0.300000	0.021670	-0.006306	0.001635
765	3.858696	0.005000	9.339120	-1.687320	1.952542	0.522142	-0.038314	-0.300000	0.022144	0.011073	-0.006872
766	3.863696	0.005000	9.350985	-1.577822	1.977509	0.521919	-0.037868	-0.300000	0.020802	0.006679	-0.003005
767	3.868696	0.005000	9.339120	-1.530360	1.922760	0.521696	-0.037422	-0.300000	0.015779	0.000006	0.005372
768	3.873696	0.005000	9.496080	-1.569600	1.945312	0.521473	-0.036976	-0.300000	0.017123	0.001996	-0.003403
769	3.878696	0.005000	9.418641	-1.688361	1.902620	0.521250	-0.036530	-0.300000	0.021368	0.009321	-0.000344
770	3.883696	0.005000	9.399871	-1.591111	1.887302	0.521027	-0.036084	-0.300000	0.005599	0.006118	-0.004039
771	3.888696	0.005000	9.417600	-1.560999	1.914159	0.520804	-0.035638	-0.300000	0.017343	0.003741	-0.007579
772	3.893696	0.005000	9.312786	-1.621746	2.001240	0.520581	-0.035192	-0.300000	0.018446	0.006034	-0.009878
773	3.898696	0.005000	9.331376	-1.747557	2.001240	0.520358	-0.034746	-0.300000	0.024672	0.005355	-0.014877
774	3.903696	0.005000	9.401432	-1.695404	1.906592	0.520135	-0.034300	-0.300000	0.023370	-0.003785	-0.000024
775	3.908696	0.005000	9.372682	-1.720882	1.962000	0.519912	-0.033854	-0.300000	0.013573	-0.000196	-0.002560
776	3.913696	0.005000	9.417600	-1.618623	1.994718	0.519689	-0.033408	-0.300000	0.014612	-0.006761	-0.006150
777	3.918696	0.005000	9.456840	-1.726560	1.924454	0.519466	-0.032962	-0.300000	0.002724	-0.002290	-0.003819
778	3.923696	0.005000	9.494519	-1.726560	2.038919	0.519483	-0.033316	-0.299821	-0.005966	-0.012843	-0.008903
779	3.928696	0.005000	9.460805	-1.745973	1.969931	0.519595	-0.033986	-0.299572	-0.000543	-0.003403	0.006702
780	3.933696	0.005000	9.391124	-1.582364	1.889902	0.519706	-0.034655	-0.299323	0.001439	-0.002946	-0.000794
781	3.938696	0.005000	9.517744	-1.639292	1.953212	0.519818	-0.035324	-0.299074	0.001811	-0.014668	0.015135
782	3.943696	0.005000	9.479223	-1.659272	1.962000	0.519929	-0.035993	-0.298825	-0.008371	-0.009169	0.003718
783	3.948696	0.005000	9.535320	-1.710192	1.858182	0.520041	-0.036662	-0.298576	-0.000703	-0.009123	0.004076
784	3.953696	0.005000	9.522008	-1.579236	1.922760	0.520152	-0.037331	-0.298327	0.002042	-0.008298	0.004200
785	3.958696	0.005000	9.434361	-1.569600	2.003146	0.520264	-0.038000	-0.298078	-0.003553	-0.015134	0.001176
786	3.963696	0.005000	9.414726	-1.611714	2.022297	0.520375	-0.038669	-0.297829	0.000157	-0.011738	0.011330
787	3.968696	0.005000	9.401792	-1.593032	2.017048	0.520487	-0.039338	-0.297580	-0.002357	-0.014586	-0.001136
788	3.973696	0.005000	9.390764	-1.531374	1.987822	0.520599	-0.040007	-0.297331	0.010892	-0.018830	0.018568
789	3.978696	0.005000	9.349822	-1.637378	1.862116	0.520710	-0.040676	-0.297082	-0.001527	-0.014596	-0.005843
790	3.983696	0.005000	9.339120	-1.546950	1.860870	0.520822	-0.041345	-0.296833	0.001467	-0.014785	-0.001347
791	3.988696	0.005000	9.378360	-1.630443	1.895278	0.520896	-0.041642	-0.296667	0.000340	-0.013213	0.008078
792	3.993696	0.005000	9.374886	-1.608840	1.955052	0.520896	-0.041196	-0.296667	0.007063	-0.013477	-0.000136
793	3.998696	0.005000	9.304106	-1.533529	1.921704	0.520896	-0.040750	-0.296667	0.007680	-0.013659	0.009392
794	4.003696	0.005000	9.418931	-1.648080	1.921429	0.520896	-0.040304	-0.296667	0.007279	-0.016080	0.001015
795	4.008696	0.005000	9.413879	-1.648080	2.040480	0.520896	-0.039858	-0.296667	0.008013	-0.014666	0.009639
796	4.013696	0.005000	9.441985	-1.635887	1.922760	0.520896	-0.039412	-0.296667	0.009258	-0.014295	0.004572
797	4.018696	0.005000	9.417600	-1.779581	1.822013	0.520896	-0.038966	-0.296667	0.009951	-0.015784	0.008779
798	4.023696	0.005000	9.400083	-1.744077	1.855141	0.520896	-0.038520	-0.296667	0.012736	-0.019741	0.006028
799	4.028696	0.005000	9.417600	-1.596413	1.843301	0.520896	-0.038074	-0.296667	0.007672	-0.016799	-0.005102
800	4.033696	0.005000	9.401785	-1.663895	1.922760	0.520896	-0.037628	-0.296667	0.007388	-0.024901	0.005048
801	4.038696	0.005000	9.396579	-1.669101	1.859697	0.520896	-0.037182	-0.296667	-0.003069	-0.025011	0.008545
802	4.043696	0.005000	9.415580	-1.608840	1.881500	0.520896	-0.036736	-0.296667	0.009432	-0.011412	-0.001907
803	4.048696	0.005000	9.479882	-1.719716	1.906562	0.520896	-0.036290	-0.296667	-0.002934	-0.016185	0.001829
804	4.053696	0.005000	9.521531	-1.685193	1.818829	0.520896	-0.035844	-0.296667	-0.008468	-0.020459	-0.006588
805	4.058696	0.005000	9.417600	-1.541600	1.894760	0.521002	-0.036773	-0.296903	-0.003931	-0.022565	-0.001231
806	4.063696	0.005000	9.396089	-1.669591	1.856926	0.521113	-0.037777	-0.297152	-0.003824	-0.006314	0.005439
807	4.068696	0.005000	9.450366	-1.595498	1.687320	0.521225	-0.038781	-0.297401	-0.005104	-0.014815	0.007998
808	4.073696	0.005000	9.460939	-1.656279	1.769899	0.521336	-0.039785	-0.297651	-0.000965	-0.013673	0.003722
809	4.078696	0.005000	9.455131	-1.762381	1.845989	0.521448	-0.040789	-0.297900	-0.008253	-0.013747	-0.005501
810	4.083696	0.005000	9.301901	-1.648754	1.844954	0.521559	-0.041793	-0.298149	-0.007241	-0.015160	-0.002070
811	4.088696	0.005000	9.378360	-1.690411	1.844280	0.521671	-0.042797	-0.298398	-0.001948	-0.007285	-0.008362
812	4.093696	0.005000	9.451344	-1.794047	1.900775	0.521782	-0.043801	-0.298647	0.005533	-0.006975	-0.006485
813	4.098696	0.005000	9.347395	-1.774075	1.953725	0.521894	-0.044805	-0.298896	0.007010	-0.007047	-0.004306
814	4.103696	0.005000	9.417600	-1.558935	1.883520	0.522005	-0.045809	-0.299145	-0.002578	-0.006530	-0.002560
815	4.108696	0.005000	9.299880	-1.582640	1.896560	0.522117	-0.046813	-0.299394	-0.002942	-0.004345	0.002348
816	4.113696	0.005000	9.378360	-1.617220	1.789610	0.522228	-0.047817	-0.299644	-0.003990	-0.003744	-0.008133
817	4.118696	0.005000	9.335489	-1.626645	1.787235	0.522340	-0.048821	-0.299893	0.010247	-0.006724	-0.001343
818	4.123696	0.005000	9.417600	-1.550555	1.806190	0.522451	-0.048873	-0.300213	0.017466	-0.001912	0.001549
819	4.128696	0.005000	9.434270	-1.547030	1.906090	0.522563	-0.048205	-0.300586	0.015815	0.000237	0.000373
820	4.133696	0.005000	9.403305	-1.580250	1.883520	0.522674	-0.047536	-0.300959	0.014367	0.000622	0.011007
821	4.138696	0.005000	9.491596	-1.502705	1.816625	0.522786	-0.046867	-0.301333	0.019782	0.000008	0.004163
822	4.143696	0.005000	9.516978	-1.430982	1.883520	0.522897	-0.046198	-0.301706	0.030317	-0.004102	0.009589
823	4.148696	0.005000	9.450076	-1.569600	1.864573	0.523009	-0.045530	-0.302079	0.033838	-0.000082	0.004952
824	4.153696	0.005000	9.382708	-1.526012	1.927108	0.523120	-0.044861	-0.302453	0.028122	-0.006330	0.003596
825	4.158696	0.005000	9.341041	-1.530360	1.960079	0.523232	-0.044192	-0.302826	0.025111	-0.000289	0.006015
826	4.163696	0.005000	9.455891	-1.607891	2.116588	0.523343	-0.043523	-0.303200	0.031409	0.000709	0.007271
827	4.168696	0.005000	9.493202	-1.578235	1.967757	0.523455	-0.042855	-0.303573	0.043205	-0.003480	0.014834
828	4.173696	0.005000	9.490785	-1.535655	1.888815	0.523566	-0.042186	-0.303946	0.026778	0.001698	0.010128
829	4.178696	0.005000	9.582996	-1.561899	1.915059	0.523678	-0.041517	-0.304320	0.027760	-0.012279	0.002739
830	4.183696	0.005000	9.477072	-1.550592	2.069604	0.523789	-0.040849	-0.304693	0.016562	-0.008802	0.021660
831	4.188696	0.005000	9.430124	-1.491120	1.908567	0.523881	-0.040299	-0.305000	0.019272	-0.017481	0.018257
832	4.193696	0.005000	9.529749	-1.584537	1.986303	0.523881	-0.040299	-0.305000	0.010276	-0.010694	0.016194
833	4.198696	0.005000	9.531296	-1.648080	2.044504	0.523881	-0.040299	-0.305000	-0.000953	-0.006399	0.006595
834	4.203696	0.005000	9.514611	-1.589583	2.080446	0.523881	-0.040299	-0.305000	-0.001389	-0.018401	0.023306
835	4.208696	0.005000	9.501586	-1.591973	2.062853	0.523881	-0.040299	-0.305000	-0.006000	-0.015279	0.008493
836	4.213696	0.005000	9.403108	-1.726560	2.050736	0.523881	-0.040299	-0.305000	-0.002248	-0.011445	0.020769
837	4.218696	0.005000	9.460727	-1.714776	1.973784	0.523881	-0.040299	-0.305000	-0.006508	-0.015833	0.011728
838	4.223696	0.005000	9.329739	-1.668557	1.941523	0.523881	-0.040299	-0.305000	-0.018187	-0.019625	0.015819
839	4.228696	0.005000	9.406225	-1.641114	2.019582	0.523881	-0.040299	-0.305000	-0.009786	-0.021070	0.018639
840	4.233696	0.005000	9.530759	-1.608840	1.992119	0.523881	-0.040299	-0.305000	-0.022308	-0.015710	0.017954
841	4.238696	0.005000	9.493937	-1.606697	1.955570	0.523881	-0.040299	-0.305000	-0.009040	-0.019176	0.017649
842	4.243696	0.005000	9.378874	-1.725531	1.844280	0.523881	-0.040299	-0.305000	-0.015148	-0.019762	0.015425
843	4.248696	0.005000	9.339120	-1.653436	1.776513	0.523881	-0.040299	-0.305000	-0.019010	-0.027204	0.016517
844	4.253696	0.005000	9.265723	-1.760717	1.815206	0.523881	-0.040299	-0.305000	0.000802	-0.024985	0.020086
845	4.258696	0.005000	9.260640	-1.758301	1.859278	0.522466	-0.041537	-0.303123	0.006005	-0.022352	0.011553
846	4.263696	0.005000	9.368454	-1.667891	1.775706	0.520682	-0.043098	-0.300758	-0.001336	-0.020031	0.026279
847	4.268696	0.005000	9.459120	-1.714240	1.753480	0.518897	-0.044659	-0.298392	-0.001198	-0.010644	0.009608
848	4.273696	0.005000	9.402579	-1.750779	1.741581	0.517113	-0.046220	-0.296026	0.010961	-0.024488	0.014179
849	4.278696	0.005000	9.395501	-1.687320	1.849239	0.515329	-0.047782	-0.293660	0.002074	-0.017045	0.017356
850	4.283696	0.005000	9.319334	-1.667534	1.785586	0.513545	-0.049343	-0.291294	0.006750	-0.027060	0.011439
851	4.288696	0.005000	9.306793	-1.726560	1.861359	0.511761	-0.050904	-0.288928	0.008598	-0.020526	0.011440
852	4.293696	0.005000	9.407737	-1.702009	1.805040	0.509977	-0.052465	-0.286562	0.002784	-0.010455	0.000362
853	4.298696	0.005000	9.390674	-1.685021	1.738874	0.508193	-0.054026	-0.284197	0.009490	-0.018291	0.016166
854	4.303696	0.005000	9.407677	-1.667473	1.756330	0.506408	-0.055587	-0.281831	0.011864	-0.002924	0.016263
855	4.308696	0.005000	9.479485	-1.726560	1.773348	0.504624	-0.057148	-0.279465	0.014409	-0.014499	0.004636
856	4.313696	0.005000	9.387883	-1.805040	1.770561	0.502840	-0.058709	-0.277099	0.016501	-0.013292	-0.000708
857	4.318696	0.005000	9.343834	-1.768157	1.772871	0.501056	-0.060270	-0.274733	0.006382	-0.002214	-0.000012
858	4.323696	0.005000	9.417600	-1.687502	1.883520	0.500501	-0.060830	-0.273485	0.008573	-0.008552	0.005987
859	4.328696	0.005000	9.417600	-1.572035	1.846715	0.501727	-0.059938	-0.273859	0.011309	-0.009403	-0.004524
860	4.333696	0.005000	9.437538	-1.579251	1.809866	0.502954	-0.059046	-0.274233	0.007103	-0.010493	-0.005462
861	4.338696	0.005000	9.496080	-1.623241	1.790639	0.504180	-0.058154	-0.274606	0.004484	-0.007268	0.001927
862	4.343696	0.005000	9.407469	-1.687320	1.795337	0.505407	-0.057262	-0.274980	-0.004365	-0.000716	0.003360
863	4.348696	0.005000	9.390470	-1.605931	1.777910	0.506634	-0.056370	-0.275353	0.005319	-0.002383	0.008340
864	4.353696	0.005000	9.363836	-1.584124	1.873327	0.507860	-0.055478	-0.275727	-0.007784	0.005251	0.004907
865	4.358696	0.005000	9.339120	-1.687320	1.866587	0.509087	-0.054586	-0.276100	0.007052	0.001842	0.007063
866	4.363696	0.005000	9.417600	-1.590597	1.843729	0.510313	-0.053694	-0.276474	-0.000334	0.004236	0.004457
867	4.368696	0.005000	9.317155	-1.591565	1.787765	0.511540	-0.052801	-0.276847	-0.005512	0.011744	-0.003698
868	4.373696	0.005000	9.452862	-1.618279	1.717121	0.512767	-0.051909	-0.277221	0.008940	0.007226	-0.000246
869	4.378696	0.005000	9.444330	-1.608840	1.817550	0.513993	-0.051017	-0.277595	0.005147	0.007983	0.008159
870	4.383696	0.005000	9.339120	-1.637945	1.980970	0.515220	-0.050125	-0.277968	0.006759	0.003023	0.007117
871	4.388696	0.005000	9.402110	-1.640335	1.938250	0.516426	-0.049249	-0.278368	0.008473	0.005750	-0.000080
872	4.393696	0.005000	9.378360	-1.614210	1.935149	0.516760	-0.049026	-0.279863	0.011146	-0.003301	0.007723
873	4.398696	0.005000	9.375380	-1.642120	1.886500	0.517095	-0.048803	-0.281357	0.015459	0.005344	0.001131
874	4.403696	0.005000	9.455630	-1.649290	1.922760	0.517430	-0.048579	-0.282852	0.013744	0.002876	0.002135
875	4.408696	0.005000	9.452362	-1.689559	1.885759	0.517765	-0.048356	-0.284347	0.014836	0.000941	0.011441
876	4.413696	0.005000	9.456840	-1.583441	1.962000	0.518099	-0.048133	-0.285842	0.014120	0.005576	0.005349
877	4.418696	0.005000	9.496080	-1.608840	1.922760	0.518434	-0.047910	-0.287337	0.009758	0.004710	0.003376
878	4.423696	0.005000	9.417600	-1.648080	1.902278	0.518769	-0.047687	-0.288832	0.002196	-0.002320	0.003334
879	4.428696	0.005000	9.441413	-1.636173	1.832373	0.519103	-0.047464	-0.290327	0.012152	-0.003536	0.005433
880	4.433696	0.005000	9.403285	-1.687320	1.897835	0.519438	-0.047241	-0.291822	0.005414	0.000276	0.009302
881	4.438696	0.005000	9.417600	-1.603055	1.984512	0.519773	-0.047018	-0.293316	0.004296	0.001175	0.000818
882	4.443696	0.005000	9.319982	-1.609805	1.962965	0.520108	-0.046795	-0.294811	0.006299	0.001021	0.012796
883	4.448696	0.005000	9.299880	-1.669833	2.053701	0.520442	-0.046571	-0.296306	0.003790	-0.001830	0.013422
884	4.453696	0.005000	9.393457	-1.717514	2.046531	0.520777	-0.046348	-0.297801	0.016874	-0.002150	0.001471
885	4.458696	0.005000	9.417600	-1.701116	2.053202	0.520609	-0.046269	-0.298092	0.006273	-0.006986	0.007417
886	4.463696	0.005000	9.328788	-1.656324	2.019816	0.520163	-0.046269	-0.297719	0.000070	-0.005727	0.005365
887	4.468696	0.005000	9.355034	-1.656037	2.071763	0.519716	-0.046269	-0.297345	0.004351	-0.018167	0.006003
888	4.473696	0.005000	9.350254	-1.659214	2.023780	0.519270	-0.046269	-0.296972	-0.000222	-0.003608	0.000187
889	4.478696	0.005000	9.420792	-1.687320	1.965192	0.518824	-0.046269	-0.296598	0.001495	-0.009800	0.010365
890	4.483696	0.005000	9.339922	-1.609642	1.959595	0.518378	-0.046269	-0.296225	0.002176	-0.009146	-0.001344
891	4.488696	0.005000	9.415558	-1.610882	1.918676	0.517932	-0.046269	-0.295851	-0.006560	-0.008417	-0.004912
892	4.493696	0.005000	9.273891	-1.613257	1.931594	0.517486	-0.046269	-0.295477	0.007914	-0.010124	0.004211
893	4.498696	0.005000	9.339120	-1.666898	1.922760	0.517040	-0.046269	-0.295104	-0.004719	-0.009426	-0.003076
894	4.503696	0.005000	9.369178	-1.657262	1.971182	0.516594	-0.046269	-0.294730	-0.005682	-0.017225	0.006883
895	4.508696	0.005000	9.445283	-1.636523	1.895077	0.516148	-0.046269	-0.294357	0.001186	-0.012932	-0.003840
896	4.513696	0.005000	9.456840	-1.634133	1.883520	0.515702	-0.046269	-0.293983	0.006437	-0.014453	-0.004702
897	4.518696	0.005000	9.394682	-1.618567	2.001240	0.515255	-0.046269	-0.293610	0.002455	-0.015451	0.004307
898	4.523696	0.005000	9.320408	-1.528545	1.958369	0.515098	-0.046124	-0.293527	-0.011180	-0.012958	-0.002730
899	4.528696	0.005000	9.342055	-1.626993	1.919825	0.515768	-0.045567	-0.294274	0.001966	-0.018096	-0.001496
900	4.533696	0.005000	9.308144	-1.554112	1.899008	0.516437	-0.045009	-0.295021	0.005092	-0.011588	-0.004766
901	4.538696	0.005000	9.312970	-1.635005	1.948940	0.517106	-0.044452	-0.295768	0.010184	-0.023812	0.004716
902	4.543696	0.005000	9.321214	-1.637413	1.933427	0.517775	-0.043894	-0.296515	0.004439	-0.009332	-0.002402
903	4.548696	0.005000	9.409348	-1.670816	1.883520	0.518444	-0.043337	-0.297262	0.009756	-0.015241	-0.018795
904	4.553696	0.005000	9.344966	-1.602994	1.934452	0.519113	-0.042779	-0.298009	0.011369	-0.013656	0.006978
905	4.558696	0.005000	9.381789	-1.612269	1.958571	0.519782	-0.042222	-0.298756	0.010798	-0.018450	-0.008391
906	4.563696	0.005000	9.416586	-1.645039	2.000226	0.520451	-0.041664	-0.299503	0.011818	-0.020371	0.001751
907	4.568696	0.005000	9.454055	-1.681749	1.999847	0.521120	-0.041106	-0.300251	0.004076	-0.012993	0.002514
908	4.573696	0.005000	9.574560	-1.491120	2.036683	0.521790	-0.040549	-0.300998	0.014948	-0.016044	0.008355
909	4.578696	0.005000	9.430027	-1.530360	1.935187	0.522459	-0.039991	-0.301745	0.003505	-0.013353	0.004906
910	4.583696	0.005000	9.439601	-1.513121	1.914140	0.523128	-0.039434	-0.302492	0.014403	-0.014700	0.001320
911	4.588696	0.005000	9.383257	-1.530360	1.827109	0.523797	-0.038876	-0.303239	0.002245	-0.013895	-0.000276
912	4.593696	0.005000	9.350889	-1.479351	1.805040	0.523783	-0.039196	-0.303442	0.001436	-0.015029	0.011084
913	4.598696	0.005000	9.339120	-1.458869	1.814177	0.523672	-0.039642	-0.303567	0.011293	-0.020266	0.019592
914	4.603696	0.005000	9.339120	-1.571839	1.786539	0.523560	-0.040089	-0.303691	0.004123	-0.014803	0.012151
915	4.608696	0.005000	9.378360	-1.546168	1.862629	0.523449	-0.040535	-0.303816	0.004841	-0.016944	0.010977
916	4.613696	0.005000	9.378360	-1.569600	1.797749	0.523337	-0.040981	-0.303940	0.008924	-0.010591	0.021249
917	4.618696	0.005000	9.444768	-1.581672	1.909176	0.523225	-0.041427	-0.304065	0.002178	-0.006338	0.008974
918	4.623696	0.005000	9.350329	-1.586421	1.933969	0.523114	-0.041873	-0.304190	0.007596	-0.014180	0.009413
919	4.628696	0.005000	9.260640	-1.608840	1.835461	0.523002	-0.042320	-0.304314	-0.003777	-0.015334	0.010702
920	4.633696	0.005000	9.417600	-1.497168	1.771848	0.522891	-0.042766	-0.304439	0.001578	-0.012778	0.010707
921	4.638696	0.005000	9.382002	-1.569600	1.922760	0.522779	-0.043212	-0.304563	0.003633	-0.005994	0.009662
922	4.643696	0.005000	9.455615	-1.568375	1.963225	0.522667	-0.043658	-0.304688	0.003503	-0.006762	0.008686
923	4.648696	0.005000	9.341450	-1.606510	1.925090	0.522556	-0.044105	-0.304813	0.012545	-0.011927	0.008754
924	4.653696	0.005000	9.531765	-1.544580	1.844280	0.522444	-0.044551	-0.304937	0.004295	-0.007636	0.007779
925	4.658696	0.005000	9.641180	-1.512570	1.816900	0.522443	-0.044666	-0.304753	0.016521	-0.013822	0.010235
926	4.663696	0.005000	9.412029	-1.538777	1.875103	0.522555	-0.044443	-0.304255	0.008151	-0.017470	0.007583
927	4.668696	0.005000	9.456840	-1.558776	1.861871	0.522666	-0.044220	-0.303757	0.012594	-0.012615	0.006933
928	4.673696	0.005000	9.444076	-1.648080	1.870282	0.522778	-0.043996	-0.303259	0.009653	-0.015343	0.011798
929	4.678696	0.005000	9.354767	-1.679374	1.820687	0.522889	-0.043773	-0.302761	0.004995	-0.010199	0.007722
930	4.683696	0.005000	9.324208	-1.687320	1.868608	0.523001	-0.043550	-0.302263	0.006959	-0.016053	0.010570
931	4.688696	0.005000	9.417600	-1.646397	1.866425	0.523113	-0.043327	-0.301765	-0.004837	-0.008860	0.005547
932	4.693696	0.005000	9.433967	-1.585967	1.788673	0.523224	-0.043104	-0.301267	-0.000671	-0.009073	0.003085
933	4.698696	0.005000	9.389685	-1.670730	1.805040	0.523336	-0.042881	-0.300769	0.002041	-0.013222	0.007772
934	4.703696	0.005000	9.346056	-1.620384	1.922760	0.523447	-0.042658	-0.300270	0.002026	-0.012714	0.010849
935	4.708696	0.005000	9.408569	-1.675173	1.904698	0.523559	-0.042435	-0.299772	0.006429	-0.014004	0.008247
936	4.713696	0.005000	9.456840	-1.765800	1.883520	0.523670	-0.042212	-0.299274	0.001876	-0.008930	0.002211
937	4.718696	0.005000	9.461106	-1.787976	1.844280	0.523782	-0.041989	-0.298776	0.005800	-0.005259	0.007685
938	4.723696	0.005000	9.383987	-1.648080	1.876017	0.523893	-0.041766	-0.298333	0.004965	-0.016755	0.008294
939	4.728696	0.005000	9.457345	-1.609345	1.804030	0.524005	-0.041543	-0.298333	0.010213	-0.010502	0.008015
940	4.733696	0.005000	9.384206	-1.757031	1.841357	0.524116	-0.041320	-0.298333	0.004541	-0.010791	0.005344
941	4.738696	0.005000	9.344448	-1.653408	1.697976	0.524228	-0.041097	-0.298333	-0.009392	-0.010032	0.013620
942	4.743696	0.005000	9.276856	-1.695428	1.859195	0.524339	-0.040874	-0.298333	-0.000367	-0.010407	0.004315
943	4.748696	0.005000	9.367862	-1.658578	1.933258	0.524451	-0.040651	-0.298333	0.006963	-0.009325	0.008653
944	4.753696	0.005000	9.417600	-1.634587	1.844280	0.524562	-0.040428	-0.298333	-0.001146	-0.002234	0.006968
945	4.758696	0.005000	9.345670	-1.648080	1.835567	0.524674	-0.040205	-0.298333	0.001402	0.002804	0.009177
946	4.763696	0.005000	9.339120	-1.665718	1.787402	0.524785	-0.039981	-0.298333	0.001826	-0.005652	-0.001961
947	4.768696	0.005000	9.319908	-1.668108	1.864308	0.524897	-0.039758	-0.298333	0.012331	-0.006262	0.004734
948	4.773696	0.005000	9.361523	-1.569600	1.799473	0.525008	-0.039535	-0.298333	0.010356	-0.001138	0.010357
949	4.778696	0.005000	9.403138	-1.573745	1.893837	0.525120	-0.039312	-0.298333	0.004896	-0.004036	0.008367
950	4.783696	0.005000	9.339120	-1.636008	1.859377	0.525232	-0.039089	-0.298333	-0.000826	0.002926	-0.003336
951	4.788696	0.005000	9.407903	-1.579297	1.873823	0.525343	-0.038866	-0.298333	0.000963	0.003329	-0.002733
952	4.793696	0.005000	9.339120	-1.615773	1.915827	0.525291	-0.038969	-0.298606	-0.001088	-0.004680	-0.005852
953	4.798696	0.005000	9.334603	-1.613357	1.879003	0.525180	-0.039192	-0.298980	0.009766	-0.003408	0.009861
954	4.803696	0.005000	9.415488	-1.726560	1.883520	0.525069	-0.039415	-0.299353	0.015481	0.001758	0.012623
955	4.808696	0.005000	9.456235	-1.687623	1.844583	0.524957	-0.039638	-0.299727	0.007337	-0.001784	0.011617
956	4.813696	0.005000	9.420278	-1.650758	1.880842	0.524846	-0.039861	-0.300100	0.003761	0.008145	0.006684
957	4.818696	0.005000	9.417600	-1.653148	1.849348	0.524734	-0.040084	-0.300474	0.006766	0.000843	-0.005166
958	4.823696	0.005000	9.449397	-1.616283	1.851723	0.524623	-0.040307	-0.300848	0.006087	-0.001476	0.001793
959	4.828696	0.005000	9.417600	-1.579433	1.814963	0.524511	-0.040530	-0.301221	0.010157	-0.002862	0.000631
960	4.833696	0.005000	9.483872	-1.503328	1.883520	0.524400	-0.040753	-0.301595	0.003201	0.007933	0.002867
961	4.838696	0.005000	9.392958	-1.520316	1.858878	0.524288	-0.040976	-0.301968	0.009082	-0.002228	0.009375
962	4.843696	0.005000	9.417600	-1.535244	2.006124	0.524177	-0.041199	-0.302342	0.016888	-0.001947	0.013106
963	4.848696	0.005000	9.496080	-1.608779	1.883520	0.524065	-0.041422	-0.302715	0.011930	-0.001337	0.004623
964	4.853696	0.005000	9.518081	-1.552361	1.917999	0.523954	-0.041645	-0.303089	0.009934	-0.007502	0.017156
965	4.858696	0.005000	9.442010	-1.560020	1.971580	0.523842	-0.041752	-0.303376	-0.005330	-0.006059	0.011396
966	4.863696	0.005000	9.378360	-1.518092	1.964435	0.523731	-0.041641	-0.303501	-0.001833	-0.009692	0.007771
967	4.868696	0.005000	9.456840	-1.589054	1.922760	0.523619	-0.041529	-0.303625	-0.004236	-0.006655	0.004036
968	4.873696	0.005000	9.458489	-1.569600	1.844280	0.523508	-0.041418	-0.303750	-0.009459	-0.000958	-0.007289
969	4.878696	0.005000	9.388616	-1.603712	1.883520	0.523396	-0.041306	-0.303875	-0.003717	-0.011853	0.001091
970	4.883696	0.005000	9.490574	-1.575106	1.889026	0.523284	-0.041195	-0.303999	-0.003354	-0.008408	-0.006396
971	4.888696	0.005000	9.456840	-1.608840	2.000877	0.523173	-0.041083	-0.304124	-0.006401	-0.010780	0.005250
972	4.893696	0.005000	9.345229	-1.608840	1.962000	0.523061	-0.040972	-0.304248	-0.004614	-0.004534	-0.002122
973	4.898696	0.005000	9.270352	-1.638368	1.991528	0.522950	-0.040860	-0.304373	-0.007395	-0.016372	0.001695
974	4.903696	0.005000	9.363868	-1.687320	2.033234	0.522838	-0.040749	-0.304498	-0.013822	-0.009079	0.008449
975	4.908696	0.005000	9.516078	-1.618461	1.843524	0.522726	-0.040637	-0.304622	-0.001715	-0.010942	-0.003031
976	4.913696	0.005000	9.562549	-1.639276	1.844280	0.522615	-0.040526	-0.304747	-0.003445	-0.011528	0.001417
977	4.918696	0.005000	9.471226	-1.648080	1.873052	0.522503	-0.040414	-0.304871	-0.005751	-0.007367	0.004203
978	4.923696	0.005000	9.479108	-1.670348	2.074425	0.522392	-0.040303	-0.304996	-0.001996	-0.012568	0.007330
979	4.928696	0.005000	9.476697	-1.667937	2.001715	0.522388	-0.040299	-0.304518	0.006925	-0.011674	0.010779
980	4.933696	0.005000	9.417600	-1.691666	1.927106	0.522388	-0.040299	-0.304020	0.013133	-0.003521	-0.008048
981	4.938696	0.005000	9.432635	-1.657251	1.922760	0.522388	-0.040299	-0.303521	0.007016	-0.017966	0.020341
982	4.943696	0.005000	9.417600	-1.621466	1.922760	0.522388	-0.040299	-0.303023	0.000436	-0.006163	0.003605
983	4.948696	0.005000	9.397176	-1.648080	1.912548	0.522388	-0.040299	-0.302525	0.013380	-0.012195	0.001500
984	4.953696	0.005000	9.339120	-1.671890	1.931140	0.522388	-0.040299	-0.302026	0.020312	-0.006645	0.012600
985	4.958696	0.005000	9.417600	-1.569600	1.922760	0.522388	-0.040299	-0.301528	0.018479	-0.009792	0.000153
986	4.963696	0.005000	9.333220	-1.645130	2.004190	0.522388	-0.040299	-0.301030	0.009841	-0.012479	0.006109
987	4.968696	0.005000	9.301030	-1.609415	1.961425	0.522388	-0.040299	-0.300531	0.010592	-0.013616	0.000817
988	4.973696	0.005000	9.378360	-1.648080	1.996702	0.522388	-0.040299	-0.300033	0.004010	-0.017027	0.012735
989	4.978696	0.005000	9.299880	-1.648080	1.927419	0.522388	-0.040299	-0.299535	0.004806	-0.014212	0.000482
990	4.983696	0.005000	9.364292	-1.648080	1.837246	0.522388	-0.040299	-0.299036	0.002728	-0.013894	0.013851
991	4.988696	0.005000	9.309304	-1.735984	1.903911	0.522388	-0.040299	-0.298538	-0.008960	-0.006323	0.006525
992	4.993696	0.005000	9.394002	-1.710918	1.895319	0.522322	-0.040562	-0.298186	0.004150	-0.011317	-0.003133
993	4.998696	0.005000	9.417600	-1.623029	1.880192	0.522211	-0.041008	-0.297937	-0.002749	-0.018762	0.015038
994	5.003696	0.005000	9.367306	-1.693031	1.861045	0.522099	-0.041454	-0.297688	-0.000924	-0.002814	0.000708
995	5.008696	0.005000	9.320166	-1.685989	1.864566	0.521988	-0.041900	-0.297439	0.007082	-0.015757	0.014329
996	5.013696	0.005000	9.278293	-1.608840	1.879585	0.521877	-0.042346	-0.297190	0.001348	-0.004635	0.002352
997	5.018696	0.005000	9.345609	-1.602351	1.892274	0.521765	-0.042792	-0.296941	-0.003200	-0.009114	0.005022
998	5.023696	0.005000	9.351950	-1.621670	1.870690	0.521654	-0.043238	-0.296692	-0.005813	-0.006619	0.002942
999	5.028696	0.005000	9.378360	-1.637778	1.805040	0.521542	-0.043684	-0.296443	-0.000541	-0.010064	-0.004900
1000	5.033696	0.005000	9.417600	-1.569600	1.805040	0.521431	-0.044130	-0.296194	0.007479	-0.016985	0.003344
1001	5.038696	0.005000	9.445767	-1.496657	1.849817	0.521319	-0.044576	-0.295945	0.004670	-0.011263	0.009239
1002	5.043696	0.005000	9.384653	-1.575893	1.877227	0.521208	-0.045022	-0.295696	0.005408	-0.013960	0.012564
1003	5.048696	0.005000	9.339891	-1.608840	1.923531	0.521096	-0.045468	-0.295447	0.003101	-0.004993	-0.004396
1004	5.053696	0.005000	9.303126	-1.533606	1.962000	0.520985	-0.045914	-0.295198	0.007265	-0.011546	0.001442
1005	5.058696	0.005000	9.387255	-1.648080	2.070825	0.520919	-0.046269	-0.295178	0.025619	-0.006742	0.011376
1006	5.063696	0.005000	9.385198	-1.654918	1.910870	0.521030	-0.046269	-0.296050	0.001633	-0.008191	0.007724
1007	5.068696	0.005000	9.486868	-1.627265	1.738163	0.521142	-0.046269	-0.296922	0.003535	-0.013227	0.013344
1008	5.073696	0.005000	9.507683	-1.624875	1.844280	0.521253	-0.046269	-0.297794	0.006174	-0.005361	0.007927
1009	5.078696	0.005000	9.510058	-1.569600	1.802347	0.521365	-0.046269	-0.298666	0.009134	-0.009405	0.005926
1010	5.083696	0.005000	9.394919	-1.648080	1.833843	0.521476	-0.046269	-0.299538	0.005385	-0.011347	0.016764
1011	5.088696	0.005000	9.359391	-1.646779	1.844280	0.521588	-0.046269	-0.300410	0.005490	-0.003702	0.006801
1012	5.093696	0.005000	9.321260	-1.555260	1.847800	0.521699	-0.046269	-0.301282	0.006605	-0.012523	0.010274
1013	5.098696	0.005000	9.339120	-1.506383	1.805040	0.521811	-0.046269	-0.302154	0.008573	-0.007650	0.005505
1014	5.103696	0.005000	9.325657	-1.465343	1.844280	0.521922	-0.046269	-0.303026	0.005456	-0.008907	0.008366
1015	5.108696	0.005000	9.417600	-1.533113	1.873022	0.522034	-0.046269	-0.303898	0.004771	-0.007214	0.008658
1016	5.113696	0.005000	9.417600	-1.718437	1.782047	0.522145	-0.046269	-0.304770	0.008876	-0.007668	0.003595
1017	5.118696	0.005000	9.378360	-1.659546	1.944800	0.522257	-0.046269	-0.305642	0.011070	-0.004350	0.015292
1018	5.123696	0.005000	9.342478	-1.733276	1.805040	0.522368	-0.046269	-0.306514	0.020874	-0.000541	-0.002957
1019	5.128696	0.005000	9.379328	-1.805040	1.806976	0.522204	-0.045809	-0.306564	0.011606	-0.003360	0.000801
1020	5.133696	0.005000	9.417600	-1.767676	1.883520	0.521981	-0.045251	-0.306440	0.023817	-0.004984	0.008460
1021	5.138696	0.005000	9.417600	-1.695821	2.027728	0.521758	-0.044693	-0.306315	0.029466	-0.004350	0.004849
1022	5.143696	0.005000	9.385001	-1.641439	1.942683	0.521535	-0.044136	-0.306190	0.020044	-0.013617	0.003712
1023	5.148696	0.005000	9.408475	-1.795915	1.901770	0.521312	-0.043578	-0.306066	0.011580	-0.004864	0.006075
1024	5.153696	0.005000	9.350649	-1.643426	1.878866	0.521088	-0.043020	-0.305941	0.014157	0.001634	0.011454
1025	5.158696	0.005000	9.364418	-1.583542	1.959414	0.520865	-0.042462	-0.305817	0.008627	0.004812	-0.003994
1026	5.163696	0.005000	9.361735	-1.642090	1.978625	0.520642	-0.041904	-0.305692	0.009322	-0.002010	-0.002259
1027	5.168696	0.005000	9.459321	-1.550600	1.924000	0.520419	-0.041346	-0.305567	0.008914	0.007130	-0.001516
1028	5.173696	0.005000	9.460380	-1.683780	1.958460	0.520196	-0.040789	-0.305443	0.012625	0.007636	-0.004785
1029	5.178696	0.005000	9.291590	-1.554125	2.072535	0.519973	-0.040231	-0.305318	0.019831	0.009254	0.002817
1030	5.183696	0.005000	9.312950	-1.595755	1.988155	0.519750	-0.039673	-0.305194	0.018258	-0.003360	0.009276
1031	5.188696	0.005000	9.318390	-1.639935	2.001240	0.519527	-0.039115	-0.305069	0.023610	-0.000336	-0.000397
1032	5.193696	0.005000	9.229909	-1.679362	2.040480	0.519055	-0.039353	-0.304334	-0.001658	-0.003337	0.008377
1033	5.198696	0.005000	9.445755	-1.692862	1.995698	0.518274	-0.040580	-0.302839	0.004440	0.005498	0.000141
1034	5.203696	0.005000	9.456840	-1.602565	1.965137	0.517493	-0.041807	-0.301344	0.011453	0.009813	-0.006492
1035	5.208696	0.005000	9.379799	-1.610279	1.960561	0.516712	-0.043035	-0.299849	0.010597	0.000844	-0.010670
1036	5.213696	0.005000	9.456840	-1.574592	1.921096	0.515931	-0.044262	-0.298354	0.014483	0.000346	-0.000413
1037	5.218696	0.005000	9.382414	-1.503282	1.962000	0.515150	-0.045489	-0.296859	0.006523	-0.005803	-0.000568
1038	5.223696	0.005000	9.417600	-1.497627	1.922760	0.514369	-0.046716	-0.295364	0.007869	-0.003903	0.006683
1039	5.228696	0.005000	9.408678	-1.551755	1.962000	0.513588	-0.047943	-0.293869	0.004227	0.000076	0.009217
1040	5.233696	0.005000	9.389690	-1.597510	1.922760	0.512807	-0.049170	-0.292375	0.004575	-0.000287	-0.003927
1041	5.238696	0.005000	9.339120	-1.583343	1.897263	0.512027	-0.050397	-0.290880	-0.002564	-0.008140	0.002039
1042	5.243696	0.005000	9.394779	-1.648080	1.968401	0.511246	-0.051625	-0.289385	0.005518	-0.006185	-0.010402
1043	5.248696	0.005000	9.397163	-1.567966	2.021677	0.510465	-0.052852	-0.287890	0.015404	-0.009362	-0.002243
1044	5.253696	0.005000	9.435662	-1.509182	2.079720	0.509684	-0.054079	-0.286395	0.003146	-0.003818	0.004642
1045	5.258696	0.005000	9.480408	-1.577496	2.071945	0.508918	-0.055231	-0.284958	0.009985	-0.013914	0.011194
1046	5.263696	0.005000	9.404617	-1.504103	2.040480	0.508360	-0.055343	-0.284336	0.005073	-0.017170	0.008812
1047	5.268696	0.005000	9.438750	-1.530360	2.051055	0.507802	-0.055454	-0.283713	-0.000606	-0.012410	-0.001686
1048	5.273696	0.005000	9.433921	-1.491120	2.094479	0.507244	-0.055566	-0.283090	0.007606	-0.019018	0.002508
1049	5.278696	0.005000	9.429109	-1.586863	2.040480	0.506687	-0.055678	-0.282467	0.013709	-0.014708	0.008016
1050	5.283696	0.005000	9.375062	-1.576195	1.994645	0.506129	-0.055789	-0.281844	0.006344	-0.012386	0.007128
1051	5.288696	0.005000	9.379283	-1.647157	1.885366	0.505571	-0.055901	-0.281221	0.002266	-0.017557	0.020607
1052	5.293696	0.005000	9.530866	-1.646595	1.924245	0.505014	-0.056012	-0.280598	0.007386	-0.016765	0.008733
1053	5.298696	0.005000	9.503858	-1.758022	1.911094	0.504456	-0.056124	-0.279976	0.007678	-0.018847	0.007072
1054	5.303696	0.005000	9.423905	-1.693625	1.929065	0.503898	-0.056235	-0.279353	0.000109	-0.013941	0.001478
1055	5.308696	0.005000	9.339120	-1.578311	1.992529	0.503340	-0.056347	-0.278730	-0.006877	-0.027951	0.002902
1056	5.313696	0.005000	9.378360	-1.664417	2.040480	0.502783	-0.056458	-0.278107	0.000520	-0.018673	0.007429
1057	5.318696	0.005000	9.507637	-1.608840	1.922760	0.502225	-0.056570	-0.277484	-0.012577	-0.018577	0.004490
1058	5.323696	0.005000	9.364746	-1.592624	1.962000	0.501667	-0.056681	-0.276861	-0.004512	-0.029880	0.022301
1059	5.328696	0.005000	9.438234	-1.627446	1.920733	0.502183	-0.055872	-0.277010	-0.010277	-0.018380	0.009295
1060	5.333696	0.005000	9.438581	-1.648080	1.880797	0.503187	-0.054646	-0.277508	-0.005250	-0.027386	0.017783
1061	5.338696	0.005000	9.417600	-1.608840	1.789156	0.504190	-0.053419	-0.278006	-0.009169	-0.024176	0.015179
1062	5.343696	0.005000	9.404408	-1.595648	1.857472	0.505194	-0.052193	-0.278504	-0.001295	-0.022700	0.018912
1063	5.348696	0.005000	9.417600	-1.715782	1.883520	0.506197	-0.050966	-0.279002	0.005439	-0.013469	0.015287
1064	5.353696	0.005000	9.324704	-1.617115	1.788491	0.507201	-0.049740	-0.279500	0.006414	-0.014050	0.006859
1065	5.358696	0.005000	9.450956	-1.720676	1.732444	0.508204	-0.048513	-0.279998	0.003622	-0.016497	0.005304
1066	5.363696	0.005000	9.378360	-1.719541	1.805040	0.509208	-0.047286	-0.280496	-0.002279	-0.009233	0.008996
1067	5.368696	0.005000	9.378360	-1.609959	1.806159	0.510212	-0.046060	-0.280994	0.011715	-0.020050	0.012014
1068	5.373696	0.005000	9.454299	-1.686049	1.882249	0.511215	-0.044833	-0.281492	0.011503	-0.010788	0.018440
1069	5.378696	0.005000	9.456840	-1.616217	1.847968	0.512219	-0.043607	-0.281990	0.018844	-0.011156	0.011720
1070	5.383696	0.005000	9.384850	-1.654570	1.883520	0.513222	-0.042380	-0.282488	0.023001	-0.014378	0.014380
1071	5.388696	0.005000	9.378360	-1.717695	1.883520	0.514226	-0.041154	-0.282986	0.004901	-0.013434	-0.000898
1072	5.393696	0.005000	9.434331	-1.732036	1.900251	0.515060	-0.040400	-0.283673	-0.000887	-0.013410	0.005432
1073	5.398696	0.005000	9.444859	-1.779430	1.832299	0.515507	-0.040735	-0.284794	0.001093	-0.006254	0.006799
1074	5.403696	0.005000	9.339120	-1.765800	1.837454	0.515953	-0.041070	-0.285915	-0.007826	-0.017954	-0.000008
1075	5.408696	0.005000	9.357737	-1.608840	1.765800	0.516399	-0.041404	-0.287036	-0.006813	-0.015533	0.010723
1076	5.413696	0.005000	9.339120	-1.566784	1.784012	0.516845	-0.041739	-0.288157	-0.002115	0.001299	0.001539
1077	5.418696	0.005000	9.433400	-1.561960	1.703120	0.517292	-0.042074	-0.289279	-0.004478	-0.000916	0.009710
1078	5.423696	0.005000	9.443604	-1.595604	1.779036	0.517738	-0.042408	-0.290400	-0.008906	-0.000757	0.002596
1079	5.428696	0.005000	9.389206	-1.587148	1.883520	0.518184	-0.042743	-0.291521	-0.007323	-0.009296	0.008496
1080	5.433696	0.005000	9.417600	-1.600369	1.805040	0.518631	-0.043077	-0.292642	-0.005436	0.000433	0.006837
1081	5.438696	0.005000	9.378360	-1.524264	1.811136	0.519077	-0.043412	-0.293763	-0.008059	0.000816	-0.000729
1082	5.443696	0.005000	9.413894	-1.541479	1.801334	0.519523	-0.043747	-0.294884	-0.004636	-0.001111	0.017096
1083	5.448696	0.005000	9.420218	-1.532105	1.805040	0.519969	-0.044081	-0.296005	0.004511	-0.002279	0.004791
1084	5.453696	0.005000	9.573047	-1.571113	1.842767	0.520416	-0.044416	-0.297127	0.009351	-0.001191	0.007672
1085	5.458696	0.005000	9.460743	-1.538166	1.691223	0.520862	-0.044751	-0.298248	0.000764	0.003566	0.004152
1086	5.463696	0.005000	9.397193	-1.497398	1.798762	0.520896	-0.044261	-0.298678	0.014636	-0.003556	0.000131
1087	5.468696	0.005000	9.439301	-1.521591	1.796271	0.520896	-0.043703	-0.299052	0.016560	0.000536	0.010509
1088	5.473696	0.005000	9.406424	-1.558424	1.821927	0.520896	-0.043146	-0.299425	0.016041	0.005929	0.004238
1089	5.478696	0.005000	9.393481	-1.620900	1.948410	0.520896	-0.042588	-0.299799	0.024901	-0.001765	0.001022
1090	5.483696	0.005000	9.362361	-1.601598	1.876278	0.520896	-0.042031	-0.300172	0.027451	-0.008820	0.005712
1091	5.488696	0.005000	9.396771	-1.726560	1.904349	0.520896	-0.041473	-0.300546	0.031154	0.000737	0.003043
1092	5.493696	0.005000	9.375516	-1.705518	2.001240	0.520896	-0.040915	-0.300919	0.033446	0.000456	0.011417
1093	5.498696	0.005000	9.394183	-1.617069	2.001240	0.520896	-0.040358	-0.301293	0.030084	-0.005459	0.005408
1094	5.503696	0.005000	9.405226	-1.517986	2.002299	0.520896	-0.039800	-0.301667	0.023670	-0.002376	0.002399
1095	5.508696	0.005000	9.378360	-1.704444	2.079720	0.520896	-0.039243	-0.302040	0.016884	0.000683	0.001228
