# FOX Logger (IMU file)
# (c) INRIA 2011-2014
# File created from file sensbiotk output
#
# File format:
# id	t	dt	ax	ay	az	mx	my	mz	gx	gy	gz
#
# Units:
#	Time: s
#	Acceleration: m.s^-2
#	Magneto: gauss
#	Gyrometer: rad/s
#
1	0.018372	0.018372	0.546099	9.921198	0.931977	-0.762687	-0.643284	0.795000	0.011212	-0.016239	-0.009070
2	0.023372	0.005000	0.515732	9.922108	0.896908	-0.760932	-0.642406	0.794020	0.018676	-0.013488	0.001132
3	0.028372	0.005000	0.439261	9.903723	0.965757	-0.759176	-0.641529	0.793040	0.034379	-0.003966	-0.003744
4	0.033372	0.005000	0.372977	9.917812	1.030148	-0.757421	-0.640651	0.792060	0.028564	-0.016714	0.007413
5	0.038372	0.005000	0.431640	9.915747	1.059480	-0.755666	-0.639773	0.791080	0.020990	0.000453	0.000304
6	0.043372	0.005000	0.431640	9.878012	0.956146	-0.753910	-0.638895	0.790100	0.025016	-0.009499	-0.001031
7	0.048372	0.005000	0.392400	9.911399	0.925439	-0.752155	-0.638018	0.789120	0.016403	-0.006482	0.002308
8	0.053372	0.005000	0.489612	9.965185	0.979225	-0.750399	-0.637140	0.788140	0.011887	-0.010310	0.002346
9	0.058372	0.005000	0.392400	9.950508	0.863280	-0.748644	-0.636262	0.787160	0.011894	-0.014753	0.001210
10	0.063372	0.005000	0.470880	10.038504	0.948696	-0.746889	-0.635385	0.786180	0.020715	-0.008790	-0.006720
11	0.068372	0.005000	0.521284	10.003326	0.866154	-0.745133	-0.634507	0.785200	0.007502	-0.015162	0.010156
12	0.073372	0.005000	0.415999	9.978760	0.926119	-0.743378	-0.633629	0.784220	0.012254	-0.000069	0.010401
13	0.078372	0.005000	0.431640	10.015942	1.049738	-0.741623	-0.632751	0.783240	0.007558	-0.015075	0.001767
14	0.083372	0.005000	0.446521	10.013641	1.052039	-0.739867	-0.631874	0.782260	0.000679	-0.006249	-0.001698
15	0.088372	0.005000	0.436675	10.040405	0.897485	-0.739066	-0.631169	0.781715	0.017752	-0.007062	0.001895
16	0.093372	0.005000	0.467824	9.963904	0.863280	-0.739724	-0.630731	0.781838	0.019627	-0.010654	-0.000361
17	0.098372	0.005000	0.391726	9.849240	0.785474	-0.740383	-0.630292	0.781960	0.019660	-0.006169	0.008448
18	0.103372	0.005000	0.353160	9.849240	0.861571	-0.741041	-0.629853	0.782083	0.026702	-0.011091	-0.004011
19	0.108372	0.005000	0.431640	9.852914	0.820366	-0.741699	-0.629414	0.782205	0.030200	-0.002471	0.001953
20	0.113372	0.005000	0.431640	9.915679	0.763622	-0.742357	-0.628975	0.782328	0.031518	-0.010320	0.001433
21	0.118372	0.005000	0.400423	9.888480	0.886475	-0.743016	-0.628537	0.782450	0.030547	-0.016041	0.002770
22	0.123372	0.005000	0.363597	9.849240	0.931323	-0.743674	-0.628098	0.782573	0.023339	-0.010872	-0.000301
23	0.128372	0.005000	0.392400	9.862790	0.863280	-0.744332	-0.627659	0.782695	0.022517	-0.015636	0.005112
24	0.133372	0.005000	0.431640	10.001071	0.799590	-0.744990	-0.627220	0.782818	0.002327	-0.007087	0.001527
25	0.138372	0.005000	0.505284	9.910518	0.789636	-0.745648	-0.626781	0.782940	0.016245	-0.005404	0.006261
26	0.143372	0.005000	0.490026	9.887531	0.803946	-0.746307	-0.626343	0.783062	-0.005243	-0.001964	0.012453
27	0.148372	0.005000	0.435513	9.853113	0.859407	-0.746965	-0.625904	0.783185	-0.007641	0.000716	-0.000399
28	0.153372	0.005000	0.407951	9.904031	0.878831	-0.747623	-0.625465	0.783307	0.000068	-0.003021	0.008360
29	0.158372	0.005000	0.418310	9.888480	0.849950	-0.747848	-0.625546	0.783042	0.010056	0.002169	-0.002434
30	0.163372	0.005000	0.364415	9.916465	0.874535	-0.747958	-0.625766	0.782675	0.012923	-0.003436	-0.002864
31	0.168372	0.005000	0.322785	9.936585	0.784800	-0.748067	-0.625985	0.782307	0.032546	-0.009874	0.004333
32	0.173372	0.005000	0.470880	9.953829	0.941760	-0.748177	-0.626205	0.781940	0.044390	-0.007659	-0.001742
33	0.178372	0.005000	0.392400	9.932288	0.937192	-0.748287	-0.626424	0.781572	0.035008	-0.007349	0.000097
34	0.183372	0.005000	0.433845	9.927720	0.904725	-0.748396	-0.626644	0.781205	0.030019	-0.006890	-0.007176
35	0.188372	0.005000	0.470880	9.927720	0.824630	-0.748506	-0.626863	0.780837	0.032040	-0.020795	-0.007397
36	0.193372	0.005000	0.510120	9.927720	0.935332	-0.748616	-0.627082	0.780470	0.022676	-0.012063	0.003859
37	0.198372	0.005000	0.544813	9.932267	0.754654	-0.748726	-0.627302	0.780102	0.026235	-0.020771	0.010894
38	0.203372	0.005000	0.366926	9.934603	0.759326	-0.748835	-0.627521	0.779735	0.010940	-0.012692	0.014311
39	0.208372	0.005000	0.410214	9.858147	0.845466	-0.748945	-0.627741	0.779367	0.009451	-0.007998	-0.004600
40	0.213372	0.005000	0.392400	9.865852	0.851966	-0.749055	-0.627960	0.779000	0.016364	-0.008559	-0.003516
41	0.218372	0.005000	0.353160	9.902049	0.888951	-0.749165	-0.628179	0.778632	0.019734	-0.006355	0.001054
42	0.223372	0.005000	0.400297	9.912048	0.847608	-0.749315	-0.628317	0.778333	0.011519	-0.012138	0.001069
43	0.228372	0.005000	0.353160	9.888480	0.863280	-0.749644	-0.628098	0.778333	0.018873	-0.004282	-0.006529
44	0.233372	0.005000	0.431640	9.868454	0.902520	-0.749973	-0.627878	0.778333	0.012349	-0.008333	0.003024
45	0.238372	0.005000	0.470880	9.888480	0.840844	-0.750302	-0.627659	0.778333	0.022046	-0.008350	-0.000397
46	0.243372	0.005000	0.470880	10.006200	0.838729	-0.750631	-0.627440	0.778333	0.013027	-0.003012	-0.001677
47	0.248372	0.005000	0.470880	9.954513	0.809694	-0.750961	-0.627220	0.778333	0.020225	-0.013943	0.002370
48	0.253372	0.005000	0.392400	9.927720	0.843201	-0.751290	-0.627001	0.778333	0.015854	-0.001847	-0.001072
49	0.258372	0.005000	0.454682	9.888480	0.987844	-0.751619	-0.626781	0.778333	0.002816	-0.016306	-0.004514
50	0.263372	0.005000	0.398093	9.882787	0.796186	-0.751948	-0.626562	0.778333	0.010058	-0.012998	0.005342
51	0.268372	0.005000	0.502708	9.888480	0.988412	-0.752277	-0.626343	0.778333	0.001101	-0.006559	0.005968
52	0.273372	0.005000	0.435636	9.968292	1.014912	-0.752606	-0.626123	0.778333	0.004005	-0.014582	0.002622
53	0.278372	0.005000	0.434817	9.968019	0.825099	-0.752935	-0.625904	0.778333	-0.000929	-0.006594	-0.007510
54	0.283372	0.005000	0.467864	9.897528	0.836104	-0.753264	-0.625684	0.778333	-0.005845	-0.014165	0.000489
55	0.288372	0.005000	0.504750	9.888480	0.857910	-0.753593	-0.625465	0.778333	-0.002129	-0.001177	0.006997
56	0.293372	0.005000	0.470880	9.998823	0.863280	-0.753030	-0.625500	0.778760	-0.003278	-0.003921	-0.004290
57	0.298372	0.005000	0.382617	9.986526	0.892737	-0.751824	-0.625720	0.779495	0.002097	-0.010197	-0.003718
58	0.303372	0.005000	0.482608	9.927720	0.925975	-0.750617	-0.625939	0.780229	0.003080	-0.010296	-0.006279
59	0.308372	0.005000	0.510120	9.863381	0.941760	-0.749411	-0.626158	0.780964	0.014550	-0.007774	0.007525
60	0.313372	0.005000	0.431640	9.872395	0.948831	-0.748205	-0.626378	0.781699	0.015725	-0.004462	-0.001352
61	0.318372	0.005000	0.450135	9.869985	0.863280	-0.746999	-0.626597	0.782434	0.019773	-0.008618	-0.000292
62	0.323372	0.005000	0.413064	9.867816	0.879769	-0.745793	-0.626816	0.783168	0.013100	-0.008579	-0.003007
63	0.328372	0.005000	0.385942	9.944111	0.863280	-0.744586	-0.627036	0.783903	0.018769	-0.007448	-0.009815
64	0.333372	0.005000	0.417652	9.846516	0.933220	-0.743380	-0.627255	0.784638	0.025116	-0.010031	0.006387
65	0.338372	0.005000	0.431640	9.810000	0.996430	-0.742174	-0.627474	0.785372	0.003589	-0.006024	-0.003497
66	0.343372	0.005000	0.382770	9.868500	0.863280	-0.740968	-0.627694	0.786107	0.000606	-0.012428	-0.001032
67	0.348372	0.005000	0.360384	9.934944	0.845711	-0.739761	-0.627913	0.786842	0.006674	-0.011502	0.005847
68	0.353372	0.005000	0.426421	10.011419	0.952198	-0.738555	-0.628132	0.787576	0.004873	-0.011076	0.002562
69	0.358372	0.005000	0.356023	10.000474	1.014514	-0.737349	-0.628351	0.788311	0.006593	-0.006298	0.013007
70	0.363372	0.005000	0.391492	9.965145	0.981000	-0.737526	-0.628464	0.787620	0.000108	-0.004395	0.004946
71	0.368372	0.005000	0.541935	9.963990	0.867735	-0.737745	-0.628574	0.786885	0.000136	-0.013907	0.007888
72	0.373372	0.005000	0.510120	9.880765	0.859423	-0.737965	-0.628684	0.786150	0.010498	-0.002736	-0.001768
73	0.378372	0.005000	0.465034	9.916028	0.924221	-0.738184	-0.628794	0.785415	0.008385	-0.005880	-0.002171
74	0.383372	0.005000	0.470880	9.927720	0.801304	-0.738404	-0.628903	0.784680	0.020815	-0.009091	0.000318
75	0.388372	0.005000	0.510120	10.006200	0.863280	-0.738623	-0.629013	0.783945	0.005946	-0.003217	-0.003355
76	0.393372	0.005000	0.496101	9.993589	0.902520	-0.738843	-0.629123	0.783210	0.023888	-0.009817	-0.000740
77	0.398372	0.005000	0.368179	10.015401	0.902520	-0.739062	-0.629233	0.782475	0.016663	-0.004701	-0.004719
78	0.403372	0.005000	0.426327	9.922407	0.880244	-0.739282	-0.629342	0.781739	0.024262	-0.012770	-0.004621
79	0.408372	0.005000	0.431640	9.927215	0.863785	-0.739501	-0.629452	0.781004	0.012668	-0.011779	-0.006812
80	0.413372	0.005000	0.410328	9.867168	0.959688	-0.739721	-0.629562	0.780269	-0.000933	-0.003921	-0.001674
81	0.418372	0.005000	0.455362	9.912202	0.957278	-0.739940	-0.629672	0.779534	0.013533	-0.013355	-0.000633
82	0.423372	0.005000	0.484298	9.927720	1.007836	-0.740160	-0.629781	0.778799	0.014455	-0.006737	-0.003711
83	0.428372	0.005000	0.510120	10.006200	0.969839	-0.740299	-0.629811	0.778781	0.008099	-0.019206	0.001930
84	0.433372	0.005000	0.392400	10.010424	0.902520	-0.740299	-0.629701	0.780006	0.008937	-0.013193	0.006425
85	0.438372	0.005000	0.385590	9.927720	0.909330	-0.740299	-0.629591	0.781231	0.018786	-0.023413	0.008136
86	0.443372	0.005000	0.388006	9.927720	0.928578	-0.740299	-0.629482	0.782456	0.019242	-0.015260	0.005198
87	0.448372	0.005000	0.431640	9.964540	0.782380	-0.740299	-0.629372	0.783681	0.018243	-0.012972	-0.004992
88	0.453372	0.005000	0.431594	9.966960	0.824040	-0.740299	-0.629262	0.784906	0.021696	-0.005579	0.005765
89	0.458372	0.005000	0.392400	9.966960	0.936065	-0.740299	-0.629152	0.786131	0.013382	-0.011093	-0.001483
90	0.463372	0.005000	0.401032	9.927720	0.898204	-0.740299	-0.629043	0.787356	0.015380	-0.014914	0.000842
91	0.468372	0.005000	0.326439	9.999941	0.830299	-0.740299	-0.628933	0.788582	0.016208	-0.010647	0.010597
92	0.473372	0.005000	0.383734	10.006200	0.793466	-0.740299	-0.628823	0.789807	0.021686	-0.007719	-0.000192
93	0.478372	0.005000	0.459943	9.984326	0.891583	-0.740299	-0.628713	0.791032	0.008409	-0.008874	0.001907
94	0.483372	0.005000	0.392400	9.927720	0.928746	-0.740299	-0.628604	0.792257	0.009643	-0.000044	-0.004843
95	0.488372	0.005000	0.431640	9.927720	0.815296	-0.740299	-0.628494	0.793482	0.026197	-0.005292	-0.003075
96	0.493372	0.005000	0.370530	9.910350	0.863280	-0.740299	-0.628384	0.794707	0.016928	-0.000870	-0.002597
97	0.498372	0.005000	0.470880	9.966960	0.981151	-0.740382	-0.628859	0.795466	0.021915	-0.009108	0.003055
98	0.503372	0.005000	0.435850	9.966960	0.937550	-0.740492	-0.629517	0.796078	0.021370	-0.008945	0.004427
99	0.508372	0.005000	0.377295	9.888480	0.854251	-0.740602	-0.630175	0.796691	-0.003208	-0.008975	-0.005312
100	0.513372	0.005000	0.444802	9.953798	0.863280	-0.740711	-0.630833	0.797304	0.008342	-0.014102	0.005492
101	0.518372	0.005000	0.403148	9.966960	0.959505	-0.740821	-0.631492	0.797916	0.002904	-0.011729	0.014880
102	0.523372	0.005000	0.422942	9.958262	0.893822	-0.740931	-0.632150	0.798529	0.011667	-0.011973	0.011351
103	0.528372	0.005000	0.398797	9.940514	0.915314	-0.741040	-0.632808	0.799141	0.017580	-0.009622	-0.003069
104	0.533372	0.005000	0.431640	10.006200	0.937358	-0.741150	-0.633466	0.799754	0.017723	-0.010118	-0.004489
105	0.538372	0.005000	0.468844	9.931793	0.871425	-0.741260	-0.634125	0.800366	0.017033	-0.011977	-0.002242
106	0.543372	0.005000	0.509394	9.967323	0.903609	-0.741369	-0.634783	0.800979	0.018215	-0.005860	0.000500
107	0.548372	0.005000	0.581667	9.966960	0.828662	-0.741479	-0.635441	0.801591	0.024994	-0.015967	0.002986
108	0.553372	0.005000	0.549360	9.932436	0.828756	-0.741589	-0.636099	0.802204	0.017181	-0.015662	-0.000117
109	0.558372	0.005000	0.399449	9.948868	0.902520	-0.741698	-0.636757	0.802816	0.025232	-0.014290	0.007071
110	0.563372	0.005000	0.383325	9.918645	0.941760	-0.741979	-0.637279	0.803161	0.012770	-0.008416	0.003242
111	0.568372	0.005000	0.443123	9.888480	0.925485	-0.743185	-0.637059	0.802059	0.022787	-0.012506	-0.000608
112	0.573372	0.005000	0.353160	9.915334	0.915947	-0.744392	-0.636840	0.800957	0.022957	-0.006895	0.003363
113	0.578372	0.005000	0.392400	9.904320	0.886680	-0.745598	-0.636621	0.799855	0.014452	-0.006950	0.005088
114	0.583372	0.005000	0.413857	9.831457	0.863280	-0.746804	-0.636402	0.798753	0.013317	-0.009774	0.011936
115	0.588372	0.005000	0.450686	9.966960	0.745560	-0.748010	-0.636182	0.797651	0.012758	-0.011285	-0.001254
116	0.593372	0.005000	0.414743	10.011646	0.728663	-0.749217	-0.635963	0.796549	0.004567	-0.014384	-0.000291
117	0.598372	0.005000	0.377708	9.913028	0.755416	-0.750423	-0.635744	0.795447	0.006685	-0.006973	0.010900
118	0.603372	0.005000	0.392400	9.876201	0.689234	-0.751629	-0.635524	0.794345	0.004722	-0.001862	-0.001278
119	0.608372	0.005000	0.412822	9.937931	0.842858	-0.752835	-0.635305	0.793242	0.016805	-0.011580	0.006011
120	0.613372	0.005000	0.541429	9.919789	0.675011	-0.754042	-0.635086	0.792140	0.017090	-0.004596	0.001152
121	0.618372	0.005000	0.426115	9.966960	0.756610	-0.755248	-0.634866	0.791038	0.025174	-0.012588	0.004581
122	0.623372	0.005000	0.328245	9.966960	0.827621	-0.756454	-0.634647	0.789936	0.024681	-0.003588	-0.001651
123	0.628372	0.005000	0.469716	9.926556	0.903684	-0.757660	-0.634428	0.788834	0.018281	-0.000045	0.002964
124	0.633372	0.005000	0.393181	9.965399	0.980219	-0.757671	-0.634149	0.788066	0.024431	-0.005192	0.009548
125	0.638372	0.005000	0.428455	9.924535	0.869649	-0.756683	-0.633820	0.787576	0.013237	0.000000	-0.004013
126	0.643372	0.005000	0.487490	9.972497	0.751097	-0.755696	-0.633490	0.787086	0.004408	-0.010595	0.003265
127	0.648372	0.005000	0.463335	9.896025	0.904035	-0.754709	-0.633161	0.786596	-0.002878	-0.006523	0.001335
128	0.653372	0.005000	0.480832	9.927720	0.863280	-0.753721	-0.632832	0.786106	-0.001922	-0.008965	-0.005211
129	0.658372	0.005000	0.337712	9.873032	0.796696	-0.752734	-0.632503	0.785616	0.001328	-0.009300	0.003853
130	0.663372	0.005000	0.510120	9.863549	0.848971	-0.751746	-0.632174	0.785126	0.008033	-0.011271	-0.001889
131	0.668372	0.005000	0.504317	9.888480	0.846561	-0.750759	-0.631845	0.784636	0.012460	-0.017462	0.009911
132	0.673372	0.005000	0.411063	9.907143	0.943674	-0.749772	-0.631516	0.784146	0.014414	-0.009203	-0.005789
133	0.678372	0.005000	0.413230	9.948550	0.941760	-0.748784	-0.631187	0.783656	0.023731	-0.009116	0.003066
134	0.683372	0.005000	0.369389	9.833011	0.964771	-0.747797	-0.630858	0.783166	0.022986	-0.001441	0.006405
135	0.688372	0.005000	0.380799	9.823820	0.849460	-0.746809	-0.630529	0.782676	0.035227	-0.010722	-0.003860
136	0.693372	0.005000	0.498244	9.939596	0.887032	-0.745822	-0.630200	0.782186	0.038911	-0.019019	-0.000692
137	0.698372	0.005000	0.461418	9.927720	0.864673	-0.744835	-0.629871	0.781696	0.019497	-0.013057	0.005955
138	0.703372	0.005000	0.517547	9.927720	0.814510	-0.744363	-0.629748	0.781667	0.028477	-0.018699	0.009934
139	0.708372	0.005000	0.436752	9.844128	0.931537	-0.743924	-0.629638	0.781667	0.013255	-0.011168	0.007754
140	0.713372	0.005000	0.474011	9.777023	0.830303	-0.743486	-0.629528	0.781667	0.026699	-0.014722	-0.000109
141	0.718372	0.005000	0.586349	9.852241	0.980250	-0.743047	-0.629419	0.781667	0.018886	-0.007990	0.007836
142	0.723372	0.005000	0.433274	10.006200	0.866547	-0.742608	-0.629309	0.781667	0.019055	-0.002713	0.002859
143	0.728372	0.005000	0.435238	9.931318	0.788398	-0.742169	-0.629199	0.781667	0.027216	-0.008807	0.004238
144	0.733372	0.005000	0.365050	9.927720	0.896575	-0.741730	-0.629089	0.781667	0.020836	-0.001345	-0.002251
145	0.738372	0.005000	0.431640	9.935678	0.933802	-0.741292	-0.628980	0.781667	0.023492	-0.016913	0.011391
146	0.743372	0.005000	0.363525	10.006200	0.902520	-0.740853	-0.628870	0.781667	0.013617	-0.004785	0.004878
147	0.748372	0.005000	0.392400	9.952982	0.915151	-0.740414	-0.628760	0.781667	0.011966	-0.004727	0.007635
148	0.753372	0.005000	0.407113	9.863953	0.873094	-0.739975	-0.628650	0.781667	0.021832	-0.018075	0.002425
149	0.758372	0.005000	0.370087	9.871553	0.863280	-0.739536	-0.628541	0.781667	0.013953	-0.002585	-0.003703
150	0.763372	0.005000	0.412571	9.850342	0.979898	-0.739097	-0.628431	0.781667	0.011513	-0.000230	-0.000654
151	0.768372	0.005000	0.513840	9.806280	0.806280	-0.738880	-0.628358	0.781790	0.008457	0.003077	-0.001270
152	0.773372	0.005000	0.455254	9.974947	0.800426	-0.739099	-0.628358	0.782158	0.011566	-0.002606	0.000345
153	0.778372	0.005000	0.446026	10.006200	0.915926	-0.739318	-0.628358	0.782525	0.011912	-0.006349	-0.004464
154	0.783372	0.005000	0.510120	9.916257	0.997314	-0.739538	-0.628358	0.782893	0.011070	0.001929	-0.002887
155	0.788372	0.005000	0.452783	9.927720	0.860233	-0.739757	-0.628358	0.783260	0.012859	-0.002633	0.005343
156	0.793372	0.005000	0.392400	9.927720	0.959943	-0.739977	-0.628358	0.783628	0.012889	-0.002504	-0.003543
157	0.798372	0.005000	0.431640	9.923022	0.858582	-0.740196	-0.628358	0.783996	0.014292	-0.006777	0.000812
158	0.803372	0.005000	0.510120	9.883034	0.978277	-0.740416	-0.628358	0.784363	0.010848	-0.000866	0.000759
159	0.808372	0.005000	0.549023	9.888817	0.941423	-0.740635	-0.628358	0.784731	0.006897	-0.005470	0.004073
160	0.813372	0.005000	0.510120	10.002986	1.015419	-0.740854	-0.628358	0.785098	0.004189	-0.006815	0.007715
161	0.818372	0.005000	0.435651	9.970971	1.016229	-0.741074	-0.628358	0.785466	-0.006787	0.007739	0.000290
162	0.823372	0.005000	0.372220	9.901187	0.908873	-0.741293	-0.628358	0.785833	-0.003568	-0.002253	0.007947
163	0.828372	0.005000	0.384041	9.919361	0.824040	-0.741513	-0.628358	0.786201	-0.006876	-0.003399	-0.003482
164	0.833372	0.005000	0.392400	9.831548	0.802492	-0.741732	-0.628358	0.786568	-0.004117	-0.003121	0.003268
165	0.838372	0.005000	0.405118	9.875762	0.824040	-0.742032	-0.628278	0.786398	-0.005270	0.001828	0.010005
166	0.843372	0.005000	0.368286	9.927720	0.935621	-0.742361	-0.628168	0.786031	0.004721	0.005832	-0.000137
167	0.848372	0.005000	0.409736	9.923152	0.990137	-0.742690	-0.628058	0.785663	0.008990	-0.007245	0.006675
168	0.853372	0.005000	0.372918	9.908238	1.039722	-0.743019	-0.627949	0.785296	0.007512	0.000380	0.002379
169	0.858372	0.005000	0.431640	10.006200	1.024264	-0.743348	-0.627839	0.784928	0.031816	-0.005388	-0.002612
170	0.863372	0.005000	0.463914	10.006200	0.894084	-0.743677	-0.627729	0.784561	0.025775	-0.006871	-0.002058
171	0.868372	0.005000	0.379147	10.006200	0.941500	-0.744007	-0.627620	0.784193	0.022557	0.003248	-0.002756
172	0.873372	0.005000	0.499070	9.984101	0.874330	-0.744336	-0.627510	0.783826	0.028293	-0.001650	0.002292
173	0.878372	0.005000	0.453610	9.966960	0.849945	-0.744665	-0.627400	0.783458	0.021549	0.001220	0.006652
174	0.883372	0.005000	0.438251	9.895091	0.994221	-0.744994	-0.627291	0.783091	0.027152	-0.007202	0.003360
175	0.888372	0.005000	0.388115	9.971245	0.981000	-0.745323	-0.627181	0.782723	0.012461	-0.007385	0.009990
176	0.893372	0.005000	0.506384	10.006200	0.981000	-0.745652	-0.627071	0.782356	0.026333	-0.008485	0.003016
177	0.898372	0.005000	0.392461	9.888664	0.941821	-0.745981	-0.626962	0.781988	0.013375	-0.007538	0.002650
178	0.903372	0.005000	0.350709	9.886029	0.936859	-0.746255	-0.626838	0.781713	0.007069	0.000362	-0.011530
179	0.908372	0.005000	0.396823	9.962537	0.789223	-0.746145	-0.626619	0.782081	0.020907	-0.002744	0.003934
180	0.913372	0.005000	0.359907	10.012947	0.882280	-0.746036	-0.626399	0.782448	0.022306	0.001470	0.008861
181	0.918372	0.005000	0.453335	9.975733	0.902520	-0.745926	-0.626180	0.782816	0.023544	-0.008471	0.008900
182	0.923372	0.005000	0.470880	9.927720	0.981000	-0.745816	-0.625961	0.783184	0.030238	-0.012569	0.003168
183	0.928372	0.005000	0.431793	9.993069	0.784953	-0.745706	-0.625741	0.783551	0.033503	-0.001848	0.004261
184	0.933372	0.005000	0.329460	9.951420	0.761100	-0.745597	-0.625522	0.783919	0.035627	-0.007567	0.000277
185	0.938372	0.005000	0.378407	9.866984	0.802544	-0.745487	-0.625302	0.784286	0.021448	-0.000610	0.005057
186	0.943372	0.005000	0.411745	9.908375	0.785902	-0.745377	-0.625083	0.784654	0.026388	-0.003393	0.007666
187	0.948372	0.005000	0.431640	9.826933	0.818666	-0.745267	-0.624864	0.785021	0.017214	-0.009643	0.011626
188	0.953372	0.005000	0.368149	9.873491	0.839029	-0.745158	-0.624644	0.785389	0.016050	-0.010889	0.005870
189	0.958372	0.005000	0.417560	9.847740	0.875860	-0.745048	-0.624425	0.785756	0.016754	-0.015501	0.001849
190	0.963372	0.005000	0.381887	9.896180	0.842253	-0.744938	-0.624205	0.786124	0.020171	-0.006833	0.002126
191	0.968372	0.005000	0.384166	9.739754	0.745560	-0.744828	-0.623986	0.786491	0.029067	-0.004744	0.006160
192	0.973372	0.005000	0.398617	9.855457	0.667080	-0.744433	-0.623767	0.786475	0.023949	-0.000250	0.001728
193	0.978372	0.005000	0.431640	9.888480	0.710193	-0.743774	-0.623547	0.786108	0.027868	-0.011400	0.004039
194	0.983372	0.005000	0.470880	9.927720	0.859468	-0.743116	-0.623328	0.785740	0.024372	-0.003580	-0.000960
195	0.988372	0.005000	0.393349	9.888955	0.784800	-0.742458	-0.623108	0.785373	0.025885	-0.006094	0.000504
196	0.993372	0.005000	0.392400	9.888480	0.784800	-0.741800	-0.622889	0.785005	0.011185	-0.002778	0.009201
197	0.998372	0.005000	0.392400	9.952452	0.809532	-0.741142	-0.622670	0.784638	0.003854	-0.003988	0.000680
198	1.003372	0.005000	0.424398	9.927720	0.831282	-0.740483	-0.622450	0.784270	0.010186	-0.011119	0.003847
199	1.008372	0.005000	0.392400	9.927720	0.884148	-0.739825	-0.622231	0.783903	0.010599	-0.006622	0.007007
200	1.013372	0.005000	0.486919	9.939321	0.784800	-0.739167	-0.622011	0.783535	0.005498	-0.009612	-0.000180
201	1.018372	0.005000	0.472273	10.033288	0.837584	-0.738509	-0.621792	0.783168	-0.004748	-0.013105	0.000339
202	1.023372	0.005000	0.447593	9.943673	0.886567	-0.737850	-0.621572	0.782800	-0.002191	-0.016378	-0.002814
203	1.028372	0.005000	0.431640	9.988047	0.905455	-0.737192	-0.621353	0.782433	-0.000147	-0.016706	0.002936
204	1.033372	0.005000	0.527696	10.006200	0.921459	-0.736534	-0.621134	0.782065	-0.001085	-0.018079	-0.004473
205	1.038372	0.005000	0.611049	9.961302	0.835174	-0.735876	-0.620914	0.781698	-0.001445	-0.023414	-0.001087
206	1.043372	0.005000	0.520190	10.006200	0.931690	-0.735821	-0.621499	0.782004	-0.003331	-0.015332	0.003575
207	1.048372	0.005000	0.446537	9.939892	1.008068	-0.735821	-0.622158	0.782371	0.012186	-0.016071	-0.002742
208	1.053372	0.005000	0.470880	9.946506	1.030467	-0.735821	-0.622816	0.782739	0.019747	-0.023920	-0.006657
209	1.058372	0.005000	0.478700	9.896300	1.012420	-0.735821	-0.623474	0.783106	0.029168	-0.018590	-0.003206
210	1.063372	0.005000	0.537742	9.916102	0.986809	-0.735821	-0.624132	0.783474	0.016477	-0.021723	-0.005921
211	1.068372	0.005000	0.399320	9.816920	1.066400	-0.735821	-0.624791	0.783842	0.000914	-0.019264	-0.008647
212	1.073372	0.005000	0.468768	9.889536	1.094496	-0.735821	-0.625449	0.784209	-0.007515	-0.019801	-0.006904
213	1.078372	0.005000	0.392400	9.927720	0.865056	-0.735821	-0.626107	0.784577	-0.008080	-0.020575	0.001888
214	1.083372	0.005000	0.317226	9.888480	0.863280	-0.735821	-0.626765	0.784944	-0.009785	-0.016556	-0.006636
215	1.088372	0.005000	0.425998	9.983630	0.936118	-0.735821	-0.627423	0.785312	-0.003225	-0.020294	0.001266
216	1.093372	0.005000	0.360815	9.982270	0.925485	-0.735821	-0.628082	0.785679	-0.011309	-0.020215	-0.004819
217	1.098372	0.005000	0.402354	9.966960	0.931806	-0.735821	-0.628740	0.786047	-0.002301	-0.022660	0.001890
218	1.103372	0.005000	0.392400	9.954631	0.941760	-0.735821	-0.629398	0.786414	-0.006478	-0.022180	0.004781
219	1.108372	0.005000	0.417223	9.981377	0.945770	-0.736129	-0.629851	0.786476	0.012040	-0.024241	0.000369
220	1.113372	0.005000	0.392400	9.960970	0.925135	-0.737116	-0.629851	0.785863	0.008299	-0.025877	0.006245
221	1.118372	0.005000	0.373630	10.006200	0.962230	-0.738104	-0.629851	0.785251	0.010970	-0.015857	0.001208
222	1.123372	0.005000	0.431640	10.066621	0.920579	-0.739091	-0.629851	0.784638	0.016802	-0.023214	-0.000644
223	1.128372	0.005000	0.447569	9.911791	0.950307	-0.740079	-0.629851	0.784026	0.001617	-0.015710	0.008893
224	1.133372	0.005000	0.378697	9.953257	0.967297	-0.741066	-0.629851	0.783413	0.006778	-0.015096	0.005230
225	1.138372	0.005000	0.431640	9.927720	0.879931	-0.742053	-0.629851	0.782800	0.012466	-0.018318	0.010714
226	1.143372	0.005000	0.373915	9.936963	0.870254	-0.743041	-0.629851	0.782188	0.010833	-0.007106	-0.003824
227	1.148372	0.005000	0.334727	10.006200	0.941760	-0.744028	-0.629851	0.781575	0.005317	-0.006448	0.005777
228	1.153372	0.005000	0.431640	9.952166	0.868211	-0.745016	-0.629851	0.780963	0.018137	-0.003993	0.002135
229	1.158372	0.005000	0.394986	9.925134	0.858107	-0.746003	-0.629851	0.780350	0.035101	-0.014197	0.006464
230	1.163372	0.005000	0.392400	9.927720	0.902520	-0.746990	-0.629851	0.779737	0.023213	-0.013734	0.012215
231	1.168372	0.005000	0.429431	10.001783	0.865489	-0.747978	-0.629851	0.779125	0.009986	-0.006839	-0.001321
232	1.173372	0.005000	0.470880	9.896839	0.867460	-0.748965	-0.629851	0.778512	0.011931	-0.014297	0.016415
233	1.178372	0.005000	0.431640	9.855362	0.890277	-0.748944	-0.629773	0.778246	0.027230	-0.006305	0.006565
234	1.183372	0.005000	0.400826	9.880054	0.849318	-0.748505	-0.629664	0.778124	0.027032	-0.007512	0.018630
235	1.188372	0.005000	0.381928	9.878008	0.863280	-0.748066	-0.629554	0.778001	0.009690	-0.003402	0.008332
236	1.193372	0.005000	0.340274	9.940606	0.810572	-0.747627	-0.629444	0.777879	0.020359	-0.007543	0.002372
237	1.198372	0.005000	0.392400	9.927720	0.809210	-0.747188	-0.629334	0.777757	0.023794	-0.011977	0.005665
238	1.203372	0.005000	0.488119	9.910481	0.968522	-0.746750	-0.629225	0.777634	0.020318	-0.009073	0.006425
239	1.208372	0.005000	0.372583	9.869057	0.883490	-0.746311	-0.629115	0.777512	0.025457	-0.010850	0.009409
240	1.213372	0.005000	0.392400	9.906126	0.984948	-0.745872	-0.629005	0.777389	0.020496	-0.002170	0.000330
241	1.218372	0.005000	0.377166	9.966960	0.878514	-0.745433	-0.628895	0.777267	0.031521	-0.004695	0.006285
242	1.223372	0.005000	0.457591	10.018862	0.915182	-0.744994	-0.628786	0.777144	0.024880	-0.012032	0.001222
243	1.228372	0.005000	0.431640	9.956079	0.767323	-0.744555	-0.628676	0.777022	0.025537	-0.002455	-0.004043
244	1.233372	0.005000	0.383566	9.936554	0.832874	-0.744117	-0.628566	0.776899	0.035281	-0.018554	-0.001535
245	1.238372	0.005000	0.444684	9.921198	0.797844	-0.743678	-0.628456	0.776777	0.037129	-0.007681	0.002421
246	1.243372	0.005000	0.470880	9.814523	0.888951	-0.743261	-0.628381	0.776755	0.026607	-0.011218	0.003088
247	1.248372	0.005000	0.473054	9.929894	0.791322	-0.743042	-0.628600	0.777613	0.019638	-0.010553	0.003170
248	1.253372	0.005000	0.509666	9.927947	0.824040	-0.742822	-0.628820	0.778471	0.014951	-0.007547	-0.001622
249	1.258372	0.005000	0.431640	9.892828	0.824040	-0.742603	-0.629039	0.779329	0.026704	-0.013936	0.005986
250	1.263372	0.005000	0.501883	9.884362	0.745560	-0.742383	-0.629259	0.780187	0.011839	-0.013154	0.001461
251	1.268372	0.005000	0.438175	9.823070	0.784800	-0.742164	-0.629478	0.781044	0.010190	-0.015000	0.007103
252	1.273372	0.005000	0.330877	9.888480	0.807083	-0.741944	-0.629698	0.781902	0.010162	-0.014605	0.006171
253	1.278372	0.005000	0.381514	9.905949	0.852394	-0.741725	-0.629917	0.782760	0.013124	-0.017584	0.006100
254	1.283372	0.005000	0.418810	9.954130	0.771220	-0.741505	-0.630137	0.783618	0.000440	-0.009211	0.000003
255	1.288372	0.005000	0.407643	9.982203	0.887277	-0.741286	-0.630356	0.784476	0.000688	-0.009307	-0.007012
256	1.293372	0.005000	0.392400	9.984402	0.784800	-0.741066	-0.630576	0.785334	-0.000456	-0.018254	0.004315
257	1.298372	0.005000	0.372803	9.927720	0.726009	-0.740847	-0.630795	0.786192	-0.008798	-0.008941	-0.003827
258	1.303372	0.005000	0.470880	9.910233	0.780534	-0.740627	-0.631015	0.787050	-0.005102	-0.021436	-0.004099
259	1.308372	0.005000	0.455591	9.873191	0.817413	-0.740408	-0.631234	0.787907	0.001379	-0.008631	-0.000036
260	1.313372	0.005000	0.392400	9.914232	0.798288	-0.741515	-0.631619	0.788703	-0.017398	-0.015939	0.001250
261	1.318372	0.005000	0.364103	9.927720	0.795743	-0.743929	-0.632168	0.789438	-0.016161	-0.012010	0.003102
262	1.323372	0.005000	0.370216	9.936248	0.841096	-0.746342	-0.632717	0.790174	-0.008263	-0.008600	0.000755
263	1.328372	0.005000	0.457713	9.966960	0.850113	-0.748756	-0.633265	0.790909	-0.001851	-0.019893	-0.003360
264	1.333372	0.005000	0.396578	9.958604	0.780622	-0.751169	-0.633814	0.791644	-0.022511	-0.012580	-0.004743
265	1.338372	0.005000	0.392400	9.927720	0.787009	-0.753583	-0.634362	0.792379	-0.030608	-0.021573	0.005397
266	1.343372	0.005000	0.392400	9.888664	0.824040	-0.755996	-0.634911	0.793114	-0.017558	-0.022278	-0.001000
267	1.348372	0.005000	0.394956	9.927720	0.902520	-0.758410	-0.635459	0.793849	-0.028325	-0.016666	-0.006268
268	1.353372	0.005000	0.422576	9.962428	0.950824	-0.760823	-0.636008	0.794584	-0.016493	-0.016904	0.003215
269	1.358372	0.005000	0.392400	9.941456	0.902520	-0.763237	-0.636556	0.795319	-0.019349	-0.017465	-0.004232
270	1.363372	0.005000	0.392400	9.918828	0.884737	-0.765650	-0.637105	0.796054	-0.009987	-0.020303	-0.001683
271	1.368372	0.005000	0.392400	9.955661	0.807398	-0.768064	-0.637654	0.796789	-0.012678	-0.020608	-0.004600
272	1.373372	0.005000	0.392400	9.849240	0.811287	-0.770477	-0.638202	0.797524	-0.008467	-0.014136	-0.010385
273	1.378372	0.005000	0.392400	9.810000	0.808384	-0.772891	-0.638751	0.798259	-0.005240	-0.017107	-0.008190
274	1.383372	0.005000	0.435180	9.927720	0.884670	-0.770865	-0.638214	0.797672	0.004504	-0.020881	-0.009812
275	1.388372	0.005000	0.393165	9.986197	0.941760	-0.768342	-0.637556	0.796937	-0.000976	-0.018075	0.001627
276	1.393372	0.005000	0.375106	9.915079	1.015588	-0.765819	-0.636898	0.796202	-0.007816	-0.015945	-0.007245
277	1.398372	0.005000	0.392400	9.957483	1.020240	-0.763295	-0.636239	0.795467	-0.006360	-0.016188	-0.005894
278	1.403372	0.005000	0.365942	9.966960	1.007458	-0.760772	-0.635581	0.794732	-0.002202	-0.022817	-0.006222
279	1.408372	0.005000	0.402929	9.966960	0.923579	-0.758249	-0.634923	0.793997	-0.016621	-0.013367	-0.011588
280	1.413372	0.005000	0.392400	9.927720	0.997973	-0.755725	-0.634265	0.793262	-0.006863	-0.019677	0.008135
281	1.418372	0.005000	0.353160	9.960790	1.152520	-0.753202	-0.633606	0.792527	-0.010829	-0.020936	0.006822
282	1.423372	0.005000	0.388635	9.959430	0.981000	-0.750679	-0.632948	0.791792	-0.003360	-0.014177	0.005154
283	1.428372	0.005000	0.467238	9.929541	0.981000	-0.748156	-0.632290	0.791057	-0.009270	-0.009675	0.001346
284	1.433372	0.005000	0.315100	9.928310	0.981000	-0.745632	-0.631632	0.790322	-0.005498	-0.008258	0.002366
285	1.438372	0.005000	0.277220	9.966960	1.062020	-0.743109	-0.630974	0.789587	-0.004440	-0.018158	0.000497
286	1.443372	0.005000	0.353160	9.898252	0.985886	-0.740586	-0.630315	0.788852	0.000994	-0.003206	-0.009546
287	1.448372	0.005000	0.353160	9.842350	0.916299	-0.738838	-0.629819	0.788369	0.015133	-0.007724	-0.004119
288	1.453372	0.005000	0.371747	9.987613	1.020240	-0.738948	-0.629709	0.788492	0.019202	-0.010543	-0.004507
289	1.458372	0.005000	0.353160	9.966960	1.020240	-0.739058	-0.629599	0.788614	0.029199	-0.007786	0.001950
290	1.463372	0.005000	0.341223	9.978897	1.020240	-0.739167	-0.629490	0.788737	0.020424	-0.013084	-0.001758
291	1.468372	0.005000	0.431640	10.029845	1.043885	-0.739277	-0.629380	0.788859	0.026365	-0.010316	0.006804
292	1.473372	0.005000	0.452875	9.960499	0.981000	-0.739387	-0.629270	0.788981	0.032053	-0.013040	0.008862
293	1.478372	0.005000	0.373768	9.947011	1.000949	-0.739496	-0.629161	0.789104	0.021779	0.001387	0.000369
294	1.483372	0.005000	0.392400	10.039961	0.930358	-0.739606	-0.629051	0.789226	0.014386	-0.007145	0.013686
295	1.488372	0.005000	0.298983	10.045440	0.995937	-0.739716	-0.628941	0.789349	0.018747	-0.004677	0.010878
296	1.493372	0.005000	0.379876	9.952767	0.889996	-0.739826	-0.628831	0.789471	0.018787	-0.015833	0.001567
297	1.498372	0.005000	0.442093	10.006200	0.905092	-0.739935	-0.628722	0.789594	0.019010	-0.012865	-0.000691
298	1.503372	0.005000	0.408745	9.998028	0.941760	-0.740045	-0.628612	0.789716	0.019221	0.005192	0.001869
299	1.508372	0.005000	0.437797	9.894637	0.923290	-0.740155	-0.628502	0.789839	0.031154	-0.007860	0.003892
300	1.513372	0.005000	0.396212	9.920096	0.898708	-0.740264	-0.628393	0.789961	0.036151	-0.003125	0.002439
301	1.518372	0.005000	0.392400	9.851086	0.749251	-0.740224	-0.628283	0.789414	0.042873	-0.014341	0.005648
302	1.523372	0.005000	0.392400	9.849776	0.901448	-0.740114	-0.628173	0.788556	0.043346	-0.007613	0.005510
303	1.528372	0.005000	0.389496	9.958247	1.053671	-0.740004	-0.628064	0.787699	0.046688	-0.009717	0.003054
304	1.533372	0.005000	0.461112	9.922836	0.990768	-0.739895	-0.627954	0.786841	0.041084	-0.007449	0.011790
305	1.538372	0.005000	0.431640	9.824431	0.824040	-0.739785	-0.627844	0.785983	0.036473	-0.004708	-0.004450
306	1.543372	0.005000	0.410887	9.780004	0.715564	-0.739675	-0.627735	0.785126	0.037729	-0.008050	0.005586
307	1.548372	0.005000	0.392400	9.810000	0.824040	-0.739566	-0.627625	0.784268	0.022237	-0.010013	0.006355
308	1.553372	0.005000	0.496525	9.861289	0.783254	-0.739456	-0.627515	0.783411	0.024918	-0.003244	0.002230
309	1.558372	0.005000	0.424416	9.856464	0.659856	-0.739346	-0.627406	0.782553	0.025591	-0.007396	-0.002693
310	1.563372	0.005000	0.431640	9.949008	0.649128	-0.739236	-0.627296	0.781696	0.027428	-0.008055	0.005224
311	1.568372	0.005000	0.412763	9.946597	0.744075	-0.739127	-0.627186	0.780838	0.021340	-0.007990	0.007475
312	1.573372	0.005000	0.426266	9.849240	0.779426	-0.739017	-0.627077	0.779980	0.020806	-0.003777	-0.003065
313	1.578372	0.005000	0.446164	9.892811	0.760084	-0.738907	-0.626967	0.779123	0.017142	-0.011759	0.002136
314	1.583372	0.005000	0.510120	9.915140	0.718900	-0.738815	-0.626857	0.778391	0.010991	-0.010762	-0.005019
315	1.588372	0.005000	0.489788	9.917554	0.774634	-0.738924	-0.626748	0.779126	0.018283	-0.009305	-0.006970
316	1.593372	0.005000	0.470880	9.911443	0.675218	-0.739034	-0.626638	0.779860	0.026545	-0.017696	0.005160
317	1.598372	0.005000	0.476698	9.888480	0.763014	-0.739144	-0.626528	0.780595	0.023009	-0.009480	-0.002227
318	1.603372	0.005000	0.545533	9.896134	0.760869	-0.739253	-0.626419	0.781330	0.028499	-0.018718	0.004437
319	1.608372	0.005000	0.467942	9.887011	0.937352	-0.739363	-0.626309	0.782065	0.020283	-0.013906	0.002484
320	1.613372	0.005000	0.430702	9.810938	0.785738	-0.739473	-0.626199	0.782799	0.011794	-0.012943	0.003411
321	1.618372	0.005000	0.434532	9.810000	0.787692	-0.739583	-0.626089	0.783534	0.003728	-0.018134	0.002646
322	1.623372	0.005000	0.431640	9.844006	0.858046	-0.739692	-0.625980	0.784269	0.004234	-0.016309	0.004615
323	1.628372	0.005000	0.510120	9.841998	0.824040	-0.739802	-0.625870	0.785003	0.003694	-0.024822	0.004940
324	1.633372	0.005000	0.372251	9.878935	0.942819	-0.739912	-0.625760	0.785738	-0.007201	-0.013215	0.000658
325	1.638372	0.005000	0.447679	9.888480	0.847241	-0.740021	-0.625651	0.786473	0.008133	-0.018215	-0.004317
326	1.643372	0.005000	0.473666	9.966960	0.927751	-0.740131	-0.625541	0.787208	0.001444	-0.019207	0.002068
327	1.648372	0.005000	0.415687	9.966960	0.918473	-0.740241	-0.625431	0.787942	0.005549	-0.006537	0.001509
328	1.653372	0.005000	0.392400	9.909355	0.928415	-0.740402	-0.625424	0.787932	0.003108	-0.013230	-0.002133
329	1.658372	0.005000	0.371872	9.987488	1.063111	-0.740621	-0.625534	0.787074	0.016188	-0.007921	-0.005058
330	1.663372	0.005000	0.415111	9.855423	0.892174	-0.740841	-0.625644	0.786217	0.011559	-0.017807	-0.000914
331	1.668372	0.005000	0.446056	9.888480	0.902520	-0.741060	-0.625754	0.785359	0.010382	-0.017831	-0.001950
332	1.673372	0.005000	0.458708	9.915548	0.875452	-0.741279	-0.625863	0.784502	0.016740	-0.014951	0.002974
333	1.678372	0.005000	0.392400	9.888480	0.902520	-0.741499	-0.625973	0.783644	0.010333	-0.016816	0.004537
334	1.683372	0.005000	0.384670	9.888480	1.012510	-0.741718	-0.626083	0.782787	0.005688	-0.014430	-0.000113
335	1.688372	0.005000	0.392400	9.810000	0.936356	-0.741938	-0.626193	0.781929	0.006539	-0.025441	0.008063
336	1.693372	0.005000	0.388981	9.891899	0.938341	-0.742157	-0.626302	0.781072	0.003232	-0.007598	0.006780
337	1.698372	0.005000	0.390288	9.927720	0.863280	-0.742376	-0.626412	0.780214	-0.000345	-0.024628	0.003131
338	1.703372	0.005000	0.390624	10.004424	0.901632	-0.742596	-0.626522	0.779357	0.002213	-0.013295	0.001954
339	1.708372	0.005000	0.467574	10.045440	0.941760	-0.742815	-0.626632	0.778499	0.011877	-0.017422	-0.001596
340	1.713372	0.005000	0.398042	9.961318	1.003313	-0.743035	-0.626741	0.777642	0.011380	-0.019438	-0.004276
341	1.718372	0.005000	0.416330	9.896135	0.917830	-0.743254	-0.626851	0.776784	0.017711	-0.011895	-0.005673
342	1.723372	0.005000	0.392400	9.927720	0.892450	-0.743000	-0.627055	0.777301	0.020775	-0.014827	-0.004443
343	1.728372	0.005000	0.446223	9.900809	0.850951	-0.742671	-0.627275	0.778036	0.013295	-0.002927	0.004022
344	1.733372	0.005000	0.406817	9.966960	0.952167	-0.742342	-0.627494	0.778771	0.014755	-0.010596	-0.003899
345	1.738372	0.005000	0.431640	9.866066	0.947348	-0.742013	-0.627713	0.779505	0.014496	-0.020183	0.000727
346	1.743372	0.005000	0.411415	9.888480	0.902520	-0.741684	-0.627933	0.780240	0.013358	-0.008200	0.006184
347	1.748372	0.005000	0.310798	9.849240	0.766741	-0.741355	-0.628152	0.780975	0.008969	-0.007275	0.009191
348	1.753372	0.005000	0.392400	9.872551	0.886591	-0.741026	-0.628371	0.781710	0.005675	-0.005730	-0.003815
349	1.758372	0.005000	0.406103	9.888480	0.876983	-0.740697	-0.628591	0.782444	0.015999	-0.011155	0.001648
350	1.763372	0.005000	0.392400	9.888480	0.969382	-0.740368	-0.628810	0.783179	-0.002512	-0.010593	0.005041
351	1.768372	0.005000	0.401751	9.965123	0.969813	-0.740039	-0.629029	0.783914	0.002972	-0.006176	-0.002609
352	1.773372	0.005000	0.410833	10.077744	1.020240	-0.739710	-0.629248	0.784648	0.005305	-0.014814	0.001450
353	1.778372	0.005000	0.392400	10.030467	0.907511	-0.739381	-0.629468	0.785383	0.024623	-0.016249	0.004762
354	1.783372	0.005000	0.434226	9.932893	1.017654	-0.739052	-0.629687	0.786118	0.028480	-0.017125	0.003787
355	1.788372	0.005000	0.432275	9.966325	0.940489	-0.738917	-0.629768	0.786605	0.021024	-0.011743	-0.000490
356	1.793372	0.005000	0.433415	9.927720	0.900745	-0.739356	-0.629439	0.786360	0.024498	-0.009608	-0.004378
357	1.798372	0.005000	0.463442	9.895918	0.827759	-0.739794	-0.629110	0.786115	0.027319	-0.004863	0.000563
358	1.803372	0.005000	0.464758	9.816122	0.863280	-0.740233	-0.628780	0.785870	0.025525	0.002254	0.001527
359	1.808372	0.005000	0.440066	9.840814	0.762412	-0.740672	-0.628451	0.785625	0.031064	-0.011498	0.008625
360	1.813372	0.005000	0.442112	9.946016	0.813568	-0.741111	-0.628122	0.785380	0.011992	-0.013471	0.001784
361	1.818372	0.005000	0.444377	9.980726	0.876017	-0.741550	-0.627793	0.785135	0.016305	-0.008590	0.003259
362	1.823372	0.005000	0.485710	9.878900	0.838870	-0.741989	-0.627464	0.784890	0.015721	-0.005539	-0.000452
363	1.828372	0.005000	0.488119	9.966960	0.863280	-0.742427	-0.627135	0.784645	0.013994	-0.007077	-0.003308
364	1.833372	0.005000	0.529304	9.888480	0.803984	-0.742866	-0.626806	0.784400	0.016720	-0.007217	0.010954
365	1.838372	0.005000	0.492474	9.927720	0.731863	-0.743305	-0.626476	0.784154	0.011493	-0.008731	0.000552
366	1.843372	0.005000	0.486401	9.872959	0.792122	-0.743744	-0.626147	0.783909	0.010077	-0.010165	0.008466
367	1.848372	0.005000	0.496831	9.875191	0.824040	-0.744183	-0.625818	0.783664	0.019170	-0.008645	0.004970
368	1.853372	0.005000	0.453403	10.006200	0.852399	-0.744621	-0.625489	0.783419	0.011890	-0.001890	-0.001476
369	1.858372	0.005000	0.449515	10.024075	0.841915	-0.744634	-0.625373	0.783095	0.007337	-0.008906	-0.008260
370	1.863372	0.005000	0.431640	10.032396	0.928716	-0.744414	-0.625373	0.782727	0.020757	-0.005645	-0.004612
371	1.868372	0.005000	0.392400	9.883957	0.863280	-0.744195	-0.625373	0.782360	0.021181	-0.005837	-0.004601
372	1.873372	0.005000	0.396748	9.892828	0.863280	-0.743976	-0.625373	0.781992	0.016665	0.004986	-0.013203
373	1.878372	0.005000	0.431867	9.927720	0.824040	-0.743756	-0.625373	0.781625	0.012829	-0.000918	-0.008265
374	1.883372	0.005000	0.470880	9.927720	0.861106	-0.743537	-0.625373	0.781257	0.015102	0.003900	0.005562
375	1.888372	0.005000	0.436178	10.006200	0.907058	-0.743317	-0.625373	0.780890	0.003800	0.003028	-0.005523
376	1.893372	0.005000	0.425105	9.999665	0.817505	-0.743098	-0.625373	0.780522	-0.000083	-0.010196	-0.005216
377	1.898372	0.005000	0.462046	9.945389	0.832874	-0.742879	-0.625373	0.780155	-0.002707	-0.001932	-0.009473
378	1.903372	0.005000	0.442526	9.899366	0.941760	-0.742659	-0.625373	0.779787	-0.003749	-0.002458	0.002157
379	1.908372	0.005000	0.405041	9.901121	0.929119	-0.742440	-0.625373	0.779420	-0.003514	-0.000083	0.000124
380	1.913372	0.005000	0.431640	9.927720	0.926517	-0.742220	-0.625373	0.779052	-0.006112	-0.003428	-0.009984
381	1.918372	0.005000	0.453227	9.866893	0.855411	-0.742001	-0.625373	0.778685	-0.000649	-0.009732	-0.009523
382	1.923372	0.005000	0.392824	9.888480	0.823193	-0.741791	-0.625373	0.778328	-0.007101	-0.005623	-0.002665
383	1.928372	0.005000	0.313920	9.905713	0.963767	-0.741791	-0.625373	0.778205	-0.001222	-0.008032	0.000476
384	1.933372	0.005000	0.328740	9.991380	0.912119	-0.741791	-0.625373	0.778083	0.001557	-0.002157	-0.010233
385	1.938372	0.005000	0.366036	9.927720	0.890257	-0.741791	-0.625373	0.777960	0.010005	-0.010518	0.006266
386	1.943372	0.005000	0.460408	9.859712	0.784800	-0.741791	-0.625373	0.777838	-0.000919	-0.007190	0.003065
387	1.948372	0.005000	0.414788	9.880054	0.776374	-0.741791	-0.625373	0.777715	-0.000267	-0.005468	-0.005695
388	1.953372	0.005000	0.313920	9.810000	0.935638	-0.741791	-0.625373	0.777593	-0.001915	-0.015225	0.007641
389	1.958372	0.005000	0.361419	9.962830	0.925241	-0.741791	-0.625373	0.777471	-0.012028	-0.003788	-0.001894
390	1.963372	0.005000	0.506599	9.931241	0.750842	-0.741791	-0.625373	0.777348	-0.003371	-0.008340	0.010371
391	1.968372	0.005000	0.392584	10.006200	0.902336	-0.741791	-0.625373	0.777226	-0.010609	-0.008979	0.010913
392	1.973372	0.005000	0.429053	9.888480	0.939173	-0.741791	-0.625373	0.777103	-0.007542	-0.001340	0.004586
393	1.978372	0.005000	0.470880	9.957067	0.897573	-0.741791	-0.625373	0.776981	-0.006544	-0.002314	0.007813
394	1.983372	0.005000	0.431640	9.960012	0.967104	-0.741791	-0.625373	0.776858	0.008821	-0.004649	-0.002797
395	1.988372	0.005000	0.422285	9.927720	0.941760	-0.741791	-0.625373	0.776736	0.012842	-0.015681	0.008616
396	1.993372	0.005000	0.443273	9.927720	0.914153	-0.741743	-0.625661	0.776935	0.019508	-0.013877	-0.002563
397	1.998372	0.005000	0.459065	10.031727	0.902520	-0.741633	-0.626319	0.777548	0.030829	-0.021772	-0.002654
398	2.003372	0.005000	0.353160	10.029784	0.965344	-0.741524	-0.626977	0.778160	0.016669	-0.012310	0.002237
399	2.008372	0.005000	0.452814	9.885372	0.995958	-0.741414	-0.627635	0.778772	0.022270	-0.016502	-0.001518
400	2.013372	0.005000	0.431640	9.888480	0.901310	-0.741304	-0.628293	0.779384	0.027597	-0.020464	0.002102
401	2.018372	0.005000	0.409226	9.854828	0.964174	-0.741195	-0.628951	0.779997	0.017658	-0.011190	0.002063
402	2.023372	0.005000	0.446344	9.810000	0.941760	-0.741085	-0.629609	0.780609	0.024740	-0.019040	0.004678
403	2.028372	0.005000	0.379927	9.849240	0.875753	-0.740976	-0.630267	0.781221	0.018943	-0.011203	-0.003599
404	2.033372	0.005000	0.490998	9.966960	0.921642	-0.740866	-0.630925	0.781833	0.011620	-0.023227	0.000075
405	2.038372	0.005000	0.439754	9.904709	0.840269	-0.740756	-0.631583	0.782445	0.008963	-0.016568	0.005998
406	2.043372	0.005000	0.465172	9.939137	0.930343	-0.740647	-0.632241	0.783058	0.012811	-0.006020	0.000350
407	2.048372	0.005000	0.506399	9.931441	0.788521	-0.740537	-0.632899	0.783670	0.007043	-0.018242	0.006387
408	2.053372	0.005000	0.548013	9.930415	0.825387	-0.740428	-0.633557	0.784282	0.011820	-0.011005	0.007743
409	2.058372	0.005000	0.510120	9.968004	0.901476	-0.740318	-0.634214	0.784894	0.020635	-0.011499	0.000103
410	2.063372	0.005000	0.467879	9.927720	0.905521	-0.741297	-0.634510	0.786825	0.035134	-0.002762	0.004254
411	2.068372	0.005000	0.392400	9.854658	0.947178	-0.742504	-0.634729	0.789030	0.023144	-0.009793	-0.003637
412	2.073372	0.005000	0.399761	9.888480	0.816679	-0.743711	-0.634948	0.791235	0.024334	-0.011772	0.000933
413	2.078372	0.005000	0.421872	9.917952	0.922224	-0.744918	-0.635168	0.793440	0.010883	0.001126	0.005453
414	2.083372	0.005000	0.365186	9.954934	0.941760	-0.746124	-0.635387	0.795645	0.007167	-0.012495	-0.000239
415	2.088372	0.005000	0.353160	9.927720	0.916636	-0.747331	-0.635607	0.797850	0.008383	-0.004162	0.002581
416	2.093372	0.005000	0.437823	9.927720	0.850914	-0.748538	-0.635826	0.800055	0.010260	-0.004707	0.002431
417	2.098372	0.005000	0.433936	9.948488	0.941760	-0.749745	-0.636045	0.802260	0.017406	-0.007754	0.006651
418	2.103372	0.005000	0.434166	9.964434	0.905046	-0.750951	-0.636265	0.804466	0.021788	-0.003825	0.007156
419	2.108372	0.005000	0.431640	9.950744	0.840256	-0.752158	-0.636484	0.806671	0.021472	-0.013843	0.007642
420	2.113372	0.005000	0.456877	9.952957	0.916523	-0.753365	-0.636704	0.808876	0.025458	-0.010564	0.000072
421	2.118372	0.005000	0.431640	9.983020	0.851690	-0.754571	-0.636923	0.811081	0.034287	-0.007131	0.002655
422	2.123372	0.005000	0.392400	9.869189	0.873584	-0.755778	-0.637142	0.813286	0.016404	-0.012200	0.000967
423	2.128372	0.005000	0.478119	9.817239	0.852996	-0.756789	-0.637166	0.814536	0.004565	-0.005729	-0.000736
424	2.133372	0.005000	0.460289	9.883185	0.970409	-0.757118	-0.636508	0.812453	0.026754	-0.016835	0.006092
425	2.138372	0.005000	0.428762	9.930598	0.933125	-0.757448	-0.635850	0.810371	0.020001	-0.009296	0.004434
426	2.143372	0.005000	0.392400	9.849240	0.783877	-0.757777	-0.635192	0.808288	0.033723	-0.010682	0.009594
427	2.148372	0.005000	0.392400	9.924780	0.783330	-0.758106	-0.634533	0.806206	0.034696	-0.010719	0.001222
428	2.153372	0.005000	0.431640	9.888480	0.931521	-0.758435	-0.633875	0.804123	0.029736	-0.005754	0.007016
429	2.158372	0.005000	0.392400	9.994564	0.869098	-0.758764	-0.633217	0.802041	0.020384	-0.006743	0.008854
430	2.163372	0.005000	0.470880	9.912195	0.871042	-0.759093	-0.632559	0.799958	0.019017	-0.005846	0.002132
431	2.168372	0.005000	0.450525	9.917543	0.844395	-0.759423	-0.631901	0.797875	0.023857	-0.010536	0.007356
432	2.173372	0.005000	0.472816	10.004264	0.863280	-0.759752	-0.631242	0.795793	0.022821	-0.006306	-0.000304
433	2.178372	0.005000	0.431640	9.917539	0.824040	-0.760081	-0.630584	0.793710	0.017823	-0.010816	-0.001164
434	2.183372	0.005000	0.465132	9.910974	0.824040	-0.760410	-0.629926	0.791628	0.023197	-0.001031	0.007801
435	2.188372	0.005000	0.450525	9.869595	0.784800	-0.760739	-0.629268	0.789545	0.019618	-0.005688	0.002243
436	2.193372	0.005000	0.431640	9.864594	0.842238	-0.761068	-0.628609	0.787463	0.020224	-0.012276	0.013657
437	2.198372	0.005000	0.454881	9.881238	0.886521	-0.760584	-0.628290	0.786440	0.005704	-0.004535	0.011461
438	2.203372	0.005000	0.445527	9.863127	0.824040	-0.759596	-0.628181	0.786072	0.011629	-0.005048	0.009994
439	2.208372	0.005000	0.419993	9.888480	0.796447	-0.758609	-0.628071	0.785705	0.011585	-0.002930	0.005997
440	2.213372	0.005000	0.392400	9.906944	0.803264	-0.757622	-0.627961	0.785337	0.019939	-0.016159	0.001222
441	2.218372	0.005000	0.385199	9.888480	0.799201	-0.756634	-0.627852	0.784970	0.013744	-0.004070	0.002017
442	2.223372	0.005000	0.436524	9.814884	1.015356	-0.755647	-0.627742	0.784602	0.010914	-0.001109	0.002777
443	2.228372	0.005000	0.467976	9.728616	0.857471	-0.754660	-0.627632	0.784235	0.011454	-0.014019	0.006292
444	2.233372	0.005000	0.354231	9.809464	0.746631	-0.753672	-0.627523	0.783867	0.010435	-0.011070	0.009749
445	2.238372	0.005000	0.507303	9.846423	0.861871	-0.752685	-0.627413	0.783500	0.011827	-0.016473	0.014278
446	2.243372	0.005000	0.392400	9.853066	0.757038	-0.751697	-0.627303	0.783132	0.013549	-0.011460	0.018823
447	2.248372	0.005000	0.386243	9.915406	0.778643	-0.750710	-0.627194	0.782765	0.009642	-0.012350	0.008085
448	2.253372	0.005000	0.384224	9.975136	0.753736	-0.749723	-0.627084	0.782397	0.011886	-0.013572	0.014367
449	2.258372	0.005000	0.421172	9.859708	0.824040	-0.748735	-0.626974	0.782030	0.008456	-0.005148	0.015577
450	2.263372	0.005000	0.365694	9.901014	0.809868	-0.747755	-0.626863	0.781661	0.028757	-0.004389	0.014634
451	2.268372	0.005000	0.455937	9.864183	0.818452	-0.747316	-0.626644	0.781170	0.014193	-0.004020	0.013041
452	2.273372	0.005000	0.453993	9.910833	0.840927	-0.746878	-0.626424	0.780680	0.016117	-0.009599	0.012308
453	2.278372	0.005000	0.451581	10.046083	0.882579	-0.746439	-0.626205	0.780190	0.029780	-0.008985	0.010733
454	2.283372	0.005000	0.510120	9.966960	0.842038	-0.746000	-0.625985	0.779700	0.028854	-0.007893	0.007461
455	2.288372	0.005000	0.510120	9.951374	0.941760	-0.745561	-0.625766	0.779210	0.026992	-0.009708	0.008164
456	2.293372	0.005000	0.458627	9.966960	0.876773	-0.745122	-0.625547	0.778720	0.021419	-0.008962	0.011757
457	2.298372	0.005000	0.493355	9.972487	0.958525	-0.744683	-0.625327	0.778230	0.012716	-0.013965	0.012593
458	2.303372	0.005000	0.500938	9.966960	0.863280	-0.744245	-0.625108	0.777740	0.025082	-0.007747	0.009595
459	2.308372	0.005000	0.431640	9.902254	0.791687	-0.743806	-0.624888	0.777250	0.012439	-0.005593	0.009479
460	2.313372	0.005000	0.431640	9.927720	0.902520	-0.743367	-0.624669	0.776760	0.017984	-0.006378	0.004379
461	2.318372	0.005000	0.392400	9.932772	0.941760	-0.742928	-0.624450	0.776270	0.018922	-0.012285	0.000565
462	2.323372	0.005000	0.392278	9.888602	0.941760	-0.742489	-0.624230	0.775780	0.023975	-0.019681	0.014364
463	2.328372	0.005000	0.390578	9.927720	0.829506	-0.742051	-0.624011	0.775290	0.023486	-0.012218	0.004903
464	2.333372	0.005000	0.392400	9.958580	0.902520	-0.741746	-0.623881	0.775100	0.030238	-0.003487	0.007212
465	2.338372	0.005000	0.510120	9.927720	0.987183	-0.741637	-0.623881	0.775345	0.022500	-0.006913	0.004866
466	2.343372	0.005000	0.532387	10.053926	0.897225	-0.741527	-0.623881	0.775590	0.013674	-0.003571	0.006720
467	2.348372	0.005000	0.374227	9.909547	0.816400	-0.741417	-0.623881	0.775835	0.017784	-0.012949	0.009140
468	2.353372	0.005000	0.431640	9.941065	0.824040	-0.741308	-0.623881	0.776080	0.017168	-0.007071	0.007873
469	2.358372	0.005000	0.353160	10.006200	0.950655	-0.741198	-0.623881	0.776324	0.014672	-0.003329	0.014800
470	2.363372	0.005000	0.418999	9.962308	0.858628	-0.741089	-0.623881	0.776569	0.005214	-0.000782	0.003066
471	2.368372	0.005000	0.372931	9.927720	0.922896	-0.740979	-0.623881	0.776814	0.017158	0.000415	0.001134
472	2.373372	0.005000	0.414049	9.910129	0.985057	-0.740869	-0.623881	0.777059	0.007602	-0.001188	0.005395
473	2.378372	0.005000	0.392400	10.037120	0.784800	-0.740760	-0.623881	0.777304	0.011296	0.000539	0.003947
474	2.383372	0.005000	0.418402	9.980198	0.890231	-0.740650	-0.623881	0.777549	0.018384	-0.005861	0.010391
475	2.388372	0.005000	0.385633	9.995376	1.048656	-0.740540	-0.623881	0.777794	0.006075	-0.000916	0.006703
476	2.393372	0.005000	0.561960	10.032840	0.920280	-0.740431	-0.623881	0.778039	0.015335	0.003665	0.000063
477	2.398372	0.005000	0.490699	10.130394	0.993947	-0.740321	-0.623881	0.778283	0.011947	-0.005695	0.007132
478	2.403372	0.005000	0.436170	10.075620	1.050420	-0.740561	-0.624056	0.778528	0.017836	-0.006908	0.007924
479	2.408372	0.005000	0.429527	10.045440	1.018127	-0.740891	-0.624275	0.778774	0.026659	-0.015423	0.013163
480	2.413372	0.005000	0.392400	10.006200	0.941594	-0.741220	-0.624495	0.779019	0.036205	-0.011094	0.014661
481	2.418372	0.005000	0.392400	10.043205	0.939525	-0.741549	-0.624714	0.779264	0.040552	-0.016438	0.008427
482	2.423372	0.005000	0.427460	9.927720	0.863280	-0.741878	-0.624934	0.779509	0.025415	-0.018629	0.012766
483	2.428372	0.005000	0.431640	9.934303	0.824040	-0.742207	-0.625153	0.779754	0.039728	-0.014988	0.011517
484	2.433372	0.005000	0.431640	9.897375	0.950655	-0.742536	-0.625372	0.779999	0.043716	-0.017139	0.007126
485	2.438372	0.005000	0.385988	9.934132	0.902520	-0.742865	-0.625592	0.780244	0.040961	-0.015753	0.008127
486	2.443372	0.005000	0.379209	9.940911	0.889329	-0.743194	-0.625811	0.780489	0.048300	-0.024398	0.012044
487	2.448372	0.005000	0.416345	9.990905	0.808745	-0.743523	-0.626031	0.780734	0.039401	-0.013497	0.014160
488	2.453372	0.005000	0.449347	9.906187	0.798681	-0.743852	-0.626250	0.780979	0.033835	-0.011978	0.006923
489	2.458372	0.005000	0.392400	9.888480	0.863280	-0.744181	-0.626470	0.781224	0.031759	-0.012592	0.010179
490	2.463372	0.005000	0.353160	9.927720	0.794568	-0.744510	-0.626689	0.781469	0.031773	-0.009667	-0.000088
491	2.468372	0.005000	0.470880	9.849240	0.745560	-0.744776	-0.626908	0.781667	0.025192	-0.001768	0.008123
492	2.473372	0.005000	0.405225	9.835650	0.745560	-0.744776	-0.627128	0.781667	0.024401	0.002544	0.003561
493	2.478372	0.005000	0.413222	9.867658	0.695909	-0.744776	-0.627347	0.781667	0.041064	-0.001455	0.001712
494	2.483372	0.005000	0.470880	9.840773	0.824040	-0.744776	-0.627566	0.781667	0.033366	-0.002320	-0.001040
495	2.488372	0.005000	0.470880	9.849240	0.836161	-0.744776	-0.627786	0.781667	0.033392	-0.007551	-0.000596
496	2.493372	0.005000	0.448107	9.892597	0.902520	-0.744776	-0.628005	0.781667	0.035766	-0.010110	0.008949
497	2.498372	0.005000	0.627840	9.926006	0.858138	-0.744776	-0.628224	0.781667	0.028592	0.003249	0.000732
498	2.503372	0.005000	0.588830	9.927490	0.823581	-0.744776	-0.628444	0.781667	0.045846	-0.011616	0.006517
499	2.508372	0.005000	0.588600	10.048088	0.894577	-0.744776	-0.628663	0.781667	0.025659	-0.012350	0.003024
500	2.513372	0.005000	0.544769	9.936903	0.793983	-0.744776	-0.628882	0.781667	0.021960	-0.007937	0.002477
501	2.518372	0.005000	0.517117	9.966960	0.824040	-0.744776	-0.629101	0.781667	0.016452	-0.008247	0.004218
502	2.523372	0.005000	0.510120	9.918417	0.794103	-0.744776	-0.629321	0.781667	0.007107	-0.000215	-0.002366
503	2.528372	0.005000	0.493591	9.894663	0.756916	-0.744776	-0.629540	0.781667	0.006743	-0.000705	0.009374
504	2.533372	0.005000	0.418041	9.837199	0.822482	-0.744776	-0.629759	0.781667	-0.001222	0.007369	0.000630
505	2.538372	0.005000	0.447348	9.872772	0.769153	-0.745032	-0.629915	0.781810	0.004538	-0.004778	-0.008843
506	2.543372	0.005000	0.513120	9.888480	0.685200	-0.745471	-0.630025	0.782055	0.005406	-0.007339	-0.001203
507	2.548372	0.005000	0.529296	9.829176	0.704545	-0.745910	-0.630134	0.782300	0.014267	-0.003496	-0.007949
508	2.553372	0.005000	0.549360	9.894191	0.751271	-0.746349	-0.630244	0.782545	0.018333	-0.013329	-0.000007
509	2.558372	0.005000	0.485523	9.878526	0.824040	-0.746788	-0.630354	0.782790	0.017230	-0.009772	-0.007632
510	2.563372	0.005000	0.522532	9.927720	0.811628	-0.747227	-0.630463	0.783035	0.015922	-0.017196	-0.010320
511	2.568372	0.005000	0.402747	9.938067	0.774453	-0.747666	-0.630573	0.783280	0.008456	-0.001516	-0.008697
512	2.573372	0.005000	0.470880	9.872349	0.777821	-0.748105	-0.630683	0.783525	0.007674	-0.002378	-0.014388
513	2.578372	0.005000	0.543309	9.867393	0.857229	-0.748544	-0.630793	0.783770	0.008020	-0.004838	-0.002890
514	2.583372	0.005000	0.584895	9.924015	0.795915	-0.748983	-0.630902	0.784016	0.000673	-0.005312	-0.003534
515	2.588372	0.005000	0.507518	9.966960	0.937857	-0.749422	-0.631012	0.784261	0.000655	-0.007912	-0.010104
516	2.593372	0.005000	0.470237	9.966960	0.862637	-0.749861	-0.631122	0.784506	-0.019403	0.009394	-0.005834
517	2.598372	0.005000	0.434665	9.930745	0.754636	-0.750300	-0.631231	0.784751	-0.018078	0.002899	-0.010187
518	2.603372	0.005000	0.515124	9.966960	0.779796	-0.750739	-0.631341	0.784996	-0.016316	-0.012103	-0.008712
519	2.608372	0.005000	0.495300	9.959550	0.799620	-0.750099	-0.631127	0.784277	-0.025681	-0.000255	0.005473
520	2.613372	0.005000	0.510120	9.907189	0.726851	-0.749440	-0.630908	0.783542	-0.028968	-0.010031	0.005290
521	2.618372	0.005000	0.486582	10.010133	0.996702	-0.748782	-0.630688	0.782807	-0.024523	-0.002393	-0.004972
522	2.623372	0.005000	0.459656	9.994976	0.787583	-0.748124	-0.630469	0.782072	-0.025814	-0.015074	0.003453
523	2.628372	0.005000	0.431640	10.006200	0.831037	-0.747466	-0.630250	0.781337	-0.021780	-0.009664	0.002783
524	2.633372	0.005000	0.413321	9.987881	0.844961	-0.746808	-0.630030	0.780602	-0.017423	-0.012498	0.000245
525	2.638372	0.005000	0.394099	9.948190	0.863280	-0.746149	-0.629811	0.779867	-0.013650	-0.016994	0.007712
526	2.643372	0.005000	0.408760	9.950600	0.896000	-0.745491	-0.629591	0.779132	-0.013408	-0.017008	-0.002814
527	2.648372	0.005000	0.563777	10.006200	1.009833	-0.744833	-0.629372	0.778397	-0.010258	-0.019515	0.003367
528	2.653372	0.005000	0.591830	9.927720	1.047477	-0.744175	-0.629153	0.777662	-0.010285	-0.017205	-0.001631
529	2.658372	0.005000	0.519544	9.888480	0.902520	-0.743516	-0.628933	0.776927	0.005922	-0.018528	-0.007493
530	2.663372	0.005000	0.423988	9.849240	0.792452	-0.742858	-0.628714	0.776192	0.000879	-0.019566	0.010585
531	2.668372	0.005000	0.425998	9.866167	0.863280	-0.742200	-0.628494	0.775457	0.010200	-0.012553	0.004672
532	2.673372	0.005000	0.389108	9.927720	0.909103	-0.741791	-0.628441	0.775186	0.027881	-0.026162	0.003612
533	2.678372	0.005000	0.392400	9.926832	0.899857	-0.741791	-0.628661	0.775676	0.009540	-0.019229	-0.015123
534	2.683372	0.005000	0.354216	9.888480	0.861167	-0.741791	-0.628880	0.776166	0.007605	-0.024427	0.002772
535	2.688372	0.005000	0.392400	9.888480	0.938326	-0.741791	-0.629099	0.776656	0.007551	-0.020054	0.005375
536	2.693372	0.005000	0.488449	9.810000	0.868698	-0.741791	-0.629319	0.777146	0.008759	-0.023411	0.001518
537	2.698372	0.005000	0.439464	9.880656	0.816216	-0.741791	-0.629538	0.777636	0.015499	-0.014831	0.007768
538	2.703372	0.005000	0.421704	9.888480	1.010472	-0.741791	-0.629758	0.778126	0.021858	-0.024543	-0.002085
539	2.708372	0.005000	0.365332	9.873583	0.833486	-0.741791	-0.629977	0.778616	0.013608	-0.014384	0.006037
540	2.713372	0.005000	0.466871	9.853249	0.834448	-0.741791	-0.630196	0.779106	0.012654	-0.018401	0.004887
541	2.718372	0.005000	0.470880	9.871951	0.892174	-0.741791	-0.630416	0.779596	0.021810	-0.020725	0.003961
542	2.723372	0.005000	0.411112	9.890295	0.881992	-0.741791	-0.630635	0.780086	0.022496	-0.014068	0.001051
543	2.728372	0.005000	0.371517	9.927720	0.805683	-0.741791	-0.630855	0.780576	0.029048	-0.013214	-0.002218
544	2.733372	0.005000	0.408347	9.966960	0.722267	-0.741791	-0.631074	0.781066	0.035284	-0.009436	-0.000573
545	2.738372	0.005000	0.442873	9.863243	0.849277	-0.741791	-0.631293	0.781556	0.027377	-0.002344	-0.001327
546	2.743372	0.005000	0.387929	9.821590	0.780329	-0.741791	-0.631258	0.781667	0.040840	-0.005265	-0.003706
547	2.748372	0.005000	0.353160	9.906845	0.796492	-0.741791	-0.631148	0.781667	0.032795	0.004773	-0.005659
548	2.753372	0.005000	0.478119	9.902958	0.856041	-0.741791	-0.631039	0.781667	0.030355	0.005610	-0.006133
549	2.758372	0.005000	0.426406	9.922486	0.784800	-0.741791	-0.630929	0.781667	0.029968	-0.002127	-0.003097
550	2.763372	0.005000	0.473758	9.927720	0.860402	-0.741791	-0.630819	0.781667	0.025686	0.010966	-0.005825
551	2.768372	0.005000	0.509171	9.927246	0.785274	-0.741791	-0.630710	0.781667	0.033879	0.006602	-0.003054
552	2.773372	0.005000	0.393870	9.888480	0.861810	-0.741791	-0.630600	0.781667	0.021046	0.016972	0.000438
553	2.778372	0.005000	0.474753	9.931593	0.835660	-0.741791	-0.630490	0.781667	0.027706	0.007376	-0.006634
554	2.783372	0.005000	0.392400	9.866694	0.717956	-0.741791	-0.630381	0.781667	0.013439	0.007993	-0.003622
555	2.788372	0.005000	0.470880	9.880246	0.832274	-0.741791	-0.630271	0.781667	0.006145	0.016064	-0.009997
556	2.793372	0.005000	0.491235	9.927720	0.883635	-0.741791	-0.630161	0.781667	0.010754	0.004613	-0.001398
557	2.798372	0.005000	0.472365	9.966960	0.863280	-0.741791	-0.630052	0.781667	-0.008232	0.005207	0.001091
558	2.803372	0.005000	0.519711	9.981785	0.863280	-0.741791	-0.629942	0.781667	-0.009722	0.001461	0.004375
559	2.808372	0.005000	0.566302	9.922364	0.885578	-0.742088	-0.629944	0.781978	-0.025587	0.006943	0.011742
560	2.813372	0.005000	0.471878	9.907601	0.803921	-0.743842	-0.630492	0.783815	-0.020177	0.010556	0.002654
561	2.818372	0.005000	0.546007	9.867184	0.763504	-0.745597	-0.631040	0.785651	-0.020755	0.002577	0.006206
562	2.823372	0.005000	0.541188	9.904014	0.863280	-0.747352	-0.631588	0.787488	-0.015077	0.002981	-0.000538
563	2.828372	0.005000	0.562793	9.953527	0.864339	-0.749106	-0.632137	0.789325	-0.009114	-0.011000	0.006158
564	2.833372	0.005000	0.560536	10.034264	0.824040	-0.750861	-0.632685	0.791162	-0.022480	-0.006239	0.000305
565	2.838372	0.005000	0.618718	9.997078	0.766557	-0.752615	-0.633233	0.792998	-0.026090	-0.016151	0.003931
566	2.843372	0.005000	0.530597	10.045440	0.844517	-0.754370	-0.633781	0.794835	-0.023515	-0.011714	-0.005072
567	2.848372	0.005000	0.544534	9.888480	0.858454	-0.756124	-0.634330	0.796672	-0.022291	-0.007161	-0.004440
568	2.853372	0.005000	0.546881	9.969439	0.858321	-0.757879	-0.634878	0.798509	-0.013903	-0.020434	0.000211
569	2.858372	0.005000	0.471002	9.966899	0.902520	-0.759633	-0.635426	0.800346	-0.010332	-0.014551	-0.010423
570	2.863372	0.005000	0.474645	9.890362	0.939878	-0.761388	-0.635974	0.802182	-0.003750	-0.033868	-0.000765
571	2.868372	0.005000	0.431640	9.923484	0.972529	-0.763143	-0.636523	0.804019	-0.004669	-0.030652	-0.005062
572	2.873372	0.005000	0.458418	10.039209	0.921214	-0.764897	-0.637071	0.805856	-0.003353	-0.034015	0.000393
573	2.878372	0.005000	0.510120	10.014747	0.902520	-0.765059	-0.636884	0.805983	-0.002390	-0.028588	0.000611
574	2.883372	0.005000	0.492061	9.938311	0.891929	-0.763962	-0.636116	0.804758	0.003023	-0.026301	-0.006403
575	2.888372	0.005000	0.392400	9.979803	0.810486	-0.762865	-0.635348	0.803533	0.002068	-0.035211	-0.001798
576	2.893372	0.005000	0.353160	9.927720	0.838983	-0.761768	-0.634581	0.802308	0.014237	-0.036846	-0.004082
577	2.898372	0.005000	0.353160	9.949605	0.924405	-0.760671	-0.633813	0.801083	0.011126	-0.041757	-0.005062
578	2.903372	0.005000	0.313920	9.927077	0.921176	-0.759574	-0.633045	0.799858	0.008995	-0.033595	0.004990
579	2.908372	0.005000	0.296390	9.927720	0.867460	-0.758477	-0.632277	0.798632	0.022568	-0.032239	-0.003131
580	2.913372	0.005000	0.313920	9.920761	0.824040	-0.757380	-0.631509	0.797407	0.042028	-0.039461	0.006149
581	2.918372	0.005000	0.353160	9.940596	0.916008	-0.756282	-0.630741	0.796182	0.037274	-0.029474	0.001609
582	2.923372	0.005000	0.381626	9.977734	1.009466	-0.755185	-0.629973	0.794957	0.033598	-0.031921	0.006833
583	2.928372	0.005000	0.370821	9.997369	1.011409	-0.754088	-0.629205	0.793732	0.027219	-0.023248	0.005030
584	2.933372	0.005000	0.365990	9.960545	0.948175	-0.752991	-0.628437	0.792507	0.041033	-0.016896	0.002651
585	2.938372	0.005000	0.357577	9.997366	1.002571	-0.751894	-0.627670	0.791282	0.049200	-0.023835	0.011168
586	2.943372	0.005000	0.468814	10.006200	0.950024	-0.750797	-0.626902	0.790057	0.046521	-0.020872	0.001388
587	2.948372	0.005000	0.431519	9.966718	1.098478	-0.750641	-0.627180	0.789883	0.049027	-0.022278	0.014423
588	2.953372	0.005000	0.466289	9.814591	0.946351	-0.750532	-0.627509	0.789761	0.040195	-0.011757	0.012604
589	2.958372	0.005000	0.431640	9.849240	0.871759	-0.750422	-0.627838	0.789638	0.046036	-0.001443	0.013128
590	2.963372	0.005000	0.477525	9.921075	1.000306	-0.750312	-0.628167	0.789516	0.038441	-0.004128	0.008042
591	2.968372	0.005000	0.461925	9.918765	0.963089	-0.750203	-0.628496	0.789393	0.058082	-0.001645	0.007131
592	2.973372	0.005000	0.481884	9.888480	0.941760	-0.750093	-0.628825	0.789270	0.068820	-0.008238	0.018141
593	2.978372	0.005000	0.392400	9.888480	0.902520	-0.749983	-0.629154	0.789148	0.074048	0.007972	0.005901
594	2.983372	0.005000	0.392400	9.873124	0.893992	-0.749874	-0.629483	0.789025	0.070326	0.006363	0.007585
595	2.988372	0.005000	0.370708	9.831692	0.884972	-0.749764	-0.629812	0.788903	0.065051	0.008119	0.004823
596	2.993372	0.005000	0.411767	9.888480	0.804504	-0.749654	-0.630142	0.788780	0.060501	0.010090	0.001149
597	2.998372	0.005000	0.475358	9.792619	0.754515	-0.749545	-0.630471	0.788658	0.059731	0.013676	-0.001101
598	3.003372	0.005000	0.446822	9.801124	0.806287	-0.749435	-0.630800	0.788535	0.067321	0.019063	-0.003974
599	3.008372	0.005000	0.470880	9.888480	0.824010	-0.749325	-0.631129	0.788413	0.067538	0.012866	-0.001564
600	3.013372	0.005000	0.431640	9.877656	0.717144	-0.749062	-0.631266	0.788205	0.068260	0.013683	-0.001580
601	3.018372	0.005000	0.523039	9.940639	0.824040	-0.748514	-0.631047	0.787837	0.066159	0.028070	-0.001738
602	3.023372	0.005000	0.470880	9.947539	0.758507	-0.747965	-0.630827	0.787469	0.051577	0.031792	0.007184
603	3.028372	0.005000	0.502006	9.919606	0.819983	-0.747416	-0.630608	0.787102	0.041218	0.031174	0.006223
604	3.033372	0.005000	0.392400	9.892706	0.747673	-0.746867	-0.630388	0.786734	0.042027	0.031516	-0.006572
605	3.038372	0.005000	0.431353	9.928007	0.784800	-0.746318	-0.630169	0.786366	0.040951	0.034690	-0.004759
606	3.043372	0.005000	0.549360	9.888480	0.708555	-0.745770	-0.629949	0.785999	0.037902	0.026646	0.000308
607	3.048372	0.005000	0.440945	9.962308	0.676385	-0.745221	-0.629730	0.785631	0.028987	0.025667	0.009595
608	3.053372	0.005000	0.372910	9.927720	0.667080	-0.744672	-0.629510	0.785263	0.029532	0.030107	-0.002989
609	3.058372	0.005000	0.392400	9.936719	0.775801	-0.744123	-0.629291	0.784896	0.025575	0.027320	0.001368
610	3.063372	0.005000	0.420697	9.899423	0.599543	-0.743574	-0.629071	0.784528	0.011947	0.028520	0.002200
611	3.068372	0.005000	0.405750	9.901019	0.679619	-0.743026	-0.628852	0.784160	0.016921	0.017443	-0.003197
612	3.073372	0.005000	0.494825	9.966960	0.603895	-0.742477	-0.628632	0.783792	0.019496	0.018547	-0.000988
613	3.078372	0.005000	0.510120	9.849240	0.706320	-0.741928	-0.628413	0.783425	0.012447	0.015702	0.000272
614	3.083372	0.005000	0.490469	9.829589	0.627840	-0.741873	-0.628523	0.783333	-0.000714	0.009026	0.000048
615	3.088372	0.005000	0.571422	9.888480	0.667080	-0.741983	-0.628742	0.783333	-0.003665	0.014225	-0.008281
616	3.093372	0.005000	0.588600	9.888480	0.691086	-0.742093	-0.628961	0.783333	-0.009944	0.002949	-0.001133
617	3.098372	0.005000	0.627840	9.940545	0.679905	-0.742203	-0.629181	0.783333	-0.019367	0.006889	-0.003361
618	3.103372	0.005000	0.520875	9.927720	0.677835	-0.742312	-0.629400	0.783333	-0.009928	-0.003147	-0.009917
619	3.108372	0.005000	0.470880	9.936187	0.597067	-0.742422	-0.629620	0.783333	-0.026120	0.008026	-0.009381
620	3.113372	0.005000	0.470880	9.921276	0.712764	-0.742532	-0.629839	0.783333	-0.021592	0.002399	-0.012178
621	3.118372	0.005000	0.466763	9.884363	0.706320	-0.742642	-0.630058	0.783333	-0.021747	-0.007122	-0.001328
622	3.123372	0.005000	0.624412	9.890194	0.670508	-0.742751	-0.630278	0.783333	-0.022350	-0.008998	-0.006065
623	3.128372	0.005000	0.627381	10.005741	0.706550	-0.742861	-0.630497	0.783333	-0.018876	-0.022899	-0.003657
624	3.133372	0.005000	0.434257	9.930337	0.664463	-0.742971	-0.630717	0.783333	-0.033390	-0.023311	-0.000802
625	3.138372	0.005000	0.475471	9.997017	0.637023	-0.743080	-0.630936	0.783333	-0.034574	-0.020831	-0.009913
626	3.143372	0.005000	0.424643	9.934717	0.731566	-0.743190	-0.631156	0.783333	-0.033807	-0.016727	-0.003707
627	3.148372	0.005000	0.431640	9.907304	0.872692	-0.743268	-0.631327	0.783279	-0.039684	-0.018660	-0.008422
628	3.153372	0.005000	0.442996	9.927720	0.840569	-0.743158	-0.631217	0.782912	-0.028986	-0.026332	-0.007692
629	3.158372	0.005000	0.417876	9.966960	0.863280	-0.743049	-0.631108	0.782544	-0.026830	-0.019812	-0.012217
630	3.163372	0.005000	0.415932	9.904188	0.918228	-0.742939	-0.630998	0.782177	-0.042660	-0.032657	-0.005265
631	3.168372	0.005000	0.431640	9.888480	0.821040	-0.742829	-0.630888	0.781809	-0.037037	-0.026673	-0.007572
632	3.173372	0.005000	0.392400	9.850571	0.861949	-0.742719	-0.630779	0.781442	-0.031517	-0.029563	-0.009985
633	3.178372	0.005000	0.392400	9.843529	0.885755	-0.742610	-0.630669	0.781074	-0.029699	-0.039609	-0.003676
634	3.183372	0.005000	0.328563	9.863883	0.863280	-0.742500	-0.630559	0.780707	-0.022353	-0.028405	-0.009693
635	3.188372	0.005000	0.340748	9.900892	0.850868	-0.742390	-0.630450	0.780339	-0.022052	-0.032796	-0.008616
636	3.193372	0.005000	0.373155	9.927720	0.814042	-0.742280	-0.630340	0.779972	-0.016206	-0.026428	-0.004348
637	3.198372	0.005000	0.454936	9.966960	0.894548	-0.742171	-0.630230	0.779604	-0.016605	-0.028142	-0.009852
638	3.203372	0.005000	0.392400	9.894129	0.863280	-0.742061	-0.630121	0.779237	-0.023114	-0.027340	-0.002711
639	3.208372	0.005000	0.424318	10.045440	0.898859	-0.741951	-0.630011	0.778869	-0.008570	-0.020464	-0.008261
640	3.213372	0.005000	0.391114	10.004914	0.864566	-0.741841	-0.629901	0.778502	-0.013774	-0.023792	-0.006902
641	3.218372	0.005000	0.429406	10.005083	1.016888	-0.741732	-0.629792	0.778465	-0.022478	-0.021176	-0.008428
642	3.223372	0.005000	0.428579	10.006200	0.984061	-0.741622	-0.629682	0.778710	-0.014913	-0.023495	0.001391
643	3.228372	0.005000	0.442571	10.029043	0.981000	-0.741512	-0.629572	0.778955	-0.016325	-0.020525	-0.002306
644	3.233372	0.005000	0.392400	9.943301	0.941760	-0.741403	-0.629463	0.779200	-0.020581	-0.026844	-0.011915
645	3.238372	0.005000	0.362985	9.937545	0.941760	-0.741293	-0.629353	0.779445	-0.013485	-0.031482	-0.001256
646	3.243372	0.005000	0.326007	9.963980	1.035307	-0.741184	-0.629243	0.779690	-0.001219	-0.021197	-0.004154
647	3.248372	0.005000	0.392400	9.899366	0.941760	-0.741074	-0.629134	0.779935	0.006396	-0.030660	-0.003264
648	3.253372	0.005000	0.392400	9.865830	0.908580	-0.740964	-0.629024	0.780180	0.000348	-0.022033	-0.002119
649	3.258372	0.005000	0.470880	9.908720	0.941760	-0.740855	-0.628914	0.780425	-0.003845	-0.015227	-0.000156
650	3.263372	0.005000	0.470880	9.985256	0.957407	-0.740745	-0.628804	0.780670	0.006475	-0.013247	0.003627
651	3.268372	0.005000	0.470880	10.013656	0.950196	-0.740636	-0.628695	0.780915	0.002805	-0.016970	-0.001495
652	3.273372	0.005000	0.470880	9.992419	1.020240	-0.740526	-0.628585	0.781160	0.005437	-0.022787	-0.000489
653	3.278372	0.005000	0.493959	9.927720	1.047941	-0.740416	-0.628475	0.781405	-0.002884	-0.013212	0.000362
654	3.283372	0.005000	0.539875	9.888480	0.971515	-0.740307	-0.628366	0.781650	0.007055	-0.007074	-0.001734
655	3.288372	0.005000	0.534999	9.831541	0.870460	-0.740605	-0.628460	0.781781	0.002813	-0.011424	0.010626
656	3.293372	0.005000	0.357935	10.006200	1.015465	-0.740934	-0.628570	0.781903	0.022058	-0.012838	0.006748
657	3.298372	0.005000	0.546529	9.964129	1.020240	-0.741264	-0.628680	0.782026	0.038131	-0.012609	0.003728
658	3.303372	0.005000	0.470880	9.966133	1.020240	-0.741593	-0.628789	0.782148	0.035627	-0.003358	-0.001899
659	3.308372	0.005000	0.433170	9.963899	1.171078	-0.741922	-0.628899	0.782271	0.040609	-0.015652	0.004056
660	3.313372	0.005000	0.400269	9.927720	1.102655	-0.742251	-0.629009	0.782393	0.037099	-0.013101	-0.002730
661	3.318372	0.005000	0.419882	10.027803	1.059480	-0.742581	-0.629119	0.782516	0.037816	-0.017963	0.006843
662	3.323372	0.005000	0.431640	10.006200	0.927405	-0.742910	-0.629229	0.782639	0.035802	-0.012793	0.001461
663	3.328372	0.005000	0.510120	10.084680	0.902520	-0.743239	-0.629338	0.782761	0.032643	-0.000920	0.008285
664	3.333372	0.005000	0.575954	10.031492	0.994948	-0.743568	-0.629448	0.782884	0.026696	-0.003054	0.005710
665	3.338372	0.005000	0.461740	9.976100	0.869190	-0.743897	-0.629558	0.783006	0.019069	-0.008095	0.000762
666	3.343372	0.005000	0.431640	9.961709	0.852777	-0.744227	-0.629668	0.783129	0.025990	-0.014380	0.003250
667	3.348372	0.005000	0.510120	10.026034	0.923211	-0.744556	-0.629778	0.783251	0.024394	-0.017304	0.002844
668	3.353372	0.005000	0.467421	9.988309	0.895602	-0.744703	-0.629887	0.783171	0.035824	-0.004477	0.001777
669	3.358372	0.005000	0.455401	9.936003	0.965521	-0.744484	-0.629997	0.782681	0.037812	-0.009103	0.008579
670	3.363372	0.005000	0.365332	9.902014	0.837574	-0.744264	-0.630107	0.782191	0.039582	-0.010435	-0.000710
671	3.368372	0.005000	0.431640	9.899606	0.745560	-0.744045	-0.630216	0.781701	0.047461	-0.011040	0.000372
672	3.373372	0.005000	0.422457	9.946085	0.706320	-0.743826	-0.630326	0.781211	0.041856	-0.005618	0.004319
673	3.378372	0.005000	0.399167	10.031906	0.849746	-0.743606	-0.630436	0.780721	0.052174	-0.022703	0.014290
674	3.383372	0.005000	0.470880	9.893245	0.828805	-0.743387	-0.630545	0.780231	0.044877	-0.016452	0.016013
675	3.388372	0.005000	0.392400	9.922884	0.789636	-0.743167	-0.630655	0.779741	0.039460	-0.012619	0.001331
676	3.393372	0.005000	0.392400	9.927720	0.745560	-0.742948	-0.630765	0.779251	0.041388	-0.018621	0.013278
677	3.398372	0.005000	0.429696	9.965016	0.827927	-0.742729	-0.630874	0.778761	0.043745	-0.010343	-0.001479
678	3.403372	0.005000	0.457992	9.971256	0.780504	-0.742509	-0.630984	0.778271	0.039537	-0.021062	0.002743
679	3.408372	0.005000	0.464590	9.966960	0.817750	-0.742290	-0.631094	0.777781	0.025643	-0.006414	0.002365
680	3.413372	0.005000	0.361856	9.949568	0.837191	-0.742070	-0.631203	0.777291	0.024780	-0.010785	0.012271
681	3.418372	0.005000	0.335201	9.995559	0.620522	-0.741851	-0.631313	0.776801	0.028711	-0.014308	0.004172
682	3.423372	0.005000	0.366214	9.966960	0.680211	-0.741632	-0.631184	0.777023	0.019985	-0.014640	0.006902
683	3.428372	0.005000	0.534362	9.918476	0.760558	-0.741412	-0.630964	0.777513	0.014564	-0.016881	0.014484
684	3.433372	0.005000	0.427215	9.927720	0.745560	-0.741193	-0.630745	0.778003	0.017033	-0.013127	0.010840
685	3.438372	0.005000	0.372750	9.927659	0.745499	-0.740973	-0.630525	0.778493	0.023361	-0.016943	0.012222
686	3.443372	0.005000	0.370637	9.945197	0.797992	-0.740754	-0.630306	0.778983	0.024527	-0.015444	0.008923
687	3.448372	0.005000	0.462348	9.833886	0.690966	-0.740535	-0.630087	0.779473	0.028254	-0.015392	0.000921
688	3.453372	0.005000	0.457759	9.927720	0.706442	-0.740315	-0.629867	0.779963	0.023104	-0.016392	0.000955
689	3.458372	0.005000	0.488694	9.888480	0.724134	-0.740096	-0.629648	0.780453	0.018348	-0.006043	0.006883
690	3.463372	0.005000	0.470880	9.910384	0.754228	-0.739876	-0.629428	0.780943	0.014837	-0.013970	0.004837
691	3.468372	0.005000	0.458173	9.882126	0.673434	-0.739657	-0.629209	0.781433	0.018785	-0.009240	0.003744
692	3.473372	0.005000	0.357583	9.888480	0.715166	-0.739437	-0.628989	0.781923	0.015228	-0.012262	0.001441
693	3.478372	0.005000	0.431640	9.853251	0.745560	-0.739218	-0.628770	0.782413	0.013982	-0.016406	0.003597
694	3.483372	0.005000	0.392461	9.888541	0.745802	-0.738999	-0.628551	0.782903	0.011380	-0.002020	0.002164
695	3.488372	0.005000	0.431640	9.853925	0.828725	-0.738819	-0.628331	0.783288	0.017195	-0.011652	-0.000789
696	3.493372	0.005000	0.510120	9.962673	0.828327	-0.738929	-0.628112	0.782921	0.010527	0.003768	0.001232
697	3.498372	0.005000	0.490010	9.888480	0.791503	-0.739039	-0.627893	0.782553	0.016809	-0.006078	0.000087
698	3.503372	0.005000	0.627840	9.948959	0.766799	-0.739148	-0.627673	0.782186	0.013538	-0.007721	0.000064
699	3.508372	0.005000	0.492988	9.955906	0.773746	-0.739258	-0.627454	0.781819	0.000916	-0.005265	-0.008107
700	3.513372	0.005000	0.444952	9.966960	0.798112	-0.739368	-0.627235	0.781451	-0.005887	-0.011044	0.008549
701	3.518372	0.005000	0.447051	9.975377	0.706320	-0.739478	-0.627015	0.781084	-0.011387	-0.005803	0.003061
702	3.523372	0.005000	0.506096	9.984568	0.802408	-0.739587	-0.626796	0.780717	-0.008476	-0.021991	0.003788
703	3.528372	0.005000	0.470589	9.868715	0.765035	-0.739697	-0.626577	0.780349	-0.011515	-0.011698	0.000863
704	3.533372	0.005000	0.470880	9.949639	0.784800	-0.739807	-0.626357	0.779982	-0.009463	-0.011534	-0.001253
705	3.538372	0.005000	0.437762	9.927720	0.793799	-0.739916	-0.626138	0.779615	-0.006644	-0.016283	0.006354
706	3.543372	0.005000	0.575893	9.940427	0.783682	-0.740026	-0.625919	0.779247	-0.012540	-0.007875	-0.002636
707	3.548372	0.005000	0.488572	9.966960	0.813266	-0.740136	-0.625700	0.778880	-0.003848	-0.016763	-0.005425
708	3.553372	0.005000	0.487599	9.896839	0.832399	-0.740245	-0.625480	0.778513	-0.003886	-0.015839	0.000960
709	3.558372	0.005000	0.510120	9.894895	0.778385	-0.741925	-0.626270	0.779272	-0.004002	-0.007366	-0.009795
710	3.563372	0.005000	0.545350	9.966960	0.761599	-0.745106	-0.628025	0.781110	-0.011344	-0.014134	-0.007647
711	3.568372	0.005000	0.545228	9.892612	0.824040	-0.748288	-0.629781	0.782947	-0.005468	-0.013454	-0.013704
712	3.573372	0.005000	0.587556	9.928068	0.746256	-0.751469	-0.631536	0.784785	0.004304	-0.022561	0.002642
713	3.578372	0.005000	0.514711	10.003904	0.745560	-0.754651	-0.633291	0.786622	-0.002029	-0.010089	-0.003249
714	3.583372	0.005000	0.510120	9.932364	0.902520	-0.757832	-0.635047	0.788460	-0.005866	-0.021148	-0.002476
715	3.588372	0.005000	0.438285	9.966960	0.922454	-0.761014	-0.636802	0.790298	-0.010385	-0.015705	0.000616
716	3.593372	0.005000	0.431640	9.879420	1.029300	-0.764195	-0.638558	0.792135	-0.015928	-0.016227	-0.011561
717	3.598372	0.005000	0.470880	9.984193	0.987229	-0.767377	-0.640313	0.793973	-0.024532	-0.017060	-0.006228
718	3.603372	0.005000	0.536943	9.992788	0.876692	-0.770558	-0.642068	0.795811	-0.018661	-0.018202	-0.008038
719	3.608372	0.005000	0.486522	9.998243	0.918162	-0.773740	-0.643824	0.797648	-0.001027	-0.027489	0.003843
720	3.613372	0.005000	0.470880	10.070641	1.002480	-0.776921	-0.645579	0.799486	-0.013778	-0.017586	-0.007279
721	3.618372	0.005000	0.471515	10.026138	0.982271	-0.780103	-0.647334	0.801323	-0.006793	-0.022274	-0.000190
722	3.623372	0.005000	0.453755	9.989075	0.846155	-0.783284	-0.649090	0.803161	-0.007364	-0.018335	-0.006883
723	3.628372	0.005000	0.392400	9.942726	0.981000	-0.781097	-0.648061	0.802445	-0.009061	-0.013725	-0.006374
724	3.633372	0.005000	0.431640	9.954191	0.954529	-0.778356	-0.646745	0.801466	0.007510	-0.011948	0.004054
725	3.638372	0.005000	0.527970	9.927720	0.952455	-0.775614	-0.645429	0.800486	0.001614	-0.005647	-0.007973
726	3.643372	0.005000	0.448475	9.913732	0.989417	-0.772873	-0.644113	0.799506	0.009906	-0.019648	0.001222
727	3.648372	0.005000	0.464481	9.927720	1.026639	-0.770132	-0.642798	0.798527	0.017695	-0.012476	-0.001126
728	3.653372	0.005000	0.431640	9.892537	1.059480	-0.767390	-0.641482	0.797547	0.015487	-0.009895	-0.002758
729	3.658372	0.005000	0.392400	9.929373	1.057827	-0.764649	-0.640166	0.796568	0.015208	-0.014887	0.001487
730	3.663372	0.005000	0.431349	9.889062	1.098138	-0.761908	-0.638850	0.795588	0.018805	-0.013431	0.000545
731	3.668372	0.005000	0.392400	9.885802	0.986355	-0.759166	-0.637534	0.794609	0.011556	-0.015677	0.005398
732	3.673372	0.005000	0.318572	9.923068	0.946412	-0.756425	-0.636218	0.793629	0.003460	-0.004090	0.006744
733	3.678372	0.005000	0.360134	9.916375	0.798747	-0.753683	-0.634902	0.792649	0.024462	-0.009543	0.002867
734	3.683372	0.005000	0.440639	9.918721	0.863280	-0.750942	-0.633586	0.791670	0.021587	-0.017856	-0.004696
735	3.688372	0.005000	0.403806	9.911292	0.913926	-0.748201	-0.632270	0.790690	0.012272	-0.012481	0.002443
736	3.693372	0.005000	0.379050	9.875941	0.850741	-0.746528	-0.631375	0.790362	0.037950	-0.004429	0.007540
737	3.698372	0.005000	0.368923	9.880767	0.816327	-0.747406	-0.631485	0.791587	0.026733	0.005107	0.000871
738	3.703372	0.005000	0.349832	9.906436	0.841996	-0.748284	-0.631595	0.792812	0.038883	-0.006317	-0.002892
739	3.708372	0.005000	0.333042	9.810000	0.844158	-0.749161	-0.631705	0.794037	0.033014	0.002450	-0.002311
740	3.713372	0.005000	0.387105	9.900158	0.846307	-0.750039	-0.631814	0.795262	0.026741	0.009165	0.004761
741	3.718372	0.005000	0.461177	9.937423	0.887751	-0.750916	-0.631924	0.796487	0.046828	0.006126	-0.001284
742	3.723372	0.005000	0.443995	9.964786	0.770271	-0.751794	-0.632034	0.797712	0.033422	0.009026	0.008415
743	3.728372	0.005000	0.392400	9.956673	0.852993	-0.752672	-0.632144	0.798938	0.038124	0.002042	0.015209
744	3.733372	0.005000	0.384396	9.943728	0.949764	-0.753549	-0.632253	0.800163	0.029486	0.005538	0.003984
745	3.738372	0.005000	0.437630	9.939701	0.790790	-0.754427	-0.632363	0.801388	0.035265	-0.003430	0.002117
746	3.743372	0.005000	0.392400	10.038152	0.834971	-0.755305	-0.632473	0.802613	0.025674	-0.004648	0.010241
747	3.748372	0.005000	0.469640	9.966960	0.864520	-0.756182	-0.632583	0.803838	0.025985	0.003090	0.008531
748	3.753372	0.005000	0.470176	9.928424	0.863984	-0.757060	-0.632692	0.805063	0.031692	0.002517	0.013893
749	3.758372	0.005000	0.431640	9.891588	0.824040	-0.757938	-0.632802	0.806288	0.024490	0.003333	-0.006251
750	3.763372	0.005000	0.408783	9.922259	0.857819	-0.757148	-0.632609	0.805482	0.021459	-0.001501	0.003661
751	3.768372	0.005000	0.384932	9.927720	0.728725	-0.755612	-0.632279	0.803767	0.021978	-0.001109	0.003665
752	3.773372	0.005000	0.392400	9.888480	0.696563	-0.754076	-0.631950	0.802052	0.018456	-0.000742	0.007069
753	3.778372	0.005000	0.435422	9.888480	0.733741	-0.752540	-0.631621	0.800337	0.021642	0.004581	0.016444
754	3.783372	0.005000	0.378332	9.941788	0.734457	-0.751004	-0.631292	0.798622	0.017912	0.004381	0.003326
755	3.788372	0.005000	0.454703	9.950783	0.738673	-0.749468	-0.630963	0.796907	0.019812	0.003533	0.006232
756	3.793372	0.005000	0.392400	9.985324	0.630351	-0.747932	-0.630634	0.795191	0.014540	-0.004726	0.000012
757	3.798372	0.005000	0.411109	9.851062	0.725029	-0.746396	-0.630305	0.793476	0.019460	-0.008530	0.006606
758	3.803372	0.005000	0.549360	9.810000	0.824040	-0.744861	-0.629975	0.791761	0.016283	-0.004840	0.002467
759	3.808372	0.005000	0.549360	9.849240	0.759915	-0.743325	-0.629646	0.790046	0.015588	-0.011343	0.014263
760	3.813372	0.005000	0.559193	9.964525	0.770096	-0.741789	-0.629317	0.788331	0.007736	-0.021783	0.000627
761	3.818372	0.005000	0.549360	9.966960	0.873278	-0.740253	-0.628988	0.786616	0.012403	-0.013859	-0.004156
762	3.823372	0.005000	0.541766	9.998606	0.816446	-0.738717	-0.628659	0.784901	0.018161	-0.021749	-0.009359
763	3.828372	0.005000	0.532412	9.866188	0.756859	-0.737351	-0.628349	0.783301	0.009467	-0.008771	-0.009303
764	3.833372	0.005000	0.470880	9.927720	0.856791	-0.737790	-0.628239	0.782934	0.013716	-0.020643	-0.014050
765	3.838372	0.005000	0.470880	9.926419	0.706320	-0.738229	-0.628129	0.782566	0.013588	-0.020613	-0.011720
766	3.843372	0.005000	0.470880	9.888480	0.668184	-0.738667	-0.628020	0.782199	0.003205	-0.023208	-0.006228
767	3.848372	0.005000	0.546299	9.885419	0.712442	-0.739106	-0.627910	0.781831	0.008354	-0.026735	-0.005552
768	3.853372	0.005000	0.437106	10.006200	0.857814	-0.739545	-0.627800	0.781464	-0.012011	-0.014975	-0.007759
769	3.858372	0.005000	0.485700	9.927720	0.863280	-0.739984	-0.627691	0.781096	-0.011948	-0.012473	-0.004140
770	3.863372	0.005000	0.402225	9.976724	0.804389	-0.740423	-0.627581	0.780729	-0.008058	-0.006908	-0.004297
771	3.868372	0.005000	0.365247	9.939807	0.808973	-0.740862	-0.627471	0.780361	-0.007009	-0.011657	-0.007649
772	3.873372	0.005000	0.403286	9.902657	0.824040	-0.741301	-0.627362	0.779994	-0.002917	-0.018267	-0.005812
773	3.878372	0.005000	0.487278	9.973404	0.712764	-0.741740	-0.627252	0.779626	-0.002895	-0.017180	-0.011982
774	3.883372	0.005000	0.470880	9.987667	0.727027	-0.742179	-0.627142	0.779259	-0.012652	-0.024749	-0.000014
775	3.888372	0.005000	0.431640	9.969108	0.805494	-0.742617	-0.627033	0.778891	-0.004104	-0.019222	-0.002760
776	3.893372	0.005000	0.431640	9.927720	0.879640	-0.743056	-0.626923	0.778524	0.004171	-0.011818	-0.005980
777	3.898372	0.005000	0.442985	9.980908	0.877228	-0.743231	-0.626919	0.778451	-0.004181	-0.011147	-0.008539
778	3.903372	0.005000	0.486114	10.021434	0.890517	-0.743121	-0.627028	0.778696	-0.004886	-0.012884	-0.009968
779	3.908372	0.005000	0.363613	9.918124	0.824040	-0.743012	-0.627138	0.778941	-0.002908	-0.016660	-0.000641
780	3.913372	0.005000	0.375851	9.888480	0.831604	-0.742902	-0.627248	0.779186	0.000757	-0.017299	-0.009628
781	3.918372	0.005000	0.465644	9.946016	0.941760	-0.742792	-0.627357	0.779431	0.003696	-0.015289	-0.005852
782	3.923372	0.005000	0.506868	9.852492	1.016988	-0.742682	-0.627467	0.779676	-0.006910	-0.018234	-0.007169
783	3.928372	0.005000	0.508345	9.888480	1.057705	-0.742573	-0.627577	0.779921	-0.005556	-0.016123	-0.016387
784	3.933372	0.005000	0.393456	9.888480	0.981000	-0.742463	-0.627686	0.780166	0.000848	-0.009800	0.002828
785	3.938372	0.005000	0.278154	9.927720	0.905994	-0.742353	-0.627796	0.780411	0.000728	-0.008771	-0.011582
786	3.943372	0.005000	0.342325	10.107667	1.014822	-0.742244	-0.627906	0.780657	0.014943	-0.011329	-0.000923
787	3.948372	0.005000	0.360984	9.951191	1.043833	-0.742134	-0.628015	0.780902	0.005309	-0.010058	-0.002633
788	3.953372	0.005000	0.343040	9.917600	1.089840	-0.742024	-0.628125	0.781147	0.007320	-0.012968	0.000305
789	3.958372	0.005000	0.431640	9.979132	0.899795	-0.741914	-0.628235	0.781392	0.005542	-0.018477	0.001702
790	3.963372	0.005000	0.446056	9.927720	0.848864	-0.741805	-0.628344	0.781637	0.016932	-0.015203	-0.001197
791	3.968372	0.005000	0.363506	9.905009	0.840569	-0.741983	-0.629224	0.781452	0.023974	-0.008211	-0.005086
792	3.973372	0.005000	0.372099	9.907419	0.802376	-0.742203	-0.630211	0.781207	0.015726	-0.009087	-0.009477
793	3.978372	0.005000	0.491763	9.906837	0.779748	-0.742422	-0.631198	0.780962	0.021665	-0.014338	-0.001239
794	3.983372	0.005000	0.447587	9.997599	0.831386	-0.742642	-0.632186	0.780717	0.020264	-0.003109	0.002109
795	3.988372	0.005000	0.496279	9.888480	0.824040	-0.742861	-0.633173	0.780472	0.014847	-0.008888	-0.001856
796	3.993372	0.005000	0.431640	9.876890	0.918580	-0.743080	-0.634160	0.780227	0.029005	-0.008194	-0.010129
797	3.998372	0.005000	0.519650	9.937250	0.844220	-0.743300	-0.635148	0.779982	0.024974	-0.011817	-0.003267
798	4.003372	0.005000	0.431640	9.952482	0.745560	-0.743519	-0.636135	0.779737	0.022104	-0.007150	0.004288
799	4.008372	0.005000	0.426406	9.943422	0.897286	-0.743739	-0.637123	0.779492	0.027814	-0.008957	0.001705
800	4.013372	0.005000	0.353160	9.930598	0.826918	-0.743958	-0.638110	0.779247	0.037670	-0.006720	-0.003232
801	4.018372	0.005000	0.433486	9.888480	0.825886	-0.744177	-0.639097	0.779002	0.034328	-0.006771	0.002614
802	4.023372	0.005000	0.434580	9.850710	0.902520	-0.744397	-0.640085	0.778757	0.033417	-0.009898	-0.011451
803	4.028372	0.005000	0.474707	9.849240	0.749387	-0.744616	-0.641072	0.778511	0.036363	-0.006250	-0.000644
804	4.033372	0.005000	0.398218	9.916084	0.896702	-0.744716	-0.641523	0.778400	0.035028	-0.004803	0.001200
805	4.038372	0.005000	0.415363	9.880342	0.817354	-0.744497	-0.640535	0.778645	0.023736	-0.003260	0.001443
806	4.043372	0.005000	0.470880	9.859417	0.863280	-0.744278	-0.639548	0.778890	0.015274	-0.004831	0.005407
807	4.048372	0.005000	0.390915	9.888480	0.758145	-0.744058	-0.638561	0.779135	0.004890	-0.001227	0.002749
808	4.053372	0.005000	0.452003	9.873951	0.774619	-0.743839	-0.637573	0.779380	0.000876	-0.004873	0.006587
809	4.058372	0.005000	0.510120	9.910778	0.767858	-0.743619	-0.636586	0.779625	0.005445	0.001328	-0.002390
810	4.063372	0.005000	0.488296	9.868125	0.627840	-0.743400	-0.635598	0.779870	0.005157	-0.008953	0.006067
811	4.068372	0.005000	0.488824	9.927720	0.760151	-0.743181	-0.634611	0.780115	-0.000902	0.005419	0.002823
812	4.073372	0.005000	0.486688	9.943528	0.745560	-0.742961	-0.633624	0.780360	-0.005964	0.001350	0.008536
813	4.078372	0.005000	0.522180	9.874890	0.731970	-0.742742	-0.632636	0.780605	-0.006109	-0.001400	0.008726
814	4.083372	0.005000	0.521296	9.927720	0.706320	-0.742522	-0.631649	0.780850	-0.019822	0.003360	-0.001276
815	4.088372	0.005000	0.500888	9.976192	0.694776	-0.742303	-0.630662	0.781095	-0.014152	-0.004380	0.002540
816	4.093372	0.005000	0.424814	9.934546	0.772863	-0.742083	-0.629674	0.781340	-0.014275	-0.004410	0.000605
817	4.098372	0.005000	0.524597	10.035789	0.932109	-0.741864	-0.628687	0.781585	-0.003996	-0.010911	-0.002510
818	4.103372	0.005000	0.544401	9.962001	0.855842	-0.742011	-0.628651	0.781422	0.008783	-0.015473	0.008083
819	4.108372	0.005000	0.469821	9.888480	0.863280	-0.742340	-0.629090	0.781054	-0.007636	-0.015588	0.003351
820	4.113372	0.005000	0.392400	9.888480	0.825922	-0.742669	-0.629528	0.780687	-0.006136	-0.022853	0.001860
821	4.118372	0.005000	0.388574	9.959308	0.894868	-0.742998	-0.629967	0.780319	-0.007148	-0.019616	-0.003352
822	4.123372	0.005000	0.359391	9.927720	0.830271	-0.743327	-0.630406	0.779952	-0.009237	-0.022756	-0.000448
823	4.128372	0.005000	0.414546	9.966960	0.793347	-0.743656	-0.630845	0.779584	-0.004982	-0.021485	-0.006326
824	4.133372	0.005000	0.374341	9.977551	0.852689	-0.743985	-0.631284	0.779217	0.000214	-0.027393	-0.009865
825	4.138372	0.005000	0.379557	9.980514	0.849726	-0.744315	-0.631722	0.778849	0.008262	-0.023166	-0.000782
826	4.143372	0.005000	0.392400	9.942663	0.941760	-0.744644	-0.632161	0.778482	0.006696	-0.015117	-0.003441
827	4.148372	0.005000	0.418815	9.962430	0.941760	-0.744973	-0.632600	0.778114	0.021703	-0.022507	0.000107
828	4.153372	0.005000	0.450296	9.869181	0.883221	-0.745302	-0.633039	0.777747	0.014104	-0.011259	-0.002954
829	4.158372	0.005000	0.374870	9.866770	0.884990	-0.745631	-0.633478	0.777379	0.017471	-0.013734	-0.000339
830	4.163372	0.005000	0.455480	9.919279	0.917920	-0.745960	-0.633917	0.777012	0.014790	-0.009953	-0.002341
831	4.168372	0.005000	0.509814	10.058316	0.967818	-0.746283	-0.634294	0.776690	0.019894	-0.014087	-0.002752
832	4.173372	0.005000	0.413948	9.956186	1.031014	-0.746502	-0.633745	0.777057	0.026590	-0.018949	0.004833
833	4.178372	0.005000	0.383672	9.918992	0.981000	-0.746722	-0.633197	0.777425	0.022297	-0.012546	-0.001652
834	4.183372	0.005000	0.359575	9.927720	0.981000	-0.746941	-0.632648	0.777792	0.027974	-0.014050	0.001468
835	4.188372	0.005000	0.322861	9.884009	1.002358	-0.747160	-0.632100	0.778160	0.021458	-0.006497	0.006320
836	4.193372	0.005000	0.353160	9.851306	0.826106	-0.747380	-0.631551	0.778528	0.023119	-0.004676	0.008258
837	4.198372	0.005000	0.313920	9.770882	0.863158	-0.747599	-0.631003	0.778895	0.033876	-0.010202	0.008238
838	4.203372	0.005000	0.313920	9.920913	0.934953	-0.747819	-0.630454	0.779263	0.021585	0.001402	0.008120
839	4.208372	0.005000	0.313920	10.006200	0.894041	-0.748038	-0.629906	0.779630	0.033263	-0.004282	0.007204
840	4.213372	0.005000	0.346515	9.947654	0.883214	-0.748257	-0.629357	0.779998	0.026334	0.007427	0.005038
841	4.218372	0.005000	0.361749	9.888480	0.801978	-0.748477	-0.628809	0.780365	0.031594	-0.004489	-0.000237
842	4.223372	0.005000	0.364164	9.888480	0.941760	-0.748696	-0.628260	0.780733	0.048896	0.004231	0.001884
843	4.228372	0.005000	0.379149	9.849240	0.903034	-0.748916	-0.627712	0.781100	0.038812	0.007300	0.004291
844	4.233372	0.005000	0.423112	9.919192	0.767744	-0.749135	-0.627163	0.781468	0.036766	-0.007503	0.004248
845	4.238372	0.005000	0.388680	9.931440	0.749280	-0.749003	-0.627117	0.781835	0.034209	0.014100	0.006464
846	4.243372	0.005000	0.490584	9.888480	0.804336	-0.748454	-0.627665	0.782203	0.041620	0.009770	0.009465
847	4.248372	0.005000	0.483016	9.866365	0.806915	-0.747906	-0.628214	0.782570	0.029222	0.004398	0.006536
848	4.253372	0.005000	0.455874	9.933499	0.824040	-0.747357	-0.628762	0.782938	0.035088	0.010637	0.001600
849	4.258372	0.005000	0.510120	9.993431	0.863280	-0.746809	-0.629311	0.783305	0.033464	0.005675	0.010066
850	4.263372	0.005000	0.520815	9.927720	0.824040	-0.746260	-0.629859	0.783673	0.044879	0.008675	0.009290
851	4.268372	0.005000	0.549360	9.936137	0.849292	-0.745712	-0.630408	0.784040	0.028967	0.001306	0.017124
852	4.273372	0.005000	0.530164	9.882081	0.889722	-0.745163	-0.630956	0.784408	0.024210	-0.001002	0.013198
853	4.278372	0.005000	0.518234	9.966960	0.784800	-0.744615	-0.631505	0.784775	0.025139	-0.000749	0.009513
854	4.283372	0.005000	0.619490	10.006200	0.784800	-0.744066	-0.632053	0.785143	0.014288	-0.002668	0.007344
855	4.288372	0.005000	0.431931	9.967251	0.706902	-0.743517	-0.632602	0.785510	0.015889	0.001179	-0.000619
856	4.293372	0.005000	0.504765	9.888480	0.706320	-0.742969	-0.633150	0.785878	0.025351	-0.011438	0.005417
857	4.298372	0.005000	0.540055	9.923068	0.676385	-0.742420	-0.633699	0.786245	0.018431	0.004222	0.005652
858	4.303372	0.005000	0.463822	9.888480	0.641956	-0.741872	-0.634247	0.786613	0.027782	-0.008637	0.004503
859	4.308372	0.005000	0.470880	9.957961	0.784800	-0.744130	-0.634983	0.787189	0.019891	-0.003500	0.003637
860	4.313372	0.005000	0.431640	9.888480	0.689892	-0.746873	-0.635751	0.787802	0.013412	-0.010365	-0.002618
861	4.318372	0.005000	0.522659	9.810000	0.628651	-0.749615	-0.636519	0.788414	0.013899	-0.012524	-0.002282
862	4.323372	0.005000	0.557073	10.005863	0.753273	-0.752358	-0.637287	0.789027	0.010062	-0.010345	0.001440
863	4.328372	0.005000	0.570893	10.084680	0.706320	-0.755101	-0.638055	0.789639	0.005196	-0.015175	0.006723
864	4.333372	0.005000	0.550355	9.966960	0.706320	-0.757843	-0.638823	0.790252	0.000265	-0.006659	-0.002117
865	4.338372	0.005000	0.470880	9.927720	0.745560	-0.760586	-0.639591	0.790864	-0.000361	-0.011243	-0.009926
866	4.343372	0.005000	0.407169	9.918017	0.696617	-0.763329	-0.640359	0.791477	-0.000934	-0.015303	0.005679
867	4.348372	0.005000	0.444317	9.941607	0.824040	-0.766071	-0.641127	0.792089	-0.000634	-0.024460	-0.008501
868	4.353372	0.005000	0.518127	9.946138	0.813629	-0.768814	-0.641895	0.792702	-0.000315	-0.027351	-0.002301
869	4.358372	0.005000	0.383933	9.927720	0.871747	-0.771557	-0.642663	0.793314	-0.006514	-0.017561	-0.009519
870	4.363372	0.005000	0.392400	9.973020	0.845099	-0.774299	-0.643431	0.793927	-0.005789	-0.025733	-0.005236
871	4.368372	0.005000	0.435709	9.966960	0.788869	-0.777042	-0.644199	0.794540	-0.006082	-0.018530	0.003564
872	4.373372	0.005000	0.470880	10.002772	0.783086	-0.778777	-0.644613	0.794939	-0.009886	-0.017666	-0.003283
873	4.378372	0.005000	0.431870	9.966730	0.823581	-0.777461	-0.643954	0.794694	-0.008855	-0.017564	-0.000457
874	4.383372	0.005000	0.468232	10.042792	0.824040	-0.776144	-0.643296	0.794449	-0.019991	-0.010996	-0.013019
875	4.388372	0.005000	0.362343	9.971551	0.907111	-0.774828	-0.642638	0.794204	-0.020251	-0.020982	-0.001400
876	4.393372	0.005000	0.431640	9.920723	0.948757	-0.773511	-0.641980	0.793959	-0.023206	-0.016184	-0.009524
877	4.398372	0.005000	0.470880	9.867846	0.981000	-0.772195	-0.641322	0.793714	-0.009873	-0.009825	-0.003611
878	4.403372	0.005000	0.420284	9.888480	0.897347	-0.770879	-0.640663	0.793469	-0.007497	-0.009154	0.006084
879	4.408372	0.005000	0.419599	9.914121	0.863280	-0.769562	-0.640005	0.793224	-0.018318	-0.010706	-0.005417
880	4.413372	0.005000	0.376692	9.982668	0.878988	-0.768246	-0.639347	0.792979	-0.010354	-0.016754	0.004212
881	4.418372	0.005000	0.395819	9.970379	0.920431	-0.766929	-0.638689	0.792734	-0.009624	-0.014205	-0.004937
882	4.423372	0.005000	0.411576	9.928608	0.863280	-0.765613	-0.638030	0.792489	-0.003268	-0.011829	0.001390
883	4.428372	0.005000	0.448673	9.927720	0.829214	-0.764296	-0.637372	0.792244	-0.001123	-0.009572	0.000727
884	4.433372	0.005000	0.456060	9.937319	0.824040	-0.762980	-0.636714	0.791999	-0.008129	-0.007820	-0.008539
885	4.438372	0.005000	0.404812	9.940132	0.877697	-0.761663	-0.636056	0.791754	0.007339	-0.017556	0.006413
886	4.443372	0.005000	0.431640	9.896304	0.756032	-0.760630	-0.635186	0.791431	0.003220	-0.014839	-0.011673
887	4.448372	0.005000	0.416596	9.834196	0.848236	-0.759752	-0.634199	0.791063	-0.005083	-0.018824	-0.004561
888	4.453372	0.005000	0.537117	10.000078	0.993243	-0.758875	-0.633212	0.790696	0.001667	-0.004966	-0.008006
889	4.458372	0.005000	0.388695	9.963255	0.969885	-0.757998	-0.632225	0.790329	-0.002901	-0.013243	-0.006662
890	4.463372	0.005000	0.469119	9.931241	0.941760	-0.757121	-0.631238	0.789961	0.002443	-0.004434	0.001893
891	4.468372	0.005000	0.470245	10.006200	0.903155	-0.756243	-0.630251	0.789594	-0.011571	-0.005184	-0.006405
892	4.473372	0.005000	0.394987	9.927720	1.093545	-0.755366	-0.629264	0.789227	0.011232	-0.010522	0.009393
893	4.478372	0.005000	0.436644	9.991187	1.064484	-0.754489	-0.628277	0.788859	-0.000856	-0.000804	-0.005298
894	4.483372	0.005000	0.574704	10.045440	0.981000	-0.753612	-0.627291	0.788492	0.001119	-0.007222	0.000450
895	4.488372	0.005000	0.558715	10.026731	0.881989	-0.752734	-0.626304	0.788124	0.004889	-0.000002	0.000509
896	4.493372	0.005000	0.482179	9.989558	0.947103	-0.751857	-0.625317	0.787757	0.005766	-0.008157	0.004149
897	4.498372	0.005000	0.445353	9.927720	0.967287	-0.750980	-0.624330	0.787390	0.003651	-0.012050	-0.005363
898	4.503372	0.005000	0.446404	9.951031	0.918449	-0.750103	-0.623343	0.787022	-0.001908	-0.007891	-0.011200
899	4.508372	0.005000	0.413574	10.006200	0.884454	-0.749240	-0.622399	0.786647	0.004573	-0.012015	0.011286
900	4.513372	0.005000	0.488685	10.025215	0.941760	-0.748801	-0.622728	0.786034	0.005721	-0.008171	-0.000064
901	4.518372	0.005000	0.437228	10.023026	0.924934	-0.748362	-0.623057	0.785422	0.004327	-0.014713	-0.004225
902	4.523372	0.005000	0.446057	9.888480	0.923334	-0.747923	-0.623386	0.784809	0.010224	-0.008126	0.000209
903	4.528372	0.005000	0.470880	9.810000	0.890047	-0.747484	-0.623715	0.784197	0.013119	-0.008845	0.002461
904	4.533372	0.005000	0.549360	9.751638	0.813981	-0.747046	-0.624044	0.783584	0.027194	-0.011124	0.004282
905	4.538372	0.005000	0.494085	9.818017	0.800835	-0.746607	-0.624374	0.782972	0.013242	-0.006724	0.000399
906	4.543372	0.005000	0.504412	9.905605	0.851863	-0.746168	-0.624703	0.782359	0.023326	-0.013448	-0.001771
907	4.548372	0.005000	0.388679	10.006200	0.938039	-0.745729	-0.625032	0.781746	0.020913	-0.010069	-0.006998
908	4.553372	0.005000	0.393747	10.004853	0.905215	-0.745290	-0.625361	0.781134	0.024994	-0.014380	-0.004658
909	4.558372	0.005000	0.392997	9.928317	0.981000	-0.744852	-0.625690	0.780521	0.026392	-0.017280	-0.002903
910	4.563372	0.005000	0.398402	9.888480	0.830042	-0.744413	-0.626019	0.779909	0.032300	-0.016164	0.003744
911	4.568372	0.005000	0.431640	9.922365	0.936405	-0.743974	-0.626349	0.779296	0.028614	-0.018731	0.009238
912	4.573372	0.005000	0.431640	9.935081	0.919676	-0.743535	-0.626678	0.778684	0.017945	-0.002444	0.001147
913	4.578372	0.005000	0.392400	9.996432	0.814272	-0.743237	-0.627007	0.778490	0.014557	-0.000712	-0.009780
914	4.583372	0.005000	0.458854	10.006200	0.772774	-0.743127	-0.627336	0.778858	0.021681	-0.004272	0.006423
915	4.588372	0.005000	0.445756	9.981076	0.784800	-0.743017	-0.627665	0.779226	0.027155	-0.008538	0.001528
916	4.593372	0.005000	0.385835	9.904817	0.846943	-0.742908	-0.627995	0.779593	0.025860	-0.010281	0.000230
917	4.598372	0.005000	0.394696	9.886184	0.844808	-0.742798	-0.628324	0.779961	0.017246	-0.004640	0.005559
918	4.603372	0.005000	0.392400	9.870123	0.821514	-0.742688	-0.628653	0.780329	0.035266	-0.013679	0.002535
919	4.608372	0.005000	0.369573	9.888480	0.768387	-0.742578	-0.628982	0.780696	0.033085	-0.004687	-0.001628
920	4.613372	0.005000	0.367163	9.955727	0.838043	-0.742468	-0.629311	0.781064	0.039201	-0.013516	0.001784
921	4.618372	0.005000	0.365080	9.955040	0.851360	-0.742359	-0.629641	0.781432	0.035297	-0.009188	0.006568
922	4.623372	0.005000	0.362805	9.938024	0.843331	-0.742249	-0.629970	0.781799	0.026233	-0.010574	-0.002362
923	4.628372	0.005000	0.392400	9.863718	0.777561	-0.742139	-0.630299	0.782167	0.035438	-0.015478	-0.000515
924	4.633372	0.005000	0.408286	9.893775	0.756151	-0.742029	-0.630628	0.782535	0.025975	-0.004895	0.005657
925	4.638372	0.005000	0.510120	9.927720	0.869037	-0.741920	-0.630958	0.782903	0.035686	-0.019456	0.002347
926	4.643372	0.005000	0.547514	10.004354	0.939914	-0.741810	-0.631287	0.783270	0.023053	-0.011401	0.003360
927	4.648372	0.005000	0.395340	9.965490	0.749969	-0.741427	-0.631070	0.783333	0.021680	-0.008249	-0.003051
928	4.653372	0.005000	0.423986	9.959306	0.745560	-0.740988	-0.630741	0.783333	0.028117	-0.015014	0.012191
929	4.658372	0.005000	0.543542	9.955324	0.857462	-0.740550	-0.630412	0.783333	0.016995	-0.006773	0.004910
930	4.663372	0.005000	0.495295	9.958822	0.753698	-0.740111	-0.630083	0.783333	0.015901	-0.020009	0.003222
931	4.668372	0.005000	0.421463	9.917543	0.687435	-0.739672	-0.629754	0.783333	0.019964	-0.007231	0.006509
932	4.673372	0.005000	0.445710	9.901065	0.783315	-0.739233	-0.629425	0.783333	0.018087	-0.007611	0.008071
933	4.678372	0.005000	0.470880	9.858831	0.769975	-0.738794	-0.629096	0.783333	0.023927	-0.007551	0.007598
934	4.683372	0.005000	0.325505	9.972316	0.740204	-0.738355	-0.628767	0.783333	0.021541	-0.005274	0.005675
935	4.688372	0.005000	0.412519	9.986081	0.765679	-0.737917	-0.628438	0.783333	0.026781	-0.016498	0.001534
936	4.693372	0.005000	0.449584	9.945664	0.784800	-0.737478	-0.628108	0.783333	0.012990	-0.004585	-0.002677
937	4.698372	0.005000	0.510120	9.856864	0.714504	-0.737039	-0.627779	0.783333	0.017394	-0.006801	0.003344
938	4.703372	0.005000	0.535770	9.876420	0.798390	-0.736600	-0.627450	0.783333	0.016944	0.001420	0.005926
939	4.708372	0.005000	0.555071	9.961249	0.784800	-0.736161	-0.627121	0.783333	0.020159	-0.000609	-0.007328
940	4.713372	0.005000	0.401632	9.936952	0.932528	-0.735969	-0.626940	0.783333	0.025453	-0.000408	-0.004140
941	4.718372	0.005000	0.470880	9.999374	0.837691	-0.736627	-0.627269	0.783333	0.012298	0.004932	-0.002129
942	4.723372	0.005000	0.466054	9.922894	0.853629	-0.737285	-0.627598	0.783333	0.013859	-0.011173	0.004643
943	4.728372	0.005000	0.365556	9.890959	0.784800	-0.737943	-0.627927	0.783333	-0.000410	0.001016	-0.004886
944	4.733372	0.005000	0.470819	9.927598	0.824101	-0.738602	-0.628256	0.783333	0.005481	-0.003111	-0.002622
945	4.738372	0.005000	0.394282	9.923955	0.825922	-0.739260	-0.628585	0.783333	0.006150	-0.016686	0.001514
946	4.743372	0.005000	0.357447	9.919146	0.937473	-0.739918	-0.628914	0.783333	-0.008539	-0.013585	0.000024
947	4.748372	0.005000	0.496869	9.927720	0.784800	-0.740576	-0.629243	0.783333	-0.004665	-0.004511	0.008482
948	4.753372	0.005000	0.518767	9.875181	0.736913	-0.741235	-0.629572	0.783333	-0.010408	-0.006629	-0.000766
949	4.758372	0.005000	0.481802	9.820922	0.795722	-0.741893	-0.629902	0.783333	-0.013979	-0.015483	0.005199
950	4.763372	0.005000	0.418397	9.914722	0.719563	-0.742551	-0.630231	0.783333	-0.008726	-0.014608	0.004581
951	4.768372	0.005000	0.392400	9.912309	0.738566	-0.743209	-0.630560	0.783333	-0.005498	-0.010690	-0.014050
952	4.773372	0.005000	0.510120	9.927720	0.784800	-0.743868	-0.630889	0.783333	0.000939	-0.026898	-0.000955
953	4.778372	0.005000	0.588018	10.005909	0.726085	-0.744526	-0.631218	0.783333	0.003989	-0.015076	-0.005901
954	4.783372	0.005000	0.576647	10.045440	0.718273	-0.744708	-0.631139	0.783333	-0.000377	-0.016009	0.002505
955	4.788372	0.005000	0.480229	9.927720	0.751157	-0.744598	-0.630810	0.783333	-0.008597	-0.017013	0.001443
956	4.793372	0.005000	0.405107	9.940427	0.731735	-0.744489	-0.630481	0.783333	-0.004754	-0.010172	-0.004495
957	4.798372	0.005000	0.549360	9.966960	0.784800	-0.744379	-0.630152	0.783333	0.011486	-0.013309	0.003219
958	4.803372	0.005000	0.580341	9.911201	0.824040	-0.744270	-0.629823	0.783333	-0.003793	-0.009369	-0.011281
959	4.808372	0.005000	0.458973	9.955053	0.818087	-0.744160	-0.629495	0.783333	0.007729	-0.019406	-0.003067
960	4.813372	0.005000	0.392400	10.006200	0.867243	-0.744050	-0.629166	0.783333	0.004925	-0.019943	-0.006727
961	4.818372	0.005000	0.354752	10.042255	0.938575	-0.743941	-0.628837	0.783333	0.003592	-0.022349	-0.002999
962	4.823372	0.005000	0.430838	9.851645	0.824842	-0.743831	-0.628508	0.783333	0.005483	-0.012837	-0.002881
963	4.828372	0.005000	0.392400	9.964204	0.905276	-0.743722	-0.628179	0.783333	0.006421	-0.007948	0.006692
964	4.833372	0.005000	0.431640	9.966960	0.902520	-0.743612	-0.627850	0.783333	0.004151	-0.020281	0.003646
965	4.838372	0.005000	0.392400	9.952727	1.002349	-0.743502	-0.627521	0.783333	-0.013520	-0.014436	-0.001864
966	4.843372	0.005000	0.392400	9.868286	0.990523	-0.743393	-0.627192	0.783333	-0.001292	-0.020540	0.002045
967	4.848372	0.005000	0.364959	9.927720	0.902520	-0.743283	-0.626870	0.783336	-0.006340	-0.020396	0.001417
968	4.853372	0.005000	0.431640	9.953079	0.863280	-0.743173	-0.627309	0.783704	0.002208	-0.011940	-0.015216
969	4.858372	0.005000	0.353160	9.966960	0.934711	-0.743064	-0.627748	0.784071	-0.006847	-0.015292	-0.002429
970	4.863372	0.005000	0.371394	9.867474	0.902520	-0.742954	-0.628186	0.784439	-0.003431	-0.014391	0.002382
971	4.868372	0.005000	0.353160	9.888480	0.863280	-0.742844	-0.628625	0.784806	0.002233	-0.012047	0.006279
972	4.873372	0.005000	0.359483	9.888480	0.824040	-0.742734	-0.629064	0.785174	-0.006386	-0.005752	0.001573
973	4.878372	0.005000	0.317425	9.888480	0.956008	-0.742625	-0.629503	0.785541	-0.002206	-0.009929	-0.004469
974	4.883372	0.005000	0.338245	9.861402	0.890358	-0.742515	-0.629942	0.785909	-0.006448	-0.006987	0.003073
975	4.888372	0.005000	0.451099	9.957070	0.853390	-0.742405	-0.630380	0.786276	-0.004562	-0.015161	-0.016407
976	4.893372	0.005000	0.502269	9.966960	0.831891	-0.742295	-0.630819	0.786644	0.008205	-0.017407	0.001107
977	4.898372	0.005000	0.426100	9.882940	0.829580	-0.742186	-0.631258	0.787011	0.002017	-0.020337	-0.004879
978	4.903372	0.005000	0.359407	9.849240	0.860157	-0.742076	-0.631697	0.787379	0.008810	-0.020769	0.002052
979	4.908372	0.005000	0.432819	9.926541	0.866817	-0.741966	-0.632136	0.787747	0.003571	-0.013761	-0.009990
980	4.913372	0.005000	0.470880	9.926510	1.057060	-0.741856	-0.632575	0.788114	0.014230	-0.013969	-0.003876
981	4.918372	0.005000	0.510120	9.970129	0.974662	-0.741924	-0.632703	0.788036	0.009453	-0.013452	-0.004711
982	4.923372	0.005000	0.437226	9.821172	0.896934	-0.742253	-0.632374	0.787301	0.009963	-0.010045	-0.003903
983	4.928372	0.005000	0.478776	9.857136	0.902520	-0.742582	-0.632045	0.786567	0.012872	-0.017401	0.000174
984	4.933372	0.005000	0.382464	9.947593	0.883153	-0.742911	-0.631716	0.785832	0.004707	-0.012241	-0.001614
985	4.938372	0.005000	0.485735	9.939913	0.890327	-0.743240	-0.631387	0.785097	0.012114	-0.010733	0.002613
986	4.943372	0.005000	0.510120	9.966960	0.891849	-0.743569	-0.631058	0.784363	-0.000668	-0.009287	0.015882
987	4.948372	0.005000	0.504274	9.927720	0.941760	-0.743898	-0.630729	0.783628	0.004276	-0.003345	-0.003939
988	4.953372	0.005000	0.394359	9.946361	0.923119	-0.744227	-0.630400	0.782893	-0.003029	-0.011135	0.001083
989	4.958372	0.005000	0.510120	10.003337	0.923572	-0.744556	-0.630071	0.782158	0.012117	-0.005016	-0.002784
990	4.963372	0.005000	0.526364	9.966960	0.902520	-0.744885	-0.629742	0.781424	0.007918	-0.017986	-0.004695
991	4.968372	0.005000	0.445475	9.913885	0.837875	-0.745214	-0.629413	0.780689	0.011854	-0.015007	0.002724
992	4.973372	0.005000	0.447372	9.943452	0.761292	-0.745543	-0.629084	0.779954	0.018556	-0.011928	-0.002361
993	4.978372	0.005000	0.422163	9.888480	0.665748	-0.745872	-0.628755	0.779220	0.023563	-0.013005	0.007164
994	4.983372	0.005000	0.385329	9.934791	0.806012	-0.746201	-0.628426	0.778485	0.017801	-0.015531	0.002358
995	4.988372	0.005000	0.436708	9.888480	0.936692	-0.746095	-0.628271	0.778916	0.022370	-0.019492	0.004332
996	4.993372	0.005000	0.507410	9.857370	0.899810	-0.745876	-0.628161	0.779651	0.015747	-0.013524	-0.000343
997	4.998372	0.005000	0.432396	9.965447	0.823284	-0.745656	-0.628052	0.780386	0.023317	-0.021751	-0.002042
998	5.003372	0.005000	0.433278	9.963684	0.860004	-0.745437	-0.627942	0.781121	0.011156	-0.008448	0.002312
999	5.008372	0.005000	0.439627	9.900461	0.902520	-0.745217	-0.627832	0.781856	0.011953	-0.003647	0.005480
1000	5.013372	0.005000	0.476866	9.921734	0.896534	-0.744998	-0.627723	0.782591	0.016326	-0.015010	0.012142
1001	5.018372	0.005000	0.454076	9.958558	0.849246	-0.744778	-0.627613	0.783326	0.014025	-0.005615	0.002534
1002	5.023372	0.005000	0.462677	9.907029	0.764109	-0.744559	-0.627503	0.784061	0.007835	-0.012049	0.002908
1003	5.028372	0.005000	0.510120	9.927720	0.837773	-0.744340	-0.627394	0.784796	0.008781	-0.010621	0.006565
1004	5.033372	0.005000	0.431640	9.952262	0.799498	-0.744120	-0.627284	0.785531	0.010062	-0.018146	0.007168
1005	5.038372	0.005000	0.487990	9.910610	0.907540	-0.743901	-0.627174	0.786266	0.017414	-0.023533	0.001692
1006	5.043372	0.005000	0.411687	9.868527	0.863280	-0.743681	-0.627065	0.787002	0.017452	-0.014836	-0.001359
1007	5.048372	0.005000	0.413865	9.945495	0.841815	-0.743462	-0.626955	0.787737	0.013495	-0.018527	-0.001049
1008	5.053372	0.005000	0.431640	9.951318	0.886878	-0.743305	-0.627011	0.788564	0.011816	-0.010246	0.001282
1009	5.058372	0.005000	0.444036	9.901902	0.757956	-0.743414	-0.627779	0.789789	0.012047	-0.014900	0.003250
1010	5.063372	0.005000	0.392400	9.899488	0.745560	-0.743524	-0.628547	0.791014	0.001977	-0.010673	0.008448
1011	5.068372	0.005000	0.383336	9.997136	0.763687	-0.743634	-0.629314	0.792239	0.012498	-0.009489	0.002143
1012	5.073372	0.005000	0.405720	9.881820	0.863280	-0.743743	-0.630082	0.793464	0.005770	-0.019103	0.003705
1013	5.078372	0.005000	0.466221	9.844581	0.754878	-0.743853	-0.630850	0.794689	0.008595	-0.006118	-0.001786
1014	5.083372	0.005000	0.433951	9.851551	0.826351	-0.743963	-0.631618	0.795915	0.008307	-0.025999	0.000011
1015	5.088372	0.005000	0.392400	9.966597	0.862554	-0.744072	-0.632386	0.797140	0.011668	-0.009176	-0.001962
1016	5.093372	0.005000	0.503968	9.927720	0.859178	-0.744182	-0.633154	0.798365	0.009782	-0.012415	-0.003543
1017	5.098372	0.005000	0.396394	9.853234	0.780806	-0.744292	-0.633922	0.799590	0.003588	-0.015946	-0.003493
1018	5.103372	0.005000	0.458081	9.882080	0.811241	-0.744401	-0.634690	0.800815	-0.003021	-0.012222	-0.015276
1019	5.108372	0.005000	0.462167	9.980060	0.745560	-0.744511	-0.635458	0.802040	0.001961	-0.019419	-0.009053
1020	5.113372	0.005000	0.499361	9.877721	0.774041	-0.744621	-0.636226	0.803265	0.001478	-0.016901	-0.006162
1021	5.118372	0.005000	0.510380	9.849240	0.810873	-0.744730	-0.636993	0.804490	-0.007949	-0.014496	0.003484
1022	5.123372	0.005000	0.407511	9.918702	0.854262	-0.745864	-0.637121	0.804928	0.001400	-0.014078	-0.006948
1023	5.128372	0.005000	0.357353	9.984483	0.902520	-0.747728	-0.636792	0.804806	-0.015546	-0.011910	-0.010956
1024	5.133372	0.005000	0.333387	9.888786	0.804267	-0.749593	-0.636463	0.804684	-0.008017	-0.012184	0.010481
1025	5.138372	0.005000	0.409762	9.945082	0.880642	-0.751457	-0.636134	0.804561	0.002395	-0.011558	-0.002090
1026	5.143372	0.005000	0.368399	9.927720	0.832802	-0.753321	-0.635805	0.804439	-0.006742	-0.016312	-0.005091
1027	5.148372	0.005000	0.457667	10.006200	0.824040	-0.755185	-0.635476	0.804316	-0.000605	-0.023902	-0.004081
1028	5.153372	0.005000	0.392400	9.977897	0.852343	-0.757049	-0.635147	0.804194	-0.005393	-0.026134	-0.011997
1029	5.158372	0.005000	0.379147	9.966960	0.902520	-0.758914	-0.634818	0.804071	-0.013104	-0.021433	-0.006049
1030	5.163372	0.005000	0.536867	9.933967	0.935513	-0.760778	-0.634490	0.803949	-0.012867	-0.014797	-0.010027
1031	5.168372	0.005000	0.431640	9.932022	0.902520	-0.762642	-0.634161	0.803826	-0.008903	-0.026422	-0.007253
1032	5.173372	0.005000	0.435435	9.929618	0.861382	-0.764506	-0.633832	0.803704	-0.002462	-0.023456	0.001789
1033	5.178372	0.005000	0.470926	9.966960	0.941622	-0.766370	-0.633503	0.803581	-0.012371	-0.020236	-0.009752
1034	5.183372	0.005000	0.431640	9.927720	0.934454	-0.768234	-0.633174	0.803459	-0.022444	-0.022525	-0.003971
1035	5.188372	0.005000	0.510120	9.858055	0.832855	-0.770099	-0.632845	0.803336	-0.030488	-0.022004	-0.002466
1036	5.193372	0.005000	0.556173	9.895293	0.934947	-0.768121	-0.632409	0.801545	-0.020273	-0.031384	-0.000161
1037	5.198372	0.005000	0.440762	9.918598	0.950882	-0.766036	-0.631970	0.799707	-0.020564	-0.023634	-0.008052
1038	5.203372	0.005000	0.431640	9.955788	0.930588	-0.763952	-0.631531	0.797870	-0.017731	-0.026046	-0.001252
1039	5.208372	0.005000	0.392400	9.914302	0.968596	-0.761868	-0.631093	0.796032	-0.007309	-0.016605	0.003349
1040	5.213372	0.005000	0.416115	9.943245	0.846898	-0.759783	-0.630654	0.794195	0.001468	-0.015103	-0.003532
1041	5.218372	0.005000	0.349776	9.927720	0.824040	-0.757699	-0.630215	0.792357	0.003530	-0.019853	-0.005620
1042	5.223372	0.005000	0.373264	9.907616	0.980032	-0.755614	-0.629776	0.790520	0.009271	-0.022656	-0.003954
1043	5.228372	0.005000	0.448597	9.871523	0.947086	-0.753530	-0.629337	0.788682	0.008062	-0.021623	-0.004218
1044	5.233372	0.005000	0.422080	9.858800	0.814480	-0.751446	-0.628899	0.786844	0.016396	-0.010880	-0.006074
1045	5.238372	0.005000	0.327959	9.847801	0.797400	-0.749361	-0.628460	0.785007	0.017070	-0.012813	-0.010636
1046	5.243372	0.005000	0.374217	9.945903	0.962817	-0.747277	-0.628021	0.783169	0.006920	-0.013221	-0.000747
1047	5.248372	0.005000	0.454382	9.935969	0.981000	-0.745192	-0.627582	0.781332	0.021768	-0.005876	-0.000398
1048	5.253372	0.005000	0.404865	9.960728	0.995310	-0.743108	-0.627143	0.779494	0.022915	-0.008161	0.000245
1049	5.258372	0.005000	0.463102	10.002311	0.945649	-0.741912	-0.627028	0.778243	0.011368	-0.010116	-0.004562
1050	5.263372	0.005000	0.431640	10.004715	1.097235	-0.742241	-0.627466	0.777998	0.013727	-0.015799	-0.005100
1051	5.268372	0.005000	0.470421	9.966960	1.098261	-0.742571	-0.627905	0.777753	0.019998	-0.002842	0.003618
1052	5.273372	0.005000	0.434484	9.930564	0.947448	-0.742900	-0.628344	0.777508	0.022006	0.000572	-0.003320
1053	5.278372	0.005000	0.357981	10.001379	1.049838	-0.743229	-0.628783	0.777263	0.028056	-0.005123	0.003478
1054	5.283372	0.005000	0.431640	9.927720	0.941760	-0.743558	-0.629222	0.777018	0.017800	-0.000654	0.003838
1055	5.288372	0.005000	0.410734	9.888480	0.872447	-0.743887	-0.629661	0.776773	0.019714	-0.005652	0.016126
1056	5.293372	0.005000	0.454789	9.966960	0.957851	-0.744216	-0.630099	0.776528	0.013970	0.000531	0.007330
1057	5.298372	0.005000	0.456892	9.944432	0.877268	-0.744545	-0.630538	0.776283	0.019421	-0.002011	0.007654
1058	5.303372	0.005000	0.431640	9.919165	0.879212	-0.744875	-0.630977	0.776038	0.015273	-0.006525	0.006443
1059	5.308372	0.005000	0.452538	9.927720	0.881622	-0.745204	-0.631416	0.775793	0.025858	-0.002123	0.006641
1060	5.313372	0.005000	0.451926	9.887148	0.865944	-0.745533	-0.631855	0.775548	0.038183	-0.005024	0.008333
1061	5.318372	0.005000	0.503968	9.905024	0.817888	-0.745862	-0.632293	0.775303	0.029675	0.004686	0.006689
1062	5.323372	0.005000	0.446071	9.952529	0.784800	-0.746191	-0.632732	0.775058	0.034436	-0.007935	0.009040
1063	5.328372	0.005000	0.419453	9.900667	0.848414	-0.746101	-0.632585	0.775187	0.054704	-0.005261	0.008684
1064	5.333372	0.005000	0.412640	9.936600	0.784800	-0.745882	-0.632256	0.775432	0.040870	-0.007285	-0.003288
1065	5.338372	0.005000	0.525853	9.927720	0.855444	-0.745663	-0.631926	0.775677	0.054482	-0.008171	0.001751
1066	5.343372	0.005000	0.554780	10.000780	0.863280	-0.745443	-0.631597	0.775922	0.038654	-0.005499	-0.008548
1067	5.348372	0.005000	0.545885	9.927720	0.934809	-0.745224	-0.631268	0.776167	0.044295	-0.008964	0.005988
1068	5.353372	0.005000	0.392400	9.963745	0.903592	-0.745004	-0.630939	0.776412	0.030516	-0.006240	0.001326
1069	5.358372	0.005000	0.392400	9.849240	0.903392	-0.744785	-0.630610	0.776657	0.039448	-0.006720	0.001466
1070	5.363372	0.005000	0.503567	9.888480	0.869833	-0.744566	-0.630281	0.776902	0.043128	-0.003940	0.011540
1071	5.368372	0.005000	0.544139	9.854461	0.824040	-0.744346	-0.629951	0.777147	0.032403	-0.008215	0.001313
1072	5.373372	0.005000	0.478517	9.920083	0.902520	-0.744127	-0.629622	0.777392	0.036586	-0.010775	0.000416
1073	5.378372	0.005000	0.422060	9.966960	0.774301	-0.743907	-0.629293	0.777637	0.026395	0.004774	-0.000531
1074	5.383372	0.005000	0.482868	10.006200	0.836028	-0.743688	-0.628964	0.777882	0.023985	-0.010151	0.006666
1075	5.388372	0.005000	0.445875	9.991965	0.863280	-0.743469	-0.628635	0.778127	0.013828	-0.001887	0.005715
1076	5.393372	0.005000	0.392400	9.921170	0.778250	-0.743249	-0.628375	0.778391	0.019003	-0.015161	-0.002693
1077	5.398372	0.005000	0.411155	9.850970	0.745560	-0.743030	-0.628485	0.778759	0.020994	-0.017212	0.003229
1078	5.403372	0.005000	0.413099	9.944102	0.745560	-0.742810	-0.628595	0.779126	0.009413	-0.009919	-0.002274
1079	5.408372	0.005000	0.369291	9.983091	0.729429	-0.742591	-0.628705	0.779494	0.008379	-0.013732	0.000611
1080	5.413372	0.005000	0.420446	9.992177	0.641863	-0.742372	-0.628814	0.779861	0.007583	-0.009204	-0.001474
1081	5.418372	0.005000	0.498346	9.915946	0.863280	-0.742152	-0.628924	0.780229	0.009738	-0.017443	-0.001887
1082	5.423372	0.005000	0.500750	9.927720	0.833410	-0.741933	-0.629034	0.780596	0.009525	-0.011398	-0.000888
1083	5.428372	0.005000	0.407251	9.888480	0.816615	-0.741713	-0.629144	0.780964	0.011882	-0.011787	-0.000339
1084	5.433372	0.005000	0.598640	9.893500	0.779780	-0.741494	-0.629253	0.781332	0.006626	-0.020680	0.005847
1085	5.438372	0.005000	0.543279	9.930761	0.817959	-0.741274	-0.629363	0.781699	-0.004729	-0.012454	0.005758
1086	5.443372	0.005000	0.469563	9.888480	0.744902	-0.741055	-0.629473	0.782067	-0.004521	-0.015302	0.005611
1087	5.448372	0.005000	0.429915	9.888480	0.781351	-0.740836	-0.629583	0.782434	0.004862	-0.019328	-0.000192
1088	5.453372	0.005000	0.435330	9.927720	0.752940	-0.740616	-0.629692	0.782802	0.010032	-0.022010	-0.014184
1089	5.458372	0.005000	0.470880	9.994128	0.845173	-0.740397	-0.629802	0.783169	0.008817	-0.021158	0.004598
1090	5.463372	0.005000	0.486980	9.896530	0.879380	-0.740299	-0.629790	0.782994	-0.006220	-0.021655	-0.008388
1091	5.468372	0.005000	0.489206	9.838783	0.842366	-0.740299	-0.629680	0.782381	-0.000598	-0.022277	0.007729
1092	5.473372	0.005000	0.496324	9.927720	0.850558	-0.740299	-0.629571	0.781769	0.001768	-0.022395	0.000468
1093	5.478372	0.005000	0.456066	9.991386	0.848466	-0.740299	-0.629461	0.781156	-0.001428	-0.020413	-0.001123
1094	5.483372	0.005000	0.470880	9.944738	0.880298	-0.740299	-0.629351	0.780544	-0.001925	-0.019668	0.001742
1095	5.488372	0.005000	0.372328	9.987032	0.884255	-0.740299	-0.629241	0.779931	-0.003082	-0.022229	-0.000876
1096	5.493372	0.005000	0.514024	9.910052	0.927996	-0.740299	-0.629132	0.779319	0.005408	-0.025774	0.006765
1097	5.498372	0.005000	0.431640	9.919927	0.792731	-0.740299	-0.629022	0.778706	0.001393	-0.012400	0.008019
1098	5.503372	0.005000	0.523435	9.953645	0.876595	-0.740299	-0.628912	0.778094	0.001357	-0.016688	0.008507
1099	5.508372	0.005000	0.498880	9.888480	0.896802	-0.740299	-0.628803	0.777481	0.005164	-0.016748	-0.003694
1100	5.513372	0.005000	0.461924	9.906393	0.841953	-0.740299	-0.628693	0.776869	0.001831	-0.015330	-0.009775
1101	5.518372	0.005000	0.470880	9.888480	0.876380	-0.740299	-0.628583	0.776256	0.014477	-0.020896	-0.001032
1102	5.523372	0.005000	0.427087	9.888480	0.902520	-0.740299	-0.628473	0.775644	0.011068	-0.011889	-0.002832
