# FOX Logger (IMU file)
# (c) INRIA 2011-2014
# File created from file sensbiotk output
#
# File format:
# id	t	dt	ax	ay	az	mx	my	mz	gx	gy	gz
#
# Units:
#	Time: s
#	Acceleration: m.s^-2
#	Magneto: gauss
#	Gyrometer: rad/s
#
1	0.030090	0.030090	9.310153	1.108993	1.303341	-0.719403	-0.350746	-0.275000	-0.015133	-0.015917	0.010431
2	0.035090	0.005000	9.394001	1.090854	1.177200	-0.718519	-0.350083	-0.275617	-0.006392	-0.007840	0.001844
3	0.040090	0.005000	9.260640	1.115071	1.137960	-0.717636	-0.349421	-0.276233	-0.012828	-0.016044	0.008860
4	0.045090	0.005000	9.217894	1.134454	1.255680	-0.716752	-0.348758	-0.276850	-0.006109	0.001978	0.010052
5	0.050090	0.005000	9.184364	1.215338	1.256782	-0.715869	-0.348095	-0.277467	-0.002568	-0.004359	-0.007913
6	0.055090	0.005000	9.222242	1.138802	1.294920	-0.714985	-0.347433	-0.278083	-0.007437	-0.014702	0.007994
7	0.060090	0.005000	9.227920	1.062740	1.366880	-0.714102	-0.346770	-0.278700	-0.011790	0.005942	0.007590
8	0.065090	0.005000	9.198951	1.137960	1.328563	-0.713218	-0.346107	-0.279317	-0.007931	-0.012228	0.004086
9	0.070090	0.005000	9.213791	1.264483	1.326551	-0.712334	-0.345445	-0.279933	-0.016697	0.001482	0.008337
10	0.075090	0.005000	9.202209	1.304087	1.147984	-0.711451	-0.344782	-0.280550	-0.015203	-0.011404	-0.003292
11	0.080090	0.005000	9.236704	1.177200	1.056144	-0.710567	-0.344119	-0.281167	-0.013778	-0.008221	0.008907
12	0.085090	0.005000	9.289393	1.202064	1.134071	-0.709684	-0.343456	-0.281783	-0.015942	0.008385	0.000630
13	0.090090	0.005000	9.210856	1.239085	1.261731	-0.708800	-0.342794	-0.282400	-0.019475	-0.009094	0.006467
14	0.095090	0.005000	9.258849	1.236956	1.175409	-0.707916	-0.342131	-0.283017	-0.015569	-0.001293	-0.000211
15	0.100090	0.005000	9.218370	1.095690	1.255680	-0.707732	-0.341791	-0.283513	-0.009375	-0.012413	-0.001871
16	0.105090	0.005000	9.331829	1.098720	1.239706	-0.708284	-0.341791	-0.283883	0.000283	-0.003903	0.010011
17	0.110090	0.005000	9.325371	1.084971	1.112469	-0.708836	-0.341791	-0.284253	0.001662	-0.012454	-0.005124
18	0.115090	0.005000	9.339120	1.137960	1.087380	-0.709388	-0.341791	-0.284623	0.001891	-0.007913	0.009240
19	0.120090	0.005000	9.279434	1.156754	1.098720	-0.709941	-0.341791	-0.284993	-0.006203	0.003726	0.012145
20	0.125090	0.005000	9.339120	1.066461	1.209459	-0.710493	-0.341791	-0.285363	-0.015570	-0.009241	0.007532
21	0.130090	0.005000	9.221400	1.054503	1.216440	-0.711045	-0.341791	-0.285733	-0.004491	-0.010350	0.008582
22	0.135090	0.005000	9.331314	1.137960	1.182404	-0.711597	-0.341791	-0.286103	-0.008025	-0.012933	0.011207
23	0.140090	0.005000	9.260211	1.137746	1.255894	-0.712149	-0.341791	-0.286473	-0.009785	-0.008473	0.013021
24	0.145090	0.005000	9.182160	1.098720	1.369074	-0.712702	-0.341791	-0.286843	-0.010894	0.000816	-0.000305
25	0.150090	0.005000	9.178026	1.142094	1.158629	-0.713254	-0.341791	-0.287213	-0.001252	-0.005461	0.009741
26	0.155090	0.005000	9.260640	1.092170	1.196789	-0.713806	-0.341791	-0.287583	0.004010	-0.001353	0.010258
27	0.160090	0.005000	9.212906	1.098720	1.272668	-0.714358	-0.341791	-0.287953	0.002634	-0.011241	0.005010
28	0.165090	0.005000	9.238838	1.092183	1.026777	-0.714910	-0.341791	-0.288323	-0.025355	-0.007551	0.002513
29	0.170090	0.005000	9.221400	1.137763	1.268629	-0.714710	-0.341791	-0.288093	-0.027768	0.001554	-0.010219
30	0.175090	0.005000	9.269382	1.201191	1.255680	-0.714489	-0.341791	-0.287846	-0.031289	-0.008154	0.012022
31	0.180090	0.005000	9.399939	1.155621	1.251762	-0.714268	-0.341791	-0.287600	-0.025757	-0.003154	0.000750
32	0.185090	0.005000	9.339120	1.117705	1.197032	-0.714048	-0.341791	-0.287353	-0.007561	-0.014343	0.005948
33	0.190090	0.005000	9.260640	1.155184	1.312144	-0.713827	-0.341791	-0.287107	-0.015882	-0.000752	0.005474
34	0.195090	0.005000	9.236497	1.074577	1.216440	-0.713606	-0.341791	-0.286860	-0.016542	-0.014474	0.004046
35	0.200090	0.005000	9.234271	1.098720	1.308418	-0.713385	-0.341791	-0.286614	-0.010258	-0.012891	0.006841
36	0.205090	0.005000	9.292011	1.101307	1.284463	-0.713164	-0.341791	-0.286367	-0.015582	-0.013353	0.005376
37	0.210090	0.005000	9.353128	1.177200	1.163192	-0.712944	-0.341791	-0.286121	-0.014966	-0.012173	0.003141
38	0.215090	0.005000	9.260640	1.059480	1.117039	-0.712723	-0.341791	-0.285874	-0.023348	-0.007363	-0.000681
39	0.220090	0.005000	9.303570	1.137960	1.212750	-0.712502	-0.341791	-0.285628	-0.023191	-0.009567	0.003878
40	0.225090	0.005000	9.376615	1.103956	1.175455	-0.712281	-0.341791	-0.285381	-0.029136	-0.010449	0.007643
41	0.230090	0.005000	9.416299	1.177850	1.137960	-0.712061	-0.341791	-0.285135	-0.024259	-0.020134	-0.003501
42	0.235090	0.005000	9.375757	1.216440	1.177200	-0.712141	-0.341942	-0.284832	-0.019771	-0.012732	0.002690
43	0.240090	0.005000	9.378360	1.147973	1.098720	-0.712582	-0.342273	-0.284462	-0.013594	-0.006945	-0.000685
44	0.245090	0.005000	9.235302	1.110157	1.124058	-0.713024	-0.342604	-0.284092	-0.017688	-0.019281	0.010052
45	0.250090	0.005000	9.232541	1.216440	1.276188	-0.713466	-0.342936	-0.283722	-0.015575	-0.009785	0.005197
46	0.255090	0.005000	9.249007	1.145251	1.228073	-0.713908	-0.343267	-0.283352	-0.015093	-0.008905	-0.009987
47	0.260090	0.005000	9.262554	1.202722	1.204636	-0.714350	-0.343598	-0.282982	-0.010513	-0.016249	0.009396
48	0.265090	0.005000	9.221400	1.154091	1.154091	-0.714791	-0.343930	-0.282612	-0.009891	-0.012190	-0.002125
49	0.270090	0.005000	9.182160	1.216440	1.195274	-0.715233	-0.344261	-0.282242	-0.010643	-0.012758	0.003078
50	0.275090	0.005000	9.081465	1.235195	1.214710	-0.715675	-0.344593	-0.281872	-0.015280	-0.008272	-0.004354
51	0.280090	0.005000	9.244030	1.205851	1.227029	-0.716117	-0.344924	-0.281502	-0.014947	-0.003444	-0.002792
52	0.285090	0.005000	9.235635	1.141424	1.344931	-0.716559	-0.345255	-0.281132	-0.019908	-0.005138	0.013642
53	0.290090	0.005000	9.260640	1.204452	1.306908	-0.717000	-0.345587	-0.280762	-0.018210	-0.011312	-0.003274
54	0.295090	0.005000	9.231323	1.157353	1.284997	-0.717442	-0.345918	-0.280392	-0.012737	-0.027712	0.010640
55	0.300090	0.005000	9.205070	1.169563	1.248043	-0.717884	-0.346249	-0.280022	-0.015079	-0.015578	-0.005095
56	0.305090	0.005000	9.289438	1.069922	1.260901	-0.717390	-0.346269	-0.280232	-0.009153	-0.012507	0.008912
57	0.310090	0.005000	9.375108	1.144465	1.288415	-0.716838	-0.346269	-0.280479	-0.024924	-0.005789	0.002083
58	0.315090	0.005000	9.299880	1.253935	1.217313	-0.716286	-0.346269	-0.280725	-0.031976	-0.010791	0.001381
59	0.320090	0.005000	9.338049	1.177200	1.217511	-0.715734	-0.346269	-0.280972	-0.020046	-0.020702	0.009216
60	0.325090	0.005000	9.339120	1.066431	1.212965	-0.715182	-0.346269	-0.281219	-0.022883	-0.019765	-0.005104
61	0.330090	0.005000	9.215576	1.165552	1.171376	-0.714629	-0.346269	-0.281465	-0.025400	-0.027144	0.005715
62	0.335090	0.005000	9.299880	1.200768	1.294920	-0.714077	-0.346269	-0.281712	-0.023903	-0.014063	0.004273
63	0.340090	0.005000	9.357875	1.226683	1.274435	-0.713525	-0.346269	-0.281959	-0.000838	-0.017971	0.008431
64	0.345090	0.005000	9.340829	1.216440	1.230660	-0.712973	-0.346269	-0.282205	-0.003506	-0.014219	0.004727
65	0.350090	0.005000	9.260640	1.108760	1.231040	-0.712420	-0.346269	-0.282452	-0.005755	-0.006173	0.000868
66	0.355090	0.005000	9.243630	1.098720	1.233450	-0.711868	-0.346269	-0.282699	-0.002494	-0.020189	0.011306
67	0.360090	0.005000	9.222247	1.118764	1.196396	-0.711316	-0.346269	-0.282945	0.005706	-0.000648	0.002837
68	0.365090	0.005000	9.257151	1.270066	1.177200	-0.710764	-0.346269	-0.283192	0.001006	-0.007893	-0.000342
69	0.370090	0.005000	9.236863	1.177200	1.137960	-0.710448	-0.346174	-0.283491	-0.000772	-0.013398	0.010656
70	0.375090	0.005000	9.221400	1.164998	1.139277	-0.710448	-0.345954	-0.283861	0.002502	-0.014709	-0.005997
71	0.380090	0.005000	9.243630	1.143854	1.194210	-0.710448	-0.345733	-0.284231	0.002790	-0.007254	0.005501
72	0.385090	0.005000	9.378360	1.020240	1.146668	-0.710448	-0.345512	-0.284601	0.003967	-0.000638	0.008748
73	0.390090	0.005000	9.371596	1.085191	1.242151	-0.710448	-0.345291	-0.284971	0.003907	-0.007575	0.009200
74	0.395090	0.005000	9.260640	1.098720	1.177200	-0.710448	-0.345070	-0.285341	-0.002926	-0.014485	0.004887
75	0.400090	0.005000	9.297505	1.142710	1.093970	-0.710448	-0.344849	-0.285711	-0.007007	-0.013058	-0.000043
76	0.405090	0.005000	9.260640	1.098720	1.098720	-0.710448	-0.344628	-0.286081	-0.004399	-0.013757	0.007396
77	0.410090	0.005000	9.150090	1.061870	1.137960	-0.710448	-0.344407	-0.286451	-0.002586	-0.011121	0.001328
78	0.415090	0.005000	9.221400	1.098720	0.998447	-0.710448	-0.344186	-0.286821	-0.009390	-0.007620	0.002559
79	0.420090	0.005000	9.214633	1.216440	1.209673	-0.710448	-0.343966	-0.287191	-0.021552	-0.001143	0.003942
80	0.425090	0.005000	9.281727	1.147036	1.216440	-0.710448	-0.343745	-0.287561	-0.012132	-0.008068	-0.000144
81	0.430090	0.005000	9.271766	1.109846	1.277932	-0.710448	-0.343524	-0.287931	-0.014496	-0.013283	0.004135
82	0.435090	0.005000	9.274174	1.085186	1.344969	-0.710448	-0.343303	-0.288301	-0.009372	-0.005448	0.004887
83	0.440090	0.005000	9.205637	1.130245	1.239917	-0.710852	-0.344699	-0.285851	-0.023507	-0.014952	0.014651
84	0.445090	0.005000	9.296421	1.098720	1.298379	-0.711294	-0.346245	-0.283137	-0.025544	-0.015361	-0.001088
85	0.450090	0.005000	9.299880	1.118779	1.218195	-0.711736	-0.347791	-0.280424	-0.015829	-0.011578	0.007893
86	0.455090	0.005000	9.299880	1.081717	1.182434	-0.712178	-0.349337	-0.277711	-0.014476	-0.005553	0.003005
87	0.460090	0.005000	9.275231	1.152551	1.201849	-0.712619	-0.350884	-0.274997	-0.013256	-0.009425	-0.000819
88	0.465090	0.005000	9.235650	1.230690	1.307415	-0.713061	-0.352430	-0.272284	-0.015828	-0.016514	-0.004414
89	0.470090	0.005000	9.182160	1.127721	1.197677	-0.713503	-0.353976	-0.269571	-0.011610	-0.018001	-0.003100
90	0.475090	0.005000	9.150744	1.161553	1.318513	-0.713945	-0.355522	-0.266857	-0.012005	-0.023508	0.007974
91	0.480090	0.005000	9.182160	1.104599	1.289041	-0.714386	-0.357069	-0.264144	-0.016104	-0.008534	-0.000545
92	0.485090	0.005000	9.221400	1.141434	1.184148	-0.714828	-0.358615	-0.261431	-0.005717	-0.027053	0.007635
93	0.490090	0.005000	9.219887	1.062505	1.178713	-0.715270	-0.360161	-0.258717	0.002027	-0.012068	0.009236
94	0.495090	0.005000	9.258865	1.099608	1.216440	-0.715712	-0.361707	-0.256004	-0.003355	-0.012888	-0.004005
95	0.500090	0.005000	9.218148	1.098720	1.029997	-0.716154	-0.363254	-0.253291	-0.004072	-0.013291	0.006563
96	0.505090	0.005000	9.187396	1.205968	1.177200	-0.716374	-0.363647	-0.252459	-0.005213	-0.020938	-0.010209
97	0.510090	0.005000	9.165876	1.106372	1.271964	-0.716263	-0.362321	-0.254433	-0.001555	-0.029144	0.009102
98	0.515090	0.005000	9.202037	1.128021	1.265619	-0.716153	-0.360996	-0.256406	-0.005834	-0.013546	0.004154
99	0.520090	0.005000	9.260640	1.161966	1.270914	-0.716042	-0.359671	-0.258379	-0.005450	-0.018329	0.004783
100	0.525090	0.005000	9.299880	1.098720	1.323734	-0.715932	-0.358345	-0.260353	-0.007168	-0.017772	0.004171
101	0.530090	0.005000	9.322769	1.144497	1.350511	-0.715821	-0.357020	-0.262326	-0.001553	-0.016564	-0.004064
102	0.535090	0.005000	9.238449	1.236917	1.277871	-0.715711	-0.355695	-0.264299	-0.001989	-0.023526	0.008893
103	0.540090	0.005000	9.242321	1.232157	1.352479	-0.715600	-0.354369	-0.266273	-0.018155	-0.024826	0.006304
104	0.545090	0.005000	9.253258	1.247133	1.263062	-0.715490	-0.353044	-0.268246	-0.034805	-0.021871	-0.000102
105	0.550090	0.005000	9.311695	1.202727	1.281207	-0.715379	-0.351718	-0.270219	-0.044965	-0.015104	0.007237
106	0.555090	0.005000	9.311513	1.216440	1.216440	-0.715269	-0.350393	-0.272193	-0.031421	-0.016112	-0.000802
107	0.560090	0.005000	9.348475	1.156669	1.276211	-0.715158	-0.349068	-0.274166	-0.022482	-0.023085	0.001899
108	0.565090	0.005000	9.339120	1.216440	1.184148	-0.715048	-0.347742	-0.276139	-0.014239	-0.009122	-0.001338
109	0.570090	0.005000	9.270533	1.206547	1.221387	-0.714937	-0.346417	-0.278113	-0.018978	-0.027744	0.009263
110	0.575090	0.005000	9.334007	1.216440	1.135404	-0.714827	-0.346563	-0.278552	-0.020932	-0.002344	0.004805
111	0.580090	0.005000	9.300064	1.177200	1.255864	-0.714717	-0.346895	-0.278799	-0.020031	-0.023919	0.002972
112	0.585090	0.005000	9.228026	1.214231	1.183826	-0.714606	-0.347226	-0.279046	-0.020015	-0.019530	0.000935
113	0.590090	0.005000	9.256462	1.216440	1.212262	-0.714496	-0.347557	-0.279292	-0.019193	-0.012243	-0.005484
114	0.595090	0.005000	9.116847	1.183783	1.366817	-0.714385	-0.347889	-0.279539	-0.009496	-0.026600	0.003610
115	0.600090	0.005000	9.173280	1.246800	1.146840	-0.714275	-0.348220	-0.279786	-0.010079	-0.013397	0.009330
116	0.605090	0.005000	9.249709	1.216440	1.166269	-0.714164	-0.348551	-0.280033	-0.009282	-0.009069	0.009515
117	0.610090	0.005000	9.287022	1.203582	1.124769	-0.714054	-0.348882	-0.280279	-0.005457	-0.017227	0.007520
118	0.615090	0.005000	9.245351	1.177200	1.107382	-0.713944	-0.349214	-0.280526	-0.012746	-0.020655	0.011622
119	0.620090	0.005000	9.264483	1.173357	1.181043	-0.713833	-0.349545	-0.280773	-0.000033	-0.018727	0.014096
120	0.625090	0.005000	9.241510	1.197310	1.157090	-0.713723	-0.349876	-0.281019	-0.008976	-0.002607	-0.001388
121	0.630090	0.005000	9.349649	1.154948	1.143224	-0.713612	-0.350208	-0.281266	0.000840	-0.021616	-0.001769
122	0.635090	0.005000	9.314654	1.035014	1.128269	-0.713502	-0.350539	-0.281513	-0.016544	-0.003382	0.013104
123	0.640090	0.005000	9.326754	1.111086	1.164834	-0.713309	-0.350456	-0.281852	-0.008430	-0.017739	0.007721
124	0.645090	0.005000	9.289578	1.059480	1.069782	-0.712977	-0.349683	-0.282345	-0.001161	-0.022604	0.017473
125	0.650090	0.005000	9.198174	1.216440	1.028247	-0.712646	-0.348910	-0.282839	-0.005692	-0.005164	0.005206
126	0.655090	0.005000	9.299880	1.182801	1.149163	-0.712315	-0.348137	-0.283332	-0.001055	-0.013134	0.010864
127	0.660090	0.005000	9.335505	1.220055	1.216440	-0.711983	-0.347364	-0.283825	-0.000942	0.000215	0.000714
128	0.665090	0.005000	9.303556	1.139185	1.217665	-0.711652	-0.346590	-0.284319	0.001455	-0.015498	0.003924
129	0.670090	0.005000	9.303371	1.062971	1.179527	-0.711320	-0.345817	-0.284812	-0.005654	-0.004376	0.006358
130	0.675090	0.005000	9.264165	1.170151	1.052431	-0.710989	-0.345044	-0.285305	-0.005634	0.001838	-0.002051
131	0.680090	0.005000	9.255128	1.221952	1.182712	-0.710658	-0.344271	-0.285798	0.000916	-0.014479	0.007388
132	0.685090	0.005000	9.245183	1.216440	1.004783	-0.710326	-0.343498	-0.286292	-0.007097	-0.007330	0.001271
133	0.690090	0.005000	9.142920	1.148171	1.196018	-0.709995	-0.342725	-0.286785	-0.010013	-0.015563	0.002267
134	0.695090	0.005000	9.194439	1.137960	1.280238	-0.709663	-0.341952	-0.287278	-0.002264	0.002675	0.006678
135	0.700090	0.005000	9.260640	1.123268	1.216440	-0.709332	-0.341179	-0.287772	-0.002683	-0.001668	0.004566
136	0.705090	0.005000	9.322223	1.199543	1.233337	-0.709001	-0.340406	-0.288265	-0.002285	0.000321	0.008775
137	0.710090	0.005000	9.260640	1.197394	1.255680	-0.708860	-0.340109	-0.287908	-0.009167	-0.001287	0.008287
138	0.715090	0.005000	9.260640	1.216440	1.234223	-0.708749	-0.339888	-0.287414	-0.003708	-0.011276	0.002893
139	0.720090	0.005000	9.276297	1.177200	1.224367	-0.708639	-0.339667	-0.286921	0.003489	-0.010256	0.018660
140	0.725090	0.005000	9.221400	1.150346	1.203013	-0.708529	-0.339446	-0.286428	0.000463	-0.012217	0.010542
141	0.730090	0.005000	9.249621	1.120758	1.194402	-0.708418	-0.339225	-0.285935	-0.000298	-0.004378	0.015428
142	0.735090	0.005000	9.230004	1.137960	1.159991	-0.708308	-0.339004	-0.285441	-0.001633	-0.001122	0.007627
143	0.740090	0.005000	9.227980	1.223020	1.078979	-0.708197	-0.338783	-0.284948	-0.005012	-0.003399	0.007485
144	0.745090	0.005000	9.221400	1.177200	1.020240	-0.708087	-0.338562	-0.284455	-0.005246	0.000739	0.012543
145	0.750090	0.005000	9.303584	1.139812	1.020240	-0.707977	-0.338341	-0.283961	0.008116	-0.006689	0.008377
146	0.755090	0.005000	9.221767	1.216348	1.098536	-0.707866	-0.338120	-0.283468	0.008299	-0.004985	0.008618
147	0.760090	0.005000	9.299880	1.179710	1.174690	-0.707756	-0.337899	-0.282975	0.010281	-0.012305	0.013045
148	0.765090	0.005000	9.329408	1.142816	1.241112	-0.707645	-0.337678	-0.282482	0.005803	-0.013252	0.014247
149	0.770090	0.005000	9.267499	1.137960	1.195863	-0.707535	-0.337457	-0.281988	0.001489	-0.011522	0.005663
150	0.775090	0.005000	9.230567	1.140532	1.117054	-0.707540	-0.337390	-0.281710	0.004380	-0.016198	0.013382
151	0.780090	0.005000	9.299880	1.133346	1.154116	-0.707761	-0.337611	-0.281833	0.003865	-0.001978	0.003284
152	0.785090	0.005000	9.378360	1.112346	1.098720	-0.707982	-0.337832	-0.281957	0.002604	0.000760	0.000383
153	0.790090	0.005000	9.331958	1.098720	1.082681	-0.708203	-0.338053	-0.282080	0.001280	-0.008452	0.003021
154	0.795090	0.005000	9.396588	1.234668	1.044035	-0.708424	-0.338274	-0.282203	-0.000202	-0.010306	0.005951
155	0.800090	0.005000	9.337574	1.199139	1.156807	-0.708645	-0.338495	-0.282326	-0.000532	-0.008552	0.000933
156	0.805090	0.005000	9.182160	1.088650	1.160763	-0.708865	-0.338716	-0.282450	0.000847	0.006031	0.001941
157	0.810090	0.005000	9.160982	1.123635	1.152285	-0.709086	-0.338937	-0.282573	0.009560	0.001563	0.000500
158	0.815090	0.005000	9.209320	1.098720	1.219441	-0.709307	-0.339158	-0.282696	0.002621	0.003306	0.006156
159	0.820090	0.005000	9.142920	0.990676	1.236328	-0.709528	-0.339379	-0.282820	-0.003285	-0.005878	-0.000141
160	0.825090	0.005000	9.189799	0.988639	1.231718	-0.709749	-0.339600	-0.282943	-0.007354	-0.006386	0.011604
161	0.830090	0.005000	9.265966	1.093394	1.312857	-0.709970	-0.339821	-0.283066	-0.012193	-0.001849	0.006652
162	0.835090	0.005000	9.257731	1.056571	1.258589	-0.710191	-0.340042	-0.283189	-0.013678	-0.005936	0.008050
163	0.840090	0.005000	9.338615	0.943275	1.449860	-0.710412	-0.340263	-0.283313	-0.018623	0.001109	0.004178
164	0.845090	0.005000	9.224278	1.097281	1.219318	-0.710725	-0.340299	-0.283745	-0.017921	0.003341	0.010733
165	0.850090	0.005000	9.366790	1.141817	1.330303	-0.711056	-0.340299	-0.284239	-0.022503	-0.000070	0.010030
166	0.855090	0.005000	9.239961	1.119399	1.334160	-0.711387	-0.340299	-0.284732	-0.020607	-0.005049	-0.001103
167	0.860090	0.005000	9.268846	1.154373	1.303126	-0.711719	-0.340299	-0.285225	-0.020503	-0.019333	0.008149
168	0.865090	0.005000	9.182160	1.223817	1.227061	-0.712050	-0.340299	-0.285719	-0.014500	-0.008980	0.000955
169	0.870090	0.005000	9.208527	1.255680	1.360527	-0.712381	-0.340299	-0.286212	-0.029018	-0.020506	0.008973
170	0.875090	0.005000	9.236373	1.207147	1.319187	-0.712713	-0.340299	-0.286705	-0.026148	-0.011359	0.005157
171	0.880090	0.005000	9.299880	1.155346	1.282003	-0.713044	-0.340299	-0.287199	-0.022363	-0.010467	0.000959
172	0.885090	0.005000	9.201604	1.236236	1.275124	-0.713375	-0.340299	-0.287692	-0.023174	-0.009949	0.006486
173	0.890090	0.005000	9.282590	1.243049	1.373400	-0.713707	-0.340299	-0.288186	-0.023861	-0.009431	0.002505
174	0.895090	0.005000	9.245544	1.122864	1.279824	-0.714038	-0.340299	-0.288679	-0.014621	-0.020414	0.002808
175	0.900090	0.005000	9.207534	1.165691	1.282233	-0.714369	-0.340299	-0.289172	-0.021046	-0.012760	0.002726
176	0.905090	0.005000	9.339120	1.098720	1.137960	-0.714701	-0.340299	-0.289666	-0.007693	-0.016347	0.005568
177	0.910090	0.005000	9.384285	1.076137	1.199783	-0.714783	-0.340263	-0.289801	-0.017146	-0.021643	0.000357
178	0.915090	0.005000	9.176237	1.183123	1.155728	-0.714341	-0.340153	-0.289185	-0.008593	-0.011912	-0.004946
179	0.920090	0.005000	9.146426	1.255680	1.327148	-0.713899	-0.340042	-0.288568	-0.006574	-0.021326	0.008732
180	0.925090	0.005000	9.069069	1.178743	1.214897	-0.713457	-0.339932	-0.287951	-0.014415	-0.014628	-0.002046
181	0.930090	0.005000	9.258956	1.178042	1.138802	-0.713015	-0.339821	-0.287335	-0.012142	-0.024042	0.004042
182	0.935090	0.005000	9.260640	1.282032	1.144404	-0.712574	-0.339711	-0.286718	-0.006522	-0.016459	0.007637
183	0.940090	0.005000	9.148123	1.221643	1.046257	-0.712132	-0.339600	-0.286101	-0.014828	-0.020495	0.006417
184	0.945090	0.005000	9.165747	1.272093	1.098720	-0.711690	-0.339490	-0.285485	-0.004640	-0.013597	0.003675
185	0.950090	0.005000	9.221400	1.314343	1.108628	-0.711248	-0.339380	-0.284868	-0.003703	-0.007920	0.000735
186	0.955090	0.005000	9.272608	1.189168	1.035544	-0.710806	-0.339269	-0.284251	-0.007819	-0.010426	0.003186
187	0.960090	0.005000	9.231887	1.113096	1.030727	-0.710365	-0.339159	-0.283635	-0.010829	-0.012420	0.000547
188	0.965090	0.005000	9.316475	1.059480	1.092669	-0.709923	-0.339048	-0.283018	-0.007774	-0.015886	0.002551
189	0.970090	0.005000	9.260640	1.156684	1.139751	-0.709481	-0.338938	-0.282401	-0.009990	-0.018211	0.004581
190	0.975090	0.005000	9.299880	1.137960	1.137960	-0.709039	-0.338827	-0.281785	-0.004872	-0.008922	0.002585
191	0.980090	0.005000	9.291197	1.216440	1.121986	-0.709223	-0.338806	-0.281767	0.000317	-0.017544	0.009327
192	0.985090	0.005000	9.209657	1.177200	1.163451	-0.709555	-0.338806	-0.281890	-0.020863	0.005308	-0.003215
193	0.990090	0.005000	9.204841	1.244340	1.216440	-0.709886	-0.338806	-0.282013	-0.007943	-0.009711	0.004639
194	0.995090	0.005000	9.152208	1.255680	1.255680	-0.710217	-0.338806	-0.282137	-0.019668	-0.004317	0.013226
195	1.000090	0.005000	9.149901	1.177200	1.234736	-0.710549	-0.338806	-0.282260	-0.018392	-0.007784	-0.005228
196	1.005090	0.005000	9.216824	1.221016	1.147112	-0.710880	-0.338806	-0.282383	-0.016148	-0.001158	0.010549
197	1.010090	0.005000	9.224032	1.253048	1.135328	-0.711211	-0.338806	-0.282506	-0.018739	-0.005974	0.010614
198	1.015090	0.005000	9.260640	1.176986	1.138603	-0.711543	-0.338806	-0.282630	-0.014735	-0.007739	0.016955
199	1.020090	0.005000	9.186486	1.286267	1.255680	-0.711874	-0.338806	-0.282753	-0.019149	0.003208	0.012661
200	1.025090	0.005000	9.103680	1.177200	1.251546	-0.712206	-0.338806	-0.282876	-0.016656	-0.006411	-0.002456
201	1.030090	0.005000	9.169060	1.196789	1.170650	-0.712537	-0.338806	-0.283000	-0.017414	-0.010445	0.009806
202	1.035090	0.005000	9.173311	1.116419	1.177200	-0.712868	-0.338806	-0.283123	-0.019965	-0.004357	-0.004120
203	1.040090	0.005000	9.086242	1.059480	1.188101	-0.713200	-0.338806	-0.283246	-0.024591	-0.010163	0.008825
204	1.045090	0.005000	9.181486	1.098720	1.216440	-0.713400	-0.339002	-0.283223	-0.033282	0.000207	0.007748
205	1.050090	0.005000	9.213231	1.059480	1.137960	-0.713290	-0.339665	-0.282853	-0.034936	-0.006619	0.004446
206	1.055090	0.005000	9.199821	1.137960	1.194861	-0.713179	-0.340328	-0.282483	-0.024004	-0.004823	0.014166
207	1.060090	0.005000	9.259737	1.080455	1.256583	-0.713069	-0.340990	-0.282113	-0.022062	0.001373	-0.005854
208	1.065090	0.005000	9.238418	1.171996	1.216440	-0.712958	-0.341653	-0.281743	-0.030927	-0.019333	0.006658
209	1.070090	0.005000	9.182160	1.123146	1.319346	-0.712848	-0.342316	-0.281373	-0.025452	-0.004453	0.006046
210	1.075090	0.005000	9.246202	1.098720	1.270118	-0.712737	-0.342978	-0.281003	-0.020118	0.000935	0.006277
211	1.080090	0.005000	9.299880	1.166743	1.237354	-0.712627	-0.343641	-0.280633	-0.023788	-0.005091	0.001054
212	1.085090	0.005000	9.268690	1.146010	1.208390	-0.712516	-0.344304	-0.280263	-0.010737	-0.000564	-0.002351
213	1.090090	0.005000	9.393457	1.210404	1.098720	-0.712406	-0.344966	-0.279893	-0.002820	-0.001712	-0.004744
214	1.095090	0.005000	9.221400	1.160099	1.251990	-0.712295	-0.345629	-0.279523	-0.014461	-0.007401	-0.003231
215	1.100090	0.005000	9.377074	1.136674	1.100006	-0.712185	-0.346292	-0.279153	-0.006486	-0.020464	0.010407
216	1.105090	0.005000	9.261957	1.175883	1.060797	-0.712074	-0.346954	-0.278783	-0.017804	-0.005222	0.004849
217	1.110090	0.005000	9.227552	1.216440	1.134884	-0.711964	-0.347617	-0.278413	-0.009285	-0.010997	0.002139
218	1.115090	0.005000	9.221400	1.114967	1.160953	-0.711940	-0.347502	-0.278526	-0.014732	-0.011102	0.010953
219	1.120090	0.005000	9.221400	1.154932	1.098720	-0.711940	-0.347171	-0.278773	-0.008691	-0.010210	-0.005720
220	1.125090	0.005000	9.319462	1.069309	1.137960	-0.711940	-0.346839	-0.279019	-0.016404	-0.021176	0.001794
221	1.130090	0.005000	9.351222	1.071582	1.098720	-0.711940	-0.346508	-0.279266	-0.026016	-0.009440	-0.001581
222	1.135090	0.005000	9.324643	1.201963	1.113197	-0.711940	-0.346177	-0.279512	-0.022892	-0.015563	0.008212
223	1.140090	0.005000	9.260640	1.171152	1.144008	-0.711940	-0.345846	-0.279759	-0.021380	-0.007699	0.000254
224	1.145090	0.005000	9.279648	1.178424	1.178424	-0.711940	-0.345515	-0.280006	-0.015572	-0.009734	-0.004728
225	1.150090	0.005000	9.260640	1.137960	1.162209	-0.711940	-0.345184	-0.280252	-0.016820	-0.006761	0.006843
226	1.155090	0.005000	9.260640	1.161323	1.145447	-0.711940	-0.344852	-0.280499	-0.015871	-0.002477	-0.007139
227	1.160090	0.005000	9.260640	1.125655	1.047175	-0.711940	-0.344521	-0.280746	-0.016791	-0.013901	0.008113
228	1.165090	0.005000	9.182160	1.137960	1.137960	-0.711940	-0.344190	-0.280992	-0.007364	-0.009437	0.007092
229	1.170090	0.005000	9.200379	1.228351	1.177200	-0.711940	-0.343859	-0.281239	-0.002608	-0.011907	0.000190
230	1.175090	0.005000	9.253937	1.105423	1.131257	-0.711940	-0.343528	-0.281485	-0.000383	-0.008941	0.006337
231	1.180090	0.005000	9.255935	1.103425	1.103425	-0.711969	-0.343313	-0.281732	-0.013948	0.001629	-0.004970
232	1.185090	0.005000	9.336778	1.130933	1.135618	-0.712080	-0.343424	-0.281979	-0.019245	-0.012500	0.008050
233	1.190090	0.005000	9.339059	1.098599	1.216258	-0.712190	-0.343534	-0.282225	-0.015609	-0.002730	0.003951
234	1.195090	0.005000	9.375925	1.248374	1.064351	-0.712301	-0.343644	-0.282472	-0.017477	-0.017225	0.000490
235	1.200090	0.005000	9.330301	1.146779	1.055071	-0.712411	-0.343755	-0.282719	-0.015983	-0.012050	0.001744
236	1.205090	0.005000	9.299880	1.202789	1.163549	-0.712522	-0.343865	-0.282965	-0.022676	-0.003793	-0.010546
237	1.210090	0.005000	9.290758	1.098720	1.147082	-0.712632	-0.343976	-0.283212	-0.013708	-0.003622	0.003989
238	1.215090	0.005000	9.389536	1.109896	1.121073	-0.712743	-0.344086	-0.283459	-0.026345	0.005479	-0.011117
239	1.220090	0.005000	9.261699	1.136901	1.137960	-0.712853	-0.344196	-0.283705	-0.020327	-0.011392	0.003543
240	1.225090	0.005000	9.284346	1.114254	1.208268	-0.712963	-0.344307	-0.283952	-0.024659	-0.003293	0.006675
241	1.230090	0.005000	9.239344	1.098720	1.195144	-0.713074	-0.344417	-0.284198	-0.015442	-0.013560	0.000413
242	1.235090	0.005000	9.201281	1.117841	1.196321	-0.713184	-0.344528	-0.284445	-0.020310	-0.015478	0.000604
243	1.240090	0.005000	9.216044	1.121018	1.289564	-0.713295	-0.344638	-0.284692	-0.016954	-0.004989	-0.003526
244	1.245090	0.005000	9.275169	1.142308	1.323979	-0.713405	-0.344748	-0.284938	-0.009630	-0.017230	0.011526
245	1.250090	0.005000	9.235771	1.204005	1.216440	-0.713433	-0.344859	-0.284722	-0.006995	0.000699	0.007577
246	1.255090	0.005000	9.171983	1.187377	1.286212	-0.713433	-0.344969	-0.284352	-0.009004	-0.013245	-0.001141
247	1.260090	0.005000	9.182160	1.240155	1.381591	-0.713433	-0.345080	-0.283982	-0.020136	-0.008940	0.001655
248	1.265090	0.005000	9.221400	1.177200	1.211081	-0.713433	-0.345190	-0.283612	-0.018799	-0.019373	-0.005652
249	1.270090	0.005000	9.299880	1.177200	1.245560	-0.713433	-0.345301	-0.283242	-0.012099	-0.013067	-0.001596
250	1.275090	0.005000	9.300878	1.213445	1.176202	-0.713433	-0.345411	-0.282872	-0.012870	-0.003977	-0.010656
251	1.280090	0.005000	9.301288	1.136552	1.175792	-0.713433	-0.345522	-0.282502	-0.006093	-0.021686	0.004377
252	1.285090	0.005000	9.296113	1.212673	1.244380	-0.713433	-0.345632	-0.282132	-0.012382	-0.004485	-0.004921
253	1.290090	0.005000	9.227157	1.177200	1.249923	-0.713433	-0.345743	-0.281762	-0.009840	-0.011732	-0.002440
254	1.295090	0.005000	9.151092	1.200095	1.208268	-0.713433	-0.345853	-0.281392	-0.017918	-0.012781	0.005674
255	1.300090	0.005000	9.250187	1.177200	1.315826	-0.713433	-0.345964	-0.281022	-0.019974	-0.000969	-0.013923
256	1.305090	0.005000	9.167967	1.228964	1.189724	-0.713433	-0.346074	-0.280652	-0.020492	-0.009122	0.001709
257	1.310090	0.005000	9.270006	1.152897	1.216440	-0.713433	-0.346185	-0.280282	-0.013050	-0.011692	-0.000487
258	1.315090	0.005000	9.233577	1.233579	1.076619	-0.713616	-0.346374	-0.279327	-0.014866	-0.022043	0.000970
259	1.320090	0.005000	9.260640	1.236389	1.236389	-0.714390	-0.346816	-0.276490	-0.017837	-0.016380	-0.005698
260	1.325090	0.005000	9.278179	1.233979	1.181363	-0.715163	-0.347257	-0.273654	-0.001614	-0.024047	-0.010713
261	1.330090	0.005000	9.253636	1.255680	1.114135	-0.715936	-0.347699	-0.270817	-0.014065	-0.018649	0.016048
262	1.335090	0.005000	9.247458	1.190382	1.177200	-0.716709	-0.348141	-0.267980	-0.027580	-0.013028	-0.003668
263	1.340090	0.005000	9.278323	1.234123	1.248775	-0.717482	-0.348583	-0.265144	-0.024734	-0.029765	0.005806
264	1.345090	0.005000	9.251912	1.098720	1.246952	-0.718255	-0.349025	-0.262307	-0.014080	-0.020102	0.003496
265	1.350090	0.005000	9.306308	1.098720	1.177200	-0.719029	-0.349466	-0.259470	-0.020769	-0.010370	-0.002948
266	1.355090	0.005000	9.248606	1.169177	1.149994	-0.719802	-0.349908	-0.256633	-0.019883	-0.011610	0.016829
267	1.360090	0.005000	9.105722	1.096678	1.169031	-0.720575	-0.350350	-0.253797	-0.019118	-0.013131	0.000597
268	1.365090	0.005000	9.181823	1.137286	1.098046	-0.721348	-0.350792	-0.250960	-0.014226	-0.028229	0.013135
269	1.370090	0.005000	9.257917	1.067649	1.177200	-0.722121	-0.351233	-0.248123	-0.013554	-0.008243	0.005335
270	1.375090	0.005000	9.221400	1.147357	1.177200	-0.722894	-0.351675	-0.245287	-0.005437	-0.010601	0.002965
271	1.380090	0.005000	9.285672	1.184304	1.045272	-0.723668	-0.352117	-0.242450	-0.017741	-0.012333	0.014181
272	1.385090	0.005000	9.309289	1.137960	1.039058	-0.723481	-0.352239	-0.243274	-0.003596	-0.014695	-0.013802
273	1.390090	0.005000	9.327657	1.149423	1.008777	-0.722929	-0.352239	-0.245494	-0.012857	-0.019121	-0.002074
274	1.395090	0.005000	9.131422	1.151831	1.124089	-0.722377	-0.352239	-0.247714	-0.013728	-0.011237	-0.002620
275	1.400090	0.005000	9.228449	1.239585	1.137960	-0.721824	-0.352239	-0.249934	-0.006441	-0.023089	0.009800
276	1.405090	0.005000	9.218615	1.119733	1.098720	-0.721272	-0.352239	-0.252155	-0.012724	-0.014684	0.005277
277	1.410090	0.005000	9.337084	1.119358	1.098720	-0.720720	-0.352239	-0.254375	-0.002680	-0.013261	0.009002
278	1.415090	0.005000	9.306173	1.075954	1.075954	-0.720168	-0.352239	-0.256595	-0.007921	-0.014277	0.007285
279	1.420090	0.005000	9.324866	1.098720	1.098720	-0.719615	-0.352239	-0.258815	-0.005801	-0.015425	-0.000002
280	1.425090	0.005000	9.315429	1.177200	1.114269	-0.719063	-0.352239	-0.261035	-0.003161	-0.013756	0.003642
281	1.430090	0.005000	9.329333	1.157625	1.059480	-0.718511	-0.352239	-0.263255	-0.015609	-0.001718	-0.000736
282	1.435090	0.005000	9.260640	1.169713	1.074453	-0.717958	-0.352239	-0.265475	-0.008004	-0.009068	0.001097
283	1.440090	0.005000	9.260640	1.226602	1.172119	-0.717406	-0.352239	-0.267695	-0.010748	-0.004579	0.012328
284	1.445090	0.005000	9.293678	1.222642	1.098720	-0.716854	-0.352239	-0.269915	-0.011348	-0.009646	0.006526
285	1.450090	0.005000	9.260640	1.254960	1.062358	-0.716348	-0.352239	-0.271875	-0.005993	-0.008533	0.027023
286	1.455090	0.005000	9.260640	1.216440	1.178864	-0.716017	-0.352239	-0.272861	-0.010741	0.000730	-0.000203
287	1.460090	0.005000	9.292623	1.073994	1.212811	-0.715686	-0.352239	-0.273847	-0.005495	-0.015149	0.010622
288	1.465090	0.005000	9.254595	1.125870	1.110810	-0.715354	-0.352239	-0.274834	-0.000115	0.003699	0.002816
289	1.470090	0.005000	9.182160	1.067830	1.098720	-0.715023	-0.352239	-0.275820	-0.003125	-0.003705	0.000421
290	1.475090	0.005000	9.169422	1.214098	1.177200	-0.714692	-0.352239	-0.276806	-0.006286	-0.002105	0.011863
291	1.480090	0.005000	9.260640	1.097909	1.033050	-0.714361	-0.352239	-0.277792	-0.017566	0.002320	0.003998
292	1.485090	0.005000	9.269807	1.128793	1.117054	-0.714030	-0.352239	-0.278778	-0.015619	-0.006616	0.001501
293	1.490090	0.005000	9.339120	1.137960	1.133032	-0.713698	-0.352239	-0.279765	-0.013422	0.001339	0.004091
294	1.495090	0.005000	9.260640	1.157867	1.098720	-0.713367	-0.352239	-0.280751	-0.007052	-0.002932	0.002187
295	1.500090	0.005000	9.299880	1.159471	1.055698	-0.713036	-0.352239	-0.281737	-0.010649	0.000529	0.012957
296	1.505090	0.005000	9.260640	1.137960	1.083400	-0.712705	-0.352239	-0.282723	-0.003552	0.006014	-0.001120
297	1.510090	0.005000	9.221400	1.163824	1.072856	-0.712373	-0.352239	-0.283710	-0.015693	-0.003212	0.008429
298	1.515090	0.005000	9.232362	1.148922	1.227402	-0.712042	-0.352239	-0.284696	-0.015213	0.004585	0.003038
299	1.520090	0.005000	9.182160	1.159380	1.168290	-0.711940	-0.352010	-0.284488	-0.014074	-0.001601	0.000354
300	1.525090	0.005000	9.188771	1.144571	1.137960	-0.711940	-0.351678	-0.283748	-0.012543	-0.001928	0.007921
301	1.530090	0.005000	9.256445	1.247290	1.137960	-0.711940	-0.351347	-0.283007	-0.006545	-0.005672	0.009542
302	1.535090	0.005000	9.191055	1.135736	1.214216	-0.711940	-0.351015	-0.282267	-0.003221	-0.004991	0.010454
303	1.540090	0.005000	9.300033	1.059633	1.099026	-0.711940	-0.350684	-0.281527	-0.016612	0.001584	0.004277
304	1.545090	0.005000	9.297783	1.173005	1.214343	-0.711940	-0.350352	-0.280786	-0.008689	-0.006941	0.011537
305	1.550090	0.005000	9.299880	1.137960	1.177200	-0.711940	-0.350021	-0.280046	-0.017578	0.011267	0.003221
306	1.555090	0.005000	9.325445	1.059480	1.320485	-0.711940	-0.349689	-0.279305	-0.019383	-0.001823	0.001489
307	1.560090	0.005000	9.260640	1.077905	1.195625	-0.711940	-0.349357	-0.278565	-0.019619	0.003232	0.017949
308	1.565090	0.005000	9.249372	1.205172	1.300355	-0.711940	-0.349026	-0.277825	-0.014069	0.002095	0.009132
309	1.570090	0.005000	9.248764	1.216440	1.216440	-0.711940	-0.348694	-0.277084	-0.009521	-0.002231	0.011606
310	1.575090	0.005000	9.237299	1.177200	1.137960	-0.711940	-0.348363	-0.276344	-0.006059	0.006733	0.001047
311	1.580090	0.005000	9.218231	1.155995	1.216440	-0.711940	-0.348031	-0.275604	-0.011995	-0.010209	0.015864
312	1.585090	0.005000	9.299880	1.175547	1.317019	-0.711920	-0.347679	-0.275114	-0.015126	0.004196	0.010045
313	1.590090	0.005000	9.243985	1.193855	1.300850	-0.711809	-0.347238	-0.275730	-0.011036	0.005305	0.001296
314	1.595090	0.005000	9.260640	1.069845	1.251607	-0.711699	-0.346796	-0.276347	-0.010843	-0.013125	0.008668
315	1.600090	0.005000	9.260640	1.071509	1.189229	-0.711588	-0.346354	-0.276964	-0.015952	-0.012148	0.001152
316	1.605090	0.005000	9.231369	1.089387	1.245711	-0.711478	-0.345912	-0.277580	-0.008995	-0.009880	0.003880
317	1.610090	0.005000	9.244411	1.137960	1.224110	-0.711368	-0.345470	-0.278197	-0.012979	0.001222	0.002823
318	1.615090	0.005000	9.271169	1.059480	1.148489	-0.711257	-0.345029	-0.278814	-0.005647	-0.012347	0.008407
319	1.620090	0.005000	9.267205	1.023523	1.249115	-0.711147	-0.344587	-0.279430	0.003008	-0.002620	0.011828
320	1.625090	0.005000	9.262447	1.061287	1.138863	-0.711036	-0.344145	-0.280047	-0.002130	-0.006021	0.002749
321	1.630090	0.005000	9.339120	1.100202	1.214958	-0.710926	-0.343703	-0.280664	-0.003348	-0.008015	0.005540
322	1.635090	0.005000	9.292993	1.134517	1.177200	-0.710816	-0.343262	-0.281280	-0.009310	-0.020090	0.001753
323	1.640090	0.005000	9.254792	1.216440	1.171352	-0.710705	-0.342820	-0.281897	-0.012571	-0.018979	0.009709
324	1.645090	0.005000	9.299880	1.137960	1.129791	-0.710595	-0.342378	-0.282514	-0.006481	-0.012050	0.013870
325	1.650090	0.005000	9.299880	1.098720	1.166992	-0.710484	-0.341936	-0.283130	-0.002216	-0.013094	0.005306
326	1.655090	0.005000	9.260640	1.137960	1.072096	-0.710448	-0.341717	-0.283250	-0.020116	-0.019040	0.004599
327	1.660090	0.005000	9.161920	1.152520	1.201880	-0.710448	-0.341606	-0.283127	-0.013521	-0.003233	0.002488
328	1.665090	0.005000	9.265935	1.177200	1.260975	-0.710448	-0.341496	-0.283004	-0.010230	-0.010922	0.002292
329	1.670090	0.005000	9.319031	1.137022	1.196351	-0.710448	-0.341386	-0.282880	-0.008777	-0.006661	0.003317
330	1.675090	0.005000	9.278553	1.159287	1.134546	-0.710448	-0.341275	-0.282757	-0.012523	-0.015625	-0.003183
331	1.680090	0.005000	9.299880	1.105990	1.216440	-0.710448	-0.341165	-0.282634	-0.006041	-0.015551	0.005850
332	1.685090	0.005000	9.274043	1.150395	1.137960	-0.710448	-0.341054	-0.282511	-0.014077	-0.006698	-0.004677
333	1.690090	0.005000	9.221400	1.109866	1.115668	-0.710448	-0.340944	-0.282387	-0.009048	-0.012543	0.008844
334	1.695090	0.005000	9.238877	1.085696	1.159723	-0.710448	-0.340834	-0.282264	-0.011409	-0.007317	-0.004684
335	1.700090	0.005000	9.247207	1.137960	1.183916	-0.710448	-0.340723	-0.282141	-0.008858	-0.010648	0.001064
336	1.705090	0.005000	9.295488	1.168415	1.246895	-0.710448	-0.340613	-0.282017	-0.011324	-0.013351	0.001838
337	1.710090	0.005000	9.223820	1.096300	1.137960	-0.710448	-0.340502	-0.281894	-0.016964	-0.005396	0.008415
338	1.715090	0.005000	9.182221	1.098751	1.255680	-0.710448	-0.340392	-0.281771	-0.005346	-0.009740	0.016656
339	1.720090	0.005000	9.149954	1.174855	1.255680	-0.710431	-0.340351	-0.281667	-0.002314	0.006322	-0.000574
340	1.725090	0.005000	9.264957	1.207805	1.098720	-0.710320	-0.340683	-0.281667	-0.002218	-0.013220	0.012689
341	1.730090	0.005000	9.260640	1.137960	1.137960	-0.710210	-0.341014	-0.281667	-0.012217	-0.003543	0.002384
342	1.735090	0.005000	9.221400	1.158920	1.107860	-0.710099	-0.341345	-0.281667	-0.006599	-0.013035	0.003665
343	1.740090	0.005000	9.237798	1.160802	1.132983	-0.709989	-0.341677	-0.281667	-0.006332	-0.012691	0.002185
344	1.745090	0.005000	9.209157	1.202942	1.006742	-0.709878	-0.342008	-0.281667	-0.014288	-0.007338	0.001870
345	1.750090	0.005000	9.252158	1.216440	1.122053	-0.709768	-0.342339	-0.281667	-0.006265	-0.006911	0.017864
346	1.755090	0.005000	9.278747	1.137960	1.113802	-0.709657	-0.342671	-0.281667	-0.002514	0.000197	0.000801
347	1.760090	0.005000	9.259354	1.060766	1.216440	-0.709547	-0.343002	-0.281667	-0.009895	-0.018728	0.008855
348	1.765090	0.005000	9.401034	1.076046	1.199874	-0.709436	-0.343333	-0.281667	-0.013552	-0.007185	0.004937
349	1.770090	0.005000	9.314036	1.112876	1.141189	-0.709326	-0.343664	-0.281667	-0.018335	0.000297	-0.008445
350	1.775090	0.005000	9.248422	1.177200	1.164982	-0.709215	-0.343996	-0.281667	-0.012442	-0.004743	0.008504
351	1.780090	0.005000	9.231210	1.157580	1.079100	-0.709105	-0.344327	-0.281667	-0.019390	0.003223	-0.001922
352	1.785090	0.005000	9.260640	1.232354	1.106495	-0.708994	-0.344658	-0.281667	-0.017177	-0.017904	0.000064
353	1.790090	0.005000	9.260640	1.211055	1.171815	-0.708884	-0.344705	-0.281508	-0.019396	-0.009789	-0.003712
354	1.795090	0.005000	9.182160	1.225577	1.141006	-0.708773	-0.344594	-0.281261	-0.015482	-0.013442	0.007652
355	1.800090	0.005000	9.260640	1.333532	1.214557	-0.708663	-0.344484	-0.281014	-0.013230	-0.006597	0.020841
356	1.805090	0.005000	9.298564	1.332844	1.174568	-0.708553	-0.344374	-0.280768	-0.007809	0.009318	0.005257
357	1.810090	0.005000	9.296204	1.220116	1.173524	-0.708442	-0.344263	-0.280521	-0.013648	0.006084	0.008865
358	1.815090	0.005000	9.182160	1.188530	1.182865	-0.708332	-0.344153	-0.280274	-0.016442	0.007313	0.001538
359	1.820090	0.005000	9.182160	1.208359	1.200279	-0.708221	-0.344042	-0.280028	-0.014644	0.004863	0.008910
360	1.825090	0.005000	9.114042	1.274196	1.166838	-0.708111	-0.343932	-0.279781	-0.010402	-0.005566	0.003676
361	1.830090	0.005000	9.260640	1.243248	1.098720	-0.708001	-0.343822	-0.279534	-0.015814	0.002200	-0.006402
362	1.835090	0.005000	9.299880	1.137960	1.162355	-0.707890	-0.343711	-0.279287	-0.005293	-0.005625	0.012566
363	1.840090	0.005000	9.299880	1.233488	1.233488	-0.707780	-0.343601	-0.279041	-0.006163	0.011421	0.001253
364	1.845090	0.005000	9.358319	1.177200	1.177200	-0.707669	-0.343490	-0.278794	0.000134	-0.011402	0.004245
365	1.850090	0.005000	9.339120	1.133995	1.167493	-0.707559	-0.343380	-0.278547	-0.002386	0.006602	0.002501
366	1.855090	0.005000	9.166655	1.098720	1.177200	-0.707492	-0.343226	-0.278349	-0.006532	0.002371	0.001257
367	1.860090	0.005000	9.234684	1.059480	1.151244	-0.707713	-0.342784	-0.278473	0.002609	0.000586	0.000024
368	1.865090	0.005000	9.182160	1.041980	1.092091	-0.707934	-0.342342	-0.278596	-0.006280	-0.001393	-0.004887
369	1.870090	0.005000	9.137533	1.090257	1.154886	-0.708155	-0.341900	-0.278719	-0.010502	-0.009657	0.008329
370	1.875090	0.005000	9.227920	1.105240	1.190239	-0.708376	-0.341458	-0.278843	-0.010518	-0.000598	0.007928
371	1.880090	0.005000	9.339120	1.137960	1.330057	-0.708597	-0.341016	-0.278966	-0.004722	-0.004982	0.014638
372	1.885090	0.005000	9.304146	1.181466	1.251414	-0.708817	-0.340575	-0.279089	-0.013039	-0.003452	0.016537
373	1.890090	0.005000	9.339365	1.216685	1.216195	-0.709038	-0.340133	-0.279213	-0.017629	-0.004593	0.001919
374	1.895090	0.005000	9.299880	1.174568	1.103984	-0.709259	-0.339691	-0.279336	-0.012793	-0.003289	0.013404
375	1.900090	0.005000	9.304487	1.059480	1.211833	-0.709480	-0.339249	-0.279460	-0.009857	0.007222	-0.002137
376	1.905090	0.005000	9.235424	1.077684	1.209428	-0.709701	-0.338807	-0.279583	-0.001884	-0.004327	0.003205
377	1.910090	0.005000	9.341087	1.059480	1.345445	-0.709922	-0.338365	-0.279706	-0.009405	0.003891	0.012510
378	1.915090	0.005000	9.339120	1.003742	1.317662	-0.710143	-0.337923	-0.279830	-0.017922	-0.006010	0.003975
379	1.920090	0.005000	9.260640	1.124181	1.255680	-0.710364	-0.337482	-0.279953	-0.020373	-0.006596	0.013192
380	1.925090	0.005000	9.237389	1.052219	1.287659	-0.710516	-0.337518	-0.280076	-0.013484	-0.008858	0.005987
381	1.930090	0.005000	9.260640	1.038367	1.291935	-0.710627	-0.337849	-0.280200	-0.020301	-0.011220	0.007645
382	1.935090	0.005000	9.221400	1.116298	1.158261	-0.710737	-0.338181	-0.280323	-0.017123	-0.019885	0.004347
383	1.940090	0.005000	9.283122	1.177200	1.081962	-0.710848	-0.338512	-0.280446	-0.009627	-0.014722	-0.002015
384	1.945090	0.005000	9.250091	1.088171	1.230786	-0.710958	-0.338844	-0.280570	-0.009419	-0.012358	0.001853
385	1.950090	0.005000	9.299880	1.137960	1.137960	-0.711068	-0.339175	-0.280693	-0.017924	-0.018188	-0.002384
386	1.955090	0.005000	9.309139	1.088726	1.177200	-0.711179	-0.339506	-0.280816	-0.012972	-0.017186	0.008347
387	1.960090	0.005000	9.159424	1.208861	1.153117	-0.711289	-0.339838	-0.280940	-0.020874	-0.007812	-0.008423
388	1.965090	0.005000	9.221400	1.171633	1.222007	-0.711400	-0.340169	-0.281063	-0.020684	-0.013673	0.002031
389	1.970090	0.005000	9.257411	1.065938	1.177200	-0.711510	-0.340500	-0.281187	-0.017168	-0.006049	-0.004648
390	1.975090	0.005000	9.260640	1.177200	1.021863	-0.711620	-0.340832	-0.281310	-0.011270	-0.015069	0.003670
391	1.980090	0.005000	9.260640	1.100985	1.098720	-0.711731	-0.341163	-0.281433	-0.011949	-0.015751	0.007472
392	1.985090	0.005000	9.264177	1.134423	1.141497	-0.711841	-0.341495	-0.281557	-0.015092	-0.008905	0.000290
393	1.990090	0.005000	9.305764	1.143844	1.204671	-0.711940	-0.341779	-0.281667	-0.013036	-0.014822	0.008223
394	1.995090	0.005000	9.299880	1.137960	1.130075	-0.711940	-0.341669	-0.281667	-0.012764	-0.005268	0.000660
395	2.000090	0.005000	9.328820	1.216440	1.206140	-0.711940	-0.341558	-0.281667	-0.009781	-0.021417	0.000543
396	2.005090	0.005000	9.273196	1.255680	1.255680	-0.711940	-0.341448	-0.281667	-0.007574	-0.013247	0.006861
397	2.010090	0.005000	9.147636	1.152612	1.216440	-0.711940	-0.341338	-0.281667	-0.013232	-0.019181	-0.006978
398	2.015090	0.005000	9.322056	1.160136	1.137960	-0.711940	-0.341227	-0.281667	-0.009425	-0.018676	0.000669
399	2.020090	0.005000	9.240642	1.137960	1.098720	-0.711940	-0.341117	-0.281667	-0.013094	-0.010436	-0.014296
400	2.025090	0.005000	9.242819	1.098720	1.177200	-0.711940	-0.341006	-0.281667	-0.010312	-0.016826	0.001572
401	2.030090	0.005000	9.308297	1.098720	1.161789	-0.711940	-0.340896	-0.281667	-0.013136	-0.004249	-0.000298
402	2.035090	0.005000	9.168848	1.137960	1.072096	-0.711940	-0.340785	-0.281667	-0.019104	-0.018974	-0.004296
403	2.040090	0.005000	9.221400	1.255680	1.020240	-0.711940	-0.340675	-0.281667	-0.014716	-0.013212	0.005237
404	2.045090	0.005000	9.168861	1.203141	1.129313	-0.711940	-0.340564	-0.281667	-0.021359	-0.007176	-0.005207
405	2.050090	0.005000	9.182160	1.334160	1.144586	-0.711940	-0.340454	-0.281667	-0.012870	-0.018589	0.007483
406	2.055090	0.005000	9.116541	1.321299	1.111581	-0.711940	-0.340343	-0.281667	-0.020089	-0.010706	0.006019
407	2.060090	0.005000	9.184042	1.220205	1.251915	-0.712072	-0.340431	-0.281298	-0.005362	-0.005487	0.007476
408	2.065090	0.005000	9.143979	1.217499	1.061068	-0.712293	-0.340652	-0.280681	-0.008751	-0.009989	0.011576
409	2.070090	0.005000	9.255710	1.253215	1.106115	-0.712514	-0.340873	-0.280064	-0.025777	-0.002138	0.003706
410	2.075090	0.005000	9.290229	1.137960	1.137960	-0.712735	-0.341094	-0.279448	-0.023993	-0.008697	0.010926
411	2.080090	0.005000	9.378360	1.281269	1.170374	-0.712956	-0.341315	-0.278831	-0.016832	-0.001454	0.005316
412	2.085090	0.005000	9.299880	1.186432	1.165656	-0.713177	-0.341536	-0.278214	-0.006191	-0.014206	0.008954
413	2.090090	0.005000	9.327608	1.232656	1.098720	-0.713398	-0.341757	-0.277598	-0.012828	0.000249	0.007999
414	2.095090	0.005000	9.223820	1.255680	1.137960	-0.713618	-0.341977	-0.276981	-0.012904	0.000600	0.000699
415	2.100090	0.005000	9.158919	1.216440	1.177200	-0.713839	-0.342198	-0.276364	-0.001221	-0.001604	0.007941
416	2.105090	0.005000	9.161118	1.156158	1.137960	-0.714060	-0.342419	-0.275747	-0.016179	0.003340	-0.003650
417	2.110090	0.005000	9.103680	1.137960	1.139866	-0.714281	-0.342640	-0.275131	-0.013526	-0.001402	0.012594
418	2.115090	0.005000	9.175868	1.187381	1.121486	-0.714502	-0.342861	-0.274514	-0.012961	0.003054	0.005732
419	2.120090	0.005000	9.207335	1.152025	1.129803	-0.714723	-0.343082	-0.273897	-0.008510	0.001005	0.010993
420	2.125090	0.005000	9.170179	1.110701	1.216440	-0.714953	-0.343322	-0.273186	-0.018481	-0.005794	0.014021
421	2.130090	0.005000	9.201987	1.127840	1.157373	-0.715285	-0.343763	-0.271459	-0.008568	-0.007540	0.001632
422	2.135090	0.005000	9.267940	1.098720	1.241080	-0.715616	-0.344205	-0.269733	-0.012455	-0.014049	0.009197
423	2.140090	0.005000	9.299880	1.070069	1.137960	-0.715947	-0.344647	-0.268006	-0.008798	-0.003393	0.001545
424	2.145090	0.005000	9.218446	1.098720	1.065387	-0.716279	-0.345089	-0.266279	-0.001139	-0.005917	0.018039
425	2.150090	0.005000	9.259568	1.177200	1.099792	-0.716610	-0.345531	-0.264552	-0.011924	-0.001086	0.017074
426	2.155090	0.005000	9.295656	1.177200	1.177200	-0.716942	-0.345972	-0.262826	-0.009492	-0.002381	0.001310
427	2.160090	0.005000	9.264452	1.137960	1.287296	-0.717273	-0.346414	-0.261099	-0.006904	-0.008305	0.009772
428	2.165090	0.005000	9.365902	1.078166	1.183429	-0.717604	-0.346856	-0.259372	-0.002133	-0.000797	-0.000430
429	2.170090	0.005000	9.268812	1.121615	1.286748	-0.717936	-0.347298	-0.257646	0.002928	-0.005038	0.008518
430	2.175090	0.005000	9.228902	1.137960	1.205861	-0.718267	-0.347740	-0.255919	-0.007258	0.001785	0.005072
431	2.180090	0.005000	9.300591	1.072323	1.072323	-0.718598	-0.348181	-0.254192	0.000966	-0.008534	0.006385
432	2.185090	0.005000	9.230766	1.108086	1.180995	-0.718930	-0.348623	-0.252466	-0.000742	-0.011163	0.005884
433	2.190090	0.005000	9.299880	1.260227	1.238334	-0.719261	-0.349065	-0.250739	-0.004235	-0.007247	0.007567
434	2.195090	0.005000	9.241158	1.295195	1.157718	-0.719087	-0.349001	-0.251199	0.007317	-0.012761	0.009068
435	2.200090	0.005000	9.317419	1.155499	1.094557	-0.718535	-0.348560	-0.253294	-0.001062	0.004351	-0.003645
436	2.205090	0.005000	9.260640	1.104859	1.122834	-0.717983	-0.348118	-0.255390	-0.002570	-0.016335	0.013354
437	2.210090	0.005000	9.247922	1.099807	1.125242	-0.717431	-0.347677	-0.257486	-0.004520	-0.001286	0.008595
438	2.215090	0.005000	9.171382	1.105625	1.148738	-0.716879	-0.347235	-0.259582	-0.001550	-0.007941	-0.001905
439	2.220090	0.005000	9.207274	1.067851	1.233183	-0.716327	-0.346793	-0.261677	-0.003531	-0.016427	0.005087
440	2.225090	0.005000	9.227356	1.080853	1.137960	-0.715775	-0.346352	-0.263773	-0.012480	-0.004180	0.004566
441	2.230090	0.005000	9.335157	1.032130	1.200587	-0.715223	-0.345910	-0.265869	-0.002559	-0.011932	0.001189
442	2.235090	0.005000	9.411172	1.062694	1.057873	-0.714671	-0.345469	-0.267965	-0.009656	-0.007117	0.003847
443	2.240090	0.005000	9.183763	1.099522	1.020240	-0.714119	-0.345027	-0.270060	-0.011785	-0.016856	0.005463
444	2.245090	0.005000	9.187670	1.135205	1.137960	-0.713567	-0.344586	-0.272156	-0.013832	-0.007605	0.005693
445	2.250090	0.005000	9.187320	1.161721	1.109039	-0.713015	-0.344144	-0.274252	-0.021081	-0.009594	-0.002515
446	2.255090	0.005000	9.246432	1.080792	1.209336	-0.712463	-0.343702	-0.276348	-0.013633	-0.014588	0.006329
447	2.260090	0.005000	9.309399	1.118922	1.246161	-0.712010	-0.343365	-0.278151	-0.015527	-0.008559	0.004807
448	2.265090	0.005000	9.366576	1.173312	1.165416	-0.713336	-0.344912	-0.274696	-0.011565	-0.010384	0.005214
449	2.270090	0.005000	9.339120	1.227938	1.126462	-0.714662	-0.346459	-0.271241	-0.020749	0.003862	0.013403
450	2.275090	0.005000	9.293207	1.271964	1.209767	-0.715988	-0.348006	-0.267786	-0.019376	0.001226	-0.000536
451	2.280090	0.005000	9.284438	1.114162	1.051124	-0.717314	-0.349553	-0.264331	-0.017355	-0.011019	0.005213
452	2.285090	0.005000	9.258604	1.117322	1.055407	-0.718640	-0.351100	-0.260877	-0.016519	0.000684	-0.004497
453	2.290090	0.005000	9.227693	1.167019	1.043006	-0.719966	-0.352647	-0.257422	-0.003032	-0.015874	0.001716
454	2.295090	0.005000	9.289148	1.123706	1.048748	-0.721292	-0.354194	-0.253967	-0.003173	-0.002333	0.008976
455	2.300090	0.005000	9.225104	1.243835	1.149805	-0.722618	-0.355741	-0.250512	-0.006258	-0.010602	0.009197
456	2.305090	0.005000	9.250853	1.294920	1.147747	-0.723944	-0.357288	-0.247057	0.001835	-0.006299	0.012540
457	2.310090	0.005000	9.292393	1.279947	1.035213	-0.725270	-0.358835	-0.243602	-0.008096	-0.002094	-0.001281
458	2.315090	0.005000	9.260640	1.167038	1.161957	-0.726596	-0.360382	-0.240147	-0.005899	-0.013346	0.009290
459	2.320090	0.005000	9.182160	1.104922	1.062581	-0.727922	-0.361929	-0.236692	-0.011075	-0.007450	0.006008
460	2.325090	0.005000	9.259929	1.138671	1.140093	-0.729248	-0.363476	-0.233237	-0.012184	-0.018792	0.011234
461	2.330090	0.005000	9.221400	1.139644	1.143012	-0.729007	-0.363335	-0.233686	-0.023396	-0.006875	0.012445
462	2.335090	0.005000	9.264694	1.173146	1.173146	-0.727461	-0.361789	-0.237386	-0.012074	-0.009982	0.005038
463	2.340090	0.005000	9.333075	1.077615	1.204350	-0.725915	-0.360243	-0.241086	-0.016549	-0.018277	0.009116
464	2.345090	0.005000	9.330669	1.028691	1.207989	-0.724368	-0.358697	-0.244786	-0.013700	-0.001338	0.003170
465	2.350090	0.005000	9.349860	1.201978	1.216440	-0.722822	-0.357150	-0.248486	-0.005061	-0.016475	0.012485
466	2.355090	0.005000	9.338309	1.124339	1.177200	-0.721276	-0.355604	-0.252186	-0.019068	-0.004625	0.007854
467	2.360090	0.005000	9.236436	1.104589	1.177200	-0.719729	-0.354058	-0.255886	-0.027161	-0.004384	0.004753
468	2.365090	0.005000	9.216983	1.103137	1.094303	-0.718183	-0.352511	-0.259586	-0.046484	0.002873	0.007086
469	2.370090	0.005000	9.162486	1.157741	1.196766	-0.716637	-0.350965	-0.263286	-0.064881	-0.002556	0.001322
470	2.375090	0.005000	9.199423	1.142674	1.216440	-0.715090	-0.349419	-0.266987	-0.074408	0.002736	0.011706
471	2.380090	0.005000	9.269595	1.122818	1.288733	-0.713544	-0.347873	-0.270687	-0.063464	0.004997	0.001488
472	2.385090	0.005000	9.299880	1.229346	1.203534	-0.711998	-0.346326	-0.274387	-0.055394	-0.005096	0.006000
473	2.390090	0.005000	9.210569	1.194778	1.127129	-0.710451	-0.344780	-0.278087	-0.041301	-0.001773	-0.002731
474	2.395090	0.005000	9.199270	1.112295	1.155070	-0.708959	-0.343284	-0.281651	-0.026302	-0.001320	-0.007192
475	2.400090	0.005000	9.299880	1.059480	1.171061	-0.709069	-0.343284	-0.281158	-0.016200	-0.009763	0.006724
476	2.405090	0.005000	9.299880	1.028530	1.164765	-0.709180	-0.343284	-0.280664	-0.018949	-0.002138	-0.001926
477	2.410090	0.005000	9.258849	1.209278	0.984581	-0.709290	-0.343284	-0.280171	-0.009247	-0.008148	0.011641
478	2.415090	0.005000	9.337259	0.943621	1.098100	-0.709401	-0.343284	-0.279678	-0.020753	-0.005176	0.006764
479	2.420090	0.005000	9.415029	0.978429	1.056909	-0.709511	-0.343284	-0.279184	-0.013064	-0.014242	0.000620
480	2.425090	0.005000	9.260640	1.078817	1.093744	-0.709621	-0.343284	-0.278691	-0.008237	-0.008958	0.007601
481	2.430090	0.005000	9.299880	0.963679	1.169894	-0.709732	-0.343284	-0.278197	-0.014102	-0.005427	-0.006234
482	2.435090	0.005000	9.269964	1.031508	1.098720	-0.709842	-0.343284	-0.277704	-0.006760	-0.015002	0.012192
483	2.440090	0.005000	9.260640	1.043717	1.031978	-0.709953	-0.343284	-0.277211	-0.014756	-0.010610	-0.000157
484	2.445090	0.005000	9.378360	1.031525	1.110005	-0.710063	-0.343284	-0.276717	-0.008391	-0.013686	0.006057
485	2.450090	0.005000	9.433691	1.075571	1.184258	-0.710174	-0.343284	-0.276224	-0.012714	-0.008678	0.005050
486	2.455090	0.005000	9.318383	1.137960	1.151994	-0.710284	-0.343284	-0.275731	-0.016512	0.003387	-0.009487
487	2.460090	0.005000	9.221400	1.156536	1.119384	-0.710395	-0.343284	-0.275237	-0.021277	-0.014065	-0.003975
488	2.465090	0.005000	9.182160	1.082338	1.125008	-0.710448	-0.343227	-0.275320	-0.028559	-0.002017	-0.011285
489	2.470090	0.005000	9.324855	1.191465	1.241415	-0.710448	-0.343116	-0.275936	-0.025177	-0.016362	0.002173
490	2.475090	0.005000	9.381513	1.228469	1.165171	-0.710448	-0.343006	-0.276553	-0.033146	-0.005229	-0.003449
491	2.480090	0.005000	9.221400	1.236450	1.118730	-0.710448	-0.342895	-0.277169	-0.020451	-0.011367	-0.011692
492	2.485090	0.005000	9.167003	1.169621	1.035397	-0.710448	-0.342785	-0.277786	-0.013605	-0.011411	0.008901
493	2.490090	0.005000	9.221400	1.216440	1.020240	-0.710448	-0.342674	-0.278402	-0.006334	-0.008294	-0.008359
494	2.495090	0.005000	9.260640	1.292072	1.135112	-0.710448	-0.342564	-0.279018	-0.005520	-0.020921	-0.000909
495	2.500090	0.005000	9.223185	1.218225	1.176307	-0.710448	-0.342454	-0.279635	-0.006720	-0.005938	-0.007423
496	2.505090	0.005000	9.299880	1.332660	1.175700	-0.710448	-0.342343	-0.280251	0.003122	-0.017434	-0.000196
497	2.510090	0.005000	9.296023	1.157247	1.098720	-0.710448	-0.342233	-0.280867	0.002532	-0.017705	0.002029
498	2.515090	0.005000	9.266488	1.243983	1.204743	-0.710448	-0.342122	-0.281484	0.009947	-0.019889	-0.003690
499	2.520090	0.005000	9.190424	1.185464	1.185464	-0.710448	-0.342012	-0.282100	0.011395	-0.015423	0.002727
500	2.525090	0.005000	9.182160	1.116873	1.198287	-0.710448	-0.341901	-0.282717	0.009170	-0.006152	-0.002308
501	2.530090	0.005000	9.234016	1.070702	1.046864	-0.710448	-0.341791	-0.283333	0.009531	-0.024372	0.007627
502	2.535090	0.005000	9.212217	1.128777	1.113749	-0.710338	-0.341901	-0.283333	0.008996	-0.018326	0.016242
503	2.540090	0.005000	9.221400	1.203990	1.155190	-0.710227	-0.342012	-0.283333	0.019677	-0.027061	0.007262
504	2.545090	0.005000	9.241257	1.255680	1.196108	-0.710117	-0.342122	-0.283333	0.010524	-0.027617	0.009451
505	2.550090	0.005000	9.182160	1.238233	1.142306	-0.710006	-0.342233	-0.283333	0.006736	-0.014417	-0.000838
506	2.555090	0.005000	9.214668	1.255680	1.192524	-0.709896	-0.342343	-0.283333	0.003025	-0.019410	0.011279
507	2.560090	0.005000	9.182160	1.151020	1.281830	-0.709785	-0.342454	-0.283333	0.001734	-0.007355	0.007045
508	2.565090	0.005000	9.199375	1.126947	1.126947	-0.709675	-0.342564	-0.283333	-0.004442	-0.019843	0.008691
509	2.570090	0.005000	9.190899	1.028979	1.207701	-0.709564	-0.342675	-0.283333	-0.010140	-0.017750	0.002242
510	2.575090	0.005000	9.293557	1.137960	1.189846	-0.709454	-0.342785	-0.283333	-0.012115	-0.007260	0.003550
511	2.580090	0.005000	9.299880	1.172858	1.199074	-0.709343	-0.342896	-0.283333	-0.008968	-0.013144	0.019096
512	2.585090	0.005000	9.260640	1.255680	1.022215	-0.709233	-0.343006	-0.283333	-0.009423	-0.005259	0.009616
513	2.590090	0.005000	9.260640	1.255680	1.175929	-0.709122	-0.343117	-0.283333	-0.003663	-0.022903	0.009776
514	2.595090	0.005000	9.297066	1.180014	1.098720	-0.709012	-0.343227	-0.283333	0.001787	-0.013610	0.010129
515	2.600090	0.005000	9.373570	1.108300	1.142750	-0.709116	-0.343176	-0.283393	-0.014768	-0.015114	0.003163
516	2.605090	0.005000	9.371164	0.981000	1.113112	-0.709448	-0.342956	-0.283516	0.001047	-0.017976	0.012682
517	2.610090	0.005000	9.359360	1.128460	1.020240	-0.709779	-0.342735	-0.283640	-0.006175	-0.006765	0.003686
518	2.615090	0.005000	9.288325	1.087165	1.031795	-0.710110	-0.342514	-0.283763	0.001114	-0.013523	0.014261
519	2.620090	0.005000	9.274603	1.062129	1.098720	-0.710442	-0.342293	-0.283886	-0.013605	-0.001373	0.008059
520	2.625090	0.005000	9.237586	0.957946	1.029558	-0.710773	-0.342072	-0.284010	-0.013070	-0.005608	0.006279
521	2.630090	0.005000	9.239719	1.020240	1.119641	-0.711105	-0.341851	-0.284133	-0.013660	-0.010229	0.006050
522	2.635090	0.005000	9.260640	1.077990	1.154250	-0.711436	-0.341630	-0.284257	-0.013255	0.002127	-0.001655
523	2.640090	0.005000	9.182160	1.059480	1.232540	-0.711767	-0.341409	-0.284380	-0.011848	-0.004304	0.011493
524	2.645090	0.005000	9.260640	1.109975	1.216440	-0.712099	-0.341188	-0.284503	-0.014811	0.004849	0.000626
525	2.650090	0.005000	9.260640	1.086977	1.173189	-0.712430	-0.340968	-0.284627	-0.030065	-0.018414	0.004255
526	2.655090	0.005000	9.251301	1.009018	1.149182	-0.712761	-0.340747	-0.284750	-0.008794	-0.006051	-0.003192
527	2.660090	0.005000	9.267946	1.098720	1.074093	-0.713093	-0.340526	-0.284873	-0.020432	-0.010453	-0.007872
528	2.665090	0.005000	9.378360	0.985931	1.069343	-0.713424	-0.340305	-0.284997	-0.010756	-0.005002	-0.004431
529	2.670090	0.005000	9.409884	1.059480	1.101292	-0.713218	-0.340406	-0.284640	-0.014599	-0.001082	-0.003500
530	2.675090	0.005000	9.260640	1.021480	1.253199	-0.712997	-0.340517	-0.284270	-0.023061	-0.009434	0.004595
531	2.680090	0.005000	9.223176	0.986328	1.098720	-0.712776	-0.340627	-0.283900	-0.029025	-0.003592	-0.001380
532	2.685090	0.005000	9.304025	1.016095	1.168910	-0.712556	-0.340738	-0.283530	-0.031907	-0.010481	-0.000866
533	2.690090	0.005000	9.339120	1.170680	1.222960	-0.712335	-0.340848	-0.283161	-0.022238	-0.016513	0.000739
534	2.695090	0.005000	9.199246	1.160114	1.339228	-0.712114	-0.340958	-0.282791	-0.025250	-0.015073	-0.006925
535	2.700090	0.005000	9.193118	1.188158	1.199116	-0.711893	-0.341069	-0.282421	-0.021312	-0.019576	-0.003248
536	2.705090	0.005000	9.299502	1.229646	1.150788	-0.711672	-0.341179	-0.282051	-0.019721	0.000238	-0.010505
537	2.710090	0.005000	9.206090	1.240370	1.129340	-0.711452	-0.341289	-0.281681	-0.012056	-0.018887	-0.003324
538	2.715090	0.005000	9.264435	1.280993	1.120238	-0.711231	-0.341400	-0.281311	-0.009363	-0.008716	0.002779
539	2.720090	0.005000	9.280306	1.314586	1.098812	-0.711010	-0.341510	-0.280942	-0.010941	-0.017046	-0.005483
540	2.725090	0.005000	9.216485	1.172285	1.155123	-0.710789	-0.341620	-0.280572	-0.001417	-0.016789	-0.002152
541	2.730090	0.005000	9.329983	1.240628	1.177200	-0.710569	-0.341731	-0.280202	-0.001085	-0.006422	-0.005939
542	2.735090	0.005000	9.235011	1.229255	1.098720	-0.710548	-0.341841	-0.280056	-0.000261	-0.028100	0.002785
543	2.740090	0.005000	9.239826	1.294920	1.001814	-0.710769	-0.341952	-0.280179	0.000420	-0.016835	0.004275
544	2.745090	0.005000	9.221400	1.286555	0.972635	-0.710990	-0.342062	-0.280303	0.010707	-0.008473	0.002853
545	2.750090	0.005000	9.233495	1.267775	1.026288	-0.711211	-0.342173	-0.280426	0.003612	-0.005377	0.007522
546	2.755090	0.005000	9.244424	1.255680	1.146068	-0.711432	-0.342283	-0.280549	0.010861	-0.005991	-0.003737
547	2.760090	0.005000	9.031916	1.214761	1.214761	-0.711653	-0.342394	-0.280673	0.010434	-0.009121	0.010698
548	2.765090	0.005000	9.143639	1.254241	1.061638	-0.711874	-0.342504	-0.280796	0.013309	-0.001252	0.002955
549	2.770090	0.005000	9.293708	1.177200	1.056394	-0.712095	-0.342615	-0.280920	0.012557	-0.013406	0.010238
550	2.775090	0.005000	9.304948	1.240477	0.991135	-0.712315	-0.342725	-0.281043	0.008158	-0.002106	0.017443
551	2.780090	0.005000	9.228884	1.255680	1.044512	-0.712536	-0.342836	-0.281166	0.011004	-0.004589	-0.003555
552	2.785090	0.005000	9.280184	1.157504	1.049708	-0.712757	-0.342946	-0.281290	0.004681	-0.006582	0.011769
553	2.790090	0.005000	9.248805	1.165365	0.989099	-0.712978	-0.343057	-0.281413	-0.004792	0.013774	0.004329
554	2.795090	0.005000	9.289136	1.059480	1.109464	-0.713199	-0.343167	-0.281536	-0.013209	-0.002356	0.013408
555	2.800090	0.005000	9.204942	1.098720	1.036698	-0.713420	-0.343277	-0.281660	-0.016810	0.003206	0.010049
556	2.805090	0.005000	9.239995	1.059480	1.100771	-0.713121	-0.343908	-0.281319	-0.010543	-0.009911	0.012363
557	2.810090	0.005000	9.221400	1.121744	1.237195	-0.712790	-0.344570	-0.280949	-0.021063	-0.000577	0.005508
558	2.815090	0.005000	9.260640	0.909569	1.154055	-0.712458	-0.345233	-0.280579	-0.019528	0.003341	0.001013
559	2.820090	0.005000	9.249162	0.944163	1.124079	-0.712127	-0.345896	-0.280209	-0.027376	-0.008179	0.007455
560	2.825090	0.005000	9.283575	1.064318	1.216440	-0.711796	-0.346558	-0.279839	-0.029051	0.002228	0.002298
561	2.830090	0.005000	9.270163	1.069003	1.225963	-0.711464	-0.347221	-0.279469	-0.033349	-0.001976	0.001350
562	2.835090	0.005000	9.417600	1.137960	1.209324	-0.711133	-0.347884	-0.279099	-0.032678	0.004890	0.006143
563	2.840090	0.005000	9.221400	1.078268	1.187426	-0.710801	-0.348546	-0.278729	-0.031020	-0.011520	-0.000731
564	2.845090	0.005000	9.257884	1.020240	1.177200	-0.710470	-0.349209	-0.278359	-0.027274	-0.012422	-0.000519
565	2.850090	0.005000	9.300936	1.020240	1.216088	-0.710139	-0.349872	-0.277989	-0.034480	0.006819	-0.003023
566	2.855090	0.005000	9.343204	1.020240	1.102804	-0.709807	-0.350535	-0.277619	-0.021754	-0.001330	0.003031
567	2.860090	0.005000	9.370341	0.941760	1.173190	-0.709476	-0.351197	-0.277249	-0.025910	-0.007992	-0.000083
568	2.865090	0.005000	9.384775	0.928930	1.222855	-0.709145	-0.351860	-0.276879	-0.010780	-0.001228	-0.000023
569	2.870090	0.005000	9.387088	1.020240	1.198983	-0.709239	-0.352003	-0.276825	-0.016799	-0.025240	-0.001326
570	2.875090	0.005000	9.292929	0.998714	1.194914	-0.709902	-0.351450	-0.277196	-0.013484	-0.014199	-0.007010
571	2.880090	0.005000	9.260349	0.994177	1.282034	-0.710565	-0.350897	-0.277566	-0.012499	-0.015339	0.002464
572	2.885090	0.005000	9.347188	1.067548	1.114306	-0.711228	-0.350345	-0.277936	-0.023617	-0.014456	-0.003760
573	2.890090	0.005000	9.274769	1.198650	1.155750	-0.711891	-0.349792	-0.278306	-0.022043	-0.026439	-0.001270
574	2.895090	0.005000	9.279939	1.021526	1.138603	-0.712554	-0.349240	-0.278676	-0.019018	-0.016327	-0.003575
575	2.900090	0.005000	9.299880	1.054014	1.132494	-0.713217	-0.348687	-0.279046	-0.020219	-0.021519	-0.010663
576	2.905090	0.005000	9.275583	1.152903	1.231383	-0.713880	-0.348135	-0.279417	-0.011559	-0.021087	0.008709
577	2.910090	0.005000	9.259002	1.257318	1.073652	-0.714543	-0.347582	-0.279787	-0.018669	-0.006795	-0.010310
578	2.915090	0.005000	9.299880	1.158200	1.108840	-0.715206	-0.347030	-0.280157	-0.016094	-0.024774	-0.005047
579	2.920090	0.005000	9.330944	1.294920	1.082369	-0.715869	-0.346477	-0.280527	-0.009911	-0.021626	-0.007496
580	2.925090	0.005000	9.176390	1.328390	0.919829	-0.716532	-0.345925	-0.280897	-0.012921	-0.013829	-0.008373
581	2.930090	0.005000	9.221400	1.173418	1.063262	-0.717195	-0.345372	-0.281268	-0.009437	-0.021768	-0.000762
582	2.935090	0.005000	9.260640	1.296329	1.095903	-0.717857	-0.344820	-0.281638	-0.019397	-0.010053	-0.007244
583	2.940090	0.005000	9.298897	1.257647	1.020240	-0.718724	-0.345691	-0.279736	-0.003882	-0.013651	0.003252
584	2.945090	0.005000	9.266519	1.258620	1.062420	-0.719607	-0.346685	-0.277640	-0.003884	-0.005029	-0.002973
585	2.950090	0.005000	9.278762	1.260959	0.918358	-0.720491	-0.347679	-0.275543	-0.000555	-0.011976	0.004940
586	2.955090	0.005000	9.182160	1.191775	0.981000	-0.721375	-0.348674	-0.273446	-0.002366	-0.008927	0.011504
587	2.960090	0.005000	9.172457	1.206737	1.010537	-0.722258	-0.349668	-0.271349	-0.008936	-0.003756	0.007434
588	2.965090	0.005000	9.275949	1.216440	0.914486	-0.723142	-0.350662	-0.269252	-0.017677	-0.002384	0.011340
589	2.970090	0.005000	9.367229	1.373400	0.916575	-0.724026	-0.351656	-0.267156	-0.018613	0.012729	0.003946
590	2.975090	0.005000	9.277107	1.239213	1.003773	-0.724909	-0.352650	-0.265059	-0.010498	-0.010176	0.007946
591	2.980090	0.005000	9.140984	1.139896	0.999652	-0.725793	-0.353644	-0.262962	-0.019730	0.004191	0.010670
592	2.985090	0.005000	9.218996	1.156378	1.017836	-0.726677	-0.354638	-0.260865	-0.014897	-0.002211	0.008925
593	2.990090	0.005000	9.150144	1.334160	1.082712	-0.727560	-0.355632	-0.258769	-0.013942	-0.004077	0.022399
594	2.995090	0.005000	9.092244	1.373400	1.149396	-0.728444	-0.356626	-0.256672	-0.022811	0.002222	0.012426
595	3.000090	0.005000	9.147207	1.380764	1.087069	-0.729328	-0.357620	-0.254575	-0.024832	-0.005376	0.023284
596	3.005090	0.005000	9.152511	1.373400	1.157141	-0.729266	-0.357804	-0.254188	-0.010879	0.010936	0.013956
597	3.010090	0.005000	9.277980	1.334160	1.012940	-0.727830	-0.356810	-0.256284	-0.006955	0.001291	0.018975
598	3.015090	0.005000	9.187044	1.304688	1.025124	-0.726394	-0.355816	-0.258381	-0.012690	0.017355	0.020019
599	3.020090	0.005000	9.221400	1.367493	1.083951	-0.724958	-0.354822	-0.260478	-0.005560	0.014830	0.014788
600	3.025090	0.005000	9.298808	1.293312	1.058944	-0.723522	-0.353828	-0.262575	-0.001129	0.009803	0.026565
601	3.030090	0.005000	9.259232	1.252864	1.020240	-0.722086	-0.352833	-0.264671	0.000776	0.009571	0.018174
602	3.035090	0.005000	9.189784	1.291108	1.059480	-0.720651	-0.351839	-0.266768	0.017671	0.006631	0.018095
603	3.040090	0.005000	9.316093	1.255680	1.104477	-0.719215	-0.350845	-0.268865	0.016263	0.017933	0.015614
604	3.045090	0.005000	9.276985	1.200095	1.115065	-0.717779	-0.349851	-0.270962	0.018589	0.009629	0.020447
605	3.050090	0.005000	9.174279	1.148413	1.177200	-0.716343	-0.348857	-0.273059	0.007947	0.005933	0.032054
606	3.055090	0.005000	9.207207	1.086196	1.125436	-0.714907	-0.347863	-0.275155	0.001959	0.009185	0.021647
607	3.060090	0.005000	9.191526	1.083783	1.137960	-0.713471	-0.346869	-0.277252	0.010092	0.003908	0.026832
608	3.065090	0.005000	9.182160	1.125783	1.233579	-0.712035	-0.345875	-0.279349	-0.001580	0.009332	0.016735
609	3.070090	0.005000	9.242666	1.236389	1.333502	-0.710600	-0.344881	-0.281446	0.000321	0.007554	0.017346
610	3.075090	0.005000	9.321581	1.155499	1.312459	-0.710250	-0.344776	-0.281777	0.003855	0.013934	0.035940
611	3.080090	0.005000	9.260640	1.083305	1.303331	-0.710030	-0.344776	-0.281901	0.005114	0.000131	0.015811
612	3.085090	0.005000	9.273822	1.137960	1.294920	-0.709809	-0.344776	-0.282024	0.003910	0.008939	0.016654
613	3.090090	0.005000	9.299880	1.009121	1.188319	-0.709588	-0.344776	-0.282147	-0.012606	0.008247	0.008263
614	3.095090	0.005000	9.242972	0.959428	1.303754	-0.709367	-0.344776	-0.282270	0.001720	-0.007799	0.017644
615	3.100090	0.005000	9.240683	0.935332	1.314877	-0.709146	-0.344776	-0.282394	-0.009195	0.007769	0.022764
616	3.105090	0.005000	9.269505	0.976568	1.255680	-0.708925	-0.344776	-0.282517	-0.014052	-0.003304	0.013293
617	3.110090	0.005000	9.299880	1.057413	1.299054	-0.708704	-0.344776	-0.282640	-0.007207	-0.011617	0.023765
618	3.115090	0.005000	9.378360	1.020119	1.373158	-0.708483	-0.344776	-0.282764	-0.013937	-0.011487	0.002539
619	3.120090	0.005000	9.304442	0.981000	1.257961	-0.708262	-0.344776	-0.282887	0.001741	-0.017978	0.007561
620	3.125090	0.005000	9.290592	0.911808	1.364112	-0.708041	-0.344776	-0.283010	-0.009552	-0.005512	0.005498
621	3.130090	0.005000	9.293238	0.941760	1.327518	-0.707821	-0.344776	-0.283133	-0.000331	-0.012357	0.011962
622	3.135090	0.005000	9.378360	0.893472	1.234537	-0.707600	-0.344776	-0.283257	-0.008079	-0.011904	0.005372
623	3.140090	0.005000	9.271633	0.813047	1.323167	-0.707631	-0.344860	-0.283286	-0.008487	-0.011327	0.001566
624	3.145090	0.005000	9.287453	0.863280	1.308326	-0.708073	-0.345081	-0.283163	-0.010125	-0.021119	0.006416
625	3.150090	0.005000	9.237026	0.926134	1.208453	-0.708515	-0.345302	-0.283039	-0.019212	-0.019368	-0.005665
626	3.155090	0.005000	9.317640	0.945480	1.320121	-0.708957	-0.345523	-0.282916	-0.017734	-0.026549	-0.002124
627	3.160090	0.005000	9.377273	0.982087	1.391389	-0.709399	-0.345744	-0.282793	-0.019022	-0.027794	-0.007536
628	3.165090	0.005000	9.299880	0.947145	1.300305	-0.709840	-0.345965	-0.282670	-0.015141	-0.019434	-0.018807
629	3.170090	0.005000	9.299880	1.005517	1.201717	-0.710282	-0.346186	-0.282546	-0.011536	-0.030790	-0.002402
630	3.175090	0.005000	9.326811	1.061792	1.231061	-0.710724	-0.346406	-0.282423	-0.025855	-0.025467	-0.007715
631	3.180090	0.005000	9.328879	1.059480	1.137960	-0.711166	-0.346627	-0.282300	-0.024425	-0.029312	-0.005110
632	3.185090	0.005000	9.291922	1.185158	1.090762	-0.711608	-0.346848	-0.282176	-0.015267	-0.025824	-0.007018
633	3.190090	0.005000	9.310965	1.171658	1.137960	-0.712049	-0.347069	-0.282053	-0.008006	-0.031380	-0.014471
634	3.195090	0.005000	9.385470	1.098720	1.173645	-0.712491	-0.347290	-0.281930	-0.012660	-0.022986	-0.013096
635	3.200090	0.005000	9.416406	1.174813	1.140347	-0.712933	-0.347511	-0.281807	-0.008589	-0.015473	-0.017130
636	3.205090	0.005000	9.378360	1.060690	1.216440	-0.713375	-0.347732	-0.281683	-0.013011	-0.024682	-0.001149
637	3.210090	0.005000	9.378360	1.026576	1.183536	-0.713049	-0.347186	-0.281667	-0.012409	-0.020255	-0.012698
638	3.215090	0.005000	9.378360	1.014667	1.053907	-0.712607	-0.346523	-0.281667	-0.009613	-0.039551	-0.008898
639	3.220090	0.005000	9.268157	0.956795	1.113755	-0.712165	-0.345860	-0.281667	-0.015083	-0.032384	0.001527
640	3.225090	0.005000	9.319255	1.000375	1.088788	-0.711723	-0.345197	-0.281667	-0.015795	-0.032229	-0.022633
641	3.230090	0.005000	9.260640	1.137960	1.162345	-0.711281	-0.344534	-0.281667	-0.013350	-0.029834	-0.004238
642	3.235090	0.005000	9.249958	1.166518	1.162921	-0.710839	-0.343871	-0.281667	-0.018984	-0.028064	-0.011111
643	3.240090	0.005000	9.182160	1.199752	1.177200	-0.710397	-0.343208	-0.281667	-0.026409	-0.027520	-0.005592
644	3.245090	0.005000	9.281001	1.217922	1.098720	-0.709955	-0.342545	-0.281667	-0.021959	-0.022233	-0.010626
645	3.250090	0.005000	9.239597	1.273877	1.080523	-0.709513	-0.341882	-0.281667	-0.017180	-0.023513	-0.007225
646	3.255090	0.005000	9.315945	1.271745	0.989955	-0.709071	-0.341219	-0.281667	-0.017166	-0.020630	-0.011988
647	3.260090	0.005000	9.336839	1.359560	1.124120	-0.708629	-0.340556	-0.281667	-0.014904	-0.021574	-0.015437
648	3.265090	0.005000	9.170728	1.350536	1.036616	-0.708187	-0.339893	-0.281667	-0.005850	-0.030031	-0.002820
649	3.270090	0.005000	9.172781	1.274438	1.009137	-0.707745	-0.339230	-0.281667	-0.008697	-0.014345	-0.008312
650	3.275090	0.005000	9.117827	1.255680	1.112867	-0.707583	-0.338886	-0.281845	-0.012374	-0.028209	-0.011599
651	3.280090	0.005000	9.153055	1.250612	1.049345	-0.707914	-0.339107	-0.282338	-0.024511	-0.022036	0.010719
652	3.285090	0.005000	9.218676	1.297644	1.087823	-0.708245	-0.339328	-0.282832	-0.014065	-0.019843	0.003977
653	3.290090	0.005000	9.181854	1.333854	1.060092	-0.708577	-0.339548	-0.283325	0.002835	-0.015336	0.006458
654	3.295090	0.005000	9.105318	1.370125	1.100358	-0.708908	-0.339769	-0.283818	-0.004131	-0.003351	0.002622
655	3.300090	0.005000	9.170034	1.236649	0.985042	-0.709239	-0.339990	-0.284312	-0.007009	-0.019443	0.012933
656	3.305090	0.005000	9.182160	1.249696	1.053496	-0.709570	-0.340211	-0.284805	-0.015480	-0.009987	0.002856
657	3.310090	0.005000	9.182160	1.247290	1.067870	-0.709902	-0.340432	-0.285298	-0.020803	-0.017136	0.004221
658	3.315090	0.005000	9.221400	1.255680	1.020240	-0.710233	-0.340653	-0.285791	-0.020749	-0.019528	0.006679
659	3.320090	0.005000	9.168417	1.137960	1.045737	-0.710564	-0.340874	-0.286285	-0.021289	-0.011639	0.006129
660	3.325090	0.005000	9.293649	1.240523	1.210209	-0.710896	-0.341095	-0.286778	-0.019170	-0.004555	0.014836
661	3.330090	0.005000	9.317246	1.233806	1.233806	-0.711227	-0.341316	-0.287271	-0.012780	-0.003054	0.002209
662	3.335090	0.005000	9.201459	1.177200	1.157473	-0.711558	-0.341536	-0.287765	0.003682	-0.006644	0.018694
663	3.340090	0.005000	9.351827	1.155276	1.076796	-0.711890	-0.341757	-0.288258	-0.010812	0.012061	0.012706
664	3.345090	0.005000	9.339120	1.131086	1.059480	-0.712034	-0.341978	-0.287810	-0.013292	0.003187	0.017498
665	3.350090	0.005000	9.299880	1.072443	1.046165	-0.712144	-0.342199	-0.287194	-0.020947	-0.002682	0.018830
666	3.355090	0.005000	9.271532	1.081263	1.031132	-0.712255	-0.342420	-0.286577	-0.017928	0.011049	0.005259
667	3.360090	0.005000	9.269244	1.050876	1.003031	-0.712365	-0.342641	-0.285960	-0.011749	-0.005576	0.010588
668	3.365090	0.005000	9.227598	0.954156	1.065678	-0.712476	-0.342862	-0.285344	-0.014196	0.000263	0.006005
669	3.370090	0.005000	9.339120	1.059480	1.020240	-0.712586	-0.343083	-0.284727	-0.011221	0.005672	0.006336
670	3.375090	0.005000	9.303584	1.137960	1.022092	-0.712697	-0.343304	-0.284110	-0.004173	0.004685	0.011732
671	3.380090	0.005000	9.339680	1.099280	1.175521	-0.712807	-0.343525	-0.283494	-0.003975	0.014628	0.002147
672	3.385090	0.005000	9.334100	1.020240	1.098720	-0.712918	-0.343745	-0.282877	-0.008837	0.010419	0.012747
673	3.390090	0.005000	9.226315	1.074147	1.000658	-0.713028	-0.343966	-0.282260	-0.008656	0.023745	0.004827
674	3.395090	0.005000	9.253394	1.084228	1.059480	-0.713139	-0.344187	-0.281644	-0.010385	0.003504	0.000865
675	3.400090	0.005000	9.260640	1.107994	1.197891	-0.713249	-0.344408	-0.281027	-0.009680	0.009791	0.001699
676	3.405090	0.005000	9.260640	1.055285	1.188882	-0.713359	-0.344629	-0.280410	-0.016940	0.011716	-0.010314
677	3.410090	0.005000	9.245376	0.994626	1.177200	-0.713396	-0.344665	-0.280041	-0.009468	0.001544	0.012749
678	3.415090	0.005000	9.182160	1.129084	1.246804	-0.713286	-0.344334	-0.280165	-0.007471	0.009655	-0.003899
679	3.420090	0.005000	9.239628	1.119732	1.255680	-0.713175	-0.344003	-0.280288	-0.018162	0.005029	0.006374
680	3.425090	0.005000	9.222946	1.141053	1.236833	-0.713065	-0.343671	-0.280411	-0.023750	0.008827	0.002769
681	3.430090	0.005000	9.215033	1.092353	1.121523	-0.712954	-0.343340	-0.280535	-0.026192	0.009342	-0.008787
682	3.435090	0.005000	9.275133	1.152453	1.216440	-0.712844	-0.343009	-0.280658	-0.026322	0.006334	-0.004308
683	3.440090	0.005000	9.275721	1.165120	1.307000	-0.712733	-0.342677	-0.280781	-0.027892	-0.003687	-0.006119
684	3.445090	0.005000	9.162979	1.196381	1.245651	-0.712623	-0.342346	-0.280905	-0.021102	-0.015348	0.002595
685	3.450090	0.005000	9.307612	1.177200	1.287188	-0.712512	-0.342015	-0.281028	-0.027695	0.000806	-0.010226
686	3.455090	0.005000	9.328468	1.216440	1.300246	-0.712402	-0.341683	-0.281152	-0.033427	-0.003424	-0.010000
687	3.460090	0.005000	9.224743	1.252337	1.226469	-0.712291	-0.341352	-0.281275	-0.034792	-0.005786	0.002166
688	3.465090	0.005000	9.261605	1.255680	1.292026	-0.712181	-0.341021	-0.281398	-0.035096	-0.007359	-0.009468
689	3.470090	0.005000	9.186426	1.142226	1.177200	-0.712070	-0.340689	-0.281522	-0.021311	-0.015128	0.005145
690	3.475090	0.005000	9.293113	1.170433	1.183967	-0.711960	-0.340358	-0.281645	-0.032672	-0.011926	0.003364
691	3.480090	0.005000	9.266440	1.222240	1.222240	-0.711759	-0.340027	-0.281262	-0.019191	-0.018860	0.005116
692	3.485090	0.005000	9.268904	1.247936	1.224184	-0.711538	-0.339695	-0.280768	-0.023561	-0.017445	0.002910
693	3.490090	0.005000	9.260640	1.177200	1.149473	-0.711317	-0.339364	-0.280275	-0.000156	-0.015323	-0.003352
694	3.495090	0.005000	9.246239	1.123559	1.270081	-0.711096	-0.339033	-0.279782	-0.006360	-0.021452	-0.001898
695	3.500090	0.005000	9.235908	1.187423	1.152468	-0.710875	-0.338701	-0.279288	0.009859	-0.018321	-0.010132
696	3.505090	0.005000	9.316798	1.306433	1.238762	-0.710654	-0.338370	-0.278795	0.011660	-0.023903	0.003254
697	3.510090	0.005000	9.320014	1.216440	1.157066	-0.710433	-0.338039	-0.278302	0.014584	-0.020974	0.003287
698	3.515090	0.005000	9.263932	1.216440	1.137960	-0.710212	-0.337707	-0.277808	0.013170	-0.022803	0.003159
699	3.520090	0.005000	9.260640	1.146071	1.059480	-0.709991	-0.337376	-0.277315	0.013790	-0.028717	0.002933
700	3.525090	0.005000	9.247177	1.085257	1.072943	-0.709771	-0.337044	-0.276821	0.008747	-0.015006	0.000525
701	3.530090	0.005000	9.137301	1.098720	1.109927	-0.709550	-0.336713	-0.276328	0.009584	-0.020512	0.015718
702	3.535090	0.005000	9.281576	1.098720	1.107872	-0.709329	-0.336382	-0.275835	0.006061	-0.011012	-0.005449
703	3.540090	0.005000	9.299880	1.216440	1.112433	-0.709108	-0.336050	-0.275341	0.009030	-0.020870	0.009214
704	3.545090	0.005000	9.299880	1.151280	1.246800	-0.708955	-0.335821	-0.275152	0.000099	-0.023791	0.008965
705	3.550090	0.005000	9.375894	1.213974	1.213974	-0.708955	-0.335821	-0.275645	-0.000562	-0.028171	0.004718
706	3.555090	0.005000	9.338845	1.137868	1.255405	-0.708955	-0.335821	-0.276139	-0.004805	-0.027630	0.002607
707	3.560090	0.005000	9.258787	1.136107	1.137960	-0.708955	-0.335821	-0.276632	-0.015095	-0.014340	-0.003440
708	3.565090	0.005000	9.334850	1.181470	1.133690	-0.708955	-0.335821	-0.277126	-0.021991	-0.024917	0.003056
709	3.570090	0.005000	9.273831	1.105315	1.177200	-0.708955	-0.335821	-0.277619	-0.021545	-0.022417	0.008707
710	3.575090	0.005000	9.269260	1.085339	1.085339	-0.708955	-0.335821	-0.278112	-0.023134	-0.018028	0.003671
711	3.580090	0.005000	9.199331	1.194371	1.144097	-0.708955	-0.335821	-0.278606	-0.025254	-0.017631	-0.000679
712	3.585090	0.005000	9.286598	1.176595	1.137960	-0.708955	-0.335821	-0.279099	-0.020592	-0.016349	-0.003424
713	3.590090	0.005000	9.212921	1.177200	1.170298	-0.708955	-0.335821	-0.279592	-0.028030	-0.027992	0.011231
714	3.595090	0.005000	9.199738	1.216440	1.077058	-0.708955	-0.335821	-0.280086	-0.017102	-0.016799	-0.002876
715	3.600090	0.005000	9.201665	1.157465	1.059710	-0.708955	-0.335821	-0.280579	-0.017744	-0.027978	0.003331
716	3.605090	0.005000	9.304930	1.115815	1.071524	-0.708955	-0.335821	-0.281072	-0.028565	-0.015506	0.001177
717	3.610090	0.005000	9.275616	1.210752	1.122984	-0.708955	-0.335821	-0.281566	-0.018652	-0.021014	-0.001260
718	3.615090	0.005000	9.274404	1.124196	1.124196	-0.708955	-0.336348	-0.281177	-0.021849	-0.020217	0.008639
719	3.620090	0.005000	9.173911	1.069810	1.047068	-0.708955	-0.337011	-0.280560	-0.018176	-0.009408	0.001038
720	3.625090	0.005000	9.213821	1.036071	1.090805	-0.708955	-0.337673	-0.279943	-0.019410	-0.019831	0.004001
721	3.630090	0.005000	9.227300	1.137960	1.165401	-0.708955	-0.338336	-0.279326	-0.021368	-0.010805	-0.002091
722	3.635090	0.005000	9.299880	1.180766	1.130828	-0.708955	-0.338999	-0.278710	-0.021079	-0.015643	0.009410
723	3.640090	0.005000	9.221400	1.331863	1.097572	-0.708955	-0.339661	-0.278093	-0.020851	-0.017556	0.008970
724	3.645090	0.005000	9.221400	1.217236	1.059480	-0.708955	-0.340324	-0.277476	-0.017240	-0.010573	-0.006337
725	3.650090	0.005000	9.218238	1.137960	1.137960	-0.708955	-0.340987	-0.276860	-0.019327	-0.020699	0.012266
726	3.655090	0.005000	9.148064	1.201007	1.143104	-0.708955	-0.341649	-0.276243	-0.024129	-0.002629	0.012098
727	3.660090	0.005000	9.150468	1.287372	1.027788	-0.708955	-0.342312	-0.275626	-0.023165	-0.014299	0.019095
728	3.665090	0.005000	9.260640	1.206477	1.088757	-0.708955	-0.342975	-0.275009	-0.025937	-0.012154	0.013982
729	3.670090	0.005000	9.233623	1.309714	1.047257	-0.708955	-0.343637	-0.274393	-0.021966	-0.011730	0.004047
730	3.675090	0.005000	9.299880	1.319845	0.956075	-0.708955	-0.344300	-0.273776	-0.018330	-0.015049	0.019524
731	3.680090	0.005000	9.388722	1.171028	1.127598	-0.709017	-0.344745	-0.273507	-0.014100	-0.015403	0.007604
732	3.685090	0.005000	9.297982	1.216440	1.018342	-0.709238	-0.344634	-0.274124	-0.003729	-0.012327	0.010604
733	3.690090	0.005000	9.278798	1.276762	1.035474	-0.709459	-0.344524	-0.274741	-0.006972	-0.003049	0.011628
734	3.695090	0.005000	9.246239	1.193220	1.082700	-0.709680	-0.344413	-0.275358	0.002272	-0.004922	0.019798
735	3.700090	0.005000	9.350751	1.202636	1.034044	-0.709901	-0.344303	-0.275975	0.005396	-0.005239	0.007127
736	3.705090	0.005000	9.232791	1.154418	1.048089	-0.710122	-0.344193	-0.276592	0.002691	0.000495	-0.001732
737	3.710090	0.005000	9.230733	1.158533	0.971667	-0.710343	-0.344082	-0.277209	0.008040	-0.005200	0.008915
738	3.715090	0.005000	9.253600	1.020240	1.098720	-0.710564	-0.343972	-0.277826	0.008486	0.001710	-0.005410
739	3.720090	0.005000	9.334496	1.103344	1.098720	-0.710785	-0.343861	-0.278443	0.014634	-0.006426	0.005425
740	3.725090	0.005000	9.333825	1.059480	1.020240	-0.711006	-0.343751	-0.279060	0.000991	-0.004209	0.011731
741	3.730090	0.005000	9.260916	1.176649	0.981276	-0.711227	-0.343640	-0.279677	0.008788	0.004391	0.014345
742	3.735090	0.005000	9.299880	1.024445	1.020240	-0.711448	-0.343530	-0.280294	0.003637	0.003329	0.015787
743	3.740090	0.005000	9.339120	0.941760	1.051335	-0.711669	-0.343419	-0.280911	-0.010033	0.014771	0.005262
744	3.745090	0.005000	9.280107	1.085742	1.092231	-0.711890	-0.343309	-0.281528	-0.011136	0.009878	0.010148
745	3.750090	0.005000	9.230189	1.137960	1.089931	-0.711940	-0.343969	-0.280711	-0.005423	0.008110	0.010000
746	3.755090	0.005000	9.293159	1.159639	1.087880	-0.711940	-0.344852	-0.279478	-0.001254	0.010561	0.009466
747	3.760090	0.005000	9.351853	1.216960	1.150693	-0.711940	-0.345736	-0.278245	-0.014680	0.005275	0.008057
748	3.765090	0.005000	9.362885	1.122485	1.137960	-0.711940	-0.346619	-0.277011	-0.016817	0.017176	0.001078
749	3.770090	0.005000	9.317745	1.162844	1.059480	-0.711940	-0.347503	-0.275778	-0.006341	0.012725	0.007589
750	3.775090	0.005000	9.320694	1.215644	1.099516	-0.711940	-0.348387	-0.274544	-0.008704	0.017645	0.008413
751	3.780090	0.005000	9.238479	1.199361	1.189196	-0.711940	-0.349270	-0.273311	-0.011626	0.008449	0.001738
752	3.785090	0.005000	9.221400	1.177200	1.225948	-0.711940	-0.350154	-0.272078	-0.009917	0.004550	0.005758
753	3.790090	0.005000	9.248182	1.139827	1.241355	-0.711940	-0.351037	-0.270844	-0.007061	0.008640	-0.005938
754	3.795090	0.005000	9.202945	1.148352	1.331830	-0.711940	-0.351921	-0.269611	-0.006348	0.002704	0.006569
755	3.800090	0.005000	9.307979	1.121762	1.231383	-0.711940	-0.352804	-0.268378	-0.010729	0.013132	0.008111
756	3.805090	0.005000	9.248473	1.065563	1.171117	-0.711940	-0.353688	-0.267144	-0.004593	0.003000	0.005778
757	3.810090	0.005000	9.225151	1.083716	1.180951	-0.711940	-0.354572	-0.265911	0.004449	0.006042	0.003785
758	3.815090	0.005000	9.299880	1.020240	1.255680	-0.712200	-0.355080	-0.265000	-0.003219	-0.003268	0.002319
759	3.820090	0.005000	9.338523	1.097526	1.332966	-0.713194	-0.354527	-0.265000	-0.009490	-0.009745	0.012803
760	3.825090	0.005000	9.227360	1.216440	1.219420	-0.714188	-0.353975	-0.265000	-0.010266	0.008105	-0.006672
761	3.830090	0.005000	9.294921	1.216440	1.236274	-0.715182	-0.353423	-0.265000	-0.016317	-0.011348	0.005803
762	3.835090	0.005000	9.214124	1.145236	1.255680	-0.716176	-0.352870	-0.265000	-0.011212	0.001498	0.004524
763	3.840090	0.005000	9.221400	1.038857	1.195817	-0.717170	-0.352318	-0.265000	-0.001345	-0.013763	-0.004997
764	3.845090	0.005000	9.311603	1.142031	1.149683	-0.718164	-0.351766	-0.265000	-0.015673	-0.009719	0.014093
765	3.850090	0.005000	9.302527	1.216440	1.308882	-0.719159	-0.351214	-0.265000	-0.019528	-0.008960	0.004907
766	3.855090	0.005000	9.260640	1.232516	1.373400	-0.720153	-0.350661	-0.265000	-0.028417	-0.014022	0.014839
767	3.860090	0.005000	9.202913	1.137960	1.214175	-0.721147	-0.350109	-0.265000	-0.014290	-0.002466	0.003579
768	3.865090	0.005000	9.239991	1.117311	1.195791	-0.722141	-0.349557	-0.265000	-0.016767	-0.017009	0.012320
769	3.870090	0.005000	9.244243	1.059480	1.193597	-0.723135	-0.349005	-0.265000	-0.028585	-0.003459	0.002530
770	3.875090	0.005000	9.249960	1.137960	1.216440	-0.724129	-0.348452	-0.265000	-0.022305	-0.014625	0.008369
771	3.880090	0.005000	9.260640	1.228345	1.126055	-0.725123	-0.347900	-0.265000	-0.018449	-0.017634	0.003553
772	3.885090	0.005000	9.241357	1.137960	1.039523	-0.724794	-0.347596	-0.265462	-0.017952	-0.013860	0.010840
773	3.890090	0.005000	9.221400	1.177200	1.041919	-0.724021	-0.347375	-0.266079	-0.012792	-0.018670	0.022106
774	3.895090	0.005000	9.271078	1.192857	1.064699	-0.723247	-0.347154	-0.266696	-0.018808	-0.010807	0.002051
775	3.900090	0.005000	9.260640	1.174323	1.286288	-0.722474	-0.346933	-0.267313	-0.011249	-0.027475	0.000734
776	3.905090	0.005000	9.143839	1.176741	1.137041	-0.721700	-0.346712	-0.267929	-0.012666	-0.022532	0.001301
777	3.910090	0.005000	9.221400	1.175715	1.097235	-0.720926	-0.346491	-0.268546	-0.006775	-0.019534	0.000057
778	3.915090	0.005000	9.178271	1.173311	1.063369	-0.720153	-0.346270	-0.269163	-0.008810	-0.017853	-0.000181
779	3.920090	0.005000	9.215168	1.150425	1.098720	-0.719379	-0.346049	-0.269780	-0.000291	-0.022249	-0.007805
780	3.925090	0.005000	9.190409	1.115218	1.115218	-0.718606	-0.345828	-0.270397	-0.002502	-0.030166	0.004779
781	3.930090	0.005000	9.239328	1.116648	1.195128	-0.717832	-0.345607	-0.271014	-0.015680	-0.017053	-0.002459
782	3.935090	0.005000	9.182160	1.072399	1.111639	-0.717059	-0.345386	-0.271631	-0.008732	-0.026758	0.003410
783	3.940090	0.005000	9.206387	1.029453	1.083707	-0.716285	-0.345165	-0.272248	-0.014352	-0.025191	0.008355
784	3.945090	0.005000	9.247611	1.076903	1.124931	-0.715512	-0.344944	-0.272865	-0.018928	-0.024338	0.000825
785	3.950090	0.005000	9.358487	1.137960	1.137455	-0.714872	-0.344776	-0.273452	-0.013812	-0.010923	0.000992
786	3.955090	0.005000	9.282411	0.985302	1.081251	-0.714651	-0.344776	-0.273945	-0.022612	-0.006686	-0.003310
787	3.960090	0.005000	9.236739	1.083381	1.074819	-0.714430	-0.344776	-0.274438	-0.026971	-0.014288	0.002190
788	3.965090	0.005000	9.299880	1.072596	1.020133	-0.714209	-0.344776	-0.274931	-0.024278	-0.013519	0.000871
789	3.970090	0.005000	9.378360	1.177200	0.981000	-0.713989	-0.344776	-0.275425	-0.017408	-0.003150	-0.005749
790	3.975090	0.005000	9.339120	1.129307	0.950413	-0.713768	-0.344776	-0.275918	-0.015852	-0.002283	0.006689
791	3.980090	0.005000	9.339120	1.137960	0.993702	-0.713547	-0.344776	-0.276411	-0.027446	0.007012	-0.003926
792	3.985090	0.005000	9.264575	1.102655	1.126156	-0.713326	-0.344776	-0.276904	-0.015104	-0.014229	0.000957
793	3.990090	0.005000	9.337153	1.102653	1.057513	-0.713105	-0.344776	-0.277397	-0.014835	-0.005063	0.008118
794	3.995090	0.005000	9.261053	1.138373	0.981413	-0.712885	-0.344776	-0.277890	-0.014411	-0.006364	-0.008493
795	4.000090	0.005000	9.336321	1.179999	1.095921	-0.712664	-0.344776	-0.278384	-0.021131	-0.006515	0.005480
796	4.005090	0.005000	9.334345	1.147510	1.059480	-0.712443	-0.344776	-0.278877	-0.020080	-0.003794	-0.006247
797	4.010090	0.005000	9.363999	1.170020	1.041781	-0.712222	-0.344776	-0.279370	-0.013545	-0.014568	0.005701
798	4.015090	0.005000	9.339120	1.227226	1.020240	-0.712001	-0.344776	-0.279863	-0.016283	-0.001760	-0.006121
799	4.020090	0.005000	9.244479	1.294920	1.177200	-0.712020	-0.344297	-0.280178	-0.013787	-0.004465	-0.007641
800	4.025090	0.005000	9.246692	1.230388	1.034188	-0.712130	-0.343635	-0.280425	-0.011094	-0.000842	0.014775
801	4.030090	0.005000	9.260640	1.184128	1.167972	-0.712241	-0.342972	-0.280671	-0.015605	0.009879	-0.006565
802	4.035090	0.005000	9.260640	1.200793	1.216440	-0.712351	-0.342309	-0.280918	-0.007204	-0.005770	0.000577
803	4.040090	0.005000	9.277719	1.158427	1.061174	-0.712462	-0.341647	-0.281165	-0.014331	0.004147	-0.000057
804	4.045090	0.005000	9.411540	1.233030	1.109249	-0.712572	-0.340984	-0.281411	-0.012095	-0.002673	-0.003002
805	4.050090	0.005000	9.339120	1.230617	1.098720	-0.712683	-0.340321	-0.281658	-0.008681	0.004454	0.003239
806	4.055090	0.005000	9.260640	1.228527	1.195247	-0.712793	-0.339659	-0.281905	-0.004613	0.005645	0.005130
807	4.060090	0.005000	9.211575	1.108545	1.049716	-0.712904	-0.338996	-0.282151	-0.008239	-0.011920	0.003942
808	4.065090	0.005000	9.236220	1.113540	1.137960	-0.713014	-0.338333	-0.282398	-0.007830	-0.009271	-0.007741
809	4.070090	0.005000	9.255240	1.137960	1.148761	-0.713125	-0.337671	-0.282645	0.003655	-0.010383	0.005773
810	4.075090	0.005000	9.185221	1.285737	1.216440	-0.713235	-0.337008	-0.282891	-0.001818	0.007396	0.008872
811	4.080090	0.005000	9.183446	1.099363	1.140532	-0.713346	-0.336345	-0.283138	-0.004920	-0.006837	0.008422
812	4.085090	0.005000	9.298579	1.213838	1.256981	-0.713387	-0.335936	-0.283281	-0.014989	-0.010351	0.009428
813	4.090090	0.005000	9.299880	1.184610	1.149075	-0.713166	-0.336489	-0.283035	-0.015897	-0.010705	0.001229
814	4.095090	0.005000	9.299880	1.165098	1.204338	-0.712945	-0.337041	-0.282788	-0.006616	-0.008000	0.002645
815	4.100090	0.005000	9.229453	1.146013	1.154066	-0.712724	-0.337593	-0.282542	-0.017414	-0.005101	0.002820
816	4.105090	0.005000	9.307716	1.177200	1.305388	-0.712503	-0.338146	-0.282295	-0.023565	-0.000489	0.006015
817	4.110090	0.005000	9.351842	1.178274	1.215366	-0.712282	-0.338698	-0.282048	-0.018459	-0.004621	0.006639
818	4.115090	0.005000	9.324300	1.211219	1.211219	-0.712061	-0.339250	-0.281802	-0.013969	-0.012033	0.002356
819	4.120090	0.005000	9.339120	1.216440	1.164742	-0.711841	-0.339802	-0.281555	-0.009867	-0.009269	0.007972
820	4.125090	0.005000	9.221824	1.294920	1.196608	-0.711620	-0.340355	-0.281308	-0.013287	0.000475	-0.007669
821	4.130090	0.005000	9.217465	1.202722	1.037893	-0.711399	-0.340907	-0.281062	-0.011654	-0.016557	0.007919
822	4.135090	0.005000	9.260640	1.201197	1.168446	-0.711178	-0.341459	-0.280815	-0.005255	-0.014426	0.006221
823	4.140090	0.005000	9.234699	1.033539	1.137302	-0.710957	-0.342011	-0.280568	0.002369	-0.014912	0.009739
824	4.145090	0.005000	9.267223	1.009354	1.087834	-0.710736	-0.342564	-0.280322	-0.004689	-0.009176	-0.000426
825	4.150090	0.005000	9.308821	1.059480	1.120078	-0.710515	-0.343116	-0.280075	-0.015222	-0.008069	-0.006864
826	4.155090	0.005000	9.241035	1.072550	1.085650	-0.710371	-0.343053	-0.280257	-0.002303	-0.021840	0.011455
827	4.160090	0.005000	9.260640	1.064018	1.098720	-0.710261	-0.342722	-0.280627	-0.004633	-0.004277	0.000458
828	4.165090	0.005000	9.217052	1.135786	1.133612	-0.710150	-0.342391	-0.280997	-0.003187	-0.017971	0.007033
829	4.170090	0.005000	9.181933	1.137733	1.137506	-0.710040	-0.342059	-0.281367	0.003295	0.002696	0.005830
830	4.175090	0.005000	9.260640	1.098720	1.105240	-0.709929	-0.341728	-0.281737	0.008419	-0.009799	0.007560
831	4.180090	0.005000	9.260640	1.054902	1.059480	-0.709819	-0.341397	-0.282107	0.000117	-0.002634	0.004039
832	4.185090	0.005000	9.299880	1.066393	1.073306	-0.709708	-0.341065	-0.282478	-0.010246	0.001451	-0.005086
833	4.190090	0.005000	9.308818	1.068418	1.155835	-0.709598	-0.340734	-0.282848	-0.010532	-0.003071	0.001482
834	4.195090	0.005000	9.232745	1.205095	1.031585	-0.709487	-0.340402	-0.283218	-0.012047	0.007991	0.000307
835	4.200090	0.005000	9.260640	1.216440	1.020240	-0.709377	-0.340071	-0.283588	-0.006166	-0.006290	0.001420
836	4.205090	0.005000	9.229236	1.263516	1.028076	-0.709266	-0.339740	-0.283958	-0.019069	-0.000303	0.009707
837	4.210090	0.005000	9.239512	1.294920	1.080608	-0.709156	-0.339408	-0.284328	-0.014686	-0.000140	0.005348
838	4.215090	0.005000	9.297218	1.238057	1.156914	-0.709045	-0.339077	-0.284698	-0.020129	-0.008315	0.005734
839	4.220090	0.005000	9.322347	1.193973	1.065173	-0.708995	-0.338826	-0.284955	-0.019277	-0.003038	-0.003482
840	4.225090	0.005000	9.289362	1.241319	1.148478	-0.709216	-0.338937	-0.284708	-0.017497	0.002883	0.006639
841	4.230090	0.005000	9.366092	1.280216	1.135525	-0.709437	-0.339047	-0.284461	-0.029671	0.003494	0.004926
842	4.235090	0.005000	9.398378	1.324151	1.235662	-0.709658	-0.339158	-0.284215	-0.017204	-0.004287	-0.001727
843	4.240090	0.005000	9.394818	1.208846	1.231628	-0.709879	-0.339268	-0.283968	-0.002840	-0.005707	0.009231
844	4.245090	0.005000	9.266237	1.171603	1.266874	-0.710100	-0.339379	-0.283721	-0.009457	0.004996	0.002597
845	4.250090	0.005000	9.303126	1.134714	1.245943	-0.710321	-0.339489	-0.283474	-0.005881	0.001862	0.012615
846	4.255090	0.005000	9.338278	1.059480	1.254838	-0.710542	-0.339600	-0.283228	-0.001767	-0.000087	0.007630
847	4.260090	0.005000	9.223605	1.212031	1.254578	-0.710763	-0.339710	-0.282981	0.004927	-0.013970	-0.006102
848	4.265090	0.005000	9.299880	1.137960	1.180679	-0.710984	-0.339821	-0.282734	-0.003207	-0.003054	0.006263
849	4.270090	0.005000	9.266104	1.154351	1.104184	-0.711205	-0.339932	-0.282487	0.000912	-0.007560	-0.007169
850	4.275090	0.005000	9.299880	1.247811	1.122221	-0.711426	-0.340042	-0.282241	-0.004417	-0.018536	0.005780
851	4.280090	0.005000	9.368195	1.178622	1.069645	-0.711647	-0.340153	-0.281994	-0.005861	-0.006534	-0.000940
852	4.285090	0.005000	9.245856	1.098720	1.098720	-0.711868	-0.340263	-0.281747	-0.003616	-0.011020	0.003374
853	4.290090	0.005000	9.172193	1.123323	1.201803	-0.711716	-0.340224	-0.281667	-0.010737	-0.003875	0.013086
854	4.295090	0.005000	9.187697	1.154812	1.221977	-0.711385	-0.340114	-0.281667	-0.011808	-0.003559	-0.006958
855	4.300090	0.005000	9.202407	1.216440	1.078473	-0.711053	-0.340003	-0.281667	-0.002473	-0.009096	0.002526
856	4.305090	0.005000	9.278476	1.220007	1.013105	-0.710722	-0.339893	-0.281667	-0.019508	-0.007814	0.001084
857	4.310090	0.005000	9.346956	1.192902	1.137960	-0.710390	-0.339782	-0.281667	-0.013665	-0.011473	0.005561
858	4.315090	0.005000	9.339120	1.136735	1.242192	-0.710059	-0.339672	-0.281667	-0.013109	-0.001720	0.010264
859	4.320090	0.005000	9.142920	1.143041	1.126880	-0.709727	-0.339561	-0.281667	-0.013579	-0.010607	0.000780
860	4.325090	0.005000	9.218284	1.146991	1.107751	-0.709396	-0.339451	-0.281667	-0.008659	-0.009896	0.013393
861	4.330090	0.005000	9.260640	1.196276	1.137960	-0.709064	-0.339340	-0.281667	-0.015446	-0.009047	-0.000626
862	4.335090	0.005000	9.217084	1.164253	1.137960	-0.708733	-0.339230	-0.281667	-0.014748	-0.023109	0.002525
863	4.340090	0.005000	9.147609	1.216440	1.135615	-0.708402	-0.339119	-0.281667	-0.025978	-0.014579	0.000804
864	4.345090	0.005000	9.182206	1.216440	1.137914	-0.708070	-0.339008	-0.281667	-0.017866	-0.021376	0.006242
865	4.350090	0.005000	9.150181	1.177200	1.172359	-0.707739	-0.338898	-0.281667	-0.023315	-0.012023	0.005704
866	4.355090	0.005000	9.182160	1.107508	1.142354	-0.707500	-0.338862	-0.281667	-0.019960	-0.018992	-0.001577
867	4.360090	0.005000	9.240209	1.163579	1.112341	-0.707721	-0.339193	-0.281667	-0.009778	-0.021423	0.009085
868	4.365090	0.005000	9.182160	1.126040	0.959973	-0.707942	-0.339525	-0.281667	-0.013550	-0.007035	-0.002356
869	4.370090	0.005000	9.238318	1.115638	1.126799	-0.708163	-0.339856	-0.281667	-0.011018	-0.018517	0.001406
870	4.375090	0.005000	9.248550	1.110810	1.214955	-0.708384	-0.340187	-0.281667	-0.012363	-0.006853	0.009776
871	4.380090	0.005000	9.182160	1.137960	1.106858	-0.708605	-0.340519	-0.281667	-0.005100	-0.014949	0.000429
872	4.385090	0.005000	9.221400	1.059480	1.059480	-0.708826	-0.340850	-0.281667	-0.008921	-0.010713	0.003600
873	4.390090	0.005000	9.259216	1.058056	1.097296	-0.709046	-0.341181	-0.281667	-0.018471	-0.009069	0.004683
874	4.395090	0.005000	9.221400	1.020240	1.104438	-0.709267	-0.341513	-0.281667	-0.014109	-0.013222	0.012956
875	4.400090	0.005000	9.285326	1.034794	1.133537	-0.709488	-0.341844	-0.281667	-0.026785	-0.008077	0.000029
876	4.405090	0.005000	9.233541	1.216440	1.125819	-0.709709	-0.342176	-0.281667	-0.017163	-0.018875	0.000097
877	4.410090	0.005000	9.298334	1.255680	1.177200	-0.709930	-0.342507	-0.281667	-0.023971	-0.010902	0.006095
878	4.415090	0.005000	9.284300	1.192780	1.161620	-0.710151	-0.342838	-0.281667	-0.027025	-0.006744	0.000823
879	4.420090	0.005000	9.171412	1.148708	1.025614	-0.710372	-0.343170	-0.281667	-0.018316	-0.012686	0.013460
880	4.425090	0.005000	9.178772	1.294920	1.062868	-0.710448	-0.343356	-0.281505	-0.010918	-0.008539	0.006879
881	4.430090	0.005000	9.259626	1.218467	0.982014	-0.710448	-0.343467	-0.281259	-0.016577	-0.006531	0.006699
882	4.435090	0.005000	9.297095	1.294920	0.982393	-0.710448	-0.343577	-0.281012	-0.016610	-0.012378	0.009338
883	4.440090	0.005000	9.332447	1.219776	1.213104	-0.710448	-0.343688	-0.280765	-0.008973	-0.012557	-0.003919
884	4.445090	0.005000	9.193643	1.037464	1.137960	-0.710448	-0.343798	-0.280518	-0.017531	-0.008991	0.009933
885	4.450090	0.005000	9.190223	1.129897	1.028303	-0.710448	-0.343908	-0.280272	-0.017564	-0.007381	0.000749
886	4.455090	0.005000	9.221400	1.079682	1.098720	-0.710448	-0.344019	-0.280025	-0.005490	-0.021380	0.010077
887	4.460090	0.005000	9.248132	1.243172	1.086212	-0.710448	-0.344129	-0.279778	-0.004290	-0.004255	0.000708
888	4.465090	0.005000	9.358664	1.216440	1.113454	-0.710448	-0.344240	-0.279532	-0.008379	-0.011127	0.008497
889	4.470090	0.005000	9.350450	1.171673	1.104247	-0.710448	-0.344350	-0.279285	-0.003826	-0.012828	0.004013
890	4.475090	0.005000	9.280612	1.177904	1.098720	-0.710448	-0.344460	-0.279038	-0.012157	-0.016028	-0.003806
891	4.480090	0.005000	9.278201	1.142078	1.194761	-0.710448	-0.344571	-0.278791	-0.016466	-0.018611	0.001975
892	4.485090	0.005000	9.323690	1.146340	1.083290	-0.710448	-0.344681	-0.278545	-0.019736	-0.002005	0.009169
893	4.490090	0.005000	9.208192	1.164375	1.163992	-0.710479	-0.344776	-0.278368	-0.012681	-0.014017	-0.000984
894	4.495090	0.005000	9.249506	1.109854	1.048346	-0.710700	-0.344776	-0.278615	-0.008281	-0.005062	-0.000063
895	4.500090	0.005000	9.230249	1.089871	1.068329	-0.710921	-0.344776	-0.278861	-0.014377	0.000478	0.000045
896	4.505090	0.005000	9.247754	1.170757	1.000329	-0.711142	-0.344776	-0.279108	-0.015500	-0.004752	0.007231
897	4.510090	0.005000	9.229453	1.106773	1.067533	-0.711363	-0.344776	-0.279355	-0.017716	-0.004085	0.005765
898	4.515090	0.005000	9.217236	1.173036	1.096638	-0.711584	-0.344776	-0.279602	-0.005753	-0.012934	0.001546
899	4.520090	0.005000	9.259687	1.059798	1.176247	-0.711805	-0.344776	-0.279848	-0.013475	0.007726	0.003809
900	4.525090	0.005000	9.223666	1.098720	1.142492	-0.712026	-0.344776	-0.280095	-0.012753	-0.012028	0.004863
901	4.530090	0.005000	9.290514	1.172517	0.985683	-0.712247	-0.344776	-0.280342	-0.016911	-0.011046	0.003434
902	4.535090	0.005000	9.156928	1.144964	1.031464	-0.712467	-0.344776	-0.280589	-0.019191	-0.005217	-0.002490
903	4.540090	0.005000	9.182160	1.216440	1.050451	-0.712688	-0.344776	-0.280835	-0.007224	-0.010718	0.013593
904	4.545090	0.005000	9.221400	1.244243	1.120016	-0.712909	-0.344776	-0.281082	-0.016148	0.006680	0.005731
905	4.550090	0.005000	9.142920	1.151650	1.045790	-0.713130	-0.344776	-0.281329	-0.001866	-0.008229	-0.000252
906	4.555090	0.005000	9.237194	1.232234	1.059480	-0.713351	-0.344776	-0.281575	-0.014088	0.001304	0.007577
907	4.560090	0.005000	9.242436	1.114091	1.080516	-0.713225	-0.344568	-0.281667	-0.004332	0.007336	-0.000430
908	4.565090	0.005000	9.201024	1.175687	1.155311	-0.712893	-0.344236	-0.281667	-0.005981	-0.006819	0.008884
909	4.570090	0.005000	9.299880	1.177200	1.177200	-0.712561	-0.343905	-0.281667	-0.009184	0.003139	-0.001023
910	4.575090	0.005000	9.364091	1.187902	1.152229	-0.712230	-0.343573	-0.281667	-0.012886	0.001715	-0.001162
911	4.580090	0.005000	9.324235	1.177200	1.165023	-0.711898	-0.343242	-0.281667	-0.017164	0.004514	-0.005348
912	4.585090	0.005000	9.319286	1.147449	1.147877	-0.711567	-0.342910	-0.281667	-0.011032	-0.004410	0.000158
913	4.590090	0.005000	9.221400	1.130458	1.130458	-0.711235	-0.342579	-0.281667	-0.013766	-0.002633	0.003003
914	4.595090	0.005000	9.221400	0.975509	1.059480	-0.710904	-0.342247	-0.281667	-0.013768	-0.006995	-0.005625
915	4.600090	0.005000	9.221400	0.990458	0.944913	-0.710572	-0.341916	-0.281667	-0.017804	-0.012558	0.007790
916	4.605090	0.005000	9.339120	1.100190	0.942495	-0.710241	-0.341584	-0.281667	-0.027267	-0.005185	-0.002433
917	4.610090	0.005000	9.339120	1.139154	1.095137	-0.709909	-0.341253	-0.281667	-0.018575	-0.009094	-0.007275
918	4.615090	0.005000	9.228624	1.137960	1.173588	-0.709578	-0.340922	-0.281667	-0.018972	0.002801	-0.000785
919	4.620090	0.005000	9.254695	1.132015	1.098720	-0.709246	-0.340590	-0.281667	-0.018268	-0.003783	0.001539
920	4.625090	0.005000	9.392595	1.084485	1.020240	-0.709063	-0.340434	-0.281246	-0.015709	-0.006405	0.014265
921	4.630090	0.005000	9.386471	1.117207	1.088344	-0.709946	-0.341538	-0.277793	-0.018613	-0.002421	-0.001262
922	4.635090	0.005000	9.259294	1.164569	1.112698	-0.710830	-0.342642	-0.274339	-0.009180	-0.004462	0.007313
923	4.640090	0.005000	9.284859	1.122939	1.255680	-0.711714	-0.343747	-0.270886	-0.011663	-0.001149	0.008843
924	4.645090	0.005000	9.277781	1.211481	1.255680	-0.712597	-0.344851	-0.267433	-0.009793	-0.004326	-0.002450
925	4.650090	0.005000	9.221400	1.178410	1.098720	-0.713481	-0.345956	-0.263979	-0.016374	0.001786	-0.005119
926	4.655090	0.005000	9.285886	1.220191	1.098720	-0.714365	-0.347060	-0.260526	-0.013542	0.005804	-0.009265
927	4.660090	0.005000	9.252070	1.207870	1.098720	-0.715248	-0.348165	-0.257072	-0.006720	-0.000702	0.006425
928	4.665090	0.005000	9.247404	1.308156	1.072716	-0.716132	-0.349269	-0.253619	-0.012162	0.008409	0.004188
929	4.670090	0.005000	9.317165	1.283943	1.020240	-0.717016	-0.350374	-0.250165	-0.006720	-0.013340	0.015465
930	4.675090	0.005000	9.229970	1.146530	1.177200	-0.717899	-0.351478	-0.246712	-0.002182	0.004366	0.010895
931	4.680090	0.005000	9.254011	1.216440	1.183829	-0.718783	-0.352583	-0.243259	-0.005478	-0.006033	0.006049
932	4.685090	0.005000	9.217176	1.247232	1.142184	-0.719666	-0.353687	-0.239805	-0.005071	-0.015745	0.007393
933	4.690090	0.005000	9.260640	1.140214	1.209678	-0.720550	-0.354792	-0.236352	-0.006059	-0.000075	-0.007652
934	4.695090	0.005000	9.299742	1.216302	1.098720	-0.720493	-0.355090	-0.236351	-0.009286	-0.010875	0.007302
935	4.700090	0.005000	9.260640	1.172178	1.103742	-0.719830	-0.354869	-0.238571	-0.002747	0.001708	-0.000679
936	4.705090	0.005000	9.225886	1.103206	1.098720	-0.719167	-0.354648	-0.240791	-0.001083	-0.007076	0.005464
937	4.710090	0.005000	9.332218	1.202636	1.045676	-0.718504	-0.354427	-0.243011	-0.010724	-0.006808	0.005286
938	4.715090	0.005000	9.279035	1.234835	1.068677	-0.717842	-0.354206	-0.245231	-0.010521	-0.006094	0.003558
939	4.720090	0.005000	9.249053	1.181678	1.165613	-0.717179	-0.353985	-0.247451	-0.004660	-0.006895	0.002816
940	4.725090	0.005000	9.313547	1.137960	1.086813	-0.716516	-0.353764	-0.249671	-0.012756	-0.005827	-0.003312
941	4.730090	0.005000	9.315956	1.177200	1.161124	-0.715853	-0.353543	-0.251891	-0.012060	-0.006928	0.000812
942	4.735090	0.005000	9.335920	1.162380	1.134760	-0.715191	-0.353322	-0.254112	-0.012195	-0.009077	0.003111
943	4.740090	0.005000	9.359551	1.139582	1.059480	-0.714528	-0.353102	-0.256332	-0.011314	-0.011018	-0.001187
944	4.745090	0.005000	9.293980	1.193870	1.053580	-0.713865	-0.352881	-0.258552	-0.004691	-0.010354	0.004835
945	4.750090	0.005000	9.289546	1.162747	1.098720	-0.713202	-0.352660	-0.260772	-0.013289	-0.016899	-0.003971
946	4.755090	0.005000	9.170111	1.177200	1.204391	-0.712540	-0.352439	-0.262992	-0.011609	-0.021452	0.010231
947	4.760090	0.005000	9.250656	1.186488	1.216440	-0.711961	-0.352207	-0.265106	-0.019061	-0.006629	0.006637
948	4.765090	0.005000	9.189858	1.130262	1.145658	-0.712182	-0.351876	-0.266216	-0.011773	-0.007721	0.005878
949	4.770090	0.005000	9.244794	1.177200	1.205876	-0.712403	-0.351545	-0.267326	-0.014864	-0.005452	0.007219
950	4.775090	0.005000	9.106978	1.128067	1.203249	-0.712624	-0.351213	-0.268436	-0.013565	-0.003503	-0.002361
951	4.780090	0.005000	9.221400	1.099654	0.981934	-0.712845	-0.350882	-0.269546	-0.011361	-0.012129	-0.000069
952	4.785090	0.005000	9.259173	1.175733	1.020240	-0.713066	-0.350550	-0.270656	-0.020410	-0.000950	-0.005749
953	4.790090	0.005000	9.257212	1.137960	1.134532	-0.713286	-0.350219	-0.271766	-0.016013	-0.004073	0.002149
954	4.795090	0.005000	9.294047	1.098720	1.010166	-0.713507	-0.349888	-0.272876	-0.015430	-0.000101	0.010959
955	4.800090	0.005000	9.291726	1.137960	1.059480	-0.713728	-0.349556	-0.273986	-0.012551	-0.005301	-0.003440
956	4.805090	0.005000	9.328927	1.119105	1.254150	-0.713949	-0.349225	-0.275096	-0.017008	-0.019032	0.012558
957	4.810090	0.005000	9.260640	1.059480	1.216440	-0.714170	-0.348894	-0.276206	-0.017941	0.002423	-0.008029
958	4.815090	0.005000	9.236240	1.177200	1.201600	-0.714391	-0.348562	-0.277316	-0.017410	-0.016260	0.000351
959	4.820090	0.005000	9.243683	1.177200	1.233397	-0.714612	-0.348231	-0.278426	-0.029260	0.005185	0.000741
960	4.825090	0.005000	9.261145	1.255175	1.156317	-0.714833	-0.347899	-0.279536	-0.014981	-0.004979	-0.003403
961	4.830090	0.005000	9.199889	1.155689	1.098720	-0.715054	-0.347311	-0.280144	-0.011951	-0.008574	0.007794
962	4.835090	0.005000	9.205875	1.161675	1.090529	-0.715275	-0.346538	-0.280390	-0.008114	-0.007082	0.003988
963	4.840090	0.005000	9.116903	1.137960	1.124737	-0.715495	-0.345765	-0.280637	-0.004567	-0.014050	0.010926
964	4.845090	0.005000	9.221400	1.104831	1.042326	-0.715716	-0.344991	-0.280884	-0.010678	-0.000095	0.005186
965	4.850090	0.005000	9.269397	1.177200	1.076995	-0.715937	-0.344218	-0.281130	-0.001833	-0.012210	0.007566
966	4.855090	0.005000	9.182160	1.170468	1.124497	-0.716158	-0.343445	-0.281377	-0.001718	-0.003641	0.004846
967	4.860090	0.005000	9.156143	1.172792	1.103128	-0.716379	-0.342672	-0.281623	-0.008824	-0.001553	-0.003142
968	4.865090	0.005000	9.260640	1.179190	1.135970	-0.716600	-0.341899	-0.281870	-0.005766	-0.005806	0.010048
969	4.870090	0.005000	9.221355	1.216440	1.098629	-0.716821	-0.341126	-0.282117	-0.007557	-0.013055	0.003014
970	4.875090	0.005000	9.182160	1.142676	1.057122	-0.717042	-0.340352	-0.282363	0.000841	-0.008987	0.018240
971	4.880090	0.005000	9.226120	1.177200	1.192842	-0.717263	-0.339579	-0.282610	-0.010288	-0.009711	0.008965
972	4.885090	0.005000	9.299880	1.131241	1.171553	-0.717483	-0.338806	-0.282857	-0.016045	-0.002837	0.010082
973	4.890090	0.005000	9.318130	1.168075	1.086855	-0.717704	-0.338033	-0.283103	-0.009988	-0.000868	0.006174
974	4.895090	0.005000	9.254608	1.166131	1.042379	-0.717872	-0.337344	-0.283324	-0.019110	0.000230	-0.000452
975	4.900090	0.005000	9.260640	1.190673	1.098720	-0.717319	-0.337786	-0.283201	-0.014267	-0.005657	0.018506
976	4.905090	0.005000	9.284178	1.192902	1.106556	-0.716767	-0.338228	-0.283078	-0.017287	-0.002744	0.014429
977	4.910090	0.005000	9.314128	1.134379	1.277091	-0.716215	-0.338670	-0.282954	-0.002998	-0.005486	0.008415
978	4.915090	0.005000	9.279640	1.097480	1.217680	-0.715662	-0.339112	-0.282831	-0.016554	-0.008075	0.000587
979	4.920090	0.005000	9.316732	1.216440	1.115572	-0.715110	-0.339554	-0.282708	-0.009530	0.000356	0.001299
980	4.925090	0.005000	9.182160	1.191846	1.172502	-0.714557	-0.339996	-0.282584	-0.007189	-0.004581	0.009158
981	4.930090	0.005000	9.206626	1.253139	1.123186	-0.714005	-0.340438	-0.282461	-0.014091	-0.001810	-0.002420
982	4.935090	0.005000	9.230144	1.168456	1.088555	-0.713452	-0.340880	-0.282338	-0.009185	-0.006502	0.000953
983	4.940090	0.005000	9.299880	1.161437	1.090838	-0.712900	-0.341322	-0.282214	-0.011917	-0.000487	0.010052
984	4.945090	0.005000	9.255174	0.958157	1.031171	-0.712347	-0.341764	-0.282091	-0.005574	-0.003433	0.005571
985	4.950090	0.005000	9.224879	1.066439	1.013281	-0.711795	-0.342206	-0.281968	-0.004887	-0.009595	0.016199
986	4.955090	0.005000	9.299880	1.174966	1.060597	-0.711242	-0.342648	-0.281844	-0.006219	0.004001	0.001262
987	4.960090	0.005000	9.261926	1.098720	1.022812	-0.710690	-0.343090	-0.281721	0.003597	-0.007232	0.008532
988	4.965090	0.005000	9.339120	1.020240	1.092231	-0.710448	-0.343284	-0.281459	0.000133	-0.004011	-0.002263
989	4.970090	0.005000	9.316828	1.126661	1.065129	-0.710448	-0.343284	-0.281089	-0.002857	-0.010520	0.006754
990	4.975090	0.005000	9.260640	1.153874	1.169243	-0.710448	-0.343284	-0.280719	-0.017883	-0.000055	0.010357
991	4.980090	0.005000	9.221400	1.108718	1.197195	-0.710448	-0.343284	-0.280350	-0.020218	-0.008203	-0.000038
992	4.985090	0.005000	9.260640	1.123543	1.272101	-0.710448	-0.343284	-0.279980	-0.014503	-0.009459	0.015920
993	4.990090	0.005000	9.260640	1.202085	1.187729	-0.710448	-0.343284	-0.279610	-0.019443	0.002602	0.005202
994	4.995090	0.005000	9.288826	1.098720	1.210729	-0.710448	-0.343284	-0.279240	-0.013906	-0.017828	0.007751
995	5.000090	0.005000	9.261971	1.139291	1.156914	-0.710448	-0.343284	-0.278870	-0.011155	0.002328	0.008508
996	5.005090	0.005000	9.203280	1.201319	1.195320	-0.710448	-0.343284	-0.278500	-0.017960	0.004948	0.007757
997	5.010090	0.005000	9.268464	1.122252	1.239972	-0.710448	-0.343284	-0.278131	-0.014524	-0.008794	0.013000
998	5.015090	0.005000	9.207801	1.073079	1.386999	-0.710448	-0.343284	-0.277761	-0.009450	0.003516	-0.001846
999	5.020090	0.005000	9.244111	1.042951	1.283564	-0.710448	-0.343284	-0.277391	-0.017627	0.002544	0.003038
1000	5.025090	0.005000	9.251699	1.068421	1.234322	-0.710448	-0.343284	-0.277021	-0.023041	0.001329	0.002328
1001	5.030090	0.005000	9.313706	1.091807	1.234941	-0.710439	-0.343298	-0.276678	-0.013892	-0.005276	-0.003168
1002	5.035090	0.005000	9.378360	1.142551	1.241906	-0.710218	-0.343629	-0.276924	-0.011724	-0.010070	-0.000049
1003	5.040090	0.005000	9.302054	1.177200	1.177200	-0.709997	-0.343961	-0.277171	-0.009823	0.002194	-0.007642
1004	5.045090	0.005000	9.378360	1.216440	1.059722	-0.709776	-0.344292	-0.277417	-0.013045	-0.004344	-0.000185
1005	5.050090	0.005000	9.304226	1.253507	1.135787	-0.709555	-0.344623	-0.277664	-0.020807	-0.007025	0.004108
1006	5.055090	0.005000	9.290834	1.216440	1.050434	-0.709334	-0.344955	-0.277911	-0.008061	-0.016426	0.017958
1007	5.060090	0.005000	9.227922	1.177200	1.066002	-0.709113	-0.345286	-0.278157	-0.016107	0.000700	0.011995
1008	5.065090	0.005000	9.208973	1.225378	1.068418	-0.708892	-0.345617	-0.278404	-0.020143	-0.009408	-0.002701
1009	5.070090	0.005000	9.182160	1.165991	1.059480	-0.708671	-0.345949	-0.278651	-0.021933	-0.003255	0.007667
1010	5.075090	0.005000	9.286591	1.137960	1.032902	-0.708451	-0.346280	-0.278897	-0.019491	-0.002888	-0.000863
1011	5.080090	0.005000	9.213564	1.043778	1.114422	-0.708230	-0.346611	-0.279144	-0.011419	-0.008952	0.009633
1012	5.085090	0.005000	9.285434	1.198545	1.080825	-0.708009	-0.346942	-0.279391	-0.022917	-0.004863	0.006728
1013	5.090090	0.005000	9.260640	1.275736	1.098720	-0.707788	-0.347274	-0.279637	-0.014520	-0.006356	0.001636
1014	5.095090	0.005000	9.227093	1.160427	1.098720	-0.707567	-0.347605	-0.279884	-0.009672	0.002198	0.006050
1015	5.100090	0.005000	9.147655	1.289731	1.054291	-0.707638	-0.347410	-0.280131	-0.014281	-0.013613	-0.000667
1016	5.105090	0.005000	9.324713	1.245254	1.177200	-0.707970	-0.346747	-0.280377	-0.007393	-0.007791	0.005928
1017	5.110090	0.005000	9.279862	1.167191	1.098720	-0.708301	-0.346085	-0.280624	-0.014148	0.000015	0.004995
1018	5.115090	0.005000	9.198104	1.185172	1.137960	-0.708632	-0.345422	-0.280871	-0.004714	-0.013251	0.000214
1019	5.120090	0.005000	9.260640	1.160610	1.210777	-0.708964	-0.344759	-0.281117	-0.015851	-0.009416	0.006388
1020	5.125090	0.005000	9.224646	1.288428	1.180446	-0.709295	-0.344097	-0.281364	-0.020886	-0.002238	0.005777
1021	5.130090	0.005000	9.298594	1.255680	1.216440	-0.709626	-0.343434	-0.281610	-0.008596	-0.007975	0.016528
1022	5.135090	0.005000	9.298778	1.141267	1.216440	-0.709958	-0.342771	-0.281857	-0.009746	-0.000336	0.002774
1023	5.140090	0.005000	9.267599	1.137960	1.206002	-0.710289	-0.342109	-0.282104	-0.011306	-0.018129	0.009790
1024	5.145090	0.005000	9.226864	1.031167	1.221904	-0.710620	-0.341446	-0.282350	-0.015167	-0.009665	0.009499
1025	5.150090	0.005000	9.260640	1.130091	1.341922	-0.710951	-0.340783	-0.282597	-0.011030	-0.010796	0.004876
1026	5.155090	0.005000	9.172361	1.118348	1.245881	-0.711283	-0.340121	-0.282844	-0.012413	-0.013923	0.012591
1027	5.160090	0.005000	9.182160	1.125732	1.083936	-0.711614	-0.339458	-0.283090	-0.014308	-0.004247	0.004658
1028	5.165090	0.005000	9.242034	1.088403	1.098720	-0.711956	-0.338827	-0.283273	-0.010055	-0.015363	0.002410
1029	5.170090	0.005000	9.283299	1.177200	1.137960	-0.712950	-0.340153	-0.279573	-0.017895	-0.007792	-0.002664
1030	5.175090	0.005000	9.318873	1.177200	1.117713	-0.713944	-0.341478	-0.275873	-0.005732	-0.023331	0.008470
1031	5.180090	0.005000	9.278732	1.156052	1.077572	-0.714938	-0.342804	-0.272173	-0.007374	0.001091	0.005138
1032	5.185090	0.005000	9.385816	1.264116	1.098720	-0.715932	-0.344129	-0.268472	-0.002041	-0.008848	0.008372
1033	5.190090	0.005000	9.390623	1.307183	1.112208	-0.716927	-0.345454	-0.264772	-0.009735	-0.014242	0.013020
1034	5.195090	0.005000	9.311286	1.172178	1.036668	-0.717921	-0.346780	-0.261072	-0.020396	-0.006658	-0.006777
1035	5.200090	0.005000	9.290743	1.216440	0.999273	-0.718915	-0.348105	-0.257372	-0.018021	-0.005325	0.004536
1036	5.205090	0.005000	9.286438	1.268035	1.223161	-0.719909	-0.349431	-0.253672	-0.016289	0.002420	0.002654
1037	5.210090	0.005000	9.221400	1.181516	1.172884	-0.720903	-0.350756	-0.249972	-0.015238	-0.001597	0.001354
1038	5.215090	0.005000	9.373671	1.094031	1.061825	-0.721897	-0.352081	-0.246272	-0.004656	0.001537	0.008480
1039	5.220090	0.005000	9.299880	1.137822	1.098720	-0.722891	-0.353407	-0.242572	-0.003911	0.000905	-0.000183
1040	5.225090	0.005000	9.299880	1.177200	1.066741	-0.723885	-0.354732	-0.238871	-0.010092	-0.006890	0.014076
1041	5.230090	0.005000	9.256246	1.172806	0.998576	-0.724879	-0.356058	-0.235171	-0.012335	-0.001441	0.005621
1042	5.235090	0.005000	9.253830	1.170390	1.170390	-0.724817	-0.356160	-0.235133	-0.001924	-0.017934	0.004046
1043	5.240090	0.005000	9.251533	1.207333	1.207333	-0.723713	-0.355056	-0.238710	-0.004283	-0.007070	0.005660
1044	5.245090	0.005000	9.232561	1.171443	1.014483	-0.722608	-0.353951	-0.242286	-0.004880	-0.004281	0.001855
1045	5.250090	0.005000	9.286305	1.202865	1.137960	-0.721504	-0.352847	-0.245863	-0.003423	-0.004299	0.016505
1046	5.255090	0.005000	9.315398	1.223755	1.090517	-0.720399	-0.351742	-0.249440	-0.009905	0.008396	0.005377
1047	5.260090	0.005000	9.264024	1.201895	1.098720	-0.719295	-0.350638	-0.253017	-0.001060	-0.005210	0.007952
1048	5.265090	0.005000	9.338182	1.235591	1.118809	-0.718190	-0.349533	-0.256594	-0.005373	0.004693	0.012119
1049	5.270090	0.005000	9.328077	1.278159	1.064805	-0.717086	-0.348429	-0.260170	0.005705	-0.003798	0.000744
1050	5.275090	0.005000	9.378360	1.167069	1.025948	-0.715981	-0.347324	-0.263747	-0.009270	-0.005681	0.003772
1051	5.280090	0.005000	9.275598	1.189341	1.044522	-0.714877	-0.346220	-0.267324	-0.002111	0.003415	-0.000031
1052	5.285090	0.005000	9.290864	1.245605	1.058421	-0.713772	-0.345115	-0.270901	-0.000686	-0.007076	0.008675
1053	5.290090	0.005000	9.323540	1.216440	0.988790	-0.712668	-0.344011	-0.274478	-0.012030	0.013302	0.007482
1054	5.295090	0.005000	9.322998	1.171826	1.025614	-0.711564	-0.342907	-0.278054	0.001234	-0.002309	-0.000787
1055	5.300090	0.005000	9.253863	1.059480	1.134572	-0.710459	-0.341802	-0.281631	-0.002286	0.001033	0.012035
1056	5.305090	0.005000	9.223451	1.098720	1.097695	-0.710557	-0.341900	-0.281667	-0.000052	-0.000462	0.004488
1057	5.310090	0.005000	9.299880	1.136583	1.097343	-0.710668	-0.342011	-0.281667	-0.003085	0.001715	0.007612
1058	5.315090	0.005000	9.339120	1.177200	1.173864	-0.710778	-0.342121	-0.281667	-0.003971	0.003664	0.001651
1059	5.320090	0.005000	9.182160	1.070963	1.216440	-0.710889	-0.342232	-0.281667	-0.009112	0.003111	0.005988
1060	5.325090	0.005000	9.126794	1.185263	1.200314	-0.710999	-0.342343	-0.281667	-0.007466	0.000171	0.006365
1061	5.330090	0.005000	9.279678	1.158162	1.217603	-0.711110	-0.342453	-0.281667	-0.013812	0.000575	-0.002425
1062	5.335090	0.005000	9.260640	1.150468	1.137960	-0.711220	-0.342564	-0.281667	-0.011812	-0.004653	0.008021
1063	5.340090	0.005000	9.245906	1.152694	1.240946	-0.711331	-0.342674	-0.281667	-0.009805	0.010086	0.005361
1064	5.345090	0.005000	9.210070	1.098720	1.205110	-0.711441	-0.342785	-0.281667	-0.011412	0.004040	0.002340
1065	5.350090	0.005000	9.280612	1.040916	1.137960	-0.711551	-0.342895	-0.281667	-0.015704	0.013523	0.000222
1066	5.355090	0.005000	9.317700	1.134360	1.120140	-0.711662	-0.343006	-0.281667	-0.002239	-0.004307	0.008000
1067	5.360090	0.005000	9.347127	1.114734	1.130351	-0.711772	-0.343116	-0.281667	-0.004652	-0.000715	0.006743
1068	5.365090	0.005000	9.313088	1.046272	1.046655	-0.711883	-0.343227	-0.281667	-0.010618	0.000375	-0.004960
1069	5.370090	0.005000	9.260640	0.992134	1.048346	-0.711940	-0.343551	-0.281727	-0.015132	-0.002226	-0.000187
1070	5.375090	0.005000	9.308624	1.028984	0.989744	-0.711940	-0.344103	-0.281850	-0.009591	0.008872	0.000519
1071	5.380090	0.005000	9.227843	1.150846	1.144403	-0.711940	-0.344655	-0.281973	-0.010788	-0.007636	-0.000028
1072	5.385090	0.005000	9.303907	1.146013	1.094693	-0.711940	-0.345207	-0.282096	-0.019726	0.003553	0.000451
1073	5.390090	0.005000	9.260640	1.210268	1.102835	-0.711940	-0.345759	-0.282220	-0.009241	-0.006735	-0.000518
1074	5.395090	0.005000	9.299558	1.059802	1.177200	-0.711940	-0.346312	-0.282343	-0.009527	-0.001059	0.010395
1075	5.400090	0.005000	9.378360	1.064896	1.219148	-0.711940	-0.346864	-0.282466	-0.017443	-0.001193	-0.002474
1076	5.405090	0.005000	9.339120	1.089354	1.147326	-0.711940	-0.347416	-0.282590	-0.013404	-0.012797	0.005960
1077	5.410090	0.005000	9.285703	1.170111	1.130871	-0.711940	-0.347968	-0.282713	-0.017336	0.000709	-0.002155
1078	5.415090	0.005000	9.251261	1.156718	1.147339	-0.711940	-0.348520	-0.282836	-0.008419	-0.009054	0.003073
1079	5.420090	0.005000	9.272409	1.075182	1.149729	-0.711940	-0.349073	-0.282959	-0.004510	-0.002156	0.006089
1080	5.425090	0.005000	9.286030	1.179511	1.188739	-0.711940	-0.349625	-0.283083	-0.021575	-0.002797	0.004691
1081	5.430090	0.005000	9.299880	1.075739	1.200181	-0.711940	-0.350177	-0.283206	-0.008711	-0.013066	0.004783
1082	5.435090	0.005000	9.339120	0.983330	1.177200	-0.711940	-0.350729	-0.283329	-0.009779	-0.012221	-0.007939
1083	5.440090	0.005000	9.240025	1.076116	1.154596	-0.712797	-0.350960	-0.281180	-0.018340	-0.013675	-0.000322
1084	5.445090	0.005000	9.299880	1.121747	1.239467	-0.713680	-0.351181	-0.278960	-0.014847	0.002338	-0.000021
1085	5.450090	0.005000	9.257584	1.073579	1.149003	-0.714564	-0.351402	-0.276740	-0.010528	-0.013434	0.004853
1086	5.455090	0.005000	9.194021	1.086859	1.083202	-0.715448	-0.351623	-0.274520	-0.019796	-0.011071	0.002730
1087	5.460090	0.005000	9.240293	1.158307	1.177200	-0.716331	-0.351844	-0.272300	-0.011869	-0.010292	-0.005732
1088	5.465090	0.005000	9.253228	1.052068	1.145372	-0.717215	-0.352065	-0.270080	-0.004718	-0.015354	0.011056
1089	5.470090	0.005000	9.221400	1.069555	1.153072	-0.718099	-0.352286	-0.267860	0.003191	0.001085	0.000542
