# FOX Logger (IMU file)
# (c) INRIA 2011-2014
# File created from file sensbiotk output
#
# File format:
# id	t	dt	ax	ay	az	mx	my	mz	gx	gy	gz
#
# Units:
#	Time: s
#	Acceleration: m.s^-2
#	Magneto: gauss
#	Gyrometer: rad/s
#
1	0.008423	0.008423	-0.582860	-0.055990	-10.415350	-0.479104	-0.534328	0.771667	0.001144	-0.042983	-0.002530
2	0.013423	0.005000	-0.650206	-0.100846	-10.364852	-0.479437	-0.533884	0.771791	-0.010996	-0.032826	-0.014382
3	0.018423	0.005000	-0.622759	-0.022161	-10.381521	-0.479769	-0.533441	0.771915	-0.014500	-0.051522	-0.007975
4	0.023423	0.005000	-0.632120	0.061000	-10.394320	-0.480102	-0.532997	0.772038	-0.013768	-0.024369	-0.013202
5	0.028423	0.005000	-0.531740	-0.017620	-10.398600	-0.480435	-0.532554	0.772162	-0.014295	-0.040493	-0.010160
6	0.033423	0.005000	-0.606617	-0.021223	-10.362567	-0.480768	-0.532110	0.772286	-0.008759	-0.042420	-0.004592
7	0.038423	0.005000	-0.667080	-0.042063	-10.341152	-0.481100	-0.531666	0.772410	-0.005922	-0.037754	-0.009970
8	0.043423	0.005000	-0.646449	0.041262	-10.357338	-0.481433	-0.531223	0.772534	0.004648	-0.033098	-0.009947
9	0.048423	0.005000	-0.627840	0.077257	-10.340352	-0.481766	-0.530779	0.772657	-0.007441	-0.036078	-0.020075
10	0.053423	0.005000	-0.646079	0.079401	-10.358439	-0.482099	-0.530336	0.772781	-0.003421	-0.042772	-0.013231
11	0.058423	0.005000	-0.725658	0.059142	-10.457178	-0.482431	-0.529892	0.772905	-0.016960	-0.023105	-0.011272
12	0.063423	0.005000	-0.686582	0.078480	-10.418102	-0.482764	-0.529448	0.773029	-0.007969	-0.031289	-0.015076
13	0.068423	0.005000	-0.607702	0.098618	-10.496182	-0.483097	-0.529005	0.773152	-0.018984	-0.042082	-0.006057
14	0.073423	0.005000	-0.566204	0.057935	-10.435989	-0.483430	-0.528561	0.773276	-0.017288	-0.041507	-0.016164
15	0.078423	0.005000	-0.570075	0.057765	-10.357169	-0.484363	-0.529380	0.774139	-0.020505	-0.046661	-0.006497
16	0.083423	0.005000	-0.570488	0.078480	-10.401616	-0.485806	-0.531266	0.775625	-0.009720	-0.019257	-0.014227
17	0.088423	0.005000	-0.627840	0.000000	-10.459365	-0.487248	-0.533152	0.777112	-0.004918	-0.044257	-0.017885
18	0.093423	0.005000	-0.549360	-0.043349	-10.394491	-0.488691	-0.535038	0.778599	-0.028970	-0.040501	-0.010325
19	0.098423	0.005000	-0.622933	-0.100553	-10.332380	-0.490133	-0.536925	0.780086	-0.019131	-0.038670	-0.023219
20	0.103423	0.005000	-0.487849	-0.050907	-10.420871	-0.491575	-0.538811	0.781572	-0.013512	-0.039485	-0.006619
21	0.108423	0.005000	-0.650508	0.061908	-10.365456	-0.493018	-0.540697	0.783059	0.004144	-0.047943	-0.011112
22	0.113423	0.005000	-0.677149	0.016436	-10.415036	-0.494460	-0.542583	0.784546	-0.008305	-0.042738	-0.008391
23	0.118423	0.005000	-0.650841	-0.023001	-10.359360	-0.495902	-0.544469	0.786032	-0.004931	-0.027016	-0.003662
24	0.123423	0.005000	-0.729734	-0.062654	-10.359360	-0.497345	-0.546355	0.787519	0.005199	-0.044675	-0.007223
25	0.128423	0.005000	-0.627840	0.039240	-10.375075	-0.498787	-0.548242	0.789006	-0.023933	-0.032709	-0.005313
26	0.133423	0.005000	-0.612533	-0.023933	-10.407226	-0.500230	-0.550128	0.790493	-0.024209	-0.029065	-0.015520
27	0.138423	0.005000	-0.608996	0.014909	-10.389178	-0.501672	-0.552014	0.791979	-0.022184	-0.023744	-0.012557
28	0.143423	0.005000	-0.578727	0.000000	-10.320120	-0.503015	-0.553721	0.793444	-0.011561	-0.027666	-0.011259
29	0.148423	0.005000	-0.656413	0.049907	-10.370027	-0.503348	-0.553610	0.794682	0.006284	-0.042009	0.000387
30	0.153423	0.005000	-0.703939	0.027747	-10.513939	-0.503680	-0.553499	0.795921	-0.011485	-0.043431	-0.004154
31	0.158423	0.005000	-0.653619	0.000000	-10.464762	-0.504013	-0.553388	0.797159	-0.010211	-0.039042	-0.005949
32	0.163423	0.005000	-0.601978	0.091858	-10.437840	-0.504346	-0.553278	0.798398	-0.020282	-0.033464	-0.001795
33	0.168423	0.005000	-0.496820	0.052210	-10.398600	-0.504678	-0.553167	0.799636	-0.014266	-0.027775	-0.019794
34	0.173423	0.005000	-0.536787	-0.026667	-10.332693	-0.505011	-0.553056	0.800875	-0.000302	-0.034003	-0.011293
35	0.178423	0.005000	-0.654762	0.024636	-10.347042	-0.505344	-0.552945	0.802113	-0.005656	-0.034892	-0.000999
36	0.183423	0.005000	-0.600849	-0.053982	-10.413342	-0.505677	-0.552834	0.803351	-0.015111	-0.041384	-0.017610
37	0.188423	0.005000	-0.533802	-0.078480	-10.422282	-0.506009	-0.552723	0.804590	0.003221	-0.038220	-0.009442
38	0.193423	0.005000	-0.616396	-0.039240	-10.398600	-0.506342	-0.552612	0.805828	0.007614	-0.038487	-0.005204
39	0.198423	0.005000	-0.639015	-0.056130	-10.454730	-0.506675	-0.552502	0.807067	-0.021407	-0.040848	-0.022217
40	0.203423	0.005000	-0.577480	-0.022239	-10.387480	-0.507008	-0.552391	0.808305	-0.022921	-0.032737	-0.022299
41	0.208423	0.005000	-0.560072	-0.057056	-10.302304	-0.507340	-0.552280	0.809544	-0.028933	-0.047112	-0.019299
42	0.213423	0.005000	-0.685689	-0.028924	-10.398600	-0.507113	-0.552309	0.810391	-0.019351	-0.038360	-0.002159
43	0.218423	0.005000	-0.588600	0.078072	-10.447752	-0.506558	-0.552420	0.811011	-0.024029	-0.041537	-0.002202
44	0.223423	0.005000	-0.510120	0.108085	-10.339391	-0.506003	-0.552531	0.811630	-0.003835	-0.034755	-0.002313
45	0.228423	0.005000	-0.588600	0.078480	-10.350137	-0.505448	-0.552642	0.812249	-0.006472	-0.025253	-0.016128
46	0.233423	0.005000	-0.588600	-0.011680	-10.449520	-0.504894	-0.552753	0.812869	-0.007593	-0.032681	-0.007096
47	0.238423	0.005000	-0.597383	0.017565	-10.420275	-0.504339	-0.552864	0.813488	-0.030567	-0.025995	-0.028701
48	0.243423	0.005000	-0.549360	-0.030853	-10.345282	-0.503784	-0.552974	0.814108	-0.018011	-0.019385	-0.021559
49	0.248423	0.005000	-0.416639	-0.078480	-10.367440	-0.503229	-0.553085	0.814727	-0.001354	-0.039879	-0.003776
50	0.253423	0.005000	-0.573266	-0.007667	-10.320120	-0.502674	-0.553196	0.815347	-0.007376	-0.038567	-0.010590
51	0.258423	0.005000	-0.612533	-0.007654	-10.367014	-0.502120	-0.553307	0.815966	-0.003631	-0.042201	0.002989
52	0.263423	0.005000	-0.549360	0.103228	-10.359360	-0.501565	-0.553418	0.816586	-0.003917	-0.014599	-0.008198
53	0.268423	0.005000	-0.523822	0.085331	-10.391749	-0.501010	-0.553529	0.817205	-0.009543	-0.048626	-0.019168
54	0.273423	0.005000	-0.588600	0.078480	-10.333168	-0.500455	-0.553640	0.817825	-0.015924	-0.031645	-0.015849
55	0.278423	0.005000	-0.609458	0.150833	-10.287007	-0.500000	-0.553671	0.818133	-0.023884	-0.033413	-0.023659
56	0.283423	0.005000	-0.627840	0.123837	-10.431723	-0.500000	-0.553339	0.817018	-0.028754	-0.037430	-0.007019
57	0.288423	0.005000	-0.633562	0.117720	-10.398600	-0.500000	-0.553006	0.815903	-0.016843	-0.033705	-0.021501
58	0.293423	0.005000	-0.661763	0.000000	-10.437840	-0.500000	-0.552673	0.814788	-0.005396	-0.047622	-0.007051
59	0.298423	0.005000	-0.667080	0.102952	-10.467235	-0.500000	-0.552340	0.813673	-0.000136	-0.035034	-0.009259
60	0.303423	0.005000	-0.549360	0.004572	-10.299167	-0.500000	-0.552007	0.812558	-0.011462	-0.030761	-0.018833
61	0.308423	0.005000	-0.627840	0.074321	-10.214877	-0.500000	-0.551675	0.811443	-0.013511	-0.027435	-0.011858
62	0.313423	0.005000	-0.623653	0.043427	-10.237453	-0.500000	-0.551342	0.810328	-0.024479	-0.042840	-0.018544
63	0.318423	0.005000	-0.627840	0.003841	-10.323961	-0.500000	-0.551009	0.809213	-0.030353	-0.042642	-0.010278
64	0.323423	0.005000	-0.588600	0.032383	-10.430983	-0.500000	-0.550676	0.808098	-0.020235	-0.028549	-0.017612
65	0.328423	0.005000	-0.697272	0.111688	-10.443872	-0.500000	-0.550343	0.806983	-0.004608	-0.039188	-0.010663
66	0.333423	0.005000	-0.630898	0.117720	-10.440898	-0.500000	-0.550010	0.805868	0.001217	-0.035024	0.004076
67	0.338423	0.005000	-0.630505	0.075815	-10.510990	-0.500000	-0.549678	0.804752	-0.006839	-0.041515	-0.011301
68	0.343423	0.005000	-0.590858	-0.034725	-10.437840	-0.500000	-0.549345	0.803637	-0.008696	-0.036544	-0.013313
69	0.348423	0.005000	-0.511993	0.078480	-10.398600	-0.500323	-0.548931	0.803603	0.000588	-0.025082	-0.018263
70	0.353423	0.005000	-0.510120	0.041169	-10.439769	-0.500766	-0.548488	0.803975	-0.021061	-0.030529	-0.007076
71	0.358423	0.005000	-0.549360	0.039240	-10.324729	-0.501210	-0.548044	0.804347	-0.017129	-0.034541	-0.008402
72	0.363423	0.005000	-0.625582	0.040369	-10.241640	-0.501654	-0.547600	0.804718	-0.000338	-0.049101	-0.009163
73	0.368423	0.005000	-0.511563	0.079201	-10.397879	-0.502098	-0.547156	0.805090	-0.013668	-0.049741	-0.009887
74	0.373423	0.005000	-0.626507	0.155960	-10.398600	-0.502542	-0.546712	0.805462	-0.024776	-0.038854	-0.016037
75	0.378423	0.005000	-0.587424	0.117720	-10.476296	-0.502985	-0.546269	0.805833	-0.007115	-0.042222	-0.007474
76	0.383423	0.005000	-0.588600	0.039240	-10.280880	-0.503429	-0.545825	0.806205	-0.009291	-0.023433	-0.011011
77	0.388423	0.005000	-0.705505	-0.000815	-10.359768	-0.503873	-0.545381	0.806577	-0.019407	-0.050411	-0.015982
78	0.393423	0.005000	-0.589400	-0.116920	-10.398600	-0.504317	-0.544937	0.806948	-0.020518	-0.034509	-0.007843
79	0.398423	0.005000	-0.548614	0.000000	-10.360106	-0.504761	-0.544493	0.807320	-0.018214	-0.039328	-0.002492
80	0.403423	0.005000	-0.396972	-0.001143	-10.477080	-0.505204	-0.544050	0.807692	-0.002705	-0.046204	0.001966
81	0.408423	0.005000	-0.547824	0.040776	-10.436304	-0.505648	-0.543606	0.808064	-0.009083	-0.034599	-0.015518
82	0.413423	0.005000	-0.472809	0.078480	-10.396671	-0.506031	-0.543467	0.808265	-0.022395	-0.040594	-0.013649
83	0.418423	0.005000	-0.477891	0.000000	-10.361697	-0.506253	-0.544133	0.808017	-0.021071	-0.034072	-0.010385
84	0.423423	0.005000	-0.590886	0.002286	-10.396314	-0.506475	-0.544798	0.807769	-0.020203	-0.031511	-0.020282
85	0.428423	0.005000	-0.700923	0.000000	-10.362059	-0.506697	-0.545464	0.807522	-0.009735	-0.034873	-0.007875
86	0.433423	0.005000	-0.552457	0.000000	-10.437840	-0.506919	-0.546130	0.807274	-0.012428	-0.040594	-0.012459
87	0.438423	0.005000	-0.588600	0.042706	-10.398600	-0.507141	-0.546796	0.807026	-0.004999	-0.041904	0.000757
88	0.443423	0.005000	-0.631269	0.006857	-10.333835	-0.507362	-0.547461	0.806778	-0.010616	-0.033209	-0.011548
89	0.448423	0.005000	-0.655556	0.043081	-10.469397	-0.507584	-0.548127	0.806531	-0.027023	-0.041754	-0.011985
90	0.453423	0.005000	-0.580120	0.121960	-10.233160	-0.507806	-0.548793	0.806283	-0.010116	-0.031428	-0.007438
91	0.458423	0.005000	-0.484666	0.152365	-10.176946	-0.508028	-0.549458	0.806035	-0.008939	-0.031943	-0.026290
92	0.463423	0.005000	-0.485883	0.049242	-10.325121	-0.508250	-0.550124	0.805787	-0.022907	-0.047418	-0.007224
93	0.468423	0.005000	-0.593995	0.078480	-10.398600	-0.508472	-0.550790	0.805539	-0.020796	-0.030735	-0.015467
94	0.473423	0.005000	-0.599394	0.067686	-10.330914	-0.508694	-0.551455	0.805292	-0.005164	-0.037054	-0.011193
95	0.478423	0.005000	-0.588600	0.027652	-10.516320	-0.508916	-0.552121	0.805044	-0.017358	-0.040729	-0.009443
96	0.483423	0.005000	-0.621633	0.000000	-10.470873	-0.508134	-0.551783	0.805204	-0.007411	-0.038042	-0.013775
97	0.488423	0.005000	-0.529693	-0.019667	-10.464031	-0.507136	-0.551228	0.805451	-0.027484	-0.036050	-0.007294
98	0.493423	0.005000	-0.613976	-0.013864	-10.380156	-0.506137	-0.550674	0.805699	-0.016792	-0.026625	-0.017087
99	0.498423	0.005000	-0.510120	-0.149623	-10.391263	-0.505139	-0.550119	0.805947	-0.000874	-0.034909	-0.015307
100	0.503423	0.005000	-0.596332	-0.023776	-10.367092	-0.504141	-0.549565	0.806194	-0.013244	-0.035284	-0.002505
101	0.508423	0.005000	-0.698570	0.007750	-10.430090	-0.503143	-0.549010	0.806442	-0.022689	-0.045231	-0.011900
102	0.513423	0.005000	-0.557421	0.109659	-10.367421	-0.502145	-0.548456	0.806690	0.001818	-0.029709	-0.009476
103	0.518423	0.005000	-0.605531	0.092323	-10.337051	-0.501147	-0.547901	0.806937	-0.004408	-0.032583	-0.017236
104	0.523423	0.005000	-0.627840	0.000000	-10.377082	-0.500149	-0.547346	0.807185	-0.003255	-0.039962	-0.013489
105	0.528423	0.005000	-0.801174	0.048509	-10.352255	-0.499151	-0.546792	0.807433	-0.016557	-0.032433	-0.019248
106	0.533423	0.005000	-0.747592	0.009302	-10.181764	-0.498152	-0.546237	0.807680	-0.023192	-0.032009	-0.012584
107	0.538423	0.005000	-0.559075	0.000000	-10.349645	-0.497154	-0.545683	0.807928	-0.022553	-0.034003	-0.006447
108	0.543423	0.005000	-0.588600	-0.019017	-10.369472	-0.496156	-0.545128	0.808176	0.004367	-0.032470	-0.018910
109	0.548423	0.005000	-0.528564	0.068082	-10.466682	-0.495684	-0.544938	0.808198	0.007621	-0.048619	-0.015587
110	0.553423	0.005000	-0.424805	0.028438	-10.466278	-0.496127	-0.545381	0.807826	-0.017087	-0.032074	-0.008153
111	0.558423	0.005000	-0.639038	0.000000	-10.387402	-0.496571	-0.545825	0.807455	-0.018907	-0.043766	-0.020614
112	0.563423	0.005000	-0.470880	-0.078480	-10.320120	-0.497015	-0.546269	0.807083	-0.021797	-0.027541	-0.012198
113	0.568423	0.005000	-0.611934	-0.050907	-10.343454	-0.497458	-0.546712	0.806711	-0.022440	-0.034511	-0.009235
114	0.573423	0.005000	-0.588600	-0.066550	-10.449770	-0.497902	-0.547156	0.806340	-0.006632	-0.034132	-0.007213
115	0.578423	0.005000	-0.534774	0.039240	-10.491666	-0.498346	-0.547599	0.805968	-0.010573	-0.031103	-0.009376
116	0.583423	0.005000	-0.615443	0.000000	-10.398600	-0.498789	-0.548043	0.805597	0.002572	-0.047384	-0.002182
117	0.588423	0.005000	-0.641460	0.000000	-10.398600	-0.499233	-0.548486	0.805225	-0.002931	-0.031869	-0.018444
118	0.593423	0.005000	-0.562419	0.052362	-10.372482	-0.499677	-0.548930	0.804854	-0.000925	-0.034594	-0.011885
119	0.598423	0.005000	-0.706320	0.026913	-10.307793	-0.500120	-0.549374	0.804482	-0.014815	-0.021788	-0.012581
120	0.603423	0.005000	-0.653221	0.064621	-10.412459	-0.500564	-0.549817	0.804111	-0.013609	-0.036716	-0.018740
121	0.608423	0.005000	-0.669699	0.000000	-10.356741	-0.501008	-0.550261	0.803739	-0.008870	-0.042453	-0.016802
122	0.613423	0.005000	-0.627840	0.000000	-10.334486	-0.501451	-0.550704	0.803368	-0.017973	-0.045881	-0.015463
123	0.618423	0.005000	-0.574014	0.043757	-10.373946	-0.501091	-0.550947	0.803670	-0.000171	-0.053449	-0.005778
124	0.623423	0.005000	-0.570094	0.093473	-10.392860	-0.500647	-0.551169	0.804042	-0.006365	-0.023119	-0.005277
125	0.628423	0.005000	-0.636290	0.063085	-10.383205	-0.500203	-0.551391	0.804413	-0.018109	-0.019437	-0.012213
126	0.633423	0.005000	-0.557014	0.039240	-10.422047	-0.499759	-0.551613	0.804785	-0.014567	-0.031617	-0.014809
127	0.638423	0.005000	-0.557264	0.125530	-10.406410	-0.499315	-0.551835	0.805157	-0.017103	-0.034814	-0.016484
128	0.643423	0.005000	-0.697192	-0.006995	-10.444835	-0.498871	-0.552057	0.805528	-0.010986	-0.048803	-0.006256
129	0.648423	0.005000	-0.605124	-0.033048	-10.359360	-0.498428	-0.552278	0.805900	-0.004577	-0.040520	-0.011187
130	0.653423	0.005000	-0.571678	0.056162	-10.398600	-0.497984	-0.552500	0.806272	-0.008012	-0.047189	-0.004646
131	0.658423	0.005000	-0.600505	-0.005143	-10.494128	-0.497540	-0.552722	0.806643	-0.015337	-0.029662	-0.009849
132	0.663423	0.005000	-0.597235	0.039240	-10.437840	-0.497096	-0.552944	0.807015	-0.023143	-0.031061	-0.018303
133	0.668423	0.005000	-0.645493	-0.035305	-10.498667	-0.496652	-0.553166	0.807387	-0.029016	-0.025964	-0.007947
134	0.673423	0.005000	-0.506983	-0.042377	-10.380548	-0.496208	-0.553388	0.807758	-0.026542	-0.028020	-0.021502
135	0.678423	0.005000	-0.646292	0.036904	-10.359360	-0.495764	-0.553610	0.808130	-0.015429	-0.038142	-0.008663
136	0.683423	0.005000	-0.590632	0.136324	-10.322152	-0.495572	-0.553378	0.808220	-0.008051	-0.026298	-0.002986
137	0.688423	0.005000	-0.667080	0.038034	-10.340343	-0.495683	-0.552602	0.807973	-0.017241	-0.038474	-0.011617
138	0.693423	0.005000	-0.667080	0.000878	-10.377663	-0.495794	-0.551825	0.807725	-0.009931	-0.031339	-0.011477
139	0.698423	0.005000	-0.608338	0.078558	-10.477080	-0.495905	-0.551048	0.807477	-0.014654	-0.028224	-0.020020
140	0.703423	0.005000	-0.627586	0.058733	-10.457587	-0.496016	-0.550272	0.807229	0.001789	-0.027832	-0.008409
141	0.708423	0.005000	-0.589679	0.116641	-10.437840	-0.496127	-0.549495	0.806982	-0.022471	-0.031590	-0.019569
142	0.713423	0.005000	-0.646770	0.138030	-10.477080	-0.496238	-0.548719	0.806734	-0.013147	-0.039619	-0.011299
143	0.718423	0.005000	-0.590796	0.020718	-10.419318	-0.496349	-0.547942	0.806486	-0.010419	-0.034589	-0.008031
144	0.723423	0.005000	-0.609717	0.039240	-10.377483	-0.496460	-0.547165	0.806238	-0.001155	-0.044105	-0.008158
145	0.728423	0.005000	-0.524692	0.000000	-10.377297	-0.496571	-0.546389	0.805991	-0.006139	-0.038146	-0.000700
146	0.733423	0.005000	-0.613678	-0.017801	-10.337921	-0.496682	-0.545612	0.805743	-0.008212	-0.027941	-0.019974
147	0.738423	0.005000	-0.649687	0.000000	-10.354906	-0.496793	-0.544836	0.805495	-0.015464	-0.033768	-0.007895
148	0.743423	0.005000	-0.600342	0.044492	-10.263886	-0.496904	-0.544059	0.805247	-0.009637	-0.021326	-0.013266
149	0.748423	0.005000	-0.442179	0.084534	-10.460487	-0.497013	-0.543283	0.804995	-0.016092	-0.040948	-0.018172
150	0.753423	0.005000	-0.532962	0.117720	-10.437840	-0.495904	-0.542839	0.802270	-0.009824	-0.030838	-0.014446
151	0.758423	0.005000	-0.533375	0.071210	-10.437840	-0.494795	-0.542396	0.799546	-0.009590	-0.030739	-0.006956
152	0.763423	0.005000	-0.588600	0.133585	-10.508811	-0.493686	-0.541952	0.796821	0.016777	-0.036523	-0.003458
153	0.768423	0.005000	-0.659928	0.015464	-10.398600	-0.492577	-0.541508	0.794097	-0.000313	-0.031230	-0.010960
154	0.773423	0.005000	-0.549360	-0.039240	-10.350629	-0.491468	-0.541065	0.791372	-0.019497	-0.035435	-0.008772
155	0.778423	0.005000	-0.612998	0.000000	-10.256482	-0.490359	-0.540621	0.788647	-0.010361	-0.027706	-0.014758
156	0.783423	0.005000	-0.574171	0.014429	-10.344931	-0.489250	-0.540177	0.785923	-0.022806	-0.032330	-0.015114
157	0.788423	0.005000	-0.535328	0.000000	-10.373392	-0.488141	-0.539734	0.783198	-0.025320	-0.038210	-0.002938
158	0.793423	0.005000	-0.588600	0.013937	-10.398600	-0.487032	-0.539290	0.780474	-0.011050	-0.031621	-0.010340
159	0.798423	0.005000	-0.575071	-0.078480	-10.385071	-0.485923	-0.538846	0.777749	-0.012546	-0.040939	0.001597
160	0.803423	0.005000	-0.588741	-0.026113	-10.385473	-0.484814	-0.538403	0.775025	-0.005785	-0.034554	-0.013717
161	0.808423	0.005000	-0.615110	0.078480	-10.267100	-0.483705	-0.537959	0.772300	-0.004170	-0.039157	-0.014479
162	0.813423	0.005000	-0.627840	0.090957	-10.293357	-0.482596	-0.537515	0.769576	-0.031437	-0.033413	-0.011263
163	0.818423	0.005000	-0.573488	0.015112	-10.437840	-0.482150	-0.536891	0.768400	-0.016972	-0.038410	-0.015192
164	0.823423	0.005000	-0.588600	0.039240	-10.421934	-0.482261	-0.536114	0.768524	-0.007632	-0.039736	-0.010172
165	0.828423	0.005000	-0.655479	0.101682	-10.320120	-0.482372	-0.535337	0.768648	-0.001638	-0.045198	-0.007298
166	0.833423	0.005000	-0.650236	0.117720	-10.387402	-0.482483	-0.534561	0.768772	-0.003908	-0.052260	-0.004638
167	0.838423	0.005000	-0.688660	0.135380	-10.370150	-0.482594	-0.533784	0.768896	-0.013620	-0.032724	-0.009691
168	0.843423	0.005000	-0.570409	0.110053	-10.416791	-0.482705	-0.533008	0.769020	-0.015563	-0.038532	-0.013930
169	0.848423	0.005000	-0.627840	0.000000	-10.290992	-0.482816	-0.532231	0.769144	-0.018490	-0.040298	-0.016312
170	0.853423	0.005000	-0.832067	0.067396	-9.999192	-0.482927	-0.531454	0.769268	-0.021261	-0.035758	-0.013101
171	0.858423	0.005000	-0.746156	-0.185347	-10.152903	-0.483038	-0.530678	0.769392	-0.004512	-0.038744	0.002308
172	0.863423	0.005000	-0.676345	-0.057770	-10.389335	-0.483149	-0.529901	0.769516	-0.026172	-0.022085	-0.003143
173	0.868423	0.005000	-0.479849	0.000000	-10.268546	-0.483259	-0.529125	0.769640	0.016966	-0.042768	-0.015089
174	0.873423	0.005000	-0.658524	0.069924	-10.359360	-0.483370	-0.528348	0.769764	-0.014453	-0.032254	-0.009297
175	0.878423	0.005000	-0.619308	0.117720	-10.477080	-0.483481	-0.527571	0.769887	-0.012911	-0.033672	-0.020720
176	0.883423	0.005000	-0.573769	0.031104	-10.374191	-0.483572	-0.526917	0.769977	-0.019548	-0.040723	-0.004409
177	0.888423	0.005000	-0.714632	0.007732	-10.398600	-0.483461	-0.527471	0.769730	-0.021275	-0.028100	-0.013960
178	0.893423	0.005000	-0.674493	0.000000	-10.430427	-0.483350	-0.528026	0.769482	-0.010192	-0.032037	-0.009037
179	0.898423	0.005000	-0.588600	-0.071077	-10.406003	-0.483239	-0.528580	0.769234	-0.018473	-0.043090	-0.008907
180	0.903423	0.005000	-0.503112	-0.007008	-10.320120	-0.483128	-0.529135	0.768987	-0.005726	-0.042291	-0.014386
181	0.908423	0.005000	-0.549360	0.085083	-10.398600	-0.483018	-0.529689	0.768739	-0.005164	-0.016213	0.000284
182	0.913423	0.005000	-0.621570	0.150690	-10.365630	-0.482907	-0.530244	0.768491	-0.021499	-0.027764	-0.011892
183	0.918423	0.005000	-0.582727	0.117720	-10.308373	-0.482796	-0.530798	0.768244	-0.013398	-0.037598	-0.016167
184	0.923423	0.005000	-0.588600	0.050998	-10.347602	-0.482685	-0.531352	0.767996	-0.019884	-0.033570	-0.014448
185	0.928423	0.005000	-0.583126	-0.028293	-10.443314	-0.482574	-0.531907	0.767748	-0.012997	-0.034267	-0.006751
186	0.933423	0.005000	-0.559492	0.039240	-10.369492	-0.482463	-0.532461	0.767501	-0.017818	-0.035736	0.000041
187	0.938423	0.005000	-0.514792	0.009344	-10.364032	-0.482352	-0.533016	0.767253	-0.012512	-0.035645	0.001869
188	0.943423	0.005000	-0.549360	-0.034922	-10.328755	-0.482242	-0.533570	0.767005	-0.002466	-0.037710	-0.000715
189	0.948423	0.005000	-0.545453	0.003907	-10.430027	-0.482131	-0.534125	0.766758	-0.011288	-0.025180	-0.017768
190	0.953423	0.005000	-0.545423	0.035303	-10.320120	-0.482090	-0.534047	0.766745	-0.004856	-0.048897	-0.006126
191	0.958423	0.005000	-0.592143	0.010629	-10.434297	-0.482090	-0.533603	0.766869	-0.017157	-0.040823	-0.005248
192	0.963423	0.005000	-0.552497	0.003137	-10.437840	-0.482090	-0.533160	0.766993	-0.003222	-0.026504	-0.002001
193	0.968423	0.005000	-0.582172	-0.150532	-10.431412	-0.482090	-0.532716	0.767117	-0.017511	-0.040250	0.000855
194	0.973423	0.005000	-0.622225	-0.044855	-10.437840	-0.482090	-0.532273	0.767241	-0.008999	-0.035763	-0.007553
195	0.978423	0.005000	-0.632669	-0.039240	-10.398600	-0.482090	-0.531829	0.767364	-0.002027	-0.041066	-0.003346
196	0.983423	0.005000	-0.553424	0.078480	-10.396568	-0.482090	-0.531385	0.767488	-0.015218	-0.028370	-0.005707
197	0.988423	0.005000	-0.704235	0.080565	-10.512150	-0.482090	-0.530942	0.767612	-0.012948	-0.045750	-0.012784
198	0.993423	0.005000	-0.707998	0.000000	-10.441196	-0.482090	-0.530498	0.767736	-0.011747	-0.038498	-0.011630
199	0.998423	0.005000	-0.553217	0.074623	-10.401171	-0.482090	-0.530055	0.767860	-0.012255	-0.023714	-0.009565
200	1.003423	0.005000	-0.588600	0.039240	-10.437840	-0.482090	-0.529611	0.767983	-0.000590	-0.032012	-0.007240
201	1.008423	0.005000	-0.666128	0.040192	-10.360312	-0.482090	-0.529168	0.768107	-0.003313	-0.032423	-0.010843
202	1.013423	0.005000	-0.510279	-0.078321	-10.320041	-0.482090	-0.528724	0.768231	-0.006968	-0.042258	-0.008772
203	1.018423	0.005000	-0.509791	-0.000329	-10.320449	-0.482109	-0.528377	0.768333	-0.008825	-0.016238	-0.014740
204	1.023423	0.005000	-0.510120	-0.037766	-10.360097	-0.482220	-0.528488	0.768333	-0.015600	-0.023590	-0.023224
205	1.028423	0.005000	-0.627840	0.039240	-10.398600	-0.482331	-0.528599	0.768333	-0.016105	-0.030015	-0.019382
206	1.033423	0.005000	-0.624649	0.195136	-10.320120	-0.482442	-0.528710	0.768333	-0.013154	-0.037738	-0.017381
207	1.038423	0.005000	-0.511578	0.079938	-10.397142	-0.482553	-0.528821	0.768333	-0.001873	-0.047195	0.002992
208	1.043423	0.005000	-0.549360	0.115854	-10.361226	-0.482664	-0.528932	0.768333	-0.011040	-0.041078	-0.008526
209	1.048423	0.005000	-0.505603	0.078480	-10.398600	-0.482775	-0.529043	0.768333	-0.017803	-0.045282	-0.003463
210	1.053423	0.005000	-0.396813	0.078480	-10.287499	-0.482886	-0.529154	0.768333	-0.018838	-0.044586	-0.001874
211	1.058423	0.005000	-0.549360	0.078480	-10.396012	-0.482997	-0.529265	0.768333	-0.020442	-0.041745	-0.018708
212	1.063423	0.005000	-0.627840	0.078480	-10.477080	-0.483108	-0.529376	0.768333	-0.020674	-0.025258	-0.004985
213	1.068423	0.005000	-0.627840	0.035852	-10.401988	-0.483219	-0.529487	0.768333	-0.019763	-0.034026	-0.009039
214	1.073423	0.005000	-0.559408	0.006699	-10.362709	-0.483329	-0.529598	0.768333	-0.006140	-0.040340	-0.005214
215	1.078423	0.005000	-0.584838	0.078480	-10.430316	-0.483440	-0.529709	0.768333	-0.009827	-0.040981	-0.012047
216	1.083423	0.005000	-0.444009	0.008246	-10.402723	-0.483551	-0.529820	0.768333	-0.003689	-0.044265	-0.009815
217	1.088423	0.005000	-0.479914	0.108686	-10.442357	-0.483422	-0.529931	0.768064	0.002094	-0.027402	-0.008141
218	1.093423	0.005000	-0.562837	0.073988	-10.428855	-0.483200	-0.530042	0.767693	-0.010693	-0.033239	-0.018796
219	1.098423	0.005000	-0.514966	0.068788	-10.324966	-0.482978	-0.530153	0.767321	-0.010673	-0.039574	-0.013848
220	1.103423	0.005000	-0.544108	0.039240	-10.466576	-0.482756	-0.530264	0.766950	-0.020874	-0.023277	-0.019151
221	1.108423	0.005000	-0.549360	0.044886	-10.437840	-0.482534	-0.530375	0.766578	-0.015738	-0.044363	-0.005941
222	1.113423	0.005000	-0.554995	0.044875	-10.432205	-0.482313	-0.530485	0.766207	-0.016495	-0.029466	-0.006277
223	1.118423	0.005000	-0.633888	0.027144	-10.404648	-0.482091	-0.530596	0.765835	-0.007688	-0.042605	-0.014635
224	1.123423	0.005000	-0.594981	-0.006381	-10.398600	-0.481869	-0.530707	0.765464	-0.007654	-0.041882	0.006775
225	1.128423	0.005000	-0.653529	0.039240	-10.320120	-0.481647	-0.530818	0.765092	-0.006571	-0.032448	-0.004419
226	1.133423	0.005000	-0.478060	0.014360	-10.405780	-0.481425	-0.530929	0.764721	-0.008142	-0.040364	-0.003348
227	1.138423	0.005000	-0.556948	0.063304	-10.453016	-0.481204	-0.531040	0.764349	-0.028508	-0.024157	-0.014161
228	1.143423	0.005000	-0.588600	0.039240	-10.532749	-0.480982	-0.531151	0.763978	-0.019452	-0.048553	-0.014704
229	1.148423	0.005000	-0.510120	0.070480	-10.304119	-0.480760	-0.531261	0.763606	-0.008582	-0.030950	-0.014382
230	1.153423	0.005000	-0.557773	-0.022414	-10.350947	-0.480626	-0.531314	0.763399	-0.009355	-0.031539	0.002313
231	1.158423	0.005000	-0.518837	0.000000	-10.289597	-0.480737	-0.531203	0.763646	-0.002132	-0.030685	-0.010058
232	1.163423	0.005000	-0.561264	0.066576	-10.220624	-0.480848	-0.531092	0.763894	-0.016767	-0.032537	-0.014291
233	1.168423	0.005000	-0.480023	0.099433	-10.259927	-0.480959	-0.530981	0.764142	-0.011038	-0.041930	-0.015314
234	1.173423	0.005000	-0.588600	0.048796	-10.398600	-0.481070	-0.530870	0.764390	-0.018852	-0.030809	-0.010701
235	1.178423	0.005000	-0.520089	0.019303	-10.427871	-0.481181	-0.530759	0.764638	-0.019770	-0.036999	-0.014305
236	1.183423	0.005000	-0.578359	0.000000	-10.379843	-0.481292	-0.530648	0.764886	-0.009477	-0.035533	-0.001519
237	1.188423	0.005000	-0.667080	0.060530	-10.416550	-0.481403	-0.530537	0.765133	-0.014505	-0.034959	-0.006622
238	1.193423	0.005000	-0.695621	0.156960	-10.366503	-0.481514	-0.530426	0.765381	0.000450	-0.038248	-0.011329
239	1.198423	0.005000	-0.633745	0.106608	-10.426728	-0.481625	-0.530315	0.765629	-0.010491	-0.025783	-0.015458
240	1.203423	0.005000	-0.616469	0.067109	-10.370731	-0.481736	-0.530205	0.765877	-0.007378	-0.030137	-0.008844
241	1.208423	0.005000	-0.627840	0.090254	-10.386826	-0.481847	-0.530094	0.766125	-0.011777	-0.037159	-0.002539
242	1.213423	0.005000	-0.510120	0.039240	-10.317424	-0.481958	-0.529983	0.766373	-0.017674	-0.027526	-0.014076
243	1.218423	0.005000	-0.510120	0.093211	-10.386345	-0.482069	-0.529872	0.766621	-0.000539	-0.039305	-0.006002
244	1.223423	0.005000	-0.535119	-0.012500	-10.359360	-0.482180	-0.530031	0.766768	-0.001351	-0.039086	-0.003246
245	1.228423	0.005000	-0.640742	-0.065578	-10.411502	-0.482291	-0.530253	0.766891	-0.010306	-0.040539	-0.010000
246	1.233423	0.005000	-0.653770	0.065170	-10.385290	-0.482402	-0.530475	0.767015	-0.019538	-0.034494	-0.010718
247	1.238423	0.005000	-0.627840	0.039240	-10.333517	-0.482513	-0.530697	0.767139	-0.011165	-0.027736	-0.014899
248	1.243423	0.005000	-0.655429	-0.013794	-10.359360	-0.482624	-0.530918	0.767263	-0.025585	-0.038275	-0.013112
249	1.248423	0.005000	-0.678258	0.000000	-10.423809	-0.482734	-0.531140	0.767387	-0.014098	-0.035153	-0.010228
250	1.253423	0.005000	-0.592676	0.028877	-10.373799	-0.482845	-0.531362	0.767510	-0.013007	-0.040835	-0.003623
251	1.258423	0.005000	-0.588600	0.039240	-10.408167	-0.482956	-0.531584	0.767634	-0.008839	-0.024514	-0.008646
252	1.263423	0.005000	-0.651842	0.054478	-10.483555	-0.483067	-0.531806	0.767758	-0.008700	-0.050360	-0.013593
253	1.268423	0.005000	-0.564710	-0.015350	-10.407140	-0.483178	-0.532027	0.767882	0.001473	-0.040327	-0.007562
254	1.273423	0.005000	-0.643603	0.015429	-10.343597	-0.483289	-0.532249	0.768005	-0.013244	-0.035203	-0.010570
255	1.278423	0.005000	-0.508771	-0.023274	-10.336086	-0.483400	-0.532471	0.768129	-0.015781	-0.047098	-0.007728
256	1.283423	0.005000	-0.425134	0.088341	-10.405106	-0.483510	-0.532693	0.768253	-0.018002	-0.023991	-0.010281
257	1.288423	0.005000	-0.569837	0.006254	-10.421347	-0.483857	-0.533072	0.769123	-0.009628	-0.035896	-0.007499
258	1.293423	0.005000	-0.650174	-0.039240	-10.381694	-0.484633	-0.533737	0.771352	-0.003993	-0.026606	-0.009796
259	1.298423	0.005000	-0.615795	0.017095	-10.364410	-0.485410	-0.534402	0.773581	-0.008664	-0.042583	-0.008881
260	1.303423	0.005000	-0.601847	0.078480	-10.420344	-0.486186	-0.535068	0.775810	-0.000303	-0.031542	-0.004318
261	1.308423	0.005000	-0.688684	0.139324	-10.398600	-0.486962	-0.535733	0.778039	-0.005108	-0.034028	-0.014447
262	1.313423	0.005000	-0.627840	0.093385	-10.398600	-0.487739	-0.536399	0.780268	0.001654	-0.034123	-0.008051
263	1.318423	0.005000	-0.611744	0.096925	-10.359360	-0.488515	-0.537064	0.782497	-0.028111	-0.026969	-0.011407
264	1.323423	0.005000	-0.687696	0.055873	-10.379976	-0.489291	-0.537729	0.784726	-0.021064	-0.033563	-0.007862
265	1.328423	0.005000	-0.568392	0.117720	-10.418808	-0.490068	-0.538395	0.786956	-0.010000	-0.028662	-0.002938
266	1.333423	0.005000	-0.608408	0.137528	-10.359736	-0.490844	-0.539060	0.789185	0.000209	-0.030478	0.000433
267	1.338423	0.005000	-0.588600	0.137552	-10.359360	-0.491620	-0.539726	0.791414	-0.001096	-0.040605	-0.009093
268	1.343423	0.005000	-0.589362	0.039240	-10.417839	-0.492397	-0.540391	0.793643	-0.009165	-0.025660	-0.015920
269	1.348423	0.005000	-0.646666	0.098894	-10.337359	-0.493173	-0.541056	0.795872	-0.014679	-0.038493	-0.020421
270	1.353423	0.005000	-0.607279	0.078480	-10.357478	-0.493949	-0.541722	0.798101	-0.023898	-0.032382	-0.014806
271	1.358423	0.005000	-0.546679	0.060200	-10.419560	-0.493533	-0.541394	0.796669	-0.022728	-0.042973	-0.016546
272	1.363423	0.005000	-0.592082	0.021361	-10.380721	-0.492979	-0.540950	0.794811	-0.011904	-0.040505	-0.005067
273	1.368423	0.005000	-0.606283	0.039240	-10.380917	-0.492424	-0.540506	0.792953	-0.015135	-0.036041	-0.008853
274	1.373423	0.005000	-0.532073	0.017287	-10.337407	-0.491870	-0.540063	0.791096	-0.000985	-0.046221	-0.002319
275	1.378423	0.005000	-0.566234	0.078480	-10.381726	-0.491315	-0.539619	0.789238	-0.004515	-0.027647	-0.014754
276	1.383423	0.005000	-0.621536	0.078480	-10.342892	-0.490760	-0.539176	0.787381	-0.016508	-0.033733	-0.013969
277	1.388423	0.005000	-0.627840	-0.022898	-10.405156	-0.490206	-0.538732	0.785523	-0.021380	-0.029477	-0.009331
278	1.393423	0.005000	-0.674433	0.069889	-10.375304	-0.489651	-0.538288	0.783665	-0.017175	-0.033877	-0.012002
279	1.398423	0.005000	-0.682622	0.078480	-10.383058	-0.489097	-0.537845	0.781808	-0.006943	-0.052413	-0.001706
280	1.403423	0.005000	-0.603735	0.039240	-10.383465	-0.488542	-0.537401	0.779950	-0.015294	-0.045017	-0.006249
281	1.408423	0.005000	-0.612919	-0.048637	-10.374281	-0.487988	-0.536958	0.778093	-0.021651	-0.046445	-0.006591
282	1.413423	0.005000	-0.603109	-0.053749	-10.373869	-0.487433	-0.536514	0.776235	-0.007636	-0.027560	-0.006678
283	1.418423	0.005000	-0.592599	0.035241	-10.423427	-0.486879	-0.536070	0.774377	-0.013979	-0.027485	-0.018677
284	1.423423	0.005000	-0.653075	0.092485	-10.320120	-0.486567	-0.535675	0.773116	-0.005905	-0.024654	-0.004409
285	1.428423	0.005000	-0.627840	0.013778	-10.384822	-0.486567	-0.535342	0.772621	-0.013990	-0.029409	-0.013639
286	1.433423	0.005000	-0.576091	0.012509	-10.346851	-0.486567	-0.535009	0.772125	-0.001268	-0.041818	-0.007363
287	1.438423	0.005000	-0.510120	0.000000	-10.385928	-0.486567	-0.534677	0.771629	-0.016959	-0.043288	-0.010996
288	1.443423	0.005000	-0.510120	-0.012876	-10.437840	-0.486567	-0.534344	0.771134	-0.005329	-0.040317	-0.019065
289	1.448423	0.005000	-0.510120	-0.039240	-10.543081	-0.486567	-0.534011	0.770638	-0.020488	-0.032786	-0.017061
290	1.453423	0.005000	-0.588600	0.068829	-10.464857	-0.486567	-0.533678	0.770143	-0.025278	-0.033547	-0.023654
291	1.458423	0.005000	-0.584805	0.074685	-10.371175	-0.486567	-0.533345	0.769647	-0.016328	-0.045675	-0.010144
292	1.463423	0.005000	-0.655333	0.078480	-10.386853	-0.486567	-0.533012	0.769152	-0.017175	-0.035009	-0.007868
293	1.468423	0.005000	-0.470880	0.011350	-10.504970	-0.486567	-0.532679	0.768656	-0.006097	-0.041141	0.006623
294	1.473423	0.005000	-0.734613	0.095826	-10.398600	-0.486567	-0.532346	0.768161	-0.001302	-0.034144	0.001785
295	1.478423	0.005000	-0.695648	0.042686	-10.398600	-0.486567	-0.532014	0.767665	-0.008068	-0.041862	-0.013647
296	1.483423	0.005000	-0.629681	0.000000	-10.369630	-0.486567	-0.531681	0.767170	-0.017469	-0.034783	-0.015846
297	1.488423	0.005000	-0.657222	0.137054	-10.369218	-0.486567	-0.531348	0.766674	-0.033709	-0.030073	-0.013244
298	1.493423	0.005000	-0.637301	0.018922	-10.458158	-0.486239	-0.531343	0.766423	-0.014386	-0.045240	-0.001216
299	1.498423	0.005000	-0.598010	0.029830	-10.477080	-0.485906	-0.531343	0.766175	-0.013131	-0.020890	0.001308
300	1.503423	0.005000	-0.706320	0.069466	-10.398600	-0.485574	-0.531343	0.765927	-0.006352	-0.045369	-0.012893
301	1.508423	0.005000	-0.675690	0.017220	-10.320120	-0.485241	-0.531343	0.765680	-0.008365	-0.031647	-0.003171
302	1.513423	0.005000	-0.572170	0.070265	-10.421410	-0.484908	-0.531343	0.765432	-0.012772	-0.027463	-0.022033
303	1.518423	0.005000	-0.494302	0.062866	-10.437840	-0.484576	-0.531343	0.765184	-0.001207	-0.036881	-0.012806
304	1.523423	0.005000	-0.581108	-0.016763	-10.351868	-0.484243	-0.531343	0.764936	-0.021224	-0.030355	-0.017552
305	1.528423	0.005000	-0.574409	0.000000	-10.327216	-0.483911	-0.531343	0.764689	-0.017470	-0.039781	-0.013374
306	1.533423	0.005000	-0.497611	0.058431	-10.366043	-0.483578	-0.531343	0.764441	-0.007983	-0.037438	0.001308
307	1.538423	0.005000	-0.510120	0.045918	-10.424483	-0.483245	-0.531343	0.764193	0.002592	-0.032354	-0.010549
308	1.543423	0.005000	-0.601147	0.045513	-10.392327	-0.482913	-0.531343	0.763946	-0.017099	-0.027212	-0.008391
309	1.548423	0.005000	-0.521878	0.045119	-10.437840	-0.482580	-0.531343	0.763698	-0.023038	-0.034235	-0.023688
310	1.553423	0.005000	-0.515594	0.039240	-10.471606	-0.482247	-0.531343	0.763450	-0.016540	-0.026860	-0.004643
311	1.558423	0.005000	-0.549360	0.088734	-10.354233	-0.482031	-0.531343	0.763464	0.004196	-0.021127	-0.007900
312	1.563423	0.005000	-0.510120	0.078480	-10.389139	-0.481920	-0.531343	0.763712	-0.001533	-0.041049	-0.003342
313	1.568423	0.005000	-0.435958	0.004318	-10.293833	-0.481809	-0.531343	0.763959	-0.010895	-0.044446	-0.005333
314	1.573423	0.005000	-0.688943	0.113376	-10.324464	-0.481699	-0.531343	0.764207	-0.009381	-0.034901	-0.011527
315	1.578423	0.005000	-0.741623	0.039240	-10.473143	-0.481588	-0.531343	0.764455	-0.013332	-0.032701	-0.009751
316	1.583423	0.005000	-0.517206	0.082023	-10.320120	-0.481477	-0.531343	0.764703	-0.022324	-0.022474	-0.013616
317	1.588423	0.005000	-0.539950	0.006273	-10.320120	-0.481366	-0.531343	0.764951	-0.013590	-0.032987	-0.010850
318	1.593423	0.005000	-0.658794	0.039240	-10.247164	-0.481255	-0.531343	0.765199	-0.012828	-0.025551	-0.002990
319	1.598423	0.005000	-0.588600	0.002365	-10.356995	-0.481144	-0.531343	0.765446	-0.006367	-0.039517	-0.006283
320	1.603423	0.005000	-0.512072	0.043145	-10.437840	-0.481033	-0.531343	0.765694	-0.000866	-0.045726	-0.007494
321	1.608423	0.005000	-0.547804	0.040796	-10.398600	-0.480922	-0.531343	0.765942	-0.010021	-0.028586	-0.018812
322	1.613423	0.005000	-0.626240	0.193001	-10.397000	-0.480811	-0.531343	0.766190	-0.006217	-0.031951	-0.016479
323	1.618423	0.005000	-0.667080	0.041654	-10.318913	-0.480700	-0.531343	0.766438	-0.011614	-0.028774	-0.021416
324	1.623423	0.005000	-0.513319	0.077680	-10.320120	-0.480605	-0.531326	0.766676	-0.017934	-0.040247	-0.008183
325	1.628423	0.005000	-0.470880	0.040431	-10.281277	-0.480716	-0.531104	0.766800	-0.022228	-0.030074	-0.007308
326	1.633423	0.005000	-0.588600	0.039240	-10.398600	-0.480827	-0.530883	0.766924	-0.016953	-0.031578	-0.006749
327	1.638423	0.005000	-0.666265	0.039240	-10.360175	-0.480938	-0.530661	0.767048	-0.001826	-0.038790	-0.002838
328	1.643423	0.005000	-0.589267	0.000667	-10.476080	-0.481049	-0.530439	0.767172	-0.017244	-0.031509	-0.017320
329	1.648423	0.005000	-0.472372	0.117720	-10.320866	-0.481160	-0.530217	0.767296	-0.010042	-0.040509	-0.015192
330	1.653423	0.005000	-0.626697	0.120006	-10.396314	-0.481271	-0.529995	0.767419	-0.022051	-0.036409	-0.012951
331	1.658423	0.005000	-0.587044	0.075369	-10.397044	-0.481382	-0.529773	0.767543	-0.016910	-0.041359	-0.015923
332	1.663423	0.005000	-0.629793	0.001953	-10.404460	-0.481493	-0.529551	0.767667	-0.007378	-0.037612	-0.006484
333	1.668423	0.005000	-0.551697	-0.002337	-10.511646	-0.481604	-0.529329	0.767791	-0.015904	-0.023379	-0.019503
334	1.673423	0.005000	-0.588600	0.002744	-10.404087	-0.481715	-0.529107	0.767915	-0.002688	-0.035593	-0.009326
335	1.678423	0.005000	-0.660807	-0.003137	-10.473943	-0.481826	-0.528885	0.768039	-0.017642	-0.027824	-0.018937
336	1.683423	0.005000	-0.592144	0.110631	-10.430751	-0.481937	-0.528664	0.768162	-0.015344	-0.034006	-0.014501
337	1.688423	0.005000	-0.524152	0.071464	-10.395092	-0.482048	-0.528442	0.768286	0.005744	-0.028258	-0.002593
338	1.693423	0.005000	-0.502278	-0.035319	-10.359360	-0.482090	-0.528427	0.768642	0.007768	-0.039424	-0.012019
339	1.698423	0.005000	-0.510120	-0.008532	-10.433574	-0.482090	-0.528538	0.769137	-0.001405	-0.047177	-0.005353
340	1.703423	0.005000	-0.505446	-0.073806	-10.398600	-0.482090	-0.528649	0.769632	-0.006463	-0.032987	-0.014576
341	1.708423	0.005000	-0.564598	-0.034161	-10.408759	-0.482090	-0.528760	0.770128	-0.007309	-0.038776	-0.021828
342	1.713423	0.005000	-0.583126	0.061134	-10.387653	-0.482090	-0.528871	0.770623	-0.008935	-0.032722	-0.022282
343	1.718423	0.005000	-0.554821	0.112259	-10.437840	-0.482090	-0.528982	0.771119	-0.022431	-0.036057	-0.020656
344	1.723423	0.005000	-0.561107	0.060860	-10.465333	-0.482090	-0.529093	0.771614	-0.014228	-0.043533	-0.005521
345	1.728423	0.005000	-0.687696	0.006208	-10.353152	-0.482090	-0.529204	0.772109	-0.016329	-0.030934	-0.015364
346	1.733423	0.005000	-0.647648	0.039240	-10.378792	-0.482090	-0.529315	0.772605	0.005882	-0.043348	-0.001856
347	1.738423	0.005000	-0.581592	0.046248	-10.373375	-0.482090	-0.529426	0.773100	-0.017643	-0.026758	-0.012838
348	1.743423	0.005000	-0.588600	0.031825	-10.344529	-0.482090	-0.529536	0.773595	-0.010406	-0.033711	-0.013659
349	1.748423	0.005000	-0.549360	-0.007810	-10.327930	-0.482090	-0.529647	0.774091	-0.016969	-0.040797	-0.016040
350	1.753423	0.005000	-0.572948	0.039240	-10.367297	-0.482090	-0.529758	0.774586	-0.016404	-0.039401	-0.012936
351	1.758423	0.005000	-0.518260	0.000000	-10.249780	-0.482090	-0.529906	0.774939	-0.008463	-0.034664	-0.003371
352	1.763423	0.005000	-0.588600	0.039240	-10.328664	-0.482090	-0.530238	0.774567	-0.012853	-0.030454	-0.009127
353	1.768423	0.005000	-0.658140	0.039240	-10.398600	-0.482090	-0.530571	0.774196	-0.001280	-0.037258	-0.006630
354	1.773423	0.005000	-0.627840	0.042605	-10.386266	-0.482090	-0.530903	0.773825	-0.016973	-0.030875	-0.006384
355	1.778423	0.005000	-0.638936	-0.059717	-10.477080	-0.482090	-0.531236	0.773453	-0.008109	-0.032718	-0.011478
356	1.783423	0.005000	-0.510120	0.039240	-10.378706	-0.482090	-0.531568	0.773082	-0.006999	-0.032571	-0.013354
357	1.788423	0.005000	-0.588600	0.000000	-10.456942	-0.482090	-0.531901	0.772711	-0.026391	-0.038699	-0.011386
358	1.793423	0.005000	-0.588600	-0.010472	-10.291352	-0.482090	-0.532233	0.772339	-0.021368	-0.041758	-0.007953
359	1.798423	0.005000	-0.599480	-0.085080	-10.398600	-0.482090	-0.532566	0.771968	-0.012118	-0.032774	0.005853
360	1.803423	0.005000	-0.555789	0.000000	-10.331057	-0.482090	-0.532898	0.771597	0.003462	-0.048471	-0.012902
361	1.808423	0.005000	-0.521454	-0.005238	-10.297452	-0.482090	-0.533231	0.771225	-0.011464	-0.037814	-0.011591
362	1.813423	0.005000	-0.561107	0.117720	-10.343613	-0.482090	-0.533563	0.770854	-0.025890	-0.037029	-0.023033
363	1.818423	0.005000	-0.615831	0.054463	-10.398600	-0.482090	-0.533896	0.770483	-0.015039	-0.035925	-0.009369
364	1.823423	0.005000	-0.640246	0.130126	-10.386194	-0.482090	-0.534228	0.770111	-0.012813	-0.035800	-0.005892
365	1.828423	0.005000	-0.601408	0.039240	-10.372168	-0.482012	-0.534250	0.770173	-0.011287	-0.042390	-0.009026
366	1.833423	0.005000	-0.600918	0.039811	-10.385139	-0.481901	-0.534139	0.770421	-0.013411	-0.028724	0.002322
367	1.838423	0.005000	-0.679716	0.000000	-10.398600	-0.481790	-0.534029	0.770669	-0.005976	-0.029888	0.003274
368	1.843423	0.005000	-0.576758	-0.011842	-10.398600	-0.481679	-0.533918	0.770916	-0.010993	-0.039874	-0.004633
369	1.848423	0.005000	-0.482246	0.000000	-10.426474	-0.481569	-0.533807	0.771164	-0.023039	-0.027879	-0.011591
370	1.853423	0.005000	-0.495785	-0.014335	-10.320120	-0.481458	-0.533696	0.771412	-0.016424	-0.044487	-0.008294
371	1.858423	0.005000	-0.490610	-0.014742	-10.369115	-0.481347	-0.533585	0.771659	-0.012992	-0.029649	-0.014377
372	1.863423	0.005000	-0.621648	0.039240	-10.256784	-0.481236	-0.533474	0.771907	-0.011030	-0.049422	-0.016909
373	1.868423	0.005000	-0.558091	0.063225	-10.453095	-0.481125	-0.533363	0.772155	-0.010893	-0.031089	-0.003630
374	1.873423	0.005000	-0.565018	0.094138	-10.422182	-0.481014	-0.533253	0.772402	-0.017747	-0.034839	-0.020373
375	1.878423	0.005000	-0.604472	0.039240	-10.335992	-0.480903	-0.533142	0.772650	-0.017695	-0.029304	-0.014030
376	1.883423	0.005000	-0.539781	0.032546	-10.375633	-0.480792	-0.533031	0.772898	-0.023623	-0.015129	-0.014394
377	1.888423	0.005000	-0.616046	0.000000	-10.331914	-0.480681	-0.532920	0.773145	-0.021008	-0.032780	-0.012122
378	1.893423	0.005000	-0.650001	-0.044321	-10.359360	-0.480624	-0.532729	0.773213	-0.018112	-0.037252	-0.010305
379	1.898423	0.005000	-0.667080	-0.061000	-10.477080	-0.480735	-0.532285	0.772718	-0.007552	-0.045257	-0.009440
380	1.903423	0.005000	-0.610220	0.039240	-10.380980	-0.480846	-0.531841	0.772222	-0.006470	-0.034555	0.005363
381	1.908423	0.005000	-0.688303	0.138943	-10.338137	-0.480957	-0.531398	0.771727	-0.019616	-0.027524	-0.005837
382	1.913423	0.005000	-0.510120	0.039240	-10.361741	-0.481068	-0.530954	0.771232	-0.002038	-0.040096	-0.009300
383	1.918423	0.005000	-0.549360	0.039240	-10.301511	-0.481179	-0.530511	0.770736	-0.015048	-0.021573	-0.011237
384	1.923423	0.005000	-0.589823	-0.019008	-10.375922	-0.481289	-0.530067	0.770241	-0.001993	-0.032675	-0.015063
385	1.928423	0.005000	-0.549783	-0.019408	-10.398600	-0.481400	-0.529623	0.769746	-0.019449	-0.043011	0.006229
386	1.933423	0.005000	-0.529692	-0.019572	-10.418268	-0.481511	-0.529180	0.769251	-0.003663	-0.034514	-0.006969
387	1.938423	0.005000	-0.529375	0.019255	-10.398600	-0.481622	-0.528736	0.768755	-0.003614	-0.040851	-0.014788
388	1.943423	0.005000	-0.510120	0.021906	-10.340502	-0.481733	-0.528293	0.768260	-0.019022	-0.033892	-0.026397
389	1.948423	0.005000	-0.470880	0.000000	-10.359360	-0.481844	-0.527849	0.767765	-0.024842	-0.032100	-0.020416
390	1.953423	0.005000	-0.528415	0.057535	-10.359360	-0.481955	-0.527405	0.767269	-0.012174	-0.029908	-0.008436
391	1.958423	0.005000	-0.488775	0.017895	-10.437840	-0.482066	-0.526962	0.766774	-0.016320	-0.033827	-0.007559
392	1.963423	0.005000	-0.567075	0.021525	-10.363170	-0.482090	-0.527301	0.766667	-0.022088	-0.034353	-0.009935
393	1.968423	0.005000	-0.566662	0.139658	-10.437840	-0.482090	-0.527855	0.766667	-0.007859	-0.032406	-0.007181
394	1.973423	0.005000	-0.627840	0.034333	-10.432933	-0.482090	-0.528410	0.766667	-0.014599	-0.046371	-0.004317
395	1.978423	0.005000	-0.599657	-0.078480	-10.471371	-0.482090	-0.528964	0.766667	-0.020608	-0.025587	-0.015346
396	1.983423	0.005000	-0.503614	0.045746	-10.414967	-0.482090	-0.529519	0.766667	-0.004997	-0.024442	-0.008747
397	1.988423	0.005000	-0.533401	-0.023281	-10.429202	-0.482090	-0.530073	0.766667	-0.011361	-0.025530	-0.005152
398	1.993423	0.005000	-0.549360	0.054798	-10.461522	-0.482090	-0.530627	0.766667	-0.010247	-0.048534	-0.012670
399	1.998423	0.005000	-0.627840	0.015160	-10.477080	-0.482090	-0.531182	0.766667	-0.001693	-0.041719	-0.000236
400	2.003423	0.005000	-0.706320	0.053998	-10.349636	-0.482090	-0.531736	0.766667	-0.012815	-0.025532	-0.008690
401	2.008423	0.005000	-0.652555	0.053765	-10.398600	-0.482090	-0.532291	0.766667	-0.014015	-0.021474	-0.015412
402	2.013423	0.005000	-0.538375	-0.003143	-10.423712	-0.482090	-0.532845	0.766667	-0.018439	-0.021666	-0.017618
403	2.018423	0.005000	-0.624987	-0.011178	-10.412631	-0.482090	-0.533400	0.766667	-0.017776	-0.041922	-0.016057
404	2.023423	0.005000	-0.615858	0.025611	-10.372989	-0.482090	-0.533954	0.766667	-0.006740	-0.038915	-0.003985
405	2.028423	0.005000	-0.627417	0.104499	-10.346562	-0.482487	-0.534545	0.767676	-0.007278	-0.039194	-0.014448
406	2.033423	0.005000	-0.549360	0.092072	-10.359360	-0.483707	-0.535210	0.770772	-0.014355	-0.041197	-0.003056
407	2.038423	0.005000	-0.576028	0.156960	-10.411172	-0.484927	-0.535876	0.773867	-0.018655	-0.015884	-0.012595
408	2.043423	0.005000	-0.564272	0.039240	-10.398600	-0.486147	-0.536541	0.776963	-0.014568	-0.027937	-0.014823
409	2.048423	0.005000	-0.627840	0.012092	-10.386508	-0.487367	-0.537207	0.780059	-0.010992	-0.030008	-0.011451
410	2.053423	0.005000	-0.588600	-0.078480	-10.410295	-0.488587	-0.537872	0.783155	-0.026862	-0.045829	-0.015972
411	2.058423	0.005000	-0.549360	-0.055622	-10.410029	-0.489806	-0.538538	0.786251	-0.010432	-0.054332	-0.006098
412	2.063423	0.005000	-0.599621	0.011021	-10.544539	-0.491026	-0.539203	0.789347	-0.015896	-0.038200	-0.007796
413	2.068423	0.005000	-0.559980	-0.021239	-10.516320	-0.492246	-0.539868	0.792443	0.000040	-0.040638	-0.000611
414	2.073423	0.005000	-0.538794	0.096587	-10.380493	-0.493466	-0.540534	0.795539	-0.017632	-0.030728	-0.009278
415	2.078423	0.005000	-0.520283	0.127883	-10.388437	-0.494686	-0.541199	0.798635	-0.008396	-0.026309	-0.016369
416	2.083423	0.005000	-0.598355	0.176690	-10.369115	-0.495906	-0.541865	0.801731	-0.008441	-0.035410	-0.006793
417	2.088423	0.005000	-0.519597	0.106910	-10.290357	-0.497125	-0.542530	0.804827	-0.027140	-0.033205	-0.009818
418	2.093423	0.005000	-0.461816	0.051288	-10.359360	-0.498345	-0.543196	0.807922	-0.009488	-0.044268	-0.003033
419	2.098423	0.005000	-0.579566	0.018067	-10.320120	-0.497833	-0.542995	0.806076	-0.026183	-0.031488	0.002525
420	2.103423	0.005000	-0.575238	0.117720	-10.280880	-0.497057	-0.542662	0.803474	-0.014981	-0.040874	-0.007008
421	2.108423	0.005000	-0.627840	0.055701	-10.351129	-0.496280	-0.542329	0.800872	-0.005597	-0.031859	-0.017490
422	2.113423	0.005000	-0.533598	0.149134	-10.288706	-0.495504	-0.541997	0.798271	-0.015423	-0.039813	-0.014477
423	2.118423	0.005000	-0.659569	0.085991	-10.344337	-0.494727	-0.541664	0.795669	-0.014183	-0.037395	-0.007285
424	2.123423	0.005000	-0.652857	0.149849	-10.380694	-0.493950	-0.541331	0.793067	-0.018547	-0.026151	-0.006440
425	2.128423	0.005000	-0.627840	-0.039240	-10.373564	-0.493174	-0.540998	0.790465	-0.014493	-0.039481	-0.000329
426	2.133423	0.005000	-0.556057	-0.058389	-10.398600	-0.492397	-0.540665	0.787863	-0.019319	-0.036606	-0.004222
427	2.138423	0.005000	-0.588600	-0.045529	-10.398600	-0.491620	-0.540332	0.785261	0.006475	-0.029925	-0.015740
428	2.143423	0.005000	-0.588600	-0.084449	-10.437840	-0.490844	-0.539999	0.782660	-0.009933	-0.028543	-0.012744
429	2.148423	0.005000	-0.621867	0.111747	-10.365333	-0.490067	-0.539666	0.780058	-0.023189	-0.031457	-0.015903
430	2.153423	0.005000	-0.655945	0.055943	-10.398600	-0.489291	-0.539333	0.777456	-0.019215	-0.040172	-0.009071
431	2.158423	0.005000	-0.643514	-0.023566	-10.388151	-0.488514	-0.539001	0.774854	-0.023887	-0.031788	-0.006838
432	2.163423	0.005000	-0.740734	0.073654	-10.329771	-0.487922	-0.538576	0.773127	-0.012772	-0.043953	-0.009557
433	2.168423	0.005000	-0.636666	-0.078480	-10.320120	-0.487589	-0.538021	0.772632	-0.003713	-0.037395	-0.002186
434	2.173423	0.005000	-0.523435	0.034802	-10.259394	-0.487256	-0.537466	0.772136	-0.007053	-0.040453	-0.018753
435	2.178423	0.005000	-0.557421	0.031179	-10.394569	-0.486923	-0.536911	0.771641	-0.009812	-0.038961	-0.012637
436	2.183423	0.005000	-0.709957	0.000000	-10.394963	-0.486590	-0.536356	0.771145	-0.023100	-0.031955	-0.012772
437	2.188423	0.005000	-0.595140	-0.035970	-10.473810	-0.486257	-0.535802	0.770649	-0.020210	-0.036620	-0.015786
438	2.193423	0.005000	-0.549360	-0.002873	-10.286626	-0.485924	-0.535247	0.770154	-0.016843	-0.034400	-0.014311
439	2.198423	0.005000	-0.513021	0.114819	-10.432037	-0.485592	-0.534692	0.769658	-0.009622	-0.039762	-0.017477
440	2.203423	0.005000	-0.510120	0.115212	-10.442857	-0.485259	-0.534137	0.769163	-0.005498	-0.049221	0.001006
441	2.208423	0.005000	-0.549360	0.080582	-10.437840	-0.484926	-0.533583	0.768667	-0.011436	-0.035311	0.001578
442	2.213423	0.005000	-0.511835	0.078480	-10.321835	-0.484593	-0.533028	0.768172	-0.006204	-0.058377	-0.007922
443	2.218423	0.005000	-0.624296	-0.033923	-10.395056	-0.484260	-0.532473	0.767676	0.002391	-0.033255	-0.020318
444	2.223423	0.005000	-0.664321	-0.039240	-10.475700	-0.483927	-0.531918	0.767181	-0.015315	-0.047617	-0.016992
445	2.228423	0.005000	-0.628812	-0.001945	-10.360332	-0.483594	-0.531363	0.766685	-0.010649	-0.026875	-0.001880
446	2.233423	0.005000	-0.626711	-0.000565	-10.398600	-0.483475	-0.531450	0.766428	-0.006494	-0.039000	-0.008772
447	2.238423	0.005000	-0.588775	-0.038891	-10.398425	-0.483364	-0.531561	0.766180	-0.006776	-0.041296	0.000060
448	2.243423	0.005000	-0.589305	0.000705	-10.476845	-0.483253	-0.531672	0.765933	-0.016283	-0.045274	-0.006342
449	2.248423	0.005000	-0.705065	0.078480	-10.436585	-0.483142	-0.531783	0.765685	-0.004681	-0.044783	-0.005630
450	2.253423	0.005000	-0.588029	0.039811	-10.397457	-0.483032	-0.531894	0.765437	-0.020492	-0.022091	-0.005483
451	2.258423	0.005000	-0.551297	0.039240	-10.283785	-0.482921	-0.532005	0.765189	-0.022765	-0.026255	-0.015774
452	2.263423	0.005000	-0.627840	0.075718	-10.401362	-0.482810	-0.532116	0.764941	-0.008356	-0.030875	-0.008238
453	2.268423	0.005000	-0.665301	-0.037461	-10.471744	-0.482699	-0.532227	0.764693	-0.007535	-0.033442	-0.010754
454	2.273423	0.005000	-0.625676	-0.041404	-10.398600	-0.482588	-0.532338	0.764446	-0.004139	-0.046011	0.001267
455	2.278423	0.005000	-0.551931	-0.073338	-10.442982	-0.482477	-0.532449	0.764198	-0.017070	-0.041697	-0.015394
456	2.283423	0.005000	-0.478452	0.007572	-10.393552	-0.482366	-0.532560	0.763950	-0.014858	-0.050448	-0.012447
457	2.288423	0.005000	-0.661236	0.033396	-10.395678	-0.482255	-0.532671	0.763702	-0.016582	-0.033739	-0.005650
458	2.293423	0.005000	-0.441640	0.003333	-10.391933	-0.482144	-0.532782	0.763454	-0.020869	-0.028206	-0.013216
459	2.298423	0.005000	-0.592300	0.000000	-10.320120	-0.482203	-0.532836	0.763776	-0.025847	-0.038051	-0.011933
460	2.303423	0.005000	-0.584507	-0.039240	-10.367547	-0.482425	-0.532836	0.764643	-0.019684	-0.035988	-0.015106
461	2.308423	0.005000	-0.553861	-0.095214	-10.398600	-0.482647	-0.532836	0.765510	-0.004602	-0.045520	-0.005325
462	2.313423	0.005000	-0.583693	0.034333	-10.428026	-0.482869	-0.532836	0.766377	-0.015123	-0.029947	-0.001342
463	2.318423	0.005000	-0.588600	0.010602	-10.466478	-0.483091	-0.532836	0.767244	-0.015648	-0.039507	-0.010624
464	2.323423	0.005000	-0.565218	0.073194	-10.432554	-0.483312	-0.532836	0.768111	-0.012061	-0.045580	-0.009341
465	2.328423	0.005000	-0.734163	-0.005699	-10.353661	-0.483534	-0.532836	0.768977	-0.025464	-0.028100	-0.017366
466	2.333423	0.005000	-0.700209	-0.027017	-10.307897	-0.483756	-0.532836	0.769844	-0.015196	-0.045955	0.003021
467	2.338423	0.005000	-0.614980	0.032810	-10.352930	-0.483978	-0.532836	0.770711	-0.006874	-0.036701	-0.009427
468	2.343423	0.005000	-0.563031	-0.039240	-10.294551	-0.484200	-0.532836	0.771578	0.000803	-0.055093	-0.005956
469	2.348423	0.005000	-0.595843	-0.031997	-10.452326	-0.484421	-0.532836	0.772445	-0.021747	-0.037410	0.000861
470	2.353423	0.005000	-0.659826	0.014509	-10.423331	-0.484643	-0.532836	0.773312	-0.015775	-0.035877	-0.019502
471	2.358423	0.005000	-0.659429	0.054542	-10.367011	-0.484865	-0.532836	0.774179	-0.012536	-0.037153	-0.004564
472	2.363423	0.005000	-0.652032	0.109656	-10.359360	-0.485063	-0.532836	0.774954	-0.013649	-0.030016	-0.014319
473	2.368423	0.005000	-0.619363	0.039240	-10.359360	-0.484841	-0.532836	0.774087	-0.004871	-0.045258	-0.007025
474	2.373423	0.005000	-0.627840	-0.008767	-10.389833	-0.484619	-0.532836	0.773220	-0.007409	-0.043589	-0.014572
475	2.378423	0.005000	-0.549360	-0.030069	-10.320120	-0.484398	-0.532836	0.772352	-0.015649	-0.038297	-0.008187
476	2.383423	0.005000	-0.647922	0.019158	-10.408179	-0.484176	-0.532836	0.771485	-0.009593	-0.033793	-0.004785
477	2.388423	0.005000	-0.607891	0.078480	-10.359360	-0.483954	-0.532836	0.770618	-0.022522	-0.029677	-0.006314
478	2.393423	0.005000	-0.667080	-0.010016	-10.389409	-0.483732	-0.532836	0.769750	-0.019242	-0.042528	-0.017642
479	2.398423	0.005000	-0.559789	-0.028811	-10.388171	-0.483510	-0.532836	0.768883	-0.027451	-0.039490	-0.019044
480	2.403423	0.005000	-0.620723	-0.089188	-10.370068	-0.483288	-0.532836	0.768016	-0.015401	-0.047910	-0.005784
481	2.408423	0.005000	-0.655976	-0.078480	-10.381568	-0.483066	-0.532836	0.767149	-0.018624	-0.048116	-0.004813
482	2.413423	0.005000	-0.588600	0.000000	-10.359360	-0.482844	-0.532836	0.766281	-0.013271	-0.038419	-0.020464
483	2.418423	0.005000	-0.588600	0.000000	-10.437840	-0.482622	-0.532836	0.765414	-0.010751	-0.044497	-0.014573
484	2.423423	0.005000	-0.655244	0.027404	-10.414167	-0.482401	-0.532836	0.764547	-0.016522	-0.025248	-0.015087
485	2.428423	0.005000	-0.551901	0.075939	-10.413374	-0.482179	-0.532836	0.763679	-0.008429	-0.042536	-0.006066
486	2.433423	0.005000	-0.588600	0.039240	-10.384632	-0.482157	-0.532903	0.763854	-0.013802	-0.030521	-0.004667
487	2.438423	0.005000	-0.483595	0.013810	-10.425125	-0.482267	-0.533013	0.764721	-0.009828	-0.033454	-0.014158
488	2.443423	0.005000	-0.562345	-0.026112	-10.359360	-0.482378	-0.533124	0.765587	-0.008613	-0.041719	-0.007333
489	2.448423	0.005000	-0.614478	-0.039240	-10.320120	-0.482489	-0.533235	0.766454	-0.005217	-0.039526	-0.020719
490	2.453423	0.005000	-0.549360	0.000000	-10.384835	-0.482600	-0.533346	0.767321	-0.015227	-0.040921	-0.004826
491	2.458423	0.005000	-0.535198	-0.010916	-10.437840	-0.482711	-0.533457	0.768188	-0.011679	-0.028824	-0.006181
492	2.463423	0.005000	-0.539260	0.053810	-10.433370	-0.482822	-0.533568	0.769055	-0.023683	-0.040974	-0.010605
493	2.468423	0.005000	-0.514882	0.078480	-10.418410	-0.482933	-0.533679	0.769922	-0.015231	-0.041126	-0.006538
494	2.473423	0.005000	-0.554800	0.029787	-10.271427	-0.483043	-0.533789	0.770789	-0.000000	-0.047306	-0.009361
495	2.478423	0.005000	-0.667080	0.111086	-10.289537	-0.483154	-0.533900	0.771656	-0.001678	-0.038154	-0.004695
496	2.483423	0.005000	-0.667080	0.047653	-10.320120	-0.483265	-0.534011	0.772523	-0.011031	-0.028862	-0.007538
497	2.488423	0.005000	-0.627840	-0.031621	-10.375170	-0.483376	-0.534122	0.773390	-0.006001	-0.046005	-0.007038
498	2.493423	0.005000	-0.650857	0.009429	-10.414823	-0.483487	-0.534233	0.774257	-0.010918	-0.029858	-0.014657
499	2.498423	0.005000	-0.588600	0.032859	-10.467031	-0.483550	-0.534312	0.774929	-0.011019	-0.049686	-0.015940
500	2.503423	0.005000	-0.571772	0.044823	-10.398600	-0.483329	-0.534201	0.774434	-0.006950	-0.038137	-0.005483
501	2.508423	0.005000	-0.610611	0.009563	-10.398600	-0.483107	-0.534090	0.773939	-0.011301	-0.029932	-0.005803
502	2.513423	0.005000	-0.506136	-0.060852	-10.412245	-0.482885	-0.533980	0.773443	-0.007874	-0.047331	-0.013867
503	2.518423	0.005000	-0.645619	0.039240	-10.459301	-0.482663	-0.533869	0.772948	-0.007424	-0.031778	-0.006142
504	2.523423	0.005000	-0.567535	-0.018175	-10.344074	-0.482441	-0.533758	0.772453	-0.014210	-0.038636	-0.006639
505	2.528423	0.005000	-0.570242	0.096838	-10.320120	-0.482220	-0.533647	0.771957	-0.034408	-0.032272	-0.002039
506	2.533423	0.005000	-0.629565	0.080205	-10.340603	-0.481998	-0.533536	0.771462	-0.025236	-0.026383	-0.010269
507	2.538423	0.005000	-0.549360	0.038330	-10.300955	-0.481776	-0.533425	0.770966	-0.015420	-0.031618	-0.012063
508	2.543423	0.005000	-0.685795	0.058558	-10.378678	-0.481554	-0.533314	0.770471	-0.009001	-0.038143	-0.009523
509	2.548423	0.005000	-0.608553	0.000000	-10.418109	-0.481332	-0.533204	0.769976	-0.001032	-0.034953	-0.001755
510	2.553423	0.005000	-0.568713	0.098367	-10.339473	-0.481111	-0.533093	0.769480	-0.013439	-0.040077	-0.013779
511	2.558423	0.005000	-0.510120	0.056837	-10.359360	-0.480889	-0.532982	0.768985	-0.012487	-0.039790	-0.015182
512	2.563423	0.005000	-0.530814	-0.039240	-10.421442	-0.480667	-0.532871	0.768489	-0.017715	-0.032650	-0.011517
513	2.568423	0.005000	-0.648934	0.099574	-10.416746	-0.480749	-0.532836	0.768418	-0.027824	-0.035845	-0.021075
514	2.573423	0.005000	-0.610102	0.135458	-10.445368	-0.480970	-0.532836	0.768542	-0.013684	-0.047552	-0.008855
515	2.578423	0.005000	-0.627840	0.074353	-10.472953	-0.481192	-0.532836	0.768665	-0.013942	-0.040191	-0.003629
516	2.583423	0.005000	-0.588600	0.066289	-10.354407	-0.481414	-0.532836	0.768789	-0.012934	-0.046107	-0.003493
517	2.588423	0.005000	-0.582854	0.095227	-10.426839	-0.481635	-0.532836	0.768913	-0.012962	-0.034793	-0.000289
518	2.593423	0.005000	-0.650746	0.055574	-10.398600	-0.481857	-0.532836	0.769037	-0.009456	-0.046383	-0.015589
519	2.598423	0.005000	-0.549360	0.078480	-10.343439	-0.482079	-0.532836	0.769161	-0.019705	-0.046800	-0.005803
520	2.603423	0.005000	-0.588600	0.062098	-10.429649	-0.482301	-0.532836	0.769284	-0.004079	-0.043066	-0.003849
521	2.608423	0.005000	-0.564771	0.030821	-10.405592	-0.482522	-0.532836	0.769408	0.000018	-0.036826	-0.006330
522	2.613423	0.005000	-0.534357	-0.015003	-10.422837	-0.482744	-0.532836	0.769532	-0.004445	-0.026791	-0.008164
523	2.618423	0.005000	-0.598283	0.000000	-10.364455	-0.482966	-0.532836	0.769656	-0.007147	-0.042120	-0.009608
524	2.623423	0.005000	-0.613160	0.000000	-10.305440	-0.483187	-0.532836	0.769780	-0.013201	-0.033420	-0.010036
525	2.628423	0.005000	-0.656384	0.039240	-10.277304	-0.483409	-0.532836	0.769903	-0.024208	-0.039192	-0.021654
526	2.633423	0.005000	-0.563234	0.013874	-10.384726	-0.483558	-0.532885	0.769946	-0.016297	-0.038938	-0.011669
527	2.638423	0.005000	-0.575128	-0.013472	-10.398600	-0.483447	-0.533107	0.769698	-0.022274	-0.033257	-0.000746
528	2.643423	0.005000	-0.627856	0.013075	-10.437840	-0.483336	-0.533328	0.769450	-0.005712	-0.040688	-0.001431
529	2.648423	0.005000	-0.575012	0.078480	-10.397838	-0.483225	-0.533550	0.769203	-0.004822	-0.036025	0.002044
530	2.653423	0.005000	-0.536947	0.000000	-10.346947	-0.483114	-0.533772	0.768955	-0.010024	-0.051048	-0.010571
531	2.658423	0.005000	-0.588600	0.041451	-10.440051	-0.483003	-0.533994	0.768707	-0.012198	-0.048691	-0.011953
532	2.663423	0.005000	-0.667080	0.039240	-10.477080	-0.482892	-0.534216	0.768460	-0.021392	-0.024856	-0.010335
533	2.668423	0.005000	-0.600138	0.011538	-10.465542	-0.482782	-0.534437	0.768212	-0.012606	-0.026711	-0.000280
534	2.673423	0.005000	-0.543931	0.027970	-10.505050	-0.482671	-0.534659	0.767964	-0.018050	-0.038552	-0.006149
535	2.678423	0.005000	-0.606093	0.067606	-10.459587	-0.482560	-0.534881	0.767717	-0.011264	-0.029769	-0.010386
536	2.683423	0.005000	-0.638657	0.000000	-10.459475	-0.482449	-0.535103	0.767469	-0.005324	-0.036183	0.000685
537	2.688423	0.005000	-0.735150	0.096901	-10.448250	-0.482338	-0.535325	0.767221	-0.009955	-0.043583	-0.015749
538	2.693423	0.005000	-0.637846	0.078480	-10.408606	-0.482227	-0.535546	0.766974	-0.008008	-0.049810	0.001131
539	2.698423	0.005000	-0.558970	0.137740	-10.340140	-0.482116	-0.535768	0.766726	-0.021757	-0.038601	-0.014784
540	2.703423	0.005000	-0.510120	-0.020604	-10.389282	-0.483610	-0.536666	0.768931	-0.022393	-0.039824	-0.010704
541	2.708423	0.005000	-0.610030	0.099910	-10.498510	-0.485606	-0.537775	0.771903	-0.010639	-0.023987	-0.001395
542	2.713423	0.005000	-0.580092	0.100703	-10.538543	-0.487603	-0.538884	0.774875	-0.005666	-0.034957	-0.008247
543	2.718423	0.005000	-0.588600	0.078480	-10.555560	-0.489599	-0.539993	0.777847	-0.011409	-0.036295	-0.007387
544	2.723423	0.005000	-0.549360	0.109643	-10.524397	-0.491595	-0.541101	0.780819	-0.019473	-0.030148	-0.015701
545	2.728423	0.005000	-0.651742	0.007669	-10.390037	-0.493591	-0.542210	0.783791	-0.019228	-0.027475	-0.009309
546	2.733423	0.005000	-0.581326	-0.007274	-10.352086	-0.495587	-0.543319	0.786763	-0.016251	-0.032912	-0.018775
547	2.738423	0.005000	-0.660127	0.025335	-10.320120	-0.497583	-0.544428	0.789735	-0.017490	-0.033758	-0.009138
548	2.743423	0.005000	-0.620892	-0.032292	-10.241640	-0.499579	-0.545537	0.792708	-0.005206	-0.027706	0.001799
549	2.748423	0.005000	-0.595140	-0.104640	-10.346280	-0.501576	-0.546646	0.795680	-0.013437	-0.030302	-0.013667
550	2.753423	0.005000	-0.654789	-0.123865	-10.392455	-0.503572	-0.547755	0.798652	-0.000646	-0.039462	-0.007614
551	2.758423	0.005000	-0.549360	-0.078480	-10.292360	-0.505568	-0.548864	0.801624	-0.016690	-0.029290	-0.018988
552	2.763423	0.005000	-0.538561	-0.044639	-10.314721	-0.507564	-0.549973	0.804596	-0.010696	-0.030419	-0.019063
553	2.768423	0.005000	-0.622840	0.063479	-10.290880	-0.508518	-0.550544	0.805878	-0.011372	-0.031376	-0.018296
554	2.773423	0.005000	-0.563123	-0.069305	-10.320120	-0.507076	-0.549879	0.803278	-0.025309	-0.033724	-0.016165
555	2.778423	0.005000	-0.514731	0.000000	-10.320120	-0.505634	-0.549213	0.800677	-0.015014	-0.040024	0.001592
556	2.783423	0.005000	-0.619434	-0.035037	-10.394397	-0.504193	-0.548548	0.798077	-0.007804	-0.034255	-0.008515
557	2.788423	0.005000	-0.702510	-0.070861	-10.441650	-0.502751	-0.547883	0.795476	-0.009151	-0.051313	-0.004335
558	2.793423	0.005000	-0.516927	-0.010210	-10.437840	-0.501309	-0.547217	0.792875	-0.012024	-0.035848	-0.011613
559	2.798423	0.005000	-0.513168	0.075432	-10.431744	-0.499868	-0.546552	0.790275	-0.014446	-0.030166	-0.018665
560	2.803423	0.005000	-0.549360	0.000000	-10.364630	-0.498426	-0.545886	0.787674	-0.025943	-0.038382	-0.008970
561	2.808423	0.005000	-0.700958	0.036559	-10.474399	-0.496984	-0.545221	0.785073	-0.028388	-0.043117	-0.011589
562	2.813423	0.005000	-0.593148	-0.034692	-10.516320	-0.495542	-0.544556	0.782473	-0.004232	-0.055418	0.002010
563	2.818423	0.005000	-0.549360	0.078480	-10.359360	-0.494101	-0.543890	0.779872	-0.014212	-0.037597	-0.007932
564	2.823423	0.005000	-0.550852	0.074004	-10.401584	-0.492659	-0.543225	0.777271	-0.003991	-0.046190	-0.009195
565	2.828423	0.005000	-0.590759	-0.001079	-10.514161	-0.491217	-0.542560	0.774671	-0.011214	-0.042516	-0.009423
566	2.833423	0.005000	-0.550505	-0.038095	-10.360505	-0.489775	-0.541894	0.772070	-0.007200	-0.034426	-0.016784
567	2.838423	0.005000	-0.664869	0.039240	-10.397126	-0.489177	-0.541135	0.771353	-0.013134	-0.047401	-0.004005
568	2.843423	0.005000	-0.627495	0.000690	-10.477770	-0.488734	-0.540359	0.770982	-0.014612	-0.035085	-0.015761
569	2.848423	0.005000	-0.627777	0.039240	-10.359487	-0.488291	-0.539583	0.770611	-0.010893	-0.046646	-0.009752
570	2.853423	0.005000	-0.666625	0.038785	-10.437840	-0.487847	-0.538807	0.770239	0.000044	-0.035387	-0.009760
571	2.858423	0.005000	-0.704595	0.115995	-10.398600	-0.487404	-0.538031	0.769868	-0.000147	-0.029333	-0.017704
572	2.863423	0.005000	-0.743020	0.117720	-10.320120	-0.486960	-0.537255	0.769496	-0.026142	-0.032123	-0.020965
573	2.868423	0.005000	-0.629502	0.000000	-10.361022	-0.486517	-0.536479	0.769125	-0.025539	-0.022130	-0.018472
574	2.873423	0.005000	-0.667080	0.076876	-10.318516	-0.486074	-0.535703	0.768754	-0.007330	-0.027257	-0.005137
575	2.878423	0.005000	-0.625848	0.076488	-10.437840	-0.485630	-0.534928	0.768382	-0.007408	-0.026945	-0.002699
576	2.883423	0.005000	-0.708719	0.039240	-10.317721	-0.485187	-0.534152	0.768011	0.000510	-0.038636	-0.005815
577	2.888423	0.005000	-0.630632	0.033657	-10.320120	-0.484743	-0.533376	0.767640	-0.014744	-0.039632	-0.010035
578	2.893423	0.005000	-0.555759	-0.072081	-10.401799	-0.484300	-0.532600	0.767268	-0.001152	-0.034559	-0.017588
579	2.898423	0.005000	-0.663921	-0.072162	-10.440999	-0.483857	-0.531824	0.766897	-0.006751	-0.046080	-0.013090
580	2.903423	0.005000	-0.585028	-0.039240	-10.352217	-0.483540	-0.531259	0.766667	-0.025609	-0.027228	-0.015989
581	2.908423	0.005000	-0.482785	0.047177	-10.390663	-0.483429	-0.531037	0.766667	-0.005709	-0.048384	0.000465
582	2.913423	0.005000	-0.584271	0.161289	-10.320120	-0.483318	-0.530815	0.766667	-0.006469	-0.037354	-0.007760
583	2.918423	0.005000	-0.824040	0.073745	-10.368829	-0.483207	-0.530593	0.766667	-0.003278	-0.052450	-0.014912
584	2.923423	0.005000	-0.622712	0.112592	-10.296265	-0.483096	-0.530371	0.766667	-0.000614	-0.036386	-0.000915
585	2.928423	0.005000	-0.593711	0.068257	-10.398600	-0.482985	-0.530149	0.766667	-0.026900	-0.032791	-0.009621
586	2.933423	0.005000	-0.711844	-0.078480	-10.393076	-0.482874	-0.529927	0.766667	-0.023749	-0.029902	-0.015516
587	2.938423	0.005000	-0.627840	0.000000	-10.359360	-0.482763	-0.529705	0.766667	-0.023141	-0.038667	-0.007612
588	2.943423	0.005000	-0.594858	0.012515	-10.320120	-0.482652	-0.529483	0.766667	-0.019796	-0.050877	-0.009705
589	2.948423	0.005000	-0.719651	0.013331	-10.313455	-0.482542	-0.529261	0.766667	-0.008345	-0.051380	-0.005402
590	2.953423	0.005000	-0.588600	0.039240	-10.327190	-0.482431	-0.529040	0.766667	-0.008447	-0.050981	-0.007950
591	2.958423	0.005000	-0.603531	-0.024309	-10.305189	-0.482320	-0.528818	0.766667	-0.005246	-0.046126	-0.003971
592	2.963423	0.005000	-0.580730	0.109850	-10.320120	-0.482209	-0.528596	0.766667	-0.020764	-0.037853	-0.018794
593	2.968423	0.005000	-0.510120	-0.039240	-10.382070	-0.482098	-0.528374	0.766667	-0.020078	-0.038863	-0.012750
594	2.973423	0.005000	-0.565964	0.070178	-10.311818	-0.482296	-0.528358	0.766437	-0.008569	-0.036994	-0.007894
595	2.978423	0.005000	-0.566758	-0.008699	-10.411743	-0.482518	-0.528358	0.766189	-0.019595	-0.049030	-0.012757
596	2.983423	0.005000	-0.609617	-0.021017	-10.425935	-0.482740	-0.528358	0.765942	-0.008556	-0.045206	-0.007019
597	2.988423	0.005000	-0.579194	0.059667	-10.437840	-0.482961	-0.528358	0.765694	-0.017310	-0.043381	-0.011584
598	2.993423	0.005000	-0.647476	0.000000	-10.467278	-0.483183	-0.528358	0.765446	-0.022469	-0.043889	-0.007479
599	2.998423	0.005000	-0.559566	0.107514	-10.487286	-0.483405	-0.528358	0.765198	-0.017880	-0.013736	-0.006563
600	3.003423	0.005000	-0.559962	0.039240	-10.487682	-0.483627	-0.528358	0.764951	-0.009549	-0.039629	-0.009373
601	3.008423	0.005000	-0.481547	0.078480	-10.466413	-0.483849	-0.528358	0.764703	-0.011701	-0.033116	-0.005228
602	3.013423	0.005000	-0.487992	0.039240	-10.477080	-0.484070	-0.528358	0.764455	-0.021075	-0.039919	-0.019994
603	3.018423	0.005000	-0.493549	0.050575	-10.465745	-0.484292	-0.528358	0.764207	-0.020936	-0.040358	-0.002165
604	3.023423	0.005000	-0.572822	-0.011731	-10.414378	-0.484514	-0.528358	0.763960	-0.007972	-0.034011	-0.009725
605	3.028423	0.005000	-0.730598	0.024278	-10.332259	-0.484736	-0.528358	0.763712	-0.012231	-0.034114	-0.011460
606	3.033423	0.005000	-0.733018	0.065938	-10.309193	-0.484957	-0.528358	0.763464	-0.017410	-0.034043	-0.012393
607	3.038423	0.005000	-0.653079	0.091100	-10.306119	-0.484971	-0.528410	0.763449	-0.028722	-0.041308	-0.019738
608	3.043423	0.005000	-0.693298	0.065458	-10.437840	-0.484749	-0.528521	0.763697	-0.010993	-0.047688	0.000878
609	3.048423	0.005000	-0.575332	0.091748	-10.372064	-0.484527	-0.528632	0.763945	-0.004190	-0.047199	-0.010972
610	3.053423	0.005000	-0.602271	0.078480	-10.345689	-0.484305	-0.528743	0.764193	-0.009685	-0.045557	-0.005056
611	3.058423	0.005000	-0.510120	0.064412	-10.334188	-0.484084	-0.528854	0.764440	-0.015591	-0.034797	-0.001561
612	3.063423	0.005000	-0.524596	-0.018663	-10.349072	-0.483862	-0.528965	0.764688	-0.020202	-0.035741	-0.018389
613	3.068423	0.005000	-0.549360	0.053812	-10.354884	-0.483640	-0.529076	0.764936	-0.016715	-0.032705	-0.012594
614	3.073423	0.005000	-0.549360	0.014985	-10.389330	-0.483418	-0.529187	0.765184	-0.023405	-0.051228	-0.013340
615	3.078423	0.005000	-0.621488	0.102523	-10.398600	-0.483196	-0.529298	0.765431	-0.025294	-0.055624	-0.002515
616	3.083423	0.005000	-0.541785	0.008030	-10.437840	-0.482975	-0.529409	0.765679	-0.023346	-0.048125	-0.007425
617	3.088423	0.005000	-0.683086	-0.039240	-10.477080	-0.482753	-0.529520	0.765927	-0.012074	-0.047788	-0.006339
618	3.093423	0.005000	-0.650675	0.055645	-10.421435	-0.482531	-0.529630	0.766175	-0.007037	-0.039854	-0.003686
619	3.098423	0.005000	-0.689795	0.055765	-10.392409	-0.482309	-0.529741	0.766422	-0.018247	-0.044102	-0.018465
620	3.103423	0.005000	-0.661715	0.027668	-10.567132	-0.482090	-0.529855	0.766674	-0.019174	-0.049543	-0.009384
621	3.108423	0.005000	-0.745560	0.017135	-10.560530	-0.482090	-0.530188	0.767294	-0.010890	-0.044632	-0.012828
622	3.113423	0.005000	-0.749732	0.091842	-10.420306	-0.482090	-0.530521	0.767913	-0.006244	-0.054171	-0.003893
623	3.118423	0.005000	-0.588600	0.096422	-10.413186	-0.482090	-0.530853	0.768533	-0.001272	-0.034629	-0.003968
624	3.123423	0.005000	-0.452538	0.018342	-10.437840	-0.482090	-0.531186	0.769152	-0.002357	-0.044633	-0.013871
625	3.128423	0.005000	-0.609098	0.018742	-10.497578	-0.482090	-0.531519	0.769772	-0.010558	-0.037392	-0.017678
626	3.133423	0.005000	-0.590060	0.020350	-10.398600	-0.482090	-0.531852	0.770391	-0.020883	-0.034573	-0.015029
627	3.138423	0.005000	-0.509485	0.020572	-10.437840	-0.482090	-0.532185	0.771011	-0.011057	-0.034391	-0.011280
628	3.143423	0.005000	-0.490351	0.039240	-10.378831	-0.482090	-0.532517	0.771630	-0.002914	-0.035735	-0.008411
629	3.148423	0.005000	-0.510120	0.059111	-10.417467	-0.482090	-0.532850	0.772250	0.003658	-0.043336	0.001807
630	3.153423	0.005000	-0.610172	0.139292	-10.398600	-0.482090	-0.533183	0.772869	-0.012763	-0.036113	-0.003545
631	3.158423	0.005000	-0.644285	0.196200	-10.377922	-0.482090	-0.533516	0.773488	-0.016031	-0.048184	-0.015443
632	3.163423	0.005000	-0.624923	0.096641	-10.359360	-0.482090	-0.533849	0.774108	-0.016176	-0.026028	-0.000184
633	3.168423	0.005000	-0.514374	0.056733	-10.367868	-0.482090	-0.534181	0.774727	-0.012798	-0.032307	-0.015001
634	3.173423	0.005000	-0.610744	-0.022144	-10.482128	-0.481966	-0.534266	0.774861	-0.018762	-0.032245	-0.008596
635	3.178423	0.005000	-0.588600	-0.045113	-10.454523	-0.481744	-0.534155	0.774614	-0.011521	-0.036475	-0.005101
636	3.183423	0.005000	-0.543230	-0.095035	-10.415155	-0.481522	-0.534044	0.774366	-0.005051	-0.041823	-0.004722
637	3.188423	0.005000	-0.595532	-0.039240	-10.516320	-0.481300	-0.533933	0.774118	-0.020076	-0.031838	-0.013967
638	3.193423	0.005000	-0.674828	0.015746	-10.492826	-0.481078	-0.533822	0.773871	-0.022967	-0.023760	-0.020915
639	3.198423	0.005000	-0.612300	0.023700	-10.359360	-0.480856	-0.533712	0.773623	-0.013984	-0.020032	-0.021058
640	3.203423	0.005000	-0.667080	0.054368	-10.344232	-0.480635	-0.533601	0.773375	-0.034468	-0.029838	-0.020396
641	3.208423	0.005000	-0.667080	0.063455	-10.325954	-0.480413	-0.533490	0.773128	-0.007924	-0.046889	-0.008156
642	3.213423	0.005000	-0.510120	0.000000	-10.373977	-0.480191	-0.533379	0.772880	-0.008490	-0.031812	-0.009883
643	3.218423	0.005000	-0.524339	0.025021	-10.398600	-0.479969	-0.533268	0.772632	-0.009428	-0.044712	-0.016366
644	3.223423	0.005000	-0.616234	0.025423	-10.426234	-0.479747	-0.533157	0.772385	-0.012559	-0.025847	-0.008279
645	3.228423	0.005000	-0.654679	0.077461	-10.320120	-0.479525	-0.533046	0.772137	-0.020531	-0.018581	-0.016756
646	3.233423	0.005000	-0.693430	0.091655	-10.398314	-0.479303	-0.532936	0.771889	-0.016045	-0.039123	-0.011744
647	3.238423	0.005000	-0.693557	0.092195	-10.399552	-0.479104	-0.532780	0.771680	-0.017738	-0.034488	-0.014506
648	3.243423	0.005000	-0.561726	0.063971	-10.545337	-0.479104	-0.532225	0.771803	-0.003107	-0.040918	-0.008356
649	3.248423	0.005000	-0.667080	-0.066189	-10.516320	-0.479104	-0.531671	0.771927	-0.011024	-0.044991	-0.001650
650	3.253423	0.005000	-0.651607	-0.039240	-10.383127	-0.479104	-0.531116	0.772051	-0.009199	-0.035709	-0.013025
651	3.258423	0.005000	-0.662281	0.027760	-10.426360	-0.479104	-0.530562	0.772175	-0.027680	-0.028959	-0.004143
652	3.263423	0.005000	-0.560444	0.050324	-10.420768	-0.479104	-0.530007	0.772299	-0.014639	-0.037169	-0.012004
653	3.268423	0.005000	-0.545878	0.028560	-10.320120	-0.479104	-0.529452	0.772422	-0.010103	-0.044374	-0.016031
654	3.273423	0.005000	-0.499723	0.039240	-10.291277	-0.479104	-0.528898	0.772546	-0.004975	-0.027317	-0.010699
655	3.278423	0.005000	-0.627840	0.049240	-10.330120	-0.479104	-0.528343	0.772670	-0.003971	-0.045993	-0.006560
656	3.283423	0.005000	-0.588600	-0.088957	-10.379424	-0.479104	-0.527789	0.772794	-0.003699	-0.031647	0.000312
657	3.288423	0.005000	-0.579421	0.050944	-10.329299	-0.479104	-0.527234	0.772917	-0.015043	-0.023551	-0.017685
658	3.293423	0.005000	-0.636983	-0.011810	-10.338407	-0.479104	-0.526680	0.773041	-0.012214	-0.034998	-0.018275
659	3.298423	0.005000	-0.588600	0.039240	-10.350612	-0.479104	-0.526125	0.773165	-0.025425	-0.028792	-0.011174
660	3.303423	0.005000	-0.689633	0.047584	-10.390256	-0.479104	-0.525571	0.773289	-0.012728	-0.043502	-0.006080
661	3.308423	0.005000	-0.604472	0.039240	-10.421968	-0.479318	-0.525801	0.773333	-0.009841	-0.032992	0.001650
662	3.313423	0.005000	-0.580965	-0.023969	-10.366995	-0.479651	-0.526466	0.773333	-0.009691	-0.035542	-0.010088
663	3.318423	0.005000	-0.581377	0.024795	-10.501875	-0.479984	-0.527132	0.773333	0.001253	-0.040279	-0.007421
664	3.323423	0.005000	-0.659866	0.007214	-10.469866	-0.480316	-0.527797	0.773333	-0.019245	-0.027410	-0.013360
665	3.328423	0.005000	-0.660273	-0.032433	-10.301300	-0.480649	-0.528463	0.773333	-0.025201	-0.037730	-0.016395
666	3.333423	0.005000	-0.627840	-0.006412	-10.503496	-0.480982	-0.529128	0.773333	-0.021419	-0.035421	-0.004552
667	3.338423	0.005000	-0.561519	0.066321	-10.410759	-0.481314	-0.529793	0.773333	-0.021094	-0.047569	-0.022559
668	3.343423	0.005000	-0.633523	0.078480	-10.398600	-0.481647	-0.530459	0.773333	-0.018634	-0.058552	-0.006522
669	3.348423	0.005000	-0.560715	0.084157	-10.392923	-0.481980	-0.531124	0.773333	-0.005552	-0.037057	-0.011199
670	3.353423	0.005000	-0.538794	0.151677	-10.393317	-0.482313	-0.531790	0.773333	-0.002417	-0.038378	-0.013150
671	3.358423	0.005000	-0.691687	0.044118	-10.359360	-0.482645	-0.532455	0.773333	-0.025162	-0.033982	-0.013527
672	3.363423	0.005000	-0.588600	-0.104311	-10.511850	-0.482978	-0.533120	0.773333	-0.013897	-0.038412	-0.010876
673	3.368423	0.005000	-0.553487	-0.008254	-10.547306	-0.483311	-0.533786	0.773333	-0.019547	-0.034971	0.003359
674	3.373423	0.005000	-0.553074	-0.031811	-10.363074	-0.483582	-0.534390	0.773241	-0.013069	-0.040508	-0.009133
675	3.378423	0.005000	-0.555995	-0.003318	-10.427887	-0.483582	-0.534722	0.772746	-0.005168	-0.042018	-0.007733
676	3.383423	0.005000	-0.624935	-0.039240	-10.401505	-0.483582	-0.535055	0.772251	-0.004295	-0.036774	-0.015489
677	3.388423	0.005000	-0.667080	0.039240	-10.323067	-0.483582	-0.535388	0.771755	-0.015833	-0.046475	-0.017005
678	3.393423	0.005000	-0.659458	0.044321	-10.469458	-0.483582	-0.535720	0.771260	-0.023493	-0.027893	-0.008394
679	3.398423	0.005000	-0.590748	-0.037092	-10.472784	-0.483582	-0.536053	0.770765	-0.019189	-0.044327	-0.003961
680	3.403423	0.005000	-0.586838	-0.078480	-10.516320	-0.483582	-0.536386	0.770269	-0.008780	-0.031500	-0.005135
681	3.408423	0.005000	-0.627840	-0.037421	-10.477080	-0.483582	-0.536719	0.769774	-0.007217	-0.027876	-0.009665
682	3.413423	0.005000	-0.552183	0.075657	-10.363595	-0.483582	-0.537051	0.769279	-0.000812	-0.049507	-0.010262
683	3.418423	0.005000	-0.626821	0.117720	-10.360379	-0.483582	-0.537384	0.768784	-0.008643	-0.025565	-0.019224
684	3.423423	0.005000	-0.704486	0.041074	-10.321343	-0.483582	-0.537717	0.768288	-0.017171	-0.047066	-0.011521
685	3.428423	0.005000	-0.706114	0.039240	-10.359360	-0.483582	-0.538050	0.767793	-0.014232	-0.032385	-0.013538
686	3.433423	0.005000	-0.667362	0.039522	-10.281727	-0.483582	-0.538382	0.767298	-0.011746	-0.038307	-0.018415
687	3.438423	0.005000	-0.667191	0.156960	-10.398600	-0.483582	-0.538715	0.766802	-0.006919	-0.046426	-0.007503
688	3.443423	0.005000	-0.587552	0.116148	-10.398076	-0.483985	-0.539128	0.767657	0.007448	-0.031540	-0.006672
689	3.448423	0.005000	-0.587675	0.038315	-10.398600	-0.484540	-0.539572	0.769019	-0.009313	-0.046931	0.009734
690	3.453423	0.005000	-0.671032	-0.036605	-10.318803	-0.485094	-0.540016	0.770381	-0.001327	-0.031855	-0.015305
691	3.458423	0.005000	-0.745560	-0.035790	-10.361085	-0.485649	-0.540459	0.771744	-0.008664	-0.038435	-0.023599
692	3.463423	0.005000	-0.740620	0.116073	-10.436193	-0.486203	-0.540903	0.773106	-0.015649	-0.025394	-0.020101
693	3.468423	0.005000	-0.551414	0.078480	-10.363467	-0.486758	-0.541346	0.774468	-0.016136	-0.034208	-0.018923
694	3.473423	0.005000	-0.588600	0.000000	-10.440287	-0.487312	-0.541790	0.775830	-0.016699	-0.040675	-0.014192
695	3.478423	0.005000	-0.623014	0.073654	-10.437840	-0.487867	-0.542234	0.777193	-0.020721	-0.024135	-0.013744
696	3.483423	0.005000	-0.630650	-0.005619	-10.485509	-0.488421	-0.542677	0.778555	-0.001404	-0.040348	0.001344
697	3.488423	0.005000	-0.582155	-0.114498	-10.585133	-0.488976	-0.543121	0.779917	-0.001032	-0.035338	-0.003323
698	3.493423	0.005000	-0.599327	-0.110568	-10.473504	-0.489530	-0.543564	0.781279	-0.008742	-0.030426	-0.021690
699	3.498423	0.005000	-0.655129	-0.027289	-10.429873	-0.490085	-0.544008	0.782641	-0.004828	-0.027544	-0.011779
700	3.503423	0.005000	-0.658301	0.074090	-10.451009	-0.490639	-0.544452	0.784004	-0.015143	-0.028967	-0.024898
701	3.508423	0.005000	-0.662297	0.039240	-10.433057	-0.490985	-0.544448	0.784734	-0.028270	-0.030230	-0.007887
702	3.513423	0.005000	-0.657552	0.122484	-10.442604	-0.490764	-0.543228	0.783743	-0.016408	-0.023123	-0.003262
703	3.518423	0.005000	-0.633015	0.136261	-10.398600	-0.490542	-0.542008	0.782753	-0.008408	-0.030654	-0.011255
704	3.523423	0.005000	-0.622252	-0.033652	-10.432252	-0.490320	-0.540789	0.781762	-0.007148	-0.031765	-0.010648
705	3.528423	0.005000	-0.616015	0.051065	-10.437840	-0.490098	-0.539569	0.780771	-0.005897	-0.029797	-0.015068
706	3.533423	0.005000	-0.549360	0.131678	-10.392280	-0.489876	-0.538349	0.779780	-0.009516	-0.032357	-0.002864
707	3.538423	0.005000	-0.542634	-0.045966	-10.431114	-0.489655	-0.537129	0.778790	-0.026363	-0.036453	-0.013014
708	3.543423	0.005000	-0.574359	0.078480	-10.352240	-0.489433	-0.535909	0.777799	-0.020425	-0.037031	-0.001077
709	3.548423	0.005000	-0.549360	0.039240	-10.359360	-0.489211	-0.534689	0.776808	-0.000213	-0.032317	-0.015184
710	3.553423	0.005000	-0.596140	0.061860	-10.462000	-0.488989	-0.533469	0.775818	-0.012192	-0.035780	-0.012131
711	3.558423	0.005000	-0.611934	0.039240	-10.382694	-0.488767	-0.532249	0.774827	-0.002316	-0.030650	-0.012102
712	3.563423	0.005000	-0.636089	0.053732	-10.406849	-0.488546	-0.531029	0.773836	-0.013413	-0.034097	-0.016078
713	3.568423	0.005000	-0.544735	0.061172	-10.320120	-0.488324	-0.529809	0.772846	-0.002271	-0.034475	-0.016582
714	3.573423	0.005000	-0.618779	0.000000	-10.377483	-0.488102	-0.528589	0.771855	-0.009080	-0.023691	-0.017143
715	3.578423	0.005000	-0.579143	-0.039240	-10.467623	-0.487970	-0.528897	0.771165	0.012285	-0.033189	-0.014395
716	3.583423	0.005000	-0.618347	0.029747	-10.428347	-0.487859	-0.529563	0.770545	-0.008433	-0.033483	-0.006537
717	3.588423	0.005000	-0.539455	0.009905	-10.378790	-0.487748	-0.530229	0.769926	-0.010577	-0.027207	-0.010016
718	3.593423	0.005000	-0.481070	0.000000	-10.448030	-0.487637	-0.530895	0.769306	-0.012828	-0.039662	-0.010908
719	3.598423	0.005000	-0.635321	-0.039240	-10.427254	-0.487526	-0.531560	0.768687	-0.011167	-0.031566	-0.017247
720	3.603423	0.005000	-0.599590	0.028250	-10.370350	-0.487415	-0.532226	0.768067	-0.013043	-0.039567	-0.012236
721	3.608423	0.005000	-0.644308	-0.039240	-10.387214	-0.487304	-0.532892	0.767448	-0.016251	-0.029029	-0.010308
722	3.613423	0.005000	-0.600061	0.106259	-10.359360	-0.487193	-0.533557	0.766828	-0.017437	-0.040674	-0.001608
723	3.618423	0.005000	-0.667080	0.054765	-10.386742	-0.487082	-0.534223	0.766209	-0.002402	-0.029347	0.000412
724	3.623423	0.005000	-0.576330	0.063781	-10.398600	-0.486971	-0.534889	0.765589	-0.007638	-0.032368	-0.008667
725	3.628423	0.005000	-0.642049	0.039240	-10.384391	-0.486860	-0.535554	0.764970	-0.011190	-0.039401	-0.020467
726	3.633423	0.005000	-0.601053	0.078480	-10.477080	-0.486749	-0.536220	0.764350	-0.020977	-0.035656	-0.017364
727	3.638423	0.005000	-0.653754	0.052566	-10.437840	-0.486638	-0.536886	0.763731	-0.012493	-0.031605	-0.008994
728	3.643423	0.005000	-0.625911	0.078480	-10.384877	-0.486408	-0.537273	0.763466	-0.017138	-0.040118	-0.002436
729	3.648423	0.005000	-0.563491	0.014131	-10.359360	-0.485965	-0.537162	0.763838	-0.010399	-0.038574	-0.015940
730	3.653423	0.005000	-0.695526	0.117720	-10.434411	-0.485521	-0.537052	0.764209	-0.003173	-0.038577	-0.006351
731	3.658423	0.005000	-0.740893	0.117720	-10.334756	-0.485077	-0.536941	0.764581	-0.021731	-0.031396	-0.008489
732	3.663423	0.005000	-0.603452	-0.014852	-10.389064	-0.484634	-0.536830	0.764952	-0.012968	-0.036177	-0.010517
733	3.668423	0.005000	-0.612871	-0.014969	-10.413569	-0.484190	-0.536719	0.765324	-0.013064	-0.030985	-0.015135
734	3.673423	0.005000	-0.588600	0.023874	-10.320120	-0.483747	-0.536608	0.765695	-0.013043	-0.027382	-0.010351
735	3.678423	0.005000	-0.572821	-0.039240	-10.280880	-0.483303	-0.536497	0.766067	-0.017864	-0.040452	-0.003676
736	3.683423	0.005000	-0.635117	-0.140979	-10.366637	-0.482859	-0.536386	0.766438	-0.012812	-0.030825	-0.011184
737	3.688423	0.005000	-0.565749	-0.016389	-10.313658	-0.482416	-0.536276	0.766810	-0.005735	-0.042052	-0.005528
738	3.693423	0.005000	-0.605390	0.000000	-10.348041	-0.481972	-0.536165	0.767181	-0.007293	-0.031564	-0.009297
739	3.698423	0.005000	-0.610651	-0.022051	-10.437840	-0.481529	-0.536054	0.767553	-0.015749	-0.031802	-0.019742
740	3.703423	0.005000	-0.566957	0.074434	-10.359360	-0.481085	-0.535943	0.767924	-0.013283	-0.042381	-0.011271
741	3.708423	0.005000	-0.570603	0.057237	-10.423088	-0.480641	-0.535832	0.768296	-0.017381	-0.039231	-0.019490
742	3.713423	0.005000	-0.585647	0.039240	-10.416744	-0.480497	-0.535522	0.768890	-0.007038	-0.044426	-0.006196
743	3.718423	0.005000	-0.609299	0.039240	-10.398600	-0.480386	-0.535189	0.769510	-0.010880	-0.037770	-0.005659
744	3.723423	0.005000	-0.527058	0.039240	-10.456566	-0.480275	-0.534856	0.770129	-0.003023	-0.032260	-0.009069
745	3.728423	0.005000	-0.529246	0.019126	-10.438828	-0.480164	-0.534523	0.770748	-0.016238	-0.035836	-0.008097
746	3.733423	0.005000	-0.705944	0.019714	-10.359360	-0.480053	-0.534191	0.771367	-0.023321	-0.040621	-0.012326
747	3.738423	0.005000	-0.725023	-0.058554	-10.457766	-0.479942	-0.533858	0.771987	-0.022980	-0.039699	-0.006902
748	3.743423	0.005000	-0.706320	0.000952	-10.437840	-0.479832	-0.533525	0.772606	-0.011570	-0.026984	-0.016069
749	3.748423	0.005000	-0.627840	0.016953	-10.475302	-0.479721	-0.533192	0.773225	-0.018457	-0.051268	-0.004271
750	3.753423	0.005000	-0.706320	0.041812	-10.414363	-0.479610	-0.532860	0.773844	-0.006266	-0.034546	-0.016435
751	3.758423	0.005000	-0.703451	-0.060294	-10.416786	-0.479499	-0.532527	0.774463	-0.000945	-0.042604	-0.012405
752	3.763423	0.005000	-0.627840	0.003684	-10.437840	-0.479388	-0.532194	0.775083	-0.015098	-0.044370	-0.006286
753	3.768423	0.005000	-0.706320	0.078480	-10.398600	-0.479277	-0.531862	0.775702	-0.014471	-0.026457	-0.023285
754	3.773423	0.005000	-0.644818	0.056218	-10.376338	-0.479166	-0.531529	0.776321	-0.006367	-0.040101	-0.010182
755	3.778423	0.005000	-0.622157	-0.044923	-10.499541	-0.479202	-0.531294	0.776503	-0.022546	-0.037874	-0.004761
756	3.783423	0.005000	-0.650714	-0.039240	-10.431332	-0.479424	-0.531183	0.776131	-0.012796	-0.054498	-0.007593
757	3.788423	0.005000	-0.611871	0.039240	-10.437840	-0.479646	-0.531072	0.775760	-0.006758	-0.040501	-0.011205
758	3.793423	0.005000	-0.627840	0.031699	-10.398600	-0.479868	-0.530961	0.775388	-0.014811	-0.029244	-0.017191
759	3.798423	0.005000	-0.714664	-0.015448	-10.414048	-0.480089	-0.530851	0.775017	-0.006703	-0.030552	-0.010900
760	3.803423	0.005000	-0.658286	0.000000	-10.350566	-0.480311	-0.530740	0.774645	-0.015250	-0.021716	-0.007329
761	3.808423	0.005000	-0.633078	-0.024414	-10.398600	-0.480533	-0.530629	0.774274	-0.007433	-0.043664	-0.002826
762	3.813423	0.005000	-0.603013	0.078480	-10.270467	-0.480755	-0.530518	0.773902	-0.008241	-0.034252	-0.001804
763	3.818423	0.005000	-0.642153	0.053553	-10.280880	-0.480977	-0.530407	0.773531	-0.013663	-0.045867	-0.007851
764	3.823423	0.005000	-0.692409	0.064569	-10.320120	-0.481199	-0.530296	0.773159	-0.008884	-0.029163	-0.013572
765	3.828423	0.005000	-0.667080	-0.039240	-10.489293	-0.481421	-0.530185	0.772788	-0.014814	-0.027261	-0.018096
766	3.833423	0.005000	-0.641110	-0.026541	-10.451110	-0.481643	-0.530075	0.772416	-0.014370	-0.028844	-0.008781
767	3.838423	0.005000	-0.654222	0.026382	-10.424982	-0.481864	-0.529964	0.772045	-0.021305	-0.024661	-0.003533
768	3.843423	0.005000	-0.708177	0.012461	-10.464619	-0.482086	-0.529853	0.771673	-0.007672	-0.039422	-0.008573
769	3.848423	0.005000	-0.669165	0.012385	-10.396515	-0.482308	-0.530069	0.770936	-0.000921	-0.042819	-0.002270
770	3.853423	0.005000	-0.691044	-0.039240	-10.344084	-0.482530	-0.530291	0.770193	-0.004679	-0.053041	-0.011311
771	3.858423	0.005000	-0.733986	0.000000	-10.414691	-0.482752	-0.530513	0.769450	-0.010159	-0.041036	-0.014562
772	3.863423	0.005000	-0.768196	0.095084	-10.398600	-0.482974	-0.530735	0.768707	-0.024961	-0.029337	-0.006931
773	3.868423	0.005000	-0.682366	0.146055	-10.348455	-0.483195	-0.530956	0.767964	-0.018805	-0.027741	-0.004301
774	3.873423	0.005000	-0.667080	0.000000	-10.387747	-0.483417	-0.531178	0.767221	-0.012804	-0.016846	-0.011320
775	3.878423	0.005000	-0.745560	0.028795	-10.456190	-0.483639	-0.531400	0.766478	-0.015077	-0.036319	-0.009302
776	3.883423	0.005000	-0.803942	0.088529	-10.427791	-0.483861	-0.531622	0.765735	-0.005393	-0.042111	-0.004156
777	3.888423	0.005000	-0.794753	0.029478	-10.428078	-0.484082	-0.531843	0.764992	-0.000467	-0.036669	-0.017998
778	3.893423	0.005000	-0.655900	0.078480	-10.320120	-0.484304	-0.532065	0.764249	-0.010803	-0.040744	-0.004550
779	3.898423	0.005000	-0.669056	0.099088	-10.260272	-0.484526	-0.532287	0.763506	-0.022787	-0.038744	-0.010848
780	3.903423	0.005000	-0.658160	0.130199	-10.293359	-0.484748	-0.532509	0.762763	-0.011526	-0.036719	-0.009388
781	3.908423	0.005000	-0.597116	0.086996	-10.359360	-0.484970	-0.532731	0.762020	-0.004697	-0.030491	-0.009826
782	3.913423	0.005000	-0.619732	0.031132	-10.437840	-0.484958	-0.532778	0.761992	-0.014832	-0.043225	-0.015626
783	3.918423	0.005000	-0.659367	0.086193	-10.359360	-0.484737	-0.532667	0.762612	-0.000916	-0.045460	-0.009697
784	3.923423	0.005000	-0.691526	0.142166	-10.366757	-0.484515	-0.532556	0.763231	-0.011973	-0.038912	-0.012761
785	3.928423	0.005000	-0.595987	0.046627	-10.454919	-0.484293	-0.532445	0.763851	-0.008015	-0.043560	0.000665
786	3.933423	0.005000	-0.538037	-0.018303	-10.509341	-0.484071	-0.532334	0.764470	-0.023840	-0.028405	-0.015746
787	3.938423	0.005000	-0.660496	0.039240	-10.444424	-0.483849	-0.532223	0.765090	-0.023062	-0.027367	-0.021986
788	3.943423	0.005000	-0.778546	0.072226	-10.437840	-0.483627	-0.532112	0.765709	-0.011445	-0.032774	-0.001858
789	3.948423	0.005000	-0.672937	-0.100148	-10.359360	-0.483405	-0.532001	0.766329	-0.009706	-0.025649	-0.003062
790	3.953423	0.005000	-0.627840	0.139410	-10.365210	-0.483183	-0.531890	0.766948	-0.010889	-0.043405	-0.003360
791	3.958423	0.005000	-0.622384	0.039240	-10.437840	-0.482961	-0.531779	0.767567	-0.011223	-0.032197	-0.017316
792	3.963423	0.005000	-0.632890	0.039240	-10.437840	-0.482739	-0.531668	0.768187	-0.010484	-0.037304	-0.010440
793	3.968423	0.005000	-0.627840	0.156960	-10.393899	-0.482518	-0.531557	0.768806	-0.014755	-0.039447	-0.018280
794	3.973423	0.005000	-0.562265	0.000000	-10.355058	-0.482296	-0.531446	0.769426	-0.020009	-0.030768	-0.014948
795	3.978423	0.005000	-0.663191	0.078480	-10.441729	-0.482098	-0.531335	0.769964	-0.000482	-0.031631	-0.006066
796	3.983423	0.005000	-0.635682	0.039240	-10.445682	-0.482209	-0.531224	0.769468	-0.001050	-0.025927	-0.006070
797	3.988423	0.005000	-0.742047	0.110694	-10.316607	-0.482320	-0.531113	0.768973	0.011992	-0.044525	-0.005803
798	3.993423	0.005000	-0.742440	0.196200	-10.310761	-0.482431	-0.531002	0.768478	-0.007304	-0.029999	-0.010834
799	3.998423	0.005000	-0.591346	0.120466	-10.317374	-0.482542	-0.530891	0.767982	-0.015593	-0.036900	-0.011749
800	4.003423	0.005000	-0.588600	0.005583	-10.283672	-0.482652	-0.530781	0.767487	-0.015085	-0.030475	-0.017028
801	4.008423	0.005000	-0.586216	0.115336	-10.251176	-0.482763	-0.530670	0.766992	-0.028280	-0.040052	-0.017534
802	4.013423	0.005000	-0.590591	0.119711	-10.276898	-0.482874	-0.530559	0.766496	-0.021041	-0.033579	-0.003607
803	4.018423	0.005000	-0.510120	0.044050	-10.398600	-0.482985	-0.530448	0.766001	-0.021972	-0.029450	-0.010424
804	4.023423	0.005000	-0.472086	-0.038034	-10.358154	-0.483096	-0.530337	0.765505	-0.011668	-0.044189	0.001672
805	4.028423	0.005000	-0.625459	0.039240	-10.437840	-0.483207	-0.530226	0.765010	0.001882	-0.031093	0.001902
806	4.033423	0.005000	-0.665356	0.040102	-10.320982	-0.483318	-0.530115	0.764515	-0.007350	-0.037437	-0.016943
807	4.038423	0.005000	-0.550270	0.038785	-10.437840	-0.483428	-0.530005	0.764019	-0.016469	-0.039598	-0.008465
808	4.043423	0.005000	-0.627840	0.039240	-10.437965	-0.483539	-0.529894	0.763524	-0.024039	-0.026922	-0.018528
809	4.048423	0.005000	-0.627840	0.000690	-10.359360	-0.483650	-0.529919	0.763333	-0.025911	-0.039352	-0.003934
810	4.053423	0.005000	-0.626335	0.156207	-10.282385	-0.483761	-0.530030	0.763333	0.001317	-0.033162	-0.008397
811	4.058423	0.005000	-0.665935	0.038095	-10.435550	-0.483872	-0.530141	0.763333	-0.010469	-0.034908	-0.009596
812	4.063423	0.005000	-0.665985	0.077385	-10.396409	-0.483983	-0.530252	0.763333	-0.000737	-0.031452	-0.002827
813	4.068423	0.005000	-0.665588	0.001492	-10.365329	-0.484094	-0.530363	0.763333	-0.010604	-0.024633	-0.018693
814	4.073423	0.005000	-0.629745	0.080385	-10.473270	-0.484205	-0.530473	0.763333	-0.014388	-0.033238	-0.012695
815	4.078423	0.005000	-0.664806	0.076206	-10.435566	-0.484316	-0.530584	0.763333	-0.018491	-0.026485	-0.013210
816	4.083423	0.005000	-0.627840	0.000000	-10.437840	-0.484427	-0.530695	0.763333	-0.007465	-0.040041	-0.007672
817	4.088423	0.005000	-0.630928	0.006177	-10.401688	-0.484538	-0.530806	0.763333	-0.010923	-0.039359	-0.004362
818	4.093423	0.005000	-0.627840	0.039240	-10.402082	-0.484649	-0.530917	0.763333	-0.014363	-0.043730	-0.010873
819	4.098423	0.005000	-0.623951	0.039240	-10.473191	-0.484760	-0.531028	0.763333	-0.010141	-0.032687	-0.009965
820	4.103423	0.005000	-0.639412	0.121577	-10.469365	-0.484871	-0.531139	0.763333	-0.014838	-0.021978	-0.023899
821	4.108423	0.005000	-0.702050	0.113450	-10.402870	-0.484981	-0.531249	0.763333	-0.015696	-0.045549	-0.012359
822	4.113423	0.005000	-0.657746	0.113053	-10.437840	-0.485179	-0.531517	0.763643	-0.000298	-0.034833	-0.010369
823	4.118423	0.005000	-0.559397	0.039240	-10.354341	-0.485845	-0.532626	0.765626	-0.006614	-0.048932	0.009169
824	4.123423	0.005000	-0.599449	0.073056	-10.286304	-0.486511	-0.533736	0.767608	-0.014474	-0.036705	-0.005975
825	4.128423	0.005000	-0.694683	0.000000	-10.437840	-0.487176	-0.534845	0.769590	-0.009262	-0.036667	-0.009674
826	4.133423	0.005000	-0.643841	0.011620	-10.510510	-0.487842	-0.535955	0.771573	-0.011724	-0.038249	-0.010384
827	4.138423	0.005000	-0.497675	0.138292	-10.392377	-0.488508	-0.537065	0.773555	-0.024291	-0.029075	-0.017570
828	4.143423	0.005000	-0.516755	0.150325	-10.391965	-0.489173	-0.538174	0.775538	-0.018229	-0.035905	-0.012599
829	4.148423	0.005000	-0.620892	0.046188	-10.320120	-0.489839	-0.539284	0.777520	-0.014746	-0.041137	-0.007938
830	4.153423	0.005000	-0.549360	0.156960	-10.415782	-0.490505	-0.540393	0.779502	-0.002490	-0.043867	0.000444
831	4.158423	0.005000	-0.588600	0.133679	-10.249400	-0.491170	-0.541503	0.781485	0.008815	-0.037058	-0.009055
832	4.163423	0.005000	-0.650769	0.031085	-10.249795	-0.491836	-0.542612	0.783467	-0.021011	-0.030584	-0.015341
833	4.168423	0.005000	-0.619280	-0.017119	-10.446400	-0.492502	-0.543722	0.785449	-0.020365	-0.041860	-0.008163
834	4.173423	0.005000	-0.667080	-0.061305	-10.477080	-0.493168	-0.544831	0.787432	-0.021595	-0.025711	-0.019229
835	4.178423	0.005000	-0.597600	0.048240	-10.459079	-0.493833	-0.545941	0.789414	-0.014833	-0.039311	-0.011671
836	4.183423	0.005000	-0.678128	0.059685	-10.426792	-0.493718	-0.545722	0.788866	-0.012001	-0.050265	-0.004102
837	4.188423	0.005000	-0.588600	-0.009689	-10.496943	-0.493274	-0.544946	0.787257	-0.002074	-0.043862	-0.006290
838	4.193423	0.005000	-0.559444	-0.078480	-10.398600	-0.492831	-0.544170	0.785648	-0.003120	-0.031313	-0.005312
839	4.198423	0.005000	-0.693099	-0.018256	-10.309628	-0.492388	-0.543394	0.784039	-0.007746	-0.019010	-0.019059
840	4.203423	0.005000	-0.656184	0.039240	-10.381151	-0.491944	-0.542619	0.782430	-0.007544	-0.032915	-0.022816
841	4.208423	0.005000	-0.712701	0.021906	-10.477080	-0.491501	-0.541843	0.780820	-0.016973	-0.041984	-0.019110
842	4.213423	0.005000	-0.627840	-0.005177	-10.426486	-0.491057	-0.541067	0.779211	-0.012252	-0.042922	-0.005402
843	4.218423	0.005000	-0.733798	0.039240	-10.426078	-0.490614	-0.540291	0.777602	-0.010301	-0.041497	0.007379
844	4.223423	0.005000	-0.639864	0.012024	-10.425816	-0.490171	-0.539515	0.775993	-0.013258	-0.028650	-0.004951
845	4.228423	0.005000	-0.667080	0.051661	-10.425419	-0.489727	-0.538739	0.774384	-0.010889	-0.048213	-0.004643
846	4.233423	0.005000	-0.575018	0.079233	-10.320120	-0.489284	-0.537963	0.772774	-0.008233	-0.024609	-0.014022
847	4.238423	0.005000	-0.680509	0.052145	-10.385695	-0.488840	-0.537187	0.771165	-0.014301	-0.044539	-0.027116
848	4.243423	0.005000	-0.575282	0.052558	-10.476366	-0.488397	-0.536411	0.769556	0.000065	-0.034394	-0.015737
849	4.248423	0.005000	-0.510120	0.001412	-10.424289	-0.487900	-0.535768	0.768392	0.006207	-0.036761	-0.006860
850	4.253423	0.005000	-0.577277	-0.013958	-10.409923	-0.487235	-0.535546	0.768640	-0.001527	-0.038632	0.001810
851	4.258423	0.005000	-0.578081	0.003841	-10.398600	-0.486569	-0.535324	0.768888	-0.011262	-0.031658	-0.016141
852	4.263423	0.005000	-0.642301	-0.064019	-10.398600	-0.485904	-0.535102	0.769136	0.001802	-0.029375	-0.009529
853	4.268423	0.005000	-0.657568	0.039240	-10.462216	-0.485238	-0.534881	0.769383	-0.012916	-0.020464	-0.008228
854	4.273423	0.005000	-0.549360	0.063393	-10.461993	-0.484573	-0.534659	0.769631	-0.016120	-0.028123	-0.016606
855	4.278423	0.005000	-0.667080	0.007227	-10.500831	-0.483907	-0.534437	0.769879	-0.014734	-0.029459	-0.003465
856	4.283423	0.005000	-0.690433	0.086902	-10.430375	-0.483242	-0.534215	0.770127	-0.020982	-0.025497	-0.011898
857	4.288423	0.005000	-0.699670	0.075484	-10.477080	-0.482577	-0.533993	0.770374	-0.001832	-0.057110	-0.008859
858	4.293423	0.005000	-0.616991	0.016696	-10.398600	-0.481911	-0.533772	0.770622	-0.005487	-0.029627	-0.012143
859	4.298423	0.005000	-0.662030	0.078480	-10.359360	-0.481246	-0.533550	0.770870	-0.009987	-0.037505	-0.007231
860	4.303423	0.005000	-0.728064	-0.056736	-10.359360	-0.480580	-0.533328	0.771117	-0.008049	-0.036495	-0.009387
861	4.308423	0.005000	-0.688684	-0.003968	-10.416236	-0.479915	-0.533106	0.771365	-0.032575	-0.042973	-0.008651
862	4.313423	0.005000	-0.624697	0.057288	-10.362503	-0.479249	-0.532884	0.771613	-0.019757	-0.038163	-0.009485
863	4.318423	0.005000	-0.549360	0.078480	-10.322912	-0.479364	-0.532749	0.771183	-0.020464	-0.043986	-0.008098
864	4.323423	0.005000	-0.627840	0.117720	-10.280880	-0.479697	-0.532638	0.770563	-0.013602	-0.045722	-0.009226
865	4.328423	0.005000	-0.668256	0.080832	-10.339152	-0.480030	-0.532527	0.769944	-0.010185	-0.024431	-0.008150
866	4.333423	0.005000	-0.549736	-0.019808	-10.457648	-0.480363	-0.532416	0.769324	-0.013492	-0.035710	-0.021000
867	4.338423	0.005000	-0.529835	0.058701	-10.339772	-0.480696	-0.532305	0.768705	-0.015914	-0.031881	-0.008510
868	4.343423	0.005000	-0.647841	0.097719	-10.397838	-0.481029	-0.532194	0.768085	-0.012381	-0.039759	-0.010899
869	4.348423	0.005000	-0.568186	0.117720	-10.419014	-0.481362	-0.532083	0.767465	-0.006409	-0.050984	-0.006712
870	4.353423	0.005000	-0.586219	0.016048	-10.336168	-0.481694	-0.531972	0.766846	-0.006419	-0.024010	-0.010270
871	4.358423	0.005000	-0.669761	0.020960	-10.356679	-0.482027	-0.531861	0.766226	-0.009619	-0.036269	-0.012935
872	4.363423	0.005000	-0.784800	0.074998	-10.334517	-0.482360	-0.531750	0.765607	-0.023188	-0.033980	-0.011648
873	4.368423	0.005000	-0.623543	-0.021769	-10.416071	-0.482693	-0.531639	0.764987	-0.031408	-0.028910	-0.017024
874	4.373423	0.005000	-0.667080	0.034145	-10.381528	-0.483026	-0.531528	0.764368	-0.024620	-0.035516	-0.003068
875	4.378423	0.005000	-0.667080	0.000000	-10.460408	-0.483359	-0.531417	0.763748	-0.013842	-0.032956	-0.002967
876	4.383423	0.005000	-0.565828	-0.016468	-10.470776	-0.483582	-0.531343	0.763456	-0.004132	-0.038914	0.003554
877	4.388423	0.005000	-0.595156	0.032684	-10.313564	-0.483582	-0.531343	0.763827	-0.009823	-0.033432	-0.013461
878	4.393423	0.005000	-0.667080	-0.071127	-10.359360	-0.483582	-0.531343	0.764199	-0.016600	-0.040479	-0.018272
879	4.398423	0.005000	-0.698933	-0.008155	-10.320120	-0.483582	-0.531343	0.764571	-0.022836	-0.029986	-0.012873
880	4.403423	0.005000	-0.618869	0.000000	-10.329091	-0.483582	-0.531343	0.764942	-0.010449	-0.031766	-0.023890
881	4.408423	0.005000	-0.676847	0.009767	-10.349593	-0.483582	-0.531343	0.765314	-0.009625	-0.043577	-0.007913
882	4.413423	0.005000	-0.642349	0.049463	-10.320120	-0.483582	-0.531343	0.765686	-0.021555	-0.035468	-0.008265
883	4.418423	0.005000	-0.656064	-0.050256	-10.488096	-0.483582	-0.531343	0.766057	-0.008308	-0.041956	-0.013090
884	4.423423	0.005000	-0.718162	0.064781	-10.400457	-0.483582	-0.531343	0.766429	-0.023585	-0.028039	-0.008490
885	4.428423	0.005000	-0.680688	0.012024	-10.347336	-0.483582	-0.531343	0.766801	-0.020881	-0.026021	-0.017913
886	4.433423	0.005000	-0.601805	0.065275	-10.346155	-0.483582	-0.531343	0.767172	-0.022454	-0.047091	-0.013838
887	4.438423	0.005000	-0.575792	0.013623	-10.437840	-0.483582	-0.531343	0.767544	-0.019283	-0.029611	-0.010120
888	4.443423	0.005000	-0.681208	-0.014128	-10.437840	-0.483582	-0.531343	0.767916	-0.013042	-0.040940	-0.015877
889	4.448423	0.005000	-0.558694	-0.054193	-10.347217	-0.483582	-0.531343	0.768287	-0.008126	-0.035551	0.000166
890	4.453423	0.005000	-0.534273	-0.012076	-10.332196	-0.483387	-0.531246	0.768224	-0.020432	-0.032421	-0.003023
891	4.458423	0.005000	-0.447543	0.015903	-10.308452	-0.483166	-0.531135	0.768101	-0.010079	-0.038979	-0.010866
892	4.463423	0.005000	-0.566056	0.055936	-10.415296	-0.482944	-0.531024	0.767977	-0.010466	-0.026144	-0.019237
893	4.468423	0.005000	-0.667080	-0.006238	-10.398600	-0.482722	-0.530913	0.767853	-0.008664	-0.037630	-0.011345
894	4.473423	0.005000	-0.599204	-0.039240	-10.416633	-0.482500	-0.530802	0.767729	-0.022813	-0.037216	-0.010350
895	4.478423	0.005000	-0.481071	0.029049	-10.378218	-0.482278	-0.530691	0.767605	-0.008999	-0.044476	-0.011035
896	4.483423	0.005000	-0.578457	0.068337	-10.417554	-0.482057	-0.530581	0.767482	-0.002201	-0.042693	0.001653
897	4.488423	0.005000	-0.539621	0.048979	-10.388578	-0.481835	-0.530470	0.767358	-0.005727	-0.033308	-0.016211
898	4.493423	0.005000	-0.510120	0.048584	-10.368704	-0.481613	-0.530359	0.767234	-0.002992	-0.039649	-0.008345
899	4.498423	0.005000	-0.600696	-0.039240	-10.359360	-0.481391	-0.530248	0.767110	-0.013123	-0.034885	-0.021348
900	4.503423	0.005000	-0.557995	0.052574	-10.398600	-0.481169	-0.530137	0.766986	-0.015254	-0.047791	-0.016062
901	4.508423	0.005000	-0.557598	-0.062003	-10.351122	-0.480948	-0.530026	0.766863	-0.011086	-0.024493	-0.008732
902	4.513423	0.005000	-0.627840	0.008215	-10.336550	-0.480726	-0.529915	0.766739	-0.006453	-0.043425	-0.004196
903	4.518423	0.005000	-0.604214	0.007807	-10.375178	-0.480690	-0.529897	0.766667	0.000350	-0.037788	-0.009958
904	4.523423	0.005000	-0.566123	-0.016763	-10.320120	-0.480912	-0.530008	0.766667	-0.002124	-0.039298	-0.011945
905	4.528423	0.005000	-0.613649	-0.021287	-10.391504	-0.481134	-0.530119	0.766667	0.004365	-0.032024	-0.006103
906	4.533423	0.005000	-0.660397	0.045923	-10.437840	-0.481355	-0.530230	0.766667	-0.014105	-0.032989	-0.019424
907	4.538423	0.005000	-0.569395	0.006678	-10.437840	-0.481577	-0.530341	0.766667	-0.016692	-0.040739	-0.018516
908	4.543423	0.005000	-0.582327	0.012547	-10.359360	-0.481799	-0.530452	0.766667	-0.017837	-0.033943	-0.000065
909	4.548423	0.005000	-0.649443	-0.039240	-10.410358	-0.482021	-0.530563	0.766667	-0.017591	-0.036456	-0.002549
910	4.553423	0.005000	-0.678027	-0.078480	-10.443314	-0.482243	-0.530674	0.766667	-0.003976	-0.030175	-0.003615
911	4.558423	0.005000	-0.559614	0.000000	-10.398600	-0.482464	-0.530784	0.766667	-0.007111	-0.036673	-0.011580
912	4.563423	0.005000	-0.554090	-0.069019	-10.433110	-0.482686	-0.530895	0.766667	-0.002426	-0.037860	-0.017875
913	4.568423	0.005000	-0.627840	0.000000	-10.437840	-0.482908	-0.531006	0.766667	-0.025629	-0.025790	-0.014590
914	4.573423	0.005000	-0.627840	0.043584	-10.481424	-0.483130	-0.531117	0.766667	-0.008795	-0.032354	-0.012947
915	4.578423	0.005000	-0.667080	0.003937	-10.402537	-0.483352	-0.531228	0.766667	0.000771	-0.039674	-0.013013
916	4.583423	0.005000	-0.438726	0.078480	-10.466451	-0.483573	-0.531339	0.766667	0.002480	-0.023899	-0.014502
917	4.588423	0.005000	-0.431640	0.045590	-10.395425	-0.483262	-0.531450	0.766429	-0.014311	-0.038642	-0.001567
918	4.593423	0.005000	-0.627840	0.033716	-10.359360	-0.482930	-0.531561	0.766181	-0.011422	-0.034756	-0.014083
919	4.598423	0.005000	-0.594215	-0.078480	-10.471465	-0.482597	-0.531671	0.765933	-0.006676	-0.046838	-0.013917
920	4.603423	0.005000	-0.632669	-0.002414	-10.401014	-0.482264	-0.531782	0.765686	-0.021684	-0.033586	-0.006785
921	4.608423	0.005000	-0.629847	-0.080487	-10.392578	-0.481931	-0.531893	0.765438	-0.007626	-0.031828	-0.008143
922	4.613423	0.005000	-0.780001	-0.001600	-10.320120	-0.481599	-0.532004	0.765190	-0.016748	-0.036096	-0.001023
923	4.618423	0.005000	-0.706320	0.039240	-10.358138	-0.481266	-0.532115	0.764943	-0.011756	-0.043926	-0.014646
924	4.623423	0.005000	-0.627840	0.037621	-10.400219	-0.480933	-0.532226	0.764695	-0.004389	-0.049704	-0.004771
925	4.628423	0.005000	-0.667080	0.040431	-10.399394	-0.480600	-0.532337	0.764447	-0.023218	-0.038185	-0.013982
926	4.633423	0.005000	-0.744148	0.038769	-10.360301	-0.480268	-0.532448	0.764199	-0.021780	-0.028804	-0.018479
927	4.638423	0.005000	-0.627997	0.196043	-10.516242	-0.479935	-0.532559	0.763952	-0.014214	-0.025202	-0.011205
928	4.643423	0.005000	-0.588600	-0.038582	-10.437840	-0.479602	-0.532670	0.763704	-0.005732	-0.046919	-0.010502
929	4.648423	0.005000	-0.588600	0.116983	-10.398600	-0.479269	-0.532781	0.763456	0.003829	-0.052490	-0.011199
930	4.653423	0.005000	-0.476526	0.038111	-10.397471	-0.479216	-0.532892	0.763831	-0.003716	-0.037390	-0.014927
931	4.658423	0.005000	-0.706320	-0.034631	-10.360896	-0.479438	-0.533003	0.764823	-0.008623	-0.035994	-0.015202
932	4.663423	0.005000	-0.588600	-0.037311	-10.435911	-0.479660	-0.533114	0.765814	-0.015272	-0.030567	-0.008045
933	4.668423	0.005000	-0.586711	-0.005667	-10.320120	-0.479882	-0.533224	0.766805	-0.013243	-0.031366	-0.025230
934	4.673423	0.005000	-0.627840	-0.036954	-10.359360	-0.480103	-0.533335	0.767796	-0.014800	-0.034075	-0.007733
935	4.678423	0.005000	-0.633237	0.000000	-10.351264	-0.480325	-0.533446	0.768787	-0.029306	-0.028452	-0.006430
936	4.683423	0.005000	-0.657790	0.000000	-10.287073	-0.480547	-0.533557	0.769779	-0.008683	-0.045859	0.001546
937	4.688423	0.005000	-0.595532	-0.028842	-10.323586	-0.480769	-0.533668	0.770770	-0.003340	-0.038153	-0.009878
938	4.693423	0.005000	-0.659335	0.074608	-10.398600	-0.480991	-0.533779	0.771761	-0.005923	-0.032169	-0.024881
939	4.698423	0.005000	-0.623574	0.109188	-10.398600	-0.481213	-0.533890	0.772752	-0.016699	-0.030812	-0.003684
940	4.703423	0.005000	-0.632514	0.073806	-10.378055	-0.481435	-0.534001	0.773744	-0.017792	-0.027402	-0.013696
941	4.708423	0.005000	-0.710971	-0.039240	-10.536956	-0.481657	-0.534112	0.774735	-0.001267	-0.045379	-0.008139
942	4.713423	0.005000	-0.632904	-0.034176	-10.344169	-0.481879	-0.534223	0.775726	0.004166	-0.048791	-0.008615
943	4.718423	0.005000	-0.633235	-0.028450	-10.280880	-0.482090	-0.534317	0.776617	-0.008261	-0.036471	-0.009186
944	4.723423	0.005000	-0.700517	0.039240	-10.214006	-0.482090	-0.534095	0.775626	-0.014993	-0.022161	-0.004479
945	4.728423	0.005000	-0.712528	0.039240	-10.266473	-0.482090	-0.533873	0.774635	-0.010648	-0.027311	-0.022863
946	4.733423	0.005000	-0.648460	0.026827	-10.398600	-0.482090	-0.533651	0.773645	-0.007824	-0.038421	-0.009608
947	4.738423	0.005000	-0.568790	0.000000	-10.470477	-0.482090	-0.533430	0.772654	-0.011708	-0.029824	-0.015638
948	4.743423	0.005000	-0.627840	0.071464	-10.366376	-0.482090	-0.533208	0.771663	-0.017282	-0.041197	-0.004440
949	4.748423	0.005000	-0.642514	0.039240	-10.359360	-0.482090	-0.532986	0.770672	-0.001997	-0.028510	-0.007012
950	4.753423	0.005000	-0.651036	-0.007732	-10.437840	-0.482090	-0.532764	0.769681	-0.009674	-0.040561	-0.006185
951	4.758423	0.005000	-0.667080	-0.062201	-10.429700	-0.482090	-0.532542	0.768691	-0.012028	-0.035243	-0.005947
952	4.763423	0.005000	-0.580056	0.030696	-10.412208	-0.482090	-0.532321	0.767700	-0.011602	-0.023527	-0.010066
953	4.768423	0.005000	-0.557932	0.017144	-10.390028	-0.482090	-0.532099	0.766709	-0.004570	-0.040571	-0.010939
954	4.773423	0.005000	-0.597569	-0.008969	-10.428871	-0.482090	-0.531877	0.765718	-0.019974	-0.031765	-0.009223
955	4.778423	0.005000	-0.599696	-0.069099	-10.378123	-0.482090	-0.531655	0.764728	-0.007097	-0.044802	-0.006268
956	4.783423	0.005000	-0.598273	0.010222	-10.398600	-0.482090	-0.531433	0.763737	-0.012727	-0.046044	-0.003962
957	4.788423	0.005000	-0.637909	0.020138	-10.310051	-0.482090	-0.531540	0.763553	-0.012916	-0.026124	-0.013084
958	4.793423	0.005000	-0.667080	0.078480	-10.369472	-0.482090	-0.531873	0.763925	-0.006888	-0.035110	-0.006150
959	4.798423	0.005000	-0.656556	0.089004	-10.359360	-0.482090	-0.532206	0.764296	-0.014524	-0.022370	-0.017778
960	4.803423	0.005000	-0.699891	0.034732	-10.387663	-0.482090	-0.532538	0.764668	-0.014302	-0.035888	-0.008306
961	4.808423	0.005000	-0.667080	-0.028042	-10.331318	-0.482090	-0.532871	0.765039	-0.016025	-0.033287	-0.008105
962	4.813423	0.005000	-0.651042	-0.039240	-10.320120	-0.482090	-0.533204	0.765411	-0.009764	-0.040464	-0.005952
963	4.818423	0.005000	-0.643063	-0.012009	-10.489089	-0.482090	-0.533536	0.765782	-0.013114	-0.035191	0.009867
964	4.823423	0.005000	-0.612760	-0.039240	-10.516320	-0.482090	-0.533869	0.766154	-0.004542	-0.026722	-0.003757
965	4.828423	0.005000	-0.535074	0.039240	-10.425363	-0.482090	-0.534202	0.766525	-0.006681	-0.032961	-0.005657
966	4.833423	0.005000	-0.497230	0.052701	-10.333010	-0.482090	-0.534535	0.766897	-0.007306	-0.034372	-0.017637
967	4.838423	0.005000	-0.667080	0.091116	-10.294182	-0.482090	-0.534867	0.767268	-0.006277	-0.040188	-0.011499
968	4.843423	0.005000	-0.576430	-0.012170	-10.320120	-0.482090	-0.535200	0.767640	-0.002987	-0.033981	0.001743
969	4.848423	0.005000	-0.549360	-0.041811	-10.398600	-0.482090	-0.535533	0.768011	-0.014592	-0.042135	-0.010546
970	4.853423	0.005000	-0.588600	0.010571	-10.388029	-0.482239	-0.535895	0.768516	-0.016167	-0.046315	0.001908
971	4.858423	0.005000	-0.578250	-0.028890	-10.413045	-0.483348	-0.536450	0.769878	-0.021686	-0.027611	-0.016005
972	4.863423	0.005000	-0.730718	0.009556	-10.398600	-0.484457	-0.537004	0.771240	-0.006584	-0.041508	-0.018379
973	4.868423	0.005000	-0.573534	0.015066	-10.389492	-0.485566	-0.537559	0.772602	-0.016880	-0.037401	-0.018207
974	4.873423	0.005000	-0.494656	0.023776	-10.398600	-0.486675	-0.538113	0.773965	-0.023259	-0.040962	-0.011099
975	4.878423	0.005000	-0.518495	-0.031743	-10.366857	-0.487784	-0.538668	0.775327	-0.011357	-0.031039	-0.002081
976	4.883423	0.005000	-0.621146	0.009579	-10.398600	-0.488893	-0.539222	0.776689	-0.002713	-0.039119	-0.009167
977	4.888423	0.005000	-0.614950	0.088433	-10.398600	-0.490002	-0.539777	0.778052	-0.005404	-0.047399	-0.003209
978	4.893423	0.005000	-0.672717	0.061679	-10.398600	-0.491111	-0.540332	0.779414	-0.010447	-0.031181	-0.004879
979	4.898423	0.005000	-0.649873	0.078480	-10.442666	-0.492220	-0.540886	0.780776	-0.018272	-0.036930	-0.012718
980	4.903423	0.005000	-0.614875	-0.078480	-10.341958	-0.493328	-0.541441	0.782138	-0.021419	-0.024144	-0.015687
981	4.908423	0.005000	-0.684881	0.017801	-10.355721	-0.494437	-0.541995	0.783501	-0.007037	-0.029122	-0.008702
982	4.913423	0.005000	-0.724528	0.057448	-10.474257	-0.495546	-0.542550	0.784863	-0.001489	-0.048821	0.002321
983	4.918423	0.005000	-0.685430	0.060130	-10.461270	-0.496655	-0.543104	0.786225	-0.010783	-0.029210	-0.015993
984	4.923423	0.005000	-0.648317	0.040954	-10.396886	-0.496565	-0.543059	0.786500	0.004605	-0.040060	-0.009747
985	4.928423	0.005000	-0.647920	0.000921	-10.418680	-0.495900	-0.542726	0.786252	-0.007618	-0.031499	-0.018890
986	4.933423	0.005000	-0.648307	0.019902	-10.417938	-0.495235	-0.542394	0.786004	-0.007104	-0.030144	-0.016116
987	4.938423	0.005000	-0.568862	0.000000	-10.379098	-0.494569	-0.542061	0.785756	-0.017444	-0.033465	-0.007098
988	4.943423	0.005000	-0.647978	-0.038205	-10.320120	-0.493904	-0.541728	0.785509	-0.017584	-0.040184	-0.014694
989	4.948423	0.005000	-0.589982	-0.056788	-10.378289	-0.493238	-0.541395	0.785261	-0.002834	-0.050486	-0.007803
990	4.953423	0.005000	-0.609315	0.022906	-10.380075	-0.492573	-0.541063	0.785013	-0.008611	-0.039337	-0.003481
991	4.958423	0.005000	-0.609728	0.099608	-10.380488	-0.491908	-0.540730	0.784765	-0.004190	-0.049652	-0.006936
992	4.963423	0.005000	-0.641745	0.092385	-10.320120	-0.491242	-0.540397	0.784518	-0.016889	-0.036092	-0.010730
993	4.968423	0.005000	-0.614384	-0.065024	-10.402709	-0.490577	-0.540065	0.784270	-0.018507	-0.033323	-0.017450
994	4.973423	0.005000	-0.544453	0.066220	-10.332380	-0.489911	-0.539732	0.784022	-0.019893	-0.045530	-0.007392
995	4.978423	0.005000	-0.588600	0.078480	-10.376126	-0.489246	-0.539399	0.783775	-0.012802	-0.042907	0.000302
996	4.983423	0.005000	-0.526692	-0.006096	-10.510224	-0.488581	-0.539066	0.783527	-0.005333	-0.049645	-0.014107
997	4.988423	0.005000	-0.650920	-0.006921	-10.405521	-0.488156	-0.538951	0.783602	-0.011779	-0.026563	0.000227
998	4.993423	0.005000	-0.541614	-0.039240	-10.437840	-0.488600	-0.539616	0.784840	-0.009773	-0.038445	-0.016677
999	4.998423	0.005000	-0.510120	0.102370	-10.398600	-0.489043	-0.540281	0.786078	-0.016223	-0.040552	-0.007224
1000	5.003423	0.005000	-0.582125	0.141722	-10.477080	-0.489487	-0.540946	0.787316	-0.020157	-0.023715	-0.014136
1001	5.008423	0.005000	-0.706320	0.068901	-10.501489	-0.489930	-0.541611	0.788554	-0.003324	-0.040720	-0.011912
1002	5.013423	0.005000	-0.652651	0.103291	-10.487462	-0.490373	-0.542276	0.789792	-0.011410	-0.033655	-0.007092
1003	5.018423	0.005000	-0.692289	0.131751	-10.387422	-0.490817	-0.542941	0.791029	-0.015232	-0.036851	0.004514
1004	5.023423	0.005000	-0.667080	0.064851	-10.371342	-0.491260	-0.543606	0.792267	-0.018770	-0.036443	-0.005991
1005	5.028423	0.005000	-0.628745	0.039240	-10.359360	-0.491704	-0.544271	0.793505	-0.017579	-0.026908	-0.010264
1006	5.033423	0.005000	-0.680350	0.000000	-10.385615	-0.492147	-0.544937	0.794743	-0.011962	-0.040698	-0.014966
1007	5.038423	0.005000	-0.615268	0.078480	-10.437840	-0.492590	-0.545602	0.795981	-0.023866	-0.038267	-0.009862
1008	5.043423	0.005000	-0.681321	0.039240	-10.437840	-0.493034	-0.546267	0.797219	0.001285	-0.052903	-0.006501
1009	5.048423	0.005000	-0.694228	0.012092	-10.452896	-0.493477	-0.546932	0.798457	0.010315	-0.045062	-0.006477
1010	5.053423	0.005000	-0.694478	-0.039240	-10.410442	-0.493921	-0.547597	0.799694	-0.004413	-0.044507	-0.008233
1011	5.058423	0.005000	-0.639269	0.050669	-10.454222	-0.493529	-0.547260	0.798508	-0.026328	-0.032500	-0.009919
1012	5.063423	0.005000	-0.638861	-0.039240	-10.448861	-0.492863	-0.546594	0.796526	-0.023701	-0.026794	-0.012199
1013	5.068423	0.005000	-0.510120	-0.084832	-10.398600	-0.492198	-0.545929	0.794545	-0.006274	-0.035804	-0.017378
1014	5.073423	0.005000	-0.656514	-0.057347	-10.320120	-0.491533	-0.545264	0.792563	-0.011672	-0.026000	-0.018551
1015	5.078423	0.005000	-0.735397	-0.107557	-10.456754	-0.490867	-0.544598	0.790582	-0.009376	-0.037111	-0.009797
1016	5.083423	0.005000	-0.715940	-0.078480	-10.369233	-0.490202	-0.543933	0.788600	-0.002997	-0.045942	-0.004681
1017	5.088423	0.005000	-0.588600	0.069003	-10.329597	-0.489536	-0.543267	0.786619	-0.016688	-0.039645	-0.008633
1018	5.093423	0.005000	-0.528995	-0.069042	-10.290318	-0.488871	-0.542602	0.784637	-0.010318	-0.038387	-0.000715
1019	5.098423	0.005000	-0.609773	-0.060413	-10.350326	-0.488206	-0.541937	0.782656	-0.014015	-0.025803	-0.005920
1020	5.103423	0.005000	-0.588600	0.052602	-10.320120	-0.487540	-0.541271	0.780674	-0.016678	-0.034493	-0.009610
1021	5.108423	0.005000	-0.611379	0.008231	-10.336581	-0.486875	-0.540606	0.778693	-0.021991	-0.037944	-0.010337
1022	5.113423	0.005000	-0.612188	0.000000	-10.312294	-0.486209	-0.539940	0.776711	-0.003425	-0.046579	-0.012359
1023	5.118423	0.005000	-0.571894	0.031729	-10.320120	-0.485544	-0.539275	0.774730	0.005862	-0.038961	-0.001562
1024	5.123423	0.005000	-0.556471	0.071369	-10.437840	-0.484944	-0.538675	0.773114	-0.013727	-0.032204	-0.015086
1025	5.128423	0.005000	-0.510120	0.025843	-10.444539	-0.484500	-0.538232	0.772371	-0.013092	-0.046338	-0.009600
1026	5.133423	0.005000	-0.556057	0.078480	-10.437840	-0.484057	-0.537788	0.771628	-0.022502	-0.038260	-0.022339
1027	5.138423	0.005000	-0.549360	0.111431	-10.320120	-0.483613	-0.537344	0.770885	-0.010446	-0.035946	-0.012085
1028	5.143423	0.005000	-0.561149	0.005895	-10.308331	-0.483169	-0.536901	0.770142	-0.018746	-0.039879	-0.004412
1029	5.148423	0.005000	-0.611372	-0.028262	-10.426862	-0.482726	-0.536457	0.769399	-0.006000	-0.046086	-0.009696
1030	5.153423	0.005000	-0.510120	-0.034145	-10.418980	-0.482282	-0.536014	0.768656	-0.008510	-0.044383	-0.003155
1031	5.158423	0.005000	-0.653018	-0.043927	-10.428465	-0.481838	-0.535570	0.767913	-0.013422	-0.036283	-0.009921
1032	5.163423	0.005000	-0.837279	0.004334	-10.437840	-0.481395	-0.535126	0.767170	-0.008334	-0.032376	-0.013545
1033	5.168423	0.005000	-0.710257	0.074543	-10.390727	-0.480951	-0.534683	0.766427	-0.020104	-0.030954	-0.012578
1034	5.173423	0.005000	-0.674128	0.117720	-10.434316	-0.480507	-0.534239	0.765684	-0.014306	-0.043132	0.001804
1035	5.178423	0.005000	-0.588600	0.124837	-10.405717	-0.480064	-0.533796	0.764940	-0.007453	-0.034115	0.001356
1036	5.183423	0.005000	-0.700015	0.039240	-10.431535	-0.479620	-0.533352	0.764197	-0.000217	-0.030220	-0.016808
1037	5.188423	0.005000	-0.700802	-0.030962	-10.364878	-0.479176	-0.532908	0.763454	-0.002895	-0.041855	-0.010101
1038	5.193423	0.005000	-0.708673	-0.002353	-10.433135	-0.479197	-0.532743	0.763747	-0.033703	-0.018855	-0.017020
1039	5.198423	0.005000	-0.596473	0.035303	-10.363297	-0.479308	-0.532632	0.764243	-0.020879	-0.039606	-0.007388
1040	5.203423	0.005000	-0.588600	0.117720	-10.397028	-0.479419	-0.532521	0.764738	-0.020737	-0.032286	-0.000109
1041	5.208423	0.005000	-0.588600	0.117720	-10.396282	-0.479530	-0.532410	0.765234	-0.006185	-0.036371	-0.013026
1042	5.213423	0.005000	-0.548614	0.078480	-10.360106	-0.479641	-0.532299	0.765729	-0.006217	-0.036063	-0.007317
1043	5.218423	0.005000	-0.626443	0.039240	-10.320120	-0.479751	-0.532189	0.766224	-0.012802	-0.027803	-0.022181
1044	5.223423	0.005000	-0.472573	0.039663	-10.398177	-0.479862	-0.532078	0.766720	-0.010780	-0.035879	-0.015685
1045	5.228423	0.005000	-0.549376	-0.039193	-10.398600	-0.479973	-0.531967	0.767215	-0.035168	-0.026522	-0.012319
1046	5.233423	0.005000	-0.705923	-0.078480	-10.475889	-0.480084	-0.531856	0.767711	-0.015527	-0.032567	-0.011578
1047	5.238423	0.005000	-0.589394	-0.039240	-10.397806	-0.480195	-0.531745	0.768206	-0.009176	-0.035427	-0.009496
1048	5.243423	0.005000	-0.702746	0.002383	-10.321311	-0.480306	-0.531634	0.768701	-0.011167	-0.043932	-0.013125
1049	5.248423	0.005000	-0.624672	0.116136	-10.357776	-0.480417	-0.531523	0.769197	-0.015839	-0.044010	-0.009762
1050	5.253423	0.005000	-0.662461	0.042320	-10.362440	-0.480528	-0.531412	0.769692	-0.010880	-0.021022	-0.014692
1051	5.258423	0.005000	-0.553233	0.072670	-10.398600	-0.480765	-0.531301	0.769906	0.001121	-0.030136	-0.026674
1052	5.263423	0.005000	-0.669400	-0.036920	-10.400920	-0.481209	-0.531190	0.769658	-0.012614	-0.024847	-0.017227
1053	5.268423	0.005000	-0.737420	0.112294	-10.359360	-0.481653	-0.531079	0.769411	-0.008701	-0.028577	-0.018930
1054	5.273423	0.005000	-0.676443	0.117720	-10.356239	-0.482096	-0.530968	0.769163	-0.003251	-0.040045	-0.003030
1055	5.278423	0.005000	-0.631367	0.071425	-10.366415	-0.482540	-0.530857	0.768915	-0.003263	-0.037385	-0.003076
1056	5.283423	0.005000	-0.702828	0.035748	-10.398600	-0.482984	-0.530746	0.768667	-0.001497	-0.036535	-0.011345
1057	5.288423	0.005000	-0.623935	0.000000	-10.433935	-0.483428	-0.530636	0.768420	-0.010390	-0.027608	-0.023039
1058	5.293423	0.005000	-0.675684	0.000000	-10.359360	-0.483871	-0.530525	0.768172	-0.038616	-0.034814	-0.008863
1059	5.298423	0.005000	-0.632496	0.039240	-10.368672	-0.484315	-0.530414	0.767924	-0.009224	-0.034760	-0.006523
1060	5.303423	0.005000	-0.612690	0.034190	-10.437840	-0.484759	-0.530303	0.767676	-0.011430	-0.044154	-0.008883
1061	5.308423	0.005000	-0.554818	-0.005458	-10.387684	-0.485203	-0.530192	0.767429	-0.008237	-0.032891	-0.000692
1062	5.313423	0.005000	-0.700875	0.061019	-10.353915	-0.485647	-0.530081	0.767181	-0.000984	-0.036507	-0.013010
1063	5.318423	0.005000	-0.527692	0.100148	-10.325977	-0.486090	-0.529970	0.766933	-0.005027	-0.038842	-0.009320
1064	5.323423	0.005000	-0.627840	0.045497	-10.386086	-0.486534	-0.529859	0.766685	-0.018553	-0.035516	-0.008079
1065	5.328423	0.005000	-0.562694	0.117720	-10.268308	-0.486259	-0.529954	0.766782	-0.026890	-0.032907	-0.020890
1066	5.333423	0.005000	-0.609839	0.064321	-10.373519	-0.485926	-0.530065	0.766905	0.002968	-0.032741	-0.011900
1067	5.338423	0.005000	-0.659603	0.007477	-10.398600	-0.485594	-0.530175	0.767029	-0.016642	-0.038446	-0.018202
1068	5.343423	0.005000	-0.620045	0.078480	-10.382744	-0.485261	-0.530286	0.767153	-0.009717	-0.043275	-0.000418
