# FOX Logger (IMU file)
# (c) INRIA 2011-2014
# File created from file sensbiotk output
#
# File format:
# id	t	dt	ax	ay	az	mx	my	mz	gx	gy	gz
#
# Units:
#	Time: s
#	Acceleration: m.s^-2
#	Magneto: gauss
#	Gyrometer: rad/s
#
1	0.026184	0.026184	-0.508678	-0.037798	-10.398600	-0.504478	-0.517910	0.753333	-0.023194	-0.028567	-0.012221
2	0.031184	0.005000	-0.509085	0.076410	-10.516320	-0.506252	-0.519463	0.755934	-0.025295	-0.023795	-0.012105
3	0.036184	0.005000	-0.509485	0.000000	-10.477080	-0.508027	-0.521015	0.758534	-0.014685	-0.025942	-0.003049
4	0.041184	0.005000	-0.431402	-0.078718	-10.477318	-0.509801	-0.522568	0.761135	0.000765	-0.036318	0.005933
5	0.046184	0.005000	-0.548419	0.038613	-10.437840	-0.511576	-0.524121	0.763736	-0.014740	-0.034079	-0.011803
6	0.051184	0.005000	-0.470880	-0.039145	-10.398695	-0.513350	-0.525673	0.766336	-0.007716	-0.037423	-0.014073
7	0.056184	0.005000	-0.549862	-0.001505	-10.439345	-0.515124	-0.527226	0.768937	-0.008119	-0.028935	-0.008516
8	0.061184	0.005000	-0.511908	-0.077586	-10.514532	-0.516899	-0.528779	0.771538	-0.014282	-0.020413	-0.020366
9	0.066184	0.005000	-0.510120	0.000000	-10.440442	-0.518673	-0.530331	0.774138	-0.015303	-0.029790	-0.003512
10	0.071184	0.005000	-0.551069	0.116011	-10.552142	-0.520447	-0.531884	0.776739	-0.019191	-0.028451	-0.006595
11	0.076184	0.005000	-0.512222	-0.004203	-10.400702	-0.522222	-0.533437	0.779339	-0.001332	-0.044158	-0.000582
12	0.081184	0.005000	-0.514215	-0.076432	-10.439888	-0.523996	-0.534989	0.781940	-0.009926	-0.033828	-0.002977
13	0.086184	0.005000	-0.586169	0.041671	-10.398600	-0.525771	-0.536542	0.784541	-0.006564	-0.040870	-0.009829
14	0.091184	0.005000	-0.655730	0.039240	-10.244478	-0.527545	-0.538095	0.787141	-0.018089	-0.028127	-0.009187
15	0.096184	0.005000	-0.428409	-0.036009	-10.388908	-0.527577	-0.537965	0.786924	-0.006353	-0.031166	-0.003369
16	0.101184	0.005000	-0.285591	-0.078480	-10.434203	-0.526135	-0.536412	0.784323	-0.004026	-0.029451	-0.010153
17	0.106184	0.005000	-0.502913	-0.110513	-10.359360	-0.524693	-0.534860	0.781723	-0.015217	-0.026288	-0.010267
18	0.111184	0.005000	-0.435656	0.000000	-10.288912	-0.523252	-0.533307	0.779122	-0.004998	-0.035133	-0.014389
19	0.116184	0.005000	-0.431640	-0.026160	-10.398600	-0.521810	-0.531754	0.776522	-0.005112	-0.025807	-0.000712
20	0.121184	0.005000	-0.470880	0.039240	-10.324886	-0.520368	-0.530202	0.773921	-0.010948	-0.036432	-0.010776
21	0.126184	0.005000	-0.515293	0.000000	-10.359360	-0.518927	-0.528649	0.771320	-0.018340	-0.032481	-0.004787
22	0.131184	0.005000	-0.515688	-0.044808	-10.359360	-0.517485	-0.527096	0.768720	-0.025015	-0.020318	-0.013618
23	0.136184	0.005000	-0.537414	0.005973	-10.320120	-0.516043	-0.525544	0.766119	-0.007814	-0.038503	-0.001029
24	0.141184	0.005000	-0.482817	-0.045209	-10.332057	-0.514602	-0.523991	0.763519	-0.015021	-0.031492	0.003848
25	0.146184	0.005000	-0.530216	-0.052003	-10.404981	-0.513160	-0.522438	0.760918	-0.000880	-0.030737	-0.010448
26	0.151184	0.005000	-0.503342	0.025684	-10.477080	-0.511718	-0.520886	0.758317	-0.012749	-0.034996	-0.007813
27	0.156184	0.005000	-0.502929	-0.007191	-10.366551	-0.510276	-0.519333	0.755717	-0.021924	-0.023090	-0.023093
28	0.161184	0.005000	-0.566110	0.007497	-10.437840	-0.508946	-0.517910	0.753333	-0.018050	-0.033573	-0.004527
29	0.166184	0.005000	-0.478784	0.070576	-10.422031	-0.508835	-0.517910	0.753333	-0.028623	-0.024746	-0.002032
30	0.171184	0.005000	-0.439561	0.054717	-10.296722	-0.508724	-0.517910	0.753333	-0.012719	-0.038172	-0.002649
31	0.176184	0.005000	-0.549360	0.022779	-10.336581	-0.508613	-0.517910	0.753333	-0.013112	-0.031133	0.000524
32	0.181184	0.005000	-0.492868	-0.021988	-10.320120	-0.508502	-0.517910	0.753333	-0.012056	-0.040867	-0.009757
33	0.186184	0.005000	-0.353160	0.009034	-10.350326	-0.508391	-0.517910	0.753333	0.007723	-0.033044	-0.005469
34	0.191184	0.005000	-0.519184	-0.039240	-10.407664	-0.508280	-0.517910	0.753333	-0.020626	-0.021501	-0.018597
35	0.196184	0.005000	-0.499310	-0.078480	-10.497367	-0.508169	-0.517910	0.753333	-0.014683	-0.035300	-0.014922
36	0.201184	0.005000	-0.500243	-0.088088	-10.320120	-0.508058	-0.517910	0.753333	-0.028376	-0.028936	-0.002393
37	0.206184	0.005000	-0.578314	-0.018668	-10.322025	-0.507948	-0.517910	0.753333	-0.015156	-0.039697	0.001938
38	0.211184	0.005000	-0.499421	-0.028541	-10.477080	-0.507837	-0.517910	0.753333	-0.010673	-0.027141	0.002673
39	0.216184	0.005000	-0.577637	-0.032888	-10.381285	-0.507726	-0.517910	0.753333	-0.016877	-0.020683	-0.010773
40	0.221184	0.005000	-0.599971	-0.073352	-10.409971	-0.507615	-0.517910	0.753333	-0.012181	-0.032854	-0.004651
41	0.226184	0.005000	-0.498346	-0.082399	-10.371134	-0.507504	-0.517910	0.753333	-0.020680	-0.023948	-0.010373
42	0.231184	0.005000	-0.537190	-0.027070	-10.335019	-0.507463	-0.517910	0.753255	-0.004776	-0.033469	-0.009704
43	0.236184	0.005000	-0.588600	0.051813	-10.293453	-0.507463	-0.517910	0.753131	-0.013382	-0.033209	-0.004850
44	0.241184	0.005000	-0.588898	0.078480	-10.437840	-0.507463	-0.517910	0.753007	-0.010383	-0.036925	-0.020362
45	0.246184	0.005000	-0.536248	-0.104608	-10.477128	-0.507463	-0.517910	0.752883	0.000850	-0.031031	-0.004572
46	0.251184	0.005000	-0.549360	-0.039240	-10.371678	-0.507463	-0.517910	0.752760	-0.008112	-0.025602	-0.014966
47	0.256184	0.005000	-0.627840	-0.053114	-10.333994	-0.507463	-0.517910	0.752636	-0.014116	-0.047956	-0.013739
48	0.261184	0.005000	-0.595648	-0.039240	-10.516320	-0.507463	-0.517910	0.752512	-0.024974	-0.022271	-0.008804
49	0.266184	0.005000	-0.588600	-0.117720	-10.369586	-0.507463	-0.517910	0.752388	-0.013795	-0.032564	-0.004953
50	0.271184	0.005000	-0.603509	-0.063571	-10.374269	-0.507463	-0.517910	0.752265	-0.004700	-0.040415	-0.000916
51	0.276184	0.005000	-0.612533	-0.008626	-10.359360	-0.507463	-0.517910	0.752141	-0.007025	-0.038658	-0.001250
52	0.281184	0.005000	-0.486595	-0.054955	-10.382885	-0.507463	-0.517910	0.752017	-0.004196	-0.041580	-0.004318
53	0.286184	0.005000	-0.494294	-0.015826	-10.469492	-0.507463	-0.517910	0.751893	-0.010385	-0.023997	-0.005742
54	0.291184	0.005000	-0.487119	0.000000	-10.500081	-0.507463	-0.517910	0.751769	0.000667	-0.032335	-0.012164
55	0.296184	0.005000	-0.409052	0.101068	-10.488954	-0.507444	-0.517891	0.751603	-0.014828	-0.025508	-0.006125
56	0.301184	0.005000	-0.431640	0.022192	-10.437840	-0.507333	-0.517780	0.751231	-0.008565	-0.044567	-0.003576
57	0.306184	0.005000	-0.510120	-0.017245	-10.258885	-0.507222	-0.517669	0.750860	-0.009352	-0.036216	0.004303
58	0.311184	0.005000	-0.506168	0.000000	-10.259284	-0.507111	-0.517558	0.750488	-0.013630	-0.029899	-0.006874
59	0.316184	0.005000	-0.392400	0.082131	-10.434189	-0.507000	-0.517447	0.750117	-0.000131	-0.040622	-0.006938
60	0.321184	0.005000	-0.476595	0.060289	-10.516320	-0.506889	-0.517337	0.749745	-0.011799	-0.024344	-0.013160
61	0.326184	0.005000	-0.526001	-0.018374	-10.477080	-0.506778	-0.517226	0.749374	-0.012163	-0.036006	-0.013080
62	0.331184	0.005000	-0.472574	-0.022161	-10.398600	-0.506667	-0.517115	0.749002	-0.009973	-0.037184	-0.008773
63	0.336184	0.005000	-0.470880	0.020059	-10.281758	-0.506556	-0.517004	0.748631	-0.006890	-0.023224	-0.015404
64	0.341184	0.005000	-0.431640	-0.078480	-10.378123	-0.506445	-0.516893	0.748259	0.002343	-0.036957	-0.006241
65	0.346184	0.005000	-0.451387	0.058987	-10.378853	-0.506334	-0.516782	0.747888	-0.016383	-0.032681	-0.015467
66	0.351184	0.005000	-0.489968	0.038176	-10.339208	-0.506224	-0.516671	0.747516	-0.011051	-0.038553	-0.011583
67	0.356184	0.005000	-0.433513	0.020557	-10.437840	-0.506113	-0.516560	0.747144	-0.020277	-0.027999	-0.011094
68	0.361184	0.005000	-0.413110	0.043598	-10.377890	-0.506002	-0.516450	0.746773	-0.012374	-0.019995	-0.017392
69	0.366184	0.005000	-0.470880	0.018130	-10.359360	-0.505970	-0.516259	0.747375	0.001968	-0.039835	-0.008013
70	0.371184	0.005000	-0.588600	0.024646	-10.377305	-0.505970	-0.516038	0.748366	-0.016675	-0.029438	-0.013099
71	0.376184	0.005000	-0.571059	0.039240	-10.437840	-0.505970	-0.515816	0.749357	0.003598	-0.046808	-0.016159
72	0.381184	0.005000	-0.566762	0.061078	-10.459678	-0.505970	-0.515594	0.750347	-0.010114	-0.023418	-0.009799
73	0.386184	0.005000	-0.561123	-0.061479	-10.471842	-0.505970	-0.515372	0.751338	-0.000429	-0.026316	-0.014250
74	0.391184	0.005000	-0.482988	-0.022647	-10.375953	-0.505970	-0.515150	0.752329	-0.016303	-0.016995	-0.007810
75	0.396184	0.005000	-0.487075	-0.078480	-10.437840	-0.505970	-0.514929	0.753319	-0.020761	-0.016766	-0.014453
76	0.401184	0.005000	-0.533567	0.007654	-10.453633	-0.505970	-0.514707	0.754310	-0.011599	-0.043728	-0.009911
77	0.406184	0.005000	-0.549360	0.015588	-10.422252	-0.505970	-0.514485	0.755301	-0.017421	-0.032909	-0.008325
78	0.411184	0.005000	-0.564535	-0.024065	-10.407489	-0.505970	-0.514263	0.756291	-0.004505	-0.034303	-0.005575
79	0.416184	0.005000	-0.515168	-0.054003	-10.437840	-0.505970	-0.514041	0.757282	-0.005124	-0.022729	-0.009711
80	0.421184	0.005000	-0.417274	0.092846	-10.334486	-0.505970	-0.513820	0.758273	-0.010272	-0.034285	-0.019789
81	0.426184	0.005000	-0.420932	-0.024974	-10.384334	-0.505970	-0.513598	0.759264	-0.007717	-0.028700	-0.007433
82	0.431184	0.005000	-0.510120	-0.036904	-10.373219	-0.506198	-0.513575	0.760127	-0.018068	-0.018688	-0.005376
83	0.436184	0.005000	-0.497793	0.025784	-10.412056	-0.507085	-0.514130	0.760623	-0.011102	-0.021987	-0.001059
84	0.441184	0.005000	-0.470451	0.026446	-10.411394	-0.507972	-0.514684	0.761118	-0.013129	-0.027678	-0.013243
85	0.446184	0.005000	-0.536550	0.026430	-10.411410	-0.508859	-0.515239	0.761613	-0.008843	-0.042018	-0.016975
86	0.451184	0.005000	-0.549360	0.012397	-10.359360	-0.509746	-0.515793	0.762109	-0.014187	-0.026859	-0.005927
87	0.456184	0.005000	-0.561361	0.015239	-10.422601	-0.510634	-0.516348	0.762604	-0.014697	-0.027943	-0.009733
88	0.461184	0.005000	-0.482810	0.039240	-10.398600	-0.511521	-0.516902	0.763099	-0.009795	-0.046825	-0.007496
89	0.466184	0.005000	-0.459353	0.011527	-10.398600	-0.512408	-0.517457	0.763595	-0.010014	-0.037044	-0.009455
90	0.471184	0.005000	-0.453879	-0.022239	-10.359360	-0.513295	-0.518012	0.764090	-0.006362	-0.041055	-0.008314
91	0.476184	0.005000	-0.517190	-0.028517	-10.377154	-0.514182	-0.518566	0.764586	-0.012058	-0.032825	-0.007856
92	0.481184	0.005000	-0.578280	-0.039240	-10.388280	-0.515070	-0.519121	0.765081	-0.009039	-0.032088	-0.023122
93	0.486184	0.005000	-0.451464	-0.009912	-10.290792	-0.515957	-0.519675	0.765576	-0.019201	-0.034830	-0.010813
94	0.491184	0.005000	-0.402035	-0.029605	-10.329755	-0.516844	-0.520230	0.766072	-0.019151	-0.020939	-0.005854
95	0.496184	0.005000	-0.401623	-0.060035	-10.320120	-0.517731	-0.520784	0.766567	-0.018439	-0.021249	-0.001379
96	0.501184	0.005000	-0.561028	-0.069289	-10.320120	-0.517644	-0.520985	0.766271	-0.006220	-0.035679	-0.005985
97	0.506184	0.005000	-0.527685	-0.026348	-10.280880	-0.517312	-0.521095	0.765776	-0.013875	-0.047602	-0.004349
98	0.511184	0.005000	-0.496042	0.000000	-10.373438	-0.516979	-0.521206	0.765281	-0.005764	-0.041557	0.006681
99	0.516184	0.005000	-0.541280	-0.008080	-10.359360	-0.516646	-0.521317	0.764785	-0.006023	-0.025803	-0.026866
100	0.521184	0.005000	-0.541690	-0.102380	-10.383260	-0.516314	-0.521428	0.764290	-0.018275	-0.031917	-0.010588
101	0.526184	0.005000	-0.502850	0.031970	-10.445110	-0.515981	-0.521539	0.763795	-0.020295	-0.020541	-0.010083
102	0.531184	0.005000	-0.503263	-0.051050	-10.398600	-0.515648	-0.521650	0.763299	0.001106	-0.038152	-0.003880
103	0.536184	0.005000	-0.484587	0.064773	-10.320120	-0.515316	-0.521761	0.762804	-0.004599	-0.037245	-0.006867
104	0.541184	0.005000	-0.536468	0.000000	-10.280880	-0.514983	-0.521871	0.762308	-0.007177	-0.036654	-0.006261
105	0.546184	0.005000	-0.443743	0.018154	-10.320120	-0.514651	-0.521982	0.761813	-0.004243	-0.033963	-0.004774
106	0.551184	0.005000	-0.465234	0.039240	-10.365006	-0.514318	-0.522093	0.761318	-0.005815	-0.027016	-0.017318
107	0.556184	0.005000	-0.402904	-0.057473	-10.427336	-0.513985	-0.522204	0.760822	-0.014694	-0.041935	-0.009716
108	0.561184	0.005000	-0.505215	-0.029430	-10.447650	-0.513653	-0.522315	0.760327	-0.013634	-0.038387	0.010595
109	0.566184	0.005000	-0.470880	-0.073988	-10.468095	-0.513282	-0.522275	0.759874	-0.012953	-0.036333	0.008184
110	0.571184	0.005000	-0.510120	0.034723	-10.403117	-0.512839	-0.521942	0.759502	-0.007051	-0.024435	0.004797
111	0.576184	0.005000	-0.427517	-0.144591	-10.394477	-0.512395	-0.521609	0.759131	-0.006061	-0.027336	-0.018602
112	0.581184	0.005000	-0.498974	-0.042955	-10.402315	-0.511951	-0.521277	0.758759	-0.007168	-0.031765	-0.019583
113	0.586184	0.005000	-0.510120	-0.035891	-10.320120	-0.511508	-0.520944	0.758388	-0.024196	-0.036180	-0.015414
114	0.591184	0.005000	-0.540502	0.000000	-10.359360	-0.511064	-0.520611	0.758016	-0.005699	-0.029849	-0.011381
115	0.596184	0.005000	-0.625300	0.036700	-10.474540	-0.510621	-0.520278	0.757645	-0.010554	-0.031371	0.001308
116	0.601184	0.005000	-0.627840	0.002587	-10.474493	-0.510177	-0.519946	0.757273	-0.005209	-0.028630	-0.004581
117	0.606184	0.005000	-0.553720	0.002180	-10.474900	-0.509733	-0.519613	0.756902	0.000415	-0.037617	-0.009797
118	0.611184	0.005000	-0.549360	0.074906	-10.400387	-0.509290	-0.519280	0.756530	-0.007926	-0.024368	-0.014721
119	0.616184	0.005000	-0.585840	-0.072959	-10.437840	-0.508846	-0.518948	0.756158	-0.014196	-0.036771	-0.014944
120	0.621184	0.005000	-0.510120	-0.077496	-10.397616	-0.508403	-0.518615	0.755787	-0.023616	-0.016908	-0.005710
121	0.626184	0.005000	-0.549360	-0.000587	-10.361122	-0.507959	-0.518282	0.755415	-0.012828	-0.033054	-0.007267
122	0.631184	0.005000	-0.510120	0.078305	-10.398425	-0.507515	-0.517949	0.755044	-0.013007	-0.036142	-0.005930
123	0.636184	0.005000	-0.548858	0.000753	-10.437589	-0.507463	-0.517910	0.754672	-0.006720	-0.045601	-0.014615
124	0.641184	0.005000	-0.509961	-0.000159	-10.438157	-0.507463	-0.517910	0.754301	-0.012927	-0.048465	-0.008129
125	0.646184	0.005000	-0.470880	-0.078480	-10.554449	-0.507463	-0.517910	0.753929	-0.024325	-0.024914	-0.013134
126	0.651184	0.005000	-0.513993	-0.078480	-10.436872	-0.507463	-0.517910	0.753558	-0.008997	-0.033052	-0.009646
127	0.656184	0.005000	-0.589964	-0.116356	-10.439204	-0.507463	-0.517910	0.753186	-0.020086	-0.030652	-0.013150
128	0.661184	0.005000	-0.661810	-0.037483	-10.398600	-0.507463	-0.517910	0.752815	-0.006613	-0.042041	-0.010267
129	0.666184	0.005000	-0.551523	0.039240	-10.440003	-0.507463	-0.517910	0.752443	-0.002731	-0.041402	0.002191
130	0.671184	0.005000	-0.544247	0.002556	-10.425058	-0.507463	-0.517910	0.752072	-0.006204	-0.042721	-0.012226
131	0.676184	0.005000	-0.510120	0.087373	-10.247568	-0.507463	-0.517910	0.751700	-0.012759	-0.044125	-0.012586
132	0.681184	0.005000	-0.477621	0.035869	-10.366101	-0.507463	-0.517910	0.751329	-0.004816	-0.029204	-0.006143
133	0.686184	0.005000	-0.516787	0.078480	-10.395267	-0.507463	-0.517910	0.750957	-0.000354	-0.036940	-0.016476
134	0.691184	0.005000	-0.513866	-0.011239	-10.323866	-0.507463	-0.517910	0.750586	-0.003572	-0.045828	-0.003625
135	0.696184	0.005000	-0.501834	-0.004143	-10.320120	-0.507463	-0.517910	0.750214	-0.006645	-0.039644	-0.001072
136	0.701184	0.005000	-0.466381	-0.034741	-10.363859	-0.507557	-0.517863	0.750105	-0.005254	-0.026358	-0.005700
137	0.706184	0.005000	-0.505227	0.000000	-10.349574	-0.507779	-0.517752	0.750353	-0.004022	-0.016914	-0.008801
138	0.711184	0.005000	-0.436941	-0.039240	-10.320120	-0.508001	-0.517641	0.750600	-0.000502	-0.032211	-0.009328
139	0.716184	0.005000	-0.515826	-0.072774	-10.320120	-0.508223	-0.517530	0.750848	-0.012381	-0.023428	-0.010612
140	0.721184	0.005000	-0.543661	0.033541	-10.303024	-0.508445	-0.517419	0.751096	-0.003746	-0.034115	-0.012122
141	0.726184	0.005000	-0.483076	-0.039240	-10.326218	-0.508666	-0.517308	0.751344	-0.007234	-0.042433	-0.001667
142	0.731184	0.005000	-0.549360	-0.065463	-10.437840	-0.508888	-0.517198	0.751592	-0.003038	-0.030945	-0.016322
143	0.736184	0.005000	-0.517041	-0.018477	-10.516320	-0.509110	-0.517087	0.751839	0.003054	-0.028318	-0.014377
144	0.741184	0.005000	-0.463562	-0.007318	-10.445158	-0.509332	-0.516976	0.752087	-0.010745	-0.020275	-0.014244
145	0.746184	0.005000	-0.462562	-0.086211	-10.406331	-0.509554	-0.516865	0.752335	-0.010515	-0.033108	-0.013015
146	0.751184	0.005000	-0.549360	-0.031198	-10.437840	-0.509776	-0.516754	0.752583	-0.005170	-0.027762	-0.000436
147	0.756184	0.005000	-0.501682	-0.086918	-10.429402	-0.509998	-0.516643	0.752830	-0.009886	-0.044645	-0.009260
148	0.761184	0.005000	-0.488564	-0.069638	-10.398600	-0.510220	-0.516532	0.753078	-0.011325	-0.037234	-0.006263
149	0.766184	0.005000	-0.530861	-0.108470	-10.380101	-0.510442	-0.516421	0.753326	-0.005886	-0.030806	-0.009655
150	0.771184	0.005000	-0.392400	-0.059908	-10.329406	-0.510448	-0.516526	0.753213	-0.013226	-0.035325	-0.008102
151	0.776184	0.005000	-0.441323	-0.019366	-10.339486	-0.510448	-0.516637	0.753089	-0.005928	-0.024582	-0.006952
152	0.781184	0.005000	-0.549360	0.029269	-10.447811	-0.510448	-0.516747	0.752965	-0.004770	-0.032387	-0.017612
153	0.786184	0.005000	-0.567843	-0.028862	-10.466702	-0.510448	-0.516858	0.752841	-0.002314	-0.034539	-0.010847
154	0.791184	0.005000	-0.577825	-0.028465	-10.448615	-0.510448	-0.516969	0.752718	-0.002372	-0.032216	-0.010250
155	0.796184	0.005000	-0.577422	-0.039240	-10.426662	-0.510448	-0.517080	0.752594	-0.001527	-0.032254	-0.006476
156	0.801184	0.005000	-0.639414	0.000000	-10.280880	-0.510448	-0.517191	0.752470	-0.006613	-0.018887	-0.021009
157	0.806184	0.005000	-0.561011	-0.039240	-10.320120	-0.510448	-0.517302	0.752346	-0.006231	-0.028165	-0.015183
158	0.811184	0.005000	-0.552455	-0.027192	-10.371408	-0.510448	-0.517413	0.752222	-0.016844	-0.013648	-0.005966
159	0.816184	0.005000	-0.588600	0.090941	-10.359360	-0.510448	-0.517523	0.752099	-0.009955	-0.021800	-0.002832
160	0.821184	0.005000	-0.536497	0.091343	-10.359360	-0.510448	-0.517634	0.751975	-0.003064	-0.046880	-0.001175
161	0.826184	0.005000	-0.523390	0.117149	-10.333390	-0.510448	-0.517745	0.751851	-0.013042	-0.042608	-0.004063
162	0.831184	0.005000	-0.496606	0.051453	-10.320120	-0.510448	-0.517856	0.751727	-0.013472	-0.032096	-0.005849
163	0.836184	0.005000	-0.510120	0.002494	-10.398600	-0.510391	-0.517910	0.752112	-0.015784	-0.022351	-0.006552
164	0.841184	0.005000	-0.460278	0.028638	-10.398600	-0.510280	-0.517910	0.752979	-0.011639	-0.022402	-0.015307
165	0.846184	0.005000	-0.563773	-0.053653	-10.437840	-0.510169	-0.517910	0.753846	-0.009810	-0.033182	-0.003650
166	0.851184	0.005000	-0.564186	-0.039240	-10.383774	-0.510058	-0.517910	0.754712	-0.016104	-0.034927	-0.007744
167	0.856184	0.005000	-0.446863	-0.015223	-10.335343	-0.509947	-0.517910	0.755579	-0.002157	-0.041844	-0.005553
168	0.861184	0.005000	-0.533912	-0.023792	-10.289224	-0.509836	-0.517910	0.756446	-0.008725	-0.032309	-0.013277
169	0.866184	0.005000	-0.478421	-0.031699	-10.280880	-0.509725	-0.517910	0.757313	-0.019795	-0.030557	-0.024370
170	0.871184	0.005000	-0.542616	-0.055488	-10.382352	-0.509615	-0.517910	0.758180	-0.020616	-0.034686	-0.014050
171	0.876184	0.005000	-0.555302	-0.061831	-10.381951	-0.509504	-0.517910	0.759047	-0.013378	-0.029609	-0.014908
172	0.881184	0.005000	-0.487937	0.022183	-10.442966	-0.509393	-0.517910	0.759913	-0.011792	-0.034817	-0.001033
173	0.886184	0.005000	-0.510120	0.034383	-10.420649	-0.509282	-0.517910	0.760780	-0.001570	-0.022146	-0.009361
174	0.891184	0.005000	-0.553424	0.000000	-10.402664	-0.509171	-0.517910	0.761647	-0.002564	-0.032861	-0.013186
175	0.896184	0.005000	-0.563475	-0.014115	-10.355690	-0.509060	-0.517910	0.762514	-0.015274	-0.025598	-0.016682
176	0.901184	0.005000	-0.531174	0.042109	-10.380414	-0.508955	-0.517904	0.763292	-0.022320	-0.024175	-0.008811
177	0.906184	0.005000	-0.510120	0.041310	-10.359360	-0.508955	-0.517793	0.762549	-0.017561	-0.028899	-0.001953
178	0.911184	0.005000	-0.529105	0.000000	-10.359360	-0.508955	-0.517682	0.761806	-0.004884	-0.026261	-0.013439
179	0.916184	0.005000	-0.471832	-0.019144	-10.398600	-0.508955	-0.517571	0.761063	-0.006618	-0.033623	-0.011444
180	0.921184	0.005000	-0.431640	-0.078480	-10.379043	-0.508955	-0.517460	0.760320	-0.016536	-0.027769	-0.013841
181	0.926184	0.005000	-0.451593	-0.018620	-10.358693	-0.508955	-0.517350	0.759577	-0.012914	-0.037124	-0.018643
182	0.931184	0.005000	-0.452006	0.039240	-10.357868	-0.508955	-0.517239	0.758834	-0.027448	-0.025458	-0.010090
183	0.936184	0.005000	-0.568079	0.018719	-10.320120	-0.508955	-0.517128	0.758091	-0.008526	-0.027700	-0.018359
184	0.941184	0.005000	-0.567678	-0.041843	-10.341042	-0.508955	-0.517017	0.757348	-0.010770	-0.040301	-0.003271
185	0.946184	0.005000	-0.510120	-0.075078	-10.338039	-0.508955	-0.516906	0.756605	-0.017895	-0.034936	-0.001958
186	0.951184	0.005000	-0.501008	-0.039240	-10.402803	-0.508955	-0.516795	0.755862	-0.005224	-0.038578	-0.003039
187	0.956184	0.005000	-0.571489	-0.039240	-10.437840	-0.508955	-0.516684	0.755119	-0.007588	-0.035848	-0.007738
188	0.961184	0.005000	-0.470880	-0.016921	-10.477080	-0.508955	-0.516574	0.754376	-0.012388	-0.021338	-0.015936
189	0.966184	0.005000	-0.409190	-0.016790	-10.516320	-0.508955	-0.516463	0.753633	-0.005863	-0.024383	-0.004441
190	0.971184	0.005000	-0.448029	-0.062091	-10.437840	-0.508889	-0.517080	0.753776	-0.014270	-0.026714	-0.003524
191	0.976184	0.005000	-0.438917	-0.078480	-10.391323	-0.508778	-0.518189	0.754519	-0.002753	-0.045390	-0.000195
192	0.981184	0.005000	-0.407983	-0.039240	-10.398600	-0.508667	-0.519298	0.755262	-0.004587	-0.033146	-0.000637
193	0.986184	0.005000	-0.494754	0.000000	-10.374726	-0.508556	-0.520407	0.756005	0.008227	-0.037810	-0.008558
194	0.991184	0.005000	-0.558682	0.044877	-10.462121	-0.508445	-0.521516	0.756748	0.009000	-0.026470	-0.007642
195	0.996184	0.005000	-0.530289	0.000000	-10.437840	-0.508335	-0.522625	0.757492	-0.004422	-0.022822	-0.014972
196	1.001184	0.005000	-0.495666	-0.014454	-10.324243	-0.508224	-0.523734	0.758235	-0.021229	-0.040768	-0.007860
197	1.006184	0.005000	-0.546443	-0.128855	-10.398600	-0.508113	-0.524843	0.758978	-0.020752	-0.020372	-0.005537
198	1.011184	0.005000	-0.445285	-0.040934	-10.384955	-0.508002	-0.525952	0.759721	-0.002978	-0.029778	-0.016009
199	1.016184	0.005000	-0.496371	-0.013247	-10.333367	-0.507891	-0.527061	0.760464	-0.011747	-0.035621	-0.010686
200	1.021184	0.005000	-0.549360	0.092031	-10.332965	-0.507780	-0.528170	0.761207	-0.004649	-0.030547	-0.015145
201	1.026184	0.005000	-0.508223	0.090928	-10.307672	-0.507669	-0.529279	0.761950	-0.007014	-0.020044	-0.016184
202	1.031184	0.005000	-0.470880	0.012191	-10.332311	-0.507559	-0.530387	0.762693	-0.012088	-0.013830	-0.009742
203	1.036184	0.005000	-0.341382	-0.129498	-10.343677	-0.507463	-0.531205	0.763213	-0.008713	-0.032745	-0.006752
204	1.041184	0.005000	-0.502498	-0.011716	-10.331836	-0.507463	-0.530207	0.762346	-0.010469	-0.032037	-0.016222
205	1.046184	0.005000	-0.521439	0.000000	-10.308801	-0.507463	-0.529209	0.761479	-0.012797	-0.043387	-0.010350
206	1.051184	0.005000	-0.459969	0.039240	-10.365866	-0.507463	-0.528210	0.760613	-0.000948	-0.038814	-0.002558
207	1.056184	0.005000	-0.481388	0.000000	-10.398600	-0.507463	-0.527212	0.759746	-0.011892	-0.021209	-0.014541
208	1.061184	0.005000	-0.510120	0.059717	-10.388361	-0.507463	-0.526214	0.758879	-0.012451	-0.035628	-0.008990
209	1.066184	0.005000	-0.490468	-0.029414	-10.388774	-0.507463	-0.525216	0.758012	-0.024096	-0.027046	-0.016025
210	1.071184	0.005000	-0.569774	-0.098894	-10.359360	-0.507463	-0.524218	0.757145	-0.010485	-0.040042	-0.003146
211	1.076184	0.005000	-0.519499	-0.078480	-10.348256	-0.507463	-0.523220	0.756278	-0.015432	-0.027846	-0.002166
212	1.081184	0.005000	-0.488846	-0.078480	-10.371651	-0.507463	-0.522222	0.755412	-0.012381	-0.028776	-0.009642
213	1.086184	0.005000	-0.470880	-0.008579	-10.320120	-0.507463	-0.521224	0.754545	0.000769	-0.035184	-0.012047
214	1.091184	0.005000	-0.541189	0.078480	-10.382258	-0.507463	-0.520225	0.753678	-0.015851	-0.021739	-0.021843
215	1.096184	0.005000	-0.572980	-0.062733	-10.437840	-0.507463	-0.519227	0.752811	-0.024203	-0.037743	-0.013897
216	1.101184	0.005000	-0.408109	-0.007854	-10.469226	-0.507463	-0.518229	0.751944	-0.017243	-0.028983	-0.002171
217	1.106184	0.005000	-0.439087	-0.007447	-10.335013	-0.508595	-0.519268	0.754110	-0.002017	-0.033514	-0.012100
218	1.111184	0.005000	-0.417556	0.032198	-10.352318	-0.510258	-0.521264	0.757701	-0.011271	-0.035560	-0.003953
219	1.116184	0.005000	-0.549360	0.006647	-10.333414	-0.511922	-0.523260	0.761293	-0.001664	-0.032536	-0.004497
220	1.121184	0.005000	-0.615356	0.045482	-10.353118	-0.513585	-0.525257	0.764884	0.001622	-0.035565	-0.006027
221	1.126184	0.005000	-0.576790	0.005905	-10.426030	-0.515249	-0.527253	0.768475	-0.010606	-0.027116	-0.013100
222	1.131184	0.005000	-0.554868	-0.011016	-10.432332	-0.516912	-0.529249	0.772067	-0.005556	-0.037063	-0.004749
223	1.136184	0.005000	-0.593695	0.039240	-10.364455	-0.518576	-0.531245	0.775658	-0.006399	-0.024892	-0.010034
224	1.141184	0.005000	-0.558729	0.039240	-10.398600	-0.520239	-0.533242	0.779249	-0.004252	-0.036995	-0.008566
225	1.146184	0.005000	-0.448784	0.039240	-10.359360	-0.521903	-0.535238	0.782841	-0.014363	-0.029376	0.004216
226	1.151184	0.005000	-0.549360	0.039240	-10.316247	-0.523566	-0.537234	0.786432	-0.009680	-0.026817	-0.014433
227	1.156184	0.005000	-0.545455	0.039240	-10.394695	-0.525230	-0.539230	0.790023	-0.015950	-0.039450	-0.019597
228	1.161184	0.005000	-0.660085	-0.074983	-10.359360	-0.526893	-0.541227	0.793615	-0.024281	-0.037688	-0.014966
229	1.166184	0.005000	-0.480192	-0.078480	-10.353152	-0.528557	-0.543223	0.797206	-0.020064	-0.047676	-0.020578
230	1.171184	0.005000	-0.473610	-0.047431	-10.317390	-0.529556	-0.544431	0.799368	-0.015076	-0.029442	0.008956
231	1.176184	0.005000	-0.507787	0.034573	-10.357027	-0.528225	-0.542879	0.796519	-0.004462	-0.029453	-0.003947
232	1.181184	0.005000	-0.508199	0.041161	-10.473239	-0.526894	-0.541326	0.793671	-0.002572	-0.036196	-0.007955
233	1.186184	0.005000	-0.582674	0.000000	-10.437840	-0.525563	-0.539774	0.790823	-0.009298	-0.023501	-0.013974
234	1.191184	0.005000	-0.546223	-0.001568	-10.285585	-0.524232	-0.538221	0.787975	-0.007882	-0.039414	-0.012912
235	1.196184	0.005000	-0.625488	0.002352	-10.397424	-0.522901	-0.536669	0.785126	-0.019503	-0.025972	-0.004011
236	1.201184	0.005000	-0.587832	-0.077712	-10.358592	-0.521571	-0.535116	0.782278	-0.013008	-0.034691	-0.003792
237	1.206184	0.005000	-0.471601	-0.000721	-10.398239	-0.520240	-0.533563	0.779430	-0.010961	-0.033726	0.003362
238	1.211184	0.005000	-0.588506	-0.039240	-10.359391	-0.518909	-0.532011	0.776582	-0.015947	-0.030131	-0.010690
239	1.216184	0.005000	-0.431201	0.038362	-10.398600	-0.517578	-0.530458	0.773733	0.001534	-0.032544	-0.009361
240	1.221184	0.005000	-0.393247	-0.039240	-10.361053	-0.516247	-0.528906	0.770885	-0.024359	-0.032592	-0.011912
241	1.226184	0.005000	-0.548121	-0.001239	-10.436601	-0.514916	-0.527353	0.768037	-0.008034	-0.028883	-0.002729
242	1.231184	0.005000	-0.355509	0.041589	-10.361709	-0.513585	-0.525801	0.765189	0.005801	-0.029507	-0.009606
243	1.236184	0.005000	-0.508552	0.039240	-10.510047	-0.512255	-0.524248	0.762340	0.015596	-0.041819	-0.015603
244	1.241184	0.005000	-0.584649	0.001975	-10.435865	-0.512025	-0.523457	0.761383	0.011132	-0.037400	0.000148
245	1.246184	0.005000	-0.397136	0.073744	-10.364096	-0.512136	-0.522903	0.761011	-0.011954	-0.019758	-0.009299
246	1.251184	0.005000	-0.504570	0.072930	-10.471530	-0.512247	-0.522348	0.760640	-0.006303	-0.028657	-0.009695
247	1.256184	0.005000	-0.477245	-0.042422	-10.356178	-0.512358	-0.521793	0.760268	-0.019194	-0.020343	-0.004281
248	1.261184	0.005000	-0.470880	-0.082056	-10.387873	-0.512469	-0.521238	0.759896	-0.009993	-0.029109	-0.012338
249	1.266184	0.005000	-0.627840	-0.082020	-10.359360	-0.512580	-0.520683	0.759525	-0.001527	-0.031205	-0.007240
250	1.271184	0.005000	-0.553313	-0.031335	-10.359360	-0.512691	-0.520129	0.759153	-0.004591	-0.035669	-0.010938
251	1.276184	0.005000	-0.396765	0.004365	-10.385504	-0.512802	-0.519574	0.758781	-0.004652	-0.036863	-0.008987
252	1.281184	0.005000	-0.397162	0.044002	-10.364122	-0.512913	-0.519019	0.758410	-0.006878	-0.021530	-0.013048
253	1.286184	0.005000	-0.392400	-0.005111	-10.369582	-0.513024	-0.518464	0.758038	-0.008408	-0.031636	-0.014873
254	1.291184	0.005000	-0.437145	-0.005505	-10.370370	-0.513135	-0.517909	0.757666	-0.008654	-0.025045	-0.004806
255	1.296184	0.005000	-0.470880	0.051065	-10.371185	-0.513246	-0.517355	0.757295	-0.017802	-0.031336	-0.003591
256	1.301184	0.005000	-0.470880	0.100005	-10.404505	-0.513357	-0.516800	0.756923	-0.001320	-0.036998	-0.002451
257	1.306184	0.005000	-0.510120	-0.045558	-10.392282	-0.513295	-0.516314	0.756706	-0.009165	-0.017316	-0.010273
258	1.311184	0.005000	-0.418179	0.078480	-10.417649	-0.512851	-0.515981	0.756829	-0.005559	-0.036408	-0.008368
259	1.316184	0.005000	-0.385273	0.000000	-10.359360	-0.512407	-0.515649	0.756953	-0.016196	-0.026760	-0.013673
260	1.321184	0.005000	-0.407293	0.110273	-10.383707	-0.511963	-0.515316	0.757077	-0.010409	-0.034856	-0.012229
261	1.326184	0.005000	-0.541518	0.086322	-10.390758	-0.511520	-0.514983	0.757201	-0.009351	-0.030797	-0.008858
262	1.331184	0.005000	-0.501871	0.039240	-10.398600	-0.511076	-0.514650	0.757325	-0.017368	-0.031816	-0.013587
263	1.336184	0.005000	-0.462610	-0.024811	-10.437840	-0.510632	-0.514317	0.757449	-0.006789	-0.040983	0.001035
264	1.341184	0.005000	-0.492754	-0.052431	-10.376726	-0.510188	-0.513984	0.757573	-0.008198	-0.028481	-0.007730
265	1.346184	0.005000	-0.470880	-0.009083	-10.419673	-0.509744	-0.513651	0.757696	-0.011758	-0.043615	-0.014234
266	1.351184	0.005000	-0.579107	-0.048733	-10.437840	-0.509301	-0.513318	0.757820	-0.016583	-0.019952	-0.013923
267	1.356184	0.005000	-0.598383	-0.009783	-10.477080	-0.508857	-0.512985	0.757944	-0.000891	-0.033134	-0.012580
268	1.361184	0.005000	-0.706320	0.039240	-10.446544	-0.508413	-0.512653	0.758068	-0.002983	-0.044334	-0.007751
269	1.366184	0.005000	-0.685147	0.028654	-10.377427	-0.507969	-0.512320	0.758192	-0.017446	-0.032719	-0.006599
270	1.371184	0.005000	-0.437911	0.021979	-10.263619	-0.507525	-0.511987	0.758316	-0.004824	-0.030481	-0.011339
271	1.376184	0.005000	-0.398705	0.011386	-10.398600	-0.507177	-0.511940	0.757801	-0.005551	-0.024945	-0.014478
272	1.381184	0.005000	-0.572938	0.121592	-10.371149	-0.506845	-0.511940	0.757182	-0.021466	-0.036143	-0.018534
273	1.386184	0.005000	-0.576403	0.090677	-10.413446	-0.506512	-0.511940	0.756563	-0.012297	-0.027729	0.000354
274	1.391184	0.005000	-0.546931	0.051510	-10.361789	-0.506179	-0.511940	0.755944	-0.005127	-0.027227	-0.003771
275	1.396184	0.005000	-0.629078	0.079718	-10.318882	-0.505847	-0.511940	0.755326	-0.003330	-0.038247	-0.000396
276	1.401184	0.005000	-0.470880	-0.039240	-10.398600	-0.505514	-0.511940	0.754707	-0.022202	-0.039409	-0.016025
277	1.406184	0.005000	-0.588600	-0.013326	-10.385274	-0.505182	-0.511940	0.754088	-0.014165	-0.034787	-0.016610
278	1.411184	0.005000	-0.535637	0.064757	-10.320120	-0.504849	-0.511940	0.753469	-0.013454	-0.013776	-0.000729
279	1.416184	0.005000	-0.605861	-0.014125	-10.384475	-0.504517	-0.511940	0.752850	-0.016216	-0.019843	-0.013769
280	1.421184	0.005000	-0.530508	0.049434	-10.384077	-0.504184	-0.511940	0.752231	-0.005151	-0.039348	-0.005969
281	1.426184	0.005000	-0.480259	0.009379	-10.359360	-0.503851	-0.511940	0.751612	-0.006947	-0.026709	-0.004257
282	1.431184	0.005000	-0.549360	-0.063448	-10.413632	-0.503519	-0.511940	0.750993	-0.004504	-0.033921	-0.013196
283	1.436184	0.005000	-0.566059	-0.023795	-10.391504	-0.503186	-0.511940	0.750374	-0.009531	-0.024092	-0.012150
284	1.441184	0.005000	-0.525968	-0.062632	-10.343512	-0.503336	-0.512115	0.750049	-0.012212	-0.032192	-0.021219
285	1.446184	0.005000	-0.604660	-0.039240	-10.407540	-0.504223	-0.512559	0.750173	-0.019184	-0.029828	-0.010313
286	1.451184	0.005000	-0.549360	-0.022779	-10.388457	-0.505111	-0.513003	0.750297	-0.018083	-0.021097	-0.000326
287	1.456184	0.005000	-0.510120	-0.039240	-10.342500	-0.505998	-0.513447	0.750421	-0.000356	-0.037718	-0.001090
288	1.461184	0.005000	-0.571333	-0.078480	-10.376627	-0.506886	-0.513890	0.750545	-0.002447	-0.041226	-0.009779
289	1.466184	0.005000	-0.588600	-0.160864	-10.377028	-0.507774	-0.514334	0.750669	-0.007164	-0.041616	-0.011885
290	1.471184	0.005000	-0.531550	-0.039240	-10.434221	-0.508661	-0.514778	0.750792	-0.013721	-0.028852	-0.009075
291	1.476184	0.005000	-0.371367	-0.075654	-10.440666	-0.509549	-0.515222	0.750916	-0.017810	-0.030152	-0.012982
292	1.481184	0.005000	-0.491500	-0.078480	-10.303500	-0.510436	-0.515666	0.751040	-0.003049	-0.040513	-0.004269
293	1.486184	0.005000	-0.491087	-0.020207	-10.299913	-0.511324	-0.516109	0.751164	-0.011511	-0.029936	-0.005063
294	1.491184	0.005000	-0.490923	0.059283	-10.359360	-0.512211	-0.516553	0.751288	-0.008545	-0.040167	-0.003522
295	1.496184	0.005000	-0.529716	0.039240	-10.339669	-0.513099	-0.516997	0.751412	-0.011318	-0.031470	-0.007841
296	1.501184	0.005000	-0.549360	-0.039240	-10.300116	-0.513987	-0.517441	0.751536	-0.003652	-0.031369	-0.007727
297	1.506184	0.005000	-0.549360	-0.020176	-10.299944	-0.514874	-0.517885	0.751660	-0.005411	-0.025339	-0.011705
298	1.511184	0.005000	-0.491452	-0.039240	-10.340692	-0.514402	-0.517701	0.751667	-0.007779	-0.014770	-0.010849
299	1.516184	0.005000	-0.528375	-0.117720	-10.338375	-0.513848	-0.517479	0.751667	-0.012767	-0.040718	-0.007053
300	1.521184	0.005000	-0.510120	-0.035684	-10.395044	-0.513293	-0.517257	0.751667	-0.003359	-0.017125	-0.009476
301	1.526184	0.005000	-0.588600	-0.017445	-10.359360	-0.512739	-0.517035	0.751667	-0.011720	-0.031545	-0.013645
302	1.531184	0.005000	-0.566668	-0.113095	-10.403225	-0.512184	-0.516814	0.751667	-0.018128	-0.028420	-0.005887
303	1.536184	0.005000	-0.571693	0.005426	-10.437840	-0.511630	-0.516592	0.751667	-0.010213	-0.020250	-0.014981
304	1.541184	0.005000	-0.526619	-0.045482	-10.359360	-0.511076	-0.516370	0.751667	-0.011152	-0.030415	-0.009768
305	1.546184	0.005000	-0.581561	-0.085519	-10.359360	-0.510521	-0.516148	0.751667	-0.016455	-0.025136	-0.013610
306	1.551184	0.005000	-0.447339	-0.062781	-10.265181	-0.509967	-0.515927	0.751667	-0.009547	-0.033142	-0.011879
307	1.556184	0.005000	-0.455589	-0.021925	-10.335411	-0.509412	-0.515705	0.751667	0.001229	-0.030406	-0.011730
308	1.561184	0.005000	-0.480333	0.014893	-10.320120	-0.508858	-0.515483	0.751667	-0.006137	-0.036236	-0.010579
309	1.566184	0.005000	-0.534693	-0.049145	-10.270975	-0.508303	-0.515261	0.751667	-0.015820	-0.026692	-0.007678
310	1.571184	0.005000	-0.599299	0.010699	-10.373631	-0.507749	-0.515039	0.751667	-0.024161	-0.018317	-0.015561
311	1.576184	0.005000	-0.523978	0.000000	-10.373218	-0.507570	-0.515086	0.751667	-0.020052	-0.032177	-0.002613
312	1.581184	0.005000	-0.431640	-0.025475	-10.437840	-0.507792	-0.515419	0.751667	-0.002133	-0.032852	0.003185
313	1.586184	0.005000	-0.431640	0.013362	-10.397753	-0.508014	-0.515752	0.751667	-0.002001	-0.044425	-0.013027
314	1.591184	0.005000	-0.457925	0.039240	-10.372315	-0.508236	-0.516084	0.751667	-0.016476	-0.034139	-0.011918
315	1.596184	0.005000	-0.485005	0.051797	-10.423715	-0.508458	-0.516417	0.751667	-0.008987	-0.020136	-0.010489
316	1.601184	0.005000	-0.588600	-0.002333	-10.359360	-0.508679	-0.516750	0.751667	-0.003144	-0.033207	-0.007730
317	1.606184	0.005000	-0.549360	-0.011905	-10.359360	-0.508901	-0.517083	0.751667	-0.006250	-0.028789	-0.017112
318	1.611184	0.005000	-0.549360	0.027415	-10.359360	-0.509123	-0.517415	0.751667	-0.005234	-0.037596	-0.004999
319	1.616184	0.005000	-0.470880	0.000000	-10.382217	-0.509345	-0.517748	0.751667	-0.007639	-0.037657	-0.003163
320	1.621184	0.005000	-0.499095	0.000000	-10.370385	-0.509567	-0.518081	0.751667	-0.015129	-0.028991	-0.010830
321	1.626184	0.005000	-0.431640	-0.010629	-10.338102	-0.509788	-0.518414	0.751667	-0.012356	-0.045828	-0.020738
322	1.631184	0.005000	-0.410941	-0.107370	-10.417141	-0.510010	-0.518746	0.751667	-0.008124	-0.030594	-0.020684
323	1.636184	0.005000	-0.480309	0.028795	-10.320120	-0.510232	-0.519079	0.751667	-0.008971	-0.035168	-0.001894
324	1.641184	0.005000	-0.520016	0.000000	-10.320120	-0.510454	-0.519406	0.751657	-0.011067	-0.028693	-0.002021
325	1.646184	0.005000	-0.529121	-0.029740	-10.379599	-0.510676	-0.519517	0.751286	-0.000729	-0.045660	0.000270
326	1.651184	0.005000	-0.479973	-0.078480	-10.368453	-0.510898	-0.519628	0.750914	-0.006966	-0.038919	0.002525
327	1.656184	0.005000	-0.510120	0.013174	-10.359360	-0.511120	-0.519739	0.750542	-0.004667	-0.032352	-0.011252
328	1.661184	0.005000	-0.470880	0.039240	-10.382014	-0.511341	-0.519850	0.750170	-0.009387	-0.032740	-0.005079
329	1.666184	0.005000	-0.580711	-0.007889	-10.335898	-0.511563	-0.519961	0.749799	-0.015222	-0.029568	-0.012461
330	1.671184	0.005000	-0.603744	0.007572	-10.320120	-0.511785	-0.520072	0.749427	-0.017038	-0.035275	-0.004421
331	1.676184	0.005000	-0.438815	-0.078480	-10.391425	-0.512007	-0.520183	0.749055	-0.013608	-0.031611	-0.005140
332	1.681184	0.005000	-0.392400	-0.150198	-10.359360	-0.512229	-0.520294	0.748684	-0.004110	-0.042794	-0.018188
333	1.686184	0.005000	-0.549360	-0.020279	-10.287640	-0.512451	-0.520405	0.748312	-0.002138	-0.038438	-0.009365
334	1.691184	0.005000	-0.437992	-0.039240	-10.359360	-0.512673	-0.520516	0.747940	-0.016074	-0.028543	-0.015076
335	1.696184	0.005000	-0.431640	-0.033283	-10.398600	-0.512895	-0.520627	0.747569	-0.009298	-0.022535	-0.012667
336	1.701184	0.005000	-0.476499	-0.039240	-10.404219	-0.513117	-0.520738	0.747197	-0.021741	-0.017728	-0.014477
337	1.706184	0.005000	-0.544151	0.073271	-10.461454	-0.513339	-0.520849	0.746825	-0.004464	-0.036584	-0.013627
338	1.711184	0.005000	-0.524549	-0.034430	-10.403410	-0.513051	-0.520450	0.746951	-0.007721	-0.040928	-0.002802
339	1.716184	0.005000	-0.475709	-0.039240	-10.393771	-0.512386	-0.519674	0.747447	-0.007804	-0.036032	-0.007131
340	1.721184	0.005000	-0.514543	-0.043663	-10.403023	-0.511720	-0.518898	0.747942	-0.006192	-0.028885	-0.010076
341	1.726184	0.005000	-0.510120	0.031210	-10.316105	-0.511055	-0.518121	0.748437	-0.001147	-0.025522	-0.010221
342	1.731184	0.005000	-0.396021	0.003621	-10.366603	-0.510389	-0.517345	0.748933	-0.002008	-0.036791	-0.006355
343	1.736184	0.005000	-0.542852	0.075226	-10.359360	-0.509724	-0.516569	0.749428	-0.015955	-0.029367	-0.000460
344	1.741184	0.005000	-0.557932	-0.036383	-10.320120	-0.509059	-0.515792	0.749923	-0.010449	-0.033758	-0.008407
345	1.746184	0.005000	-0.478214	0.000000	-10.354471	-0.508393	-0.515016	0.750419	-0.008195	-0.029652	-0.002644
346	1.751184	0.005000	-0.664587	0.002493	-10.359360	-0.507728	-0.514240	0.750914	-0.002659	-0.025998	-0.018197
347	1.756184	0.005000	-0.435812	-0.002086	-10.361446	-0.507062	-0.513463	0.751409	-0.005858	-0.019835	-0.014920
348	1.761184	0.005000	-0.390707	-0.076787	-10.396907	-0.506397	-0.512687	0.751905	-0.005377	-0.028915	-0.007039
349	1.766184	0.005000	-0.429037	-0.075877	-10.436538	-0.505732	-0.511911	0.752400	-0.015599	-0.043682	-0.003850
350	1.771184	0.005000	-0.470880	-0.040129	-10.439618	-0.505066	-0.511134	0.752895	-0.014926	-0.029534	-0.004661
351	1.776184	0.005000	-0.353160	0.039732	-10.437840	-0.504620	-0.510615	0.753505	-0.026387	-0.036571	-0.006801
352	1.781184	0.005000	-0.470801	0.039161	-10.359439	-0.505840	-0.512058	0.754992	-0.000159	-0.036939	-0.002828
353	1.786184	0.005000	-0.510277	0.000470	-10.437526	-0.507061	-0.513500	0.756479	0.000736	-0.034316	-0.010545
354	1.791184	0.005000	-0.549360	0.038732	-10.398600	-0.508281	-0.514942	0.757966	-0.008795	-0.043040	-0.007069
355	1.796184	0.005000	-0.472182	-0.039891	-10.437189	-0.509501	-0.516385	0.759452	-0.015550	-0.027176	-0.004944
356	1.801184	0.005000	-0.470880	-0.078480	-10.322247	-0.510722	-0.517827	0.760939	-0.014819	-0.038200	-0.015567
357	1.806184	0.005000	-0.392400	-0.037764	-10.440793	-0.511942	-0.519270	0.762426	-0.016673	-0.038938	-0.008611
358	1.811184	0.005000	-0.472731	0.000000	-10.514469	-0.513163	-0.520712	0.763913	-0.010195	-0.031694	-0.012192
359	1.816184	0.005000	-0.473138	0.039240	-10.359360	-0.514383	-0.522154	0.765399	-0.002129	-0.036373	-0.007021
360	1.821184	0.005000	-0.541365	0.075815	-10.435175	-0.515604	-0.523597	0.766886	-0.014513	-0.010743	-0.017151
361	1.826184	0.005000	-0.473499	-0.002619	-10.252117	-0.516824	-0.525039	0.768373	-0.010243	-0.038125	-0.018616
362	1.831184	0.005000	-0.476912	-0.033208	-10.395584	-0.518045	-0.526481	0.769860	-0.016027	-0.023213	-0.010878
363	1.836184	0.005000	-0.559523	-0.003388	-10.284268	-0.519265	-0.527924	0.771346	-0.016078	-0.033975	-0.016422
364	1.841184	0.005000	-0.616458	-0.031652	-10.370742	-0.520486	-0.529366	0.772833	-0.003654	-0.035377	-0.004187
365	1.846184	0.005000	-0.470880	0.043427	-10.437840	-0.520896	-0.529630	0.774237	0.014990	-0.021088	-0.006859
366	1.851184	0.005000	-0.480067	0.034647	-10.389413	-0.520896	-0.529297	0.775600	0.009759	-0.038746	-0.010370
367	1.856184	0.005000	-0.505548	0.000000	-10.354788	-0.520896	-0.528965	0.776962	-0.019356	-0.020186	-0.012991
368	1.861184	0.005000	-0.431640	0.004923	-10.325043	-0.520896	-0.528632	0.778324	-0.006055	-0.033894	-0.013963
369	1.866184	0.005000	-0.481513	0.062530	-10.296830	-0.520896	-0.528299	0.779686	-0.017774	-0.031970	-0.016301
370	1.871184	0.005000	-0.566527	-0.044962	-10.370804	-0.520896	-0.527966	0.781049	-0.022763	-0.036797	-0.015742
371	1.876184	0.005000	-0.537100	0.039240	-10.398600	-0.520896	-0.527634	0.782411	0.001631	-0.037685	-0.001635
372	1.881184	0.005000	-0.510120	0.000000	-10.398600	-0.520896	-0.527301	0.783773	-0.012217	-0.018587	-0.015991
373	1.886184	0.005000	-0.477404	0.032716	-10.359360	-0.520896	-0.526968	0.785136	-0.012957	-0.020207	-0.009566
374	1.891184	0.005000	-0.392400	0.000000	-10.326971	-0.520896	-0.526636	0.786498	-0.016097	-0.029771	-0.009667
375	1.896184	0.005000	-0.563877	-0.007259	-10.391341	-0.520896	-0.526303	0.787860	-0.014700	-0.031243	-0.009912
376	1.901184	0.005000	-0.525427	-0.031586	-10.359360	-0.520896	-0.525970	0.789223	-0.007025	-0.033315	-0.009368
377	1.906184	0.005000	-0.588600	-0.024174	-10.375476	-0.520896	-0.525637	0.790585	-0.008257	-0.030414	-0.009639
378	1.911184	0.005000	-0.587441	-0.047320	-10.367440	-0.520759	-0.525373	0.791107	-0.013817	-0.038580	-0.000038
379	1.916184	0.005000	-0.487865	-0.109228	-10.437840	-0.520094	-0.525373	0.788382	-0.001199	-0.025051	-0.006341
380	1.921184	0.005000	-0.540577	-0.017565	-10.398600	-0.519428	-0.525373	0.785658	-0.010225	-0.039939	-0.010068
381	1.926184	0.005000	-0.480067	-0.069293	-10.407787	-0.518763	-0.525373	0.782933	-0.002763	-0.031852	-0.005367
382	1.931184	0.005000	-0.569435	-0.078480	-10.447423	-0.518097	-0.525373	0.780209	-0.016698	-0.021736	-0.018409
383	1.936184	0.005000	-0.480870	-0.058499	-10.496339	-0.517432	-0.525373	0.777485	-0.005496	-0.034509	-0.004905
384	1.941184	0.005000	-0.528572	-0.018452	-10.398600	-0.516766	-0.525373	0.774760	-0.013075	-0.025166	-0.005303
385	1.946184	0.005000	-0.499330	-0.039240	-10.380940	-0.516101	-0.525373	0.772036	-0.006411	-0.049550	-0.003135
386	1.951184	0.005000	-0.481738	-0.039240	-10.341835	-0.515436	-0.525373	0.769311	-0.009351	-0.038442	-0.008536
387	1.956184	0.005000	-0.571869	0.027985	-10.376091	-0.514770	-0.525373	0.766587	-0.015981	-0.033188	-0.020670
388	1.961184	0.005000	-0.530986	0.066957	-10.331643	-0.514105	-0.525373	0.763862	-0.002010	-0.028980	-0.009787
389	1.966184	0.005000	-0.458961	0.039240	-10.398600	-0.513439	-0.525373	0.761138	-0.008712	-0.019391	-0.012520
390	1.971184	0.005000	-0.377814	0.093066	-10.373946	-0.512774	-0.525373	0.758413	-0.009122	-0.045333	-0.003832
391	1.976184	0.005000	-0.326650	0.000000	-10.372090	-0.512108	-0.525373	0.755689	-0.010694	-0.030351	-0.002342
392	1.981184	0.005000	-0.457260	0.000000	-10.360170	-0.511691	-0.524959	0.754815	0.012607	-0.041251	-0.008023
393	1.986184	0.005000	-0.444852	0.026028	-10.307305	-0.511359	-0.524404	0.754567	-0.009689	-0.019207	-0.006245
394	1.991184	0.005000	-0.510120	0.000000	-10.306500	-0.511026	-0.523850	0.754320	-0.018723	-0.027754	-0.021598
395	1.996184	0.005000	-0.510120	-0.014032	-10.370535	-0.510693	-0.523295	0.754072	-0.010134	-0.032869	-0.013053
396	2.001184	0.005000	-0.470880	-0.039240	-10.266451	-0.510361	-0.522741	0.753824	-0.013784	-0.022961	-0.004900
397	2.006184	0.005000	-0.407064	0.000000	-10.251552	-0.510028	-0.522186	0.753577	-0.002847	-0.040077	-0.003221
398	2.011184	0.005000	-0.461772	-0.054306	-10.329228	-0.509695	-0.521631	0.753329	-0.010351	-0.045860	-0.020271
399	2.016184	0.005000	-0.486344	-0.078480	-10.327272	-0.509363	-0.521077	0.753081	-0.016857	-0.029888	-0.015931
400	2.021184	0.005000	-0.541851	-0.023375	-10.351004	-0.509030	-0.520522	0.752834	-0.027174	-0.016844	-0.013576
401	2.026184	0.005000	-0.542666	0.062207	-10.398600	-0.508697	-0.519968	0.752586	-0.014371	-0.030081	-0.015828
402	2.031184	0.005000	-0.565758	-0.006445	-10.382202	-0.508365	-0.519413	0.752338	-0.008359	-0.046675	-0.011323
403	2.036184	0.005000	-0.566154	0.022446	-10.359360	-0.508032	-0.518859	0.752091	-0.013686	-0.034593	-0.004726
404	2.041184	0.005000	-0.505294	-0.090862	-10.386218	-0.507700	-0.518304	0.751843	-0.010099	-0.040767	-0.010892
405	2.046184	0.005000	-0.662643	-0.104755	-10.481517	-0.507431	-0.517910	0.751667	-0.024217	-0.024223	0.001669
406	2.051184	0.005000	-0.584961	-0.035601	-10.320120	-0.507320	-0.517910	0.751667	-0.007839	-0.019834	-0.020856
407	2.056184	0.005000	-0.648879	0.057441	-10.322958	-0.507209	-0.517910	0.751667	-0.011655	-0.035963	-0.011838
408	2.061184	0.005000	-0.605162	0.020639	-10.377961	-0.507098	-0.517910	0.751667	-0.017353	-0.024678	-0.011268
409	2.066184	0.005000	-0.528883	0.039240	-10.396886	-0.506987	-0.517910	0.751667	-0.008573	-0.034792	-0.009188
410	2.071184	0.005000	-0.509199	-0.000921	-10.359360	-0.506876	-0.517910	0.751667	-0.007914	-0.036178	0.003274
411	2.076184	0.005000	-0.510120	0.058908	-10.398600	-0.506765	-0.517910	0.751667	-0.006654	-0.029469	-0.008957
412	2.081184	0.005000	-0.490143	0.000000	-10.380052	-0.506654	-0.517910	0.751667	-0.012060	-0.034843	-0.010429
413	2.086184	0.005000	-0.509085	-0.001035	-10.359360	-0.506543	-0.517910	0.751667	-0.017435	-0.033353	-0.015003
414	2.091184	0.005000	-0.528823	0.020537	-10.361194	-0.506433	-0.517910	0.751667	-0.008163	-0.040726	-0.005975
415	2.096184	0.005000	-0.491817	-0.039240	-10.437840	-0.506322	-0.517910	0.751667	-0.021800	-0.022429	-0.001651
416	2.101184	0.005000	-0.528015	0.042690	-10.455735	-0.506211	-0.517910	0.751667	0.003999	-0.038275	-0.008080
417	2.106184	0.005000	-0.431640	0.035430	-10.363170	-0.506100	-0.517910	0.751667	-0.011077	-0.026543	0.000692
418	2.111184	0.005000	-0.387765	-0.073845	-10.494382	-0.505989	-0.517910	0.751667	-0.015094	-0.028596	-0.003391
419	2.116184	0.005000	-0.380923	-0.061574	-10.443888	-0.506431	-0.518002	0.751667	-0.008865	-0.029676	-0.007768
420	2.121184	0.005000	-0.470880	-0.056006	-10.336886	-0.506986	-0.518113	0.751667	-0.019703	-0.016983	-0.016228
421	2.126184	0.005000	-0.510120	-0.055607	-10.342993	-0.507540	-0.518224	0.751667	-0.007575	-0.038544	-0.010141
422	2.131184	0.005000	-0.431640	-0.023274	-10.398600	-0.508095	-0.518335	0.751667	-0.017664	-0.042273	0.004091
423	2.136184	0.005000	-0.588600	-0.102153	-10.374927	-0.508650	-0.518446	0.751667	-0.007243	-0.027092	-0.006627
424	2.141184	0.005000	-0.579680	-0.093640	-10.344200	-0.509205	-0.518557	0.751667	-0.006576	-0.038962	-0.003206
425	2.146184	0.005000	-0.470880	0.048606	-10.301389	-0.509760	-0.518668	0.751667	-0.018776	-0.022969	-0.014521
426	2.151184	0.005000	-0.422073	0.033970	-10.344523	-0.510314	-0.518779	0.751667	-0.016463	-0.016768	-0.004520
427	2.156184	0.005000	-0.445768	-0.014128	-10.331105	-0.510869	-0.518890	0.751667	-0.020316	-0.022893	-0.013057
428	2.161184	0.005000	-0.482058	-0.025209	-10.306089	-0.511424	-0.519001	0.751667	-0.009311	-0.028391	-0.018094
429	2.166184	0.005000	-0.431640	-0.064851	-10.292862	-0.511979	-0.519112	0.751667	-0.006012	-0.038179	-0.017170
430	2.171184	0.005000	-0.536128	-0.078480	-10.306888	-0.512533	-0.519223	0.751667	-0.010402	-0.027311	-0.013899
431	2.176184	0.005000	-0.575771	-0.012829	-10.294462	-0.513088	-0.519334	0.751667	-0.007298	-0.033903	-0.006439
432	2.181184	0.005000	-0.497548	0.067432	-10.384504	-0.513349	-0.519403	0.751620	-0.034485	-0.015001	-0.009556
433	2.186184	0.005000	-0.389686	0.051415	-10.332295	-0.513127	-0.519403	0.751496	-0.016471	-0.027048	-0.009734
434	2.191184	0.005000	-0.529788	0.066718	-10.320120	-0.512905	-0.519403	0.751372	-0.019192	-0.027875	-0.006426
435	2.196184	0.005000	-0.561055	0.039240	-10.320120	-0.512683	-0.519403	0.751248	-0.013516	-0.030036	-0.008209
436	2.201184	0.005000	-0.482172	0.095136	-10.331412	-0.512461	-0.519403	0.751124	-0.010780	-0.037568	-0.001647
437	2.206184	0.005000	-0.510120	0.095929	-10.309224	-0.512240	-0.519403	0.751000	-0.012892	-0.034628	-0.012738
438	2.211184	0.005000	-0.557123	0.000000	-10.437840	-0.512018	-0.519403	0.750877	-0.015302	-0.032445	-0.012492
439	2.216184	0.005000	-0.431640	0.019071	-10.398600	-0.511796	-0.519403	0.750753	-0.025169	-0.033467	-0.011823
440	2.221184	0.005000	-0.549846	0.127409	-10.417977	-0.511574	-0.519403	0.750629	-0.010087	-0.038844	-0.009163
441	2.226184	0.005000	-0.530791	0.029955	-10.377929	-0.511352	-0.519403	0.750505	-0.000036	-0.028173	0.002400
442	2.231184	0.005000	-0.591887	-0.051515	-10.350372	-0.511130	-0.519403	0.750381	-0.012283	-0.030729	-0.017425
443	2.236184	0.005000	-0.610665	0.013477	-10.367948	-0.510908	-0.519403	0.750257	-0.013392	-0.040341	-0.008380
444	2.241184	0.005000	-0.667080	0.031065	-10.344645	-0.510686	-0.519403	0.750133	-0.019366	-0.018933	-0.014395
445	2.246184	0.005000	-0.557138	0.039240	-10.461524	-0.510464	-0.519403	0.750009	-0.008223	-0.044833	-0.015117
446	2.251184	0.005000	-0.683077	0.031492	-10.296375	-0.510243	-0.519403	0.750000	-0.006178	-0.038533	-0.011978
447	2.256184	0.005000	-0.414458	0.024535	-10.312767	-0.510021	-0.519403	0.750000	-0.006215	-0.036340	-0.011095
448	2.261184	0.005000	-0.567757	0.000000	-10.327068	-0.509799	-0.519403	0.750000	0.000208	-0.037100	-0.005950
449	2.266184	0.005000	-0.575494	-0.058821	-10.320120	-0.509577	-0.519403	0.750000	-0.012218	-0.024605	-0.020599
450	2.271184	0.005000	-0.477025	-0.066189	-10.359360	-0.509355	-0.519403	0.750000	-0.007021	-0.036467	-0.011348
451	2.276184	0.005000	-0.403880	-0.067000	-10.437840	-0.509134	-0.519403	0.750000	-0.012268	-0.026441	-0.001930
452	2.281184	0.005000	-0.436986	0.028548	-10.466388	-0.508912	-0.519403	0.750000	-0.023140	-0.026047	-0.002490
453	2.286184	0.005000	-0.617840	0.044240	-10.364360	-0.508690	-0.519403	0.750000	-0.001112	-0.052697	-0.003478
454	2.291184	0.005000	-0.597775	0.073892	-10.329295	-0.508468	-0.519403	0.750000	-0.019622	-0.035863	-0.014718
455	2.296184	0.005000	-0.510120	-0.004611	-10.306287	-0.508246	-0.519403	0.750000	-0.012422	-0.038651	-0.006041
456	2.301184	0.005000	-0.545143	0.078480	-10.342491	-0.508025	-0.519403	0.750000	-0.022644	-0.017237	-0.018577
457	2.306184	0.005000	-0.510120	-0.035429	-10.374604	-0.507803	-0.519403	0.750000	-0.021868	-0.020952	-0.013658
458	2.311184	0.005000	-0.506675	-0.003445	-10.402045	-0.507581	-0.519403	0.750000	-0.020679	-0.022715	-0.010193
459	2.316184	0.005000	-0.510120	-0.003048	-10.428697	-0.507619	-0.519455	0.750174	-0.019336	-0.036979	-0.011217
460	2.321184	0.005000	-0.510120	0.000000	-10.362448	-0.507951	-0.519566	0.750545	-0.001550	-0.044503	-0.004140
461	2.326184	0.005000	-0.476244	0.000000	-10.401282	-0.508284	-0.519677	0.750917	-0.013270	-0.028804	-0.014181
462	2.331184	0.005000	-0.355434	-0.036966	-10.361634	-0.508616	-0.519788	0.751288	-0.003161	-0.032945	-0.006058
463	2.336184	0.005000	-0.551241	-0.001881	-10.434077	-0.508949	-0.519898	0.751659	-0.008317	-0.023007	-0.016023
464	2.341184	0.005000	-0.550834	0.034817	-10.398600	-0.509281	-0.520009	0.752031	-0.013948	-0.037937	-0.015208
465	2.346184	0.005000	-0.471946	0.001066	-10.397534	-0.509614	-0.520120	0.752402	-0.015623	-0.036825	-0.001409
466	2.351184	0.005000	-0.510120	-0.079163	-10.320803	-0.509946	-0.520231	0.752773	0.008318	-0.030646	-0.001086
467	2.356184	0.005000	-0.393210	-0.000540	-10.281150	-0.510279	-0.520342	0.753145	0.003612	-0.043141	-0.006720
468	2.361184	0.005000	-0.549015	-0.000345	-10.437495	-0.510611	-0.520453	0.753516	-0.003699	-0.021102	-0.011457
469	2.366184	0.005000	-0.549423	-0.039367	-10.359360	-0.510944	-0.520564	0.753887	-0.006774	-0.039361	-0.015686
470	2.371184	0.005000	-0.510580	-0.078940	-10.436919	-0.511276	-0.520675	0.754259	-0.021649	-0.025961	-0.010336
471	2.376184	0.005000	-0.512707	-0.038378	-10.437840	-0.511609	-0.520786	0.754630	-0.013743	-0.029007	-0.010949
472	2.381184	0.005000	-0.511375	0.039240	-10.512556	-0.511939	-0.520897	0.755000	-0.010684	-0.038449	0.003394
473	2.386184	0.005000	-0.586938	0.040902	-10.320120	-0.511606	-0.521119	0.754876	-0.009737	-0.027544	-0.006442
474	2.391184	0.005000	-0.512189	0.039240	-10.365568	-0.511273	-0.521340	0.754752	-0.006945	-0.041628	-0.008600
475	2.396184	0.005000	-0.472896	0.000000	-10.398600	-0.510941	-0.521562	0.754628	-0.008308	-0.034130	-0.008747
476	2.401184	0.005000	-0.470880	0.000000	-10.393743	-0.510608	-0.521784	0.754504	-0.007957	-0.038052	-0.011756
477	2.406184	0.005000	-0.510120	-0.039240	-10.322946	-0.510275	-0.522006	0.754380	-0.019382	-0.032792	-0.001527
478	2.411184	0.005000	-0.503643	0.039240	-10.401838	-0.509943	-0.522228	0.754256	-0.017439	-0.031126	-0.009153
479	2.416184	0.005000	-0.403305	0.046510	-10.473445	-0.509610	-0.522449	0.754132	-0.005145	-0.042360	0.001934
480	2.421184	0.005000	-0.514119	0.113721	-10.425842	-0.509277	-0.522671	0.754009	-0.007711	-0.026324	0.004158
481	2.426184	0.005000	-0.579789	0.008811	-10.324525	-0.508945	-0.522893	0.753885	-0.011330	-0.039847	-0.002834
482	2.431184	0.005000	-0.505739	0.039240	-10.354979	-0.508612	-0.523115	0.753761	-0.011914	-0.024831	-0.003262
483	2.436184	0.005000	-0.431640	0.053580	-10.467520	-0.508279	-0.523337	0.753637	-0.009241	-0.023943	-0.022834
484	2.441184	0.005000	-0.538979	0.068099	-10.427459	-0.507947	-0.523558	0.753513	-0.016044	-0.038645	-0.006553
485	2.446184	0.005000	-0.571790	0.000000	-10.387377	-0.507614	-0.523780	0.753389	-0.016750	-0.030900	-0.011457
486	2.451184	0.005000	-0.431640	0.039240	-10.449697	-0.507402	-0.523820	0.753468	0.007087	-0.035502	-0.007698
487	2.456184	0.005000	-0.418968	0.000000	-10.458072	-0.507292	-0.523710	0.753716	-0.009772	-0.028864	-0.009086
488	2.461184	0.005000	-0.477621	0.039240	-10.366101	-0.507181	-0.523599	0.753964	-0.014723	-0.031745	-0.018370
489	2.466184	0.005000	-0.485152	0.017832	-10.384328	-0.507070	-0.523488	0.754211	-0.013813	-0.032895	0.003192
490	2.471184	0.005000	-0.549360	-0.149817	-10.391457	-0.506959	-0.523377	0.754459	-0.027686	-0.019720	-0.015246
491	2.476184	0.005000	-0.541804	-0.070924	-10.305008	-0.506848	-0.523266	0.754707	-0.011131	-0.043001	0.002602
492	2.481184	0.005000	-0.565297	0.031271	-10.320120	-0.506737	-0.523155	0.754955	-0.013399	-0.048979	-0.008188
493	2.486184	0.005000	-0.487611	-0.039240	-10.376091	-0.506626	-0.523044	0.755202	-0.010406	-0.040214	-0.000070
494	2.491184	0.005000	-0.527459	-0.030571	-10.372592	-0.506515	-0.522933	0.755450	-0.006843	-0.028693	-0.003150
495	2.496184	0.005000	-0.540283	0.039240	-10.377514	-0.506404	-0.522822	0.755698	-0.004842	-0.026535	-0.006550
496	2.501184	0.005000	-0.489826	0.029767	-10.379654	-0.506293	-0.522711	0.755945	-0.015010	-0.033292	-0.001426
497	2.506184	0.005000	-0.431640	0.000000	-10.359360	-0.506182	-0.522600	0.756193	-0.011563	-0.033465	-0.004144
498	2.511184	0.005000	-0.499847	0.018695	-10.369633	-0.506071	-0.522489	0.756441	-0.001349	-0.036929	0.011602
499	2.516184	0.005000	-0.539026	-0.078480	-10.369694	-0.506115	-0.522466	0.756905	-0.008607	-0.031087	0.002994
500	2.521184	0.005000	-0.538758	-0.021204	-10.459044	-0.507778	-0.523352	0.759628	-0.009773	-0.037205	-0.011944
501	2.526184	0.005000	-0.498977	-0.050383	-10.477080	-0.509441	-0.524239	0.762351	-0.009222	-0.039350	-0.003525
502	2.531184	0.005000	-0.515154	-0.050642	-10.375796	-0.511104	-0.525126	0.765075	-0.027081	-0.024733	-0.016779
503	2.536184	0.005000	-0.576790	-0.082291	-10.343739	-0.512766	-0.526013	0.767798	-0.011882	-0.027474	-0.003491
504	2.541184	0.005000	-0.522333	-0.066267	-10.359360	-0.514429	-0.526899	0.770521	-0.017235	-0.029440	-0.004308
505	2.546184	0.005000	-0.524141	-0.026631	-10.384579	-0.516092	-0.527786	0.773244	-0.010104	-0.043495	-0.009386
506	2.551184	0.005000	-0.472055	0.000000	-10.437840	-0.517755	-0.528673	0.775967	-0.008029	-0.034405	-0.012566
507	2.556184	0.005000	-0.457879	-0.039240	-10.372456	-0.519417	-0.529560	0.778690	-0.009557	-0.029116	-0.014111
508	2.561184	0.005000	-0.470096	0.038456	-10.320120	-0.521080	-0.530447	0.781414	-0.012321	-0.025161	-0.007796
509	2.566184	0.005000	-0.563099	-0.025501	-10.322096	-0.522743	-0.531333	0.784137	-0.009699	-0.013832	-0.011422
510	2.571184	0.005000	-0.588600	-0.014146	-10.334266	-0.524406	-0.532220	0.786860	-0.003505	-0.037155	-0.007184
511	2.576184	0.005000	-0.460737	-0.039240	-10.427697	-0.526068	-0.533107	0.789583	-0.010044	-0.027632	-0.002206
512	2.581184	0.005000	-0.436355	-0.014652	-10.437840	-0.527731	-0.533994	0.792306	-0.016335	-0.041297	-0.013618
513	2.586184	0.005000	-0.500977	-0.030097	-10.413648	-0.527805	-0.533499	0.791713	-0.008440	-0.047133	-0.003588
514	2.591184	0.005000	-0.565996	-0.093941	-10.383139	-0.526918	-0.532168	0.789112	-0.011937	-0.019677	-0.014684
515	2.596184	0.005000	-0.510120	-0.047126	-10.375037	-0.526031	-0.530837	0.786512	0.000784	-0.029728	-0.017615
516	2.601184	0.005000	-0.447716	-0.046329	-10.366449	-0.525144	-0.529507	0.783911	-0.022292	-0.029133	-0.014295
517	2.606184	0.005000	-0.510120	-0.039240	-10.353087	-0.524257	-0.528176	0.781310	-0.009565	-0.039501	-0.010260
518	2.611184	0.005000	-0.397871	-0.083951	-10.364831	-0.523369	-0.526845	0.778710	-0.009633	-0.024629	-0.001356
519	2.616184	0.005000	-0.409417	0.022223	-10.393393	-0.522482	-0.525514	0.776109	-0.006505	-0.031581	-0.006200
520	2.621184	0.005000	-0.470880	-0.017414	-10.468254	-0.521595	-0.524183	0.773508	-0.004142	-0.032872	-0.005946
521	2.626184	0.005000	-0.510120	-0.042827	-10.355773	-0.520708	-0.522853	0.770908	-0.022116	-0.029079	-0.014930
522	2.631184	0.005000	-0.609827	-0.039240	-10.416613	-0.519821	-0.521522	0.768307	-0.011912	-0.039523	-0.000943
523	2.636184	0.005000	-0.510120	0.020828	-10.437840	-0.518933	-0.520191	0.765706	-0.018308	-0.036947	-0.010230
524	2.641184	0.005000	-0.607413	0.018813	-10.379787	-0.518046	-0.518860	0.763106	-0.002213	-0.026267	-0.008239
525	2.646184	0.005000	-0.490900	0.000000	-10.438640	-0.517159	-0.517529	0.760505	-0.003360	-0.031057	0.000463
526	2.651184	0.005000	-0.490500	-0.098100	-10.457460	-0.516327	-0.516363	0.758251	-0.020717	-0.029131	-0.013640
527	2.656184	0.005000	-0.451101	-0.019461	-10.359043	-0.515772	-0.516030	0.757756	-0.007513	-0.034068	-0.009584
528	2.661184	0.005000	-0.491071	0.078480	-10.299929	-0.515218	-0.515698	0.757261	-0.020688	-0.016833	-0.010276
529	2.666184	0.005000	-0.470880	0.020604	-10.318152	-0.514663	-0.515365	0.756765	-0.012922	-0.029070	-0.008234
530	2.671184	0.005000	-0.567851	-0.020749	-10.380109	-0.514108	-0.515032	0.756270	-0.007042	-0.035604	-0.012244
531	2.676184	0.005000	-0.425526	0.003057	-10.341269	-0.513554	-0.514699	0.755775	-0.007700	-0.032439	0.006045
532	2.681184	0.005000	-0.435498	0.056931	-10.380909	-0.512999	-0.514367	0.755280	-0.004078	-0.032875	-0.002435
533	2.686184	0.005000	-0.470880	0.000000	-10.442514	-0.512445	-0.514034	0.754784	-0.009122	-0.039356	-0.018241
534	2.691184	0.005000	-0.515168	-0.090528	-10.454936	-0.511890	-0.513701	0.754289	-0.009949	-0.029452	-0.004800
535	2.696184	0.005000	-0.594473	-0.055923	-10.359360	-0.511336	-0.513369	0.753794	-0.015527	-0.013364	-0.007446
536	2.701184	0.005000	-0.533083	-0.045926	-10.382323	-0.510781	-0.513036	0.753298	-0.010128	-0.033161	-0.009340
537	2.706184	0.005000	-0.597822	-0.055394	-10.375514	-0.510227	-0.512703	0.752803	-0.010509	-0.041748	0.004706
538	2.711184	0.005000	-0.525876	0.000000	-10.312391	-0.509672	-0.512370	0.752308	-0.013406	-0.036315	-0.006117
539	2.716184	0.005000	-0.494766	-0.054594	-10.359360	-0.509118	-0.512038	0.751812	-0.006509	-0.038002	-0.011645
540	2.721184	0.005000	-0.569905	0.078480	-10.422894	-0.509033	-0.512332	0.751580	-0.026374	-0.011168	-0.011891
541	2.726184	0.005000	-0.456332	0.082885	-10.437840	-0.509144	-0.512886	0.751456	-0.018659	-0.026104	-0.002032
542	2.731184	0.005000	-0.485026	0.000000	-10.401799	-0.509255	-0.513440	0.751332	-0.018326	-0.032446	0.001611
543	2.736184	0.005000	-0.549360	-0.064559	-10.463159	-0.509366	-0.513994	0.751208	-0.006797	-0.042778	-0.006057
544	2.741184	0.005000	-0.573806	-0.078480	-10.424331	-0.509477	-0.514549	0.751084	-0.005965	-0.031443	-0.006575
545	2.746184	0.005000	-0.601696	0.065384	-10.385552	-0.509588	-0.515103	0.750960	-0.020340	-0.027832	-0.014874
546	2.751184	0.005000	-0.562565	0.013205	-10.372377	-0.509699	-0.515657	0.750837	-0.008284	-0.023328	-0.007416
547	2.756184	0.005000	-0.497500	-0.026620	-10.437840	-0.509810	-0.516212	0.750713	-0.011343	-0.021932	-0.005082
548	2.761184	0.005000	-0.551962	0.039240	-10.423025	-0.509920	-0.516766	0.750589	-0.014793	-0.033643	-0.007561
549	2.766184	0.005000	-0.561313	0.039240	-10.344026	-0.510031	-0.517320	0.750465	-0.013101	-0.036366	0.001435
550	2.771184	0.005000	-0.560916	0.027684	-10.264752	-0.510142	-0.517874	0.750341	-0.009986	-0.028923	-0.018623
551	2.776184	0.005000	-0.510120	-0.050731	-10.387109	-0.510253	-0.518429	0.750218	-0.011653	-0.041554	0.003219
552	2.781184	0.005000	-0.442724	-0.045229	-10.437840	-0.510364	-0.518983	0.750094	-0.009666	-0.026809	-0.007397
553	2.786184	0.005000	-0.506638	0.039240	-10.359360	-0.510421	-0.519484	0.750000	0.001831	-0.035009	-0.010958
554	2.791184	0.005000	-0.530688	0.008387	-10.369644	-0.510310	-0.519817	0.750000	-0.022957	-0.031471	-0.013862
555	2.796184	0.005000	-0.588318	0.000000	-10.290761	-0.510199	-0.520149	0.750000	-0.021349	-0.035096	-0.013357
556	2.801184	0.005000	-0.549360	-0.029652	-10.349772	-0.510088	-0.520482	0.750000	-0.010100	-0.032672	-0.006893
557	2.806184	0.005000	-0.459213	-0.060098	-10.299262	-0.509977	-0.520815	0.750000	-0.005967	-0.017570	-0.010888
558	2.811184	0.005000	-0.492564	-0.008778	-10.250418	-0.509866	-0.521148	0.750000	-0.005447	-0.032557	-0.012562
559	2.816184	0.005000	-0.470880	-0.030871	-10.295013	-0.509755	-0.521481	0.750000	-0.023712	-0.027778	-0.016906
560	2.821184	0.005000	-0.501776	-0.109376	-10.280880	-0.509644	-0.521814	0.750000	-0.016058	-0.033989	-0.011680
561	2.826184	0.005000	-0.462932	-0.031292	-10.421943	-0.509533	-0.522147	0.750000	0.006265	-0.029764	-0.003341
562	2.831184	0.005000	-0.431640	-0.031696	-10.398600	-0.509422	-0.522480	0.750000	-0.004905	-0.034619	-0.012073
563	2.836184	0.005000	-0.424504	-0.021408	-10.359360	-0.509311	-0.522812	0.750000	-0.012685	-0.042904	-0.004588
564	2.841184	0.005000	-0.438381	-0.032499	-10.320120	-0.509200	-0.523145	0.750000	-0.015297	-0.026599	-0.010267
565	2.846184	0.005000	-0.542947	-0.032827	-10.425014	-0.509089	-0.523478	0.750000	-0.006301	-0.026453	-0.014443
566	2.851184	0.005000	-0.694315	-0.039240	-10.471077	-0.508978	-0.523811	0.750000	-0.013740	-0.022985	-0.009480
567	2.856184	0.005000	-0.606620	0.006007	-10.386586	-0.508867	-0.523706	0.750294	-0.020257	-0.028397	-0.018375
568	2.861184	0.005000	-0.582988	0.028015	-10.364972	-0.508757	-0.523484	0.750665	-0.013014	-0.043367	-0.012274
569	2.866184	0.005000	-0.599014	0.005207	-10.359360	-0.508646	-0.523262	0.751037	-0.018351	-0.039747	-0.006323
570	2.871184	0.005000	-0.510120	-0.064083	-10.354561	-0.508535	-0.523040	0.751408	0.004085	-0.023806	-0.005960
571	2.876184	0.005000	-0.584139	-0.013382	-10.354899	-0.508424	-0.522819	0.751780	-0.002791	-0.027319	-0.008759
572	2.881184	0.005000	-0.584552	-0.113672	-10.324168	-0.508313	-0.522597	0.752151	-0.019771	-0.033923	-0.026711
573	2.886184	0.005000	-0.588600	-0.043318	-10.398600	-0.508202	-0.522375	0.752523	-0.018935	-0.023526	-0.011081
574	2.891184	0.005000	-0.435310	0.028230	-10.291890	-0.508091	-0.522153	0.752894	-0.008076	-0.027551	-0.015357
575	2.896184	0.005000	-0.539530	-0.078480	-10.434563	-0.507981	-0.521931	0.753266	-0.014712	-0.038078	-0.005904
576	2.901184	0.005000	-0.470880	0.075610	-10.401470	-0.507870	-0.521710	0.753637	-0.012729	-0.025292	-0.005063
577	2.906184	0.005000	-0.473388	0.073464	-10.472064	-0.507759	-0.521488	0.754009	0.005069	-0.047767	-0.006410
578	2.911184	0.005000	-0.547265	0.002095	-10.477080	-0.507648	-0.521266	0.754380	-0.000756	-0.030766	-0.010385
579	2.916184	0.005000	-0.586917	0.114355	-10.473715	-0.507537	-0.521044	0.754752	-0.010842	-0.036807	-0.007788
580	2.921184	0.005000	-0.626099	-0.034017	-10.552078	-0.507610	-0.520822	0.754877	0.005318	-0.039992	0.003272
581	2.926184	0.005000	-0.552056	-0.078480	-10.249729	-0.508054	-0.520601	0.754505	-0.013845	-0.025947	-0.002882
582	2.931184	0.005000	-0.629721	-0.077539	-10.356538	-0.508497	-0.520379	0.754134	-0.001849	-0.039525	-0.005349
583	2.936184	0.005000	-0.548294	-0.039240	-10.242706	-0.508940	-0.520157	0.753763	-0.005450	-0.034616	-0.004530
584	2.941184	0.005000	-0.627699	0.000000	-10.359219	-0.509384	-0.519935	0.753391	-0.004395	-0.028392	-0.010482
585	2.946184	0.005000	-0.588381	0.117281	-10.281319	-0.509827	-0.519714	0.753020	-0.024090	-0.021950	-0.018324
586	2.951184	0.005000	-0.470880	0.038566	-10.320120	-0.510270	-0.519492	0.752649	-0.008285	-0.022220	-0.018230
587	2.956184	0.005000	-0.586790	-0.157563	-10.281483	-0.510714	-0.519270	0.752277	-0.020234	-0.033137	-0.002779
588	2.961184	0.005000	-0.473880	-0.156960	-10.361360	-0.511157	-0.519048	0.751906	-0.011374	-0.026234	-0.011999
589	2.966184	0.005000	-0.704907	-0.117720	-10.398600	-0.511601	-0.518826	0.751535	-0.012177	-0.044801	0.000047
590	2.971184	0.005000	-0.627840	-0.003606	-10.437840	-0.512044	-0.518605	0.751163	-0.009902	-0.036666	-0.003870
591	2.976184	0.005000	-0.553751	-0.041436	-10.437840	-0.512487	-0.518383	0.750792	-0.005604	-0.024138	-0.013664
592	2.981184	0.005000	-0.510120	-0.036638	-10.320120	-0.512931	-0.518161	0.750421	-0.001404	-0.026062	-0.010065
593	2.986184	0.005000	-0.510120	-0.081036	-10.285991	-0.513374	-0.517939	0.750049	-0.017219	-0.019684	-0.015272
594	2.991184	0.005000	-0.440545	0.039240	-10.356392	-0.513048	-0.518102	0.750000	-0.003635	-0.029868	-0.000084
595	2.996184	0.005000	-0.510120	-0.010096	-10.320120	-0.512605	-0.518324	0.750000	-0.016410	-0.028328	-0.005062
596	3.001184	0.005000	-0.424084	-0.078480	-10.355582	-0.512161	-0.518546	0.750000	-0.001609	-0.041904	-0.013846
597	3.006184	0.005000	-0.400781	-0.113529	-10.320120	-0.511717	-0.518768	0.750000	-0.005153	-0.028762	-0.003785
598	3.011184	0.005000	-0.553948	-0.039240	-10.354772	-0.511274	-0.518990	0.750000	-0.022761	-0.024250	-0.005803
599	3.016184	0.005000	-0.578723	-0.009877	-10.290757	-0.510830	-0.519212	0.750000	-0.025482	-0.029995	0.002163
600	3.021184	0.005000	-0.476212	-0.078480	-10.291545	-0.510387	-0.519434	0.750000	-0.012702	-0.022078	-0.012670
601	3.026184	0.005000	-0.421101	-0.039240	-10.286620	-0.509943	-0.519656	0.750000	-0.008827	-0.036241	-0.010587
602	3.031184	0.005000	-0.515850	0.033510	-10.314390	-0.509499	-0.519877	0.750000	-0.014802	-0.035857	-0.005334
603	3.036184	0.005000	-0.561646	-0.020811	-10.353217	-0.509056	-0.520099	0.750000	-0.012381	-0.035389	-0.014992
604	3.041184	0.005000	-0.575488	0.000000	-10.333232	-0.508612	-0.520321	0.750000	-0.006058	-0.034627	-0.010865
605	3.046184	0.005000	-0.327825	0.006953	-10.384695	-0.508169	-0.520543	0.750000	-0.016976	-0.026464	-0.022300
606	3.051184	0.005000	-0.446188	0.046514	-10.398600	-0.507725	-0.520765	0.750000	-0.008004	-0.031955	-0.006552
607	3.056184	0.005000	-0.463211	0.000000	-10.351691	-0.507418	-0.520805	0.749848	-0.007373	-0.032195	-0.003923
608	3.061184	0.005000	-0.400477	0.000000	-10.390523	-0.507307	-0.520583	0.749476	0.002329	-0.041891	-0.001384
609	3.066184	0.005000	-0.440121	-0.030759	-10.420877	-0.507196	-0.520361	0.749105	-0.008679	-0.037083	-0.001754
610	3.071184	0.005000	-0.527874	-0.008877	-10.337874	-0.507085	-0.520140	0.748733	-0.019247	-0.032301	-0.012766
611	3.076184	0.005000	-0.540075	-0.138391	-10.320120	-0.506974	-0.519918	0.748362	-0.021657	-0.024122	-0.007926
612	3.081184	0.005000	-0.440958	-0.069162	-10.368678	-0.506863	-0.519696	0.747990	-0.009946	-0.033168	-0.006070
613	3.086184	0.005000	-0.490100	0.009610	-10.379380	-0.506752	-0.519474	0.747619	-0.002173	-0.038162	-0.002640
614	3.091184	0.005000	-0.392400	-0.088486	-10.447846	-0.506641	-0.519252	0.747247	-0.001376	-0.029490	-0.000332
615	3.096184	0.005000	-0.450052	-0.057652	-10.409014	-0.506530	-0.519030	0.746876	-0.005756	-0.041400	-0.015398
616	3.101184	0.005000	-0.403217	-0.010817	-10.330937	-0.506419	-0.518808	0.746504	-0.011465	-0.028359	-0.008316
617	3.106184	0.005000	-0.521334	0.078480	-10.359360	-0.506308	-0.518586	0.746133	-0.007539	-0.018139	-0.021787
618	3.111184	0.005000	-0.549360	0.011270	-10.387330	-0.506197	-0.518365	0.745761	-0.001352	-0.034470	-0.011715
619	3.116184	0.005000	-0.498437	0.066797	-10.371043	-0.506086	-0.518143	0.745390	-0.018953	-0.029374	-0.013804
620	3.121184	0.005000	-0.419544	0.015048	-10.383552	-0.505975	-0.517921	0.745018	-0.007115	-0.036552	-0.012897
621	3.126184	0.005000	-0.404893	-0.039240	-10.437840	-0.506286	-0.518015	0.745707	0.001178	-0.028067	0.002061
622	3.131184	0.005000	-0.431640	0.027498	-10.398600	-0.506619	-0.518126	0.746450	-0.006287	-0.023354	-0.014713
623	3.136184	0.005000	-0.457946	0.013153	-10.437840	-0.506952	-0.518237	0.747193	-0.011643	-0.038776	-0.011354
624	3.141184	0.005000	-0.470880	0.013551	-10.385049	-0.507285	-0.518348	0.747936	-0.006811	-0.037130	-0.021246
625	3.146184	0.005000	-0.496167	0.027905	-10.345407	-0.507617	-0.518459	0.748679	-0.015429	-0.028831	-0.004282
626	3.151184	0.005000	-0.563408	0.092528	-10.384552	-0.507950	-0.518570	0.749422	-0.012424	-0.026290	-0.006391
627	3.156184	0.005000	-0.485341	0.167278	-10.398600	-0.508283	-0.518681	0.750165	-0.020119	-0.037292	-0.011286
628	3.161184	0.005000	-0.446320	0.142280	-10.427959	-0.508616	-0.518792	0.750908	-0.009660	-0.042638	-0.001353
629	3.166184	0.005000	-0.449794	0.033236	-10.468003	-0.508948	-0.518903	0.751651	-0.010803	-0.035095	-0.016860
630	3.171184	0.005000	-0.479161	-0.063000	-10.509121	-0.509281	-0.519014	0.752394	-0.014783	-0.040315	-0.016861
631	3.176184	0.005000	-0.454993	0.039240	-10.382713	-0.509614	-0.519125	0.753137	-0.025514	-0.019380	-0.006295
632	3.181184	0.005000	-0.556598	0.007238	-10.359360	-0.509946	-0.519236	0.753880	-0.014223	-0.034488	-0.007907
633	3.186184	0.005000	-0.454467	-0.032827	-10.405013	-0.510279	-0.519347	0.754623	-0.007294	-0.038407	-0.002108
634	3.191184	0.005000	-0.470880	-0.117720	-10.359360	-0.510557	-0.519895	0.755305	-0.039638	-0.023431	-0.009521
635	3.196184	0.005000	-0.505326	-0.022017	-10.302897	-0.510779	-0.520893	0.755924	-0.012939	-0.031644	-0.010079
636	3.201184	0.005000	-0.527756	0.060844	-10.320120	-0.511001	-0.521891	0.756543	-0.006567	-0.035308	-0.019151
637	3.206184	0.005000	-0.510120	0.074873	-10.280880	-0.511223	-0.522889	0.757163	-0.009695	-0.044147	-0.020548
638	3.211184	0.005000	-0.531136	-0.075688	-10.437840	-0.511444	-0.523887	0.757782	-0.019797	-0.036253	-0.013320
639	3.216184	0.005000	-0.528486	-0.002508	-10.456206	-0.511666	-0.524885	0.758401	-0.017950	-0.034038	-0.012150
640	3.221184	0.005000	-0.629523	0.020461	-10.477080	-0.511888	-0.525883	0.759020	-0.002612	-0.035510	-0.008384
641	3.226184	0.005000	-0.510120	0.039240	-10.360249	-0.512110	-0.526882	0.759639	-0.013625	-0.038868	-0.008163
642	3.231184	0.005000	-0.392463	0.078543	-10.457492	-0.512332	-0.527880	0.760258	-0.006034	-0.037688	-0.007807
643	3.236184	0.005000	-0.432402	0.038478	-10.378599	-0.512553	-0.528878	0.760878	-0.025292	-0.027956	-0.015651
644	3.241184	0.005000	-0.548294	0.001066	-10.438906	-0.512775	-0.529876	0.761497	-0.023679	-0.030600	-0.008647
645	3.246184	0.005000	-0.489559	0.037358	-10.316356	-0.512997	-0.530874	0.762116	-0.008630	-0.033406	-0.007122
646	3.251184	0.005000	-0.512801	-0.002681	-10.380320	-0.513219	-0.531872	0.762735	-0.008867	-0.028532	-0.019372
647	3.256184	0.005000	-0.410279	0.000000	-10.398600	-0.513444	-0.532802	0.763320	-0.001583	-0.037443	-0.003567
648	3.261184	0.005000	-0.510120	-0.082760	-10.402880	-0.513777	-0.531804	0.762949	-0.009885	-0.027515	-0.007064
649	3.266184	0.005000	-0.475547	-0.039240	-10.437840	-0.514110	-0.530805	0.762577	-0.006835	-0.036520	-0.014056
650	3.271184	0.005000	-0.543868	0.000000	-10.460206	-0.514442	-0.529807	0.762206	-0.019795	-0.035938	-0.016335
651	3.276184	0.005000	-0.408877	-0.045526	-10.454317	-0.514775	-0.528809	0.761834	-0.002366	-0.029101	-0.005080
652	3.281184	0.005000	-0.441454	-0.049054	-10.421489	-0.515108	-0.527811	0.761463	-0.010218	-0.036806	-0.002640
653	3.286184	0.005000	-0.540769	0.078480	-10.375304	-0.515440	-0.526813	0.761091	-0.012737	-0.029661	-0.009816
654	3.291184	0.005000	-0.556747	-0.086635	-10.398600	-0.515773	-0.525815	0.760720	-0.005630	-0.028329	-0.006170
655	3.296184	0.005000	-0.494786	-0.054574	-10.366122	-0.516106	-0.524817	0.760348	-0.009582	-0.017931	-0.015417
656	3.301184	0.005000	-0.470880	0.039240	-10.295801	-0.516438	-0.523819	0.759977	-0.012541	-0.035588	-0.019878
657	3.306184	0.005000	-0.470880	0.039240	-10.388377	-0.516771	-0.522820	0.759605	-0.015273	-0.026178	-0.008985
658	3.311184	0.005000	-0.538344	-0.050256	-10.423728	-0.517104	-0.521822	0.759233	-0.012763	-0.029508	-0.003997
659	3.316184	0.005000	-0.496105	-0.002806	-10.491095	-0.517436	-0.520824	0.758862	0.002363	-0.035727	-0.004847
660	3.321184	0.005000	-0.445253	0.066466	-10.384987	-0.517769	-0.519826	0.758490	-0.004105	-0.024614	-0.015047
661	3.326184	0.005000	-0.510120	0.013205	-10.372189	-0.517527	-0.519211	0.758262	-0.017033	-0.029128	-0.015934
662	3.331184	0.005000	-0.483849	-0.039240	-10.359360	-0.516861	-0.518879	0.758138	-0.016050	-0.035316	-0.011924
663	3.336184	0.005000	-0.535232	0.026684	-10.371916	-0.516196	-0.518546	0.758014	-0.010559	-0.029618	-0.002619
664	3.341184	0.005000	-0.510120	0.042035	-10.320120	-0.515530	-0.518213	0.757890	0.003056	-0.028421	0.000297
665	3.346184	0.005000	-0.482956	0.066404	-10.268804	-0.514865	-0.517880	0.757767	-0.007793	-0.026987	0.001386
666	3.351184	0.005000	-0.404080	0.050920	-10.398600	-0.514200	-0.517548	0.757643	0.000076	-0.027418	-0.012103
667	3.356184	0.005000	-0.375713	0.027964	-10.398600	-0.513534	-0.517215	0.757519	-0.010125	-0.029476	-0.003028
668	3.361184	0.005000	-0.448870	-0.028235	-10.398600	-0.512869	-0.516882	0.757395	-0.001602	-0.041447	-0.009802
669	3.366184	0.005000	-0.510120	0.039240	-10.409204	-0.512203	-0.516549	0.757271	-0.008584	-0.033197	0.000674
670	3.371184	0.005000	-0.481071	0.107529	-10.466889	-0.511538	-0.516217	0.757148	-0.020484	-0.030549	-0.015888
671	3.376184	0.005000	-0.519914	0.058892	-10.310326	-0.510873	-0.515884	0.757024	-0.004123	-0.036197	-0.007709
672	3.381184	0.005000	-0.441379	0.000000	-10.388861	-0.510207	-0.515551	0.756900	-0.006100	-0.034300	-0.013426
673	3.386184	0.005000	-0.510120	0.057927	-10.320120	-0.509542	-0.515218	0.756776	0.002139	-0.040239	-0.012550
674	3.391184	0.005000	-0.540420	-0.048180	-10.271940	-0.508968	-0.514912	0.756623	0.004081	-0.029030	-0.014641
675	3.396184	0.005000	-0.610752	-0.078480	-10.359360	-0.509079	-0.514801	0.756252	-0.006049	-0.037227	-0.008973
676	3.401184	0.005000	-0.487153	-0.047376	-10.336393	-0.509190	-0.514690	0.755880	-0.014899	-0.025806	0.000108
677	3.406184	0.005000	-0.510120	0.000000	-10.320120	-0.509301	-0.514579	0.755509	-0.008875	-0.025195	-0.000911
678	3.411184	0.005000	-0.534686	-0.031903	-10.344686	-0.509412	-0.514468	0.755137	0.001736	-0.037744	0.001061
679	3.416184	0.005000	-0.445672	0.057431	-10.359360	-0.509523	-0.514358	0.754766	-0.009728	-0.037969	-0.002858
680	3.421184	0.005000	-0.334943	-0.007008	-10.470072	-0.509634	-0.514247	0.754394	-0.008276	-0.041543	-0.017124
681	3.426184	0.005000	-0.385797	0.065275	-10.365963	-0.509745	-0.514136	0.754023	-0.020633	-0.032455	-0.019100
682	3.431184	0.005000	-0.444056	-0.026824	-10.392392	-0.509856	-0.514025	0.753651	-0.022246	-0.021865	-0.013696
683	3.436184	0.005000	-0.437443	-0.078480	-10.471277	-0.509967	-0.513914	0.753280	-0.001545	-0.035825	-0.005192
684	3.441184	0.005000	-0.426245	-0.039240	-10.325515	-0.510077	-0.513803	0.752908	-0.009765	-0.027534	-0.014347
685	3.446184	0.005000	-0.348096	-0.034176	-10.330247	-0.510188	-0.513692	0.752536	0.000005	-0.053556	-0.003154
686	3.451184	0.005000	-0.505469	-0.039240	-10.350058	-0.510299	-0.513582	0.752165	-0.007441	-0.036186	-0.008601
687	3.456184	0.005000	-0.475118	-0.039240	-10.442078	-0.510410	-0.513471	0.751793	-0.013188	-0.034731	-0.010014
688	3.461184	0.005000	-0.392400	-0.007683	-10.402441	-0.510375	-0.513579	0.751912	-0.029530	-0.021853	-0.008101
689	3.466184	0.005000	-0.503263	0.039240	-10.352503	-0.510264	-0.513801	0.752284	-0.013618	-0.026098	-0.013839
690	3.471184	0.005000	-0.467848	0.069384	-10.395568	-0.510153	-0.514023	0.752656	-0.006714	-0.050986	0.001780
691	3.476184	0.005000	-0.504003	0.078480	-10.323178	-0.510042	-0.514245	0.753027	-0.002736	-0.039380	0.005347
692	3.481184	0.005000	-0.554690	-0.002665	-10.320120	-0.509931	-0.514467	0.753399	-0.005459	-0.032365	-0.009568
693	3.486184	0.005000	-0.473138	0.000000	-10.246157	-0.509820	-0.514689	0.753771	-0.010398	-0.024436	0.004104
694	3.491184	0.005000	-0.467179	-0.039240	-10.434139	-0.509709	-0.514911	0.754142	-0.015135	-0.026346	-0.017162
695	3.496184	0.005000	-0.437545	0.111815	-10.398600	-0.509598	-0.515133	0.754514	-0.012864	-0.029167	-0.001797
696	3.501184	0.005000	-0.511184	0.040304	-10.360424	-0.509487	-0.515355	0.754886	-0.015137	-0.034971	-0.008660
697	3.506184	0.005000	-0.510120	-0.077813	-10.282213	-0.509376	-0.515576	0.755257	-0.002945	-0.043945	0.000913
698	3.511184	0.005000	-0.470159	0.000721	-10.397879	-0.509265	-0.515798	0.755629	-0.004170	-0.027771	0.005108
699	3.516184	0.005000	-0.510449	-0.039569	-10.320120	-0.509154	-0.516020	0.756001	-0.005666	-0.031936	-0.017420
700	3.521184	0.005000	-0.549281	0.000000	-10.320041	-0.509043	-0.516242	0.756372	-0.012435	-0.037395	-0.013142
701	3.526184	0.005000	-0.509644	-0.038764	-10.164589	-0.509001	-0.516510	0.756564	-0.000084	-0.032995	-0.010191
702	3.531184	0.005000	-0.508342	-0.039240	-10.360249	-0.509223	-0.516954	0.756069	-0.003597	-0.044062	-0.004322
703	3.536184	0.005000	-0.472166	-0.002571	-10.398600	-0.509445	-0.517397	0.755573	-0.016663	-0.038331	-0.009842
704	3.541184	0.005000	-0.510120	0.001678	-10.395244	-0.509666	-0.517841	0.755078	-0.007707	-0.036963	-0.006503
705	3.546184	0.005000	-0.357332	0.037154	-10.398600	-0.509888	-0.518284	0.754583	-0.016340	-0.039390	-0.005519
706	3.551184	0.005000	-0.429608	-0.039240	-10.431744	-0.510110	-0.518728	0.754087	-0.025985	-0.024869	-0.019160
707	3.556184	0.005000	-0.362938	-0.002445	-10.361805	-0.510332	-0.519172	0.753592	-0.020663	-0.023739	-0.006116
708	3.561184	0.005000	-0.515803	0.084163	-10.395759	-0.510554	-0.519615	0.753097	-0.017221	-0.023031	-0.022596
709	3.566184	0.005000	-0.585346	0.114466	-10.395346	-0.510775	-0.520059	0.752601	0.004616	-0.040862	-0.009771
710	3.571184	0.005000	-0.553027	0.039240	-10.366694	-0.510997	-0.520502	0.752106	0.008477	-0.022056	-0.004211
711	3.576184	0.005000	-0.592615	-0.035225	-10.469050	-0.511219	-0.520946	0.751610	0.001192	-0.032756	-0.008888
712	3.581184	0.005000	-0.484143	-0.039240	-10.363781	-0.511441	-0.521390	0.751115	-0.008727	-0.020776	-0.009466
713	3.586184	0.005000	-0.514949	-0.004829	-10.442669	-0.511663	-0.521833	0.750620	-0.020378	-0.026005	-0.012566
714	3.591184	0.005000	-0.572932	-0.112497	-10.432617	-0.511884	-0.522277	0.750124	-0.009572	-0.034493	-0.013234
715	3.596184	0.005000	-0.510120	-0.084108	-10.314492	-0.511774	-0.522222	0.749814	-0.022500	-0.023467	-0.016455
716	3.601184	0.005000	-0.554979	-0.072861	-10.426601	-0.511552	-0.522000	0.749567	-0.002983	-0.048341	-0.014520
717	3.606184	0.005000	-0.516152	-0.012064	-10.398600	-0.511330	-0.521778	0.749319	-0.015327	-0.032389	-0.002771
718	3.611184	0.005000	-0.510120	-0.111368	-10.444192	-0.511108	-0.521556	0.749071	-0.018638	-0.031227	-0.005488
719	3.616184	0.005000	-0.556117	-0.110963	-10.437840	-0.510887	-0.521335	0.748824	-0.002816	-0.035490	-0.003844
720	3.621184	0.005000	-0.524423	-0.071328	-10.312968	-0.510665	-0.521113	0.748576	-0.017079	-0.021380	-0.011091
721	3.626184	0.005000	-0.524470	-0.078480	-10.302405	-0.510443	-0.520891	0.748329	-0.002814	-0.041438	-0.008983
722	3.631184	0.005000	-0.620268	-0.141816	-10.327692	-0.510221	-0.520669	0.748081	0.003592	-0.030591	-0.005691
723	3.636184	0.005000	-0.534074	0.000000	-10.328105	-0.509999	-0.520447	0.747833	-0.004162	-0.028637	-0.008932
724	3.641184	0.005000	-0.504419	-0.030855	-10.376130	-0.509778	-0.520226	0.747586	-0.005189	-0.032344	-0.007941
725	3.646184	0.005000	-0.588600	-0.069791	-10.429151	-0.509556	-0.520004	0.747338	-0.013010	-0.019525	-0.017042
726	3.651184	0.005000	-0.540267	-0.069387	-10.350267	-0.509334	-0.519782	0.747090	-0.008096	-0.029136	-0.008332
727	3.656184	0.005000	-0.529097	-0.039240	-10.398600	-0.509112	-0.519560	0.746843	-0.013805	-0.021491	-0.008538
728	3.661184	0.005000	-0.510120	0.009540	-10.428300	-0.508858	-0.519435	0.746775	0.009496	-0.035323	-0.008390
729	3.666184	0.005000	-0.480817	0.069051	-10.349931	-0.508526	-0.519546	0.747147	-0.000793	-0.036714	0.002810
730	3.671184	0.005000	-0.578378	0.127942	-10.378157	-0.508193	-0.519657	0.747518	-0.012559	-0.031667	-0.006968
731	3.676184	0.005000	-0.538742	0.057245	-10.380595	-0.507860	-0.519768	0.747890	-0.013530	-0.031452	-0.013462
732	3.681184	0.005000	-0.556551	-0.017874	-10.409283	-0.507528	-0.519879	0.748261	-0.020509	-0.020321	-0.019201
733	3.686184	0.005000	-0.510120	-0.011080	-10.387520	-0.507195	-0.519990	0.748633	-0.013073	-0.023987	-0.009344
734	3.691184	0.005000	-0.487419	-0.095019	-10.398600	-0.506862	-0.520101	0.749004	-0.033689	-0.015915	-0.008261
735	3.696184	0.005000	-0.486626	-0.027493	-10.347613	-0.506530	-0.520212	0.749376	-0.013701	-0.027284	-0.016414
736	3.701184	0.005000	-0.458725	-0.024309	-10.320120	-0.506197	-0.520323	0.749747	0.001165	-0.029383	-0.013411
737	3.706184	0.005000	-0.522677	-0.012557	-10.384475	-0.505864	-0.520434	0.750119	-0.008003	-0.024564	-0.015213
738	3.711184	0.005000	-0.535391	0.039240	-10.385964	-0.505532	-0.520545	0.750490	-0.005321	-0.028818	-0.004764
739	3.716184	0.005000	-0.497082	0.039240	-10.359360	-0.505199	-0.520656	0.750862	-0.011212	-0.016409	-0.007763
740	3.721184	0.005000	-0.484325	-0.025795	-10.347010	-0.504866	-0.520767	0.751233	-0.014661	-0.023759	-0.005443
741	3.726184	0.005000	-0.447831	0.025382	-10.373218	-0.504534	-0.520877	0.751605	-0.021773	-0.036826	-0.003494
742	3.731184	0.005000	-0.460149	0.028509	-10.370091	-0.505124	-0.520804	0.751358	-0.021218	-0.026077	-0.004376
743	3.736184	0.005000	-0.539103	-0.014492	-10.324355	-0.505901	-0.520693	0.750986	-0.004535	-0.031975	-0.006435
744	3.741184	0.005000	-0.549360	-0.024652	-10.344772	-0.506677	-0.520582	0.750615	-0.010135	-0.034588	-0.016096
745	3.746184	0.005000	-0.540703	-0.015291	-10.365994	-0.507453	-0.520471	0.750243	-0.004813	-0.037948	-0.009589
746	3.751184	0.005000	-0.564758	0.000000	-10.398600	-0.508229	-0.520360	0.749872	-0.018932	-0.029272	-0.009233
747	3.756184	0.005000	-0.525930	0.000000	-10.375170	-0.509006	-0.520249	0.749500	-0.008198	-0.033667	-0.007780
748	3.761184	0.005000	-0.526343	0.016223	-10.391806	-0.509782	-0.520138	0.749129	-0.009582	-0.039900	-0.002944
749	3.766184	0.005000	-0.588600	0.055860	-10.359360	-0.510558	-0.520027	0.748757	-0.010979	-0.038968	-0.012204
750	3.771184	0.005000	-0.504945	-0.017033	-10.364535	-0.511334	-0.519916	0.748385	-0.004917	-0.036856	-0.004210
751	3.776184	0.005000	-0.510120	-0.034458	-10.298109	-0.512111	-0.519805	0.748014	-0.011566	-0.002674	-0.005160
752	3.781184	0.005000	-0.457235	-0.017628	-10.337748	-0.512887	-0.519694	0.747642	-0.009422	-0.037646	-0.014039
753	3.786184	0.005000	-0.542995	0.000000	-10.359360	-0.513663	-0.519583	0.747271	-0.020301	-0.028208	-0.005772
754	3.791184	0.005000	-0.510120	0.057668	-10.414644	-0.514439	-0.519472	0.746899	-0.007006	-0.038141	-0.005445
755	3.796184	0.005000	-0.530524	0.000000	-10.381333	-0.514759	-0.519528	0.746667	0.011837	-0.039737	-0.002323
756	3.801184	0.005000	-0.627840	-0.019236	-10.320120	-0.514315	-0.519861	0.746667	-0.002476	-0.037035	-0.012920
757	3.806184	0.005000	-0.588600	-0.019604	-10.398600	-0.513871	-0.520193	0.746667	-0.018851	-0.029591	-0.018371
758	3.811184	0.005000	-0.411472	-0.039970	-10.319755	-0.513427	-0.520526	0.746667	-0.020380	-0.024828	-0.009820
759	3.816184	0.005000	-0.471570	-0.059205	-10.358670	-0.512984	-0.520859	0.746667	-0.004682	-0.029404	-0.012967
760	3.821184	0.005000	-0.528995	-0.018875	-10.321609	-0.512540	-0.521192	0.746667	-0.008282	-0.037457	-0.001322
761	3.826184	0.005000	-0.392400	-0.041530	-10.380125	-0.512096	-0.521525	0.746667	-0.016989	-0.031124	-0.011757
762	3.831184	0.005000	-0.467775	0.078480	-10.377427	-0.511652	-0.521858	0.746667	-0.013588	-0.046825	-0.008708
763	3.836184	0.005000	-0.431640	-0.013765	-10.398600	-0.511208	-0.522191	0.746667	-0.010061	-0.024289	-0.016380
764	3.841184	0.005000	-0.488147	0.021973	-10.368770	-0.510765	-0.522524	0.746667	-0.008672	-0.030354	-0.014734
765	3.846184	0.005000	-0.505040	0.017080	-10.342280	-0.510321	-0.522857	0.746667	-0.023912	-0.039479	-0.010858
766	3.851184	0.005000	-0.476785	-0.005905	-10.297547	-0.509877	-0.523189	0.746667	-0.006500	-0.031462	-0.015142
767	3.856184	0.005000	-0.487135	-0.032510	-10.320120	-0.509433	-0.523522	0.746667	-0.004588	-0.039401	0.003775
768	3.861184	0.005000	-0.323095	0.000000	-10.382462	-0.508989	-0.523855	0.746667	-0.013134	-0.019884	-0.011554
769	3.866184	0.005000	-0.447160	0.039240	-10.320120	-0.508750	-0.522960	0.747124	-0.005169	-0.024907	-0.014652
770	3.871184	0.005000	-0.534028	0.023908	-10.304788	-0.508529	-0.521962	0.747619	-0.016179	-0.029549	-0.015349
771	3.876184	0.005000	-0.534248	0.030224	-10.289896	-0.508307	-0.520964	0.748114	-0.035711	-0.023837	-0.019448
772	3.881184	0.005000	-0.534645	0.000000	-10.437840	-0.508085	-0.519966	0.748610	-0.010530	-0.036117	-0.005871
773	3.886184	0.005000	-0.446241	-0.053841	-10.437840	-0.507863	-0.518968	0.749105	-0.019061	-0.029589	-0.013544
774	3.891184	0.005000	-0.460047	-0.053444	-10.466247	-0.507641	-0.517970	0.749600	-0.003416	-0.034167	0.006177
775	3.896184	0.005000	-0.443277	-0.025439	-10.398600	-0.507420	-0.516972	0.750096	-0.003978	-0.021702	-0.007662
776	3.901184	0.005000	-0.458784	0.012096	-10.321596	-0.507198	-0.515974	0.750591	-0.011111	-0.038817	-0.016814
777	3.906184	0.005000	-0.509882	0.052399	-10.320120	-0.506976	-0.514975	0.751086	-0.018021	-0.035690	-0.010843
778	3.911184	0.005000	-0.522867	0.065733	-10.202400	-0.506754	-0.513977	0.751582	-0.012400	-0.031240	-0.014153
779	3.916184	0.005000	-0.483552	-0.025344	-10.268208	-0.506532	-0.512979	0.752077	-0.018252	-0.030519	-0.005272
780	3.921184	0.005000	-0.495430	-0.026965	-10.359360	-0.506311	-0.511981	0.752572	-0.012712	-0.033971	-0.009991
781	3.926184	0.005000	-0.561228	-0.121357	-10.414105	-0.506089	-0.510983	0.753068	-0.004532	-0.037783	-0.008691
782	3.931184	0.005000	-0.487191	-0.101409	-10.405218	-0.506639	-0.511272	0.753908	0.006964	-0.032849	-0.008326
783	3.936184	0.005000	-0.588600	-0.022136	-10.398600	-0.508082	-0.513047	0.755147	-0.013537	-0.024373	-0.004876
784	3.941184	0.005000	-0.481674	0.039240	-10.359360	-0.509524	-0.514822	0.756386	-0.020912	-0.020426	-0.007526
785	3.946184	0.005000	-0.473166	-0.068099	-10.495557	-0.510966	-0.516597	0.757625	-0.012780	-0.026526	-0.010561
786	3.951184	0.005000	-0.499785	-0.078480	-10.427505	-0.512409	-0.518372	0.758864	-0.004819	-0.041214	-0.000695
787	3.956184	0.005000	-0.510120	-0.097841	-10.437840	-0.513851	-0.520148	0.760103	-0.016135	-0.043712	-0.001756
788	3.961184	0.005000	-0.588600	-0.058311	-10.398600	-0.515294	-0.521923	0.761342	-0.005036	-0.031291	0.001097
789	3.966184	0.005000	-0.519248	0.009128	-10.368488	-0.516736	-0.523698	0.762581	-0.007570	-0.026399	-0.004069
790	3.971184	0.005000	-0.619108	0.061016	-10.381136	-0.518178	-0.525473	0.763820	-0.006421	-0.010622	-0.011242
791	3.976184	0.005000	-0.549360	-0.016858	-10.362265	-0.519621	-0.527248	0.765059	-0.009881	-0.033806	-0.003408
792	3.981184	0.005000	-0.549360	-0.008020	-10.429820	-0.521063	-0.529024	0.766298	-0.018936	-0.033042	-0.007840
793	3.986184	0.005000	-0.446879	-0.102481	-10.398600	-0.522506	-0.530799	0.767537	-0.012487	-0.040538	0.000860
794	3.991184	0.005000	-0.424037	-0.070877	-10.359360	-0.523948	-0.532574	0.768776	-0.018301	-0.040171	-0.003201
795	3.996184	0.005000	-0.485277	0.032041	-10.366559	-0.525362	-0.534319	0.769990	-0.016792	-0.036891	-0.012640
796	4.001184	0.005000	-0.530493	0.104138	-10.391809	-0.524475	-0.533542	0.769123	-0.024174	-0.038558	-0.003876
797	4.006184	0.005000	-0.503724	0.045636	-10.359360	-0.523588	-0.532766	0.768256	-0.032503	-0.037005	-0.014739
798	4.011184	0.005000	-0.483008	-0.033176	-10.320120	-0.522701	-0.531990	0.767389	-0.014792	-0.036076	-0.008719
799	4.016184	0.005000	-0.470880	-0.033573	-10.381599	-0.521814	-0.531214	0.766522	-0.015424	-0.026096	-0.003297
800	4.021184	0.005000	-0.578092	0.073226	-10.325374	-0.520926	-0.530437	0.765655	0.005047	-0.027691	-0.011286
801	4.026184	0.005000	-0.490246	0.000000	-10.388917	-0.520039	-0.529661	0.764788	0.000199	-0.033550	-0.002761
802	4.031184	0.005000	-0.431640	0.000000	-10.329844	-0.519152	-0.528885	0.763921	-0.017462	-0.036222	-0.015786
803	4.036184	0.005000	-0.461944	-0.078480	-10.359360	-0.518265	-0.528109	0.763054	-0.012577	-0.032154	-0.002860
804	4.041184	0.005000	-0.580479	-0.047361	-10.359360	-0.517378	-0.527332	0.762188	-0.022098	-0.032712	-0.011007
805	4.046184	0.005000	-0.474534	-0.031932	-10.352052	-0.516491	-0.526556	0.761321	-0.007775	-0.037708	-0.010524
806	4.051184	0.005000	-0.516642	-0.081741	-10.359360	-0.515603	-0.525780	0.760454	-0.008605	-0.031036	-0.004770
807	4.056184	0.005000	-0.658517	-0.081334	-10.395746	-0.514716	-0.525004	0.759587	-0.013171	-0.033060	-0.014133
808	4.061184	0.005000	-0.475773	0.031900	-10.391260	-0.513829	-0.524228	0.758720	-0.004688	-0.045495	-0.006466
809	4.066184	0.005000	-0.472959	0.000000	-10.475001	-0.513372	-0.523635	0.758059	-0.003215	-0.023639	-0.013094
810	4.071184	0.005000	-0.546027	0.000000	-10.321787	-0.513261	-0.523191	0.757563	-0.013181	-0.027610	-0.006402
811	4.076184	0.005000	-0.587345	-0.078480	-10.320120	-0.513150	-0.522748	0.757068	-0.018668	-0.027944	-0.005168
812	4.081184	0.005000	-0.510977	-0.116863	-10.434411	-0.513039	-0.522304	0.756572	-0.009003	-0.044722	-0.016469
813	4.086184	0.005000	-0.511045	0.038315	-10.435990	-0.512928	-0.521860	0.756077	-0.006341	-0.037959	0.000373
814	4.091184	0.005000	-0.471398	-0.037170	-10.398600	-0.512817	-0.521416	0.755581	-0.005064	-0.033942	-0.014630
815	4.096184	0.005000	-0.549140	-0.000110	-10.359140	-0.512706	-0.520972	0.755085	-0.005589	-0.033058	-0.015073
816	4.101184	0.005000	-0.588035	0.039522	-10.281727	-0.512595	-0.520528	0.754590	-0.023320	-0.029096	-0.008837
817	4.106184	0.005000	-0.586531	-0.039240	-10.396531	-0.512484	-0.520084	0.754094	-0.017104	-0.045284	-0.007313
818	4.111184	0.005000	-0.394564	-0.037076	-10.361524	-0.512373	-0.519640	0.753599	-0.011696	-0.026279	0.000816
819	4.116184	0.005000	-0.513100	-0.039240	-10.398600	-0.512262	-0.519197	0.753103	-0.002435	-0.047550	-0.016172
820	4.121184	0.005000	-0.513914	-0.082274	-10.245434	-0.512151	-0.518753	0.752608	-0.002874	-0.040837	-0.012038
821	4.126184	0.005000	-0.584020	-0.078480	-10.322410	-0.512040	-0.518309	0.752112	-0.016365	-0.013621	-0.015685
822	4.131184	0.005000	-0.510120	0.036542	-10.393205	-0.511917	-0.517876	0.751667	-0.010586	-0.044273	-0.010711
823	4.136184	0.005000	-0.580647	-0.039240	-10.322771	-0.511696	-0.517544	0.751667	-0.010167	-0.033198	-0.005932
824	4.141184	0.005000	-0.552424	-0.006127	-10.362424	-0.511474	-0.517211	0.751667	-0.000544	-0.054911	-0.011315
825	4.146184	0.005000	-0.624421	-0.078480	-10.402019	-0.511252	-0.516878	0.751667	-0.004713	-0.030809	-0.009176
826	4.151184	0.005000	-0.659426	-0.117720	-10.434013	-0.511030	-0.516546	0.751667	-0.018467	-0.038163	-0.020985
827	4.156184	0.005000	-0.510120	-0.030774	-10.337051	-0.510808	-0.516213	0.751667	-0.011742	-0.025231	-0.016690
828	4.161184	0.005000	-0.536740	0.039240	-10.442047	-0.510587	-0.515880	0.751667	-0.019865	-0.018859	-0.013974
829	4.166184	0.005000	-0.470880	0.034635	-10.329331	-0.510365	-0.515548	0.751667	-0.010460	-0.038077	-0.007954
830	4.171184	0.005000	-0.578568	0.000000	-10.398600	-0.510143	-0.515215	0.751667	-0.013190	-0.029089	-0.004425
831	4.176184	0.005000	-0.426278	0.010723	-10.393238	-0.509921	-0.514882	0.751667	-0.007119	-0.035844	-0.009513
832	4.181184	0.005000	-0.325432	0.033484	-10.387088	-0.509700	-0.514550	0.751667	0.005995	-0.039090	-0.004405
833	4.186184	0.005000	-0.458553	-0.006164	-10.444004	-0.509478	-0.514217	0.751667	-0.004969	-0.037427	-0.012229
834	4.191184	0.005000	-0.451346	-0.039240	-10.398600	-0.509256	-0.513884	0.751667	-0.014377	-0.033076	-0.014364
835	4.196184	0.005000	-0.581637	-0.039240	-10.391637	-0.509034	-0.513552	0.751667	-0.021503	-0.014032	-0.017880
836	4.201184	0.005000	-0.510120	-0.039240	-10.359360	-0.509026	-0.513576	0.751826	-0.018080	-0.028541	-0.009295
837	4.206184	0.005000	-0.549360	-0.039240	-10.437840	-0.509137	-0.513797	0.752074	-0.002096	-0.029942	-0.005665
838	4.211184	0.005000	-0.549360	0.000000	-10.414748	-0.509248	-0.514019	0.752322	-0.004600	-0.027799	-0.010498
839	4.216184	0.005000	-0.549360	-0.093909	-10.460984	-0.509359	-0.514241	0.752569	-0.014065	-0.034512	-0.004953
840	4.221184	0.005000	-0.454657	-0.070368	-10.491985	-0.509470	-0.514463	0.752817	-0.015523	-0.027021	-0.007843
841	4.226184	0.005000	-0.426497	-0.030716	-10.376408	-0.509581	-0.514685	0.753065	-0.005394	-0.043702	-0.019178
842	4.231184	0.005000	-0.501294	0.060827	-10.389774	-0.509692	-0.514906	0.753312	-0.017603	-0.034229	-0.014412
843	4.236184	0.005000	-0.461658	0.000000	-10.310898	-0.509803	-0.515128	0.753560	-0.011658	-0.028859	-0.009474
844	4.241184	0.005000	-0.490868	0.000000	-10.349734	-0.509914	-0.515350	0.753808	-0.016317	-0.036196	-0.004992
845	4.246184	0.005000	-0.451707	-0.029207	-10.388567	-0.510025	-0.515572	0.754055	0.002547	-0.025749	-0.010220
846	4.251184	0.005000	-0.520200	-0.068400	-10.320120	-0.510136	-0.515794	0.754303	-0.001465	-0.043563	-0.014251
847	4.256184	0.005000	-0.460403	-0.049717	-10.330597	-0.510247	-0.516015	0.754551	-0.018435	-0.026965	-0.016516
848	4.261184	0.005000	-0.481769	-0.095941	-10.437840	-0.510358	-0.516237	0.754798	-0.022682	-0.037101	-0.011121
849	4.266184	0.005000	-0.616538	-0.039240	-10.359360	-0.510407	-0.516418	0.754954	-0.020518	-0.034683	-0.009163
850	4.271184	0.005000	-0.627840	-0.062357	-10.421717	-0.510185	-0.516418	0.754706	-0.011326	-0.025837	-0.005068
851	4.276184	0.005000	-0.540753	-0.054557	-10.371322	-0.509963	-0.516418	0.754459	0.006770	-0.028362	-0.007701
852	4.281184	0.005000	-0.561719	0.000000	-10.373883	-0.509741	-0.516418	0.754211	-0.005208	-0.025962	-0.016002
853	4.286184	0.005000	-0.472785	-0.037335	-10.477080	-0.509519	-0.516418	0.753963	-0.006811	-0.034916	-0.014661
854	4.291184	0.005000	-0.470880	-0.104878	-10.385758	-0.509297	-0.516418	0.753715	-0.020943	-0.022232	-0.013265
855	4.296184	0.005000	-0.470880	-0.065225	-10.411855	-0.509076	-0.516418	0.753468	-0.007586	-0.033262	-0.024025
856	4.301184	0.005000	-0.458975	0.000000	-10.384933	-0.508854	-0.516418	0.753220	-0.008508	-0.040966	-0.010734
857	4.306184	0.005000	-0.513073	-0.014064	-10.373424	-0.508632	-0.516418	0.752972	0.010418	-0.037033	-0.019724
858	4.311184	0.005000	-0.588600	0.039240	-10.338070	-0.508410	-0.516418	0.752724	-0.002138	-0.040323	-0.004901
859	4.316184	0.005000	-0.524815	0.039240	-10.432994	-0.508188	-0.516418	0.752477	-0.009863	-0.033598	-0.011963
860	4.321184	0.005000	-0.564463	0.048274	-10.383497	-0.507966	-0.516418	0.752229	-0.009735	-0.036466	-0.013175
861	4.326184	0.005000	-0.573095	-0.039240	-10.437840	-0.507744	-0.516418	0.751981	-0.021428	-0.032156	-0.003279
862	4.331184	0.005000	-0.550395	-0.062577	-10.421937	-0.507522	-0.516418	0.751733	-0.013541	-0.029514	-0.006112
863	4.336184	0.005000	-0.611817	0.000000	-10.437840	-0.507463	-0.516499	0.751576	-0.002307	-0.027055	-0.003020
864	4.341184	0.005000	-0.644269	0.000000	-10.398600	-0.507463	-0.516610	0.751452	-0.006703	-0.033130	-0.010683
865	4.346184	0.005000	-0.588600	0.000000	-10.381758	-0.507463	-0.516721	0.751329	-0.006059	-0.049865	-0.005095
866	4.351184	0.005000	-0.566392	-0.061448	-10.381568	-0.507463	-0.516832	0.751205	-0.013738	-0.028327	-0.009870
867	4.356184	0.005000	-0.527560	0.017440	-10.363720	-0.507463	-0.516943	0.751081	-0.012229	-0.030363	-0.008017
868	4.361184	0.005000	-0.627840	0.082039	-10.398600	-0.507463	-0.517054	0.750957	-0.022622	-0.040722	-0.005803
869	4.366184	0.005000	-0.570360	0.018240	-10.516320	-0.507463	-0.517164	0.750833	-0.005903	-0.031529	-0.006835
870	4.371184	0.005000	-0.530978	0.057622	-10.458698	-0.507463	-0.517275	0.750709	-0.017404	-0.044283	0.002441
871	4.376184	0.005000	-0.431640	-0.020445	-10.359360	-0.507463	-0.517386	0.750585	-0.015935	-0.027090	-0.005750
872	4.381184	0.005000	-0.450022	0.058447	-10.300913	-0.507463	-0.517497	0.750461	-0.004001	-0.044677	-0.002107
873	4.386184	0.005000	-0.529692	0.000032	-10.261212	-0.507463	-0.517608	0.750338	-0.020758	-0.029288	-0.014989
874	4.391184	0.005000	-0.470086	-0.020017	-10.340137	-0.507463	-0.517719	0.750214	-0.019705	-0.022253	-0.021424
875	4.396184	0.005000	-0.431640	-0.039240	-10.419890	-0.507463	-0.517830	0.750090	-0.001366	-0.034817	-0.006270
876	4.401184	0.005000	-0.470880	-0.039240	-10.495743	-0.507524	-0.517910	0.750068	0.001230	-0.032566	-0.006982
877	4.406184	0.005000	-0.491856	0.081192	-10.416864	-0.507746	-0.517910	0.750316	-0.006833	-0.040883	-0.005169
878	4.411184	0.005000	-0.528200	0.138880	-10.401680	-0.507968	-0.517910	0.750564	-0.014973	-0.024929	-0.007130
879	4.416184	0.005000	-0.492452	0.070670	-10.424077	-0.508190	-0.517910	0.750811	-0.012185	-0.032969	-0.009814
880	4.421184	0.005000	-0.466181	-0.009397	-10.442539	-0.508412	-0.517910	0.751059	-0.012295	-0.033638	-0.008247
881	4.426184	0.005000	-0.492985	-0.056375	-10.364330	-0.508633	-0.517910	0.751307	-0.013058	-0.024099	-0.008984
882	4.431184	0.005000	-0.392400	-0.039240	-10.320120	-0.508855	-0.517910	0.751555	-0.020359	-0.045779	-0.008247
883	4.436184	0.005000	-0.470880	0.016326	-10.313533	-0.509077	-0.517910	0.751802	-0.015516	-0.028740	-0.005527
884	4.441184	0.005000	-0.604528	-0.015928	-10.327504	-0.509299	-0.517910	0.752050	-0.014269	-0.040536	-0.011819
885	4.446184	0.005000	-0.580790	0.007810	-10.351550	-0.509521	-0.517910	0.752298	-0.013038	-0.026988	-0.014629
886	4.451184	0.005000	-0.494811	-0.078480	-10.407223	-0.509743	-0.517910	0.752546	-0.017253	-0.025853	-0.014702
887	4.456184	0.005000	-0.534455	-0.039240	-10.364836	-0.509965	-0.517910	0.752793	-0.014834	-0.042027	-0.009183
888	4.461184	0.005000	-0.460626	0.010254	-10.384107	-0.510187	-0.517910	0.753041	-0.013512	-0.025951	-0.013890
889	4.466184	0.005000	-0.406797	-0.014397	-10.427395	-0.510409	-0.517910	0.753289	0.000721	-0.028906	-0.008562
890	4.471184	0.005000	-0.521381	0.011261	-10.412590	-0.510174	-0.517819	0.753333	-0.012076	-0.040346	-0.017641
891	4.476184	0.005000	-0.445232	0.116184	-10.345768	-0.509842	-0.517708	0.753333	-0.008012	-0.039187	-0.017988
892	4.481184	0.005000	-0.405750	0.039240	-10.411140	-0.509509	-0.517597	0.753333	-0.014668	-0.035349	-0.017350
893	4.486184	0.005000	-0.431640	0.012953	-10.464127	-0.509176	-0.517486	0.753333	-0.023414	-0.029855	-0.012614
894	4.491184	0.005000	-0.576060	0.039240	-10.437840	-0.508843	-0.517375	0.753333	-0.022759	-0.037247	-0.005241
895	4.496184	0.005000	-0.535047	-0.012463	-10.371823	-0.508511	-0.517265	0.753333	-0.006956	-0.018977	-0.013065
896	4.501184	0.005000	-0.510120	-0.027179	-10.347299	-0.508178	-0.517154	0.753333	-0.004740	-0.030937	-0.013180
897	4.506184	0.005000	-0.526054	-0.050893	-10.209771	-0.507845	-0.517043	0.753333	-0.003968	-0.040156	-0.010097
898	4.511184	0.005000	-0.537963	-0.027843	-10.336565	-0.507512	-0.516932	0.753333	-0.010349	-0.027955	-0.003239
899	4.516184	0.005000	-0.560345	-0.072194	-10.331105	-0.507180	-0.516821	0.753333	-0.020184	-0.030000	-0.007114
900	4.521184	0.005000	-0.492056	-0.078480	-10.377424	-0.506847	-0.516710	0.753333	-0.020091	-0.021855	-0.010003
901	4.526184	0.005000	-0.481055	-0.068305	-10.291055	-0.506514	-0.516599	0.753333	0.000704	-0.043135	-0.005380
902	4.531184	0.005000	-0.598362	-0.088242	-10.310167	-0.506182	-0.516488	0.753333	-0.014719	-0.042183	-0.003827
903	4.536184	0.005000	-0.520189	-0.107651	-10.280880	-0.505930	-0.516580	0.753333	0.007205	-0.042030	-0.006333
904	4.541184	0.005000	-0.538104	-0.069152	-10.340704	-0.505819	-0.517023	0.753333	0.002459	-0.020721	-0.006168
905	4.546184	0.005000	-0.458737	-0.117720	-10.398600	-0.505708	-0.517467	0.753333	-0.015187	-0.027744	-0.012671
906	4.551184	0.005000	-0.470880	-0.017239	-10.359360	-0.505597	-0.517911	0.753333	0.006553	-0.040424	-0.017847
907	4.556184	0.005000	-0.611395	0.000000	-10.446063	-0.505486	-0.518355	0.753333	-0.023704	-0.023695	-0.007870
908	4.561184	0.005000	-0.549360	-0.101322	-10.421442	-0.505375	-0.518799	0.753333	-0.012403	-0.037206	-0.000669
909	4.566184	0.005000	-0.596392	0.000000	-10.437840	-0.505264	-0.519242	0.753333	-0.020712	-0.044670	-0.000576
910	4.571184	0.005000	-0.382708	0.039240	-10.334894	-0.505153	-0.519686	0.753333	-0.012411	-0.035162	-0.014691
911	4.576184	0.005000	-0.535376	0.032248	-10.405592	-0.505042	-0.520130	0.753333	-0.007128	-0.039039	-0.015359
912	4.581184	0.005000	-0.523294	0.137199	-10.385426	-0.504931	-0.520574	0.753333	-0.019229	-0.030900	-0.012217
913	4.586184	0.005000	-0.516299	0.117720	-10.431661	-0.504820	-0.521018	0.753333	-0.010337	-0.038600	-0.001166
914	4.591184	0.005000	-0.510120	0.045025	-10.304020	-0.504710	-0.521461	0.753333	-0.006668	-0.038052	-0.005621
915	4.596184	0.005000	-0.447974	0.005445	-10.331009	-0.504599	-0.521905	0.753333	0.003487	-0.042177	-0.012568
916	4.601184	0.005000	-0.510120	0.034206	-10.388532	-0.504488	-0.522349	0.753333	-0.010417	-0.032365	-0.011164
917	4.606184	0.005000	-0.578500	-0.034190	-10.393550	-0.504579	-0.522489	0.753333	-0.034390	-0.033418	-0.019327
918	4.611184	0.005000	-0.484848	-0.034584	-10.359360	-0.504690	-0.522600	0.753333	-0.002828	-0.037566	-0.001859
919	4.616184	0.005000	-0.501620	-0.004250	-10.542809	-0.504801	-0.522711	0.753333	-0.014379	-0.017371	-0.011645
920	4.621184	0.005000	-0.557045	-0.046925	-10.477080	-0.504911	-0.522822	0.753333	-0.014769	-0.031593	-0.010907
921	4.626184	0.005000	-0.510120	0.003449	-10.437840	-0.505022	-0.522933	0.753333	-0.011219	-0.031571	-0.007938
922	4.631184	0.005000	-0.500881	-0.036160	-10.437840	-0.505133	-0.523044	0.753333	-0.004999	-0.025142	-0.012082
923	4.636184	0.005000	-0.552043	0.002683	-10.435157	-0.505244	-0.523154	0.753333	-0.005463	-0.034593	-0.005252
924	4.641184	0.005000	-0.547090	0.073940	-10.287690	-0.505355	-0.523265	0.753333	-0.009803	-0.022444	-0.014927
925	4.646184	0.005000	-0.505480	0.000000	-10.359360	-0.505466	-0.523376	0.753333	-0.013395	-0.039256	-0.018244
926	4.651184	0.005000	-0.586687	0.117720	-10.322033	-0.505576	-0.523487	0.753333	-0.016672	-0.021724	-0.007652
927	4.656184	0.005000	-0.434681	0.119241	-10.474039	-0.505687	-0.523598	0.753333	-0.017775	-0.038349	0.000713
928	4.661184	0.005000	-0.468654	0.040353	-10.281993	-0.505798	-0.523709	0.753333	-0.004851	-0.041072	0.003432
929	4.666184	0.005000	-0.432354	0.000000	-10.397886	-0.505909	-0.523820	0.753333	-0.004829	-0.037452	-0.002672
930	4.671184	0.005000	-0.509485	0.038605	-10.398283	-0.506715	-0.524129	0.754109	0.006690	-0.040370	0.003513
931	4.676184	0.005000	-0.548984	0.078104	-10.398976	-0.508378	-0.524684	0.755843	-0.024782	-0.026274	-0.008507
932	4.681184	0.005000	-0.510136	-0.039256	-10.437840	-0.510042	-0.525238	0.757577	-0.012217	-0.026038	-0.013546
933	4.686184	0.005000	-0.548074	-0.038383	-10.437840	-0.511705	-0.525793	0.759311	-0.014443	-0.027389	-0.007842
934	4.691184	0.005000	-0.469229	0.116069	-10.435364	-0.513369	-0.526347	0.761045	-0.011544	-0.032386	-0.013365
935	4.696184	0.005000	-0.511358	0.039240	-10.399838	-0.515032	-0.526902	0.762778	-0.012587	-0.025051	-0.003175
936	4.701184	0.005000	-0.590230	0.040870	-10.437840	-0.516696	-0.527456	0.764512	-0.017352	-0.021661	-0.013876
937	4.706184	0.005000	-0.625817	0.004046	-10.441886	-0.518359	-0.528010	0.766246	-0.005052	-0.031656	-0.019507
938	4.711184	0.005000	-0.620547	0.036809	-10.582645	-0.520023	-0.528565	0.767980	-0.019279	-0.023928	-0.010795
939	4.716184	0.005000	-0.546522	0.036402	-10.395762	-0.521686	-0.529119	0.769713	-0.008890	-0.025090	-0.013031
940	4.721184	0.005000	-0.539668	-0.075249	-10.365822	-0.523350	-0.529674	0.771447	-0.008069	-0.028159	0.006141
941	4.726184	0.005000	-0.392400	-0.036049	-10.398600	-0.525013	-0.530228	0.773181	-0.005830	-0.035316	-0.013668
942	4.731184	0.005000	-0.431640	0.032033	-10.430633	-0.526677	-0.530783	0.774915	-0.012817	-0.032324	-0.020369
943	4.736184	0.005000	-0.580568	0.043256	-10.359360	-0.528340	-0.531337	0.776649	-0.012970	-0.009482	-0.024998
944	4.741184	0.005000	-0.540640	0.000000	-10.398600	-0.528907	-0.531343	0.777035	-0.009232	-0.035217	-0.020970
945	4.746184	0.005000	-0.632606	0.000000	-10.433074	-0.529461	-0.531343	0.777406	-0.015788	-0.035716	-0.010513
946	4.751184	0.005000	-0.549360	0.000000	-10.364533	-0.530016	-0.531343	0.777778	-0.010483	-0.030772	-0.011715
947	4.756184	0.005000	-0.504552	-0.084048	-10.297583	-0.530570	-0.531343	0.778149	-0.002240	-0.044545	-0.001826
948	4.761184	0.005000	-0.431640	-0.044796	-10.331232	-0.531125	-0.531343	0.778521	-0.014353	-0.029675	-0.016440
949	4.766184	0.005000	-0.437609	-0.051177	-10.437840	-0.531679	-0.531343	0.778892	-0.006117	-0.026877	-0.017305
950	4.771184	0.005000	-0.575837	-0.111339	-10.398600	-0.532234	-0.531343	0.779264	-0.006750	-0.015789	-0.022407
951	4.776184	0.005000	-0.581903	-0.045937	-10.340211	-0.532788	-0.531343	0.779635	-0.013153	-0.032872	-0.017196
952	4.781184	0.005000	-0.517222	-0.039240	-10.469978	-0.533343	-0.531343	0.780007	-0.013189	-0.042678	-0.002831
953	4.786184	0.005000	-0.455887	-0.048493	-10.430343	-0.533897	-0.531343	0.780378	-0.017407	-0.034207	-0.012186
954	4.791184	0.005000	-0.478502	0.055049	-10.343833	-0.534452	-0.531343	0.780750	0.001265	-0.031309	-0.008135
955	4.796184	0.005000	-0.439561	0.093957	-10.429919	-0.535007	-0.531343	0.781121	-0.010255	-0.020304	-0.011740
956	4.801184	0.005000	-0.479214	-0.070146	-10.437840	-0.535561	-0.531343	0.781493	-0.019565	-0.023030	-0.020549
957	4.806184	0.005000	-0.475616	0.017252	-10.451202	-0.534937	-0.530636	0.780614	-0.006361	-0.033218	-0.002518
958	4.811184	0.005000	-0.401434	-0.009034	-10.389566	-0.533274	-0.529305	0.778633	-0.020056	-0.035987	-0.007970
959	4.816184	0.005000	-0.412765	0.039240	-10.389162	-0.531610	-0.527975	0.776652	-0.014483	-0.038207	0.001677
960	4.821184	0.005000	-0.480357	-0.098767	-10.299833	-0.529947	-0.526644	0.774670	-0.013783	-0.025553	-0.008609
961	4.826184	0.005000	-0.490635	-0.019755	-10.349483	-0.528283	-0.525313	0.772689	0.005710	-0.030942	-0.012657
962	4.831184	0.005000	-0.598886	-0.028954	-10.349074	-0.526620	-0.523982	0.770707	-0.009620	-0.020083	-0.017027
963	4.836184	0.005000	-0.538661	0.000000	-10.298722	-0.524956	-0.522651	0.768726	-0.012317	-0.042870	-0.012132
964	4.841184	0.005000	-0.470880	-0.006352	-10.291843	-0.523293	-0.521321	0.766744	-0.017309	-0.031913	-0.004228
965	4.846184	0.005000	-0.448139	-0.039240	-10.354232	-0.521629	-0.519990	0.764763	-0.020158	-0.024124	-0.009468
966	4.851184	0.005000	-0.482654	-0.066706	-10.516320	-0.519966	-0.518659	0.762781	-0.001527	-0.035280	0.001145
967	4.856184	0.005000	-0.534461	0.024341	-10.425670	-0.518302	-0.517328	0.760800	-0.006894	-0.036081	-0.016142
968	4.861184	0.005000	-0.561599	-0.051479	-10.437840	-0.516639	-0.515997	0.758818	-0.010999	-0.034588	-0.017237
969	4.866184	0.005000	-0.575949	-0.091131	-10.463143	-0.514975	-0.514667	0.756837	-0.037019	-0.015799	-0.013667
970	4.871184	0.005000	-0.496685	-0.065578	-10.529755	-0.513401	-0.513433	0.754982	-0.020637	-0.019607	-0.021501
971	4.876184	0.005000	-0.588600	-0.000659	-10.503020	-0.512957	-0.513433	0.754734	-0.007861	-0.027350	-0.010677
972	4.881184	0.005000	-0.586718	-0.039240	-10.426015	-0.512513	-0.513433	0.754486	-0.012192	-0.032256	-0.009338
973	4.886184	0.005000	-0.510120	0.039240	-10.434752	-0.512069	-0.513433	0.754239	-0.002881	-0.046506	-0.004934
974	4.891184	0.005000	-0.510120	0.039240	-10.320120	-0.511625	-0.513433	0.753991	-0.011378	-0.034536	-0.005884
975	4.896184	0.005000	-0.485789	-0.014909	-10.408022	-0.511182	-0.513433	0.753743	-0.014189	-0.030190	-0.014975
976	4.901184	0.005000	-0.431640	0.039240	-10.344053	-0.510738	-0.513433	0.753495	-0.015948	-0.036176	-0.000719
977	4.906184	0.005000	-0.510120	0.054669	-10.320120	-0.510294	-0.513433	0.753248	-0.016971	-0.025178	-0.007052
978	4.911184	0.005000	-0.549360	-0.055066	-10.296706	-0.509850	-0.513433	0.753000	-0.003105	-0.042443	-0.004297
979	4.916184	0.005000	-0.579123	-0.046002	-10.320120	-0.509406	-0.513433	0.752752	-0.011718	-0.030058	-0.008172
980	4.921184	0.005000	-0.493468	-0.033303	-10.353423	-0.508963	-0.513433	0.752504	-0.003377	-0.038963	-0.008014
981	4.926184	0.005000	-0.532312	0.000000	-10.454888	-0.508519	-0.513433	0.752256	-0.017303	-0.022788	-0.005007
982	4.931184	0.005000	-0.549360	-0.017461	-10.455301	-0.508075	-0.513433	0.752009	-0.023312	-0.027499	-0.010521
983	4.936184	0.005000	-0.627840	0.043192	-10.398600	-0.507631	-0.513433	0.751761	-0.013713	-0.034587	-0.001305
984	4.941184	0.005000	-0.588600	-0.021188	-10.440977	-0.507601	-0.513640	0.751359	-0.013871	-0.018655	-0.013043
985	4.946184	0.005000	-0.452428	0.020788	-10.398600	-0.507822	-0.513972	0.750864	-0.006601	-0.035849	-0.008407
986	4.951184	0.005000	-0.489732	-0.037703	-10.340508	-0.508044	-0.514305	0.750369	-0.019283	-0.022403	-0.007775
987	4.956184	0.005000	-0.470159	-0.078480	-10.319399	-0.508266	-0.514637	0.749873	-0.015252	-0.043977	-0.019568
988	4.961184	0.005000	-0.490706	-0.040065	-10.398187	-0.508488	-0.514970	0.749378	-0.010442	-0.022120	0.000976
989	4.966184	0.005000	-0.431640	0.097894	-10.260641	-0.508710	-0.515303	0.748883	-0.021290	-0.014855	-0.014854
990	4.971184	0.005000	-0.491103	0.039240	-10.301103	-0.508931	-0.515635	0.748387	0.001021	-0.030577	0.000507
991	4.976184	0.005000	-0.470880	-0.041272	-10.342788	-0.509153	-0.515968	0.747892	-0.012088	-0.022619	0.000057
992	4.981184	0.005000	-0.512456	0.000000	-10.400936	-0.509375	-0.516301	0.747396	0.001698	-0.028580	0.001245
993	4.986184	0.005000	-0.546223	0.057292	-10.395463	-0.509597	-0.516633	0.746901	-0.017191	-0.022380	-0.014475
994	4.991184	0.005000	-0.506185	-0.043175	-10.420187	-0.509819	-0.516966	0.746406	-0.004990	-0.034450	-0.024604
995	4.996184	0.005000	-0.522615	-0.051735	-10.376605	-0.510040	-0.517299	0.745910	-0.011539	-0.042265	-0.008086
996	5.001184	0.005000	-0.549360	-0.084032	-10.404152	-0.510262	-0.517631	0.745415	-0.012848	-0.036002	-0.008964
997	5.006184	0.005000	-0.588600	-0.045177	-10.336772	-0.510376	-0.517946	0.745081	-0.009712	-0.029628	-0.002226
998	5.011184	0.005000	-0.510120	-0.101481	-10.405362	-0.509932	-0.518168	0.745576	-0.008079	-0.030883	-0.011133
999	5.016184	0.005000	-0.486996	-0.023124	-10.414716	-0.509489	-0.518390	0.746071	-0.000273	-0.042925	-0.009568
1000	5.021184	0.005000	-0.572885	0.054955	-10.437840	-0.509045	-0.518612	0.746567	-0.012208	-0.040497	-0.010480
1001	5.026184	0.005000	-0.525437	0.006710	-10.422523	-0.508601	-0.518834	0.747062	-0.024147	-0.031938	-0.012915
1002	5.031184	0.005000	-0.564275	-0.039240	-10.413515	-0.508158	-0.519055	0.747557	-0.007929	-0.038570	-0.007006
1003	5.036184	0.005000	-0.499894	0.024733	-10.423333	-0.507714	-0.519277	0.748053	-0.002381	-0.032198	-0.013073
1004	5.041184	0.005000	-0.456594	0.000000	-10.412886	-0.507271	-0.519499	0.748548	-0.009593	-0.039579	-0.007644
1005	5.046184	0.005000	-0.572345	-0.053114	-10.373234	-0.506827	-0.519721	0.749044	-0.011956	-0.031798	-0.002270
1006	5.051184	0.005000	-0.537692	-0.064694	-10.412386	-0.506384	-0.519943	0.749539	-0.010206	-0.020082	-0.011556
1007	5.056184	0.005000	-0.457502	0.025862	-10.268396	-0.505940	-0.520165	0.750034	-0.014804	-0.032349	-0.003737
1008	5.061184	0.005000	-0.627840	0.065499	-10.267899	-0.505496	-0.520387	0.750530	-0.018123	-0.028724	-0.013135
1009	5.066184	0.005000	-0.549360	0.053018	-10.437840	-0.505053	-0.520609	0.751025	-0.003172	-0.033770	0.006790
1010	5.071184	0.005000	-0.401841	0.066310	-10.437840	-0.504609	-0.520830	0.751521	-0.015655	-0.032973	-0.005257
1011	5.076184	0.005000	-0.486278	-0.054638	-10.410521	-0.504790	-0.520662	0.751841	-0.001203	-0.037648	-0.011066
1012	5.081184	0.005000	-0.459372	-0.062257	-10.387092	-0.505234	-0.520329	0.752089	-0.013410	-0.028739	-0.008901
1013	5.086184	0.005000	-0.431640	-0.061463	-10.359360	-0.505678	-0.519996	0.752337	-0.032978	-0.034650	-0.021762
1014	5.091184	0.005000	-0.410242	-0.039240	-10.387901	-0.506121	-0.519663	0.752584	-0.017449	-0.030988	-0.008075
1015	5.096184	0.005000	-0.528070	-0.039240	-10.291525	-0.506565	-0.519331	0.752832	-0.014856	-0.025000	-0.007552
1016	5.101184	0.005000	-0.499879	-0.039240	-10.359360	-0.507008	-0.518998	0.753080	0.000325	-0.036841	-0.006696
1017	5.106184	0.005000	-0.549360	-0.088184	-10.388755	-0.507452	-0.518665	0.753327	-0.021621	-0.036388	-0.003668
1018	5.111184	0.005000	-0.459953	-0.147522	-10.359360	-0.507896	-0.518333	0.753575	-0.016089	-0.038726	-0.011990
1019	5.116184	0.005000	-0.540217	-0.108577	-10.368503	-0.508339	-0.518000	0.753823	-0.005691	-0.040344	-0.004744
1020	5.121184	0.005000	-0.549360	-0.108974	-10.468334	-0.508783	-0.517667	0.754070	-0.017222	-0.029422	-0.017958
1021	5.126184	0.005000	-0.501786	-0.055907	-10.446174	-0.509226	-0.517334	0.754318	-0.004084	-0.024644	-0.003674
1022	5.131184	0.005000	-0.588600	-0.023398	-10.320120	-0.509670	-0.517002	0.754566	-0.005331	-0.042497	0.000736
1023	5.136184	0.005000	-0.510120	-0.070576	-10.343551	-0.510114	-0.516669	0.754813	-0.008652	-0.032422	-0.002954
1024	5.141184	0.005000	-0.431640	-0.125229	-10.366869	-0.510366	-0.516473	0.754817	-0.004037	-0.026531	-0.007257
1025	5.146184	0.005000	-0.392400	-0.124911	-10.469889	-0.510033	-0.516694	0.754074	0.005286	-0.029839	-0.009086
1026	5.151184	0.005000	-0.464102	-0.052796	-10.483858	-0.509701	-0.516916	0.753331	-0.009814	-0.036554	-0.010890
1027	5.156184	0.005000	-0.497357	-0.006381	-10.404981	-0.509368	-0.517138	0.752588	-0.027215	-0.026150	-0.008148
1028	5.161184	0.005000	-0.498183	0.027303	-10.353391	-0.509035	-0.517360	0.751845	-0.011050	-0.037618	-0.000681
1029	5.166184	0.005000	-0.499008	-0.028128	-10.370472	-0.508702	-0.517582	0.751102	-0.010847	-0.032203	-0.001472
1030	5.171184	0.005000	-0.465721	0.005159	-10.471921	-0.508370	-0.517803	0.750359	-0.009663	-0.034213	-0.014294
1031	5.176184	0.005000	-0.426894	-0.043986	-10.403346	-0.508037	-0.518025	0.749616	-0.003433	-0.027853	-0.004451
1032	5.181184	0.005000	-0.480416	0.108184	-10.398600	-0.507704	-0.518247	0.748873	-0.007476	-0.017570	-0.022842
1033	5.186184	0.005000	-0.510120	0.000000	-10.368080	-0.507372	-0.518469	0.748130	-0.013095	-0.040762	-0.006600
1034	5.191184	0.005000	-0.580667	-0.070547	-10.429907	-0.507039	-0.518691	0.747387	-0.024838	-0.021679	0.000830
1035	5.196184	0.005000	-0.545800	0.067800	-10.370040	-0.506706	-0.518912	0.746644	-0.005257	-0.027675	-0.001866
1036	5.201184	0.005000	-0.598057	0.006305	-10.401752	-0.506373	-0.519134	0.745901	-0.006097	-0.036066	-0.005492
1037	5.206184	0.005000	-0.431640	-0.070099	-10.507939	-0.506041	-0.519356	0.745158	-0.017309	-0.034880	-0.011444
1038	5.211184	0.005000	-0.544598	-0.080861	-10.403362	-0.506319	-0.519578	0.745780	-0.016774	-0.036069	-0.009827
1039	5.216184	0.005000	-0.623872	-0.074512	-10.359360	-0.506763	-0.519800	0.746771	-0.020778	-0.016130	-0.004879
1040	5.221184	0.005000	-0.510120	-0.002023	-10.361383	-0.507207	-0.520021	0.747762	-0.006080	-0.037234	-0.010268
1041	5.226184	0.005000	-0.469250	-0.075219	-10.357730	-0.507650	-0.520243	0.748753	-0.002016	-0.040378	0.001102
1042	5.231184	0.005000	-0.508897	-0.079703	-10.358137	-0.508094	-0.520465	0.749743	-0.005803	-0.048118	-0.016790
1043	5.236184	0.005000	-0.509289	-0.156960	-10.514658	-0.508537	-0.520687	0.750734	-0.011219	-0.036779	-0.010266
1044	5.241184	0.005000	-0.470880	-0.000857	-10.399457	-0.508981	-0.520909	0.751725	-0.021863	-0.018842	-0.009689
1045	5.246184	0.005000	-0.510120	0.078448	-10.359376	-0.509425	-0.521130	0.752715	-0.010549	-0.026717	-0.007920
1046	5.251184	0.005000	-0.549736	0.077727	-10.397847	-0.509868	-0.521352	0.753706	-0.014449	-0.025484	-0.002983
1047	5.256184	0.005000	-0.508552	-0.078480	-10.320904	-0.510312	-0.521574	0.754697	-0.011757	-0.037393	-0.008418
1048	5.261184	0.005000	-0.473023	-0.078480	-10.319406	-0.510755	-0.521796	0.755687	-0.003354	-0.044013	-0.008540
1049	5.266184	0.005000	-0.548233	0.001127	-10.360487	-0.511199	-0.522018	0.756678	-0.013915	-0.035883	-0.015345
1050	5.271184	0.005000	-0.510120	0.037716	-10.286976	-0.511643	-0.522239	0.757669	-0.009620	-0.033248	-0.008933
1051	5.276184	0.005000	-0.547423	-0.113847	-10.433967	-0.511830	-0.522132	0.758170	-0.015733	-0.028111	-0.013129
1052	5.281184	0.005000	-0.549360	-0.039240	-10.405561	-0.511498	-0.521356	0.757674	-0.013568	-0.037427	-0.002761
1053	5.286184	0.005000	-0.546647	0.002713	-10.437840	-0.511165	-0.520579	0.757179	-0.009797	-0.029324	0.000937
1054	5.291184	0.005000	-0.546240	0.042360	-10.437840	-0.510832	-0.519803	0.756684	-0.000178	-0.044056	-0.012465
1055	5.296184	0.005000	-0.467353	-0.014109	-10.320120	-0.510500	-0.519027	0.756188	-0.012509	-0.034633	-0.014639
1056	5.301184	0.005000	-0.470880	-0.074559	-10.320120	-0.510167	-0.518250	0.755693	-0.009823	-0.021113	-0.013646
1057	5.306184	0.005000	-0.510120	0.004327	-10.363687	-0.509834	-0.517474	0.755198	-0.004875	-0.028785	-0.011240
1058	5.311184	0.005000	-0.483785	0.039240	-10.315818	-0.509502	-0.516698	0.754703	-0.014300	-0.027638	-0.008296
1059	5.316184	0.005000	-0.558789	-0.004715	-10.398600	-0.509169	-0.515921	0.754207	-0.007513	-0.030287	-0.010286
1060	5.321184	0.005000	-0.544249	-0.044351	-10.315009	-0.508836	-0.515145	0.753712	-0.014624	-0.040883	0.002989
1061	5.326184	0.005000	-0.476404	-0.078480	-10.359360	-0.508504	-0.514369	0.753217	-0.007055	-0.028711	-0.010940
1062	5.331184	0.005000	-0.453330	-0.072630	-10.392750	-0.508171	-0.513592	0.752721	-0.006363	-0.016444	-0.011201
1063	5.336184	0.005000	-0.510120	-0.006258	-10.346845	-0.507838	-0.512816	0.752226	-0.017001	-0.030342	-0.016348
1064	5.341184	0.005000	-0.392400	-0.045494	-10.293389	-0.507506	-0.512040	0.751731	-0.015758	-0.035292	-0.009381
1065	5.346184	0.005000	-0.470880	-0.045907	-10.463746	-0.509203	-0.513777	0.753934	-0.022773	-0.030776	-0.000067
