# FOX Logger (IMU file)
# (c) INRIA 2011-2014
# File created from file sensbiotk output
#
# File format:
# id	t	dt	ax	ay	az	mx	my	mz	gx	gy	gz
#
# Units:
#	Time: s
#\Acceleration: m.s^-2
#\Magneto: gauss
#\Gyrometer: rad/s
#
1	0.049469	0.049469	-0.230357	-0.191117	-10.202400	-0.235821	-0.331343	1.326667	0.028914	-0.012726	-0.006110
2	0.054469	0.005000	-0.196200	-0.232715	-10.090130	-0.235601	-0.331233	1.326790	0.029068	-0.007509	0.004435
3	0.059469	0.005000	-0.273909	-0.156189	-10.278566	-0.235382	-0.331123	1.326912	0.023976	-0.009940	-0.005350
4	0.064469	0.005000	-0.235440	-0.155337	-10.087926	-0.235162	-0.331014	1.327035	0.026902	-0.015347	0.008678
5	0.069469	0.005000	-0.270686	-0.192206	-10.194413	-0.234943	-0.330904	1.327157	0.016216	-0.012164	0.003179
6	0.074469	0.005000	-0.174912	-0.229456	-10.280880	-0.234723	-0.330794	1.327280	0.012215	-0.007253	0.006793
7	0.079469	0.005000	-0.219585	-0.219585	-10.100535	-0.234503	-0.330684	1.327402	0.008368	-0.016677	0.001317
8	0.084469	0.005000	-0.245311	-0.235440	-10.055066	-0.234284	-0.330575	1.327525	0.012030	-0.013742	-0.007328
9	0.089469	0.005000	-0.208479	-0.154556	-10.256322	-0.234064	-0.330465	1.327648	-0.002945	-0.013436	0.007100
10	0.094469	0.005000	-0.260173	-0.127946	-10.280880	-0.233845	-0.330355	1.327770	0.015594	-0.015180	0.009394
11	0.099469	0.005000	-0.235440	-0.179573	-10.252281	-0.233625	-0.330245	1.327893	0.033236	-0.014135	0.008384
12	0.104469	0.005000	-0.215238	-0.177162	-10.240477	-0.233405	-0.330136	1.328015	0.027768	-0.016074	0.002872
13	0.109469	0.005000	-0.217182	-0.177942	-10.165884	-0.233186	-0.330026	1.328138	0.005497	-0.013265	0.003962
14	0.114469	0.005000	-0.227892	-0.117720	-10.147314	-0.232966	-0.329916	1.328260	-0.000265	-0.007809	0.001485
15	0.119469	0.005000	-0.329622	-0.103984	-10.188664	-0.232791	-0.329940	1.328083	0.001497	-0.008863	0.004150
16	0.124469	0.005000	-0.274680	-0.140707	-10.146907	-0.232681	-0.330160	1.327471	-0.003289	-0.014880	0.017778
17	0.129469	0.005000	-0.217282	-0.048319	-10.268877	-0.232572	-0.330379	1.326858	0.001581	-0.010394	0.002731
18	0.134469	0.005000	-0.156960	-0.092579	-10.273831	-0.232462	-0.330599	1.326245	0.006427	-0.008858	0.004118
19	0.139469	0.005000	-0.043969	-0.230711	-10.232182	-0.232352	-0.330818	1.325632	0.001159	-0.010966	0.008233
20	0.144469	0.005000	-0.156960	-0.109461	-10.121167	-0.232242	-0.331038	1.325019	-0.010014	0.006214	0.003220
21	0.149469	0.005000	-0.234705	-0.078847	-10.123553	-0.232133	-0.331257	1.324407	-0.022578	-0.001516	0.000309
22	0.154469	0.005000	-0.231416	-0.154948	-10.010224	-0.232023	-0.331477	1.323794	-0.033794	-0.003576	-0.010749
23	0.159469	0.005000	-0.196200	-0.164921	-10.119939	-0.231913	-0.331696	1.323181	-0.042314	-0.006289	0.002404
24	0.164469	0.005000	-0.222671	-0.039240	-10.352976	-0.231803	-0.331916	1.322568	-0.027244	-0.004468	-0.000602
25	0.169469	0.005000	-0.135116	0.008698	-10.289578	-0.231693	-0.332136	1.321956	-0.021390	0.001650	0.005546
26	0.174469	0.005000	-0.185456	0.096233	-10.270136	-0.231584	-0.332355	1.321343	0.004829	-0.003724	0.007506
27	0.179469	0.005000	-0.156960	0.039454	-10.306969	-0.231474	-0.332575	1.320730	0.021351	-0.010507	-0.011312
28	0.184469	0.005000	-0.243911	-0.117720	-10.200842	-0.231364	-0.332794	1.320117	0.014133	-0.003791	-0.001804
29	0.189469	0.005000	-0.252948	-0.121944	-10.167384	-0.232408	-0.333191	1.321586	0.015889	-0.011518	0.007013
30	0.194469	0.005000	-0.216716	-0.079077	-10.262156	-0.233725	-0.333630	1.323547	0.004601	-0.008817	-0.004574
31	0.199469	0.005000	-0.156960	-0.044141	-10.084680	-0.235043	-0.334069	1.325508	0.021339	-0.009923	-0.003557
32	0.204469	0.005000	-0.220472	-0.044903	-10.133225	-0.236360	-0.334508	1.327469	0.040449	-0.015369	0.002818
33	0.209469	0.005000	-0.209693	-0.091353	-10.110427	-0.237677	-0.334947	1.329430	0.027794	-0.012509	0.009671
34	0.214469	0.005000	-0.175234	-0.096754	-10.202400	-0.238994	-0.335386	1.331391	0.024319	-0.014904	-0.005139
35	0.219469	0.005000	-0.204403	-0.140554	-10.202400	-0.240311	-0.335825	1.333352	0.012828	-0.014445	-0.001327
36	0.224469	0.005000	-0.183826	-0.105346	-10.229266	-0.241628	-0.336264	1.335313	0.015890	-0.019328	-0.002079
37	0.229469	0.005000	-0.164646	-0.156960	-10.167003	-0.242945	-0.336703	1.337274	0.004896	-0.007525	-0.006492
38	0.234469	0.005000	-0.236879	-0.162717	-10.161721	-0.244262	-0.337142	1.339235	-0.002628	-0.011051	0.005109
39	0.239469	0.005000	-0.158475	-0.313920	-10.240125	-0.245579	-0.337581	1.341196	-0.028755	0.001222	0.002440
40	0.244469	0.005000	-0.271806	-0.316794	-10.353612	-0.246897	-0.338020	1.343157	-0.066236	-0.007200	0.003672
41	0.249469	0.005000	-0.201053	-0.166667	-10.256200	-0.248214	-0.338459	1.345118	-0.083660	-0.009178	0.001272
42	0.254469	0.005000	-0.252871	-0.188930	-10.163160	-0.249093	-0.338829	1.346409	-0.094478	-0.013468	0.001077
43	0.259469	0.005000	-0.166173	-0.186987	-10.133133	-0.248324	-0.338939	1.345184	-0.066037	-0.008767	0.006288
44	0.264469	0.005000	-0.263060	-0.062481	-10.214020	-0.247556	-0.339049	1.343958	-0.053765	-0.008864	-0.006215
45	0.269469	0.005000	-0.221568	-0.013872	-10.112423	-0.246788	-0.339158	1.342732	-0.042152	-0.015273	0.006106
46	0.274469	0.005000	-0.196200	0.000000	-10.209685	-0.246019	-0.339268	1.341507	-0.022218	0.002459	-0.003360
47	0.279469	0.005000	-0.212123	0.080945	-10.142308	-0.245251	-0.339378	1.340281	-0.021306	-0.011533	0.000769
48	0.284469	0.005000	-0.155536	0.059572	-10.202400	-0.244483	-0.339488	1.339056	-0.005984	-0.009933	0.006290
49	0.289469	0.005000	-0.156960	0.055738	-10.225142	-0.243714	-0.339598	1.337830	-0.009553	-0.012560	0.001641
50	0.294469	0.005000	-0.171346	0.117720	-10.291348	-0.242946	-0.339707	1.336604	0.002941	-0.015004	0.003530
51	0.299469	0.005000	-0.171918	0.120537	-10.175301	-0.242178	-0.339817	1.335379	0.026949	-0.008354	0.001218
52	0.304469	0.005000	-0.186463	-0.029212	-10.153423	-0.241409	-0.339927	1.334153	0.039725	-0.005318	0.004332
53	0.309469	0.005000	-0.188500	-0.117720	-10.163160	-0.240641	-0.340037	1.332927	0.029624	-0.000507	-0.000205
54	0.314469	0.005000	-0.224666	-0.151573	-10.225479	-0.239873	-0.340147	1.331702	0.015426	-0.004311	-0.003129
55	0.319469	0.005000	-0.114316	-0.081884	-10.205804	-0.239104	-0.340256	1.330476	0.010195	-0.010434	0.000133
56	0.324469	0.005000	-0.078480	0.040266	-10.162134	-0.238403	-0.339963	1.329775	-0.001169	-0.000569	0.003375
57	0.329469	0.005000	-0.154237	0.078480	-10.199677	-0.237745	-0.339415	1.329407	-0.002442	-0.009160	0.000609
58	0.334469	0.005000	-0.160282	-0.071835	-10.205722	-0.237086	-0.338866	1.329040	0.008259	-0.003560	-0.000877
59	0.339469	0.005000	-0.196200	-0.111981	-10.208139	-0.236428	-0.338317	1.328672	-0.006798	-0.014449	0.000039
60	0.344469	0.005000	-0.173055	-0.102623	-10.140015	-0.235769	-0.337768	1.328304	-0.030168	-0.012292	0.005494
61	0.349469	0.005000	-0.235440	-0.117720	-10.154188	-0.235111	-0.337219	1.327937	-0.051321	-0.008453	-0.007323
62	0.354469	0.005000	-0.103198	-0.066121	-10.241640	-0.234452	-0.336671	1.327569	-0.052184	-0.006734	-0.001444
63	0.359469	0.005000	-0.107374	-0.103273	-10.280880	-0.233794	-0.336122	1.327201	-0.035641	-0.004163	-0.008439
64	0.364469	0.005000	-0.184870	-0.061623	-10.280880	-0.233135	-0.335573	1.326834	-0.013992	-0.010633	-0.000821
65	0.369469	0.005000	-0.195496	-0.078480	-10.320824	-0.232477	-0.335024	1.326466	-0.010174	-0.009059	-0.008962
66	0.374469	0.005000	-0.196200	-0.178165	-10.305254	-0.231818	-0.334475	1.326098	-0.013616	-0.005755	-0.002239
67	0.379469	0.005000	-0.227451	-0.125709	-10.210389	-0.231159	-0.333926	1.325731	-0.020949	-0.010750	0.000383
68	0.384469	0.005000	-0.313920	-0.143278	-10.149478	-0.230501	-0.333378	1.325363	-0.006863	-0.009130	-0.019198
69	0.389469	0.005000	-0.252143	-0.078480	-10.230372	-0.229855	-0.332835	1.324997	-0.019243	-0.012513	0.003667
70	0.394469	0.005000	-0.096905	-0.069268	-10.153948	-0.230185	-0.332725	1.324752	0.001583	-0.004625	-0.003692
71	0.399469	0.005000	-0.156960	-0.053075	-10.209318	-0.230514	-0.332615	1.324507	-0.016644	-0.015016	0.005251
72	0.404469	0.005000	-0.161461	-0.009002	-10.206901	-0.230843	-0.332505	1.324262	-0.028090	-0.015055	-0.000595
73	0.409469	0.005000	-0.110050	-0.075923	-10.210070	-0.231172	-0.332395	1.324016	-0.027501	-0.004388	-0.005086
74	0.414469	0.005000	-0.117567	-0.039087	-10.202400	-0.231501	-0.332286	1.323771	-0.033109	-0.012890	0.004948
75	0.419469	0.005000	-0.153377	0.000000	-10.277297	-0.231831	-0.332176	1.323526	-0.017399	-0.009768	-0.000618
76	0.424469	0.005000	-0.231280	0.074320	-10.202400	-0.232160	-0.332066	1.323281	-0.008374	-0.013795	0.011394
77	0.429469	0.005000	-0.196200	-0.033088	-10.202400	-0.232489	-0.331956	1.323036	-0.017734	-0.004777	0.011088
78	0.434469	0.005000	-0.196200	-0.056357	-10.171718	-0.232818	-0.331846	1.322791	-0.030316	-0.005410	0.001414
79	0.439469	0.005000	-0.146457	0.010503	-10.191897	-0.233148	-0.331737	1.322546	-0.011128	-0.020793	-0.001722
80	0.444469	0.005000	-0.235440	-0.039240	-10.255067	-0.233477	-0.331627	1.322301	-0.022316	-0.000061	-0.002775
81	0.449469	0.005000	-0.196200	0.000000	-10.232685	-0.233806	-0.331517	1.322056	-0.031452	-0.012817	0.000914
82	0.454469	0.005000	-0.139697	0.029813	-10.189851	-0.234135	-0.331407	1.321811	-0.027489	-0.003334	-0.010855
83	0.459469	0.005000	-0.196200	-0.019566	-10.222074	-0.234328	-0.331388	1.321819	-0.024889	0.004346	0.004220
84	0.464469	0.005000	-0.135131	-0.030663	-10.145749	-0.234328	-0.331498	1.322187	-0.019931	-0.006033	-0.005420
85	0.469469	0.005000	-0.244255	-0.006397	-10.178372	-0.234328	-0.331608	1.322555	-0.006503	-0.005826	-0.009035
86	0.474469	0.005000	-0.196200	0.039134	-10.176275	-0.234328	-0.331718	1.322922	-0.002843	-0.011376	-0.003942
87	0.479469	0.005000	-0.156960	-0.089335	-10.298410	-0.234328	-0.331828	1.323290	-0.009628	-0.012380	-0.001981
88	0.484469	0.005000	-0.196200	-0.109272	-10.258536	-0.234328	-0.331937	1.323658	-0.026850	-0.006821	-0.006262
89	0.489469	0.005000	-0.229011	-0.117720	-10.332978	-0.234328	-0.332047	1.324025	-0.053550	-0.009367	-0.004681
90	0.494469	0.005000	-0.188024	0.004088	-10.241640	-0.234328	-0.332157	1.324393	-0.062418	-0.003610	-0.003407
91	0.499469	0.005000	-0.042607	0.003367	-10.272463	-0.234328	-0.332267	1.324761	-0.055952	-0.017756	0.007180
92	0.504469	0.005000	-0.156700	0.117460	-10.123660	-0.234328	-0.332377	1.325128	-0.051821	-0.009699	-0.003991
93	0.509469	0.005000	-0.078480	0.083775	-10.163160	-0.234328	-0.332486	1.325496	-0.031022	-0.014880	0.002401
94	0.514469	0.005000	-0.186956	0.043862	-10.119298	-0.234328	-0.332596	1.325864	0.001654	-0.011253	-0.002755
95	0.519469	0.005000	-0.196200	0.014055	-10.130947	-0.234328	-0.332706	1.326232	0.012418	-0.012632	-0.006031
96	0.524469	0.005000	-0.214837	-0.039240	-10.223003	-0.234328	-0.332816	1.326599	0.021755	-0.005651	0.001443
97	0.529469	0.005000	-0.196200	-0.022751	-10.230265	-0.233970	-0.332836	1.326667	0.011645	-0.007854	0.002622
98	0.534469	0.005000	-0.156960	0.025451	-10.086807	-0.233531	-0.332836	1.326667	0.020376	-0.010853	0.005694
99	0.539469	0.005000	-0.251445	-0.069706	-10.177622	-0.233092	-0.332836	1.326667	0.008864	-0.006416	0.002613
100	0.544469	0.005000	-0.175103	-0.138817	-10.202400	-0.232653	-0.332836	1.326667	0.001704	-0.013198	-0.007571
101	0.549469	0.005000	-0.194333	-0.216754	-10.237906	-0.232214	-0.332836	1.326667	-0.013520	-0.015326	-0.005742
102	0.554469	0.005000	-0.185212	-0.134463	-10.247394	-0.231775	-0.332836	1.326667	-0.028991	-0.004061	-0.005451
103	0.559469	0.005000	-0.224861	-0.064150	-10.280880	-0.231336	-0.332836	1.326667	-0.042236	-0.013783	0.002537
104	0.564469	0.005000	-0.247678	-0.014764	-10.401126	-0.230897	-0.332836	1.326667	-0.048868	-0.003536	-0.002519
105	0.569469	0.005000	-0.166938	-0.019283	-10.202400	-0.230458	-0.332836	1.326667	-0.033048	-0.008858	0.004884
106	0.574469	0.005000	-0.188637	0.102594	-10.218950	-0.230019	-0.332836	1.326667	-0.026190	-0.002408	0.001664
107	0.579469	0.005000	-0.229888	0.117720	-10.163160	-0.229580	-0.332836	1.326667	-0.012745	-0.008766	0.013356
108	0.584469	0.005000	-0.192986	0.039240	-10.051868	-0.229141	-0.332836	1.326667	-0.003566	-0.009523	0.000255
109	0.589469	0.005000	-0.156960	-0.000796	-10.241640	-0.228702	-0.332836	1.326667	0.003573	-0.004468	-0.007827
110	0.594469	0.005000	-0.233174	-0.001133	-10.241640	-0.228334	-0.332860	1.326667	-0.001350	-0.013870	0.001238
111	0.599469	0.005000	-0.306901	-0.032221	-10.202400	-0.228224	-0.332970	1.326667	-0.014966	-0.004267	-0.001978
112	0.604469	0.005000	-0.313920	-0.112226	-10.157666	-0.228115	-0.333079	1.326667	-0.025944	-0.003928	0.004954
113	0.609469	0.005000	-0.133520	-0.047140	-10.233740	-0.228005	-0.333189	1.326667	-0.024414	-0.006935	-0.001506
114	0.614469	0.005000	-0.215049	0.058089	-10.163160	-0.227895	-0.333299	1.326667	-0.025833	-0.004271	-0.005301
115	0.619469	0.005000	-0.235440	0.066221	-10.123920	-0.227786	-0.333408	1.326667	-0.030947	-0.009918	-0.002576
116	0.624469	0.005000	-0.181708	0.000000	-10.212656	-0.227676	-0.333518	1.326667	-0.032147	0.000544	-0.007598
117	0.629469	0.005000	-0.218828	0.022628	-10.101292	-0.227566	-0.333628	1.326667	-0.032068	-0.005756	-0.000572
118	0.634469	0.005000	-0.254463	0.098697	-10.085874	-0.227456	-0.333738	1.326667	-0.016775	-0.010412	-0.010982
119	0.639469	0.005000	-0.132666	0.114604	-10.153811	-0.227347	-0.333847	1.326667	-0.007792	-0.008763	0.005341
120	0.644469	0.005000	-0.172821	0.015035	-10.218261	-0.227237	-0.333957	1.326667	0.006085	-0.006109	0.002566
121	0.649469	0.005000	-0.143508	0.001117	-10.213618	-0.227127	-0.334067	1.326667	0.006382	-0.001315	0.009144
122	0.654469	0.005000	-0.257517	0.000000	-10.152121	-0.227018	-0.334176	1.326667	0.005378	-0.013499	0.005252
123	0.659469	0.005000	-0.217252	-0.069386	-10.193306	-0.226908	-0.334286	1.326667	-0.005200	-0.006631	-0.003670
124	0.664469	0.005000	-0.196200	-0.025859	-10.241640	-0.227002	-0.334464	1.326440	0.002102	-0.001186	0.003144
125	0.669469	0.005000	-0.226061	0.069101	-10.207089	-0.227221	-0.334683	1.326072	0.018660	-0.006610	-0.009451
126	0.674469	0.005000	-0.159302	0.041582	-10.167843	-0.227441	-0.334903	1.325704	0.038438	-0.000878	0.007685
127	0.679469	0.005000	-0.235364	0.117644	-10.241640	-0.227660	-0.335122	1.325337	0.038352	-0.005480	0.012997
128	0.684469	0.005000	-0.161000	0.117720	-10.129980	-0.227880	-0.335342	1.324969	0.042201	-0.007993	-0.002132
129	0.689469	0.005000	-0.226591	0.091754	-10.276455	-0.228099	-0.335561	1.324601	0.047610	-0.016782	0.003931
130	0.694469	0.005000	-0.242202	0.078480	-10.267356	-0.228319	-0.335781	1.324234	0.060381	-0.006961	0.009005
131	0.699469	0.005000	-0.305135	0.000000	-10.123920	-0.228538	-0.336000	1.323866	0.063521	-0.004104	0.002234
132	0.704469	0.005000	-0.257823	-0.028048	-10.269688	-0.228758	-0.336220	1.323498	0.066934	-0.011470	-0.000515
133	0.709469	0.005000	-0.196200	-0.052688	-10.190056	-0.228977	-0.336439	1.323130	0.060070	-0.007851	0.009663
134	0.714469	0.005000	-0.180651	-0.022956	-10.178709	-0.229197	-0.336659	1.322763	0.047229	-0.017446	0.007719
135	0.719469	0.005000	-0.253399	0.060521	-10.138557	-0.229416	-0.336878	1.322395	0.033449	-0.004425	0.003870
136	0.724469	0.005000	-0.313920	0.078480	-10.141997	-0.229636	-0.337098	1.322027	0.037017	-0.005727	0.013927
137	0.729469	0.005000	-0.313920	0.078480	-10.230101	-0.229851	-0.337309	1.321672	0.051136	-0.013658	0.003258
138	0.734469	0.005000	-0.249954	0.024726	-10.241640	-0.229851	-0.337089	1.321917	0.066162	-0.011831	-0.002237
139	0.739469	0.005000	-0.235440	0.000000	-10.188320	-0.229851	-0.336870	1.322162	0.072411	-0.011542	0.006262
140	0.744469	0.005000	-0.186034	-0.107554	-10.212566	-0.229851	-0.336650	1.322407	0.064472	-0.014080	0.001861
141	0.749469	0.005000	-0.173207	-0.078480	-10.241640	-0.229851	-0.336431	1.322652	0.048912	-0.009759	0.001808
142	0.754469	0.005000	-0.168591	-0.078480	-10.275064	-0.229851	-0.336211	1.322897	0.030273	-0.009561	-0.005249
143	0.759469	0.005000	-0.196200	-0.117720	-10.248438	-0.229851	-0.335992	1.323142	0.036102	-0.009285	0.000353
144	0.764469	0.005000	-0.193291	-0.119174	-10.315757	-0.229851	-0.335772	1.323388	0.024546	-0.013837	-0.005377
145	0.769469	0.005000	-0.079418	-0.195262	-10.202400	-0.229851	-0.335553	1.323633	0.029749	-0.005290	-0.002028
146	0.774469	0.005000	-0.081374	-0.081374	-10.241640	-0.229851	-0.335333	1.323878	0.028025	-0.000999	0.002354
147	0.779469	0.005000	-0.190889	-0.073169	-10.191779	-0.229851	-0.335114	1.324123	0.019331	-0.007052	-0.010227
148	0.784469	0.005000	-0.227816	0.015248	-10.155536	-0.229851	-0.334894	1.324368	0.017849	-0.013340	0.004804
149	0.789469	0.005000	-0.216119	0.048901	-10.104599	-0.229851	-0.334675	1.324613	0.027296	-0.017064	-0.009357
150	0.794469	0.005000	-0.278114	0.000000	-10.163160	-0.229851	-0.334455	1.324858	0.017185	-0.011106	-0.002706
151	0.799469	0.005000	-0.288990	-0.024930	-10.252259	-0.229943	-0.334374	1.324897	0.008517	-0.017069	0.006105
152	0.804469	0.005000	-0.202584	-0.022812	-10.280880	-0.230163	-0.334484	1.324652	0.014488	-0.001724	0.009718
153	0.809469	0.005000	-0.235440	0.016579	-10.200373	-0.230382	-0.334594	1.324407	0.023162	-0.010955	0.009820
154	0.814469	0.005000	-0.138496	-0.060016	-10.183936	-0.230602	-0.334704	1.324161	0.030422	-0.010719	0.000803
155	0.819469	0.005000	-0.156960	0.071348	-10.179214	-0.230821	-0.334813	1.323916	0.041434	-0.015739	-0.004342
156	0.824469	0.005000	-0.196200	0.036638	-10.202400	-0.231041	-0.334923	1.323671	0.042160	-0.015658	0.000387
157	0.829469	0.005000	-0.180354	0.050937	-10.174857	-0.231261	-0.335033	1.323426	0.047727	-0.013708	-0.001581
158	0.834469	0.005000	-0.205490	0.078480	-10.163160	-0.231480	-0.335143	1.323181	0.060486	-0.012576	0.009581
159	0.839469	0.005000	-0.274680	0.078480	-10.187708	-0.231700	-0.335253	1.322936	0.059948	-0.009779	-0.006540
160	0.844469	0.005000	-0.313920	0.083410	-10.231780	-0.231919	-0.335362	1.322691	0.055764	-0.016318	-0.002792
161	0.849469	0.005000	-0.271730	0.075530	-10.202400	-0.232139	-0.335472	1.322446	0.054309	-0.014064	-0.004421
162	0.854469	0.005000	-0.195618	0.077317	-10.202982	-0.232358	-0.335582	1.322201	0.050525	-0.015320	-0.001558
163	0.859469	0.005000	-0.119083	-0.037877	-10.241640	-0.232578	-0.335692	1.321956	0.046371	-0.014825	0.000164
164	0.864469	0.005000	-0.196200	-0.110160	-10.359360	-0.232797	-0.335802	1.321710	0.039000	-0.008050	-0.008318
165	0.869469	0.005000	-0.156960	-0.033129	-10.042868	-0.233016	-0.335280	1.321869	0.045767	-0.013954	0.000505
166	0.874469	0.005000	-0.188070	0.016259	-10.107661	-0.233236	-0.334621	1.322114	0.048235	-0.016974	-0.007373
167	0.879469	0.005000	-0.156960	-0.039240	-10.231107	-0.233455	-0.333963	1.322359	0.052808	-0.021219	-0.002332
168	0.884469	0.005000	-0.249724	-0.158767	-10.161353	-0.233675	-0.333305	1.322603	0.049370	-0.016025	-0.004486
169	0.889469	0.005000	-0.259789	-0.220549	-10.138811	-0.233894	-0.332647	1.322848	0.047301	-0.013564	-0.005345
170	0.894469	0.005000	-0.235440	-0.336066	-10.273891	-0.234114	-0.331988	1.323093	0.014946	-0.015323	0.000422
171	0.899469	0.005000	-0.254685	-0.214695	-10.318620	-0.234333	-0.331330	1.323338	-0.000746	-0.007342	-0.000009
172	0.904469	0.005000	-0.178615	-0.060895	-10.184815	-0.234552	-0.330672	1.323583	-0.021247	-0.010539	0.013782
173	0.909469	0.005000	-0.133180	0.039240	-10.100140	-0.234772	-0.330014	1.323828	-0.017575	-0.005808	0.002808
174	0.914469	0.005000	-0.183416	-0.078480	-10.136704	-0.234991	-0.329356	1.324073	-0.004350	-0.007580	0.000507
175	0.919469	0.005000	-0.274680	-0.134662	-10.146218	-0.235211	-0.328697	1.324318	-0.003397	-0.015464	0.004755
176	0.924469	0.005000	-0.235440	-0.187324	-10.193524	-0.235430	-0.328039	1.324563	-0.020205	-0.004616	-0.000518
177	0.929469	0.005000	-0.313920	-0.163813	-10.209253	-0.235649	-0.327381	1.324808	-0.027812	-0.022367	0.012217
178	0.934469	0.005000	-0.235440	-0.060414	-10.202400	-0.236156	-0.327129	1.325614	-0.013702	-0.007374	0.001349
179	0.939469	0.005000	-0.196200	0.115608	-10.202400	-0.237691	-0.328336	1.328431	-0.021823	-0.010531	-0.003840
180	0.944469	0.005000	-0.157126	-0.000166	-10.162994	-0.239227	-0.329542	1.331249	-0.018134	-0.016465	0.003129
181	0.949469	0.005000	-0.159195	0.034769	-10.160925	-0.240763	-0.330749	1.334067	-0.001677	-0.008584	-0.011217
182	0.954469	0.005000	-0.266321	0.000000	-10.276700	-0.242299	-0.331956	1.336884	0.014941	-0.010211	0.008316
183	0.959469	0.005000	-0.300728	-0.065288	-10.235044	-0.243835	-0.333163	1.339702	0.042326	-0.005356	0.001263
184	0.964469	0.005000	-0.335370	0.012556	-10.154265	-0.245371	-0.334370	1.342519	0.042080	-0.007013	0.002468
185	0.969469	0.005000	-0.285627	0.021894	-10.202400	-0.246906	-0.335576	1.345337	0.042751	-0.017728	-0.002399
186	0.974469	0.005000	-0.131081	-0.052601	-10.255001	-0.248442	-0.336783	1.348155	0.050264	-0.013543	-0.004415
187	0.979469	0.005000	-0.196200	0.078480	-10.202400	-0.249978	-0.337990	1.350972	0.048776	-0.015080	-0.000379
188	0.984469	0.005000	-0.153148	0.078480	-10.259354	-0.251514	-0.339197	1.353790	0.064475	-0.019789	0.000918
189	0.989469	0.005000	-0.117175	0.098917	-10.241095	-0.253050	-0.340403	1.356607	0.095940	-0.017651	-0.004589
190	0.994469	0.005000	-0.134891	0.039240	-10.298051	-0.254586	-0.341610	1.359425	0.099176	-0.011726	-0.007811
191	0.999469	0.005000	-0.172012	-0.024188	-10.250777	-0.256122	-0.342817	1.362243	0.112666	-0.008813	0.000376
192	1.004469	0.005000	-0.222625	-0.052851	-10.228825	-0.255640	-0.342746	1.361830	0.107317	-0.014457	0.004011
193	1.009469	0.005000	-0.189181	-0.078480	-10.213140	-0.253883	-0.341868	1.359379	0.099726	-0.011762	-0.002964
194	1.014469	0.005000	-0.283147	-0.165427	-10.250107	-0.252127	-0.340990	1.356928	0.081855	-0.013078	0.000870
195	1.019469	0.005000	-0.307860	-0.268620	-10.202400	-0.250371	-0.340111	1.354477	0.075640	-0.009825	-0.007307
196	1.024469	0.005000	-0.231371	-0.309851	-10.171298	-0.248615	-0.339233	1.352026	0.070319	-0.017350	-0.000151
197	1.029469	0.005000	-0.240538	-0.233741	-10.200701	-0.246859	-0.338355	1.349574	0.039491	-0.012844	-0.001055
198	1.034469	0.005000	-0.236175	-0.118210	-10.085170	-0.245103	-0.337477	1.347123	0.023656	-0.009106	-0.001196
199	1.039469	0.005000	-0.347863	-0.452339	-9.784003	-0.243347	-0.336599	1.344672	0.005765	-0.009176	0.015515
200	1.044469	0.005000	-0.078480	-0.196200	-10.211597	-0.241591	-0.335721	1.342221	-0.030444	-0.002382	0.006751
201	1.049469	0.005000	-0.235440	0.043433	-10.287889	-0.239835	-0.334843	1.339770	-0.060124	-0.009321	0.009955
202	1.054469	0.005000	-0.254272	0.127136	-10.043863	-0.238079	-0.333965	1.337318	-0.031942	-0.004831	0.005865
203	1.059469	0.005000	-0.263320	0.112560	-10.207560	-0.236323	-0.333087	1.334867	0.015910	-0.009625	0.002985
204	1.064469	0.005000	-0.274680	-0.129412	-10.229948	-0.234567	-0.332208	1.332416	0.032705	-0.014814	0.006849
205	1.069469	0.005000	-0.180211	-0.124981	-10.100669	-0.232831	-0.331346	1.329991	0.028904	-0.005725	0.001068
206	1.074469	0.005000	-0.238425	-0.093622	-10.084680	-0.232502	-0.331566	1.329378	0.016284	-0.014275	0.003029
207	1.079469	0.005000	-0.214902	0.039240	-10.258505	-0.232173	-0.331785	1.328766	0.006177	-0.002172	0.003146
208	1.084469	0.005000	-0.291244	0.000000	-10.404711	-0.231843	-0.332005	1.328153	0.017429	-0.007846	0.011683
209	1.089469	0.005000	-0.260325	-0.039240	-10.280880	-0.231514	-0.332224	1.327540	0.028183	-0.008790	0.000595
210	1.094469	0.005000	-0.274680	-0.075066	-10.111978	-0.231185	-0.332444	1.326927	0.041492	-0.011140	0.010347
211	1.099469	0.005000	-0.294164	-0.215956	-10.173038	-0.230855	-0.332663	1.326314	0.030427	-0.019854	-0.001738
212	1.104469	0.005000	-0.220258	-0.156960	-10.163160	-0.230526	-0.332883	1.325702	0.013941	-0.004172	-0.008757
213	1.109469	0.005000	-0.134466	-0.229858	-10.207982	-0.230197	-0.333102	1.325089	-0.014712	-0.009877	0.003412
214	1.114469	0.005000	-0.235440	-0.186509	-10.277650	-0.229868	-0.333322	1.324476	-0.018021	-0.009300	-0.003513
215	1.119469	0.005000	-0.313920	-0.152828	-10.280054	-0.229538	-0.333541	1.323863	-0.020191	-0.004179	0.010534
216	1.124469	0.005000	-0.237675	0.001118	-10.165395	-0.229209	-0.333761	1.323251	-0.008081	-0.005854	0.004218
217	1.129469	0.005000	-0.196200	0.032169	-10.163160	-0.228880	-0.333980	1.322638	0.001411	-0.000640	0.002073
218	1.134469	0.005000	-0.262941	0.000000	-10.241640	-0.228550	-0.334200	1.322025	0.010597	-0.006956	0.004657
219	1.139469	0.005000	-0.266795	-0.101951	-10.249525	-0.228540	-0.334282	1.322380	0.000938	-0.006271	0.002616
220	1.144469	0.005000	-0.264380	-0.107420	-10.202400	-0.228979	-0.334173	1.324095	-0.007330	-0.012013	0.009128
221	1.149469	0.005000	-0.249569	-0.131849	-10.227511	-0.229418	-0.334063	1.325810	-0.011868	-0.010996	0.009315
222	1.154469	0.005000	-0.220788	-0.068544	-10.305468	-0.229857	-0.333953	1.327525	-0.019602	-0.010105	0.005276
223	1.159469	0.005000	-0.235440	0.078480	-10.219456	-0.230296	-0.333844	1.329240	-0.005683	-0.017296	0.001108
224	1.164469	0.005000	-0.156960	0.039240	-10.280880	-0.230735	-0.333734	1.330955	-0.000098	-0.006881	-0.007643
225	1.169469	0.005000	-0.117720	0.024992	-10.316539	-0.231173	-0.333624	1.332670	0.005448	-0.010392	0.003075
226	1.174469	0.005000	-0.196200	-0.039240	-10.360753	-0.231612	-0.333515	1.334386	-0.001134	-0.013071	-0.006894
227	1.179469	0.005000	-0.222128	-0.131032	-10.175776	-0.232051	-0.333405	1.336101	-0.013864	-0.003606	-0.002493
228	1.184469	0.005000	-0.139850	-0.106655	-10.174225	-0.232490	-0.333295	1.337816	-0.015148	-0.006324	0.004772
229	1.189469	0.005000	-0.235440	-0.047890	-10.272230	-0.232929	-0.333186	1.339531	-0.017324	-0.008216	0.004318
230	1.194469	0.005000	-0.261429	-0.130971	-10.202400	-0.233367	-0.333076	1.341246	-0.022077	-0.006106	0.006176
231	1.199469	0.005000	-0.239740	-0.196200	-10.233039	-0.233806	-0.332966	1.342961	-0.031190	0.000791	-0.001116
232	1.204469	0.005000	-0.121486	-0.037357	-10.280880	-0.234245	-0.332857	1.344676	-0.028565	-0.008497	-0.001877
233	1.209469	0.005000	-0.157021	-0.039179	-10.202522	-0.234061	-0.332925	1.343907	-0.016794	-0.003355	-0.001010
234	1.214469	0.005000	-0.196200	0.002465	-10.123920	-0.233732	-0.333035	1.342558	-0.001083	-0.002027	-0.001194
235	1.219469	0.005000	-0.225789	-0.009651	-10.202400	-0.233403	-0.333144	1.341210	0.006340	-0.015026	0.002935
236	1.224469	0.005000	-0.307094	-0.104069	-10.227989	-0.233073	-0.333254	1.339862	0.006654	-0.011328	0.004123
237	1.229469	0.005000	-0.214664	-0.108488	-10.223176	-0.232744	-0.333364	1.338514	0.002645	-0.007893	0.004797
238	1.234469	0.005000	-0.212447	-0.106223	-10.246390	-0.232415	-0.333474	1.337166	-0.018166	-0.002990	-0.002749
239	1.239469	0.005000	-0.223360	-0.051320	-10.191821	-0.232086	-0.333583	1.335818	-0.018612	-0.008711	-0.002673
240	1.244469	0.005000	-0.204384	-0.062672	-10.202400	-0.231756	-0.333693	1.334470	-0.030619	-0.010447	0.002827
241	1.249469	0.005000	-0.078480	0.042607	-10.241640	-0.231427	-0.333803	1.333121	-0.015833	-0.005137	-0.005373
242	1.254469	0.005000	-0.117720	0.136856	-10.221536	-0.231098	-0.333912	1.331773	-0.002234	-0.013416	-0.005274
243	1.259469	0.005000	-0.095428	0.106115	-10.258588	-0.230769	-0.334022	1.330425	0.006710	-0.006201	-0.002179
244	1.264469	0.005000	-0.156960	0.053779	-10.276503	-0.230440	-0.334132	1.329077	0.013769	-0.015272	-0.000245
245	1.269469	0.005000	-0.183750	0.012450	-10.255981	-0.230110	-0.334242	1.327729	0.032809	-0.011912	-0.006699
246	1.274469	0.005000	-0.187504	-0.010181	-10.154464	-0.229898	-0.334398	1.326511	0.047792	-0.009352	-0.005001
247	1.279469	0.005000	-0.266905	-0.109945	-10.147244	-0.230117	-0.334727	1.325775	0.045638	-0.008866	0.010147
248	1.284469	0.005000	-0.202031	-0.050902	-10.208231	-0.230337	-0.335057	1.325040	0.026930	-0.002449	-0.008662
249	1.289469	0.005000	-0.232026	-0.078480	-10.241640	-0.230556	-0.335386	1.324305	0.021422	-0.004783	-0.007174
250	1.294469	0.005000	-0.193296	-0.001452	-10.205304	-0.230776	-0.335715	1.323569	-0.000497	-0.006365	-0.008193
251	1.299469	0.005000	-0.156026	0.037372	-10.204268	-0.230995	-0.336044	1.322834	0.006229	-0.005255	-0.001029
252	1.304469	0.005000	-0.156960	-0.075602	-10.244518	-0.231215	-0.336374	1.322099	0.015931	-0.016711	-0.012700
253	1.309469	0.005000	-0.230158	-0.039240	-10.089962	-0.231434	-0.336703	1.321363	0.018064	-0.008873	-0.006414
254	1.314469	0.005000	-0.117720	0.007226	-10.123920	-0.231654	-0.337032	1.320628	0.006081	-0.000812	-0.003873
255	1.319469	0.005000	-0.137677	0.010315	-10.133562	-0.231873	-0.337362	1.319892	0.000767	-0.005543	-0.016688
256	1.324469	0.005000	-0.133789	0.078480	-10.257709	-0.232093	-0.337691	1.319157	0.010112	-0.007674	-0.012641
257	1.329469	0.005000	-0.182206	-0.036499	-10.087421	-0.232312	-0.338020	1.318422	0.008216	-0.011922	0.000580
258	1.334469	0.005000	-0.117720	-0.023024	-10.169967	-0.232532	-0.338350	1.317686	0.006646	-0.006353	-0.003592
259	1.339469	0.005000	-0.198740	-0.002540	-10.158079	-0.232751	-0.338679	1.316951	0.012510	-0.017926	-0.000006
260	1.344469	0.005000	-0.219242	0.020761	-10.260119	-0.232971	-0.338537	1.317118	0.011588	-0.005203	-0.002476
261	1.349469	0.005000	-0.235440	-0.016535	-10.287050	-0.233190	-0.338098	1.317854	0.003945	-0.016173	0.004827
262	1.354469	0.005000	-0.260554	-0.014126	-10.241640	-0.233410	-0.337659	1.318589	0.026551	-0.006753	-0.009589
263	1.359469	0.005000	-0.184159	-0.066439	-10.123920	-0.233629	-0.337219	1.319324	0.018235	-0.007650	-0.001710
264	1.364469	0.005000	-0.176496	-0.098016	-10.114152	-0.233849	-0.336780	1.320060	0.027737	-0.016365	0.001984
265	1.369469	0.005000	-0.235440	-0.164690	-10.100140	-0.234068	-0.336341	1.320795	-0.005441	-0.006658	0.000188
266	1.374469	0.005000	-0.235440	-0.140701	-10.084680	-0.234288	-0.335902	1.321531	-0.009262	-0.010896	0.008255
267	1.379469	0.005000	-0.310905	-0.036225	-10.132965	-0.234507	-0.335463	1.322266	-0.024951	-0.002569	-0.004769
268	1.384469	0.005000	-0.155889	0.076337	-10.280880	-0.234727	-0.335024	1.323001	-0.003475	-0.007941	-0.002854
269	1.389469	0.005000	-0.231446	0.000000	-10.280880	-0.234946	-0.334585	1.323737	0.000564	-0.011677	0.004229
270	1.394469	0.005000	-0.081770	-0.075190	-10.163160	-0.235166	-0.334146	1.324472	0.014404	-0.007082	0.009596
271	1.399469	0.005000	-0.257594	-0.184809	-10.208095	-0.235385	-0.333707	1.325207	0.014950	-0.010848	0.001206
272	1.404469	0.005000	-0.204217	-0.008017	-10.202400	-0.235605	-0.333268	1.325943	0.017280	0.002672	0.000269
273	1.409469	0.005000	-0.205275	0.029185	-10.212455	-0.235816	-0.332836	1.326667	0.019597	-0.010466	0.013283
274	1.414469	0.005000	-0.196200	-0.001853	-10.214862	-0.235487	-0.332836	1.326667	0.020243	-0.015071	-0.007435
275	1.419469	0.005000	-0.206033	0.078480	-10.266176	-0.235157	-0.332836	1.326667	0.034380	-0.007582	-0.002337
276	1.424469	0.005000	-0.297101	-0.044841	-10.303301	-0.234828	-0.332836	1.326667	0.049507	-0.009205	-0.001786
277	1.429469	0.005000	-0.254670	-0.138511	-10.162379	-0.234498	-0.332836	1.326667	0.046667	-0.009181	0.002456
278	1.434469	0.005000	-0.217374	-0.156960	-10.163160	-0.234169	-0.332836	1.326667	0.021572	-0.006474	0.003303
279	1.439469	0.005000	-0.196200	-0.109792	-10.288808	-0.233839	-0.332836	1.326667	0.028115	-0.007311	0.004516
280	1.444469	0.005000	-0.117720	-0.170514	-10.163160	-0.233510	-0.332836	1.326667	0.023969	-0.007665	0.005774
281	1.449469	0.005000	-0.123719	-0.089790	-10.163160	-0.233180	-0.332836	1.326667	0.009942	-0.011412	-0.008905
282	1.454469	0.005000	-0.196200	-0.039240	-10.172055	-0.232851	-0.332836	1.326667	0.010785	-0.001652	-0.003333
283	1.459469	0.005000	-0.196200	-0.025338	-10.220788	-0.232522	-0.332836	1.326667	-0.001908	-0.010628	0.001976
284	1.464469	0.005000	-0.244531	0.048331	-10.045440	-0.232192	-0.332836	1.326667	0.003629	-0.005406	-0.002407
285	1.469469	0.005000	-0.311348	0.073337	-10.204972	-0.231863	-0.332836	1.326667	0.001212	-0.010892	0.011865
286	1.474469	0.005000	-0.274680	0.078664	-10.162976	-0.231533	-0.332836	1.326667	0.003601	-0.007249	0.012799
287	1.479469	0.005000	-0.274680	0.043627	-10.272106	-0.231297	-0.332743	1.326667	0.007290	-0.000947	-0.007700
288	1.484469	0.005000	-0.309756	0.039240	-10.140577	-0.231187	-0.332524	1.326667	0.011094	-0.011482	-0.003995
289	1.489469	0.005000	-0.320425	0.039240	-10.235135	-0.231077	-0.332304	1.326667	0.015726	-0.008765	-0.004360
290	1.494469	0.005000	-0.243964	-0.109196	-10.286022	-0.230968	-0.332085	1.326667	0.019809	-0.011988	0.002789
291	1.499469	0.005000	-0.235440	-0.050171	-10.331051	-0.230858	-0.331866	1.326667	0.021879	-0.009171	0.000672
292	1.504469	0.005000	-0.130596	0.052116	-10.201788	-0.230748	-0.331646	1.326667	0.025412	-0.009866	-0.003284
293	1.509469	0.005000	-0.117720	0.063191	-10.280880	-0.230639	-0.331427	1.326667	0.018355	-0.010014	0.007093
294	1.514469	0.005000	-0.121986	-0.082746	-10.398600	-0.230529	-0.331207	1.326667	0.029346	-0.007982	0.009557
295	1.519469	0.005000	-0.156991	-0.058845	-10.280911	-0.230419	-0.330988	1.326667	0.029932	-0.019304	0.005343
296	1.524469	0.005000	-0.139767	-0.056433	-10.241640	-0.230310	-0.330769	1.326667	0.026501	-0.003614	-0.002017
297	1.529469	0.005000	-0.187093	0.000000	-10.265813	-0.230200	-0.330549	1.326667	0.031608	-0.007424	-0.000639
298	1.534469	0.005000	-0.248280	-0.078480	-10.280880	-0.230090	-0.330330	1.326667	0.018645	-0.010106	0.002763
299	1.539469	0.005000	-0.235440	-0.096868	-10.267989	-0.229981	-0.330110	1.326667	0.021531	-0.011156	0.002285
300	1.544469	0.005000	-0.218476	-0.030758	-10.140884	-0.229871	-0.329891	1.326667	0.028737	-0.010730	-0.002763
301	1.549469	0.005000	-0.190124	-0.111644	-10.136072	-0.230210	-0.330300	1.326767	0.024955	-0.000908	-0.000506
302	1.554469	0.005000	-0.125889	-0.152876	-10.045440	-0.230649	-0.330848	1.326890	0.032681	-0.006869	-0.000632
303	1.559469	0.005000	-0.156960	-0.078480	-10.047155	-0.231088	-0.331397	1.327012	0.020562	-0.008792	-0.003709
304	1.564469	0.005000	-0.117950	-0.117490	-10.006659	-0.231527	-0.331946	1.327135	0.021159	-0.009772	-0.003332
305	1.569469	0.005000	-0.198833	0.033973	-10.197133	-0.231966	-0.332495	1.327257	0.005267	-0.011437	0.000991
306	1.574469	0.005000	-0.201192	0.039240	-10.168152	-0.232405	-0.333043	1.327380	0.015023	-0.006849	-0.001493
307	1.579469	0.005000	-0.138702	0.071486	-10.059428	-0.232844	-0.333592	1.327502	0.028029	-0.017110	0.000688
308	1.584469	0.005000	-0.196200	0.087768	-10.193112	-0.233283	-0.334141	1.327625	0.027001	-0.001701	-0.001543
309	1.589469	0.005000	-0.184860	-0.044459	-10.241640	-0.233722	-0.334690	1.327747	0.036704	-0.009648	-0.001820
310	1.594469	0.005000	-0.182451	-0.039240	-10.137669	-0.234161	-0.335238	1.327870	0.023796	0.004069	0.002319
311	1.599469	0.005000	-0.172934	-0.071189	-10.132603	-0.234600	-0.335787	1.327992	0.025053	-0.006816	0.004621
312	1.604469	0.005000	-0.196200	-0.138855	-10.169220	-0.235039	-0.336336	1.328115	0.035774	-0.009876	0.007496
313	1.609469	0.005000	-0.254410	-0.175930	-10.184731	-0.235478	-0.336885	1.328237	0.029394	-0.008285	0.003968
314	1.614469	0.005000	-0.274680	-0.117720	-10.208080	-0.235773	-0.337313	1.328387	0.026457	-0.013800	0.000106
315	1.619469	0.005000	-0.210571	-0.010499	-10.212899	-0.235553	-0.337313	1.328632	0.017769	-0.003081	-0.008105
316	1.624469	0.005000	-0.171346	0.026813	-10.165119	-0.235334	-0.337313	1.328877	0.005416	-0.008778	-0.001170
317	1.629469	0.005000	-0.146947	0.029227	-10.212413	-0.235114	-0.337313	1.329123	0.011532	-0.006790	-0.008748
318	1.634469	0.005000	-0.156960	-0.055184	-10.163160	-0.234894	-0.337313	1.329368	0.008419	-0.014081	0.005704
319	1.639469	0.005000	-0.190537	-0.089805	-10.252965	-0.234675	-0.337313	1.329613	0.020911	-0.019050	0.003711
320	1.644469	0.005000	-0.199876	-0.188848	-10.309092	-0.234455	-0.337313	1.329858	0.031717	-0.008325	-0.004475
321	1.649469	0.005000	-0.156960	-0.002603	-10.317517	-0.234236	-0.337313	1.330104	0.032033	-0.011021	0.004763
322	1.654469	0.005000	-0.118809	-0.040329	-10.127187	-0.234016	-0.337313	1.330349	0.021236	-0.012425	-0.000639
323	1.659469	0.005000	-0.078480	-0.006091	-10.271743	-0.233796	-0.337313	1.330594	0.019542	-0.007525	0.002101
324	1.664469	0.005000	-0.089381	-0.083930	-10.387699	-0.233577	-0.337313	1.330840	0.026978	-0.013418	0.006458
325	1.669469	0.005000	-0.156960	-0.054791	-10.280880	-0.233357	-0.337313	1.331085	0.031329	-0.015370	0.000643
326	1.674469	0.005000	-0.127530	-0.088290	-10.133730	-0.233138	-0.337313	1.331330	0.032626	-0.004483	0.006909
327	1.679469	0.005000	-0.090698	-0.090698	-10.136138	-0.232918	-0.337313	1.331575	0.022577	-0.009312	0.001660
328	1.684469	0.005000	-0.131882	-0.117720	-10.202400	-0.233799	-0.337382	1.332512	0.013443	-0.013769	0.005870
329	1.689469	0.005000	-0.202291	0.006091	-10.280880	-0.235336	-0.337492	1.333860	0.019356	-0.011671	0.003519
330	1.694469	0.005000	-0.255922	-0.059722	-10.320120	-0.236872	-0.337601	1.335208	0.015311	-0.007173	0.003310
331	1.699469	0.005000	-0.274680	-0.075862	-10.207636	-0.238409	-0.337711	1.336556	0.021556	-0.017735	0.010560
332	1.704469	0.005000	-0.164398	-0.062579	-10.139821	-0.239945	-0.337821	1.337905	0.006384	-0.006995	-0.006866
333	1.709469	0.005000	-0.145635	-0.092437	-10.109963	-0.241482	-0.337931	1.339253	0.023347	-0.006316	-0.006732
334	1.714469	0.005000	-0.156960	-0.129264	-10.107768	-0.243018	-0.338041	1.340601	0.016915	-0.012246	-0.008699
335	1.719469	0.005000	-0.196200	-0.137990	-10.203701	-0.244555	-0.338150	1.341949	0.040256	-0.012235	0.007979
336	1.724469	0.005000	-0.171352	-0.103328	-10.052636	-0.246091	-0.338260	1.343297	0.041701	-0.012609	0.010339
337	1.729469	0.005000	-0.245020	-0.078480	-10.163160	-0.247628	-0.338370	1.344645	0.022817	-0.013008	-0.002821
338	1.734469	0.005000	-0.268987	-0.075633	-10.129613	-0.249164	-0.338480	1.345993	0.018787	-0.008738	0.009294
339	1.739469	0.005000	-0.195343	-0.039669	-10.281309	-0.250701	-0.338589	1.347341	0.015993	-0.004026	-0.000389
340	1.744469	0.005000	-0.042270	-0.078480	-10.282395	-0.252237	-0.338699	1.348690	0.015092	-0.009023	-0.000384
341	1.749469	0.005000	-0.113847	-0.003873	-10.249385	-0.253682	-0.338797	1.349952	0.024191	-0.012373	0.006184
342	1.754469	0.005000	-0.196200	-0.005864	-10.163160	-0.251926	-0.338467	1.348236	0.031921	-0.010208	-0.000113
343	1.759469	0.005000	-0.173519	-0.070200	-10.115640	-0.250170	-0.338138	1.346520	0.030591	-0.011923	0.002073
344	1.764469	0.005000	-0.185641	-0.078480	-10.116356	-0.248414	-0.337809	1.344804	0.028941	-0.010996	0.004429
345	1.769469	0.005000	-0.222809	-0.039240	-10.177138	-0.246658	-0.337480	1.343089	0.024451	-0.008354	0.010678
346	1.774469	0.005000	-0.171830	-0.132590	-10.241640	-0.244902	-0.337150	1.341373	0.023148	0.000087	0.003447
347	1.779469	0.005000	-0.162225	-0.095468	-10.180148	-0.243145	-0.336821	1.339657	0.029820	-0.014236	0.007367
348	1.784469	0.005000	-0.196200	-0.196200	-10.084680	-0.241389	-0.336492	1.337941	0.019319	-0.006338	0.000930
349	1.789469	0.005000	-0.178302	-0.160405	-10.181058	-0.239633	-0.336162	1.336225	0.004277	-0.014616	0.004453
350	1.794469	0.005000	-0.117720	-0.054728	-10.217888	-0.237877	-0.335833	1.334509	0.001429	-0.009097	0.003571
351	1.799469	0.005000	-0.156960	-0.039240	-10.163160	-0.236121	-0.335504	1.332794	-0.000862	-0.007106	-0.001010
352	1.804469	0.005000	-0.156960	0.028099	-10.191259	-0.234365	-0.335174	1.331078	0.011455	-0.007739	0.006391
353	1.809469	0.005000	-0.144994	0.030149	-10.142103	-0.232609	-0.334845	1.329362	0.018131	-0.010270	0.000806
354	1.814469	0.005000	-0.267898	0.000000	-10.228075	-0.230853	-0.334516	1.327646	0.025012	-0.008964	-0.004639
355	1.819469	0.005000	-0.235440	-0.087234	-10.167537	-0.230134	-0.334234	1.326456	0.023905	-0.015793	0.000412
356	1.824469	0.005000	-0.235440	-0.191333	-10.207267	-0.230792	-0.334014	1.325966	0.024247	-0.002410	0.000228
357	1.829469	0.005000	-0.156991	-0.039240	-10.123951	-0.231451	-0.333795	1.325476	0.022571	-0.007820	0.013651
358	1.834469	0.005000	-0.198128	-0.039240	-10.239712	-0.232109	-0.333575	1.324986	0.009330	-0.011834	0.006757
359	1.839469	0.005000	-0.235440	-0.039240	-10.163160	-0.232768	-0.333356	1.324495	0.020723	-0.009393	0.008096
360	1.844469	0.005000	-0.109866	-0.117720	-10.202400	-0.233426	-0.333136	1.324005	0.022541	-0.009405	0.005745
361	1.849469	0.005000	-0.257294	-0.087173	-10.228478	-0.234085	-0.332917	1.323515	0.020324	-0.010073	-0.001430
362	1.854469	0.005000	-0.263713	-0.089447	-10.269913	-0.234743	-0.332697	1.323025	0.015849	-0.008180	0.009869
363	1.859469	0.005000	-0.170111	0.013151	-10.228489	-0.235402	-0.332478	1.322534	0.017282	-0.014296	-0.001720
364	1.864469	0.005000	-0.172238	-0.126403	-10.147882	-0.236060	-0.332258	1.322044	0.019575	-0.012614	0.005894
365	1.869469	0.005000	-0.217787	-0.056893	-10.084680	-0.236719	-0.332039	1.321554	0.015954	-0.004646	-0.000956
366	1.874469	0.005000	-0.216371	-0.039975	-10.202033	-0.237378	-0.331819	1.321063	0.005780	-0.003315	0.006767
367	1.879469	0.005000	-0.139670	0.021950	-10.106630	-0.238036	-0.331600	1.320573	0.009820	-0.003064	0.003675
368	1.884469	0.005000	-0.084482	-0.078480	-10.163160	-0.238695	-0.331380	1.320083	0.011709	-0.003862	-0.001154
369	1.889469	0.005000	-0.235440	-0.078480	-10.201176	-0.238168	-0.331708	1.320916	0.022183	-0.014370	-0.003093
370	1.894469	0.005000	-0.235440	-0.049844	-10.280880	-0.237399	-0.332147	1.322019	0.016503	-0.004570	-0.000756
371	1.899469	0.005000	-0.266367	-0.070167	-10.320120	-0.236631	-0.332586	1.323123	0.004347	-0.002472	0.008893
372	1.904469	0.005000	-0.196200	0.066665	-10.202400	-0.235863	-0.333025	1.324226	-0.004642	-0.009038	0.003233
373	1.909469	0.005000	-0.192236	0.003964	-10.163160	-0.235094	-0.333464	1.325329	-0.003273	-0.004268	-0.007035
374	1.914469	0.005000	-0.235440	0.037694	-10.161614	-0.234326	-0.333903	1.326432	0.004991	-0.010325	0.004329
375	1.919469	0.005000	-0.157756	-0.077684	-10.240446	-0.233558	-0.334342	1.327535	0.013995	-0.005510	-0.005743
376	1.924469	0.005000	-0.235440	-0.117720	-10.205202	-0.232789	-0.334781	1.328638	0.021179	-0.012891	0.004919
377	1.929469	0.005000	-0.162118	-0.102245	-10.207558	-0.232021	-0.335220	1.329741	0.022702	-0.017365	-0.003182
378	1.934469	0.005000	-0.242602	-0.110558	-10.234478	-0.231253	-0.335659	1.330844	0.026479	-0.014590	-0.001809
379	1.939469	0.005000	-0.225871	-0.089013	-10.222502	-0.230485	-0.336098	1.331947	0.022508	-0.013568	0.006357
380	1.944469	0.005000	-0.192448	-0.102139	-10.214229	-0.229716	-0.336537	1.333050	0.030917	-0.005786	0.002426
381	1.949469	0.005000	-0.196200	-0.103803	-10.061868	-0.228948	-0.336976	1.334153	0.033657	-0.015456	-0.006760
382	1.954469	0.005000	-0.179870	-0.022910	-10.074931	-0.228409	-0.337237	1.334772	0.018232	-0.004311	-0.003313
383	1.959469	0.005000	-0.196200	-0.018273	-10.165854	-0.228628	-0.336907	1.333792	0.015294	-0.010107	-0.000631
384	1.964469	0.005000	-0.219012	-0.018556	-10.260196	-0.228848	-0.336578	1.332811	0.032383	-0.013135	0.005014
385	1.969469	0.005000	-0.229026	0.062067	-10.241640	-0.229067	-0.336249	1.331831	0.030149	-0.010996	0.009250
386	1.974469	0.005000	-0.167795	-0.025038	-10.266678	-0.229287	-0.335920	1.330850	0.031013	-0.008638	0.010720
387	1.979469	0.005000	-0.196200	0.039240	-10.214189	-0.229507	-0.335590	1.329870	0.024670	-0.005790	0.009121
388	1.984469	0.005000	-0.215986	0.068753	-10.153433	-0.229726	-0.335261	1.328890	0.012221	-0.008263	0.004379
389	1.989469	0.005000	-0.242878	0.031802	-10.131358	-0.229946	-0.334932	1.327909	0.014603	-0.011561	-0.002881
390	1.994469	0.005000	-0.220375	-0.049283	-10.089702	-0.230165	-0.334603	1.326929	0.031816	-0.004185	0.004855
391	1.999469	0.005000	-0.160037	-0.078480	-10.166237	-0.230385	-0.334274	1.325948	0.031263	-0.006027	0.005062
392	2.004469	0.005000	-0.195527	-0.078480	-10.162487	-0.230604	-0.333944	1.324968	0.017615	-0.007534	-0.003849
393	2.009469	0.005000	-0.156960	-0.154419	-10.161889	-0.230824	-0.333615	1.323987	0.013281	-0.008932	-0.002109
394	2.014469	0.005000	-0.117720	-0.125069	-10.166834	-0.231043	-0.333286	1.323007	0.013494	-0.004589	0.002971
395	2.019469	0.005000	-0.190179	-0.006021	-10.202400	-0.231263	-0.332957	1.322026	0.015030	-0.003914	0.004962
396	2.024469	0.005000	-0.148925	-0.117720	-10.288915	-0.231273	-0.332558	1.321589	0.003542	-0.009346	-0.000060
397	2.029469	0.005000	-0.146518	-0.096837	-10.220757	-0.231164	-0.332119	1.321467	0.004104	-0.001307	-0.012685
398	2.034469	0.005000	-0.262294	-0.117720	-10.214786	-0.231054	-0.331680	1.321344	0.008218	-0.010467	0.000063
399	2.039469	0.005000	-0.181401	-0.054039	-10.226841	-0.230944	-0.331241	1.321222	0.012968	-0.008592	-0.002024
400	2.044469	0.005000	-0.139957	-0.145191	-10.140923	-0.230835	-0.330802	1.321099	0.010531	-0.003826	0.000062
401	2.049469	0.005000	-0.254593	-0.196200	-10.182313	-0.230725	-0.330363	1.320976	0.019031	-0.005381	0.001058
402	2.054469	0.005000	-0.217764	-0.117720	-10.163160	-0.230615	-0.329924	1.320854	0.019132	-0.008467	-0.006686
403	2.059469	0.005000	-0.180467	-0.078480	-10.273105	-0.230505	-0.329485	1.320731	0.009304	-0.002725	-0.001647
404	2.064469	0.005000	-0.222120	0.000000	-10.241640	-0.230396	-0.329046	1.320609	0.018244	-0.010426	-0.005525
405	2.069469	0.005000	-0.179439	0.039240	-10.236119	-0.230286	-0.328607	1.320486	0.032016	-0.009433	0.010959
406	2.074469	0.005000	-0.226472	-0.066145	-10.136255	-0.230176	-0.328168	1.320363	0.049420	-0.007696	-0.006337
407	2.079469	0.005000	-0.228497	-0.117720	-10.112454	-0.230067	-0.327729	1.320241	0.054183	-0.009198	0.001038
408	2.084469	0.005000	-0.200822	-0.092346	-10.211644	-0.229957	-0.327290	1.320118	0.040617	-0.010070	-0.008125
409	2.089469	0.005000	-0.346546	-0.115515	-10.209014	-0.229851	-0.326881	1.319991	0.029944	-0.002969	-0.004999
410	2.094469	0.005000	-0.195686	-0.078480	-10.280366	-0.229851	-0.327320	1.319746	0.024051	-0.015707	0.010177
411	2.099469	0.005000	-0.191913	-0.078480	-10.202400	-0.229851	-0.327759	1.319501	0.025857	-0.011155	-0.005390
412	2.104469	0.005000	-0.200708	-0.113212	-10.276372	-0.229851	-0.328198	1.319256	0.035603	-0.015433	0.000555
413	2.109469	0.005000	-0.124224	-0.052249	-10.280880	-0.229851	-0.328637	1.319011	0.021383	-0.007783	-0.006189
414	2.114469	0.005000	-0.126524	0.030436	-10.241640	-0.229851	-0.329076	1.318766	0.012203	-0.007223	-0.005583
415	2.119469	0.005000	-0.146105	0.010855	-10.230785	-0.229851	-0.329515	1.318521	0.019519	-0.011944	-0.000547
416	2.124469	0.005000	-0.209469	-0.026538	-10.189131	-0.229851	-0.329954	1.318276	0.019364	-0.004928	-0.004174
417	2.129469	0.005000	-0.180710	-0.093970	-10.122891	-0.229851	-0.330393	1.318031	0.018842	-0.018156	0.002931
418	2.134469	0.005000	-0.217818	-0.096102	-10.220022	-0.229851	-0.330832	1.317786	0.007968	-0.005821	-0.009065
419	2.139469	0.005000	-0.235803	-0.078843	-10.242003	-0.229851	-0.331271	1.317540	0.010244	-0.003876	0.006755
420	2.144469	0.005000	-0.252703	0.021977	-10.185137	-0.229851	-0.331710	1.317295	0.000160	-0.015179	-0.002172
421	2.149469	0.005000	-0.235440	-0.039240	-10.163160	-0.229851	-0.332149	1.317050	0.013439	-0.005972	-0.000411
422	2.154469	0.005000	-0.208967	-0.026473	-10.151331	-0.229851	-0.332588	1.316805	0.028100	-0.014661	0.008754
423	2.159469	0.005000	-0.253674	0.010503	-10.144926	-0.229755	-0.332788	1.316827	0.031752	-0.006967	-0.005469
424	2.164469	0.005000	-0.251632	-0.016192	-10.280880	-0.229536	-0.332678	1.317195	0.035472	-0.010545	0.002561
425	2.169469	0.005000	-0.196200	-0.045321	-10.280880	-0.229316	-0.332569	1.317563	0.037218	-0.008157	-0.003471
426	2.174469	0.005000	-0.160696	-0.082216	-10.280880	-0.229097	-0.332459	1.317930	0.035697	-0.007682	0.001694
427	2.179469	0.005000	-0.159623	-0.156960	-10.161829	-0.228877	-0.332349	1.318298	0.038406	-0.006164	0.003812
428	2.184469	0.005000	-0.158185	-0.195588	-10.123920	-0.228658	-0.332239	1.318666	0.026442	-0.011692	-0.004933
429	2.189469	0.005000	-0.271685	-0.196200	-10.308139	-0.228438	-0.332129	1.319033	0.038585	-0.005567	0.004505
430	2.194469	0.005000	-0.269706	-0.049188	-10.251588	-0.228219	-0.332020	1.319401	0.017204	-0.009878	-0.005885
431	2.199469	0.005000	-0.188820	-0.149580	-10.297981	-0.227999	-0.331910	1.319769	0.014999	-0.011043	0.004420
432	2.204469	0.005000	-0.245636	-0.048921	-10.280880	-0.227780	-0.331800	1.320137	0.019707	-0.012901	0.006488
433	2.209469	0.005000	-0.290443	0.015763	-10.308382	-0.227560	-0.331690	1.320504	0.023433	-0.013829	-0.008339
434	2.214469	0.005000	-0.213546	-0.089427	-10.241640	-0.227341	-0.331580	1.320872	0.020423	-0.015943	0.006027
435	2.219469	0.005000	-0.258312	-0.039240	-10.156655	-0.227121	-0.331471	1.321240	0.017677	-0.006244	-0.003460
436	2.224469	0.005000	-0.198451	-0.002251	-10.163160	-0.226902	-0.331361	1.321607	0.019649	-0.008551	-0.001193
437	2.229469	0.005000	-0.217106	-0.039240	-10.262546	-0.226958	-0.331619	1.321462	0.013998	-0.010382	-0.001817
438	2.234469	0.005000	-0.124558	-0.006838	-10.179361	-0.227068	-0.331948	1.321216	0.031960	-0.008341	0.005241
439	2.239469	0.005000	-0.170938	-0.027956	-10.322815	-0.227177	-0.332277	1.320971	0.030639	-0.019345	0.007088
440	2.244469	0.005000	-0.247010	-0.034710	-10.280880	-0.227287	-0.332607	1.320726	0.024783	-0.010249	-0.007506
441	2.249469	0.005000	-0.304294	-0.088106	-10.232014	-0.227397	-0.332936	1.320481	0.036604	0.000417	-0.002405
442	2.254469	0.005000	-0.253047	-0.188989	-10.234429	-0.227506	-0.333265	1.320236	0.016143	-0.009191	0.004214
443	2.259469	0.005000	-0.128128	-0.156960	-10.246844	-0.227616	-0.333595	1.319991	0.017125	-0.002463	0.007019
444	2.264469	0.005000	-0.232578	-0.156960	-10.322982	-0.227726	-0.333924	1.319745	0.010026	-0.011885	-0.008557
445	2.269469	0.005000	-0.234996	-0.156516	-10.163160	-0.227836	-0.334253	1.319500	0.018852	-0.008230	-0.003121
446	2.274469	0.005000	-0.120720	-0.155460	-10.163160	-0.227945	-0.334583	1.319255	0.013744	-0.009511	0.005280
447	2.279469	0.005000	-0.204008	-0.117720	-10.159256	-0.228055	-0.334912	1.319010	0.014929	-0.002820	-0.003423
448	2.284469	0.005000	-0.151112	-0.190352	-10.163160	-0.228165	-0.335241	1.318765	0.006908	-0.006994	-0.004276
449	2.289469	0.005000	-0.196200	0.006183	-10.084680	-0.228275	-0.335570	1.318520	-0.008206	-0.012543	-0.003555
450	2.294469	0.005000	-0.206744	0.018153	-10.055984	-0.228489	-0.335742	1.318392	-0.004504	-0.017339	-0.000961
451	2.299469	0.005000	-0.117236	-0.026321	-10.071761	-0.229038	-0.335413	1.318637	0.014464	-0.003986	-0.002773
452	2.304469	0.005000	-0.166161	-0.087681	-10.250841	-0.229587	-0.335084	1.318882	0.022207	-0.002533	-0.006020
453	2.309469	0.005000	-0.178769	-0.122097	-10.228586	-0.230136	-0.334754	1.319127	0.019530	-0.013390	-0.003732
454	2.314469	0.005000	-0.196200	-0.156470	-10.241640	-0.230684	-0.334425	1.319372	0.019394	-0.012887	-0.004089
455	2.319469	0.005000	-0.178746	-0.082813	-10.110799	-0.231233	-0.334096	1.319617	0.008428	-0.012159	0.000273
456	2.324469	0.005000	-0.180876	-0.148368	-10.248372	-0.231782	-0.333767	1.319863	0.016671	-0.017315	-0.000752
457	2.329469	0.005000	-0.183161	-0.156960	-10.307020	-0.232331	-0.333437	1.320108	0.020159	-0.004630	-0.004194
458	2.334469	0.005000	-0.235440	-0.206887	-10.241640	-0.232880	-0.333108	1.320353	0.022961	-0.014733	-0.001060
459	2.339469	0.005000	-0.204838	-0.087118	-10.202400	-0.233428	-0.332779	1.320598	0.015174	-0.015237	-0.003167
460	2.344469	0.005000	-0.222768	-0.156960	-10.247976	-0.233977	-0.332449	1.320843	0.001564	-0.007977	0.007318
461	2.349469	0.005000	-0.156960	-0.113801	-10.245559	-0.234526	-0.332120	1.321088	0.002687	-0.008858	-0.004338
462	2.354469	0.005000	-0.196200	-0.039240	-10.282831	-0.235075	-0.331791	1.321334	-0.006582	-0.002783	0.000073
463	2.359469	0.005000	-0.157389	-0.039240	-10.087252	-0.235624	-0.331461	1.321579	0.000249	-0.015526	-0.007359
464	2.364469	0.005000	-0.198573	-0.078480	-10.121547	-0.235610	-0.331554	1.321510	0.001046	-0.014831	-0.004580
465	2.369469	0.005000	-0.196200	-0.112943	-10.276103	-0.235281	-0.331883	1.321265	-0.006271	-0.014439	0.002301
466	2.374469	0.005000	-0.106919	-0.149850	-10.313010	-0.234952	-0.332212	1.321020	0.004893	-0.012205	-0.001278
467	2.379469	0.005000	-0.205337	-0.147823	-10.142193	-0.234622	-0.332542	1.320774	0.006545	-0.009446	0.008182
468	2.384469	0.005000	-0.184656	-0.101568	-10.163160	-0.234293	-0.332871	1.320529	0.009343	-0.016459	0.000744
469	2.389469	0.005000	-0.066832	-0.129368	-10.200252	-0.233964	-0.333200	1.320284	-0.006371	-0.011052	-0.004457
470	2.394469	0.005000	-0.094381	-0.094381	-10.147259	-0.233634	-0.333530	1.320039	0.001480	-0.015577	0.008557
471	2.399469	0.005000	-0.198818	-0.041858	-10.160542	-0.233305	-0.333859	1.319794	0.003920	-0.005488	-0.003492
472	2.404469	0.005000	-0.236711	-0.116449	-10.222655	-0.232976	-0.334188	1.319549	0.003501	-0.001820	-0.002551
473	2.409469	0.005000	-0.150869	-0.173534	-10.208491	-0.232646	-0.334518	1.319303	0.002620	-0.010627	0.000980
474	2.414469	0.005000	-0.132182	-0.117720	-10.241640	-0.232317	-0.334847	1.319058	-0.008323	-0.005746	0.002997
475	2.419469	0.005000	-0.144742	-0.117720	-10.214618	-0.231988	-0.335176	1.318813	0.002016	-0.020770	0.002016
476	2.424469	0.005000	-0.119081	-0.186050	-10.251790	-0.231659	-0.335505	1.318568	0.006068	-0.014030	-0.002258
477	2.429469	0.005000	-0.313920	-0.117720	-10.249506	-0.231357	-0.335835	1.318389	0.001262	-0.016660	0.005651
478	2.434469	0.005000	-0.269230	-0.106819	-10.213301	-0.231686	-0.336164	1.319738	0.002124	-0.011699	-0.003022
479	2.439469	0.005000	-0.196200	-0.117720	-10.245105	-0.232015	-0.336493	1.321086	0.007607	-0.001692	0.001163
480	2.444469	0.005000	-0.197302	-0.077378	-10.162058	-0.232345	-0.336823	1.322434	0.007651	-0.010819	0.004735
481	2.449469	0.005000	-0.197486	-0.077194	-10.123920	-0.232674	-0.337152	1.323782	0.014289	-0.009811	-0.001489
482	2.454469	0.005000	-0.153714	0.032748	-10.205646	-0.233003	-0.337481	1.325130	0.026502	-0.014229	0.002441
483	2.459469	0.005000	-0.269083	-0.089674	-10.325717	-0.233333	-0.337811	1.326479	0.012297	-0.015377	-0.011130
484	2.464469	0.005000	-0.172172	-0.149354	-10.210006	-0.233662	-0.338140	1.327827	0.010017	-0.015363	0.005303
485	2.469469	0.005000	-0.206213	-0.049253	-10.212413	-0.233991	-0.338469	1.329175	0.019607	-0.016471	-0.003314
486	2.474469	0.005000	-0.156960	-0.066197	-10.123920	-0.234320	-0.338798	1.330523	0.030111	-0.011143	0.004889
487	2.479469	0.005000	-0.231568	-0.092851	-10.212899	-0.234650	-0.339128	1.331872	0.023401	-0.011141	0.009015
488	2.484469	0.005000	-0.140180	-0.022460	-10.202400	-0.234979	-0.339457	1.333220	0.021103	-0.007106	-0.006979
489	2.489469	0.005000	-0.235440	-0.056909	-10.203701	-0.235308	-0.339786	1.334568	0.023265	-0.007430	0.001905
490	2.494469	0.005000	-0.238470	-0.039240	-10.311029	-0.235638	-0.340116	1.335916	0.017749	-0.008490	-0.008449
491	2.499469	0.005000	-0.164814	-0.094173	-10.320120	-0.236307	-0.340445	1.337102	0.021001	-0.019034	0.002823
492	2.504469	0.005000	-0.105648	-0.025656	-10.267296	-0.237405	-0.340774	1.338082	0.008411	-0.010463	0.005070
493	2.509469	0.005000	-0.224100	-0.011340	-10.241640	-0.238502	-0.341103	1.339062	0.003924	0.001586	-0.002772
494	2.514469	0.005000	-0.156960	-0.108782	-10.106045	-0.239600	-0.341433	1.340043	0.010040	-0.014926	0.016054
495	2.519469	0.005000	-0.117720	0.065436	-10.117398	-0.240698	-0.341762	1.341023	0.007075	-0.007060	0.009118
496	2.524469	0.005000	-0.191622	-0.057551	-10.163160	-0.241795	-0.342091	1.342004	0.011036	-0.004672	0.003766
497	2.529469	0.005000	-0.198373	-0.006520	-10.132613	-0.242893	-0.342420	1.342984	0.000123	-0.008536	0.000397
498	2.534469	0.005000	-0.235440	-0.000726	-10.163886	-0.243990	-0.342749	1.343965	-0.004257	-0.011625	-0.000273
499	2.539469	0.005000	-0.274680	-0.037051	-10.202400	-0.245088	-0.343079	1.344945	-0.006563	-0.022069	0.000367
500	2.544469	0.005000	-0.244626	-0.073887	-10.280880	-0.246185	-0.343408	1.345926	0.005033	-0.008821	-0.002167
501	2.549469	0.005000	-0.242368	-0.143103	-10.313192	-0.247283	-0.343737	1.346906	-0.003670	-0.004462	0.009167
502	2.554469	0.005000	-0.117720	-0.126673	-10.241640	-0.248380	-0.344066	1.347887	0.002486	-0.008304	0.000979
503	2.559469	0.005000	-0.224080	-0.078480	-10.241640	-0.249478	-0.344396	1.348867	0.006995	-0.012514	0.001370
504	2.564469	0.005000	-0.249054	-0.131334	-10.228026	-0.250575	-0.344725	1.349847	0.004132	-0.013844	0.001489
505	2.569469	0.005000	-0.219723	-0.141243	-10.280880	-0.249634	-0.344220	1.348137	-0.008366	-0.006189	0.004237
506	2.574469	0.005000	-0.196200	-0.132212	-10.220311	-0.248317	-0.343561	1.345931	-0.002063	-0.006804	0.008758
507	2.579469	0.005000	-0.117720	-0.020975	-10.163160	-0.247000	-0.342903	1.343725	0.002896	-0.004601	0.006414
508	2.584469	0.005000	-0.212958	-0.033516	-10.224882	-0.245683	-0.342244	1.341519	-0.010589	-0.011596	0.008858
509	2.589469	0.005000	-0.235440	-0.103077	-10.202400	-0.244366	-0.341586	1.339313	-0.001775	-0.004283	0.003425
510	2.594469	0.005000	-0.196200	0.002005	-10.136332	-0.243049	-0.340927	1.337107	0.004164	-0.007035	-0.002180
511	2.599469	0.005000	-0.186953	-0.097725	-10.163160	-0.241732	-0.340269	1.334901	0.005293	-0.014206	0.002250
512	2.604469	0.005000	-0.164917	-0.094394	-10.147791	-0.240415	-0.339610	1.332694	0.009965	-0.003907	-0.001741
513	2.609469	0.005000	-0.162607	-0.033593	-10.123920	-0.239098	-0.338952	1.330488	0.016822	-0.011339	0.009689
514	2.614469	0.005000	-0.196200	-0.075250	-10.127150	-0.237780	-0.338293	1.328282	0.009824	0.000231	-0.001077
515	2.619469	0.005000	-0.194914	-0.079766	-10.161874	-0.236463	-0.337635	1.326076	0.013785	-0.006283	0.011386
516	2.624469	0.005000	-0.118824	-0.041449	-10.085784	-0.235146	-0.336976	1.323870	0.010040	-0.014167	0.010765
517	2.629469	0.005000	-0.271618	-0.078480	-10.111672	-0.233829	-0.336318	1.321664	0.015265	0.001868	0.002610
518	2.634469	0.005000	-0.235440	-0.078480	-10.079201	-0.232782	-0.335794	1.320030	0.009885	-0.010923	0.002349
519	2.639469	0.005000	-0.188409	-0.047031	-10.092471	-0.232563	-0.335684	1.320153	0.014063	-0.004082	-0.005095
520	2.644469	0.005000	-0.147131	0.048993	-10.133673	-0.232343	-0.335575	1.320275	0.026566	-0.002022	-0.000173
521	2.649469	0.005000	-0.235440	-0.093516	-10.175262	-0.232124	-0.335465	1.320398	0.022048	-0.010983	-0.000439
522	2.654469	0.005000	-0.185334	-0.117720	-10.084680	-0.231904	-0.335355	1.320520	0.019863	-0.014500	-0.003330
523	2.659469	0.005000	-0.258084	-0.061884	-10.208448	-0.231685	-0.335245	1.320643	0.001699	-0.012140	0.001191
524	2.664469	0.005000	-0.138187	-0.097253	-10.243334	-0.231466	-0.335136	1.320765	-0.006720	-0.002176	0.001210
525	2.669469	0.005000	-0.217144	-0.078480	-10.244289	-0.231246	-0.335026	1.320888	-0.009842	-0.016132	0.003655
526	2.674469	0.005000	-0.251596	-0.039240	-10.147004	-0.231027	-0.334916	1.321010	0.000305	-0.006923	0.003602
527	2.679469	0.005000	-0.196200	-0.039240	-10.213756	-0.230807	-0.334806	1.321133	0.014207	-0.006621	0.001315
528	2.684469	0.005000	-0.207729	-0.050769	-10.297063	-0.230588	-0.334697	1.321255	0.012369	-0.011301	-0.000391
529	2.689469	0.005000	-0.235440	-0.020997	-10.232519	-0.230369	-0.334587	1.321378	-0.001242	-0.006061	-0.000009
530	2.694469	0.005000	-0.242618	-0.039240	-10.298587	-0.230149	-0.334477	1.321501	0.002138	-0.012135	0.014167
531	2.699469	0.005000	-0.274680	0.029717	-10.167921	-0.229930	-0.334367	1.321623	0.015129	-0.004711	-0.003822
532	2.704469	0.005000	-0.193383	-0.042057	-10.123920	-0.229781	-0.334117	1.321903	0.029510	-0.014870	0.000741
533	2.709469	0.005000	-0.157786	-0.117720	-10.201987	-0.229671	-0.333788	1.322270	0.027134	-0.016448	-0.008666
534	2.714469	0.005000	-0.235440	-0.155429	-10.200869	-0.229561	-0.333459	1.322638	0.020649	-0.012260	0.000262
535	2.719469	0.005000	-0.270732	-0.156960	-10.202400	-0.229451	-0.333130	1.323005	0.010661	-0.004642	0.007321
536	2.724469	0.005000	-0.208756	-0.078480	-10.241640	-0.229342	-0.332801	1.323373	0.011804	-0.002859	-0.000087
537	2.729469	0.005000	-0.204498	-0.109422	-10.249938	-0.229232	-0.332472	1.323740	0.018594	-0.008911	0.006118
538	2.734469	0.005000	-0.167662	-0.185498	-10.241640	-0.229122	-0.332143	1.324108	0.015702	-0.006435	-0.002439
539	2.739469	0.005000	-0.143012	-0.182252	-10.202400	-0.229012	-0.331813	1.324475	0.025177	-0.008178	-0.007102
540	2.744469	0.005000	-0.196200	-0.093539	-10.305061	-0.228903	-0.331484	1.324843	0.006641	-0.007131	0.004290
541	2.749469	0.005000	-0.235440	-0.112486	-10.236406	-0.228793	-0.331155	1.325210	0.005498	-0.010106	0.000584
542	2.754469	0.005000	-0.235853	-0.156960	-10.242053	-0.228683	-0.330826	1.325578	-0.000911	-0.011859	0.009039
543	2.759469	0.005000	-0.196200	-0.156960	-10.206303	-0.228573	-0.330497	1.325945	-0.003619	-0.004887	0.000397
544	2.764469	0.005000	-0.266385	-0.110542	-10.084680	-0.228464	-0.330168	1.326313	0.004488	-0.006315	-0.009887
545	2.769469	0.005000	-0.327041	-0.091540	-10.228580	-0.228378	-0.329859	1.326663	0.004227	-0.012243	-0.005431
546	2.774469	0.005000	-0.173970	-0.089595	-10.213515	-0.228927	-0.330078	1.326540	-0.010126	-0.005893	0.000009
547	2.779469	0.005000	-0.087188	-0.039240	-10.202400	-0.229476	-0.330298	1.326417	0.000189	-0.008996	0.000920
548	2.784469	0.005000	-0.156960	-0.085166	-10.195714	-0.230024	-0.330518	1.326295	-0.009066	-0.001561	-0.005095
549	2.789469	0.005000	-0.239788	-0.043588	-10.128268	-0.230573	-0.330737	1.326172	-0.002604	-0.008136	0.007059
550	2.794469	0.005000	-0.235440	-0.035353	-10.125864	-0.231122	-0.330957	1.326050	-0.001533	-0.009135	0.000932
551	2.799469	0.005000	-0.235440	0.000000	-10.163160	-0.231671	-0.331176	1.325927	-0.006109	0.004719	0.008850
552	2.804469	0.005000	-0.272276	-0.115316	-10.199996	-0.232220	-0.331396	1.325804	-0.012400	-0.007643	0.007666
553	2.809469	0.005000	-0.235440	-0.039240	-10.182220	-0.232768	-0.331615	1.325682	-0.006408	-0.007642	0.000017
554	2.814469	0.005000	-0.170489	-0.078480	-10.169924	-0.233317	-0.331835	1.325559	-0.005619	-0.013267	0.004661
555	2.819469	0.005000	-0.156960	0.099378	-10.241640	-0.233866	-0.332054	1.325437	-0.014002	-0.019582	0.006523
556	2.824469	0.005000	-0.212537	0.050691	-10.213851	-0.234415	-0.332274	1.325314	0.013398	-0.017453	0.006237
557	2.829469	0.005000	-0.313920	0.001347	-10.188871	-0.234964	-0.332493	1.325192	0.025391	-0.008416	-0.002285
558	2.834469	0.005000	-0.274680	-0.156960	-10.179098	-0.235512	-0.332713	1.325069	0.023622	-0.015284	0.002782
559	2.839469	0.005000	-0.256330	-0.196200	-10.241640	-0.235581	-0.332836	1.325000	0.008246	-0.015048	-0.005580
560	2.844469	0.005000	-0.295193	-0.098993	-10.262153	-0.235032	-0.332836	1.325000	-0.000270	-0.004910	-0.009492
561	2.849469	0.005000	-0.196200	-0.090820	-10.156990	-0.234484	-0.332836	1.325000	-0.011504	-0.014329	0.002494
562	2.854469	0.005000	-0.182074	-0.078480	-10.280880	-0.233935	-0.332836	1.325000	-0.006082	-0.003967	0.001222
563	2.859469	0.005000	-0.262639	-0.102563	-10.217557	-0.233387	-0.332836	1.325000	0.015034	-0.011328	0.007919
564	2.864469	0.005000	-0.166728	-0.196200	-10.222104	-0.232838	-0.332836	1.325000	0.010674	-0.008895	0.000611
565	2.869469	0.005000	-0.235440	-0.078480	-10.170521	-0.232290	-0.332836	1.325000	0.000082	-0.003979	0.003128
566	2.874469	0.005000	-0.263970	-0.107010	-10.157805	-0.231741	-0.332836	1.325000	0.001730	-0.011909	0.004684
567	2.879469	0.005000	-0.081495	-0.003015	-10.205415	-0.231192	-0.332836	1.325000	0.012795	-0.008082	-0.005069
568	2.884469	0.005000	-0.158019	-0.078480	-10.239522	-0.230644	-0.332836	1.325000	0.008383	-0.007649	0.002622
569	2.889469	0.005000	-0.158307	-0.116373	-10.125267	-0.230095	-0.332836	1.325000	0.010106	-0.011199	0.004477
570	2.894469	0.005000	-0.196200	-0.156960	-10.237934	-0.229547	-0.332836	1.325000	0.020363	-0.007119	0.002789
571	2.899469	0.005000	-0.263289	-0.196200	-10.308729	-0.228998	-0.332836	1.325000	0.008849	-0.012377	0.001518
572	2.904469	0.005000	-0.196200	-0.125831	-10.265974	-0.228450	-0.332836	1.325000	0.010544	-0.009116	0.006405
573	2.909469	0.005000	-0.167352	-0.049632	-10.220855	-0.228541	-0.333293	1.325000	0.002060	-0.003178	0.009909
574	2.914469	0.005000	-0.262218	0.026778	-10.097142	-0.228760	-0.333842	1.325000	-0.003966	-0.000627	0.000289
575	2.919469	0.005000	-0.338456	0.049073	-10.187696	-0.228980	-0.334391	1.325000	0.001666	-0.005914	0.004942
576	2.924469	0.005000	-0.235440	-0.084081	-10.123920	-0.229199	-0.334940	1.325000	0.003869	-0.011810	0.000255
577	2.929469	0.005000	-0.216210	-0.118501	-10.123139	-0.229419	-0.335488	1.325000	-0.002756	-0.005039	0.003985
578	2.934469	0.005000	-0.196200	-0.196200	-10.098990	-0.229638	-0.336037	1.325000	-0.012261	-0.011229	0.010650
579	2.939469	0.005000	-0.196200	-0.102064	-10.108065	-0.229858	-0.336586	1.325000	-0.023798	-0.008322	0.004046
580	2.944469	0.005000	-0.104967	-0.039730	-10.215643	-0.230077	-0.337135	1.325000	-0.019099	-0.006409	0.007928
581	2.949469	0.005000	-0.235440	-0.039240	-10.213579	-0.230297	-0.337684	1.325000	-0.013589	-0.004392	-0.004662
582	2.954469	0.005000	-0.235440	-0.126615	-10.202400	-0.230516	-0.338232	1.325000	0.003282	-0.004111	-0.000502
583	2.959469	0.005000	-0.235440	-0.052976	-10.227904	-0.230736	-0.338781	1.325000	0.000511	-0.008883	0.007866
584	2.964469	0.005000	-0.191655	-0.083025	-10.197855	-0.230955	-0.339330	1.325000	0.005906	-0.003108	-0.000205
585	2.969469	0.005000	-0.196200	-0.039240	-10.128176	-0.231175	-0.339879	1.325000	0.004737	-0.008128	-0.002013
586	2.974469	0.005000	-0.196200	-0.039240	-10.241640	-0.231394	-0.340196	1.325029	0.007248	-0.010013	0.002422
587	2.979469	0.005000	-0.159153	-0.039240	-10.204593	-0.231614	-0.339757	1.325151	0.004337	-0.013963	0.004105
588	2.984469	0.005000	-0.235440	-0.004164	-10.233311	-0.231833	-0.339318	1.325274	-0.001938	-0.005043	0.001694
589	2.989469	0.005000	-0.274680	-0.052402	-10.241640	-0.232053	-0.338879	1.325396	-0.000077	-0.009235	-0.008828
590	2.994469	0.005000	-0.266156	-0.061431	-10.224591	-0.232272	-0.338441	1.325519	0.011523	-0.011995	0.007762
591	2.999469	0.005000	-0.246371	0.017377	-10.202400	-0.232491	-0.338002	1.325641	0.001554	-0.003888	0.006081
592	3.004469	0.005000	-0.182712	-0.131208	-10.229377	-0.232711	-0.337563	1.325764	-0.000000	-0.006869	0.008093
593	3.009469	0.005000	-0.163587	-0.069818	-10.185076	-0.232930	-0.337124	1.325886	-0.013858	-0.010190	0.006878
594	3.014469	0.005000	-0.139473	-0.095967	-10.219887	-0.233150	-0.336685	1.326009	-0.011413	-0.013637	0.008748
595	3.019469	0.005000	-0.196261	-0.078480	-10.143555	-0.233369	-0.336246	1.326131	-0.009118	-0.006209	0.004765
596	3.024469	0.005000	-0.117720	-0.017193	-10.175500	-0.233589	-0.335807	1.326254	-0.009010	-0.007534	-0.001581
597	3.029469	0.005000	-0.030133	-0.102653	-10.196440	-0.233808	-0.335368	1.326377	0.006857	-0.009301	0.003324
598	3.034469	0.005000	-0.156960	-0.013560	-10.163160	-0.234027	-0.334929	1.326499	0.011561	-0.005837	-0.006042
599	3.039469	0.005000	-0.185774	-0.018388	-10.280880	-0.234247	-0.334491	1.326622	0.008454	-0.011045	0.002896
600	3.044469	0.005000	-0.227060	0.039240	-10.255739	-0.234190	-0.334259	1.327130	0.011402	-0.012013	-0.002596
601	3.049469	0.005000	-0.163036	-0.045316	-10.353284	-0.233970	-0.334149	1.327865	0.001987	-0.002057	0.003669
602	3.054469	0.005000	-0.156960	-0.039240	-10.202400	-0.233751	-0.334039	1.328601	0.003269	-0.004685	0.003875
603	3.059469	0.005000	-0.153572	-0.039240	-10.200706	-0.233531	-0.333930	1.329336	0.006896	-0.004559	-0.009228
604	3.064469	0.005000	-0.078480	-0.116342	-10.201711	-0.233312	-0.333820	1.330071	0.013132	-0.007636	0.012064
605	3.069469	0.005000	-0.265468	-0.084622	-10.205471	-0.233092	-0.333710	1.330807	-0.005577	-0.016251	-0.001293
606	3.074469	0.005000	-0.167061	-0.117720	-10.280880	-0.232873	-0.333601	1.331542	0.007974	-0.010090	0.008110
607	3.079469	0.005000	-0.267224	-0.078480	-10.170616	-0.232653	-0.333491	1.332278	0.016561	-0.011147	0.006960
608	3.084469	0.005000	-0.186443	-0.088237	-10.133677	-0.232434	-0.333381	1.333013	0.006473	-0.001171	0.000202
609	3.089469	0.005000	-0.223636	0.039240	-10.108288	-0.232214	-0.333271	1.333748	-0.004236	-0.014838	0.009542
610	3.094469	0.005000	-0.263875	0.028435	-10.188182	-0.231995	-0.333162	1.334484	0.003634	-0.003696	-0.009377
611	3.099469	0.005000	-0.228522	-0.023079	-10.225479	-0.231775	-0.333052	1.335219	-0.000876	-0.009048	-0.003600
612	3.104469	0.005000	-0.175531	0.000000	-10.301549	-0.231556	-0.332942	1.335954	0.006259	-0.009359	0.001118
613	3.109469	0.005000	-0.196200	-0.057741	-10.181661	-0.231343	-0.332836	1.336640	-0.005654	0.001751	-0.008660
614	3.114469	0.005000	-0.235440	-0.078480	-10.218714	-0.231343	-0.332836	1.335782	-0.010218	-0.005707	0.000482
615	3.119469	0.005000	-0.182298	-0.106283	-10.151723	-0.231343	-0.332836	1.334924	-0.006720	-0.014132	0.000722
616	3.124469	0.005000	-0.180589	-0.105906	-10.214214	-0.231343	-0.332836	1.334067	-0.003952	-0.012359	0.000009
617	3.129469	0.005000	-0.235440	-0.068930	-10.192850	-0.231343	-0.332836	1.333209	-0.002779	-0.010611	-0.006071
618	3.134469	0.005000	-0.228305	-0.032105	-10.156025	-0.231343	-0.332836	1.332351	-0.005938	-0.008526	0.006150
619	3.139469	0.005000	-0.196200	-0.083608	-10.197272	-0.231343	-0.332836	1.331493	0.004126	-0.018544	0.001243
620	3.144469	0.005000	-0.117720	-0.120505	-10.286451	-0.231343	-0.332836	1.330635	0.014610	-0.008756	-0.012571
621	3.149469	0.005000	-0.157792	-0.118552	-10.320952	-0.231343	-0.332836	1.329777	0.003334	-0.010718	0.004830
622	3.154469	0.005000	-0.233864	-0.156960	-10.397024	-0.231343	-0.332836	1.328919	-0.005474	-0.016468	-0.003974
623	3.159469	0.005000	-0.235440	-0.086441	-10.245621	-0.231343	-0.332836	1.328061	-0.016464	-0.008032	0.007987
624	3.164469	0.005000	-0.307997	0.005923	-10.241640	-0.231343	-0.332836	1.327203	-0.023227	-0.014114	0.001672
625	3.169469	0.005000	-0.187871	0.078480	-10.070426	-0.231343	-0.332836	1.326345	0.014755	-0.009774	0.009275
626	3.174469	0.005000	-0.224821	0.049859	-10.034821	-0.231343	-0.332836	1.325487	0.021443	-0.012952	0.011847
627	3.179469	0.005000	-0.143094	-0.091167	-10.478258	-0.231296	-0.332978	1.325000	0.015197	-0.004925	0.003589
628	3.184469	0.005000	-0.111672	-0.205248	-10.380503	-0.231186	-0.333308	1.325000	0.020913	-0.014024	0.005197
629	3.189469	0.005000	-0.156960	-0.156960	-10.033559	-0.231076	-0.333637	1.325000	0.005866	-0.013837	-0.002340
630	3.194469	0.005000	-0.235440	-0.117720	-10.143708	-0.230966	-0.333966	1.325000	-0.004862	-0.013439	0.009337
631	3.199469	0.005000	-0.257042	0.070553	-10.241640	-0.230857	-0.334295	1.325000	-0.016151	-0.012172	0.008730
632	3.204469	0.005000	-0.187825	0.196200	-10.241640	-0.230747	-0.334624	1.325000	-0.027921	0.000933	0.003161
633	3.209469	0.005000	-0.169984	0.065456	-10.176352	-0.230637	-0.334954	1.325000	-0.011353	-0.023423	0.007416
634	3.214469	0.005000	-0.168040	0.000000	-10.084680	-0.230528	-0.335283	1.325000	0.007592	-0.011011	-0.001210
635	3.219469	0.005000	-0.109054	0.021909	-10.062771	-0.230418	-0.335612	1.325000	0.012610	-0.005213	0.002771
636	3.224469	0.005000	-0.182918	0.032599	-10.234999	-0.230308	-0.335941	1.325000	0.005635	-0.009169	-0.005324
637	3.229469	0.005000	-0.200466	0.117720	-10.163160	-0.230198	-0.336271	1.325000	0.015758	0.000165	-0.003416
638	3.234469	0.005000	-0.196200	0.041153	-10.202400	-0.230089	-0.336600	1.325000	0.015871	-0.006017	-0.000403
639	3.239469	0.005000	-0.235409	0.078480	-10.202400	-0.229979	-0.336929	1.325000	0.012105	-0.006054	-0.003052
640	3.244469	0.005000	-0.272231	0.039240	-10.312774	-0.229869	-0.337258	1.325000	0.012304	-0.009901	0.000317
641	3.249469	0.005000	-0.196200	-0.078480	-10.172751	-0.231497	-0.337587	1.326021	0.025398	-0.000607	-0.009670
642	3.254469	0.005000	-0.196200	-0.071682	-10.163160	-0.233472	-0.337917	1.327247	0.016741	-0.001748	-0.001184
643	3.259469	0.005000	-0.166173	-0.018426	-10.253241	-0.235447	-0.338246	1.328472	0.017579	-0.012863	0.007330
644	3.264469	0.005000	-0.089962	-0.027758	-10.119125	-0.237421	-0.338575	1.329697	0.021024	-0.004759	0.003323
645	3.269469	0.005000	-0.182635	-0.039240	-10.148141	-0.239396	-0.338904	1.330922	0.010323	-0.017664	0.009835
646	3.274469	0.005000	-0.164245	-0.078480	-10.280880	-0.241371	-0.339233	1.332147	0.012834	-0.009488	-0.007911
647	3.279469	0.005000	-0.156960	-0.138792	-10.163160	-0.243346	-0.339562	1.333372	0.017152	-0.011500	0.007367
648	3.284469	0.005000	-0.215108	-0.119144	-10.182068	-0.245320	-0.339891	1.334597	-0.006927	-0.015704	0.007667
649	3.289469	0.005000	-0.196200	-0.055738	-10.225142	-0.247295	-0.340221	1.335822	-0.005573	-0.007367	0.006109
650	3.294469	0.005000	-0.206668	-0.078480	-10.231172	-0.249270	-0.340550	1.337047	0.004168	-0.010256	0.005783
651	3.299469	0.005000	-0.144819	-0.144819	-10.241640	-0.251244	-0.340879	1.338272	-0.000066	-0.003270	0.001214
652	3.304469	0.005000	-0.146870	-0.127810	-10.134010	-0.253219	-0.341208	1.339497	-0.004514	-0.008826	0.002728
653	3.309469	0.005000	-0.235440	-0.109927	-10.131713	-0.255194	-0.341537	1.340722	-0.013432	-0.011206	-0.004499
654	3.314469	0.005000	-0.201587	-0.083867	-10.297041	-0.256314	-0.341665	1.341751	-0.010971	-0.003054	0.003134
655	3.319469	0.005000	-0.238883	-0.042683	-10.323563	-0.254558	-0.341117	1.342119	-0.007185	-0.011937	0.005154
656	3.324469	0.005000	-0.312894	-0.076428	-10.279854	-0.252802	-0.340568	1.342487	-0.017618	-0.007107	-0.002022
657	3.329469	0.005000	-0.274680	0.038322	-10.279962	-0.251046	-0.340019	1.342854	-0.013303	-0.013385	0.009989
658	3.334469	0.005000	-0.278002	0.068513	-10.202400	-0.249290	-0.339470	1.343222	-0.010402	-0.011994	0.011619
659	3.339469	0.005000	-0.241113	-0.027895	-10.202400	-0.247534	-0.338921	1.343590	-0.002072	-0.004259	0.008030
660	3.344469	0.005000	-0.220075	-0.015365	-10.226275	-0.245777	-0.338372	1.343957	-0.002623	-0.008324	0.005478
661	3.349469	0.005000	-0.216379	-0.039240	-10.154188	-0.244021	-0.337824	1.344325	0.000564	-0.002276	0.000708
662	3.354469	0.005000	-0.117720	0.066446	-10.151126	-0.242265	-0.337275	1.344693	0.014024	-0.014076	0.002761
663	3.359469	0.005000	-0.156960	0.028894	-10.276778	-0.240509	-0.336726	1.345060	0.019222	-0.010768	-0.004620
664	3.364469	0.005000	-0.173615	-0.101065	-10.280880	-0.238753	-0.336177	1.345428	0.024799	-0.008620	0.008264
665	3.369469	0.005000	-0.215001	-0.097281	-10.219563	-0.236997	-0.335628	1.345796	0.016867	-0.012098	-0.001662
666	3.374469	0.005000	-0.174995	-0.160129	-10.235302	-0.235241	-0.335080	1.346163	0.017161	-0.006145	0.003087
667	3.379469	0.005000	-0.212291	-0.094571	-10.264789	-0.233485	-0.334531	1.346531	-0.003797	-0.015969	0.005071
668	3.384469	0.005000	-0.260998	-0.092162	-10.176842	-0.232836	-0.334397	1.345509	-0.008518	-0.008374	-0.007656
669	3.389469	0.005000	-0.235440	-0.133755	-10.253243	-0.232836	-0.334507	1.343671	-0.018814	-0.006568	0.005042
670	3.394469	0.005000	-0.235440	-0.059832	-10.211724	-0.232836	-0.334617	1.341833	-0.004654	-0.007322	-0.011281
671	3.399469	0.005000	-0.196200	-0.039240	-10.280880	-0.232836	-0.334726	1.339996	-0.017216	-0.007577	0.003121
672	3.404469	0.005000	-0.201116	-0.004916	-10.202400	-0.232836	-0.334836	1.338158	-0.027612	-0.013699	-0.002438
673	3.409469	0.005000	-0.162074	-0.002557	-10.121363	-0.232836	-0.334946	1.336321	-0.020294	-0.011165	0.001126
674	3.414469	0.005000	-0.234828	-0.000306	-10.124379	-0.232836	-0.335056	1.334483	-0.021951	-0.017260	0.004444
675	3.419469	0.005000	-0.153377	0.033866	-10.204191	-0.232836	-0.335165	1.332645	-0.007036	-0.014141	0.001076
676	3.424469	0.005000	-0.196200	0.078480	-10.128129	-0.232836	-0.335275	1.330808	0.001770	-0.002350	0.006352
677	3.429469	0.005000	-0.222370	0.026170	-10.235105	-0.232836	-0.335385	1.328970	0.013752	-0.006463	0.000215
678	3.434469	0.005000	-0.274680	0.000000	-10.132478	-0.232836	-0.335495	1.327133	0.019045	-0.018964	-0.004088
679	3.439469	0.005000	-0.224467	-0.010973	-10.174133	-0.232836	-0.335604	1.325295	0.010218	-0.020137	-0.003245
680	3.444469	0.005000	-0.182979	0.039240	-10.162736	-0.232836	-0.335714	1.323458	0.006052	-0.001347	-0.002739
681	3.449469	0.005000	-0.126321	0.000000	-10.163160	-0.232828	-0.335818	1.321673	-0.002508	-0.004679	0.010936
682	3.454469	0.005000	-0.152755	0.004205	-10.202400	-0.232498	-0.335708	1.321918	-0.017820	-0.006169	0.004064
683	3.459469	0.005000	-0.176634	0.039347	-10.104354	-0.232169	-0.335599	1.322163	-0.009840	-0.007999	0.009085
684	3.464469	0.005000	-0.152032	0.022084	-10.141076	-0.231840	-0.335489	1.322409	-0.007149	-0.017253	0.002088
685	3.469469	0.005000	-0.259468	-0.078480	-10.202400	-0.231510	-0.335379	1.322654	-0.004128	-0.001205	-0.013964
686	3.474469	0.005000	-0.196200	-0.064839	-10.227999	-0.231181	-0.335269	1.322899	-0.007898	-0.003731	0.000175
687	3.479469	0.005000	-0.224715	-0.196200	-10.377150	-0.230852	-0.335159	1.323144	-0.010993	-0.000548	0.000552
688	3.484469	0.005000	-0.226992	-0.056136	-10.272432	-0.230522	-0.335050	1.323389	-0.000846	-0.003691	0.008541
689	3.489469	0.005000	-0.223376	0.000000	-10.241640	-0.230193	-0.334940	1.323634	-0.003431	-0.007642	-0.002198
690	3.494469	0.005000	-0.117720	-0.039240	-10.210478	-0.229864	-0.334830	1.323879	-0.013837	-0.005697	0.006526
691	3.499469	0.005000	-0.116037	0.035873	-10.238273	-0.229535	-0.334720	1.324124	-0.016538	-0.012771	0.006555
692	3.504469	0.005000	-0.117460	-0.039240	-10.124180	-0.229205	-0.334610	1.324369	-0.015915	-0.009894	0.004092
693	3.509469	0.005000	-0.156960	-0.073124	-10.131955	-0.228876	-0.334501	1.324614	0.000127	-0.004887	-0.001777
694	3.514469	0.005000	-0.191178	-0.078480	-10.197378	-0.228547	-0.334391	1.324860	0.002349	-0.010082	-0.013013
695	3.519469	0.005000	-0.221385	0.071453	-10.177215	-0.228405	-0.334328	1.324895	-0.003598	-0.019393	0.002147
696	3.524469	0.005000	-0.295058	0.098858	-10.163160	-0.228515	-0.334328	1.324650	0.006113	-0.015016	0.000538
697	3.529469	0.005000	-0.179711	0.011375	-10.140409	-0.228624	-0.334328	1.324405	0.009777	-0.008548	-0.002159
698	3.534469	0.005000	-0.196200	0.129382	-10.163160	-0.228734	-0.334328	1.324160	0.011649	-0.012902	0.002912
699	3.539469	0.005000	-0.219435	0.055245	-10.218405	-0.228844	-0.334328	1.323915	0.018189	-0.012960	0.010058
700	3.544469	0.005000	-0.253583	-0.057383	-10.259783	-0.228954	-0.334328	1.323670	0.015954	-0.011198	0.008216
701	3.549469	0.005000	-0.215124	-0.078480	-10.202400	-0.229064	-0.334328	1.323425	0.006618	-0.009226	0.002468
702	3.554469	0.005000	-0.241194	-0.016743	-10.179903	-0.229173	-0.334328	1.323180	0.004451	-0.009731	-0.001409
703	3.559469	0.005000	-0.260350	0.000000	-10.216730	-0.229283	-0.334328	1.322935	-0.001008	-0.015626	0.004029
704	3.564469	0.005000	-0.223202	0.036714	-10.126446	-0.229393	-0.334328	1.322689	0.000315	-0.004673	-0.005666
705	3.569469	0.005000	-0.186222	0.078480	-10.064723	-0.229503	-0.334328	1.322444	0.014751	-0.010936	0.003941
706	3.574469	0.005000	-0.156960	0.015415	-10.124389	-0.229613	-0.334328	1.322199	0.009205	-0.012182	-0.005254
707	3.579469	0.005000	-0.235440	-0.106482	-10.269642	-0.229722	-0.334328	1.321954	0.018455	-0.010807	-0.000032
708	3.584469	0.005000	-0.232226	-0.029598	-10.189544	-0.229832	-0.334328	1.321709	-0.006151	-0.008352	-0.000598
709	3.589469	0.005000	-0.197456	0.079736	-10.008711	-0.230124	-0.334328	1.321971	0.002277	0.000153	-0.004789
710	3.594469	0.005000	-0.159226	0.117720	-10.046573	-0.230453	-0.334328	1.322339	-0.004803	-0.016568	0.000322
711	3.599469	0.005000	-0.156960	0.046259	-10.234621	-0.230782	-0.334328	1.322706	0.003402	-0.005213	-0.007444
712	3.604469	0.005000	-0.162454	0.061997	-10.230652	-0.231111	-0.334328	1.323074	0.002078	-0.009636	0.000354
713	3.609469	0.005000	-0.204006	0.133543	-10.100291	-0.231440	-0.334328	1.323442	0.005870	-0.001448	-0.000146
714	3.614469	0.005000	-0.196200	-0.019551	-10.290587	-0.231769	-0.334328	1.323809	0.013332	-0.004813	0.000902
715	3.619469	0.005000	-0.235440	-0.027123	-10.320120	-0.232098	-0.334328	1.324177	0.013744	-0.011173	0.002825
716	3.624469	0.005000	-0.224605	-0.089315	-10.280880	-0.232427	-0.334328	1.324544	0.007084	-0.008303	0.007034
717	3.629469	0.005000	-0.235440	-0.078480	-10.263998	-0.232756	-0.334328	1.324912	0.020663	-0.009282	0.009030
718	3.634469	0.005000	-0.235440	-0.097737	-10.182417	-0.233085	-0.334328	1.325279	0.011543	-0.001632	-0.008300
719	3.639469	0.005000	-0.253246	-0.064303	-10.220206	-0.233414	-0.334328	1.325647	0.003280	-0.005430	0.008041
720	3.644469	0.005000	-0.259008	-0.015672	-10.171056	-0.233743	-0.334328	1.326014	-0.005361	-0.018837	0.002199
721	3.649469	0.005000	-0.221988	-0.013452	-10.072345	-0.234073	-0.334328	1.326382	-0.016765	-0.006978	-0.000098
722	3.654469	0.005000	-0.156960	-0.089519	-10.219563	-0.234303	-0.334254	1.326777	-0.004245	-0.006195	-0.003598
723	3.659469	0.005000	-0.156960	0.039240	-10.220371	-0.234194	-0.333925	1.327267	-0.001671	-0.013221	-0.007025
724	3.664469	0.005000	-0.235440	0.052621	-10.189019	-0.234084	-0.333596	1.327757	0.000585	-0.005434	0.005835
725	3.669469	0.005000	-0.117720	0.000000	-10.232261	-0.233974	-0.333267	1.328247	0.005184	-0.005133	0.002549
726	3.674469	0.005000	-0.152277	0.002342	-10.200058	-0.233865	-0.332937	1.328737	0.002289	-0.000924	-0.003232
727	3.679469	0.005000	-0.078480	-0.039240	-10.124707	-0.233755	-0.332608	1.329228	0.008993	-0.007948	-0.000087
728	3.684469	0.005000	-0.152920	-0.002020	-10.239620	-0.233645	-0.332279	1.329718	0.018329	-0.003127	-0.005690
729	3.689469	0.005000	-0.156960	-0.078480	-10.249568	-0.233535	-0.331950	1.330208	0.007622	-0.006560	0.002505
730	3.694469	0.005000	-0.156960	-0.078480	-10.091049	-0.233426	-0.331621	1.330698	0.001558	-0.005498	0.004043
731	3.699469	0.005000	-0.265997	0.056606	-10.193717	-0.233316	-0.331291	1.331188	0.010482	-0.007606	0.002800
732	3.704469	0.005000	-0.274680	0.096263	-10.309392	-0.233206	-0.330962	1.331679	0.022135	-0.010817	-0.000248
733	3.709469	0.005000	-0.209168	0.026272	-10.267744	-0.233097	-0.330633	1.332169	0.028637	-0.011651	-0.013688
734	3.714469	0.005000	-0.226361	-0.024159	-10.145002	-0.232987	-0.330304	1.332659	0.040955	-0.008766	0.003906
735	3.719469	0.005000	-0.174453	-0.017493	-10.184907	-0.232877	-0.329974	1.333149	0.024080	-0.011764	-0.003192
736	3.724469	0.005000	-0.215865	-0.019665	-10.163251	-0.232767	-0.330194	1.333027	0.014499	-0.010433	0.004488
737	3.729469	0.005000	-0.218048	0.061088	-10.185008	-0.232658	-0.330743	1.332536	0.001331	-0.011549	-0.004930
738	3.734469	0.005000	-0.211189	0.078480	-10.232377	-0.232548	-0.331291	1.332046	0.002389	-0.008548	-0.000821
739	3.739469	0.005000	-0.156960	0.000000	-10.215551	-0.232438	-0.331840	1.331556	0.020141	-0.013134	0.000312
740	3.744469	0.005000	-0.178233	-0.010636	-10.262913	-0.232328	-0.332389	1.331066	0.028666	-0.002856	-0.006208
741	3.749469	0.005000	-0.274680	0.030648	-10.289472	-0.232218	-0.332938	1.330576	0.029009	-0.006559	0.004662
742	3.754469	0.005000	-0.268403	-0.039240	-10.163160	-0.232109	-0.333486	1.330085	0.013954	-0.009694	0.002449
743	3.759469	0.005000	-0.187638	0.008562	-10.206681	-0.231999	-0.334035	1.329595	0.008449	-0.012015	0.008488
744	3.764469	0.005000	-0.196200	0.115792	-10.082752	-0.231889	-0.334584	1.329105	0.002396	-0.014254	0.000329
745	3.769469	0.005000	-0.117751	-0.039194	-10.123889	-0.231779	-0.335133	1.328615	0.022059	-0.001486	-0.007563
746	3.774469	0.005000	-0.156960	0.071180	-10.276013	-0.231669	-0.335681	1.328125	0.021705	-0.012570	0.015596
747	3.779469	0.005000	-0.058361	-0.108160	-10.324900	-0.231560	-0.336230	1.327634	0.023102	-0.011258	-0.000788
748	3.784469	0.005000	-0.143395	0.025675	-10.209182	-0.231450	-0.336779	1.327144	0.007728	-0.008952	0.011397
749	3.789469	0.005000	-0.168607	0.000000	-10.202400	-0.231346	-0.337319	1.326670	-0.004592	-0.006423	0.005361
750	3.794469	0.005000	-0.190384	-0.022283	-10.359360	-0.231456	-0.337538	1.326793	-0.021544	-0.006586	-0.001288
751	3.799469	0.005000	-0.235440	0.051381	-10.202400	-0.231565	-0.337758	1.326915	-0.010988	-0.010640	-0.003920
752	3.804469	0.005000	-0.251203	0.008048	-10.304357	-0.231675	-0.337978	1.327038	0.009218	-0.002228	-0.010447
753	3.809469	0.005000	-0.210653	-0.057138	-10.181058	-0.231785	-0.338197	1.327160	0.030481	-0.013066	0.002995
754	3.814469	0.005000	-0.216274	0.058406	-10.240732	-0.231895	-0.338417	1.327283	0.041190	-0.004464	-0.001540
755	3.819469	0.005000	-0.235440	0.134916	-10.280880	-0.232005	-0.338636	1.327405	0.039599	-0.007489	0.000250
756	3.824469	0.005000	-0.141916	0.024196	-10.280880	-0.232114	-0.338856	1.327528	0.038307	-0.007549	0.014492
757	3.829469	0.005000	-0.078087	-0.078480	-10.215742	-0.232224	-0.339075	1.327650	0.041810	-0.005969	-0.001178
758	3.834469	0.005000	-0.185513	-0.028553	-10.230953	-0.232334	-0.339295	1.327773	0.043334	-0.012778	-0.000443
759	3.839469	0.005000	-0.227160	0.000000	-10.194120	-0.232444	-0.339515	1.327895	0.030611	-0.005413	-0.003342
760	3.844469	0.005000	-0.123983	0.000000	-10.175685	-0.232554	-0.339734	1.328018	0.032116	-0.006798	0.007044
761	3.849469	0.005000	-0.196200	0.043159	-10.084680	-0.232663	-0.339954	1.328140	0.025315	-0.013134	0.001042
762	3.854469	0.005000	-0.196200	0.003030	-10.087710	-0.232773	-0.340173	1.328263	0.036260	-0.009551	-0.001225
763	3.859469	0.005000	-0.196200	0.078480	-10.240783	-0.232742	-0.340111	1.328333	0.054626	-0.019209	0.009756
764	3.864469	0.005000	-0.196200	-0.036393	-10.238793	-0.232523	-0.339672	1.328333	0.064674	-0.009940	0.001299
765	3.869469	0.005000	-0.146583	-0.088857	-10.129109	-0.232303	-0.339233	1.328333	0.058025	-0.017271	0.003038
766	3.874469	0.005000	-0.203393	0.024854	-10.163160	-0.232084	-0.338795	1.328333	0.052803	-0.012088	0.000879
767	3.879469	0.005000	-0.117720	0.039240	-10.211885	-0.231865	-0.338356	1.328333	0.058362	-0.014355	0.007761
768	3.884469	0.005000	-0.117720	0.027696	-10.158552	-0.231645	-0.337917	1.328333	0.041454	-0.013134	0.013660
769	3.889469	0.005000	-0.143003	0.027915	-10.123920	-0.231426	-0.337478	1.328333	0.046825	-0.008672	0.002867
770	3.894469	0.005000	-0.150062	0.000000	-10.156262	-0.231206	-0.337039	1.328333	0.058180	-0.014384	0.007507
771	3.899469	0.005000	-0.117720	0.018311	-10.084680	-0.230987	-0.336600	1.328333	0.052100	-0.011830	0.008097
772	3.904469	0.005000	-0.214718	0.041444	-10.024718	-0.230767	-0.336161	1.328333	0.054191	-0.017715	0.003850
773	3.909469	0.005000	-0.196200	-0.067997	-10.208491	-0.230548	-0.335722	1.328333	0.053768	-0.015134	-0.010447
774	3.914469	0.005000	-0.288842	-0.010916	-10.177322	-0.230329	-0.335283	1.328333	0.046174	-0.015242	-0.007828
775	3.919469	0.005000	-0.313920	-0.016005	-10.257645	-0.230109	-0.334845	1.328333	0.020982	-0.015691	0.001100
776	3.924469	0.005000	-0.325142	0.048579	-10.232301	-0.229890	-0.334406	1.328333	0.008270	-0.011755	-0.011982
777	3.929469	0.005000	-0.281613	-0.069328	-10.047659	-0.230032	-0.334509	1.328232	0.016961	-0.016188	-0.005677
778	3.934469	0.005000	-0.078480	-0.455912	-10.075375	-0.230251	-0.334728	1.328110	0.019356	0.002352	0.005013
779	3.939469	0.005000	-0.086196	-0.272108	-10.922239	-0.230471	-0.334948	1.327987	-0.017143	0.004039	0.002918
780	3.944469	0.005000	-0.237981	-0.145675	-10.347924	-0.230690	-0.335167	1.327865	-0.061930	-0.013134	-0.000513
781	3.949469	0.005000	-0.354935	-1.919209	-9.877828	-0.230910	-0.335387	1.327742	-0.013889	-0.008898	0.007031
782	3.954469	0.005000	-0.462621	-1.425029	-10.130122	-0.231129	-0.335606	1.327620	-0.105684	0.006821	0.016379
783	3.959469	0.005000	-0.326168	-0.294185	-10.293128	-0.231349	-0.335826	1.327497	-0.287004	0.003959	0.017036
784	3.964469	0.005000	-0.173842	0.302514	-10.157684	-0.231568	-0.336045	1.327375	-0.366097	0.002483	0.020378
785	3.969469	0.005000	-0.060207	1.072366	-10.202400	-0.231788	-0.336265	1.327252	-0.291603	-0.003429	0.013509
786	3.974469	0.005000	-0.012891	1.177200	-10.359360	-0.232007	-0.336484	1.327130	-0.149587	-0.002219	0.011222
787	3.979469	0.005000	-0.150818	0.954043	-10.350374	-0.232227	-0.336704	1.327007	-0.029741	-0.006414	0.004200
788	3.984469	0.005000	-0.218192	0.461391	-10.119176	-0.232446	-0.336923	1.326885	0.096379	-0.002835	-0.008095
789	3.989469	0.005000	-0.294890	-0.020997	-10.045440	-0.232666	-0.337143	1.326762	0.136632	-0.024271	0.009981
790	3.994469	0.005000	-0.296283	-0.353160	-10.180797	-0.233403	-0.337535	1.327080	0.107638	-0.026127	-0.010334
791	3.999469	0.005000	-0.196200	-0.401185	-10.265652	-0.235928	-0.338523	1.328919	0.035984	-0.016534	0.006016
792	4.004469	0.005000	-0.156960	-0.194976	-10.110636	-0.238454	-0.339511	1.330758	-0.026824	-0.013270	0.001116
793	4.009469	0.005000	-0.167830	-0.067610	-10.191530	-0.240979	-0.340500	1.332597	-0.054861	-0.006225	-0.003788
794	4.014469	0.005000	-0.177624	-0.009288	-10.220976	-0.243505	-0.341488	1.334437	-0.059502	-0.000331	0.002810
795	4.019469	0.005000	-0.085474	-0.039240	-10.213664	-0.246030	-0.342476	1.336276	-0.043263	-0.001292	-0.006482
796	4.024469	0.005000	-0.240018	0.043818	-10.045440	-0.248556	-0.343464	1.338115	-0.025594	-0.006857	0.006142
797	4.029469	0.005000	-0.230173	0.002633	-9.932987	-0.251081	-0.344453	1.339954	-0.023913	-0.010152	-0.000070
798	4.034469	0.005000	-0.195741	0.195970	-10.163849	-0.253607	-0.345441	1.341794	-0.027788	-0.000558	0.000070
799	4.039469	0.005000	-0.155245	0.006859	-10.243355	-0.256132	-0.346429	1.343633	-0.021129	-0.003495	0.005586
800	4.044469	0.005000	-0.274680	-0.144564	-9.940116	-0.258658	-0.347417	1.345472	-0.006415	0.005676	-0.000428
801	4.049469	0.005000	-0.090632	-0.518981	-9.707722	-0.261183	-0.348406	1.347311	0.022189	0.006932	0.007530
802	4.054469	0.005000	-0.201513	-0.964036	-9.212918	-0.263709	-0.349394	1.349151	0.076510	0.011363	0.015114
803	4.059469	0.005000	-0.246211	-1.173358	-11.006472	-0.266234	-0.350382	1.350990	0.147621	0.021790	0.034579
804	4.064469	0.005000	-0.248280	-1.755118	-11.323923	-0.265709	-0.349291	1.349888	0.140112	0.002811	0.044755
805	4.069469	0.005000	-0.431640	-2.324267	-9.909174	-0.263406	-0.346988	1.347071	0.143919	-0.001766	0.067156
806	4.074469	0.005000	-0.527313	-2.050600	-9.684793	-0.261103	-0.344685	1.344255	0.141800	-0.000561	0.094677
807	4.079469	0.005000	-0.451245	-0.372367	-10.320273	-0.258801	-0.342383	1.341438	0.097297	0.024301	0.105215
808	4.084469	0.005000	-0.260824	1.694301	-10.737904	-0.256498	-0.340080	1.338622	0.046284	0.018123	0.098735
809	4.089469	0.005000	-0.187538	2.653031	-10.527018	-0.254195	-0.337777	1.335805	0.103392	0.011279	0.068751
810	4.094469	0.005000	-0.287871	2.144011	-10.293405	-0.251892	-0.335474	1.332989	0.351123	-0.010569	0.060284
811	4.099469	0.005000	-0.353160	1.669943	-10.102057	-0.249589	-0.333171	1.330172	0.832355	-0.022994	0.068157
812	4.104469	0.005000	-0.409449	1.909093	-10.018107	-0.247287	-0.330869	1.327356	1.386860	-0.012579	0.065057
813	4.109469	0.005000	-0.437749	2.233159	-10.402121	-0.244984	-0.328566	1.324540	1.896466	-0.028777	0.068450
814	4.114469	0.005000	-0.499009	1.442973	-10.755464	-0.242681	-0.326263	1.321723	2.301576	-0.034982	0.036338
815	4.119469	0.005000	-0.346201	0.682737	-10.705561	-0.240378	-0.323960	1.318907	2.554158	-0.042246	0.035834
816	4.124469	0.005000	-0.273364	0.711585	-10.825633	-0.238075	-0.321657	1.316090	2.772150	-0.045716	0.045135
817	4.129469	0.005000	-0.389375	0.126796	-11.234651	-0.235809	-0.319177	1.312865	2.981456	-0.049874	0.024695
818	4.134469	0.005000	-0.475886	0.411614	-11.306126	-0.235261	-0.308421	1.290558	3.171917	-0.038007	0.014230
819	4.139469	0.005000	-0.424303	1.054700	-11.379600	-0.234712	-0.297665	1.268252	3.437311	-0.028338	0.000160
820	4.144469	0.005000	-0.719237	0.938209	-11.786692	-0.234163	-0.286909	1.245946	3.926182	-0.006299	-0.004930
821	4.149469	0.005000	-0.996693	0.686692	-12.513625	-0.233614	-0.276152	1.223640	4.678388	-0.011507	-0.019964
822	4.154469	0.005000	-1.357768	1.461770	-12.401754	-0.233065	-0.265396	1.201334	5.541801	-0.005005	-0.041682
823	4.159469	0.005000	-1.558347	1.035749	-12.053677	-0.232517	-0.254640	1.179027	6.519812	-0.039434	-0.059195
824	4.164469	0.005000	-1.687320	0.562475	-12.831586	-0.231968	-0.243884	1.156721	7.639760	-0.038658	-0.088929
825	4.169469	0.005000	-1.397305	-0.187630	-13.554849	-0.231419	-0.233128	1.134415	8.757551	-0.077705	-0.111584
826	4.174469	0.005000	-1.195171	-1.336111	-13.658818	-0.230870	-0.222371	1.112109	9.745108	-0.119490	-0.156459
827	4.179469	0.005000	-0.908966	-2.684243	-13.692295	-0.230321	-0.211615	1.089803	10.003529	-0.162882	-0.187338
828	4.184469	0.005000	-0.615841	-2.921268	-13.646766	-0.229773	-0.200859	1.067496	10.003529	-0.222871	-0.199589
829	4.189469	0.005000	-0.205275	-3.580895	-12.766253	-0.229224	-0.190103	1.045190	10.003529	-0.290731	-0.248485
830	4.194469	0.005000	0.038199	-3.884760	-11.047966	-0.228675	-0.179347	1.022884	10.003529	-0.385828	-0.286771
831	4.199469	0.005000	0.218982	-3.609452	-8.832185	-0.227709	-0.173969	0.991622	10.003529	-0.492729	-0.319124
832	4.204469	0.005000	0.349870	-3.956904	-6.185779	-0.226172	-0.175944	0.948112	10.003529	-0.606812	-0.372426
833	4.209469	0.005000	0.156960	-4.662269	-2.036426	-0.224636	-0.177920	0.904603	10.003529	-0.717731	-0.421749
834	4.214469	0.005000	0.004285	-7.327840	2.375030	-0.223099	-0.179895	0.861093	10.003529	-0.831698	-0.474227
835	4.219469	0.005000	-0.624871	-12.756336	5.375972	-0.221563	-0.181871	0.817584	10.003529	-0.936346	-0.520600
836	4.224469	0.005000	-1.919943	-20.528598	6.826459	-0.220026	-0.183847	0.774075	10.003529	-0.994717	-0.541154
837	4.229469	0.005000	-2.069630	-27.598109	1.872901	-0.218490	-0.185822	0.730565	10.003529	-0.913372	-0.528533
838	4.234469	0.005000	-0.057428	-22.434165	-3.879202	-0.216953	-0.187798	0.687056	10.003529	-0.697698	-0.411996
839	4.239469	0.005000	1.270837	-25.707010	-2.780382	-0.215417	-0.189774	0.643546	10.001815	-0.473524	-0.351871
840	4.244469	0.005000	0.657653	-27.430321	-0.486582	-0.213880	-0.191749	0.600037	8.775563	-0.400794	-0.310393
841	4.249469	0.005000	-0.183221	-22.663475	-3.185308	-0.212343	-0.193725	0.556528	5.595535	-0.285825	-0.244843
842	4.254469	0.005000	-0.547079	-19.094141	-1.957897	-0.210807	-0.195701	0.513018	3.855321	-0.208881	-0.200884
843	4.259469	0.005000	0.141717	-16.094323	0.196766	-0.209270	-0.197676	0.469509	2.808397	-0.151505	-0.208530
844	4.264469	0.005000	1.552947	-10.984473	1.362107	-0.207734	-0.199652	0.425999	2.194551	-0.130725	-0.220287
845	4.269469	0.005000	1.729591	-9.226881	1.513626	-0.205927	-0.205242	0.412681	2.439863	-0.135861	-0.258789
846	4.274469	0.005000	1.003479	-9.642466	1.812089	-0.204062	-0.211605	0.405821	3.096661	-0.169630	-0.282181
847	4.279469	0.005000	0.559675	-10.386938	0.815745	-0.202197	-0.217968	0.398961	3.640881	-0.198834	-0.279855
848	4.284469	0.005000	0.041630	-11.336775	0.298702	-0.200332	-0.224331	0.392101	3.955555	-0.214586	-0.251027
849	4.289469	0.005000	-0.413528	-11.973482	-0.047538	-0.198467	-0.230694	0.385240	4.023720	-0.226581	-0.193465
850	4.294469	0.005000	-0.667080	-11.796848	-0.207713	-0.196602	-0.237057	0.378380	3.893038	-0.214238	-0.135070
851	4.299469	0.005000	-0.662466	-11.413303	-0.003691	-0.194737	-0.243420	0.371520	3.705846	-0.215910	-0.075278
852	4.304469	0.005000	-0.508650	-10.805698	-0.081420	-0.192872	-0.249783	0.364659	3.554796	-0.206983	-0.024249
853	4.309469	0.005000	-0.056311	-9.775904	0.185957	-0.191007	-0.256146	0.357799	3.507776	-0.215332	0.019768
854	4.314469	0.005000	0.396655	-8.826322	0.616178	-0.189142	-0.262509	0.350939	3.481582	-0.222050	0.043972
855	4.319469	0.005000	0.783348	-8.132271	0.627840	-0.187277	-0.268872	0.344078	3.452024	-0.213741	0.049441
856	4.324469	0.005000	1.068176	-7.682344	0.677261	-0.185412	-0.275235	0.337218	3.443847	-0.214794	0.067059
857	4.329469	0.005000	1.166059	-7.534080	0.467972	-0.183547	-0.281598	0.330358	3.456269	-0.214289	0.077321
858	4.334469	0.005000	1.206278	-7.849408	0.377861	-0.181850	-0.287649	0.324248	3.467344	-0.204945	0.097194
859	4.339469	0.005000	0.993524	-7.999617	0.225672	-0.180752	-0.292588	0.320817	3.381871	-0.179707	0.138252
860	4.344469	0.005000	0.368423	-7.273695	-0.179000	-0.179654	-0.297527	0.317385	3.222296	-0.158808	0.182243
861	4.349469	0.005000	-0.246643	-6.695470	-0.575132	-0.178557	-0.302466	0.313953	3.040785	-0.147172	0.232105
862	4.354469	0.005000	-0.775752	-6.624226	-0.430783	-0.177459	-0.307405	0.310521	2.865380	-0.132063	0.294451
863	4.359469	0.005000	-1.217454	-6.370298	-0.656703	-0.176362	-0.312344	0.307090	2.675101	-0.141062	0.367761
864	4.364469	0.005000	-1.283744	-6.115974	-1.227616	-0.175264	-0.317283	0.303658	2.574771	-0.131203	0.422327
865	4.369469	0.005000	-0.919615	-5.737365	-1.438504	-0.174166	-0.322222	0.300226	2.514052	-0.134892	0.480095
866	4.374469	0.005000	-0.142226	-4.955253	-1.313920	-0.173069	-0.327161	0.296794	2.474310	-0.161452	0.541400
867	4.379469	0.005000	0.366388	-4.325219	-0.714251	-0.171971	-0.332100	0.293363	2.499246	-0.170871	0.566590
868	4.384469	0.005000	0.378366	-4.740878	0.779933	-0.170873	-0.337039	0.289931	2.649659	-0.195606	0.601779
869	4.389469	0.005000	-0.392339	-5.414202	1.294369	-0.169776	-0.341978	0.286499	3.070085	-0.228920	0.631897
870	4.394469	0.005000	-0.390070	-4.162133	1.532327	-0.168678	-0.346917	0.283067	3.738339	-0.252475	0.668179
871	4.399469	0.005000	-0.514420	-1.384159	3.341307	-0.167581	-0.351856	0.279636	4.781764	-0.307732	0.690657
872	4.404469	0.005000	-0.516231	-0.145252	1.196563	-0.167232	-0.360540	0.273695	6.155127	-0.351545	0.678267
873	4.409469	0.005000	-0.300631	1.191745	1.627396	-0.167342	-0.371516	0.266219	7.474919	-0.446638	0.669165
874	4.414469	0.005000	0.181141	2.872616	2.758890	-0.167452	-0.382492	0.258742	8.634055	-0.493698	0.604114
875	4.419469	0.005000	0.690920	3.361328	3.947840	-0.167561	-0.393467	0.251266	9.546100	-0.524507	0.523960
876	4.424469	0.005000	1.021633	2.507180	3.741824	-0.167671	-0.404443	0.243790	9.996494	-0.542745	0.434211
877	4.429469	0.005000	1.783706	1.701492	3.271168	-0.167781	-0.415419	0.236314	10.003529	-0.523630	0.346978
878	4.434469	0.005000	2.491013	0.551687	2.297431	-0.167891	-0.426394	0.228837	9.976466	-0.514786	0.263884
879	4.439469	0.005000	2.668320	-0.503356	1.540583	-0.168001	-0.437370	0.221361	9.518879	-0.494246	0.187459
880	4.444469	0.005000	2.436632	-1.827428	1.319214	-0.168110	-0.448346	0.213885	8.648541	-0.469492	0.135676
881	4.449469	0.005000	1.912288	-2.884347	1.320335	-0.168220	-0.459322	0.206409	7.630143	-0.438369	0.099934
882	4.454469	0.005000	1.249085	-4.144025	1.266314	-0.168330	-0.470297	0.198933	6.612613	-0.386271	0.087737
883	4.459469	0.005000	0.813143	-5.344261	1.286564	-0.168440	-0.481273	0.191456	5.636019	-0.339307	0.103891
884	4.464469	0.005000	0.480418	-6.325923	1.035719	-0.168550	-0.492249	0.183980	4.673145	-0.281367	0.116062
885	4.469469	0.005000	0.097979	-6.710040	0.906468	-0.168679	-0.503052	0.176627	3.693094	-0.235051	0.147877
886	4.474469	0.005000	-0.202567	-6.579587	0.944943	-0.169666	-0.506125	0.174789	2.736640	-0.196139	0.184444
887	4.479469	0.005000	-0.391583	-5.663630	1.404471	-0.170654	-0.509198	0.172950	1.848009	-0.151455	0.220002
888	4.484469	0.005000	-0.546590	-5.210610	1.333701	-0.171642	-0.512271	0.171112	1.189215	-0.122254	0.243770
889	4.489469	0.005000	-1.064655	-4.602731	2.753690	-0.172630	-0.515345	0.169273	0.765242	-0.100389	0.269928
890	4.494469	0.005000	-0.808429	-4.799957	1.624966	-0.173618	-0.518418	0.167435	0.683429	-0.095536	0.306982
891	4.499469	0.005000	-2.024717	-5.286764	1.171354	-0.174605	-0.521491	0.165597	0.857875	-0.126221	0.331530
892	4.504469	0.005000	-2.279334	-3.883045	3.178455	-0.175593	-0.524564	0.163758	1.093718	-0.164793	0.354592
893	4.509469	0.005000	-2.578362	-3.287085	4.636993	-0.176581	-0.527637	0.161920	1.471911	-0.213080	0.344307
894	4.514469	0.005000	-2.520990	-3.024450	5.690520	-0.177569	-0.530710	0.160081	1.939010	-0.229307	0.330478
895	4.519469	0.005000	-2.232142	-2.700753	6.467460	-0.178557	-0.533783	0.158243	2.441931	-0.248098	0.318056
896	4.524469	0.005000	-1.619094	-1.784257	6.803013	-0.179544	-0.536857	0.156405	2.953202	-0.254520	0.291799
897	4.529469	0.005000	-0.874594	-0.519000	7.017086	-0.180532	-0.539930	0.154566	3.432203	-0.274968	0.258028
898	4.534469	0.005000	-0.268750	0.255438	7.144645	-0.181520	-0.543003	0.152728	3.865208	-0.275102	0.196548
899	4.539469	0.005000	0.333831	0.741810	7.400780	-0.182972	-0.545472	0.150423	4.145432	-0.278254	0.146533
900	4.544469	0.005000	0.626263	0.853864	7.348873	-0.185057	-0.547119	0.147481	4.130360	-0.269973	0.083812
901	4.549469	0.005000	0.941760	0.786683	7.300523	-0.187143	-0.548765	0.144540	3.848184	-0.253879	0.028671
902	4.554469	0.005000	0.960737	0.382269	7.102440	-0.189228	-0.550411	0.141598	3.350498	-0.231842	-0.002311
903	4.559469	0.005000	0.854022	0.141530	7.072458	-0.191314	-0.552058	0.138657	2.716884	-0.207634	-0.028031
904	4.564469	0.005000	0.662854	-0.157664	7.305683	-0.193399	-0.553704	0.135715	2.010268	-0.200100	-0.025143
905	4.569469	0.005000	0.131153	-0.196200	8.104210	-0.195484	-0.555350	0.132774	1.305265	-0.186056	-0.028665
906	4.574469	0.005000	-0.434442	-0.125008	9.383964	-0.197570	-0.556997	0.129832	0.722248	-0.167516	-0.034476
907	4.579469	0.005000	-1.228255	-0.066359	10.292695	-0.199655	-0.558643	0.126891	0.365133	-0.146433	-0.024628
908	4.584469	0.005000	-1.785723	0.030875	10.788413	-0.201740	-0.560290	0.123949	0.252260	-0.111441	-0.054449
909	4.589469	0.005000	-2.048499	-0.152185	10.987200	-0.203826	-0.561936	0.121008	0.287821	-0.090113	-0.060116
910	4.594469	0.005000	-1.987629	-1.314104	10.776593	-0.205911	-0.563582	0.118066	0.261975	-0.070585	-0.087978
911	4.599469	0.005000	-2.079720	-3.260549	10.457636	-0.207996	-0.565229	0.115125	0.181957	-0.062587	-0.106454
912	4.604469	0.005000	-2.040480	-5.562163	9.802685	-0.210082	-0.566875	0.112184	0.060553	-0.064198	-0.093488
913	4.609469	0.005000	-1.881886	-6.849286	9.219222	-0.213524	-0.566983	0.108939	-0.034379	-0.078850	-0.067919
914	4.614469	0.005000	-1.573412	-6.967006	9.163099	-0.217256	-0.566764	0.105630	-0.103240	-0.100591	-0.035978
915	4.619469	0.005000	-1.421272	-6.744566	10.552438	-0.220988	-0.566544	0.102321	-0.262691	-0.105573	-0.027985
916	4.624469	0.005000	-1.150788	-6.067481	12.454555	-0.224720	-0.566325	0.099011	-0.547526	-0.096913	-0.015398
917	4.629469	0.005000	-0.876079	-5.061118	13.313307	-0.228451	-0.566105	0.095702	-0.850378	-0.056698	-0.000272
918	4.634469	0.005000	-0.444196	-3.646174	13.126037	-0.232183	-0.565885	0.092393	-0.934283	-0.019186	0.000477
919	4.639469	0.005000	-0.254892	-2.281506	12.504368	-0.235915	-0.565666	0.089084	-0.740282	-0.013196	0.013665
920	4.644469	0.005000	-0.109361	-0.975886	12.486679	-0.239646	-0.565446	0.085775	-0.263833	-0.019474	0.032510
921	4.649469	0.005000	0.032534	0.428165	12.530972	-0.243378	-0.565227	0.082466	0.363307	-0.051913	0.046517
922	4.654469	0.005000	-0.117554	1.371902	12.713926	-0.247110	-0.565007	0.079156	1.078838	-0.091231	0.039498
923	4.659469	0.005000	0.037128	1.678872	11.993544	-0.250841	-0.564788	0.075847	1.736008	-0.096020	0.039603
924	4.664469	0.005000	0.039240	1.414049	11.067089	-0.254573	-0.564568	0.072538	2.311036	-0.112464	0.014081
925	4.669469	0.005000	-0.065558	0.770929	10.666344	-0.258305	-0.564349	0.069229	2.744597	-0.135469	-0.016571
926	4.674469	0.005000	-0.191058	-0.137799	10.442982	-0.261789	-0.564749	0.066446	2.987898	-0.166333	-0.048008
927	4.679469	0.005000	-0.313920	-1.004175	10.207755	-0.264423	-0.567273	0.065465	2.969403	-0.179702	-0.071788
928	4.684469	0.005000	-0.469992	-1.921428	10.241196	-0.267057	-0.569798	0.064485	2.784304	-0.191797	-0.095336
929	4.689469	0.005000	-0.714640	-2.459020	10.706560	-0.269691	-0.572322	0.063504	2.482218	-0.202056	-0.128920
930	4.694469	0.005000	-0.784800	-3.303001	11.256508	-0.272325	-0.574847	0.062523	2.110474	-0.216607	-0.147276
931	4.699469	0.005000	-0.844035	-4.274159	12.080669	-0.274960	-0.577371	0.061543	1.752931	-0.225541	-0.150230
932	4.704469	0.005000	-0.520225	-4.551840	12.647321	-0.277594	-0.579895	0.060562	1.449258	-0.207077	-0.168438
933	4.709469	0.005000	-0.230007	-4.354232	12.801698	-0.280228	-0.582420	0.059582	1.272576	-0.204900	-0.150479
934	4.714469	0.005000	-4.874201	-11.751064	23.799045	-0.282862	-0.584944	0.058601	1.248832	-0.194154	-0.141619
935	4.719469	0.005000	2.648417	-35.643010	-1.661522	-0.285496	-0.587468	0.057621	-0.789994	1.029368	-0.008559
936	4.724469	0.005000	4.585180	-17.608988	-5.450034	-0.288130	-0.589993	0.056640	-1.371083	0.071946	0.471257
937	4.729469	0.005000	-2.240538	1.556372	9.525736	-0.290765	-0.592517	0.055660	2.337334	0.145868	0.666190
938	4.734469	0.005000	-4.081327	11.516221	10.468617	-0.293399	-0.595042	0.054679	3.344720	0.210728	0.544317
939	4.739469	0.005000	-7.949110	7.820922	20.919277	-0.296033	-0.597566	0.053699	2.850636	0.196521	0.286507
940	4.744469	0.005000	-3.749318	-1.421333	13.929894	-0.298667	-0.598920	0.054409	1.175203	0.267395	0.157126
941	4.749469	0.005000	-2.526511	-3.373676	9.339518	-0.301301	-0.599579	0.056125	0.052202	0.163809	0.152021
942	4.754469	0.005000	-2.275721	-3.522735	9.737843	-0.303935	-0.600237	0.057841	-0.030268	0.140215	0.197752
943	4.759469	0.005000	-2.198832	-1.726711	11.186940	-0.306570	-0.600896	0.059557	0.368737	0.069131	0.223135
944	4.764469	0.005000	0.540881	-1.948548	8.854436	-0.309204	-0.601554	0.061273	-0.141343	0.063606	0.167173
945	4.769469	0.005000	0.046390	0.273532	4.914492	-0.311838	-0.602213	0.062989	-0.600124	-0.067192	0.116442
946	4.774469	0.005000	1.917556	-0.034974	9.917312	-0.314472	-0.602872	0.064705	0.659166	-0.002376	0.077055
947	4.779469	0.005000	0.879334	-0.239021	9.713675	-0.317106	-0.603530	0.066421	0.293179	-0.104565	0.023600
948	4.784469	0.005000	1.627335	-2.292103	10.604017	-0.319740	-0.604189	0.068137	0.736971	-0.016308	0.040152
949	4.789469	0.005000	1.207070	-0.436463	10.379860	-0.322375	-0.604847	0.069852	0.555309	-0.073182	0.043624
950	4.794469	0.005000	1.236527	-0.720023	9.830087	-0.325009	-0.605506	0.071568	0.653107	-0.035242	0.057208
951	4.799469	0.005000	0.575969	-0.223314	10.154739	-0.327643	-0.606165	0.073284	0.363455	-0.044008	0.035218
952	4.804469	0.005000	0.332025	-1.397535	9.939780	-0.330277	-0.606823	0.075000	0.341292	-0.024742	0.021555
953	4.809469	0.005000	-0.138565	-0.788067	10.127187	-0.332770	-0.607454	0.076583	0.337548	-0.030256	0.008932
954	4.814469	0.005000	-0.658705	-0.975259	9.875022	-0.330465	-0.607124	0.073641	0.194672	-0.013310	0.003056
955	4.819469	0.005000	-0.852659	-1.010797	9.923588	-0.328160	-0.606795	0.070700	0.087900	-0.020069	-0.017054
956	4.824469	0.005000	-0.863280	-1.061684	9.757292	-0.325855	-0.606466	0.067758	-0.007797	-0.017555	-0.019504
957	4.829469	0.005000	-0.701574	-1.144605	10.049237	-0.323551	-0.606136	0.064817	0.010754	-0.008076	-0.026082
958	4.834469	0.005000	-0.357139	-1.221414	9.743457	-0.321246	-0.605807	0.061875	0.002543	0.014180	-0.035536
959	4.839469	0.005000	-0.206275	-1.297219	10.001783	-0.318941	-0.605478	0.058934	0.083790	0.027788	-0.018233
960	4.844469	0.005000	0.445833	-1.678302	10.252495	-0.316636	-0.605148	0.055993	-0.053488	0.022810	-0.024572
961	4.849469	0.005000	0.126282	-1.347185	9.569568	-0.314331	-0.604819	0.053051	-0.192333	-0.009010	-0.033093
962	4.854469	0.005000	0.578469	-2.558589	9.956400	-0.312026	-0.604490	0.050110	-0.078725	0.026619	-0.018305
963	4.859469	0.005000	0.075571	-1.345796	9.562450	-0.309721	-0.604161	0.047168	-0.183716	-0.012369	-0.024915
964	4.864469	0.005000	0.199108	-2.730333	10.123920	-0.307417	-0.603831	0.044227	-0.023727	0.020665	-0.027483
965	4.869469	0.005000	0.000000	-1.262003	9.715062	-0.305112	-0.603502	0.041285	-0.082366	-0.020657	-0.024476
966	4.874469	0.005000	0.297204	-2.185822	10.111077	-0.302807	-0.603173	0.038344	0.169240	0.001833	-0.020589
967	4.879469	0.005000	0.295494	-0.900133	10.108555	-0.301399	-0.603457	0.036772	0.154523	-0.030265	-0.015568
968	4.884469	0.005000	0.216241	-1.628039	9.504041	-0.301179	-0.604554	0.037017	0.428579	-0.001559	-0.037359
969	4.889469	0.005000	-0.025338	-2.109990	10.051945	-0.300959	-0.605652	0.037263	0.423551	-0.022022	-0.034751
970	4.894469	0.005000	-0.074225	-2.409556	9.939382	-0.300740	-0.606750	0.037508	0.522428	-0.024554	-0.042341
971	4.899469	0.005000	-0.196200	-2.256708	9.830845	-0.300520	-0.607847	0.037753	0.518638	-0.017709	-0.035623
972	4.904469	0.005000	-0.171566	-2.075142	9.488777	-0.300301	-0.608945	0.037998	0.596171	-0.020759	-0.016689
973	4.909469	0.005000	-0.323715	-1.682423	9.618697	-0.300081	-0.610042	0.038243	0.666041	-0.030154	-0.028541
974	4.914469	0.005000	-0.561038	-1.617599	9.794116	-0.299862	-0.611140	0.038488	0.739654	-0.040081	-0.034296
975	4.919469	0.005000	-0.786408	-1.887807	10.439983	-0.299642	-0.612237	0.038733	0.799414	-0.031393	-0.036051
976	4.924469	0.005000	-1.016016	-2.537928	10.519136	-0.299422	-0.613335	0.038978	0.836087	-0.024399	-0.036241
977	4.929469	0.005000	-1.279671	-2.920127	10.520132	-0.299203	-0.614432	0.039223	0.835441	-0.019144	-0.021815
978	4.934469	0.005000	-1.412640	-3.166931	10.404354	-0.298983	-0.615530	0.039468	0.763423	-0.000679	-0.005648
979	4.939469	0.005000	-1.443720	-3.014881	10.398600	-0.298764	-0.616627	0.039714	0.639691	-0.000365	0.020227
980	4.944469	0.005000	-1.229465	-2.759825	10.079370	-0.298544	-0.617725	0.039959	0.502107	0.012144	0.031726
981	4.949469	0.005000	-0.793952	-2.206592	9.995365	-0.298051	-0.618366	0.040713	0.372637	0.010962	0.043330
982	4.954469	0.005000	-0.245454	-1.560130	9.785509	-0.297502	-0.618915	0.041571	0.248323	0.027639	0.044120
983	4.959469	0.005000	0.027865	-0.914278	9.518831	-0.296953	-0.619464	0.042429	0.135105	0.025069	0.058025
984	4.964469	0.005000	0.237679	-0.269083	9.299880	-0.296405	-0.620013	0.043287	0.111825	0.018421	0.054488
985	4.969469	0.005000	0.328719	0.554518	9.173789	-0.295856	-0.620561	0.044145	0.133101	0.008844	0.050449
986	4.974469	0.005000	0.557771	1.138898	9.127036	-0.295307	-0.621110	0.045003	0.248809	-0.015344	0.046343
987	4.979469	0.005000	0.708050	1.253950	9.195817	-0.294758	-0.621659	0.045861	0.425927	-0.029941	0.023456
988	4.984469	0.005000	0.622086	0.874268	9.232649	-0.294210	-0.622208	0.046719	0.624263	-0.048517	0.010487
989	4.989469	0.005000	0.415050	0.454290	9.212095	-0.293661	-0.622757	0.047577	0.780672	-0.066600	-0.009072
990	4.994469	0.005000	0.254011	0.108733	9.306770	-0.293112	-0.623305	0.048435	0.822760	-0.066366	-0.033162
991	4.999469	0.005000	0.127610	-0.525277	9.392874	-0.292564	-0.623854	0.049293	0.733148	-0.061179	-0.052868
992	5.004469	0.005000	0.068314	-1.106344	9.182160	-0.292015	-0.624403	0.050151	0.528264	-0.049233	-0.065159
993	5.009469	0.005000	-0.196200	-1.333570	9.067980	-0.291466	-0.624952	0.051009	0.264840	-0.046257	-0.071619
994	5.014469	0.005000	-0.420800	-0.995453	9.487047	-0.291147	-0.625501	0.051496	0.011209	-0.032776	-0.073180
995	5.019469	0.005000	-0.691316	-0.646595	9.759507	-0.291586	-0.626049	0.050761	-0.140775	-0.029322	-0.069443
996	5.024469	0.005000	-0.857112	-0.311686	9.915385	-0.292025	-0.626598	0.050025	-0.156857	-0.029974	-0.074793
997	5.029469	0.005000	-0.894409	-0.266569	10.060346	-0.292464	-0.627147	0.049290	-0.031900	-0.033472	-0.087596
998	5.034469	0.005000	-0.988686	-0.468048	10.327806	-0.292903	-0.627696	0.048554	0.164535	-0.045679	-0.093677
999	5.039469	0.005000	-1.046698	-0.970003	10.437840	-0.293342	-0.628245	0.047819	0.325701	-0.051390	-0.098342
1000	5.044469	0.005000	-1.010751	-1.529074	10.780226	-0.293781	-0.628793	0.047084	0.466976	-0.055472	-0.089069
1001	5.049469	0.005000	-0.986601	-2.135764	11.054462	-0.294220	-0.629342	0.046348	0.557936	-0.066433	-0.086500
1002	5.054469	0.005000	-1.080271	-2.532932	10.847908	-0.294659	-0.629891	0.045613	0.593580	-0.070736	-0.083245
1003	5.059469	0.005000	-1.152270	-2.786040	10.623269	-0.295098	-0.630440	0.044878	0.572374	-0.067093	-0.075746
1004	5.064469	0.005000	-1.090991	-2.684175	10.359559	-0.295537	-0.630989	0.044142	0.490574	-0.054717	-0.076274
1005	5.069469	0.005000	-1.032993	-2.483894	10.071437	-0.295976	-0.631538	0.043407	0.377667	-0.059669	-0.057471
1006	5.074469	0.005000	-0.716941	-1.961311	9.753451	-0.296415	-0.632086	0.042672	0.264984	-0.051068	-0.048144
1007	5.079469	0.005000	-0.365714	-1.220099	9.517530	-0.296854	-0.632635	0.041936	0.182024	-0.043674	-0.032682
1008	5.084469	0.005000	-0.170696	-0.842677	9.253772	-0.296945	-0.632836	0.041356	0.120752	-0.033969	-0.034885
1009	5.089469	0.005000	-0.143324	-0.501029	9.177615	-0.296836	-0.632836	0.040866	0.136116	-0.035695	-0.019136
1010	5.094469	0.005000	0.239696	-0.390272	9.184288	-0.296726	-0.632836	0.040376	0.155399	-0.036045	-0.012222
1011	5.099469	0.005000	0.313553	-0.274864	9.340039	-0.296616	-0.632836	0.039886	0.197134	-0.031757	-0.018125
1012	5.104469	0.005000	0.272487	-0.388013	9.683506	-0.296506	-0.632836	0.039396	0.251962	-0.023019	-0.016737
1013	5.109469	0.005000	0.348996	-0.763978	9.735684	-0.296397	-0.632836	0.038906	0.270621	-0.015115	-0.000154
1014	5.114469	0.005000	0.307339	-1.229357	9.810000	-0.296287	-0.632836	0.038416	0.276042	0.001456	-0.002783
1015	5.119469	0.005000	0.035519	-1.273439	9.740400	-0.296177	-0.632836	0.037926	0.248902	0.013142	0.020376
1016	5.124469	0.005000	-0.259263	-1.283989	9.674903	-0.296067	-0.632836	0.037436	0.187574	0.022534	0.025886
1017	5.129469	0.005000	-0.392400	-1.269025	9.744865	-0.295958	-0.632836	0.036946	0.117468	0.037905	0.029627
1018	5.134469	0.005000	-0.364378	-2.123031	11.867330	-0.295848	-0.632836	0.036456	-0.005919	0.047089	0.024097
1019	5.139469	0.005000	-0.453181	-1.585783	9.863096	-0.295738	-0.632836	0.035966	-0.020345	0.034518	0.042790
1020	5.144469	0.005000	-0.529014	-0.785768	10.104542	-0.295629	-0.632836	0.035476	0.097204	0.047526	0.042824
1021	5.149469	0.005000	-0.514973	-0.583747	9.780880	-0.295519	-0.632852	0.035018	0.013031	0.037172	0.035011
1022	5.154469	0.005000	-0.313920	-0.932653	10.048586	-0.295409	-0.633401	0.035631	-0.092660	0.019301	0.034807
1023	5.159469	0.005000	-0.066359	-0.929639	10.123920	-0.295299	-0.633950	0.036243	-0.094539	0.009964	0.030137
1024	5.164469	0.005000	-0.039240	-0.567748	9.896441	-0.295190	-0.634498	0.036856	-0.059355	-0.009301	0.023356
1025	5.169469	0.005000	0.016761	-0.496021	9.952861	-0.295080	-0.635047	0.037469	-0.024419	-0.013582	0.007312
1026	5.174469	0.005000	0.039240	-0.555436	9.964175	-0.294970	-0.635596	0.038082	-0.001870	-0.010253	-0.002675
1027	5.179469	0.005000	0.039240	-0.702236	10.186063	-0.294860	-0.636145	0.038695	0.049857	-0.023421	0.003158
1028	5.184469	0.005000	0.116005	-0.619266	9.845811	-0.294751	-0.636694	0.039307	0.141348	-0.017477	-0.000619
1029	5.189469	0.005000	0.001361	-0.508759	9.847879	-0.294641	-0.637242	0.039920	0.238216	-0.030494	0.006355
1030	5.194469	0.005000	-0.154327	-0.742927	9.815267	-0.294531	-0.637791	0.040533	0.326527	-0.030923	0.011253
1031	5.199469	0.005000	-0.220464	-0.961032	10.093968	-0.294422	-0.638340	0.041146	0.375756	-0.026584	0.012534
1032	5.204469	0.005000	-0.074210	-0.727302	9.877216	-0.294312	-0.638889	0.041759	0.423672	-0.028051	0.006714
1033	5.209469	0.005000	0.167999	-0.687519	10.007838	-0.294202	-0.639438	0.042371	0.446344	-0.020668	0.018223
1034	5.214469	0.005000	0.156960	-0.488342	9.955620	-0.294092	-0.639987	0.042984	0.439748	-0.017409	0.018177
1035	5.219469	0.005000	0.247183	-0.480617	10.057183	-0.294125	-0.640441	0.043386	0.400389	-0.008744	0.004093
1036	5.224469	0.005000	0.219732	-0.816201	9.880626	-0.294344	-0.640770	0.043508	0.365415	-0.011226	0.014741
1037	5.229469	0.005000	0.135825	-0.923655	9.969990	-0.294564	-0.641099	0.043631	0.304718	-0.013308	0.007511
1038	5.234469	0.005000	0.292349	-0.829244	9.377604	-0.294783	-0.641428	0.043754	0.244403	-0.005600	-0.003869
1039	5.239469	0.005000	0.084160	-0.740140	10.192081	-0.295003	-0.641758	0.043876	0.139249	-0.017482	-0.004059
1040	5.244469	0.005000	0.034505	-0.754576	9.460213	-0.295222	-0.642087	0.043999	0.185968	-0.013696	-0.029541
1041	5.249469	0.005000	-0.219095	-1.457757	9.981346	-0.295442	-0.642416	0.044121	0.216440	-0.004276	-0.014958
1042	5.254469	0.005000	-0.441653	-0.892507	9.680644	-0.295661	-0.642745	0.044244	0.071119	-0.017742	-0.021332
1043	5.259469	0.005000	-0.596572	-0.894548	10.054032	-0.295881	-0.643075	0.044366	0.048773	0.011862	-0.009458
1044	5.264469	0.005000	-0.667080	-0.700657	9.837915	-0.296100	-0.643404	0.044489	-0.013107	-0.011961	-0.012547
1045	5.269469	0.005000	-0.631516	-0.756588	9.942424	-0.296320	-0.643733	0.044612	0.026898	-0.002959	-0.012678
1046	5.274469	0.005000	-0.706320	-0.817533	10.231229	-0.296539	-0.644062	0.044734	0.065280	-0.010159	-0.016955
1047	5.279469	0.005000	-0.860769	-0.705065	9.889108	-0.296759	-0.644391	0.044857	0.072095	-0.010904	-0.023138
1048	5.284469	0.005000	-0.712411	-0.932623	10.003154	-0.296978	-0.644721	0.044979	0.081348	-0.002385	-0.015146
1049	5.289469	0.005000	-0.661695	-0.761716	9.831541	-0.297472	-0.644959	0.045408	0.028882	-0.012687	-0.015726
1050	5.294469	0.005000	-0.564150	-0.816645	10.008466	-0.298021	-0.645178	0.045899	0.029639	-0.007933	-0.016823
1051	5.299469	0.005000	-0.402210	-0.647460	9.888480	-0.298570	-0.645398	0.046389	0.006573	-0.012581	-0.009318
1052	5.304469	0.005000	-0.365378	-0.654862	9.984352	-0.299119	-0.645618	0.046880	0.015593	-0.011481	-0.015116
1053	5.309469	0.005000	-0.249602	-0.499204	9.956044	-0.299668	-0.645837	0.047370	0.016355	-0.006212	-0.001084
1054	5.314469	0.005000	-0.219057	-0.431640	9.996292	-0.300217	-0.646057	0.047861	0.023775	-0.006898	-0.011786
1055	5.319469	0.005000	-0.175478	-0.408714	9.964756	-0.300766	-0.646276	0.048351	0.040598	0.001514	-0.007671
1056	5.324469	0.005000	-0.177889	-0.329613	9.912027	-0.301315	-0.646496	0.048842	0.051563	-0.011151	-0.010917
1057	5.329469	0.005000	-0.212371	-0.604771	9.881582	-0.301864	-0.646716	0.049332	0.091683	-0.009471	-0.014678
1058	5.334469	0.005000	-0.249397	-0.734235	10.017525	-0.302413	-0.646935	0.049823	0.094793	-0.018365	-0.005646
1059	5.339469	0.005000	-0.313920	-0.754777	9.978504	-0.302962	-0.647155	0.050313	0.108101	-0.012526	-0.005998
1060	5.344469	0.005000	-0.343675	-0.598085	10.054925	-0.303511	-0.647374	0.050804	0.111805	-0.015234	-0.004450
1061	5.349469	0.005000	-0.281876	-0.581404	9.927720	-0.304060	-0.647594	0.051294	0.122775	-0.012676	-0.012348
1062	5.354469	0.005000	-0.353160	-0.588600	10.016699	-0.304294	-0.647787	0.051608	0.136150	-0.012150	-0.017385
1063	5.359469	0.005000	-0.350346	-0.627840	9.812814	-0.303526	-0.647897	0.051363	0.139173	-0.010635	-0.015827
1064	5.364469	0.005000	-0.548931	-0.705891	9.926863	-0.302758	-0.648007	0.051118	0.144082	-0.011622	-0.030839
1065	5.369469	0.005000	-0.661020	-0.629355	10.037864	-0.301990	-0.648117	0.050873	0.132656	-0.014131	-0.011092
1066	5.374469	0.005000	-0.557199	-0.588600	10.045440	-0.301222	-0.648226	0.050628	0.148784	-0.008046	-0.013563
1067	5.379469	0.005000	-0.477143	-0.621577	9.868028	-0.300454	-0.648336	0.050383	0.179478	-0.021911	-0.017721
1068	5.384469	0.005000	-0.470880	-0.544671	9.958322	-0.299686	-0.648446	0.050138	0.207080	-0.018691	-0.023991
1069	5.389469	0.005000	-0.335293	-0.677767	10.024067	-0.298918	-0.648555	0.049893	0.212420	-0.013844	-0.033659
1070	5.394469	0.005000	-0.313920	-0.758902	9.953618	-0.298150	-0.648665	0.049648	0.240144	-0.015932	-0.014413
1071	5.399469	0.005000	-0.202092	-0.706320	9.951916	-0.297382	-0.648775	0.049403	0.259062	-0.016400	-0.020545
1072	5.404469	0.005000	-0.235440	-0.728106	9.993079	-0.296614	-0.648885	0.049158	0.287658	-0.012450	-0.020697
1073	5.409469	0.005000	-0.196200	-0.686685	9.947295	-0.295846	-0.648994	0.048913	0.308287	-0.019071	-0.013598
1074	5.414469	0.005000	-0.095911	-0.723751	9.923343	-0.295078	-0.649104	0.048668	0.315616	-0.017410	-0.011278
1075	5.419469	0.005000	-0.180891	-0.824040	9.921034	-0.294310	-0.649214	0.048422	0.316642	-0.023166	-0.007480
1076	5.424469	0.005000	-0.222350	-0.693260	9.862330	-0.294309	-0.649742	0.048722	0.314376	-0.024246	-0.015655
1077	5.429469	0.005000	-0.256782	-0.581374	9.970405	-0.294748	-0.650510	0.049335	0.302712	-0.013813	0.001130
1078	5.434469	0.005000	-0.344537	-0.658457	10.036817	-0.295187	-0.651278	0.049948	0.266325	-0.019978	-0.008270
1079	5.439469	0.005000	-0.359481	-0.503799	10.072039	-0.295626	-0.652046	0.050561	0.257747	-0.023792	-0.004653
