# FOX Logger (IMU file)
# (c) INRIA 2011-2014
# File created from file sensbiotk output
#
# File format:
# id	t	dt	ax	ay	az	mx	my	mz	gx	gy	gz
#
# Units:
#	Time: s
#	Acceleration: m.s^-2
#	Magneto: gauss
#	Gyrometer: rad/s
#
1	0.029449	0.029449	9.696963	0.681129	1.883520	0.083582	0.228358	-0.183333	0.015948	-0.006858	0.004210
2	0.034449	0.005000	9.776915	0.724784	1.844280	0.084246	0.228912	-0.183457	0.015210	-0.005555	-0.005627
3	0.039449	0.005000	9.746794	0.674717	1.631750	0.084911	0.229466	-0.183580	0.010001	-0.007011	0.005419
4	0.044449	0.005000	9.714046	0.824040	1.687320	0.085575	0.230019	-0.183704	0.000693	-0.003612	0.007649
5	0.049449	0.005000	9.770760	0.853040	1.745320	0.086240	0.230573	-0.183828	0.006567	0.000025	-0.004744
6	0.054449	0.005000	9.759033	0.918306	1.754073	0.086904	0.231127	-0.183951	0.018441	-0.014012	0.003436
7	0.059449	0.005000	9.796770	0.758790	1.778580	0.087569	0.231681	-0.184075	0.004943	-0.002111	-0.005102
8	0.064449	0.005000	9.731520	0.809495	1.726560	0.088233	0.232234	-0.184199	0.004482	-0.000124	-0.001428
9	0.069449	0.005000	9.723759	0.973022	1.726560	0.088898	0.232788	-0.184323	0.002355	-0.001906	0.008802
10	0.074449	0.005000	9.758274	0.880522	1.687320	0.089562	0.233342	-0.184446	0.021868	0.000161	-0.004844
11	0.079449	0.005000	9.828729	0.824040	1.665028	0.090227	0.233896	-0.184570	0.007510	-0.007700	0.004084
12	0.084449	0.005000	9.713689	0.803824	1.570793	0.090891	0.234450	-0.184694	0.006863	-0.004294	0.010619
13	0.089449	0.005000	9.695953	0.884737	1.565927	0.091556	0.235003	-0.184817	0.008507	-0.016639	0.003330
14	0.094449	0.005000	9.653040	0.840345	1.742865	0.092220	0.235557	-0.184941	0.004054	0.001083	0.010218
15	0.099449	0.005000	9.682700	0.863280	1.780630	0.092421	0.235705	-0.184806	0.023223	-0.005943	0.000486
16	0.104449	0.005000	9.654326	0.876789	1.740069	0.092200	0.235484	-0.184435	0.013186	-0.002279	0.005076
17	0.109449	0.005000	9.719499	0.745560	1.805040	0.091978	0.235262	-0.184064	0.022600	-0.007577	-0.007759
18	0.114449	0.005000	9.710474	0.716843	1.783994	0.091757	0.235041	-0.183693	0.037511	-0.006557	0.009668
19	0.119449	0.005000	9.662437	0.696923	1.696717	0.091536	0.234820	-0.183323	0.037074	-0.006362	-0.000949
20	0.124449	0.005000	9.786254	0.698405	1.765800	0.091314	0.234598	-0.182952	0.048537	-0.004030	-0.000591
21	0.129449	0.005000	9.757716	0.621318	1.791996	0.091093	0.234377	-0.182581	0.045908	-0.001459	-0.003273
22	0.134449	0.005000	9.726501	0.706320	1.736598	0.090871	0.234155	-0.182210	0.037329	0.002815	-0.007380
23	0.139449	0.005000	9.695812	0.749092	1.644548	0.090650	0.233934	-0.181839	0.038924	0.006113	0.007409
24	0.144449	0.005000	9.735579	0.671139	1.689349	0.090429	0.233713	-0.181468	0.033187	0.002313	-0.010146
25	0.149449	0.005000	9.653040	0.746555	1.651065	0.090207	0.233491	-0.181097	0.028177	-0.011464	-0.000344
26	0.154449	0.005000	9.614280	0.784800	1.804560	0.089986	0.233270	-0.180727	0.012252	-0.001550	-0.004358
27	0.159449	0.005000	9.688345	0.751462	1.846247	0.089764	0.233048	-0.180356	0.021568	-0.014986	-0.000621
28	0.164449	0.005000	9.731520	0.742090	1.583480	0.089552	0.232796	-0.180020	0.015903	-0.011830	0.000313
29	0.169449	0.005000	9.662839	0.750459	1.760901	0.089552	0.231799	-0.180515	0.018519	-0.007248	0.000519
30	0.174449	0.005000	9.685898	0.627840	1.805040	0.089552	0.230802	-0.181010	0.023221	0.004821	0.014586
31	0.179449	0.005000	9.699762	0.642805	1.773282	0.089552	0.229805	-0.181504	0.017066	-0.003474	0.009522
32	0.184449	0.005000	9.692280	0.757891	1.726560	0.089552	0.228808	-0.181999	0.018748	-0.014435	0.008436
33	0.189449	0.005000	9.721048	0.774328	1.640257	0.089552	0.227812	-0.182494	0.011076	0.001930	-0.002952
34	0.194449	0.005000	9.692280	0.760881	1.648080	0.089552	0.226815	-0.182988	0.022196	-0.002387	-0.007544
35	0.199449	0.005000	9.757471	0.771511	1.686692	0.089552	0.225818	-0.183483	0.028012	-0.003530	-0.001607
36	0.204449	0.005000	9.721218	0.834342	1.662549	0.089552	0.224821	-0.183978	0.026017	-0.003281	-0.002757
37	0.209449	0.005000	9.738817	0.831337	1.664052	0.089552	0.223825	-0.184473	0.031619	-0.000916	-0.000031
38	0.214449	0.005000	9.731520	0.832684	1.608840	0.089552	0.222828	-0.184967	0.020889	0.009808	-0.001953
39	0.219449	0.005000	9.690505	0.805308	1.648080	0.089552	0.221831	-0.185462	0.018560	-0.003291	0.003616
40	0.224449	0.005000	9.672071	0.806188	1.746769	0.089552	0.220834	-0.185957	0.013255	-0.008454	-0.004331
41	0.229449	0.005000	9.762523	0.767239	1.648080	0.089552	0.219837	-0.186451	0.014076	-0.007523	-0.009916
42	0.234449	0.005000	9.793718	0.706320	1.703602	0.089365	0.220153	-0.186388	0.022951	-0.008640	0.014879
43	0.239449	0.005000	9.770760	0.696638	1.648080	0.089032	0.221482	-0.185893	0.010012	-0.008057	0.003986
44	0.244449	0.005000	9.835645	0.771205	1.661675	0.088700	0.222811	-0.185398	0.016185	-0.009774	-0.006759
45	0.249449	0.005000	9.770760	0.772679	1.711562	0.088368	0.224140	-0.184904	0.005603	-0.001544	0.012859
46	0.254449	0.005000	9.749227	0.717087	1.787333	0.088036	0.225469	-0.184409	0.014868	-0.006545	-0.001702
47	0.259449	0.005000	9.731520	0.794079	1.777202	0.087704	0.226798	-0.183914	0.006355	-0.002503	0.011182
48	0.264449	0.005000	9.700060	0.847720	1.742120	0.087371	0.228127	-0.183420	-0.002443	0.000184	0.008802
49	0.269449	0.005000	9.705656	0.791488	1.661456	0.087039	0.229456	-0.182925	0.003591	-0.010244	0.011334
50	0.274449	0.005000	9.736725	0.824040	1.755389	0.086707	0.230785	-0.182430	0.018089	-0.011809	-0.006334
51	0.279449	0.005000	9.813780	0.824040	1.734120	0.086375	0.232114	-0.181936	0.014630	-0.031757	-0.005862
52	0.284449	0.005000	9.770760	0.821763	1.765800	0.086043	0.233443	-0.181441	0.018585	-0.029686	0.010457
53	0.289449	0.005000	9.769180	0.784010	1.726560	0.085710	0.234771	-0.180946	0.027547	-0.016172	0.004123
54	0.294449	0.005000	9.770295	0.823575	1.726560	0.085378	0.236100	-0.180451	0.029844	-0.025167	0.011720
55	0.299449	0.005000	9.736725	0.863280	1.762330	0.085094	0.237323	-0.180000	0.015492	-0.012259	-0.000106
56	0.304449	0.005000	9.737964	0.673524	1.765800	0.085316	0.237433	-0.180000	0.020696	-0.021713	-0.005433
57	0.309449	0.005000	9.736229	0.740851	1.790912	0.085537	0.237544	-0.180000	0.002098	-0.015761	-0.002627
58	0.314449	0.005000	9.791589	0.667080	1.732697	0.085759	0.237655	-0.180000	-0.000499	-0.018647	-0.010276
59	0.319449	0.005000	9.802391	0.730342	1.711342	0.085980	0.237766	-0.180000	0.001021	-0.017248	-0.000591
60	0.324449	0.005000	9.701371	0.754651	1.648080	0.086201	0.237876	-0.180000	-0.011127	-0.011101	-0.010759
61	0.329449	0.005000	9.674168	0.727448	1.694868	0.086423	0.237987	-0.180000	-0.022516	-0.002405	0.002197
62	0.334449	0.005000	9.774865	0.694608	1.738272	0.086644	0.238098	-0.180000	-0.033286	-0.007743	-0.002939
63	0.339449	0.005000	9.705494	0.627437	1.726560	0.086866	0.238209	-0.180000	-0.031445	-0.015089	0.004473
64	0.344449	0.005000	9.756059	0.770099	1.657917	0.087087	0.238319	-0.180000	-0.018646	-0.020539	0.005808
65	0.349449	0.005000	9.754571	0.706320	1.719697	0.087308	0.238430	-0.180000	-0.023668	-0.011316	-0.006919
66	0.354449	0.005000	9.748997	0.688843	1.674128	0.087530	0.238541	-0.180000	-0.021605	-0.031659	0.006649
67	0.359449	0.005000	9.690948	0.746892	1.608840	0.087751	0.238652	-0.180000	-0.016065	-0.019310	-0.001023
68	0.364449	0.005000	9.673471	0.685889	1.588409	0.087973	0.238762	-0.180000	-0.025282	-0.016974	0.006785
69	0.369449	0.005000	9.727353	0.745560	1.665616	0.087926	0.238404	-0.180224	-0.016590	-0.005088	0.006878
70	0.374449	0.005000	9.738662	0.824040	1.632031	0.087705	0.237740	-0.180595	-0.012337	-0.013664	-0.002218
71	0.379449	0.005000	9.746072	0.863280	1.613257	0.087483	0.237075	-0.180966	0.002720	-0.012254	0.018206
72	0.384449	0.005000	9.718144	0.758936	1.686432	0.087262	0.236411	-0.181337	-0.005580	-0.008416	0.005994
73	0.389449	0.005000	9.731520	0.730112	1.699216	0.087040	0.235746	-0.181708	-0.006388	-0.018438	0.007559
74	0.394449	0.005000	9.720970	0.688179	1.687320	0.086819	0.235082	-0.182079	0.005129	-0.010075	0.007412
75	0.399449	0.005000	9.731520	0.763654	1.714461	0.086597	0.234417	-0.182451	-0.002110	-0.013684	-0.002339
76	0.404449	0.005000	9.794880	0.808920	1.749240	0.086376	0.233753	-0.182822	0.023271	-0.007938	-0.005190
77	0.409449	0.005000	9.705197	0.778342	1.778717	0.086154	0.233088	-0.183193	0.013716	-0.004953	-0.016614
78	0.414449	0.005000	9.775736	0.745560	1.736512	0.085933	0.232424	-0.183564	0.025074	-0.014377	0.002618
79	0.419449	0.005000	9.656546	0.749066	1.844280	0.085711	0.231759	-0.183935	0.027331	-0.004541	0.005028
80	0.424449	0.005000	9.694315	0.747595	1.767835	0.085490	0.231095	-0.184306	0.031927	-0.007697	0.004402
81	0.429449	0.005000	9.653040	0.784800	1.726009	0.085268	0.230430	-0.184677	0.019417	-0.005849	0.002443
82	0.434449	0.005000	9.729661	0.784800	1.649009	0.085132	0.229680	-0.185016	0.013697	-0.011809	0.000336
83	0.439449	0.005000	9.729117	0.711126	1.724157	0.085575	0.228352	-0.185140	0.034992	-0.005842	0.016087
84	0.444449	0.005000	9.696153	0.733940	1.663574	0.086017	0.227024	-0.185263	0.028167	0.002147	0.005567
85	0.449449	0.005000	9.839356	0.701378	1.746033	0.086460	0.225695	-0.185387	0.042270	-0.008255	0.009380
86	0.454449	0.005000	9.816444	0.634284	1.654524	0.086903	0.224367	-0.185510	0.037600	-0.006007	0.018008
87	0.459449	0.005000	9.770760	0.619908	1.734492	0.087346	0.223038	-0.185634	0.033692	-0.019179	0.016051
88	0.464449	0.005000	9.692280	0.528958	1.588438	0.087789	0.221710	-0.185758	0.036460	-0.013930	0.023075
89	0.469449	0.005000	9.703202	0.577678	1.698242	0.088231	0.220381	-0.185881	0.023370	-0.002016	0.017108
90	0.474449	0.005000	9.692280	0.696506	1.569600	0.088674	0.219053	-0.186005	0.029234	-0.004270	0.032563
91	0.479449	0.005000	9.692280	0.641583	1.595097	0.089117	0.217725	-0.186129	0.023923	-0.008550	0.038284
92	0.484449	0.005000	9.716302	0.627840	1.632862	0.089560	0.216396	-0.186252	0.015190	-0.011237	0.036288
93	0.489449	0.005000	9.663063	0.657057	1.618863	0.090003	0.215068	-0.186376	0.015098	0.003706	0.035960
94	0.494449	0.005000	9.653040	0.766885	1.623346	0.090445	0.213739	-0.186500	0.009163	-0.007555	0.024326
95	0.499449	0.005000	9.593971	0.687327	1.510531	0.090888	0.212411	-0.186623	0.021710	-0.000085	0.048422
96	0.504449	0.005000	9.710867	0.706320	1.664600	0.091045	0.212727	-0.186507	0.013582	0.006159	0.037515
97	0.509449	0.005000	9.753650	0.701300	1.608840	0.091045	0.213945	-0.186260	0.020775	-0.011995	0.041129
98	0.514449	0.005000	9.731520	0.721952	1.734537	0.091045	0.215163	-0.186013	0.007466	0.000722	0.031245
99	0.519449	0.005000	9.745850	0.749309	1.662410	0.091045	0.216381	-0.185765	0.014599	-0.001807	0.039035
100	0.524449	0.005000	9.679453	0.810454	1.608840	0.091045	0.217600	-0.185518	0.020566	0.003971	0.043612
101	0.529449	0.005000	9.703620	0.851940	1.703880	0.091045	0.218818	-0.185270	0.021433	-0.002114	0.038520
102	0.534449	0.005000	9.731520	0.863280	1.608840	0.091045	0.220036	-0.185023	0.042957	-0.004408	0.037093
103	0.539449	0.005000	9.692280	0.754283	1.696043	0.091045	0.221254	-0.184776	0.050711	0.002068	0.033943
104	0.544449	0.005000	9.763518	0.831282	1.758558	0.091045	0.222473	-0.184528	0.056900	-0.001090	0.027752
105	0.549449	0.005000	9.625481	0.824040	1.759960	0.091045	0.223691	-0.184281	0.061381	0.011554	0.037384
106	0.554449	0.005000	9.653040	0.924410	1.726560	0.091045	0.224909	-0.184033	0.065523	0.000532	0.041051
107	0.559449	0.005000	9.725819	0.829741	1.687320	0.091045	0.226127	-0.183786	0.060384	0.003913	0.047198
108	0.564449	0.005000	9.578172	0.822234	1.616064	0.091045	0.227346	-0.183539	0.041133	0.004436	0.044426
109	0.569449	0.005000	9.692280	0.824713	1.765800	0.091026	0.228470	-0.183291	0.040242	-0.000279	0.034814
110	0.574449	0.005000	9.692280	0.902520	1.841956	0.090916	0.229134	-0.183044	0.032692	0.013804	0.034272
111	0.579449	0.005000	9.692280	0.941760	1.658676	0.090805	0.229799	-0.182797	0.023956	0.006587	0.029459
112	0.584449	0.005000	9.727418	0.898418	1.683218	0.090694	0.230463	-0.182550	0.026157	0.009339	0.028957
113	0.589449	0.005000	9.663388	0.936586	1.844280	0.090583	0.231127	-0.182302	0.021205	0.006698	0.015720
114	0.594449	0.005000	9.698941	0.798123	1.856875	0.090473	0.231791	-0.182055	0.030074	-0.010091	0.015596
115	0.599449	0.005000	9.723356	0.770052	1.687320	0.090362	0.232455	-0.181808	0.014109	-0.000859	0.004072
116	0.604449	0.005000	9.770760	0.784800	1.676695	0.090251	0.233120	-0.181561	0.018063	-0.010443	0.001182
117	0.609449	0.005000	9.798862	0.852142	1.687320	0.090140	0.233784	-0.181314	0.019062	0.003324	0.010637
118	0.614449	0.005000	9.680119	0.742803	1.657483	0.090030	0.234448	-0.181066	0.002740	-0.008752	-0.006535
119	0.619449	0.005000	9.717856	0.771136	1.738473	0.089919	0.235112	-0.180819	0.013648	-0.006414	0.004089
120	0.624449	0.005000	9.692280	0.793739	1.838068	0.089808	0.235776	-0.180572	-0.016394	-0.008651	0.003283
121	0.629449	0.005000	9.675828	0.863280	1.726560	0.089697	0.236441	-0.180325	0.009388	-0.015657	0.001620
122	0.634449	0.005000	9.710208	0.859896	1.584145	0.089587	0.237105	-0.180078	-0.001348	-0.004350	-0.003676
123	0.639449	0.005000	9.712114	0.863280	1.609269	0.089324	0.237237	-0.180000	0.009696	0.001520	-0.007257
124	0.644449	0.005000	9.789342	0.784800	1.724483	0.088992	0.237126	-0.180000	-0.001119	0.004990	-0.004274
125	0.649449	0.005000	9.787847	0.801887	1.799974	0.088660	0.237016	-0.180000	-0.010498	0.003626	-0.011732
126	0.654449	0.005000	9.707880	0.761160	1.789440	0.088327	0.236905	-0.180000	-0.015045	-0.014835	0.000243
127	0.659449	0.005000	9.717423	0.745560	1.816085	0.087995	0.236794	-0.180000	-0.013436	-0.002521	0.002352
128	0.664449	0.005000	9.718124	0.627840	1.831833	0.087663	0.236683	-0.180000	-0.017396	-0.007837	-0.004382
129	0.669449	0.005000	9.786825	0.667080	1.765800	0.087331	0.236573	-0.180000	-0.002986	-0.001422	-0.002493
130	0.674449	0.005000	9.731520	0.607670	1.726560	0.086999	0.236462	-0.180000	-0.008913	-0.000666	-0.013087
131	0.679449	0.005000	9.653040	0.627840	1.743756	0.086666	0.236351	-0.180000	0.003052	-0.006690	-0.009562
132	0.684449	0.005000	9.724409	0.692099	1.758689	0.086334	0.236241	-0.180000	0.011164	0.001489	-0.012592
133	0.689449	0.005000	9.776775	0.673095	1.738589	0.086002	0.236130	-0.180000	0.019042	-0.012442	-0.001278
134	0.694449	0.005000	9.766228	0.780268	1.805040	0.085670	0.236019	-0.180000	0.000839	-0.019739	-0.006911
135	0.699449	0.005000	9.767699	0.748621	1.729621	0.085338	0.235908	-0.180000	0.006110	-0.022161	-0.007705
136	0.704449	0.005000	9.695471	0.786396	1.765800	0.085145	0.235775	-0.180026	-0.007055	-0.020373	0.004612
137	0.709449	0.005000	9.849132	0.784583	1.765692	0.085477	0.235553	-0.180150	-0.005256	-0.014895	-0.002812
138	0.714449	0.005000	9.772137	0.592732	1.688697	0.085809	0.235332	-0.180273	-0.006250	-0.030421	0.008243
139	0.719449	0.005000	9.770760	0.661385	1.760105	0.086141	0.235110	-0.180397	-0.000157	-0.029218	0.002985
140	0.724449	0.005000	9.700915	0.784800	1.726560	0.086473	0.234889	-0.180521	-0.003742	-0.034285	0.006796
141	0.729449	0.005000	9.759978	0.745560	1.726560	0.086805	0.234668	-0.180644	-0.005633	-0.030983	0.006791
142	0.734449	0.005000	9.738414	0.609281	1.719666	0.087137	0.234446	-0.180768	0.010327	-0.028257	-0.002409
143	0.739449	0.005000	9.700661	0.759657	1.757419	0.087469	0.234225	-0.180891	-0.000654	-0.029348	0.005512
144	0.744449	0.005000	9.633328	0.784800	1.697084	0.087801	0.234003	-0.181015	-0.005437	-0.011179	-0.007728
145	0.749449	0.005000	9.692280	0.824040	1.715322	0.088133	0.233782	-0.181139	-0.000073	-0.026289	-0.002226
146	0.754449	0.005000	9.731520	0.811322	1.582318	0.088465	0.233561	-0.181262	0.000779	-0.018224	0.003258
147	0.759449	0.005000	9.742999	0.787201	1.648080	0.088797	0.233339	-0.181386	-0.016923	-0.014048	0.001065
148	0.764449	0.005000	9.707663	0.815566	1.663463	0.089129	0.233118	-0.181510	-0.015863	-0.024630	-0.001892
149	0.769449	0.005000	9.737414	0.762233	1.709887	0.089461	0.232896	-0.181633	-0.000412	-0.017379	-0.004123
150	0.774449	0.005000	9.689342	0.863280	1.702532	0.089713	0.233158	-0.181667	0.009197	-0.013706	-0.005117
151	0.779449	0.005000	9.692729	0.803746	1.550205	0.089935	0.233601	-0.181667	0.019976	-0.016517	-0.005013
152	0.784449	0.005000	9.710637	0.745560	1.666437	0.090156	0.234044	-0.181667	0.032172	-0.016166	-0.006594
153	0.789449	0.005000	9.770760	0.683935	1.748945	0.090378	0.234487	-0.181667	0.022798	-0.015164	0.005605
154	0.794449	0.005000	9.786128	0.690952	1.711192	0.090599	0.234930	-0.181667	0.021935	-0.009857	-0.016347
155	0.799449	0.005000	9.720634	0.642017	1.751623	0.090821	0.235373	-0.181667	0.017393	-0.000809	0.003384
156	0.804449	0.005000	9.758058	0.574765	1.792338	0.091042	0.235816	-0.181667	0.020879	0.008763	-0.001079
157	0.809449	0.005000	9.720298	0.655858	1.659302	0.091264	0.236259	-0.181667	0.022904	-0.000305	0.006113
158	0.814449	0.005000	9.790258	0.686578	1.658074	0.091485	0.236702	-0.181667	0.000281	0.007432	0.012183
159	0.819449	0.005000	9.770760	0.683811	1.718195	0.091707	0.237145	-0.181667	0.001219	0.000179	0.016041
160	0.824449	0.005000	9.849240	0.738682	1.705925	0.091928	0.237588	-0.181667	0.005392	-0.007708	0.009880
161	0.829449	0.005000	9.765384	0.768673	1.653456	0.092150	0.238031	-0.181667	0.001331	-0.004451	0.003763
162	0.834449	0.005000	9.735408	0.702432	1.808928	0.092371	0.238474	-0.181667	0.018383	-0.010478	0.022665
163	0.839449	0.005000	9.697945	0.703488	1.805040	0.092426	0.238723	-0.181667	0.020240	-0.006521	0.021469
164	0.844449	0.005000	9.773484	0.706320	1.688682	0.091983	0.238390	-0.181667	0.033563	-0.013405	0.026269
165	0.849449	0.005000	9.810124	0.628088	1.687444	0.091540	0.238058	-0.181667	0.036256	-0.008185	0.013598
166	0.854449	0.005000	9.733131	0.550971	1.728171	0.091097	0.237726	-0.181667	0.036323	-0.002131	0.015024
167	0.859449	0.005000	9.728444	0.552436	1.539588	0.090654	0.237394	-0.181667	0.026392	-0.005739	0.023514
168	0.864449	0.005000	9.692280	0.609652	1.717466	0.090211	0.237061	-0.181667	0.022060	0.000816	0.012058
169	0.869449	0.005000	9.776383	0.622217	1.726560	0.089768	0.236729	-0.181667	0.034641	-0.006597	0.025832
170	0.874449	0.005000	9.770760	0.627840	1.726560	0.089325	0.236397	-0.181667	0.010917	-0.002916	0.030867
171	0.879449	0.005000	9.801387	0.579987	1.639467	0.088882	0.236064	-0.181667	0.029400	-0.009547	0.011265
172	0.884449	0.005000	9.673241	0.627840	1.745599	0.088439	0.235732	-0.181667	0.021301	-0.005643	0.023052
173	0.889449	0.005000	9.692280	0.789651	1.687320	0.087996	0.235400	-0.181667	0.008845	-0.002952	0.016183
174	0.894449	0.005000	9.770760	0.849914	1.739497	0.087553	0.235068	-0.181667	0.010563	-0.017667	0.032908
175	0.899449	0.005000	9.770760	0.863280	1.690418	0.087110	0.234735	-0.181667	0.021249	-0.006342	0.015164
176	0.904449	0.005000	9.755145	0.705917	1.577206	0.086667	0.234403	-0.181667	0.026010	-0.004659	0.017076
177	0.909449	0.005000	9.748623	0.706320	1.586703	0.086824	0.234585	-0.182050	0.025420	-0.006509	0.008985
178	0.914449	0.005000	9.750110	0.826100	1.747210	0.087156	0.234917	-0.182544	0.014067	0.001877	0.009866
179	0.919449	0.005000	9.711428	0.825930	1.706468	0.087488	0.235249	-0.183039	0.021276	0.003042	0.010781
180	0.924449	0.005000	9.788673	0.706320	1.787127	0.087820	0.235581	-0.183533	0.007406	0.009479	0.007958
181	0.929449	0.005000	9.770760	0.745560	1.732927	0.088153	0.235914	-0.184027	0.013856	-0.002592	0.006137
182	0.934449	0.005000	9.824958	0.721278	1.687320	0.088485	0.236246	-0.184522	0.011301	0.001833	-0.003551
183	0.939449	0.005000	9.835592	0.667080	1.673672	0.088817	0.236578	-0.185016	0.015604	0.003519	0.010203
184	0.944449	0.005000	9.782905	0.706320	1.690124	0.089149	0.236910	-0.185511	0.020350	-0.012555	0.005399
185	0.949449	0.005000	9.720862	0.674346	1.626764	0.089481	0.237242	-0.186005	0.021766	-0.005254	-0.014233
186	0.954449	0.005000	9.722349	0.606942	1.717389	0.089813	0.237574	-0.186499	0.032373	-0.004781	0.008252
187	0.959449	0.005000	9.707617	0.596268	1.711223	0.090145	0.237906	-0.186994	0.015032	0.002092	0.006405
188	0.964449	0.005000	9.764192	0.569064	1.687320	0.090478	0.238239	-0.187488	0.026494	-0.001088	0.004969
189	0.969449	0.005000	9.658199	0.588600	1.692479	0.090810	0.238571	-0.187983	0.008511	0.004140	0.014904
190	0.974449	0.005000	9.763448	0.627840	1.801384	0.091013	0.238838	-0.188117	0.009647	-0.001063	0.001897
191	0.979449	0.005000	9.696618	0.625671	1.722222	0.090902	0.238949	-0.187375	0.000700	-0.002769	0.004602
192	0.984449	0.005000	9.808867	0.550493	1.723161	0.090791	0.239060	-0.186633	-0.014511	0.001259	-0.005334
193	0.989449	0.005000	9.654062	0.705298	1.686638	0.090680	0.239171	-0.185891	-0.004130	-0.001749	0.005076
194	0.994449	0.005000	9.729699	0.704499	1.724739	0.090570	0.239281	-0.185149	-0.013648	-0.000538	0.005486
195	0.999449	0.005000	9.649748	0.706320	1.729852	0.090459	0.239392	-0.184407	-0.016188	-0.011168	-0.000572
196	1.004449	0.005000	9.692280	0.740785	1.721785	0.090348	0.239503	-0.183665	-0.011038	-0.007672	0.011584
197	1.009449	0.005000	9.647184	0.718032	1.693176	0.090237	0.239614	-0.182923	-0.013103	0.007966	-0.007295
198	1.014449	0.005000	9.692280	0.649869	1.741246	0.090126	0.239725	-0.182181	-0.010417	-0.004676	0.008371
199	1.019449	0.005000	9.701019	0.706320	1.648080	0.090016	0.239835	-0.181439	-0.007082	-0.001656	-0.004386
200	1.024449	0.005000	9.711104	0.726736	1.755592	0.089905	0.239946	-0.180697	-0.007224	-0.007905	-0.006400
201	1.029449	0.005000	9.770760	0.796155	1.793685	0.089794	0.240057	-0.179954	0.005219	-0.010865	-0.004151
202	1.034449	0.005000	9.744362	0.824040	1.752958	0.089683	0.240168	-0.179212	0.002501	-0.012566	0.002868
203	1.039449	0.005000	9.653040	0.888175	1.740905	0.089573	0.240278	-0.178470	0.012080	-0.005449	0.004276
204	1.044449	0.005000	9.668687	0.808393	1.687320	0.089552	0.239577	-0.178434	0.012005	-0.005128	-0.003128
205	1.049449	0.005000	9.736509	0.841165	1.591715	0.089552	0.238691	-0.178557	0.005851	-0.017115	0.007053
206	1.054449	0.005000	9.791398	0.780727	1.648080	0.089552	0.237805	-0.178681	-0.001844	-0.016784	0.001228
207	1.059449	0.005000	9.731071	0.745560	1.628685	0.089552	0.236919	-0.178805	0.004114	-0.018905	-0.005713
208	1.064449	0.005000	9.774184	0.702896	1.787132	0.089552	0.236033	-0.178929	0.005205	-0.020117	-0.003723
209	1.069449	0.005000	9.770760	0.873257	1.811469	0.089552	0.235147	-0.179052	-0.010369	-0.010966	-0.006063
210	1.074449	0.005000	9.653040	0.784800	1.680951	0.089552	0.234261	-0.179176	0.015522	-0.020465	0.006359
211	1.079449	0.005000	9.717624	0.743112	1.622736	0.089552	0.233375	-0.179300	0.014518	-0.009410	0.007396
212	1.084449	0.005000	9.719127	0.654687	1.674927	0.089552	0.232489	-0.179423	0.021665	-0.003807	-0.000550
213	1.089449	0.005000	9.692280	0.667080	1.698226	0.089552	0.231603	-0.179547	0.018886	-0.005398	0.005323
214	1.094449	0.005000	9.692280	0.667080	1.707753	0.089552	0.230716	-0.179671	0.035889	0.005440	-0.010680
215	1.099449	0.005000	9.762844	0.674996	1.561684	0.089552	0.229830	-0.179794	0.026718	-0.011981	-0.000206
216	1.104449	0.005000	9.763947	0.607401	1.648080	0.089552	0.228944	-0.179918	0.017780	-0.009539	-0.008347
217	1.109449	0.005000	9.663722	0.577918	1.632056	0.089589	0.228658	-0.180042	0.046761	-0.002975	-0.006976
218	1.114449	0.005000	9.727662	0.549360	1.612698	0.089700	0.229543	-0.180165	0.016529	0.010291	-0.007654
219	1.119449	0.005000	9.810000	0.507703	1.616090	0.089811	0.230429	-0.180289	0.012209	0.011612	-0.007011
220	1.124449	0.005000	9.768932	0.552102	1.687320	0.089922	0.231315	-0.180413	0.008087	0.005096	0.001856
221	1.129449	0.005000	9.692280	0.589733	1.764667	0.090032	0.232200	-0.180536	-0.009069	0.016898	0.004325
222	1.134449	0.005000	9.690229	0.474982	1.728611	0.090143	0.233086	-0.180660	-0.003676	0.004627	0.011985
223	1.139449	0.005000	9.767240	0.438680	1.697880	0.090254	0.233971	-0.180784	-0.005793	0.017230	0.014403
224	1.144449	0.005000	9.844249	0.465889	1.584573	0.090365	0.234857	-0.180907	-0.021078	0.009095	0.003593
225	1.149449	0.005000	9.803927	0.516193	1.608840	0.090475	0.235743	-0.181031	-0.019622	0.006720	0.012112
226	1.154449	0.005000	9.739095	0.502545	1.821554	0.090586	0.236628	-0.181155	-0.026588	0.003142	0.004929
227	1.159449	0.005000	9.731520	0.558316	1.744473	0.090697	0.237514	-0.181278	-0.024915	-0.000504	0.009384
228	1.164449	0.005000	9.673915	0.635768	1.629715	0.090808	0.238400	-0.181402	-0.020130	0.005247	0.011494
229	1.169449	0.005000	9.746937	0.663574	1.690826	0.090918	0.239285	-0.181526	-0.014093	0.000360	0.004444
230	1.174449	0.005000	9.810015	0.824055	1.634990	0.091029	0.240171	-0.181649	-0.022534	-0.002411	0.011743
231	1.179449	0.005000	9.731520	0.784800	1.682874	0.091045	0.239541	-0.181350	-0.005923	-0.016995	0.003469
232	1.184449	0.005000	9.715455	0.840105	1.655191	0.091045	0.238655	-0.180979	-0.002403	-0.016475	0.016378
233	1.189449	0.005000	9.788312	0.758976	1.730696	0.091045	0.237769	-0.180608	-0.018594	0.002216	0.001335
234	1.194449	0.005000	9.769168	0.824040	1.685728	0.091045	0.236883	-0.180237	-0.011054	-0.009345	0.012117
235	1.199449	0.005000	9.711219	0.901157	1.649443	0.091045	0.235997	-0.179866	-0.001733	0.002653	0.013627
236	1.204449	0.005000	9.674604	0.898632	1.612728	0.091045	0.235111	-0.179494	-0.001407	0.006421	0.010229
237	1.209449	0.005000	9.754587	0.870174	1.539639	0.091045	0.234225	-0.179123	0.010030	0.001360	0.003852
238	1.214449	0.005000	9.706966	0.853412	1.662766	0.091045	0.233339	-0.178752	0.016427	-0.000687	-0.001162
239	1.219449	0.005000	9.639841	0.862924	1.713718	0.091045	0.232452	-0.178381	0.029151	-0.001532	0.007523
240	1.224449	0.005000	9.692280	0.733531	1.820222	0.091045	0.231566	-0.178010	0.031296	0.003644	-0.005455
241	1.229449	0.005000	9.653040	0.638389	1.755251	0.091045	0.230680	-0.177639	0.041938	-0.005016	0.003491
242	1.234449	0.005000	9.653040	0.763933	1.696506	0.091045	0.229794	-0.177268	0.045838	0.000983	-0.000626
243	1.239449	0.005000	9.660724	0.894836	1.726560	0.091045	0.228908	-0.176897	0.045639	0.000472	-0.011070
244	1.244449	0.005000	9.692280	0.869477	1.714167	0.091087	0.227855	-0.176995	0.034599	-0.010187	0.004512
245	1.249449	0.005000	9.697394	0.750674	1.692434	0.091198	0.226527	-0.177860	0.018790	0.006898	-0.003296
246	1.254449	0.005000	9.699565	0.667080	1.726560	0.091308	0.225199	-0.178725	0.034159	-0.011388	0.002094
247	1.259449	0.005000	9.768601	0.706320	1.695955	0.091419	0.223871	-0.179589	0.018657	0.011740	-0.003930
248	1.264449	0.005000	9.693674	0.667080	1.723772	0.091529	0.222544	-0.180454	0.020090	0.005083	-0.003650
249	1.269449	0.005000	9.770760	0.705524	1.684933	0.091640	0.221216	-0.181319	0.032788	0.008122	-0.004263
250	1.274449	0.005000	9.729254	0.704054	1.765800	0.091751	0.219888	-0.182184	0.016005	0.012560	-0.009949
251	1.279449	0.005000	9.774075	0.667080	1.811670	0.091861	0.218560	-0.183049	0.029522	-0.002315	-0.004431
252	1.284449	0.005000	9.770760	0.706320	1.839462	0.091972	0.217233	-0.183914	0.019051	0.010777	-0.006398
253	1.289449	0.005000	9.737825	0.516425	1.844280	0.092082	0.215905	-0.184779	0.007724	-0.002115	-0.005752
254	1.294449	0.005000	9.739312	0.651496	1.742144	0.092193	0.214577	-0.185643	0.005686	-0.001738	0.001897
255	1.299449	0.005000	9.662223	0.657897	1.599657	0.092304	0.213249	-0.186508	-0.022360	-0.008099	-0.002621
256	1.304449	0.005000	9.731520	0.645768	1.773072	0.092414	0.211922	-0.187373	0.002331	-0.008874	0.013108
257	1.309449	0.005000	9.734351	0.630671	1.765800	0.092525	0.210594	-0.188238	-0.020381	-0.010651	-0.011863
258	1.314449	0.005000	9.758134	0.784118	1.831654	0.092340	0.212025	-0.187893	-0.014827	-0.008919	-0.004932
259	1.319449	0.005000	9.726377	0.799594	1.726560	0.092118	0.213797	-0.187398	-0.009605	-0.011770	-0.005791
260	1.324449	0.005000	9.715232	0.745560	1.687320	0.091897	0.215569	-0.186903	-0.003852	-0.004869	-0.010012
261	1.329449	0.005000	9.770760	0.866951	1.730231	0.091675	0.217341	-0.186409	-0.000799	-0.008224	-0.000211
262	1.334449	0.005000	9.770760	0.706320	1.627886	0.091454	0.219113	-0.185914	0.006411	-0.004690	-0.007889
263	1.339449	0.005000	9.710997	0.764277	1.683708	0.091232	0.220885	-0.185419	0.002051	-0.014690	-0.002227
264	1.344449	0.005000	9.709519	0.775277	1.748561	0.091011	0.222657	-0.184925	0.007282	-0.000401	-0.005467
265	1.349449	0.005000	9.692280	0.879043	1.687320	0.090789	0.224429	-0.184430	0.032623	-0.011623	-0.007138
266	1.354449	0.005000	9.574560	0.859667	1.776471	0.090568	0.226201	-0.183936	0.021987	0.003669	0.002043
267	1.359449	0.005000	9.705246	0.667080	1.818347	0.090346	0.227973	-0.183441	0.030093	0.014290	-0.016141
268	1.364449	0.005000	9.770760	0.667080	1.832801	0.090125	0.229745	-0.182946	0.043157	-0.007684	-0.005279
269	1.369449	0.005000	9.633087	0.666414	1.726560	0.089903	0.231517	-0.182452	0.036568	0.005977	-0.010900
270	1.374449	0.005000	9.674581	0.684779	1.656929	0.089682	0.233289	-0.181957	0.024400	-0.005953	-0.005078
271	1.379449	0.005000	9.721787	0.652327	1.648080	0.089598	0.234511	-0.181616	0.028405	0.007495	-0.008536
272	1.384449	0.005000	9.837312	0.667080	1.726560	0.089709	0.234954	-0.181492	0.026805	0.005185	-0.014737
273	1.389449	0.005000	9.727043	0.632317	1.696274	0.089819	0.235397	-0.181369	0.024751	0.006136	-0.005718
274	1.394449	0.005000	9.658989	0.624866	1.690294	0.089930	0.235840	-0.181245	0.024290	0.004778	-0.015108
275	1.399449	0.005000	9.693767	0.590087	1.651054	0.090041	0.236283	-0.181121	0.032142	0.007782	-0.014392
276	1.404449	0.005000	9.730601	0.627840	1.688239	0.090151	0.236726	-0.180998	0.028832	0.006290	-0.010419
277	1.409449	0.005000	9.653040	0.704275	1.880453	0.090262	0.237168	-0.180874	0.017468	-0.002887	-0.007668
278	1.414449	0.005000	9.655565	0.593650	1.768325	0.090373	0.237611	-0.180750	0.003697	0.004721	-0.013689
279	1.419449	0.005000	9.727508	0.588600	1.691332	0.090484	0.238054	-0.180627	0.007716	0.003039	-0.019661
280	1.424449	0.005000	9.726072	0.622392	1.805040	0.090594	0.238497	-0.180503	0.007475	-0.011902	-0.016034
281	1.429449	0.005000	9.627640	0.627840	1.927399	0.090705	0.238940	-0.180379	-0.016785	-0.003661	-0.019854
282	1.434449	0.005000	9.622202	0.723124	1.821844	0.090816	0.239383	-0.180256	0.002818	0.000187	-0.023020
283	1.439449	0.005000	9.623675	0.813905	1.864030	0.090927	0.239826	-0.180132	-0.007645	0.002048	-0.000491
284	1.444449	0.005000	9.670251	0.739363	1.850477	0.091037	0.240268	-0.180009	-0.012233	-0.002869	-0.009068
285	1.449449	0.005000	9.745757	0.734793	1.803305	0.090942	0.239783	-0.180230	-0.007528	-0.000997	-0.001554
286	1.454449	0.005000	9.720289	0.695089	1.726560	0.090831	0.239230	-0.180478	-0.001381	0.007010	-0.010075
287	1.459449	0.005000	9.676970	0.658460	1.844280	0.090720	0.238676	-0.180725	-0.006118	-0.001852	-0.007420
288	1.464449	0.005000	9.731520	0.700657	1.844280	0.090610	0.238122	-0.180972	0.003054	0.008116	-0.014713
289	1.469449	0.005000	9.749537	0.649063	1.711750	0.090499	0.237568	-0.181220	0.009047	0.008525	-0.011586
290	1.474449	0.005000	9.633536	0.627840	1.726560	0.090388	0.237015	-0.181467	0.005391	0.007659	-0.002138
291	1.479449	0.005000	9.692280	0.669822	1.627089	0.090277	0.236461	-0.181714	-0.000380	0.004119	-0.006504
292	1.484449	0.005000	9.692280	0.689574	1.782546	0.090166	0.235907	-0.181961	-0.003565	0.000990	-0.007529
293	1.489449	0.005000	9.825259	0.697598	1.820299	0.090056	0.235353	-0.182209	0.001569	0.008426	-0.007288
294	1.494449	0.005000	9.835175	0.759625	1.765800	0.089945	0.234799	-0.182456	0.014459	0.006530	-0.010215
295	1.499449	0.005000	9.756690	0.759630	1.726560	0.089834	0.234246	-0.182703	-0.002132	0.007308	-0.002938
296	1.504449	0.005000	9.681169	0.638951	1.737671	0.089723	0.233692	-0.182951	0.015629	-0.000359	-0.015096
297	1.509449	0.005000	9.721512	0.627840	1.716816	0.089612	0.233138	-0.183198	-0.001916	0.003430	-0.020070
298	1.514449	0.005000	9.762503	0.627840	1.712091	0.089502	0.232987	-0.183277	-0.003132	0.000761	-0.010126
299	1.519449	0.005000	9.659810	0.634610	1.823971	0.089391	0.233319	-0.183153	0.014866	-0.005243	0.001186
300	1.524449	0.005000	9.770760	0.756916	1.726560	0.089280	0.233651	-0.183030	0.014498	-0.005030	-0.012503
301	1.529449	0.005000	9.805805	0.710515	1.769995	0.089170	0.233984	-0.182906	0.024715	-0.013839	-0.022227
302	1.534449	0.005000	9.801828	0.779352	1.732008	0.089059	0.234316	-0.182782	0.015072	-0.014916	-0.011021
303	1.539449	0.005000	9.808745	0.705065	1.840516	0.088948	0.234648	-0.182659	0.013991	0.000142	-0.018795
304	1.544449	0.005000	9.731750	0.784111	1.687550	0.088837	0.234980	-0.182535	0.014883	-0.003532	-0.007624
305	1.549449	0.005000	9.767332	0.820612	1.806754	0.088727	0.235312	-0.182411	0.016260	0.009648	-0.015128
306	1.554449	0.005000	9.773945	0.787985	1.765800	0.088616	0.235645	-0.182288	0.023144	0.004248	-0.012652
307	1.559449	0.005000	9.810000	0.819386	1.657389	0.088505	0.235977	-0.182164	0.013024	-0.001346	0.001865
308	1.564449	0.005000	9.703744	0.846084	1.653812	0.088395	0.236309	-0.182041	0.028976	-0.005349	-0.021204
309	1.569449	0.005000	9.738755	0.856045	1.608840	0.088284	0.236641	-0.181917	0.019909	0.002429	-0.013234
310	1.574449	0.005000	9.600725	0.754282	1.826837	0.088173	0.236973	-0.181793	0.022973	0.016000	-0.003600
311	1.579449	0.005000	9.711071	0.755784	1.844280	0.088062	0.237306	-0.181670	0.019362	0.002998	-0.012085
312	1.584449	0.005000	9.703854	0.729469	1.726560	0.088060	0.237205	-0.181788	0.012664	0.006714	-0.027471
313	1.589449	0.005000	9.705334	0.758614	1.726560	0.088060	0.237094	-0.181911	-0.007558	-0.002341	-0.033419
314	1.594449	0.005000	9.731520	0.770579	1.648080	0.088060	0.236983	-0.182035	-0.009873	-0.000108	-0.023220
315	1.599449	0.005000	9.731520	0.706320	1.601048	0.088060	0.236873	-0.182159	-0.010329	0.000407	-0.041172
316	1.604449	0.005000	9.714309	0.667080	1.626051	0.088060	0.236762	-0.182282	-0.000377	-0.000735	-0.019710
317	1.609449	0.005000	9.752273	0.644062	1.652610	0.088060	0.236651	-0.182406	-0.011983	0.003292	-0.034552
318	1.614449	0.005000	9.711556	0.687044	1.765111	0.088060	0.236541	-0.182529	-0.009485	-0.003278	-0.049718
319	1.619449	0.005000	9.653040	0.724337	1.765800	0.088060	0.236430	-0.182653	-0.008010	0.003059	-0.032485
320	1.624449	0.005000	9.708794	0.722834	1.726560	0.088060	0.236319	-0.182776	-0.016524	0.001474	-0.050091
321	1.629449	0.005000	9.724801	0.769480	1.695921	0.088060	0.236209	-0.182900	0.007690	-0.000616	-0.049277
322	1.634449	0.005000	9.602241	0.770960	1.673480	0.088060	0.236098	-0.183023	-0.005434	-0.003672	-0.043466
323	1.639449	0.005000	9.599292	0.652572	1.714194	0.088060	0.235988	-0.183147	-0.004988	-0.001733	-0.036996
324	1.644449	0.005000	9.646843	0.706320	1.816054	0.088060	0.235877	-0.183271	-0.008263	0.002172	-0.055793
325	1.649449	0.005000	9.663698	0.607655	1.805040	0.088060	0.235602	-0.183272	-0.015960	-0.000728	-0.059807
326	1.654449	0.005000	9.629849	0.675105	1.765800	0.088060	0.235159	-0.183148	-0.015179	0.008838	-0.041470
327	1.659449	0.005000	9.796160	0.627840	1.791200	0.088060	0.234716	-0.183025	-0.010639	0.005228	-0.053888
328	1.664449	0.005000	9.653040	0.599501	1.760350	0.088060	0.234273	-0.182901	0.007362	-0.004707	-0.051882
329	1.669449	0.005000	9.657068	0.675136	1.726560	0.088060	0.233830	-0.182777	-0.003777	0.001132	-0.057376
330	1.674449	0.005000	9.692280	0.740510	1.724035	0.088060	0.233387	-0.182654	-0.000859	0.001137	-0.062166
331	1.679449	0.005000	9.731520	0.626802	1.763724	0.088060	0.232944	-0.182530	0.003028	0.006293	-0.046218
332	1.684449	0.005000	9.692739	0.666162	1.842443	0.088060	0.232501	-0.182406	-0.014564	0.011711	-0.055178
333	1.689449	0.005000	9.692280	0.665593	1.765800	0.088060	0.232058	-0.182283	-0.012462	0.013196	-0.050341
334	1.694449	0.005000	9.767786	0.661131	1.687320	0.088060	0.231615	-0.182159	-0.019225	0.007977	-0.063314
335	1.699449	0.005000	9.775237	0.676034	1.735514	0.088060	0.231172	-0.182036	-0.013989	-0.003046	-0.057106
336	1.704449	0.005000	9.731520	0.661186	1.705003	0.088060	0.230729	-0.181912	-0.024345	0.002628	-0.059352
337	1.709449	0.005000	9.635893	0.564088	1.758436	0.088060	0.230286	-0.181788	-0.023106	-0.009561	-0.073636
338	1.714449	0.005000	9.722674	0.636686	1.722703	0.088056	0.229857	-0.181672	-0.018949	-0.005493	-0.059443
339	1.719449	0.005000	9.789362	0.656761	1.844280	0.087834	0.230189	-0.181919	-0.022922	0.004653	-0.074206
340	1.724449	0.005000	9.770760	0.706320	1.812998	0.087613	0.230522	-0.182166	-0.024441	-0.009066	-0.050604
341	1.729449	0.005000	9.796726	0.758834	1.687320	0.087391	0.230854	-0.182414	-0.014653	0.000327	-0.057234
342	1.734449	0.005000	9.706734	0.710441	1.747226	0.087170	0.231186	-0.182661	-0.020421	-0.002553	-0.051749
343	1.739449	0.005000	9.731520	0.784800	1.742516	0.086948	0.231518	-0.182908	-0.034491	-0.001797	-0.050132
344	1.744449	0.005000	9.748963	0.749913	1.704763	0.086727	0.231850	-0.183156	-0.015550	0.001182	-0.056566
345	1.749449	0.005000	9.751829	0.707699	1.710387	0.086505	0.232183	-0.183403	-0.014545	-0.006406	-0.050381
346	1.754449	0.005000	9.693413	0.744427	1.727693	0.086284	0.232515	-0.183650	-0.027949	0.009616	-0.058113
347	1.759449	0.005000	9.688192	0.859192	1.769888	0.086062	0.232847	-0.183898	-0.022957	-0.009699	-0.064462
348	1.764449	0.005000	9.793900	0.863280	1.671220	0.085841	0.233179	-0.184145	-0.012731	0.005920	-0.058212
349	1.769449	0.005000	9.756139	0.887899	1.751179	0.085619	0.233512	-0.184392	0.003832	-0.000232	-0.058208
350	1.774449	0.005000	9.718213	0.876587	1.752493	0.085398	0.233844	-0.184639	0.025786	0.004626	-0.057640
351	1.779449	0.005000	9.680471	0.875089	1.710938	0.085176	0.234176	-0.184887	0.022643	0.004049	-0.066918
352	1.784449	0.005000	9.692280	0.891853	1.744466	0.084955	0.233968	-0.184799	0.035376	0.008028	-0.057318
353	1.789449	0.005000	9.800814	0.784800	1.754118	0.084733	0.233303	-0.184428	0.045030	0.016443	-0.068408
354	1.794449	0.005000	9.700088	0.745560	1.836472	0.084512	0.232639	-0.184057	0.037429	0.003602	-0.062904
355	1.799449	0.005000	9.698585	0.784800	1.877215	0.084290	0.231974	-0.183686	0.031226	0.016679	-0.066894
356	1.804449	0.005000	9.657858	0.838494	1.908306	0.084069	0.231310	-0.183315	0.032054	0.020201	-0.061379
357	1.809449	0.005000	9.656790	0.820290	1.851779	0.083847	0.230645	-0.182944	0.022772	0.013219	-0.072282
358	1.814449	0.005000	9.696812	0.826306	1.998974	0.083626	0.229981	-0.182573	0.028417	0.013418	-0.071492
359	1.819449	0.005000	9.731520	0.860892	1.960408	0.083404	0.229316	-0.182202	0.052412	0.003543	-0.058154
360	1.824449	0.005000	9.770078	0.899793	1.806403	0.083183	0.228652	-0.181831	0.043839	0.009282	-0.066576
361	1.829449	0.005000	9.770760	1.013766	1.877046	0.082961	0.227987	-0.181460	0.036076	-0.000989	-0.075185
362	1.834449	0.005000	9.727891	0.863280	1.812297	0.082740	0.227323	-0.181089	0.028055	-0.006656	-0.055214
363	1.839449	0.005000	9.761372	0.858586	1.883520	0.082518	0.226658	-0.180718	0.018444	0.002485	-0.066648
364	1.844449	0.005000	9.803803	0.824040	1.883520	0.082297	0.225994	-0.180347	0.028022	0.002961	-0.055510
365	1.849449	0.005000	9.770760	0.792484	1.938128	0.082112	0.225395	-0.180016	0.027040	-0.006987	-0.047611
366	1.854449	0.005000	9.770760	0.745560	1.774875	0.082444	0.225727	-0.180264	0.035292	-0.013738	-0.048428
367	1.859449	0.005000	9.770760	0.766907	1.805040	0.082776	0.226059	-0.180511	0.033953	-0.007433	-0.050759
368	1.864449	0.005000	9.704298	0.721523	1.832262	0.083108	0.226392	-0.180758	0.050191	-0.011957	-0.057071
369	1.869449	0.005000	9.654295	0.680578	1.870022	0.083441	0.226724	-0.181005	0.059442	-0.003595	-0.057139
370	1.874449	0.005000	9.716834	0.770114	1.829594	0.083773	0.227056	-0.181253	0.051043	-0.005054	-0.059090
371	1.879449	0.005000	9.685386	0.777906	1.828107	0.084105	0.227388	-0.181500	0.065812	-0.017669	-0.038197
372	1.884449	0.005000	9.631476	0.767124	1.812817	0.084437	0.227721	-0.181747	0.060491	0.001438	-0.039279
373	1.889449	0.005000	9.751821	0.864643	1.980939	0.084769	0.228053	-0.181995	0.077737	-0.001887	-0.038190
374	1.894449	0.005000	9.733097	0.922928	2.001240	0.085102	0.228385	-0.182242	0.101259	-0.002599	-0.032656
375	1.899449	0.005000	9.692280	0.920087	1.905193	0.085434	0.228718	-0.182489	0.096878	-0.005755	-0.033116
376	1.904449	0.005000	9.724409	0.941760	1.920917	0.085766	0.229050	-0.182737	0.118787	0.000431	-0.021269
377	1.909449	0.005000	9.731520	0.887942	1.819618	0.086098	0.229382	-0.182984	0.098994	0.012086	-0.032400
378	1.914449	0.005000	9.653040	0.902505	2.027405	0.086430	0.229714	-0.183231	0.086191	-0.003063	-0.035950
379	1.919449	0.005000	9.731520	0.953671	1.973911	0.086502	0.229525	-0.183333	0.100911	-0.015459	-0.039273
380	1.924449	0.005000	9.702717	0.892083	1.941125	0.086391	0.228971	-0.183333	0.092887	-0.008506	-0.024872
381	1.929449	0.005000	9.647498	0.902520	1.853236	0.086280	0.228417	-0.183333	0.068131	-0.007355	-0.027735
382	1.934449	0.005000	9.613800	0.831615	1.907609	0.086170	0.227864	-0.183333	0.072567	0.012934	-0.037701
383	1.939449	0.005000	9.719491	0.941760	1.786996	0.086059	0.227310	-0.183333	0.087118	0.003180	-0.029914
384	1.944449	0.005000	9.643869	0.824040	1.721975	0.085948	0.226756	-0.183333	0.083288	0.012752	-0.035222
385	1.949449	0.005000	9.656138	0.827138	1.566502	0.085838	0.226202	-0.183333	0.077554	0.018868	-0.043982
386	1.954449	0.005000	9.654636	0.863280	1.648080	0.085727	0.225648	-0.183333	0.074277	0.022646	-0.034206
387	1.959449	0.005000	9.770194	0.863846	1.648080	0.085616	0.225095	-0.183333	0.064273	0.019864	-0.053888
388	1.964449	0.005000	9.693194	0.902520	1.686406	0.085505	0.224541	-0.183333	0.074513	0.018063	-0.043686
389	1.969449	0.005000	9.621006	0.904922	1.611242	0.085395	0.223987	-0.183333	0.071198	0.016457	-0.055862
390	1.974449	0.005000	9.609943	0.906377	1.534217	0.085284	0.223433	-0.183333	0.059308	0.014273	-0.050826
391	1.979449	0.005000	9.619128	0.868608	1.491120	0.085173	0.222880	-0.183333	0.055676	0.007302	-0.056796
392	1.984449	0.005000	9.685867	0.863280	1.484707	0.085063	0.222425	-0.183375	0.045078	-0.001834	-0.069822
393	1.989449	0.005000	9.692280	0.894604	1.600924	0.084952	0.222758	-0.183746	0.023622	0.005499	-0.063174
394	1.994449	0.005000	9.632607	0.971597	1.698350	0.084841	0.223090	-0.184117	0.007856	0.006302	-0.076750
395	1.999449	0.005000	9.703054	0.981000	1.637306	0.084730	0.223422	-0.184488	0.032679	0.002141	-0.068972
396	2.004449	0.005000	9.758512	0.954008	1.623584	0.084619	0.223754	-0.184859	0.014616	0.009711	-0.085530
397	2.009449	0.005000	9.731520	0.941760	1.597036	0.084509	0.224087	-0.185230	0.011018	-0.000573	-0.098048
398	2.014449	0.005000	9.667943	0.893086	1.648080	0.084398	0.224419	-0.185601	0.015236	-0.000434	-0.093824
399	2.019449	0.005000	9.659469	0.892543	1.755823	0.084287	0.224751	-0.185972	-0.004845	0.010869	-0.089074
400	2.024449	0.005000	9.670933	0.987909	1.769255	0.084176	0.225084	-0.186343	0.004303	0.003068	-0.099471
401	2.029449	0.005000	9.653040	1.000395	1.765800	0.084065	0.225416	-0.186714	0.003720	0.007203	-0.097219
402	2.034449	0.005000	9.632402	1.038842	1.823642	0.083955	0.225748	-0.187085	-0.005693	-0.000480	-0.102249
403	2.039449	0.005000	9.574560	1.103709	1.805040	0.083844	0.226080	-0.187456	0.009107	0.018157	-0.100890
404	2.044449	0.005000	9.488517	1.027803	1.915197	0.083733	0.226413	-0.187827	0.009932	0.007125	-0.123021
405	2.049449	0.005000	9.624350	0.995345	1.872970	0.083622	0.226745	-0.188198	0.010047	0.018011	-0.102944
406	2.054449	0.005000	9.653040	1.020240	1.870662	0.083652	0.225880	-0.188569	-0.002859	0.021574	-0.114259
407	2.059449	0.005000	9.664732	1.031932	1.805040	0.083763	0.224330	-0.188940	-0.011707	0.007941	-0.099265
408	2.064449	0.005000	9.663252	1.108932	1.864704	0.083874	0.222779	-0.189311	0.001777	0.016120	-0.101712
409	2.069449	0.005000	9.722781	1.116197	1.931499	0.083985	0.221228	-0.189682	-0.001682	0.016842	-0.107307
410	2.074449	0.005000	9.724177	1.091377	1.930103	0.084096	0.219678	-0.190053	-0.013745	0.008552	-0.104529
411	2.079449	0.005000	9.703992	1.081153	1.977817	0.084206	0.218127	-0.190424	-0.022776	0.014651	-0.118765
412	2.084449	0.005000	9.766391	1.024609	1.970737	0.084317	0.216577	-0.190795	-0.023478	0.006765	-0.107283
413	2.089449	0.005000	9.731520	1.144571	2.076414	0.084428	0.215026	-0.191166	-0.023024	0.024623	-0.110890
414	2.094449	0.005000	9.656684	1.139782	1.958356	0.084539	0.213476	-0.191537	-0.023278	0.013179	-0.117899
415	2.099449	0.005000	9.614152	1.098720	1.922056	0.084650	0.211925	-0.191908	-0.024675	0.011770	-0.105178
416	2.104449	0.005000	9.653040	1.098720	1.920467	0.084760	0.210375	-0.192279	-0.018737	0.009163	-0.111255
417	2.109449	0.005000	9.694883	1.174597	1.886123	0.084871	0.208824	-0.192650	-0.019412	0.015876	-0.110475
418	2.114449	0.005000	9.661212	1.255680	1.922760	0.084982	0.207273	-0.193021	-0.004632	0.010517	-0.109987
419	2.119449	0.005000	9.726375	1.182345	1.770945	0.085057	0.206111	-0.193234	0.010194	0.006538	-0.113559
420	2.124449	0.005000	9.744812	1.112012	1.687320	0.084947	0.206997	-0.192616	-0.003882	0.011737	-0.105222
421	2.129449	0.005000	9.731520	1.193276	1.734598	0.084836	0.207882	-0.191998	0.001613	0.014598	-0.111578
422	2.134449	0.005000	9.731520	1.177200	1.795521	0.084725	0.208768	-0.191380	-0.005533	-0.003781	-0.106075
423	2.139449	0.005000	9.781418	1.195124	1.755142	0.084614	0.209653	-0.190762	-0.002373	0.005121	-0.131711
424	2.144449	0.005000	9.743665	1.150105	1.726560	0.084504	0.210539	-0.190144	-0.006775	-0.006862	-0.121072
425	2.149449	0.005000	9.653040	0.994648	1.803336	0.084393	0.211425	-0.189526	0.002721	-0.000475	-0.126890
426	2.154449	0.005000	9.667998	1.029564	1.844280	0.084282	0.212310	-0.188908	-0.012182	0.008612	-0.135592
427	2.159449	0.005000	9.653040	1.075908	1.788612	0.084171	0.213196	-0.188290	-0.006507	0.007955	-0.136077
428	2.164449	0.005000	9.713614	1.113198	1.712082	0.084061	0.214081	-0.187672	-0.007878	0.013686	-0.133384
429	2.169449	0.005000	9.770760	1.059955	1.745943	0.083950	0.214967	-0.187054	-0.017028	0.014706	-0.126081
430	2.174449	0.005000	9.713140	1.043579	1.768279	0.083839	0.215852	-0.186436	-0.032385	0.029923	-0.136482
431	2.179449	0.005000	9.731520	0.963897	1.716491	0.083729	0.216738	-0.185818	-0.062307	0.025627	-0.124890
432	2.184449	0.005000	9.778769	0.973394	1.789022	0.083618	0.217624	-0.185200	-0.048201	0.045466	-0.131655
433	2.189449	0.005000	9.745633	0.966887	1.883520	0.083507	0.217535	-0.185335	-0.051572	0.040075	-0.126184
434	2.194449	0.005000	9.718583	0.902520	1.857217	0.083396	0.216982	-0.185829	-0.051325	0.026548	-0.110173
435	2.199449	0.005000	9.708585	0.969533	1.883520	0.083286	0.216428	-0.186324	-0.092288	0.016765	-0.119889
436	2.204449	0.005000	9.682164	1.039248	2.070828	0.083175	0.215874	-0.186819	-0.147248	-0.002111	-0.122933
437	2.209449	0.005000	9.661653	0.994400	2.062493	0.083064	0.215321	-0.187314	-0.199155	0.006740	-0.117919
438	2.214449	0.005000	9.653040	0.934634	1.947748	0.082954	0.214767	-0.187808	-0.203791	0.013210	-0.128452
439	2.219449	0.005000	9.698310	0.902520	1.777860	0.082843	0.214213	-0.188303	-0.186702	0.023937	-0.122023
440	2.224449	0.005000	9.657587	0.867827	1.948359	0.082732	0.213659	-0.188798	-0.177767	0.012073	-0.129965
441	2.229449	0.005000	9.731520	0.899444	1.765800	0.082621	0.213106	-0.189292	-0.180255	0.026857	-0.122195
442	2.234449	0.005000	9.731520	0.905773	1.770680	0.082511	0.212552	-0.189787	-0.185320	0.034448	-0.134369
443	2.239449	0.005000	9.731520	0.980504	1.687692	0.082400	0.211998	-0.190282	-0.178551	0.013381	-0.115338
444	2.244449	0.005000	9.769413	0.899825	1.805040	0.082289	0.211445	-0.190777	-0.198613	0.002799	-0.117046
445	2.249449	0.005000	9.692280	1.010697	1.728946	0.082179	0.210891	-0.191271	-0.242606	-0.009956	-0.127353
446	2.254449	0.005000	9.574560	1.051703	1.765800	0.082001	0.210515	-0.191494	-0.278047	-0.005619	-0.116502
447	2.259449	0.005000	9.613800	1.054104	1.922760	0.081558	0.210847	-0.190628	-0.273421	0.004275	-0.128162
448	2.264449	0.005000	9.685402	1.059480	1.862885	0.081115	0.211179	-0.189762	-0.247849	0.007206	-0.142189
449	2.269449	0.005000	9.714789	1.036971	1.805040	0.080672	0.211511	-0.188897	-0.224376	0.018711	-0.141527
450	2.274449	0.005000	9.702017	0.931732	1.873783	0.080229	0.211843	-0.188031	-0.233762	0.008330	-0.146784
451	2.279449	0.005000	9.675476	0.941760	1.990022	0.079786	0.212176	-0.187165	-0.223742	0.010475	-0.136443
452	2.284449	0.005000	9.719142	0.929382	1.908275	0.079343	0.212508	-0.186299	-0.235356	0.013627	-0.135682
453	2.289449	0.005000	9.770760	0.891010	1.844280	0.078900	0.212840	-0.185434	-0.236352	-0.002332	-0.136239
454	2.294449	0.005000	9.770760	0.887152	1.781168	0.078457	0.213172	-0.184568	-0.227655	0.011240	-0.153741
455	2.299449	0.005000	9.731520	0.986925	1.860937	0.078014	0.213504	-0.183702	-0.203108	-0.009106	-0.144537
456	2.304449	0.005000	9.728034	1.059480	1.865643	0.077571	0.213837	-0.182836	-0.192567	0.007169	-0.137768
457	2.309449	0.005000	9.731024	0.999876	1.765800	0.077128	0.214169	-0.181971	-0.202980	0.002200	-0.153429
458	2.314449	0.005000	9.650546	1.077853	1.901893	0.076685	0.214501	-0.181105	-0.197744	-0.004292	-0.143642
459	2.319449	0.005000	9.748667	1.147850	1.888465	0.076241	0.214833	-0.180239	-0.206055	0.017909	-0.153937
460	2.324449	0.005000	9.786432	1.145857	1.828608	0.076279	0.214765	-0.180179	-0.214490	0.016784	-0.153113
461	2.329449	0.005000	9.781279	1.020240	1.873001	0.076501	0.214543	-0.180426	-0.199651	0.011461	-0.148557
462	2.334449	0.005000	9.731520	1.111593	1.765180	0.076722	0.214322	-0.180673	-0.186709	0.001993	-0.147479
463	2.339449	0.005000	9.641669	1.137960	1.849408	0.076943	0.214101	-0.180920	-0.162810	0.009648	-0.143426
464	2.344449	0.005000	9.662924	1.108604	1.765800	0.077165	0.213879	-0.181168	-0.165264	0.012431	-0.143145
465	2.349449	0.005000	9.583317	1.159685	1.792072	0.077386	0.213658	-0.181415	-0.154701	0.012728	-0.145571
466	2.354449	0.005000	9.653040	1.012955	1.986670	0.077608	0.213436	-0.181662	-0.141219	0.024171	-0.145336
467	2.359449	0.005000	9.698151	1.077094	1.979614	0.077829	0.213215	-0.181909	-0.142314	0.021968	-0.145067
468	2.364449	0.005000	9.609416	1.220824	1.983704	0.078050	0.212994	-0.182157	-0.150402	0.015657	-0.145245
469	2.369449	0.005000	9.613800	1.334160	1.928523	0.078272	0.212772	-0.182404	-0.148466	0.014304	-0.147021
470	2.374449	0.005000	9.692280	1.329977	1.960606	0.078493	0.212551	-0.182651	-0.174668	0.011622	-0.139900
471	2.379449	0.005000	9.731413	1.216440	2.001026	0.078715	0.212329	-0.182898	-0.176323	0.009091	-0.160857
472	2.384449	0.005000	9.654617	1.293343	1.963577	0.078936	0.212108	-0.183145	-0.186015	-0.005823	-0.152377
473	2.389449	0.005000	9.650422	1.365546	1.959382	0.079077	0.211860	-0.183303	-0.164533	-0.002288	-0.158624
474	2.394449	0.005000	9.723309	1.365189	1.926865	0.078967	0.211528	-0.183180	-0.174627	0.000893	-0.161375
475	2.399449	0.005000	9.697888	1.300528	1.889128	0.078856	0.211196	-0.183056	-0.184193	-0.005169	-0.155366
476	2.404449	0.005000	9.692280	1.301932	1.876508	0.078745	0.210863	-0.182932	-0.169647	0.001771	-0.169024
477	2.409449	0.005000	9.583054	1.286426	1.984252	0.078634	0.210531	-0.182809	-0.167980	0.013799	-0.152341
478	2.414449	0.005000	9.633106	1.393334	2.001240	0.078524	0.210199	-0.182685	-0.174899	0.016718	-0.159757
479	2.419449	0.005000	9.496080	1.401192	1.950552	0.078413	0.209867	-0.182561	-0.189967	-0.004959	-0.153109
480	2.424449	0.005000	9.575050	1.294920	1.883520	0.078302	0.209535	-0.182438	-0.211139	0.008163	-0.157705
481	2.429449	0.005000	9.638943	1.334160	1.936857	0.078192	0.209202	-0.182314	-0.220757	0.008385	-0.157665
482	2.434449	0.005000	9.653040	1.294920	1.938344	0.078081	0.208870	-0.182191	-0.238332	0.002243	-0.132821
483	2.439449	0.005000	9.569494	1.378466	1.888586	0.077970	0.208538	-0.182067	-0.243834	0.013266	-0.152013
484	2.444449	0.005000	9.595226	1.412640	1.959909	0.077860	0.208206	-0.181943	-0.247561	0.011781	-0.149459
485	2.449449	0.005000	9.692280	1.471043	1.864357	0.077749	0.207873	-0.181820	-0.247392	0.017383	-0.153312
486	2.454449	0.005000	9.599255	1.605456	2.004624	0.077638	0.207541	-0.181696	-0.246008	0.014473	-0.178101
487	2.459449	0.005000	9.662319	1.601946	1.828107	0.077358	0.207209	-0.181100	-0.231948	0.013705	-0.170582
488	2.464449	0.005000	9.668023	1.633097	1.810748	0.077026	0.206877	-0.180358	-0.248029	0.026735	-0.172623
489	2.469449	0.005000	9.678776	1.740064	1.895753	0.076693	0.206544	-0.179616	-0.255880	0.023421	-0.168171
490	2.474449	0.005000	9.640864	1.790153	1.922760	0.076361	0.206212	-0.178874	-0.248461	0.035679	-0.169130
491	2.479449	0.005000	9.535320	1.805040	1.904867	0.076029	0.205880	-0.178132	-0.228979	0.020024	-0.166901
492	2.484449	0.005000	9.556187	1.774986	1.952814	0.075697	0.205548	-0.177390	-0.210241	0.022616	-0.164162
493	2.489449	0.005000	9.613800	1.883520	1.985872	0.075364	0.205215	-0.176648	-0.217846	0.031151	-0.196088
494	2.494449	0.005000	9.620383	1.772383	1.916177	0.075032	0.204883	-0.175906	-0.208795	0.029502	-0.197363
495	2.499449	0.005000	9.658154	1.736787	1.849394	0.074700	0.204551	-0.175164	-0.211154	0.038798	-0.193302
496	2.504449	0.005000	9.617442	1.844280	1.883520	0.074367	0.204218	-0.174422	-0.199471	0.031228	-0.183820
497	2.509449	0.005000	9.572376	1.959816	1.922760	0.074035	0.203886	-0.173680	-0.192560	0.030291	-0.193713
498	2.514449	0.005000	9.458931	1.846371	1.961303	0.073703	0.203554	-0.172937	-0.194382	0.030782	-0.191632
499	2.519449	0.005000	9.574560	1.962000	1.999648	0.073371	0.203222	-0.172195	-0.169983	0.028309	-0.193204
500	2.524449	0.005000	9.613800	1.890832	2.077892	0.073070	0.202730	-0.171809	-0.167755	0.026767	-0.213426
501	2.529449	0.005000	9.535320	1.955370	2.043795	0.072849	0.201844	-0.172304	-0.152816	0.022415	-0.196629
502	2.534449	0.005000	9.461658	1.962000	2.040480	0.072627	0.200958	-0.172799	-0.149356	0.030543	-0.197869
503	2.539449	0.005000	9.529015	1.962000	1.896130	0.072406	0.200072	-0.173293	-0.132987	0.021215	-0.207133
504	2.544449	0.005000	9.535320	1.788903	1.985838	0.072184	0.199186	-0.173788	-0.113663	0.021064	-0.221974
505	2.549449	0.005000	9.643857	1.835097	1.931943	0.071963	0.198300	-0.174283	-0.112378	0.024578	-0.229878
506	2.554449	0.005000	9.585216	1.787112	1.954728	0.071741	0.197414	-0.174777	-0.120715	0.021199	-0.220434
507	2.559449	0.005000	9.601664	1.832144	1.907792	0.071520	0.196528	-0.175272	-0.110343	0.036950	-0.238418
508	2.564449	0.005000	9.613800	1.713934	1.805722	0.071298	0.195642	-0.175766	-0.119806	0.023514	-0.229430
509	2.569449	0.005000	9.604149	1.662874	1.770943	0.071077	0.194756	-0.176261	-0.109053	0.030916	-0.233366
510	2.574449	0.005000	9.519032	1.585888	1.788752	0.070855	0.193870	-0.176756	-0.121868	0.023948	-0.238930
511	2.579449	0.005000	9.574560	1.556132	1.852483	0.070634	0.192984	-0.177250	-0.143909	0.038139	-0.237035
512	2.584449	0.005000	9.554366	1.627886	2.000092	0.070412	0.192098	-0.177745	-0.153699	0.046974	-0.244091
513	2.589449	0.005000	9.497886	1.567794	1.904043	0.070191	0.191212	-0.178240	-0.158843	0.040469	-0.231789
514	2.594449	0.005000	9.552763	1.530360	1.866077	0.070149	0.190776	-0.178233	-0.170027	0.047568	-0.235153
515	2.599449	0.005000	9.551276	1.553644	1.781756	0.070149	0.190443	-0.178109	-0.169970	0.036444	-0.236730
516	2.604449	0.005000	9.613800	1.544814	1.873187	0.070149	0.190111	-0.177986	-0.181512	0.053204	-0.243555
517	2.609449	0.005000	9.613800	1.596730	1.883520	0.070149	0.189779	-0.177862	-0.196406	0.043941	-0.255779
518	2.614449	0.005000	9.574560	1.844280	1.907128	0.070149	0.189447	-0.177738	-0.207499	0.030523	-0.246202
519	2.619449	0.005000	9.446383	1.933217	1.904434	0.070149	0.189115	-0.177615	-0.224306	0.036143	-0.248746
520	2.624449	0.005000	9.474748	1.970954	1.853234	0.070149	0.188783	-0.177491	-0.217842	0.031420	-0.261893
521	2.629449	0.005000	9.456840	2.008707	1.851747	0.070149	0.188451	-0.177368	-0.202836	0.035238	-0.265317
522	2.634449	0.005000	9.430333	2.053213	1.831547	0.070149	0.188119	-0.177244	-0.197790	0.026897	-0.266685
523	2.639449	0.005000	9.466608	2.099256	1.751148	0.070149	0.187786	-0.177121	-0.186665	0.034085	-0.264024
524	2.644449	0.005000	9.535320	2.318615	1.526905	0.070149	0.187454	-0.176997	-0.191047	0.044816	-0.274808
525	2.649449	0.005000	9.576513	2.317113	1.534265	0.070149	0.187122	-0.176874	-0.156687	0.049235	-0.275619
526	2.654449	0.005000	9.613800	2.353006	1.569135	0.070149	0.186790	-0.176750	-0.146967	0.056639	-0.277950
527	2.659449	0.005000	9.613800	2.236680	1.607725	0.070076	0.186167	-0.176586	-0.115346	0.032053	-0.279047
528	2.664449	0.005000	9.609710	2.236680	1.606795	0.069855	0.184949	-0.176338	-0.112800	0.033949	-0.268971
529	2.669449	0.005000	9.613800	2.168843	1.612388	0.069633	0.183731	-0.176091	-0.102820	0.047154	-0.285885
530	2.674449	0.005000	9.613800	2.118960	1.755848	0.069412	0.182514	-0.175844	-0.097964	0.052875	-0.276098
531	2.679449	0.005000	9.547434	2.046537	1.660194	0.069191	0.181296	-0.175597	-0.089709	0.049464	-0.286763
532	2.684449	0.005000	9.527760	2.079720	1.743120	0.068969	0.180078	-0.175349	-0.066250	0.051468	-0.289237
533	2.689449	0.005000	9.483981	2.088767	1.865426	0.068748	0.178861	-0.175102	-0.043298	0.052815	-0.295451
534	2.694449	0.005000	9.503717	2.118960	1.933294	0.068526	0.177643	-0.174855	-0.032615	0.042833	-0.295646
535	2.699449	0.005000	9.363194	2.197440	1.898686	0.068305	0.176425	-0.174608	-0.012666	0.042000	-0.288633
536	2.704449	0.005000	9.325754	2.262554	1.883520	0.068084	0.175208	-0.174360	0.012763	0.052534	-0.298908
537	2.709449	0.005000	9.290330	2.251525	1.952450	0.067862	0.173990	-0.174113	0.014032	0.050310	-0.297861
538	2.714449	0.005000	9.221400	2.338079	1.899841	0.067641	0.172772	-0.173866	0.032840	0.061370	-0.302876
539	2.719449	0.005000	9.282344	2.275920	2.009574	0.067420	0.171554	-0.173618	0.074204	0.073730	-0.301472
540	2.724449	0.005000	9.279671	2.334191	2.060689	0.067198	0.170337	-0.173371	0.121557	0.095723	-0.307316
541	2.729449	0.005000	9.376547	2.238493	2.158200	0.067164	0.169587	-0.173751	0.146794	0.099636	-0.312741
542	2.734449	0.005000	9.400373	2.275920	2.089294	0.067164	0.168923	-0.174246	0.185723	0.090737	-0.310269
543	2.739449	0.005000	9.440832	2.165424	1.994016	0.067164	0.168259	-0.174740	0.225100	0.090584	-0.323673
544	2.744449	0.005000	9.471541	2.133661	2.011077	0.067164	0.167595	-0.175235	0.268134	0.083669	-0.308663
545	2.749449	0.005000	9.522106	2.014051	2.027669	0.067164	0.166930	-0.175729	0.288579	0.074479	-0.315198
546	2.754449	0.005000	9.441023	1.793328	2.154095	0.067164	0.166266	-0.176224	0.287035	0.064712	-0.326373
547	2.759449	0.005000	9.436391	1.806698	2.226456	0.067164	0.165602	-0.176718	0.271548	0.066155	-0.328101
548	2.764449	0.005000	9.438652	1.832323	2.107003	0.067164	0.164938	-0.177213	0.266948	0.081046	-0.333181
549	2.769449	0.005000	9.488459	1.883520	2.165821	0.067164	0.164274	-0.177707	0.256980	0.068225	-0.322124
550	2.774449	0.005000	9.429879	1.726560	2.185161	0.067164	0.163610	-0.178202	0.255614	0.071519	-0.329355
551	2.779449	0.005000	9.560385	1.809765	2.167650	0.067164	0.162945	-0.178696	0.280239	0.055964	-0.330490
552	2.784449	0.005000	9.414378	1.828169	2.318382	0.067164	0.162281	-0.179191	0.287767	0.054052	-0.324764
553	2.789449	0.005000	9.456840	1.642875	2.279390	0.067164	0.161617	-0.179685	0.306626	0.062459	-0.326775
554	2.794449	0.005000	9.535552	1.491585	2.433112	0.067043	0.161114	-0.180314	0.313390	0.065604	-0.308391
555	2.799449	0.005000	9.574560	1.683600	2.510120	0.066711	0.160892	-0.181180	0.306742	0.074788	-0.308215
556	2.804449	0.005000	9.462260	1.723850	2.401770	0.066379	0.160671	-0.182045	0.297641	0.073456	-0.278099
557	2.809449	0.005000	9.307409	1.612604	2.432880	0.066047	0.160449	-0.182910	0.311905	0.084265	-0.260572
558	2.814449	0.005000	9.357292	1.642813	2.511360	0.065715	0.160228	-0.183776	0.324943	0.085143	-0.254212
559	2.819449	0.005000	9.325611	1.648080	2.504606	0.065383	0.160007	-0.184641	0.330498	0.096423	-0.256869
560	2.824449	0.005000	9.339120	1.734817	2.441137	0.065051	0.159785	-0.185506	0.342130	0.126874	-0.260369
561	2.829449	0.005000	9.407970	1.874609	2.521710	0.064719	0.159564	-0.186372	0.355520	0.120340	-0.247220
562	2.834449	0.005000	9.350694	2.072662	2.400698	0.064387	0.159342	-0.187237	0.370022	0.143962	-0.246794
563	2.839449	0.005000	9.326066	2.184386	2.354400	0.064055	0.159121	-0.188102	0.429212	0.160328	-0.241068
564	2.844449	0.005000	9.299880	2.233256	2.265122	0.063723	0.158900	-0.188968	0.489287	0.196245	-0.227339
565	2.849449	0.005000	9.401876	2.228888	2.197440	0.063391	0.158678	-0.189833	0.546975	0.210138	-0.238237
566	2.854449	0.005000	9.557349	2.258709	2.118960	0.063059	0.158457	-0.190698	0.572648	0.209205	-0.223200
567	2.859449	0.005000	9.655305	2.315160	2.178953	0.062727	0.158235	-0.191564	0.585061	0.221777	-0.224451
568	2.864449	0.005000	9.790724	2.121027	2.138924	0.062882	0.157234	-0.192538	0.609949	0.201002	-0.212034
569	2.869449	0.005000	9.810000	1.868710	2.290730	0.063103	0.156127	-0.193527	0.604014	0.199473	-0.213100
570	2.874449	0.005000	9.770760	1.716258	2.259406	0.063325	0.155020	-0.194516	0.630887	0.182003	-0.220195
571	2.879449	0.005000	9.686440	1.618026	2.230840	0.063546	0.153913	-0.195504	0.620060	0.164878	-0.229047
572	2.884449	0.005000	9.666580	1.557439	2.315160	0.063768	0.152806	-0.196493	0.594356	0.157340	-0.254003
573	2.889449	0.005000	9.717012	1.699686	2.172708	0.063989	0.151699	-0.197482	0.542518	0.137199	-0.255647
574	2.894449	0.005000	9.731520	1.776686	2.073137	0.064210	0.150592	-0.198471	0.462747	0.142479	-0.271016
575	2.899449	0.005000	9.741047	1.745615	2.128487	0.064432	0.149485	-0.199460	0.407110	0.128625	-0.268364
576	2.904449	0.005000	9.684255	1.891545	2.102911	0.064653	0.148378	-0.200449	0.356228	0.124366	-0.283048
577	2.909449	0.005000	9.606880	2.015080	2.040480	0.064874	0.147272	-0.201438	0.288475	0.116478	-0.289333
578	2.914449	0.005000	9.580010	2.236680	1.950012	0.065096	0.146165	-0.202427	0.211030	0.104166	-0.291241
579	2.919449	0.005000	9.644984	2.346344	2.009296	0.065317	0.145058	-0.203416	0.163623	0.095682	-0.304487
580	2.924449	0.005000	9.579610	2.241730	2.040480	0.065539	0.143951	-0.204404	0.110206	0.092113	-0.301298
581	2.929449	0.005000	9.653040	2.396754	2.044632	0.065496	0.143284	-0.204803	0.065994	0.083690	-0.297017
582	2.934449	0.005000	9.535274	2.393671	2.275920	0.065053	0.143284	-0.204308	0.006209	0.084689	-0.291658
583	2.939449	0.005000	9.417600	2.509873	2.275920	0.064610	0.143284	-0.203814	-0.000437	0.055523	-0.312218
584	2.944449	0.005000	9.185134	2.354400	2.091617	0.064167	0.143284	-0.203319	-0.038467	0.061686	-0.349277
585	2.949449	0.005000	9.182160	2.497929	2.014671	0.063723	0.143284	-0.202824	-0.084259	0.075392	-0.350271
586	2.954449	0.005000	9.182160	2.650637	2.258237	0.063280	0.143284	-0.202330	-0.125472	0.093155	-0.376961
587	2.959449	0.005000	9.253276	2.683048	2.472120	0.062837	0.143284	-0.201835	-0.140646	0.073167	-0.389247
588	2.964449	0.005000	9.221400	2.777194	2.502514	0.062394	0.143284	-0.201340	-0.159241	0.045947	-0.398726
589	2.969449	0.005000	9.095397	2.872803	2.472120	0.061951	0.143284	-0.200846	-0.169380	0.029783	-0.422321
590	2.974449	0.005000	9.075904	2.926687	2.398489	0.061508	0.143284	-0.200351	-0.184173	0.021507	-0.421258
591	2.979449	0.005000	9.051474	3.087334	2.197099	0.061065	0.143284	-0.199856	-0.207435	0.030265	-0.443534
592	2.984449	0.005000	9.039484	3.164156	2.129631	0.060622	0.143284	-0.199361	-0.220118	0.038229	-0.445569
593	2.989449	0.005000	9.017487	3.139200	2.181677	0.060179	0.143284	-0.198867	-0.245089	0.053109	-0.454496
594	2.994449	0.005000	8.959178	3.300935	2.280695	0.059736	0.143284	-0.198372	-0.266631	0.053282	-0.463521
595	2.999449	0.005000	8.965186	3.296160	2.474428	0.059293	0.142978	-0.198219	-0.264237	0.038115	-0.463179
596	3.004449	0.005000	8.908146	3.452454	2.472120	0.058850	0.142646	-0.198096	-0.217997	0.040136	-0.485957
597	3.009449	0.005000	8.950391	3.449449	2.572056	0.058408	0.142314	-0.197972	-0.179898	0.026437	-0.488516
598	3.014449	0.005000	8.851943	3.547897	2.560251	0.057965	0.141982	-0.197848	-0.175961	0.034466	-0.488250
599	3.019449	0.005000	8.792790	3.585930	2.653230	0.057522	0.141650	-0.197725	-0.193660	0.033078	-0.502358
600	3.024449	0.005000	8.697669	3.782243	2.825280	0.057079	0.141317	-0.197601	-0.186720	0.044812	-0.512719
601	3.029449	0.005000	8.605845	3.948570	2.786040	0.056636	0.140985	-0.197478	-0.245368	0.062587	-0.519645
602	3.034449	0.005000	8.707330	4.052518	2.842925	0.056194	0.140653	-0.197354	-0.235254	0.076479	-0.519814
603	3.039449	0.005000	8.572910	4.071665	2.786040	0.055751	0.140321	-0.197231	-0.152970	0.084111	-0.503865
604	3.044449	0.005000	8.577209	3.969777	2.715736	0.055308	0.139989	-0.197107	-0.094087	0.076254	-0.494918
605	3.049449	0.005000	8.547617	3.826390	2.792743	0.054865	0.139657	-0.196984	-0.088009	0.087162	-0.503587
606	3.054449	0.005000	8.525522	3.895202	2.673541	0.054422	0.139325	-0.196860	-0.114431	0.103183	-0.507283
607	3.059449	0.005000	8.522671	4.041720	2.746800	0.053980	0.138992	-0.196736	-0.098962	0.101264	-0.494927
608	3.064449	0.005000	8.632800	4.034839	2.582959	0.053925	0.138175	-0.196830	-0.057344	0.098159	-0.509007
609	3.069449	0.005000	8.709669	3.845520	2.434491	0.054368	0.136735	-0.197201	-0.011438	0.081508	-0.491537
610	3.074449	0.005000	8.671366	3.768387	2.588493	0.054811	0.135295	-0.197572	0.012593	0.102530	-0.488975
611	3.079449	0.005000	8.632800	3.843816	2.632488	0.055254	0.133855	-0.197943	0.001302	0.105352	-0.462502
612	3.084449	0.005000	8.704867	3.917587	2.717180	0.055697	0.132416	-0.198314	-0.007094	0.130156	-0.462267
613	3.089449	0.005000	8.824306	3.993092	2.707560	0.056140	0.130976	-0.198685	0.019316	0.141838	-0.461879
614	3.094449	0.005000	8.895237	3.870007	2.686685	0.056583	0.129536	-0.199056	0.070503	0.134691	-0.466625
615	3.099449	0.005000	8.860646	3.813874	2.802498	0.057026	0.128096	-0.199427	0.092702	0.135440	-0.478384
616	3.104449	0.005000	8.759226	3.784452	2.724972	0.057469	0.126656	-0.199798	0.079798	0.107439	-0.477056
617	3.109449	0.005000	8.603753	3.765506	2.639273	0.057912	0.125217	-0.200169	0.049161	0.108456	-0.479915
618	3.114449	0.005000	8.566016	3.994936	2.534752	0.058355	0.123777	-0.200540	-0.002188	0.114282	-0.491159
619	3.119449	0.005000	8.711280	4.041720	2.484996	0.058798	0.122337	-0.200911	0.004098	0.125652	-0.481531
620	3.124449	0.005000	8.558605	4.051943	2.348462	0.059241	0.120897	-0.201282	0.032938	0.114225	-0.488519
621	3.129449	0.005000	8.709841	4.018464	2.275920	0.059684	0.119458	-0.201653	0.047472	0.100137	-0.484848
622	3.134449	0.005000	8.649996	3.901956	2.236680	0.059488	0.117592	-0.202262	0.068888	0.103855	-0.489904
623	3.139449	0.005000	8.673883	3.767040	2.180585	0.059266	0.115709	-0.202880	0.084246	0.114231	-0.471427
624	3.144449	0.005000	8.846924	3.768171	2.199702	0.059045	0.113826	-0.203499	0.085599	0.128888	-0.459896
625	3.149449	0.005000	8.964541	3.613678	2.272322	0.058823	0.111943	-0.204117	0.112370	0.117152	-0.463183
626	3.154449	0.005000	9.008655	3.531600	2.236680	0.058602	0.110061	-0.204735	0.142341	0.095581	-0.444829
627	3.159449	0.005000	9.016045	3.555798	2.275920	0.058380	0.108178	-0.205354	0.142553	0.100404	-0.442349
628	3.164449	0.005000	8.868240	3.504490	2.156775	0.058159	0.106295	-0.205972	0.122558	0.096813	-0.450478
629	3.169449	0.005000	8.759490	3.462090	2.013292	0.057937	0.104412	-0.206590	0.029281	0.140797	-0.436000
630	3.174449	0.005000	8.957285	3.649320	2.051045	0.057716	0.102530	-0.207209	0.005546	0.143907	-0.440624
631	3.179449	0.005000	9.025200	3.707422	2.031049	0.057494	0.100647	-0.207827	0.030864	0.142450	-0.435113
632	3.184449	0.005000	8.922631	3.705074	2.111385	0.057273	0.098764	-0.208445	0.043492	0.136649	-0.456092
633	3.189449	0.005000	8.979484	3.616556	2.118960	0.057051	0.096881	-0.209064	0.035697	0.126603	-0.454560
634	3.194449	0.005000	8.980956	3.683556	2.074716	0.056830	0.094998	-0.209682	0.016791	0.136215	-0.475401
635	3.199449	0.005000	8.839564	3.688560	2.165243	0.056716	0.093116	-0.210000	0.032782	0.115028	-0.484902
636	3.204449	0.005000	8.913632	3.655472	2.246934	0.056716	0.091233	-0.210000	0.041886	0.110740	-0.480140
637	3.209449	0.005000	8.983667	3.687414	2.392494	0.056716	0.089350	-0.210000	0.049396	0.111598	-0.488813
638	3.214449	0.005000	8.867337	3.571743	2.506843	0.056716	0.087468	-0.210000	0.061759	0.102997	-0.485067
639	3.219449	0.005000	8.901671	3.645447	2.587904	0.056716	0.085585	-0.210000	0.037517	0.103886	-0.493878
640	3.224449	0.005000	8.796607	3.606656	2.547176	0.056716	0.083702	-0.210000	0.049104	0.092797	-0.505993
641	3.229449	0.005000	8.853461	3.605154	2.550600	0.056716	0.081819	-0.210000	0.019277	0.083243	-0.513257
642	3.234449	0.005000	8.822587	3.642907	2.425707	0.056716	0.079937	-0.210000	-0.031579	0.061196	-0.516391
643	3.239449	0.005000	8.938804	3.641404	2.236680	0.056716	0.078054	-0.210000	-0.066830	0.058484	-0.514495
644	3.244449	0.005000	8.877533	3.570840	2.474187	0.056716	0.076171	-0.210000	-0.092948	0.072107	-0.519858
645	3.249449	0.005000	8.857466	3.616998	2.532908	0.056716	0.074288	-0.210000	-0.137582	0.067429	-0.506197
646	3.254449	0.005000	8.804504	3.752296	2.577592	0.056716	0.072406	-0.210000	-0.163498	0.095029	-0.501022
647	3.259449	0.005000	8.827086	3.780758	2.666406	0.056716	0.070523	-0.210000	-0.168021	0.093495	-0.502726
648	3.264449	0.005000	8.862771	3.806280	2.849617	0.056714	0.068669	-0.209999	-0.160974	0.093092	-0.495777
649	3.269449	0.005000	8.969554	3.773469	3.011503	0.056493	0.069997	-0.209875	-0.140469	0.079894	-0.505737
650	3.274449	0.005000	8.946720	3.681651	3.018025	0.056271	0.071326	-0.209752	-0.051991	0.045547	-0.513384
651	3.279449	0.005000	8.907480	3.511755	2.883466	0.056050	0.072654	-0.209628	-0.017018	0.016142	-0.519880
652	3.284449	0.005000	8.813168	3.649320	2.749325	0.055828	0.073982	-0.209504	-0.034291	-0.005041	-0.525043
653	3.289449	0.005000	8.687008	3.644331	2.690435	0.055607	0.075311	-0.209381	-0.060241	0.006723	-0.560150
654	3.294449	0.005000	8.460193	3.774741	2.480066	0.055386	0.076639	-0.209257	-0.118902	0.017488	-0.565356
655	3.299449	0.005000	8.411537	3.966532	2.379463	0.055164	0.077967	-0.209133	-0.204913	0.055997	-0.550536
656	3.304449	0.005000	8.619276	4.068102	2.379450	0.054943	0.079296	-0.209010	-0.239050	0.100780	-0.545239
657	3.309449	0.005000	8.598734	4.108845	2.713741	0.054721	0.080624	-0.208886	-0.199691	0.128476	-0.511967
658	3.314449	0.005000	8.603428	4.041720	2.825512	0.054500	0.081953	-0.208762	-0.152324	0.137255	-0.507353
659	3.319449	0.005000	8.688771	4.128565	2.934635	0.054279	0.083281	-0.208639	-0.158388	0.148478	-0.509242
660	3.324449	0.005000	8.665162	4.173196	3.028358	0.054057	0.084609	-0.208515	-0.086019	0.145602	-0.469364
661	3.329449	0.005000	8.638585	4.232135	3.033050	0.053836	0.085938	-0.208392	-0.003144	0.141794	-0.478107
662	3.334449	0.005000	8.672040	4.120200	3.017164	0.053614	0.085868	-0.208463	0.038486	0.135344	-0.457088
663	3.339449	0.005000	8.680537	4.123032	3.046558	0.053393	0.084539	-0.208711	0.023014	0.128207	-0.463986
664	3.344449	0.005000	8.831757	4.200059	2.821144	0.053171	0.083210	-0.208958	0.005575	0.112501	-0.459987
665	3.349449	0.005000	9.024833	4.120567	2.707560	0.052950	0.081881	-0.209205	0.016362	0.088253	-0.471186
666	3.354449	0.005000	8.720834	4.121792	2.712337	0.052728	0.080552	-0.209453	0.052883	0.034959	-0.476020
667	3.359449	0.005000	8.518156	4.192528	2.252061	0.052507	0.079223	-0.209700	0.008398	0.024603	-0.481483
668	3.364449	0.005000	8.413905	4.316400	2.017785	0.052285	0.077894	-0.209948	-0.060644	0.068434	-0.481781
669	3.369449	0.005000	8.408607	4.422873	1.934007	0.052064	0.076565	-0.210195	-0.088620	0.097104	-0.501848
670	3.374449	0.005000	8.515080	4.387769	2.118960	0.051842	0.075236	-0.210442	-0.108784	0.121265	-0.510849
671	3.379449	0.005000	8.423200	4.481973	2.035693	0.051621	0.073907	-0.210690	-0.148231	0.123456	-0.518006
672	3.384449	0.005000	8.387378	4.384898	2.197440	0.051399	0.072578	-0.210937	-0.160899	0.144342	-0.519783
673	3.389449	0.005000	8.358120	4.450434	2.181126	0.051178	0.071249	-0.211185	-0.165182	0.132131	-0.527936
674	3.394449	0.005000	8.409986	4.592443	2.289909	0.050956	0.069920	-0.211432	-0.160901	0.124861	-0.527422
675	3.399449	0.005000	8.254513	4.473360	2.382626	0.050724	0.068602	-0.211692	-0.171482	0.134036	-0.535302
676	3.404449	0.005000	8.420985	4.630320	2.448495	0.050281	0.067494	-0.212186	-0.193085	0.125616	-0.534683
677	3.409449	0.005000	8.576457	4.669560	2.560669	0.049838	0.066387	-0.212681	-0.148710	0.110799	-0.525922
678	3.414449	0.005000	8.614210	4.409349	2.548540	0.049395	0.065279	-0.213176	-0.088785	0.075125	-0.535028
679	3.419449	0.005000	8.436600	4.394421	2.413949	0.048952	0.064172	-0.213670	-0.068127	0.045970	-0.516804
680	3.424449	0.005000	8.454513	4.337727	2.315160	0.048509	0.063064	-0.214165	-0.097107	0.058464	-0.536509
681	3.429449	0.005000	8.498643	4.355640	2.364470	0.048066	0.061957	-0.214659	-0.122338	0.082385	-0.536832
682	3.434449	0.005000	8.497141	4.286130	2.456985	0.047623	0.060849	-0.215154	-0.142960	0.108502	-0.529234
683	3.439449	0.005000	8.408425	4.224437	2.654837	0.047180	0.059741	-0.215649	-0.150011	0.124878	-0.508589
684	3.444449	0.005000	8.164724	4.328545	2.731851	0.046737	0.058634	-0.216143	-0.145736	0.128098	-0.517208
685	3.449449	0.005000	7.879974	4.630320	2.832546	0.046294	0.057526	-0.216638	-0.154565	0.133239	-0.531540
686	3.454449	0.005000	8.253630	4.473360	2.792655	0.045851	0.056419	-0.217133	-0.130731	0.142167	-0.510181
687	3.459449	0.005000	8.632800	4.481410	3.037580	0.045408	0.055311	-0.217627	-0.101025	0.143632	-0.551989
688	3.464449	0.005000	8.547752	4.506032	3.126064	0.044965	0.054204	-0.218122	-0.063874	0.080351	-0.548300
689	3.469449	0.005000	8.520176	4.488649	2.898664	0.045220	0.053223	-0.218262	-0.029361	0.049437	-0.556309
690	3.474449	0.005000	8.421976	4.669560	2.875488	0.045996	0.052337	-0.218139	-0.040537	0.046705	-0.585457
691	3.479449	0.005000	8.236062	4.702294	2.864520	0.046771	0.051451	-0.218015	-0.056200	0.059193	-0.570609
692	3.484449	0.005000	8.042867	4.709466	2.942334	0.047546	0.050565	-0.217891	-0.073392	0.064613	-0.586544
693	3.489449	0.005000	8.004149	4.709611	2.942189	0.048321	0.049679	-0.217768	-0.113115	0.086305	-0.575005
694	3.494449	0.005000	8.007241	4.815114	2.945281	0.049097	0.048793	-0.217644	-0.156943	0.128264	-0.560343
695	3.499449	0.005000	7.897232	4.911661	3.018149	0.049872	0.047907	-0.217520	-0.183050	0.128516	-0.550204
696	3.504449	0.005000	7.990460	4.973813	3.124700	0.050647	0.047021	-0.217397	-0.196433	0.134244	-0.565276
697	3.509449	0.005000	7.972041	5.016399	3.106281	0.051423	0.046135	-0.217273	-0.173202	0.137254	-0.567964
698	3.514449	0.005000	7.824217	5.014991	3.116014	0.052198	0.045249	-0.217150	-0.152811	0.105502	-0.569174
699	3.519449	0.005000	7.739481	5.061960	2.973039	0.052973	0.044363	-0.217026	-0.131306	0.123156	-0.569905
700	3.524449	0.005000	7.672466	4.954573	2.903760	0.053748	0.043477	-0.216902	-0.114485	0.143790	-0.563827
701	3.529449	0.005000	7.691040	4.944240	2.903760	0.054524	0.042591	-0.216779	-0.107310	0.164768	-0.563042
702	3.534449	0.005000	7.808032	4.982752	2.917083	0.055213	0.041673	-0.216751	-0.126792	0.188571	-0.585179
703	3.539449	0.005000	7.877620	5.032340	2.957810	0.055103	0.040456	-0.217615	-0.100303	0.213951	-0.559964
704	3.544449	0.005000	7.762511	5.038835	2.950009	0.054992	0.039239	-0.218480	-0.091212	0.239985	-0.557426
705	3.549449	0.005000	7.812817	4.905000	3.182497	0.054881	0.038022	-0.219345	-0.091145	0.259787	-0.548936
706	3.554449	0.005000	7.848000	5.083233	3.277091	0.054771	0.036805	-0.220210	-0.102547	0.276680	-0.545862
707	3.559449	0.005000	7.907557	5.201392	3.450330	0.054660	0.035588	-0.221075	-0.128605	0.268954	-0.557446
708	3.564449	0.005000	7.891624	5.127396	3.335400	0.054549	0.034370	-0.221940	-0.122318	0.253796	-0.569830
709	3.569449	0.005000	7.785461	5.163739	3.326818	0.054439	0.033153	-0.222805	-0.131116	0.235520	-0.567833
710	3.574449	0.005000	7.843926	4.944240	3.246556	0.054328	0.031936	-0.223669	-0.113225	0.210613	-0.563517
711	3.579449	0.005000	7.756261	4.891741	3.217680	0.054217	0.030719	-0.224534	-0.111338	0.180986	-0.585549
712	3.584449	0.005000	7.714608	5.018833	3.190224	0.054106	0.029502	-0.225399	-0.120080	0.163667	-0.593002
713	3.589449	0.005000	7.738609	5.022720	3.139200	0.053996	0.028285	-0.226264	-0.102499	0.157937	-0.592799
714	3.594449	0.005000	7.642861	5.053021	3.121323	0.053885	0.027068	-0.227129	-0.061636	0.144635	-0.602360
715	3.599449	0.005000	7.848000	4.873199	2.957878	0.053774	0.025850	-0.227994	-0.052484	0.141887	-0.602354
716	3.604449	0.005000	7.802811	4.859811	3.066669	0.054068	0.023959	-0.228859	-0.044425	0.159491	-0.599438
717	3.609449	0.005000	7.704425	4.974557	3.196286	0.054621	0.021634	-0.229725	-0.055973	0.160566	-0.613159
718	3.614449	0.005000	7.808760	5.000468	3.485565	0.055175	0.019308	-0.230591	-0.049543	0.171285	-0.614037
719	3.619449	0.005000	7.801105	5.299314	3.490446	0.055729	0.016982	-0.231456	-0.031576	0.164341	-0.634623
720	3.624449	0.005000	7.692371	5.337084	3.413436	0.056283	0.014656	-0.232322	-0.036474	0.165270	-0.623744
721	3.629449	0.005000	7.694200	5.528626	3.260080	0.056836	0.012331	-0.233188	-0.049723	0.190312	-0.624787
722	3.634449	0.005000	7.848000	5.498681	2.877223	0.057390	0.010005	-0.234054	-0.079747	0.192697	-0.598972
723	3.639449	0.005000	7.993018	5.466302	3.048778	0.057944	0.007679	-0.234919	-0.078547	0.227395	-0.593274
724	3.644449	0.005000	7.898167	5.375880	3.167513	0.058498	0.005354	-0.235785	-0.100615	0.219019	-0.592590
725	3.649449	0.005000	7.887240	5.271266	2.995346	0.059052	0.003028	-0.236651	-0.115394	0.240598	-0.590342
726	3.654449	0.005000	7.699080	5.242080	2.974200	0.059605	0.000702	-0.237516	-0.161326	0.250915	-0.599674
727	3.659449	0.005000	7.601948	5.317554	2.991783	0.060159	-0.001624	-0.238382	-0.152026	0.280793	-0.594125
728	3.664449	0.005000	7.601530	5.280220	2.954030	0.060713	-0.003949	-0.239248	-0.125245	0.283047	-0.617351
729	3.669449	0.005000	7.573320	5.194158	3.104153	0.061209	-0.006217	-0.240114	-0.131710	0.296840	-0.618109
730	3.674449	0.005000	7.511023	5.477417	3.268449	0.061319	-0.008099	-0.240979	-0.169833	0.317499	-0.644022
731	3.679449	0.005000	7.401318	5.659715	3.256920	0.061430	-0.009981	-0.241844	-0.193377	0.325056	-0.648988
732	3.684449	0.005000	7.422541	5.683619	3.335400	0.061541	-0.011863	-0.242710	-0.184812	0.327393	-0.637951
733	3.689449	0.005000	7.615736	5.626176	3.296160	0.061651	-0.013745	-0.243575	-0.159980	0.322091	-0.647009
734	3.694449	0.005000	7.691040	5.572080	3.373982	0.061762	-0.015626	-0.244440	-0.140915	0.282511	-0.635120
735	3.699449	0.005000	7.617151	5.549017	3.316928	0.061873	-0.017508	-0.245306	-0.098800	0.269686	-0.642242
736	3.704449	0.005000	7.443857	5.616571	3.239926	0.061984	-0.019390	-0.246171	-0.112017	0.245222	-0.627435
737	3.709449	0.005000	7.298640	5.587788	3.099960	0.062094	-0.021272	-0.247036	-0.098938	0.234194	-0.612985
738	3.714449	0.005000	7.230958	5.586301	3.142624	0.062205	-0.023154	-0.247902	-0.073662	0.241311	-0.621588
739	3.719449	0.005000	7.206998	5.624482	3.256798	0.062316	-0.025036	-0.248767	-0.025332	0.254693	-0.620755
740	3.724449	0.005000	7.208601	5.673678	3.520041	0.062427	-0.026918	-0.249632	0.012903	0.272635	-0.634330
741	3.729449	0.005000	7.199742	5.798907	3.492360	0.062537	-0.028800	-0.250498	0.024892	0.254605	-0.614020
742	3.734449	0.005000	7.132974	5.973186	3.514188	0.062648	-0.030682	-0.251363	0.069184	0.257069	-0.602662
743	3.739449	0.005000	7.109659	6.074981	3.288941	0.062759	-0.031128	-0.251747	0.077873	0.257174	-0.602783
744	3.744449	0.005000	7.126927	6.067447	3.277795	0.062870	-0.030795	-0.251871	0.040171	0.278268	-0.605303
745	3.749449	0.005000	7.220160	6.169958	3.173801	0.062980	-0.030463	-0.251994	-0.030262	0.317972	-0.607339
746	3.754449	0.005000	7.141680	6.193507	3.087133	0.063091	-0.030131	-0.252118	-0.049125	0.333258	-0.594511
747	3.759449	0.005000	7.143400	6.083920	3.019760	0.063202	-0.029799	-0.252242	-0.053311	0.358724	-0.595559
748	3.764449	0.005000	7.219943	6.082200	3.022131	0.063312	-0.029467	-0.252365	-0.027439	0.361665	-0.582660
749	3.769449	0.005000	7.256889	6.006231	3.253154	0.063423	-0.029134	-0.252489	-0.002049	0.352310	-0.572535
750	3.774449	0.005000	7.143973	5.971358	3.335400	0.063534	-0.028802	-0.252613	0.033183	0.348156	-0.584620
751	3.779449	0.005000	7.098645	6.003720	3.382231	0.063644	-0.028470	-0.252736	0.037234	0.321421	-0.579556
752	3.784449	0.005000	7.288075	5.891283	3.144483	0.063755	-0.028138	-0.252860	0.039698	0.299657	-0.592842
753	3.789449	0.005000	7.252628	5.846760	3.053948	0.063866	-0.027805	-0.252983	0.024030	0.278178	-0.603896
754	3.794449	0.005000	7.205437	5.854932	3.139200	0.063977	-0.027473	-0.253107	-0.004763	0.273601	-0.602967
755	3.799449	0.005000	7.141680	5.925240	3.325755	0.064087	-0.027141	-0.253231	0.000339	0.259762	-0.621952
756	3.804449	0.005000	7.018098	5.812785	3.385766	0.064274	-0.027037	-0.253461	0.027131	0.265531	-0.611286
757	3.809449	0.005000	6.867000	5.715001	3.336839	0.064828	-0.028034	-0.254202	0.019881	0.259743	-0.620087
758	3.814449	0.005000	6.841532	5.701496	3.453120	0.065381	-0.029030	-0.254944	0.019008	0.255944	-0.609853
759	3.819449	0.005000	6.740589	5.855451	3.350675	0.065935	-0.030026	-0.255686	0.003590	0.257185	-0.618466
760	3.824449	0.005000	6.732518	5.998004	3.352162	0.066488	-0.031023	-0.256427	0.002969	0.244859	-0.620297
761	3.829449	0.005000	6.749280	6.027453	3.390147	0.067042	-0.032019	-0.257169	-0.001884	0.271509	-0.612595
762	3.834449	0.005000	6.631346	6.258887	3.335186	0.067595	-0.033015	-0.257911	-0.012954	0.291382	-0.623815
763	3.839449	0.005000	6.613310	6.251929	3.463148	0.068149	-0.034012	-0.258652	-0.033985	0.304509	-0.611706
764	3.844449	0.005000	6.609299	6.295379	3.666299	0.068702	-0.035008	-0.259394	-0.015189	0.359450	-0.602262
765	3.849449	0.005000	6.639848	6.380644	3.782516	0.069256	-0.036004	-0.260136	-0.007828	0.352616	-0.582215
766	3.854449	0.005000	6.536365	6.342891	3.845520	0.069809	-0.037001	-0.260878	0.018162	0.346257	-0.584682
767	3.859449	0.005000	6.617939	6.173490	3.819901	0.070363	-0.037997	-0.261619	0.046604	0.335162	-0.593574
768	3.864449	0.005000	6.732721	6.227820	3.722581	0.070917	-0.038993	-0.262361	0.024311	0.326031	-0.580586
769	3.869449	0.005000	6.690320	6.229499	3.933661	0.071470	-0.039990	-0.263103	0.002170	0.301351	-0.591814
770	3.874449	0.005000	6.539308	6.452339	3.811563	0.071795	-0.040986	-0.263844	0.009274	0.281759	-0.590634
771	3.879449	0.005000	6.656827	6.578347	3.739093	0.072016	-0.041982	-0.264586	0.035779	0.286296	-0.601270
772	3.884449	0.005000	6.508341	6.429861	3.570840	0.072237	-0.042978	-0.265328	0.077126	0.268781	-0.600037
773	3.889449	0.005000	6.509417	6.278400	3.688560	0.072459	-0.043974	-0.266069	0.087522	0.283290	-0.607410
774	3.894449	0.005000	6.429481	6.160680	3.567900	0.072680	-0.044971	-0.266811	0.091740	0.319059	-0.623860
775	3.899449	0.005000	6.359818	6.273992	3.534538	0.072902	-0.045967	-0.267553	0.065123	0.342479	-0.618211
776	3.904449	0.005000	6.278400	6.082200	3.649320	0.073123	-0.046963	-0.268294	0.004204	0.364697	-0.624355
777	3.909449	0.005000	6.240645	6.079231	3.804795	0.073344	-0.047959	-0.269036	-0.000143	0.385840	-0.625101
778	3.914449	0.005000	6.384301	6.314685	3.957330	0.073566	-0.048956	-0.269778	0.041111	0.405994	-0.612380
779	3.919449	0.005000	6.496087	6.317640	4.259407	0.073787	-0.049952	-0.270519	0.090136	0.402728	-0.610097
780	3.924449	0.005000	6.542050	6.216465	4.310885	0.074009	-0.050948	-0.271261	0.116439	0.362549	-0.603558
781	3.929449	0.005000	6.527844	6.220926	4.362642	0.074230	-0.051944	-0.272003	0.105795	0.322354	-0.613710
782	3.934449	0.005000	6.570090	6.169185	4.355640	0.074451	-0.052941	-0.272745	0.114542	0.301162	-0.610094
783	3.939449	0.005000	6.621568	6.326904	4.091680	0.074741	-0.053960	-0.273410	0.102482	0.314452	-0.604276
784	3.944449	0.005000	6.620215	6.564425	4.041720	0.075295	-0.055067	-0.273780	0.123327	0.304324	-0.609279
785	3.949449	0.005000	6.539490	6.605145	4.133790	0.075848	-0.056174	-0.274151	0.160505	0.295980	-0.592638
786	3.954449	0.005000	6.385479	6.510181	4.170081	0.076402	-0.057281	-0.274522	0.189913	0.281862	-0.585953
787	3.959449	0.005000	6.356880	6.442595	4.159440	0.076955	-0.058388	-0.274893	0.179307	0.268367	-0.575075
788	3.964449	0.005000	6.194668	6.519092	4.063966	0.077509	-0.059495	-0.275264	0.157394	0.290462	-0.578304
789	3.969449	0.005000	6.139921	6.615356	4.103996	0.078063	-0.060602	-0.275635	0.144206	0.315100	-0.579185
790	3.974449	0.005000	6.160435	6.631805	4.100213	0.078616	-0.061709	-0.276006	0.137197	0.332067	-0.582082
791	3.979449	0.005000	6.124623	6.592320	4.159440	0.079170	-0.062816	-0.276376	0.179477	0.328970	-0.582289
792	3.984449	0.005000	6.098946	6.631560	4.159440	0.079723	-0.063923	-0.276747	0.182918	0.312538	-0.573831
793	3.989449	0.005000	6.012442	6.686059	4.370899	0.080277	-0.065030	-0.277118	0.198950	0.305431	-0.569111
794	3.994449	0.005000	5.913513	6.788520	4.341884	0.080830	-0.066137	-0.277489	0.211636	0.303729	-0.567710
795	3.999449	0.005000	5.976749	6.817923	4.291861	0.081384	-0.067244	-0.277860	0.219389	0.289197	-0.563981
796	4.004449	0.005000	6.071433	6.670800	4.037894	0.081937	-0.068351	-0.278231	0.239752	0.266566	-0.567532
797	4.009449	0.005000	5.954850	6.592320	3.718889	0.082331	-0.070180	-0.278960	0.233887	0.251657	-0.559560
798	4.014449	0.005000	6.034800	6.592320	3.608518	0.082663	-0.072285	-0.279826	0.196118	0.261489	-0.554191
799	4.019449	0.005000	6.082200	6.638248	3.512424	0.082995	-0.074389	-0.280691	0.141513	0.294133	-0.551676
800	4.024449	0.005000	5.969747	6.587053	3.777574	0.083327	-0.076493	-0.281557	0.106385	0.325507	-0.571338
801	4.029449	0.005000	6.035400	6.596100	3.837960	0.083659	-0.078597	-0.282423	0.110554	0.345625	-0.564312
802	4.034449	0.005000	5.929795	6.790797	3.769317	0.083992	-0.080702	-0.283288	0.105003	0.355840	-0.560316
803	4.039449	0.005000	6.003720	6.828550	3.690930	0.084324	-0.082806	-0.284154	0.118353	0.368327	-0.572594
804	4.044449	0.005000	6.003720	6.905536	3.844816	0.084656	-0.084910	-0.285020	0.103480	0.360105	-0.563937
805	4.049449	0.005000	5.967950	7.059730	3.808015	0.084988	-0.087014	-0.285886	0.087682	0.358209	-0.574849
806	4.054449	0.005000	6.039738	7.135236	3.920778	0.085320	-0.089119	-0.286751	0.100248	0.323301	-0.571418
807	4.059449	0.005000	5.870307	7.220160	3.806280	0.085653	-0.091223	-0.287617	0.100572	0.297662	-0.582511
808	4.064449	0.005000	5.807520	7.246976	3.471756	0.085985	-0.093327	-0.288483	0.107702	0.277723	-0.589264
809	4.069449	0.005000	5.775889	7.196138	3.350618	0.086317	-0.095431	-0.289348	0.093656	0.276556	-0.587793
810	4.074449	0.005000	5.855851	7.150771	3.287069	0.086731	-0.097289	-0.290092	0.100687	0.284622	-0.607455
811	4.079449	0.005000	5.788729	7.269624	3.374640	0.087396	-0.098396	-0.290463	0.127301	0.278934	-0.621808
812	4.084449	0.005000	5.634743	7.125863	3.339505	0.088060	-0.099504	-0.290834	0.142053	0.249170	-0.637532
813	4.089449	0.005000	5.428737	6.985123	3.413880	0.088725	-0.100611	-0.291205	0.166061	0.238371	-0.646115
814	4.094449	0.005000	5.321939	7.087739	3.438419	0.089389	-0.101719	-0.291576	0.134419	0.257770	-0.644147
815	4.099449	0.005000	5.297400	7.164731	3.570840	0.090054	-0.102826	-0.291947	0.143059	0.272706	-0.662959
816	4.104449	0.005000	5.336640	7.154872	3.653605	0.090718	-0.103934	-0.292318	0.173264	0.263621	-0.658991
817	4.109449	0.005000	5.355594	6.965766	3.727800	0.091383	-0.105041	-0.292689	0.166065	0.248236	-0.675947
818	4.114449	0.005000	5.258160	6.983098	3.726178	0.092047	-0.106149	-0.293060	0.140710	0.226592	-0.662057
819	4.119449	0.005000	5.293233	7.119976	3.819649	0.092712	-0.107256	-0.293431	0.107470	0.222975	-0.662230
820	4.124449	0.005000	5.226450	7.283581	3.986625	0.093376	-0.108364	-0.293802	0.085752	0.233180	-0.679612
821	4.129449	0.005000	5.272712	7.484705	4.051855	0.094041	-0.109471	-0.294173	0.093006	0.224808	-0.661954
822	4.134449	0.005000	5.362759	7.494778	3.884822	0.094705	-0.110579	-0.294544	0.139646	0.197540	-0.665108
823	4.139449	0.005000	5.325068	7.608036	3.676988	0.095370	-0.111686	-0.294915	0.183069	0.181315	-0.651152
824	4.144449	0.005000	5.248091	7.661869	3.787179	0.096119	-0.112537	-0.295095	0.224249	0.184188	-0.659941
825	4.149449	0.005000	5.327699	7.573320	3.775981	0.096894	-0.113312	-0.295219	0.241199	0.177871	-0.658557
826	4.154449	0.005000	5.297400	7.588257	3.845520	0.097669	-0.114087	-0.295343	0.252511	0.191730	-0.656930
827	4.159449	0.005000	5.206947	7.627855	3.845520	0.098444	-0.114862	-0.295466	0.291893	0.162007	-0.667857
828	4.164449	0.005000	5.135870	7.464740	3.850090	0.099219	-0.115637	-0.295590	0.276985	0.149588	-0.644990
829	4.169449	0.005000	5.173514	7.540246	3.966323	0.099994	-0.116412	-0.295714	0.268342	0.139253	-0.664663
830	4.174449	0.005000	5.173359	7.653380	3.883180	0.100769	-0.117187	-0.295837	0.260842	0.102612	-0.662050
831	4.179449	0.005000	4.826427	7.612467	3.845241	0.101544	-0.117962	-0.295961	0.273329	0.085521	-0.669448
832	4.184449	0.005000	4.711585	7.535473	3.576411	0.102319	-0.118737	-0.296084	0.269373	0.073503	-0.680488
833	4.189449	0.005000	4.595944	7.462897	3.421177	0.103094	-0.119512	-0.296208	0.249506	0.085815	-0.673751
834	4.194449	0.005000	4.410557	7.537999	3.449201	0.103869	-0.120287	-0.296332	0.211820	0.105612	-0.693901
835	4.199449	0.005000	4.204102	7.281088	3.537022	0.104644	-0.121062	-0.296455	0.196344	0.119127	-0.689463
836	4.204449	0.005000	4.272062	7.617658	3.714143	0.105418	-0.121836	-0.296579	0.158396	0.151906	-0.701793
837	4.209449	0.005000	4.066614	7.839702	3.814578	0.106257	-0.122803	-0.296738	0.145764	0.138198	-0.706030
838	4.214449	0.005000	4.120200	7.838221	3.963240	0.107254	-0.124243	-0.296986	0.184651	0.127537	-0.695547
839	4.219449	0.005000	4.103466	7.903974	3.996999	0.108251	-0.125682	-0.297233	0.217242	0.126916	-0.703548
840	4.224449	0.005000	4.147031	7.860409	3.632884	0.109248	-0.127122	-0.297480	0.237298	0.118830	-0.686713
841	4.229449	0.005000	4.122694	7.940391	3.663231	0.110244	-0.128562	-0.297728	0.228718	0.132771	-0.711128
842	4.234449	0.005000	4.008895	7.887240	3.634102	0.111241	-0.130002	-0.297975	0.254596	0.146917	-0.712409
843	4.239449	0.005000	3.884760	7.864697	3.828823	0.112238	-0.131441	-0.298222	0.264254	0.154681	-0.712722
844	4.244449	0.005000	3.863693	7.769520	3.722013	0.113235	-0.132881	-0.298469	0.318661	0.161983	-0.730471
845	4.249449	0.005000	3.747443	7.749923	3.629723	0.114231	-0.134321	-0.298717	0.338107	0.144319	-0.727535
846	4.254449	0.005000	3.616079	7.727280	3.758041	0.115228	-0.135761	-0.298964	0.339764	0.160215	-0.747011
847	4.259449	0.005000	3.548242	7.864642	4.058362	0.116225	-0.137200	-0.299211	0.346042	0.187585	-0.741020
848	4.264449	0.005000	3.570840	7.950368	4.127016	0.117222	-0.138640	-0.299459	0.344131	0.220864	-0.747998
849	4.269449	0.005000	3.439271	7.848000	4.168673	0.118218	-0.140080	-0.299706	0.345969	0.206968	-0.775593
850	4.274449	0.005000	3.360124	7.821122	3.950878	0.119215	-0.141520	-0.299953	0.346268	0.194224	-0.769353
851	4.279449	0.005000	3.458752	7.842368	3.968811	0.119763	-0.143499	-0.299900	0.342679	0.181174	-0.785219
852	4.284449	0.005000	3.315933	7.926480	4.149400	0.120206	-0.145603	-0.299776	0.359291	0.165198	-0.764302
853	4.289449	0.005000	3.335400	7.848000	4.159440	0.120649	-0.147707	-0.299652	0.345274	0.171702	-0.780019
854	4.294449	0.005000	3.328537	7.854863	4.159440	0.121092	-0.149812	-0.299529	0.337210	0.164017	-0.780454
855	4.299449	0.005000	3.301520	7.960360	4.114840	0.121535	-0.151916	-0.299405	0.363259	0.169987	-0.775067
856	4.304449	0.005000	3.370767	7.894986	4.033974	0.121978	-0.154020	-0.299281	0.398016	0.167082	-0.775839
857	4.309449	0.005000	3.293344	7.923664	3.963240	0.122421	-0.156124	-0.299157	0.404526	0.176758	-0.781725
858	4.314449	0.005000	3.332736	7.925148	3.924000	0.122864	-0.158229	-0.299034	0.419480	0.214940	-0.794048
859	4.319449	0.005000	3.452423	7.887240	3.884899	0.123307	-0.160333	-0.298910	0.414482	0.239593	-0.782590
860	4.324449	0.005000	3.451512	7.810368	3.997657	0.123750	-0.162437	-0.298786	0.407451	0.259842	-0.796195
861	4.329449	0.005000	3.443846	7.811851	3.920909	0.124193	-0.164542	-0.298663	0.422512	0.271337	-0.785490
862	4.334449	0.005000	3.413880	7.878115	4.023470	0.124635	-0.166646	-0.298539	0.431615	0.270728	-0.790152
863	4.339449	0.005000	3.486315	7.920435	4.047765	0.125078	-0.168750	-0.298415	0.428323	0.283473	-0.813951
864	4.344449	0.005000	3.499877	7.997443	3.821315	0.125707	-0.170706	-0.298374	0.425083	0.275612	-0.829067
865	4.349449	0.005000	3.314158	7.995961	3.697559	0.126703	-0.172366	-0.298498	0.406737	0.302136	-0.844179
866	4.354449	0.005000	3.256920	7.907503	3.727800	0.127700	-0.174027	-0.298622	0.388221	0.316982	-0.846437
867	4.359449	0.005000	3.280157	7.970104	3.783043	0.128696	-0.175687	-0.298745	0.357909	0.321507	-0.855104
868	4.364449	0.005000	3.335400	8.031094	3.963240	0.129692	-0.177348	-0.298869	0.356257	0.318639	-0.872501
869	4.369449	0.005000	3.132879	8.097872	3.824767	0.130688	-0.179008	-0.298993	0.334338	0.307568	-0.871797
870	4.374449	0.005000	3.123293	8.185253	3.665227	0.131685	-0.180669	-0.299116	0.279812	0.324856	-0.893989
871	4.379449	0.005000	3.191357	8.345203	3.544517	0.132681	-0.182329	-0.299240	0.250455	0.317102	-0.885940
872	4.384449	0.005000	3.198818	8.436600	3.473498	0.133677	-0.183989	-0.299364	0.256273	0.302778	-0.894661
873	4.389449	0.005000	3.138224	8.475840	3.512468	0.134674	-0.185650	-0.299487	0.281303	0.297418	-0.898480
874	4.394449	0.005000	3.043091	8.493469	3.282512	0.135670	-0.187310	-0.299611	0.284538	0.297770	-0.897911
875	4.399449	0.005000	3.116102	8.734378	3.162298	0.136666	-0.188971	-0.299734	0.306827	0.306112	-0.918588
876	4.404449	0.005000	3.256920	8.829000	3.261645	0.137663	-0.190631	-0.299858	0.306043	0.323759	-0.898888
877	4.409449	0.005000	3.231148	8.776292	3.440815	0.138659	-0.192292	-0.299982	0.313691	0.329198	-0.914713
878	4.414449	0.005000	3.299436	8.672040	3.531600	0.140221	-0.195462	-0.300948	0.342024	0.303199	-0.910272
879	4.419449	0.005000	3.246406	8.768732	3.460818	0.141882	-0.198894	-0.302061	0.326432	0.295587	-0.906909
880	4.424449	0.005000	3.284340	8.602700	3.287020	0.143542	-0.202326	-0.303173	0.279581	0.300200	-0.906558
881	4.429449	0.005000	3.343053	8.694998	3.382293	0.145203	-0.205757	-0.304286	0.236951	0.317616	-0.897077
882	4.434449	0.005000	3.269225	8.868240	3.413880	0.146863	-0.209189	-0.305399	0.203598	0.309179	-0.908084
883	4.439449	0.005000	3.300823	8.789760	3.584829	0.148524	-0.212621	-0.306511	0.228500	0.291678	-0.901751
884	4.444449	0.005000	3.374640	8.718476	3.531600	0.150184	-0.216053	-0.307624	0.252668	0.267895	-0.918413
885	4.449449	0.005000	3.331145	8.868240	3.455247	0.151845	-0.219485	-0.308736	0.256772	0.241752	-0.912569
886	4.454449	0.005000	3.374640	8.945419	3.490408	0.153506	-0.222916	-0.309849	0.261929	0.239059	-0.914103
887	4.459449	0.005000	3.413053	8.906653	3.489880	0.155166	-0.226348	-0.310961	0.308079	0.219335	-0.930958
888	4.464449	0.005000	3.455431	8.988271	3.533911	0.156827	-0.229780	-0.312074	0.328951	0.220081	-0.913776
889	4.469449	0.005000	3.499923	8.985960	3.598735	0.158487	-0.233212	-0.313186	0.339328	0.209678	-0.922097
890	4.474449	0.005000	3.502863	9.014697	3.492360	0.160148	-0.236643	-0.314299	0.356068	0.198228	-0.921297
891	4.479449	0.005000	3.498696	8.848008	3.387312	0.161563	-0.238806	-0.314588	0.344845	0.193550	-0.917221
892	4.484449	0.005000	3.437396	8.970283	3.406041	0.162559	-0.238806	-0.313475	0.368173	0.179062	-0.930289
893	4.489449	0.005000	3.612016	8.976634	3.501686	0.163556	-0.238806	-0.312362	0.408522	0.155148	-0.921151
894	4.494449	0.005000	3.948337	9.178086	3.413880	0.164553	-0.238806	-0.311249	0.426043	0.141782	-0.922181
895	4.499449	0.005000	3.894206	9.260640	3.229852	0.165550	-0.238806	-0.310136	0.440539	0.117671	-0.899201
896	4.504449	0.005000	3.790915	9.248703	3.139200	0.166546	-0.238806	-0.309023	0.448419	0.130464	-0.899661
897	4.509449	0.005000	3.912165	9.221400	3.392614	0.167543	-0.238806	-0.307910	0.460650	0.126886	-0.883220
898	4.514449	0.005000	3.253496	9.231144	3.214256	0.168540	-0.238806	-0.306797	0.512557	0.082326	-0.884840
899	4.519449	0.005000	3.139200	9.103680	3.099960	0.169537	-0.238806	-0.305684	0.566816	0.099064	-0.892723
900	4.524449	0.005000	2.763701	9.182764	2.843390	0.170533	-0.238806	-0.304571	0.519540	0.110299	-0.878375
901	4.529449	0.005000	2.064808	9.281202	2.513243	0.171530	-0.238806	-0.303458	0.500499	0.117120	-0.902189
902	4.534449	0.005000	1.996404	9.125718	2.754330	0.172527	-0.238806	-0.302345	0.547787	0.142500	-0.929239
903	4.539449	0.005000	1.985379	9.221400	2.895829	0.173524	-0.238806	-0.301232	0.546304	0.165553	-0.960337
904	4.544449	0.005000	1.580344	9.246392	2.850272	0.174521	-0.238806	-0.300119	0.498644	0.160919	-0.968316
905	4.549449	0.005000	1.791650	9.143850	2.942535	0.175616	-0.239795	-0.300221	0.429818	0.181343	-0.977114
906	4.554449	0.005000	1.749425	8.951662	2.959375	0.176724	-0.240903	-0.300468	0.361225	0.192323	-0.978239
907	4.559449	0.005000	2.179176	8.642746	3.022564	0.177831	-0.242010	-0.300716	0.295977	0.174593	-0.963509
908	4.564449	0.005000	2.615169	8.932809	3.304603	0.178939	-0.243118	-0.300963	0.201023	0.176599	-0.982301
909	4.569449	0.005000	2.994335	9.140348	3.254348	0.180046	-0.244225	-0.301210	0.111973	0.143851	-0.967700
910	4.574449	0.005000	3.392225	9.666554	3.531600	0.181154	-0.245333	-0.301457	0.073012	0.135101	-0.936974
911	4.579449	0.005000	3.557704	10.259155	3.487981	0.182261	-0.246440	-0.301705	0.100229	0.082135	-0.912445
912	4.584449	0.005000	3.028343	10.639927	3.329513	0.183369	-0.247548	-0.301952	0.189787	0.016907	-0.893715
913	4.589449	0.005000	2.140726	10.756129	3.062176	0.184476	-0.248655	-0.302199	0.274511	-0.013296	-0.896438
914	4.594449	0.005000	1.256185	10.908674	2.982378	0.185583	-0.249762	-0.302447	0.338968	-0.041709	-0.912414
915	4.599449	0.005000	0.869343	10.638587	3.098444	0.186691	-0.250870	-0.302694	0.394000	-0.037253	-0.883023
916	4.604449	0.005000	0.709320	10.480080	3.214680	0.187798	-0.251977	-0.302941	0.488721	-0.057605	-0.847610
917	4.609449	0.005000	0.842986	10.253816	3.108078	0.188906	-0.253085	-0.303189	0.553702	-0.082094	-0.814939
918	4.614449	0.005000	1.115776	9.944358	3.071812	0.190013	-0.254239	-0.302766	0.633819	-0.093640	-0.810477
919	4.619449	0.005000	1.091671	9.641995	3.028529	0.191121	-0.255457	-0.301406	0.688240	-0.105723	-0.777225
920	4.624449	0.005000	1.300017	9.456840	3.038552	0.192229	-0.256675	-0.300046	0.671155	-0.100587	-0.762969
921	4.629449	0.005000	1.030528	9.251117	3.031386	0.193336	-0.257893	-0.298685	0.632526	-0.100528	-0.751370
922	4.634449	0.005000	0.589824	9.221400	3.099960	0.194444	-0.259112	-0.297325	0.590227	-0.100405	-0.757112
923	4.639449	0.005000	0.338983	9.115882	2.982240	0.195551	-0.260330	-0.295964	0.519205	-0.087162	-0.772644
924	4.644449	0.005000	0.274680	9.025200	2.940134	0.196659	-0.261548	-0.294604	0.456294	-0.084567	-0.757424
925	4.649449	0.005000	0.133258	8.805298	3.005942	0.197766	-0.262766	-0.293244	0.381066	-0.067868	-0.755638
926	4.654449	0.005000	0.257655	8.794950	3.149579	0.198874	-0.263985	-0.291883	0.309086	-0.092333	-0.742242
927	4.659449	0.005000	0.455208	8.910112	3.160136	0.199981	-0.265203	-0.290523	0.223997	-0.074547	-0.728805
928	4.664449	0.005000	0.725481	8.985654	3.139200	0.201089	-0.266421	-0.289163	0.175584	-0.089729	-0.709486
929	4.669449	0.005000	0.803003	9.200363	3.139200	0.202196	-0.267639	-0.287802	0.162156	-0.098034	-0.678597
930	4.674449	0.005000	0.852374	9.294071	3.155915	0.203304	-0.268858	-0.286442	0.166067	-0.099844	-0.675370
931	4.679449	0.005000	0.869678	9.423998	3.344215	0.204412	-0.270076	-0.285082	0.191970	-0.113583	-0.647301
932	4.684449	0.005000	0.888795	9.549045	3.453120	0.205102	-0.270669	-0.284535	0.199259	-0.103130	-0.625139
933	4.689449	0.005000	0.797349	9.638899	3.544149	0.205767	-0.271223	-0.284041	0.214120	-0.109897	-0.604925
934	4.694449	0.005000	0.863280	9.753659	3.576872	0.206431	-0.271776	-0.283546	0.226154	-0.107855	-0.584940
935	4.699449	0.005000	0.716762	9.829199	3.629279	0.207095	-0.272330	-0.283052	0.248208	-0.107118	-0.563238
936	4.704449	0.005000	0.470880	9.865692	3.734136	0.207759	-0.272883	-0.282557	0.239642	-0.099864	-0.543827
937	4.709449	0.005000	0.503397	9.888480	3.615703	0.208423	-0.273437	-0.282063	0.240935	-0.084975	-0.534017
938	4.714449	0.005000	0.392400	9.810000	3.402612	0.209087	-0.273990	-0.281568	0.229070	-0.074819	-0.491745
939	4.719449	0.005000	0.361485	9.731520	3.252757	0.209752	-0.274544	-0.281074	0.231030	-0.052236	-0.483835
940	4.724449	0.005000	0.473559	9.731520	3.175761	0.210416	-0.275098	-0.280579	0.232869	-0.039489	-0.450748
941	4.729449	0.005000	0.428013	9.729102	3.216471	0.211080	-0.275651	-0.280085	0.213851	-0.032864	-0.421883
942	4.734449	0.005000	0.235998	9.692001	3.178440	0.211744	-0.276205	-0.279590	0.174747	-0.012457	-0.417281
943	4.739449	0.005000	0.121211	9.692280	3.021480	0.212408	-0.276758	-0.279096	0.174685	-0.000211	-0.393069
944	4.744449	0.005000	0.117720	9.655828	3.099960	0.213073	-0.277312	-0.278601	0.147132	0.011480	-0.371364
945	4.749449	0.005000	0.052067	9.731520	2.955827	0.213636	-0.278017	-0.278333	0.120360	0.018137	-0.367350
946	4.754449	0.005000	-0.021905	9.743077	2.903760	0.214079	-0.278903	-0.278333	0.091462	0.024839	-0.336754
947	4.759449	0.005000	0.000000	9.716989	2.974974	0.214522	-0.279789	-0.278333	0.085767	0.035207	-0.322752
948	4.764449	0.005000	0.021916	9.731520	3.012818	0.214965	-0.280675	-0.278333	0.080769	0.045856	-0.301716
949	4.769449	0.005000	0.097449	9.789729	3.060720	0.215408	-0.281561	-0.278333	0.077530	0.034574	-0.285274
950	4.774449	0.005000	0.152568	9.810000	3.009864	0.215851	-0.282447	-0.278333	0.057793	0.027591	-0.249716
951	4.779449	0.005000	0.104635	9.783845	2.943000	0.216294	-0.283333	-0.278333	0.042637	0.046043	-0.232539
952	4.784449	0.005000	0.196200	9.834972	2.967972	0.216737	-0.284219	-0.278333	0.041597	0.046130	-0.227984
953	4.789449	0.005000	0.266655	9.911965	2.935270	0.217180	-0.285105	-0.278333	0.053563	0.042248	-0.185656
954	4.794449	0.005000	0.335902	9.927720	2.964982	0.217623	-0.285991	-0.278333	0.041100	0.046409	-0.198894
955	4.799449	0.005000	0.353160	9.828525	2.961525	0.218066	-0.286877	-0.278333	0.035351	0.050170	-0.162925
956	4.804449	0.005000	0.430875	9.790763	2.884523	0.218509	-0.287763	-0.278333	0.011829	0.048004	-0.134065
957	4.809449	0.005000	0.510120	9.870510	2.807310	0.218952	-0.288649	-0.278333	0.013841	0.051242	-0.120175
958	4.814449	0.005000	0.565843	9.865723	2.854311	0.219394	-0.289535	-0.278333	0.016063	0.051425	-0.104096
959	4.819449	0.005000	0.573604	9.873484	2.746800	0.219403	-0.289226	-0.278212	0.033410	0.058920	-0.086461
960	4.824449	0.005000	0.563164	9.796196	2.878324	0.219403	-0.288894	-0.278088	0.041442	0.047098	-0.070117
961	4.829449	0.005000	0.549360	9.797675	2.839871	0.219403	-0.288562	-0.277965	0.051328	0.066018	-0.058598
962	4.834449	0.005000	0.460029	9.770760	2.735949	0.219403	-0.288230	-0.277841	0.083107	0.055190	-0.051127
963	4.839449	0.005000	0.510120	9.731520	2.649358	0.219403	-0.287897	-0.277717	0.070170	0.073022	-0.034763
964	4.844449	0.005000	0.486139	9.692280	2.488107	0.219403	-0.287565	-0.277594	0.049205	0.073121	-0.036896
965	4.849449	0.005000	0.418374	9.672799	2.589840	0.219403	-0.287233	-0.277470	0.059311	0.080145	-0.032278
966	4.854449	0.005000	0.520128	9.613800	2.550600	0.219403	-0.286901	-0.277346	0.050753	0.097328	-0.041259
967	4.859449	0.005000	0.634873	9.702830	2.547083	0.219403	-0.286568	-0.277223	0.052620	0.093526	-0.031540
968	4.864449	0.005000	0.706320	9.768296	2.501504	0.219403	-0.286236	-0.277099	0.037264	0.113427	-0.047920
969	4.869449	0.005000	0.704337	9.692280	2.319126	0.219403	-0.285904	-0.276976	0.032192	0.123329	-0.037000
970	4.874449	0.005000	0.589090	9.731030	2.433370	0.219403	-0.285572	-0.276852	0.030144	0.132758	-0.041178
971	4.879449	0.005000	0.741612	9.731520	2.395614	0.219403	-0.285240	-0.276728	0.018018	0.146712	-0.048866
972	4.884449	0.005000	0.549360	9.724630	2.475565	0.219515	-0.285131	-0.276854	0.019379	0.143560	-0.042216
973	4.889449	0.005000	0.402256	9.682424	2.511360	0.219736	-0.285242	-0.277225	-0.007482	0.143824	-0.048408
974	4.894449	0.005000	0.425243	9.600149	2.412831	0.219958	-0.285352	-0.277596	-0.015996	0.141860	-0.057334
975	4.899449	0.005000	0.463011	9.582429	2.393640	0.220179	-0.285463	-0.277967	0.004187	0.154643	-0.056184
976	4.904449	0.005000	0.431640	9.634338	2.442231	0.220401	-0.285574	-0.278338	-0.005478	0.152729	-0.050636
977	4.909449	0.005000	0.363984	9.592151	2.376049	0.220622	-0.285684	-0.278709	-0.006655	0.133596	-0.033232
978	4.914449	0.005000	0.353160	9.601825	2.287895	0.220844	-0.285795	-0.279080	-0.014189	0.128210	-0.041600
979	4.919449	0.005000	0.339682	9.614993	2.315160	0.221065	-0.285906	-0.279451	-0.001854	0.122089	-0.039949
980	4.924449	0.005000	0.431640	9.471805	2.242334	0.221287	-0.286017	-0.279822	0.001697	0.120893	-0.035484
981	4.929449	0.005000	0.431640	9.506215	2.197440	0.221508	-0.286127	-0.280193	0.006559	0.113854	-0.021342
982	4.934449	0.005000	0.292635	9.456840	2.172824	0.221730	-0.286238	-0.280564	0.002133	0.107262	-0.027640
983	4.939449	0.005000	0.215642	9.418313	2.237036	0.221951	-0.286349	-0.280935	-0.001993	0.114568	-0.043660
984	4.944449	0.005000	0.274680	9.574560	2.257371	0.222173	-0.286459	-0.281306	-0.005178	0.108005	-0.041719
985	4.949449	0.005000	0.230342	9.439769	2.354400	0.222394	-0.286564	-0.281670	0.000217	0.135549	-0.056137
986	4.954449	0.005000	0.376614	9.449172	2.260134	0.222616	-0.286453	-0.281794	0.005555	0.126259	-0.056728
987	4.959449	0.005000	0.431640	9.549603	2.183157	0.222837	-0.286343	-0.281918	0.010064	0.114639	-0.065217
988	4.964449	0.005000	0.406048	9.613800	2.145404	0.223059	-0.286232	-0.282041	0.007275	0.120010	-0.056937
989	4.969449	0.005000	0.387086	9.613800	2.146891	0.223280	-0.286121	-0.282165	0.012791	0.100985	-0.056812
990	4.974449	0.005000	0.353160	9.525158	1.982324	0.223502	-0.286010	-0.282289	0.026087	0.109412	-0.073730
991	4.979449	0.005000	0.313920	9.513442	2.127641	0.223723	-0.285900	-0.282412	0.031678	0.093767	-0.073348
992	4.984449	0.005000	0.313920	9.581768	2.143783	0.223945	-0.285789	-0.282536	0.028908	0.089430	-0.070959
993	4.989449	0.005000	0.313920	9.507532	2.029028	0.224166	-0.285678	-0.282659	0.026596	0.074957	-0.072415
994	4.994449	0.005000	0.392400	9.731520	1.931269	0.224388	-0.285568	-0.282783	0.018750	0.070409	-0.068673
995	4.999449	0.005000	0.392400	9.731520	2.113352	0.224609	-0.285457	-0.282907	-0.010251	0.076622	-0.070260
996	5.004449	0.005000	0.432957	9.731520	2.156883	0.224831	-0.285346	-0.283030	-0.025933	0.070865	-0.061184
997	5.009449	0.005000	0.509952	9.731520	2.040817	0.225052	-0.285235	-0.283154	-0.060495	0.061031	-0.065753
998	5.014449	0.005000	0.431640	9.767454	2.233374	0.225274	-0.285125	-0.283278	-0.085884	0.062939	-0.058217
999	5.019449	0.005000	0.395523	9.689157	2.312037	0.225495	-0.285258	-0.283333	-0.088899	0.063983	-0.054147
1000	5.024449	0.005000	0.545177	9.696463	2.437063	0.225717	-0.285590	-0.283333	-0.112721	0.078475	-0.054954
1001	5.029449	0.005000	0.470880	9.725835	2.354400	0.225938	-0.285923	-0.283333	-0.118238	0.065678	-0.036176
1002	5.034449	0.005000	0.385227	9.692280	2.307987	0.226160	-0.286255	-0.283333	-0.118235	0.077552	-0.044392
1003	5.039449	0.005000	0.431640	9.722950	2.284490	0.226381	-0.286587	-0.283333	-0.124618	0.053841	-0.034141
1004	5.044449	0.005000	0.451727	9.770760	2.255833	0.226603	-0.286919	-0.283333	-0.114097	0.052987	-0.039212
1005	5.049449	0.005000	0.537847	9.743033	2.158200	0.226824	-0.287251	-0.283333	-0.110163	0.041051	-0.036843
1006	5.054449	0.005000	0.627840	9.731520	2.223687	0.227046	-0.287584	-0.283333	-0.089403	0.030878	-0.022578
1007	5.059449	0.005000	0.527579	9.756585	2.122244	0.227267	-0.287916	-0.283333	-0.069310	0.022964	-0.038826
1008	5.064449	0.005000	0.525782	9.747182	2.118960	0.227489	-0.288248	-0.283333	-0.046491	0.012245	-0.025826
1009	5.069449	0.005000	0.522374	9.692280	2.084631	0.227710	-0.288580	-0.283333	-0.036737	0.011734	-0.029191
1010	5.074449	0.005000	0.470880	9.653040	2.059132	0.227932	-0.288912	-0.283333	-0.016832	-0.004954	-0.039044
1011	5.079449	0.005000	0.471949	9.653040	2.116822	0.228153	-0.289245	-0.283333	0.001338	-0.003565	-0.036291
1012	5.084449	0.005000	0.435683	9.674682	2.258322	0.228350	-0.289535	-0.283361	0.017508	-0.015778	-0.042102
1013	5.089449	0.005000	0.565742	9.708662	2.275920	0.228239	-0.289314	-0.283732	0.020060	-0.014543	-0.041714
1014	5.094449	0.005000	0.558423	9.755671	2.297035	0.228128	-0.289093	-0.284102	0.016726	-0.034472	-0.045340
1015	5.099449	0.005000	0.484466	9.731520	2.221576	0.228018	-0.288871	-0.284473	0.035209	-0.043089	-0.036911
1016	5.104449	0.005000	0.470880	9.719421	2.173242	0.227907	-0.288650	-0.284844	0.034338	-0.040127	-0.042447
1017	5.109449	0.005000	0.520716	9.702876	2.150749	0.227796	-0.288429	-0.285215	0.036848	-0.051156	-0.046414
1018	5.114449	0.005000	0.441102	9.662502	2.236680	0.227686	-0.288207	-0.285586	0.049795	-0.059694	-0.038369
1019	5.119449	0.005000	0.470880	9.692280	2.134944	0.227575	-0.287986	-0.285957	0.046267	-0.059119	-0.054557
1020	5.124449	0.005000	0.379361	9.640001	2.230160	0.227464	-0.287764	-0.286327	0.044250	-0.059314	-0.042292
1021	5.129449	0.005000	0.358257	9.682087	2.118960	0.227354	-0.287543	-0.286698	0.035100	-0.066905	-0.054143
1022	5.134449	0.005000	0.345941	9.578170	2.122570	0.227243	-0.287322	-0.287069	0.030080	-0.082647	-0.057586
1023	5.139449	0.005000	0.241761	9.653040	2.201654	0.227132	-0.287100	-0.287440	0.018857	-0.076911	-0.054630
1024	5.144449	0.005000	0.393020	9.653040	2.275920	0.227022	-0.286879	-0.287811	0.021124	-0.078491	-0.061804
1025	5.149449	0.005000	0.431640	9.653040	2.275920	0.226911	-0.286657	-0.288182	0.018558	-0.078950	-0.053616
1026	5.154449	0.005000	0.435451	9.651135	2.315160	0.226932	-0.286764	-0.288113	-0.009453	-0.083172	-0.062183
1027	5.159449	0.005000	0.395793	9.613800	2.429487	0.227042	-0.287096	-0.287742	0.004678	-0.097700	-0.056619
1028	5.164449	0.005000	0.362805	9.657863	2.393640	0.227153	-0.287428	-0.287371	-0.004368	-0.085524	-0.047507
1029	5.169449	0.005000	0.359465	9.646735	2.399945	0.227264	-0.287761	-0.287000	-0.001939	-0.105149	-0.066559
1030	5.174449	0.005000	0.446450	9.621205	2.227060	0.227374	-0.288093	-0.286629	-0.016221	-0.113849	-0.057955
1031	5.179449	0.005000	0.362052	9.613800	2.445444	0.227485	-0.288425	-0.286258	-0.019273	-0.108175	-0.058146
1032	5.184449	0.005000	0.285075	9.595350	2.404035	0.227596	-0.288757	-0.285887	-0.008692	-0.104854	-0.045710
1033	5.189449	0.005000	0.247183	9.547063	2.527114	0.227707	-0.289090	-0.285516	-0.005165	-0.110492	-0.048465
1034	5.194449	0.005000	0.209413	9.561347	2.550600	0.227817	-0.289422	-0.285145	-0.005130	-0.110179	-0.055349
1035	5.199449	0.005000	0.210892	9.638348	2.589840	0.227928	-0.289754	-0.284774	-0.001482	-0.105954	-0.051917
1036	5.204449	0.005000	0.235440	9.629694	2.464669	0.228039	-0.290087	-0.284403	-0.015376	-0.112538	-0.053670
1037	5.209449	0.005000	0.196200	9.552701	2.550600	0.228149	-0.290419	-0.284032	-0.004621	-0.117967	-0.062605
1038	5.214449	0.005000	0.156960	9.516436	2.472120	0.228260	-0.290751	-0.283661	-0.008809	-0.104387	-0.055679
1039	5.219449	0.005000	0.194697	9.478714	2.376274	0.228371	-0.291173	-0.283404	-0.002450	-0.114990	-0.067865
1040	5.224449	0.005000	0.292310	9.435230	2.389661	0.228482	-0.292280	-0.284022	-0.022726	-0.103614	-0.074220
1041	5.229449	0.005000	0.258528	9.535320	2.645232	0.228592	-0.293387	-0.284641	-0.007832	-0.100328	-0.070805
1042	5.234449	0.005000	0.220758	9.545195	2.614398	0.228703	-0.294494	-0.285259	-0.009184	-0.105783	-0.048808
1043	5.239449	0.005000	0.209569	9.522818	2.446249	0.228814	-0.295601	-0.285877	-0.010873	-0.093554	-0.067049
1044	5.244449	0.005000	0.219933	9.590067	2.554241	0.228924	-0.296708	-0.286495	-0.024804	-0.107434	-0.052399
1045	5.249449	0.005000	0.256199	9.506459	2.492879	0.229035	-0.297815	-0.287113	-0.017737	-0.088793	-0.066026
1046	5.254449	0.005000	0.304676	9.436087	2.707560	0.229146	-0.298922	-0.287731	-0.018250	-0.097958	-0.067663
1047	5.259449	0.005000	0.282442	9.503842	2.699798	0.229257	-0.300029	-0.288349	-0.019165	-0.100645	-0.065824
1048	5.264449	0.005000	0.346870	9.469420	2.629080	0.229367	-0.301136	-0.288968	-0.027536	-0.099798	-0.063056
1049	5.269449	0.005000	0.274680	9.442241	2.619347	0.229478	-0.302243	-0.289586	-0.020021	-0.094864	-0.051470
1050	5.274449	0.005000	0.278057	9.378360	2.661566	0.229589	-0.303350	-0.290204	-0.035260	-0.083689	-0.058435
1051	5.279449	0.005000	0.276570	9.382140	2.586060	0.229700	-0.304457	-0.290822	-0.025769	-0.100568	-0.057372
1052	5.284449	0.005000	0.314307	9.574560	2.550987	0.229810	-0.305564	-0.291440	-0.036164	-0.086253	-0.045083
1053	5.289449	0.005000	0.353160	9.613165	2.628445	0.229641	-0.305059	-0.291276	-0.033102	-0.087874	-0.042274
1054	5.294449	0.005000	0.390278	9.618045	2.670442	0.229308	-0.303619	-0.290657	-0.013395	-0.087458	-0.035827
1055	5.299449	0.005000	0.392400	9.613800	2.778790	0.228976	-0.302179	-0.290039	-0.031195	-0.069077	-0.051289
1056	5.304449	0.005000	0.397512	9.642816	2.786040	0.228644	-0.300740	-0.289420	-0.022560	-0.070717	-0.045243
1057	5.309449	0.005000	0.281282	9.646438	2.733968	0.228312	-0.299300	-0.288802	-0.017451	-0.068062	-0.045216
1058	5.314449	0.005000	0.384396	9.590568	2.723568	0.227979	-0.297860	-0.288184	-0.015160	-0.073984	-0.057976
1059	5.319449	0.005000	0.353160	9.604323	2.638557	0.227647	-0.296420	-0.287565	-0.013931	-0.069268	-0.053027
1060	5.324449	0.005000	0.363772	9.645635	2.675725	0.227315	-0.294981	-0.286947	-0.014975	-0.063225	-0.052247
1061	5.329449	0.005000	0.286794	9.598789	2.641194	0.226982	-0.293541	-0.286328	-0.006434	-0.074486	-0.042477
1062	5.334449	0.005000	0.286717	9.548922	2.654718	0.226650	-0.292101	-0.285710	-0.001828	-0.064775	-0.054114
1063	5.339449	0.005000	0.298998	9.613800	2.580443	0.226318	-0.290661	-0.285092	-0.008612	-0.073171	-0.045359
1064	5.344449	0.005000	0.251837	9.698726	2.674766	0.225986	-0.289222	-0.284473	-0.013449	-0.059717	-0.032806
1065	5.349449	0.005000	0.260319	9.692280	2.750306	0.225653	-0.287782	-0.283855	-0.011147	-0.065515	-0.050395
1066	5.354449	0.005000	0.216095	9.554665	2.746800	0.225425	-0.286740	-0.283352	0.005289	-0.063619	-0.029496
1067	5.359449	0.005000	0.270745	9.553956	2.537866	0.225757	-0.287848	-0.283476	-0.015017	-0.058550	-0.042761
1068	5.364449	0.005000	0.257531	9.596651	2.550600	0.226090	-0.288956	-0.283600	-0.006575	-0.064873	-0.043531
1069	5.369449	0.005000	0.204147	9.535320	2.629080	0.226422	-0.290064	-0.283724	-0.008549	-0.067287	-0.045725
1070	5.374449	0.005000	0.238678	9.624722	2.693401	0.226755	-0.291172	-0.283847	-0.011239	-0.075985	-0.043046
1071	5.379449	0.005000	0.313920	9.549247	2.602497	0.227087	-0.292280	-0.283971	-0.004067	-0.068388	-0.035416
1072	5.384449	0.005000	0.302422	9.546818	2.629080	0.227419	-0.293388	-0.284095	0.000830	-0.073886	-0.051174
1073	5.389449	0.005000	0.284708	9.496080	2.659165	0.227752	-0.294496	-0.284219	0.009237	-0.076763	-0.039027
1074	5.394449	0.005000	0.279700	9.535320	2.768930	0.228084	-0.295604	-0.284342	-0.008946	-0.070217	-0.054622
1075	5.399449	0.005000	0.203357	9.581717	2.746800	0.228417	-0.296712	-0.284466	-0.002004	-0.086909	-0.048431
1076	5.404449	0.005000	0.252450	9.574560	2.718900	0.228749	-0.297821	-0.284590	-0.010250	-0.085615	-0.056021
1077	5.409449	0.005000	0.313920	9.657207	2.843684	0.229082	-0.298929	-0.284714	-0.037244	-0.086378	-0.062645
1078	5.414449	0.005000	0.310812	9.649932	2.629080	0.229414	-0.300037	-0.284837	-0.028340	-0.075902	-0.031672
1079	5.419449	0.005000	0.273042	9.538595	2.750075	0.229746	-0.301145	-0.284961	-0.051534	-0.079500	-0.047627
1080	5.424449	0.005000	0.235608	9.613968	2.903423	0.229775	-0.301417	-0.284915	-0.048393	-0.087568	-0.049071
1081	5.429449	0.005000	0.160957	9.539317	2.787372	0.229664	-0.301306	-0.284791	-0.043611	-0.082939	-0.041502
1082	5.434449	0.005000	0.196200	9.538139	2.710379	0.229553	-0.301195	-0.284668	-0.040720	-0.087427	-0.035958
1083	5.439449	0.005000	0.196200	9.618070	2.781770	0.229443	-0.301085	-0.284544	-0.038500	-0.078116	-0.038916
1084	5.444449	0.005000	0.308179	9.680797	2.864520	0.229332	-0.300974	-0.284420	-0.032556	-0.077484	-0.041244
1085	5.449449	0.005000	0.299473	9.638593	2.807711	0.229221	-0.300863	-0.284297	-0.028024	-0.085459	-0.044493
1086	5.454449	0.005000	0.204896	9.605104	2.833976	0.229110	-0.300752	-0.284173	-0.018217	-0.084210	-0.038504
1087	5.459449	0.005000	0.177315	9.623977	2.835457	0.229000	-0.300642	-0.284049	-0.004130	-0.081989	-0.023862
1088	5.464449	0.005000	0.291302	9.574560	2.881142	0.228889	-0.300531	-0.283926	-0.004171	-0.078243	-0.023570
1089	5.469449	0.005000	0.182583	9.641034	2.930189	0.228778	-0.300420	-0.283802	-0.006581	-0.069610	-0.032052
1090	5.474449	0.005000	0.171259	9.677981	2.967941	0.228667	-0.300309	-0.283678	0.008289	-0.080170	-0.015616
1091	5.479449	0.005000	0.188563	9.535320	3.068357	0.228556	-0.300198	-0.283555	0.003069	-0.076465	-0.026844
1092	5.484449	0.005000	0.161623	9.557271	3.038769	0.228446	-0.300088	-0.283431	0.007980	-0.076844	-0.025054
1093	5.489449	0.005000	0.159072	9.434052	2.961564	0.228335	-0.299954	-0.283333	0.000672	-0.066572	-0.021913
1094	5.494449	0.005000	0.196200	9.456840	2.923801	0.228224	-0.299732	-0.283333	-0.006088	-0.066108	-0.024821
1095	5.499449	0.005000	0.199982	9.478351	2.917708	0.228113	-0.299511	-0.283333	0.010392	-0.060559	-0.026576
1096	5.504449	0.005000	0.124056	9.485964	3.054384	0.228003	-0.299289	-0.283333	-0.003402	-0.059105	-0.026722
1097	5.509449	0.005000	0.084088	9.408259	3.021480	0.227892	-0.299068	-0.283333	0.008275	-0.063436	-0.016367
1098	5.514449	0.005000	0.117720	9.535320	2.929538	0.227781	-0.298846	-0.283333	-0.000945	-0.048973	-0.014384
1099	5.519449	0.005000	0.172281	9.550641	2.891801	0.227671	-0.298625	-0.283333	-0.008186	-0.050691	-0.011312
1100	5.524449	0.005000	0.196200	9.428072	2.932528	0.227560	-0.298403	-0.283333	-0.005502	-0.045191	-0.001901
1101	5.529449	0.005000	0.108750	9.396299	2.951970	0.227449	-0.298182	-0.283333	-0.001974	-0.037684	-0.011513
1102	5.534449	0.005000	0.149106	9.535320	3.021480	0.227338	-0.297960	-0.283333	-0.001251	-0.030994	-0.013628
1103	5.539449	0.005000	0.156960	9.469609	3.060720	0.227228	-0.297739	-0.283333	-0.007268	-0.028633	-0.009358
1104	5.544449	0.005000	0.161933	9.466786	3.016507	0.227117	-0.297517	-0.283333	0.005366	-0.033731	-0.009957
1105	5.549449	0.005000	0.228500	9.613800	2.975300	0.227006	-0.297296	-0.283333	0.004276	-0.024874	-0.007373
1106	5.554449	0.005000	0.001983	9.576543	2.978274	0.226896	-0.297074	-0.283333	0.004850	-0.029068	-0.008589
1107	5.559449	0.005000	0.078480	9.613320	2.903280	0.227272	-0.296934	-0.283333	0.015076	-0.016609	-0.006288
1108	5.564449	0.005000	0.155876	9.458467	2.941916	0.227825	-0.296823	-0.283333	0.010139	-0.023553	-0.015209
