# FOX Logger (IMU file)
# (c) INRIA 2011-2014
# File created from file sensbiotk output
#
# File format:
# id	t	dt	ax	ay	az	mx	my	mz	gx	gy	gz
#
# Units:
#	Time: s
#	Acceleration: m.s^-2
#	Magneto: gauss
#	Gyrometer: rad/s
#
1	0.042999	0.042999	9.438654	-0.887203	-0.295734	-0.431343	-0.064179	0.111667	0.041551	0.027041	0.009020
2	0.047999	0.005000	9.456840	-0.960753	-0.334167	-0.431675	-0.064290	0.110678	0.024235	0.031405	0.006304
3	0.052999	0.005000	9.476065	-0.921745	-0.333935	-0.432007	-0.064400	0.109690	0.029959	0.029427	0.002533
4	0.057999	0.005000	9.496080	-0.978165	-0.298552	-0.432339	-0.064511	0.108701	0.028308	0.028404	0.009054
5	0.062999	0.005000	9.456840	-0.963820	-0.335980	-0.432671	-0.064622	0.107713	0.016747	0.032744	0.001038
6	0.067999	0.005000	9.496080	-0.925602	-0.360085	-0.433003	-0.064732	0.106724	0.031887	0.028528	0.008186
7	0.072999	0.005000	9.496080	-0.878431	-0.313920	-0.433335	-0.064843	0.105736	0.008760	0.033885	0.004408
8	0.077999	0.005000	9.428583	-0.852297	-0.260552	-0.433667	-0.064954	0.104747	0.012803	0.027117	0.006223
9	0.082999	0.005000	9.430706	-0.771772	-0.261652	-0.433999	-0.065064	0.103759	0.029322	0.034478	0.017391
10	0.087999	0.005000	9.390443	-0.811957	-0.196200	-0.434331	-0.065175	0.102770	0.025154	0.038052	0.006659
11	0.092999	0.005000	9.484554	-0.863280	-0.223914	-0.434663	-0.065286	0.101782	0.041575	0.034236	0.012896
12	0.097999	0.005000	9.388863	-0.991503	-0.285183	-0.434995	-0.065397	0.100793	0.054323	0.035007	0.012276
13	0.102999	0.005000	9.408104	-1.029736	-0.294927	-0.435327	-0.065507	0.099805	0.051553	0.034997	0.016030
14	0.107999	0.005000	9.496080	-0.981000	-0.344686	-0.435659	-0.065618	0.098816	0.051007	0.037644	0.026902
15	0.112999	0.005000	9.471743	-1.076366	-0.345709	-0.435595	-0.065672	0.098459	0.051907	0.036361	0.022196
16	0.117999	0.005000	9.483222	-0.981000	-0.313920	-0.435152	-0.065672	0.098707	0.044878	0.032890	0.018326
17	0.122999	0.005000	9.394580	-0.947167	-0.313920	-0.434710	-0.065672	0.098954	0.035039	0.039431	0.011150
18	0.127999	0.005000	9.535320	-1.050712	-0.313920	-0.434267	-0.065672	0.099201	0.050216	0.028641	0.010079
19	0.132999	0.005000	9.574560	-0.984842	-0.310078	-0.433824	-0.065672	0.099448	0.037055	0.031686	0.009508
20	0.137999	0.005000	9.462479	-1.053841	-0.232621	-0.433382	-0.065672	0.099695	0.033641	0.032923	0.006783
21	0.142999	0.005000	9.458637	-0.943557	-0.269289	-0.432939	-0.065672	0.099942	0.032856	0.032548	0.020410
22	0.147999	0.005000	9.417600	-1.060255	-0.198524	-0.432497	-0.065672	0.100190	0.013006	0.034160	0.007594
23	0.152999	0.005000	9.339616	-1.137712	-0.352912	-0.432054	-0.065672	0.100437	0.030319	0.037587	0.005061
24	0.157999	0.005000	9.417600	-1.021510	-0.311379	-0.431611	-0.065672	0.100684	0.034160	0.037210	0.013428
25	0.162999	0.005000	9.567682	-1.137960	-0.316213	-0.431169	-0.065672	0.100931	0.027377	0.034674	0.002620
26	0.167999	0.005000	9.427546	-1.098720	-0.274680	-0.430726	-0.065672	0.101178	0.019345	0.034875	0.000188
27	0.172999	0.005000	9.387035	-1.094382	-0.279018	-0.430284	-0.065672	0.101425	0.009300	0.040584	0.003417
28	0.177999	0.005000	9.417600	-1.030960	-0.308560	-0.429856	-0.065672	0.101673	0.026646	0.035133	0.002746
29	0.182999	0.005000	9.384743	-0.941760	-0.418875	-0.430077	-0.065672	0.101920	0.020725	0.029087	-0.000429
30	0.187999	0.005000	9.290260	-1.012835	-0.289490	-0.430298	-0.065672	0.102167	0.034740	0.033996	0.008762
31	0.192999	0.005000	9.392354	-0.888526	-0.297090	-0.430520	-0.065672	0.102413	0.032156	0.037432	0.003559
32	0.197999	0.005000	9.339120	-0.981000	-0.323354	-0.430741	-0.065672	0.102660	0.022538	0.036875	0.002173
33	0.202999	0.005000	9.398344	-0.941760	-0.283944	-0.430962	-0.065672	0.102907	0.031883	0.036957	0.007981
34	0.207999	0.005000	9.417600	-0.902520	-0.274680	-0.431183	-0.065672	0.103154	0.025854	0.034107	0.001046
35	0.212999	0.005000	9.339120	-0.848114	-0.220274	-0.431404	-0.065672	0.103401	0.034340	0.026260	0.008871
36	0.217999	0.005000	9.430659	-0.889461	-0.379341	-0.431626	-0.065672	0.103648	0.041983	0.036885	0.014222
37	0.222999	0.005000	9.339120	-0.927688	-0.406472	-0.431847	-0.065672	0.103895	0.042214	0.031056	0.011534
38	0.227999	0.005000	9.432689	-0.974974	-0.368249	-0.432068	-0.065672	0.104142	0.039539	0.037393	0.014844
39	0.232999	0.005000	9.355231	-1.045445	-0.251551	-0.432289	-0.065672	0.104389	0.018839	0.041924	-0.000764
40	0.237999	0.005000	9.461813	-0.963866	-0.296786	-0.432510	-0.065672	0.104636	0.037960	0.036595	-0.000071
41	0.242999	0.005000	9.456840	-0.842196	-0.292836	-0.432732	-0.065672	0.104883	0.036798	0.037462	0.012848
42	0.247999	0.005000	9.476018	-0.882458	-0.392400	-0.433361	-0.065906	0.106304	0.049838	0.033317	0.019132
43	0.252999	0.005000	9.397399	-0.961961	-0.373361	-0.434357	-0.066348	0.108775	0.025609	0.046308	0.012380
44	0.257999	0.005000	9.435617	-0.941760	-0.338350	-0.435353	-0.066791	0.111246	0.006675	0.044095	0.005768
45	0.262999	0.005000	9.479086	-0.947012	-0.296926	-0.436349	-0.067233	0.113717	0.032070	0.033445	0.008287
46	0.267999	0.005000	9.440868	-0.918492	-0.376428	-0.437345	-0.067676	0.116188	0.026256	0.035150	0.002051
47	0.272999	0.005000	9.402651	-0.941760	-0.338211	-0.438341	-0.068118	0.118660	0.040783	0.031596	0.014685
48	0.277999	0.005000	9.392287	-1.031626	-0.299993	-0.439337	-0.068561	0.121131	0.041732	0.030849	0.017401
49	0.282999	0.005000	9.495569	-0.955181	-0.261259	-0.440332	-0.069004	0.123602	0.040874	0.031599	0.006499
50	0.287999	0.005000	9.417600	-0.927244	-0.353160	-0.441328	-0.069446	0.126073	0.033425	0.036111	0.007753
51	0.292999	0.005000	9.428940	-1.020240	-0.353160	-0.442324	-0.069889	0.128544	0.026321	0.038945	-0.002866
52	0.297999	0.005000	9.398995	-1.049163	-0.303603	-0.443320	-0.070331	0.131015	0.035939	0.034870	0.008399
53	0.302999	0.005000	9.417600	-0.981000	-0.274680	-0.444316	-0.070774	0.133487	0.021290	0.033617	0.007247
54	0.307999	0.005000	9.386632	-0.972728	-0.361432	-0.445312	-0.071217	0.135958	0.037202	0.029141	0.016732
55	0.312999	0.005000	9.371107	-1.041999	-0.345907	-0.446273	-0.071638	0.138314	0.022653	0.022319	0.005247
56	0.317999	0.005000	9.233886	-1.020240	-0.326406	-0.446384	-0.071527	0.137820	0.023699	0.036871	0.008537
57	0.322999	0.005000	9.394022	-0.946981	-0.397621	-0.446495	-0.071416	0.137325	0.010900	0.033917	-0.005447
58	0.327999	0.005000	9.566164	-1.055282	-0.388202	-0.446605	-0.071306	0.136831	0.001586	0.030830	-0.003064
59	0.332999	0.005000	9.417600	-1.059480	-0.274680	-0.446716	-0.071195	0.136337	0.018441	0.025735	0.001924
60	0.337999	0.005000	9.376181	-1.059480	-0.194021	-0.446826	-0.071084	0.135843	0.008092	0.027168	0.006499
61	0.342999	0.005000	9.379956	-0.979404	-0.241825	-0.446937	-0.070974	0.135349	0.000760	0.032593	0.002602
62	0.347999	0.005000	9.378360	-0.903697	-0.313920	-0.447048	-0.070863	0.134855	0.005504	0.031152	0.002273
63	0.352999	0.005000	9.417166	-0.981000	-0.313920	-0.447158	-0.070752	0.134360	-0.002032	0.038449	-0.001810
64	0.357999	0.005000	9.337664	-0.826952	-0.313920	-0.447269	-0.070642	0.133866	0.007897	0.031655	0.005988
65	0.362999	0.005000	9.488644	-0.900041	-0.279637	-0.447379	-0.070531	0.133372	0.011724	0.034822	-0.007548
66	0.367999	0.005000	9.499581	-0.945261	-0.310419	-0.447490	-0.070420	0.132878	0.025502	0.031277	-0.000814
67	0.372999	0.005000	9.447793	-0.876851	-0.418069	-0.447601	-0.070309	0.132384	0.030226	0.027689	0.002243
68	0.377999	0.005000	9.378360	-0.936632	-0.143362	-0.447711	-0.070199	0.131889	0.027190	0.032344	0.002443
69	0.382999	0.005000	9.432487	-0.941760	-0.190112	-0.447153	-0.069845	0.130580	0.055962	0.029910	0.003114
70	0.387999	0.005000	9.417600	-0.988111	-0.299699	-0.446047	-0.069292	0.128604	0.017991	0.039661	-0.001380
71	0.392999	0.005000	9.463548	-0.989133	-0.150252	-0.444941	-0.068739	0.126628	0.021644	0.032872	-0.007985
72	0.397999	0.005000	9.435911	-0.893365	-0.265525	-0.443835	-0.068186	0.124652	0.040335	0.030689	0.000997
73	0.402999	0.005000	9.330414	-0.922876	-0.313920	-0.442729	-0.067633	0.122676	0.019226	0.032951	0.007096
74	0.407999	0.005000	9.339120	-0.846441	-0.353160	-0.441623	-0.067080	0.120700	0.042476	0.033019	0.006388
75	0.412999	0.005000	9.378360	-0.929537	-0.326143	-0.440517	-0.066527	0.118724	0.011006	0.032472	-0.009463
76	0.417999	0.005000	9.365610	-0.902520	-0.340410	-0.439411	-0.065974	0.116747	0.019914	0.026302	0.001283
77	0.422999	0.005000	9.403332	-0.888252	-0.378132	-0.438305	-0.065421	0.114771	0.031142	0.029188	0.010079
78	0.427999	0.005000	9.465500	-0.950420	-0.392400	-0.437199	-0.064868	0.112795	0.029667	0.022336	0.005908
79	0.432999	0.005000	9.479767	-0.958073	-0.330233	-0.436093	-0.064315	0.110819	0.026900	0.030389	0.009141
80	0.437999	0.005000	9.478760	-1.002920	-0.191599	-0.434987	-0.063762	0.108843	0.016123	0.036605	-0.000646
81	0.442999	0.005000	9.420156	-1.017684	-0.313920	-0.433881	-0.063209	0.106867	0.024492	0.033441	-0.007560
82	0.447999	0.005000	9.456840	-0.961636	-0.254804	-0.432824	-0.062693	0.105055	0.019941	0.041475	0.000942
83	0.452999	0.005000	9.494546	-0.999853	-0.353160	-0.432602	-0.062804	0.106043	0.034015	0.032074	-0.008540
84	0.457999	0.005000	9.517489	-1.002409	-0.353160	-0.432381	-0.062914	0.107031	0.041615	0.028867	-0.008396
85	0.462999	0.005000	9.478807	-0.993579	-0.370433	-0.432160	-0.063025	0.108020	0.017765	0.044587	-0.006425
86	0.467999	0.005000	9.433866	-1.098720	-0.376134	-0.431939	-0.063136	0.109008	0.033463	0.038179	-0.001748
87	0.472999	0.005000	9.354364	-1.044236	-0.401153	-0.431717	-0.063246	0.109997	0.035390	0.037393	-0.005753
88	0.477999	0.005000	9.378360	-0.995221	-0.288901	-0.431496	-0.063357	0.110985	0.034384	0.032448	-0.012115
89	0.482999	0.005000	9.364805	-1.046281	-0.274680	-0.431275	-0.063467	0.111974	0.024859	0.032817	-0.000443
90	0.487999	0.005000	9.375649	-0.981000	-0.286856	-0.431053	-0.063578	0.112962	0.039142	0.027489	-0.003698
91	0.492999	0.005000	9.389514	-1.059480	-0.342006	-0.430832	-0.063689	0.113951	0.052320	0.032501	-0.006097
92	0.497999	0.005000	9.456840	-1.020240	-0.343029	-0.430611	-0.063799	0.114939	0.041153	0.041619	-0.011574
93	0.502999	0.005000	9.399382	-1.050371	-0.353160	-0.430390	-0.063910	0.115928	0.043337	0.038932	-0.011229
94	0.507999	0.005000	9.496080	-1.075653	-0.353160	-0.430168	-0.064020	0.116916	0.047524	0.040808	-0.012591
95	0.512999	0.005000	9.371296	-1.070463	-0.353160	-0.429947	-0.064131	0.117904	0.050799	0.026674	-0.019330
96	0.517999	0.005000	9.423717	-1.008007	-0.419407	-0.429976	-0.064242	0.117703	0.040023	0.042220	-0.007735
97	0.522999	0.005000	9.451341	-1.014741	-0.342161	-0.430198	-0.064352	0.116591	0.025216	0.038901	-0.013167
98	0.527999	0.005000	9.417600	-0.976523	-0.313920	-0.430419	-0.064463	0.115479	0.034780	0.043414	-0.015820
99	0.532999	0.005000	9.381815	-0.934851	-0.353160	-0.430640	-0.064574	0.114367	0.033401	0.048804	-0.010822
100	0.537999	0.005000	9.383224	-0.904952	-0.311488	-0.430862	-0.064684	0.113255	0.040318	0.038486	-0.010362
101	0.542999	0.005000	9.535320	-0.864690	-0.235440	-0.431083	-0.064795	0.112143	0.043982	0.041044	-0.004108
102	0.547999	0.005000	9.456840	-0.862505	-0.313145	-0.431304	-0.064906	0.111031	0.036268	0.044386	-0.014666
103	0.552999	0.005000	9.379630	-0.784800	-0.235440	-0.431525	-0.065016	0.109919	0.049362	0.042455	0.000058
104	0.557999	0.005000	9.533677	-0.707963	-0.235440	-0.431747	-0.065127	0.108807	0.036725	0.046132	-0.006132
105	0.562999	0.005000	9.378360	-0.745560	-0.308591	-0.431968	-0.065238	0.107695	0.033040	0.045707	-0.003008
106	0.567999	0.005000	9.381621	-0.712842	-0.271419	-0.432189	-0.065349	0.106583	0.043041	0.046618	-0.001955
107	0.572999	0.005000	9.412891	-0.775381	-0.274680	-0.432411	-0.065459	0.105471	0.031935	0.033637	-0.011906
108	0.577999	0.005000	9.417600	-0.818773	-0.178028	-0.432632	-0.065570	0.104359	0.049789	0.039673	0.006711
109	0.582999	0.005000	9.397229	-0.863280	-0.307630	-0.432836	-0.065681	0.103352	0.035308	0.042734	0.010828
110	0.587999	0.005000	9.442241	-0.720919	-0.306621	-0.432836	-0.065791	0.103599	0.035373	0.040799	0.004932
111	0.592999	0.005000	9.557922	-0.793119	-0.274680	-0.432836	-0.065902	0.103847	0.017057	0.052754	0.002916
112	0.597999	0.005000	9.406384	-0.833381	-0.304579	-0.432836	-0.066012	0.104094	0.026967	0.051214	0.009182
113	0.602999	0.005000	9.514592	-0.795164	-0.361309	-0.432836	-0.066123	0.104341	0.035905	0.042719	0.016273
114	0.607999	0.005000	9.507466	-0.863280	-0.302534	-0.432836	-0.066234	0.104588	0.020841	0.039285	0.021920
115	0.612999	0.005000	9.547729	-0.836449	-0.262271	-0.432836	-0.066344	0.104835	0.027265	0.030595	0.028338
116	0.617999	0.005000	9.509511	-0.889089	-0.326298	-0.432836	-0.066455	0.105082	0.006825	0.044113	0.022775
117	0.622999	0.005000	9.467173	-0.873613	-0.249894	-0.432836	-0.066565	0.105330	0.012177	0.036702	0.011730
118	0.627999	0.005000	9.496080	-0.878276	-0.196200	-0.432836	-0.066676	0.105577	0.024824	0.032609	0.012539
119	0.632999	0.005000	9.369545	-0.847262	-0.219422	-0.432836	-0.066787	0.105824	0.021498	0.038228	0.022391
120	0.637999	0.005000	9.439799	-0.875162	-0.313920	-0.432836	-0.066897	0.106071	0.039417	0.026042	0.024724
121	0.642999	0.005000	9.339120	-0.817812	-0.335097	-0.432836	-0.067008	0.106318	0.011414	0.036065	0.022226
122	0.647999	0.005000	9.418669	-0.922674	-0.312851	-0.432836	-0.067119	0.106565	0.005420	0.034531	0.019991
123	0.652999	0.005000	9.495104	-0.843172	-0.334028	-0.432836	-0.067099	0.106522	-0.003166	0.035557	0.021432
124	0.657999	0.005000	9.474950	-0.899499	-0.229398	-0.432836	-0.066988	0.106274	0.007983	0.039453	0.019221
125	0.662999	0.005000	9.439753	-0.946826	-0.353160	-0.432836	-0.066878	0.106027	0.018256	0.035123	0.023751
126	0.667999	0.005000	9.394425	-0.981000	-0.337095	-0.432836	-0.066767	0.105780	0.012351	0.036514	0.022342
127	0.672999	0.005000	9.402558	-0.926718	-0.304765	-0.432836	-0.066657	0.105533	0.025736	0.037489	0.027383
128	0.677999	0.005000	9.378360	-0.902520	-0.274680	-0.432836	-0.066546	0.105286	0.010116	0.044355	0.026486
129	0.682999	0.005000	9.391776	-0.889306	-0.274680	-0.432836	-0.066436	0.105039	0.014946	0.039271	0.019041
130	0.687999	0.005000	9.387082	-0.926501	-0.301930	-0.432836	-0.066325	0.104792	0.027400	0.033871	0.021157
131	0.692999	0.005000	9.591864	-0.981000	-0.224472	-0.432836	-0.066214	0.104545	0.018611	0.036198	0.015518
132	0.697999	0.005000	9.446430	-0.970590	-0.266671	-0.432836	-0.066104	0.104298	0.041553	0.033229	0.024025
133	0.702999	0.005000	9.408212	-0.990388	-0.274680	-0.432836	-0.065993	0.104051	0.026766	0.038897	0.019456
134	0.707999	0.005000	9.456840	-1.051099	-0.305539	-0.432836	-0.065883	0.103804	0.021637	0.038444	0.024716
135	0.712999	0.005000	9.410242	-1.027598	-0.218275	-0.432836	-0.065772	0.103557	0.026579	0.035810	0.019263
136	0.717999	0.005000	9.456840	-1.032912	-0.241776	-0.432805	-0.065682	0.103345	0.022352	0.039380	0.007884
137	0.722999	0.005000	9.456840	-1.025554	-0.094421	-0.432473	-0.065793	0.103468	0.028464	0.036761	0.016493
138	0.727999	0.005000	9.409018	-0.981000	-0.278971	-0.432141	-0.065903	0.103592	0.012576	0.036170	0.019078
139	0.732999	0.005000	9.417600	-0.941760	-0.274680	-0.431810	-0.066014	0.103715	0.034754	0.028141	0.023686
140	0.737999	0.005000	9.415354	-0.824040	-0.242179	-0.431478	-0.066124	0.103838	0.026468	0.040838	0.019831
141	0.742999	0.005000	9.340359	-0.746799	-0.236679	-0.431146	-0.066235	0.103962	0.023679	0.043349	0.021312
142	0.747999	0.005000	9.456158	-0.784118	-0.236803	-0.430815	-0.066345	0.104085	0.037476	0.035430	0.025852
143	0.752999	0.005000	9.378701	-0.745560	-0.313920	-0.430483	-0.066456	0.104209	0.035037	0.029438	0.027665
144	0.757999	0.005000	9.340483	-0.746923	-0.197563	-0.430151	-0.066566	0.104332	0.047006	0.030208	0.025717
145	0.762999	0.005000	9.415214	-0.819269	-0.272294	-0.429820	-0.066677	0.104456	0.049361	0.034526	0.026137
146	0.767999	0.005000	9.352753	-0.859872	-0.264456	-0.429488	-0.066787	0.104579	0.038894	0.039379	0.026170
147	0.772999	0.005000	9.439118	-0.902520	-0.117720	-0.429156	-0.066898	0.104703	0.035029	0.043273	0.017163
148	0.777999	0.005000	9.372907	-0.941760	-0.173319	-0.428825	-0.067009	0.104826	0.029395	0.044587	0.018895
149	0.782999	0.005000	9.476654	-0.915471	-0.235440	-0.428493	-0.067119	0.104950	0.047174	0.033429	0.026838
150	0.787999	0.005000	9.552066	-0.973502	-0.242938	-0.428555	-0.067033	0.104780	0.026926	0.029627	0.020211
151	0.792999	0.005000	9.535320	-0.989520	-0.226920	-0.428887	-0.066811	0.104410	0.036845	0.030482	0.026685
152	0.797999	0.005000	9.465903	-1.119835	-0.223388	-0.429219	-0.066590	0.104039	0.022564	0.037219	0.025003
153	0.802999	0.005000	9.564475	-1.098720	-0.235440	-0.429551	-0.066369	0.103668	0.008835	0.039106	0.021221
154	0.807999	0.005000	9.479055	-1.098720	-0.252465	-0.429883	-0.066148	0.103297	0.018993	0.030887	0.017483
155	0.812999	0.005000	9.336270	-1.032370	-0.232590	-0.430215	-0.065926	0.102927	0.013362	0.034552	0.016377
156	0.817999	0.005000	9.443688	-1.072415	-0.287832	-0.430547	-0.065705	0.102556	0.017478	0.031005	0.022481
157	0.822999	0.005000	9.471015	-1.006065	-0.249615	-0.430879	-0.065484	0.102185	0.004668	0.033743	0.015444
158	0.827999	0.005000	9.465705	-1.050615	-0.283545	-0.431211	-0.065262	0.101815	0.009756	0.030544	0.010977
159	0.832999	0.005000	9.525948	-1.043276	-0.353160	-0.431543	-0.065041	0.101444	0.022993	0.036398	0.012538
160	0.837999	0.005000	9.513307	-0.941760	-0.353160	-0.431875	-0.064820	0.101073	0.023904	0.036998	0.012921
161	0.842999	0.005000	9.414858	-0.978258	-0.353160	-0.432207	-0.064599	0.100703	0.050964	0.030270	0.014414
162	0.847999	0.005000	9.436871	-0.941063	-0.391703	-0.432539	-0.064377	0.100332	0.048814	0.034124	0.015466
163	0.852999	0.005000	9.477134	-0.901172	-0.332866	-0.432824	-0.064156	0.100000	0.054386	0.034369	0.016680
164	0.857999	0.005000	9.435524	-0.902520	-0.295996	-0.432714	-0.063935	0.100000	0.039692	0.033092	0.013124
165	0.862999	0.005000	9.400699	-0.913984	-0.291581	-0.432603	-0.063714	0.100000	0.043149	0.037476	0.010782
166	0.867999	0.005000	9.456840	-0.957639	-0.313920	-0.432493	-0.063492	0.100000	0.058672	0.031857	0.013623
167	0.872999	0.005000	9.393216	-1.029767	-0.328776	-0.432382	-0.063271	0.100000	0.054536	0.030265	0.017310
168	0.877999	0.005000	9.325286	-0.955594	-0.235440	-0.432271	-0.063050	0.100000	0.052077	0.034709	0.026559
169	0.882999	0.005000	9.403983	-1.046669	-0.340349	-0.432161	-0.062829	0.100000	0.040860	0.038188	0.017064
170	0.887999	0.005000	9.456840	-0.968731	-0.328621	-0.432050	-0.062608	0.100000	0.036304	0.037112	0.010647
171	0.892999	0.005000	9.333621	-0.981000	-0.313920	-0.431939	-0.062386	0.100000	0.038829	0.030212	0.015024
172	0.897999	0.005000	9.409033	-1.107287	-0.382176	-0.431829	-0.062165	0.100000	0.025201	0.036012	0.005760
173	0.902999	0.005000	9.553724	-0.990202	-0.295516	-0.431718	-0.061944	0.100000	0.037313	0.029335	0.015302
174	0.907999	0.005000	9.487900	-0.964641	-0.361340	-0.431607	-0.061723	0.100000	0.038908	0.034712	0.014371
175	0.912999	0.005000	9.378360	-0.784800	-0.338846	-0.431497	-0.061502	0.100000	0.040302	0.033239	0.017851
176	0.917999	0.005000	9.469261	-0.869491	-0.313920	-0.431386	-0.061280	0.100000	0.029242	0.041935	0.013393
177	0.922999	0.005000	9.417600	-0.947352	-0.353160	-0.431343	-0.061531	0.100000	0.035047	0.035881	0.018121
178	0.927999	0.005000	9.461410	-0.876990	-0.431640	-0.431343	-0.062084	0.100000	0.021546	0.047342	0.019185
179	0.932999	0.005000	9.424695	-0.906068	-0.324563	-0.431343	-0.062637	0.100000	0.016985	0.042108	0.007764
180	0.937999	0.005000	9.491030	-0.981000	-0.429115	-0.431343	-0.063190	0.100000	0.024336	0.036387	0.021452
181	0.942999	0.005000	9.414595	-1.021743	-0.354663	-0.431343	-0.063743	0.100000	0.031174	0.042600	0.022332
182	0.947999	0.005000	9.457801	-0.980520	-0.432120	-0.431343	-0.064296	0.100000	0.026846	0.034819	0.023694
183	0.952999	0.005000	9.419180	-0.941760	-0.393453	-0.431343	-0.064849	0.100000	0.027232	0.041792	0.022043
184	0.957999	0.005000	9.340669	-0.905618	-0.354709	-0.431343	-0.065402	0.100000	0.013960	0.046227	0.008593
185	0.962999	0.005000	9.456840	-0.939188	-0.277252	-0.431343	-0.065955	0.100000	0.027738	0.036646	0.019318
186	0.967999	0.005000	9.488892	-0.977406	-0.306732	-0.431343	-0.066508	0.100000	0.028290	0.036577	0.015222
187	0.972999	0.005000	9.426003	-0.972597	-0.388199	-0.431343	-0.067061	0.100000	0.023986	0.034352	0.013810
188	0.977999	0.005000	9.378360	-1.078023	-0.371703	-0.431343	-0.067614	0.100000	0.024917	0.028466	0.017834
189	0.982999	0.005000	9.326758	-0.881823	-0.313920	-0.431343	-0.068167	0.100000	0.022712	0.039225	0.011191
190	0.987999	0.005000	9.417600	-0.973796	-0.385196	-0.431343	-0.068657	0.100000	0.034069	0.035999	0.020755
191	0.992999	0.005000	9.448614	-0.902520	-0.336708	-0.431343	-0.068657	0.100000	0.031693	0.034473	0.017740
192	0.997999	0.005000	9.376114	-0.932512	-0.332417	-0.431343	-0.068657	0.100000	0.026066	0.027426	0.021949
193	1.002999	0.005000	9.426027	-0.960458	-0.274680	-0.431343	-0.068657	0.100000	0.038056	0.030206	0.024609
194	1.007999	0.005000	9.484787	-0.964347	-0.291333	-0.431343	-0.068657	0.100000	0.015347	0.034270	0.020637
195	1.012999	0.005000	9.456840	-0.981000	-0.235440	-0.431343	-0.068657	0.100000	0.024935	0.033358	0.008711
196	1.017999	0.005000	9.509418	-0.994338	-0.274680	-0.431343	-0.068657	0.100000	0.008578	0.036584	0.007610
197	1.022999	0.005000	9.403239	-1.030759	-0.249801	-0.431343	-0.068657	0.100000	0.021505	0.028160	0.015028
198	1.027999	0.005000	9.362977	-0.981000	-0.274680	-0.431343	-0.068657	0.100000	0.027019	0.023166	0.013486
199	1.032999	0.005000	9.506057	-0.902520	-0.291086	-0.431343	-0.068657	0.100000	0.021037	0.024649	0.026194
200	1.037999	0.005000	9.491696	-0.880708	-0.335732	-0.431343	-0.068657	0.100000	0.020109	0.036519	0.022597
201	1.042999	0.005000	9.415230	-0.860910	-0.355530	-0.431343	-0.068657	0.100000	0.013254	0.033783	0.011838
202	1.047999	0.005000	9.417925	-0.902520	-0.470880	-0.431343	-0.068657	0.100000	0.033758	0.029201	0.024982
203	1.052999	0.005000	9.417600	-0.923000	-0.332680	-0.431343	-0.068657	0.100000	0.017971	0.034009	0.027276
204	1.057999	0.005000	9.339120	-0.881230	-0.331870	-0.432104	-0.069003	0.102085	0.030091	0.031853	0.014534
205	1.062999	0.005000	9.373480	-0.885340	-0.318800	-0.433320	-0.069555	0.105418	0.032047	0.032943	0.023847
206	1.067999	0.005000	9.401442	-0.863280	-0.235440	-0.434536	-0.070108	0.108751	0.013185	0.035449	0.020197
207	1.072999	0.005000	9.447901	-0.972061	-0.265741	-0.435752	-0.070661	0.112085	0.029237	0.036941	0.020785
208	1.077999	0.005000	9.456840	-0.991983	-0.313920	-0.436968	-0.071214	0.115418	0.008782	0.033751	0.025389
209	1.082999	0.005000	9.600617	-0.889414	-0.327026	-0.438184	-0.071766	0.118751	0.017846	0.027950	0.024869
210	1.087999	0.005000	9.456840	-0.902520	-0.247523	-0.439400	-0.072319	0.122084	0.036032	0.034676	0.038143
211	1.092999	0.005000	9.467901	-0.963882	-0.313920	-0.440616	-0.072872	0.125417	0.027914	0.035015	0.030532
212	1.097999	0.005000	9.417600	-1.000163	-0.216277	-0.441832	-0.073424	0.128750	0.039571	0.033285	0.027243
213	1.102999	0.005000	9.387271	-0.989911	-0.156960	-0.443048	-0.073977	0.132083	0.023385	0.032607	0.007805
214	1.107999	0.005000	9.464369	-0.941760	-0.211258	-0.444265	-0.074530	0.135417	0.049547	0.028560	0.018172
215	1.112999	0.005000	9.391373	-0.994013	-0.228934	-0.445481	-0.075083	0.138750	0.050789	0.028973	0.018241
216	1.117999	0.005000	9.490596	-1.104204	-0.212652	-0.446697	-0.075635	0.142083	0.040448	0.033796	0.016641
217	1.122999	0.005000	9.500542	-1.203055	-0.396862	-0.447651	-0.076050	0.144692	0.030339	0.039621	0.023518
218	1.127999	0.005000	9.531881	-1.213001	-0.385522	-0.446766	-0.075497	0.142223	0.011039	0.038707	0.004188
219	1.132999	0.005000	9.490286	-1.135063	-0.316817	-0.445882	-0.074945	0.139754	0.026964	0.022170	0.003728
220	1.137999	0.005000	9.378360	-1.132337	-0.278429	-0.444997	-0.074392	0.137285	0.022426	0.031273	0.009191
221	1.142999	0.005000	9.380916	-1.097868	-0.197904	-0.444113	-0.073839	0.134816	0.023094	0.029016	0.006092
222	1.147999	0.005000	9.496080	-1.215758	-0.313750	-0.443229	-0.073287	0.132347	0.021910	0.031836	0.016331
223	1.152999	0.005000	9.417600	-1.214054	-0.277066	-0.442344	-0.072734	0.129878	0.020402	0.039257	0.004289
224	1.157999	0.005000	9.493865	-1.135745	-0.309489	-0.441460	-0.072181	0.127409	0.034365	0.044034	0.013998
225	1.162999	0.005000	9.456840	-1.101958	-0.353160	-0.440576	-0.071628	0.124940	0.007727	0.043895	0.003451
226	1.167999	0.005000	9.456840	-0.985260	-0.353160	-0.439691	-0.071076	0.122472	0.022571	0.027825	0.004795
227	1.172999	0.005000	9.349685	-0.991565	-0.308637	-0.438807	-0.070523	0.120003	0.026796	0.030272	-0.001168
228	1.177999	0.005000	9.437925	-0.941760	-0.313920	-0.437922	-0.069970	0.117534	0.013906	0.032160	0.004981
229	1.182999	0.005000	9.464167	-0.902520	-0.250095	-0.437038	-0.069418	0.115065	0.027474	0.030551	0.004996
230	1.187999	0.005000	9.386710	-0.964300	-0.229600	-0.436154	-0.068865	0.112596	0.016633	0.033518	-0.002191
231	1.192999	0.005000	9.318625	-0.962255	-0.196200	-0.435752	-0.068450	0.111513	0.035507	0.039226	0.001658
232	1.197999	0.005000	9.436773	-0.951793	-0.264647	-0.435641	-0.068118	0.111266	0.028463	0.041040	0.003112
233	1.202999	0.005000	9.507017	-0.952697	-0.246377	-0.435531	-0.067786	0.111019	0.033394	0.036457	0.009599
234	1.207999	0.005000	9.429559	-0.953719	-0.313920	-0.435420	-0.067455	0.110772	0.032715	0.035659	0.012206
235	1.212999	0.005000	9.417600	-0.928778	-0.261698	-0.435309	-0.067123	0.110525	0.028470	0.046306	0.008944
236	1.217999	0.005000	9.507311	-0.891289	-0.260676	-0.435199	-0.066791	0.110278	0.029931	0.041442	0.014966
237	1.222999	0.005000	9.511107	-0.848253	-0.274680	-0.435088	-0.066459	0.110031	0.008501	0.042896	0.012217
238	1.227999	0.005000	9.419289	-0.925726	-0.281853	-0.434978	-0.066127	0.109784	0.024439	0.031341	0.013709
239	1.232999	0.005000	9.422728	-0.902520	-0.409456	-0.434867	-0.065795	0.109536	0.034473	0.047094	0.020706
240	1.237999	0.005000	9.471836	-0.902520	-0.292759	-0.434756	-0.065464	0.109289	0.024603	0.041031	0.022127
241	1.242999	0.005000	9.515181	-0.982038	-0.294819	-0.434646	-0.065132	0.109042	0.027314	0.043286	0.022951
242	1.247999	0.005000	9.378360	-1.059480	-0.353160	-0.434535	-0.064800	0.108795	0.012255	0.054087	0.009155
243	1.252999	0.005000	9.435694	-0.984052	-0.316972	-0.434424	-0.064468	0.108548	0.022023	0.045429	0.011365
244	1.257999	0.005000	9.451743	-1.003168	-0.252512	-0.434300	-0.064151	0.108301	0.014948	0.046487	0.019188
245	1.262999	0.005000	9.401352	-0.948504	-0.274680	-0.434078	-0.063929	0.108054	0.011646	0.046107	0.014923
246	1.267999	0.005000	9.386586	-0.933534	-0.322146	-0.433857	-0.063708	0.107807	0.021937	0.031586	0.014148
247	1.272999	0.005000	9.368089	-1.034725	-0.167231	-0.433636	-0.063487	0.107561	0.006890	0.043710	0.016056
248	1.277999	0.005000	9.404138	-1.060626	-0.235440	-0.433415	-0.063266	0.107314	0.016754	0.038032	0.013675
249	1.282999	0.005000	9.431961	-1.020240	-0.233519	-0.433194	-0.063045	0.107067	0.021196	0.045788	0.007458
250	1.287999	0.005000	9.339120	-1.054492	-0.246857	-0.432973	-0.062824	0.106820	0.025702	0.039589	0.011493
251	1.292999	0.005000	9.399150	-1.059480	-0.313920	-0.432752	-0.062603	0.106573	0.033644	0.032410	0.013834
252	1.297999	0.005000	9.426972	-1.128588	-0.254185	-0.432531	-0.062382	0.106326	0.009509	0.034523	0.019774
253	1.302999	0.005000	9.473540	-1.104560	-0.190360	-0.432310	-0.062161	0.106079	0.014464	0.035803	0.018719
254	1.307999	0.005000	9.417600	-0.949568	-0.258863	-0.432089	-0.061940	0.105832	0.007102	0.043206	0.012262
255	1.312999	0.005000	9.404029	-0.941760	-0.385615	-0.431867	-0.061718	0.105586	0.002728	0.046784	0.013155
256	1.317999	0.005000	9.344883	-0.902520	-0.308157	-0.431646	-0.061497	0.105339	0.011507	0.036973	0.012608
257	1.322999	0.005000	9.422340	-0.843002	-0.254402	-0.431425	-0.061276	0.105092	0.016374	0.033026	0.022618
258	1.327999	0.005000	9.460558	-1.012804	-0.274680	-0.431343	-0.061472	0.105000	0.033475	0.026841	0.018433
259	1.332999	0.005000	9.422991	-1.054089	-0.277376	-0.431343	-0.061914	0.105000	0.014521	0.043636	0.009697
260	1.337999	0.005000	9.456840	-1.020240	-0.273007	-0.431343	-0.062357	0.105000	0.014406	0.043677	0.013043
261	1.342999	0.005000	9.339771	-1.019589	-0.313920	-0.431343	-0.062799	0.105000	0.019427	0.041675	0.002833
262	1.347999	0.005000	9.456127	-0.981000	-0.313920	-0.431343	-0.063241	0.105000	0.023365	0.034706	0.011845
263	1.352999	0.005000	9.494701	-0.940381	-0.315299	-0.431343	-0.063684	0.105000	0.042194	0.034845	0.022216
264	1.357999	0.005000	9.532919	-0.902520	-0.353160	-0.431343	-0.064126	0.105000	0.035184	0.032562	0.013077
265	1.362999	0.005000	9.424447	-0.934913	-0.203047	-0.431343	-0.064568	0.105000	0.031127	0.035419	0.016374
266	1.367999	0.005000	9.443502	-0.911412	-0.339822	-0.431343	-0.065011	0.105000	0.036016	0.039442	0.010955
267	1.372999	0.005000	9.383424	-0.858216	-0.392400	-0.431343	-0.065453	0.105000	0.038818	0.037261	0.016209
268	1.377999	0.005000	9.490069	-0.923728	-0.353160	-0.431343	-0.065896	0.105000	0.040276	0.042415	0.027468
269	1.382999	0.005000	9.353186	-0.988033	-0.274680	-0.431343	-0.066338	0.105000	0.039910	0.040075	0.016038
270	1.387999	0.005000	9.417600	-0.981000	-0.258569	-0.431343	-0.066780	0.105000	0.049363	0.036168	0.030041
271	1.392999	0.005000	9.487002	-1.059480	-0.325926	-0.431343	-0.067179	0.104984	0.043902	0.037487	0.015529
272	1.397999	0.005000	9.407500	-1.088620	-0.313920	-0.431343	-0.067289	0.104860	0.033495	0.041944	0.017509
273	1.402999	0.005000	9.463722	-1.087934	-0.274680	-0.431343	-0.067400	0.104737	0.026210	0.052400	0.010840
274	1.407999	0.005000	9.445175	-1.110385	-0.286345	-0.431343	-0.067510	0.104613	0.006439	0.041340	0.006076
275	1.412999	0.005000	9.483392	-1.084855	-0.208888	-0.431343	-0.067621	0.104490	0.014207	0.037601	0.011961
276	1.417999	0.005000	9.535320	-0.955470	-0.247260	-0.431343	-0.067732	0.104366	0.006208	0.046054	0.013357
277	1.422999	0.005000	9.447065	-0.878012	-0.210932	-0.431343	-0.067842	0.104243	0.013865	0.036600	0.018729
278	1.427999	0.005000	9.433355	-0.949490	-0.156960	-0.431343	-0.067953	0.104119	0.012828	0.038246	0.006750
279	1.432999	0.005000	9.473617	-0.846503	-0.274680	-0.431343	-0.068063	0.103996	-0.002454	0.039364	0.014454
280	1.437999	0.005000	9.496080	-0.888361	-0.335360	-0.431343	-0.068174	0.103872	0.002599	0.042155	0.014533
281	1.442999	0.005000	9.438018	-0.999822	-0.354756	-0.431343	-0.068285	0.103749	0.016818	0.033413	0.004218
282	1.447999	0.005000	9.515925	-0.922365	-0.372555	-0.431343	-0.068395	0.103625	0.025901	0.028757	0.010625
283	1.452999	0.005000	9.433479	-0.978506	-0.274680	-0.431343	-0.068506	0.103502	0.027414	0.029944	0.006869
284	1.457999	0.005000	9.396191	-0.981000	-0.256849	-0.431343	-0.068616	0.103378	0.032130	0.025881	0.007667
285	1.462999	0.005000	9.406353	-1.065103	-0.241063	-0.431483	-0.068377	0.103333	0.017103	0.039545	0.014243
286	1.467999	0.005000	9.394146	-1.004454	-0.258894	-0.431704	-0.067935	0.103333	0.033411	0.037928	0.003132
287	1.472999	0.005000	9.407887	-1.015190	-0.323633	-0.431925	-0.067493	0.103333	0.044143	0.029024	0.008663
288	1.477999	0.005000	9.405842	-1.020240	-0.260939	-0.432146	-0.067050	0.103333	0.028494	0.039860	0.015070
289	1.482999	0.005000	9.392163	-0.954479	-0.260877	-0.432368	-0.066608	0.103333	0.027767	0.030737	0.007080
290	1.487999	0.005000	9.327424	-0.953456	-0.318072	-0.432589	-0.066165	0.103333	0.015166	0.029853	0.004691
291	1.492999	0.005000	9.438947	-0.923867	-0.246114	-0.432810	-0.065723	0.103333	0.014058	0.031413	0.002671
292	1.497999	0.005000	9.437507	-1.020240	-0.304253	-0.433031	-0.065281	0.103333	0.019747	0.027986	0.008339
293	1.502999	0.005000	9.365053	-0.989644	-0.213489	-0.433252	-0.064838	0.103333	0.016979	0.031344	0.002125
294	1.507999	0.005000	9.464462	-0.988622	-0.250684	-0.433474	-0.064396	0.103333	0.021993	0.022970	0.008093
295	1.512999	0.005000	9.424278	-1.046123	-0.313920	-0.433695	-0.063953	0.103333	0.002356	0.031553	0.008629
296	1.517999	0.005000	9.535320	-1.008952	-0.409065	-0.433916	-0.063511	0.103333	0.001753	0.035182	0.006803
297	1.522999	0.005000	9.378360	-0.986019	-0.230421	-0.434137	-0.063069	0.103333	0.016440	0.038501	0.006162
298	1.527999	0.005000	9.382372	-0.890483	-0.200212	-0.434313	-0.062657	0.103316	0.021733	0.030885	-0.000386
299	1.532999	0.005000	9.381350	-0.863280	-0.319900	-0.434202	-0.062435	0.103193	0.014326	0.028917	0.002856
300	1.537999	0.005000	9.341087	-0.867215	-0.351193	-0.434092	-0.062214	0.103069	0.013321	0.037386	0.005553
301	1.542999	0.005000	9.419490	-1.019295	-0.274680	-0.433981	-0.061993	0.102946	0.030733	0.034893	0.006109
302	1.547999	0.005000	9.496080	-0.941837	-0.118030	-0.433871	-0.061772	0.102822	0.027846	0.042908	0.007384
303	1.552999	0.005000	9.457940	-0.942860	-0.078480	-0.433760	-0.061550	0.102699	0.032573	0.045892	0.004892
304	1.557999	0.005000	9.339120	-0.981000	-0.266191	-0.433649	-0.061329	0.102575	0.046271	0.042076	0.012165
305	1.562999	0.005000	9.309314	-0.938615	-0.313920	-0.433539	-0.061108	0.102452	0.030829	0.038608	0.000831
306	1.567999	0.005000	9.425934	-0.981000	-0.283014	-0.433428	-0.060887	0.102328	0.040141	0.028536	0.011436
307	1.572999	0.005000	9.485701	-0.941760	-0.313920	-0.433318	-0.060665	0.102205	0.030649	0.042638	0.018516
308	1.577999	0.005000	9.456840	-0.836464	-0.268468	-0.433207	-0.060444	0.102082	0.019005	0.044087	0.011369
309	1.582999	0.005000	9.424835	-0.870515	-0.338691	-0.433097	-0.060223	0.101958	0.018612	0.040973	0.019715
310	1.587999	0.005000	9.315626	-0.965254	-0.384527	-0.432986	-0.060001	0.101835	0.018407	0.042568	0.008776
311	1.592999	0.005000	9.399072	-1.020240	-0.410928	-0.432876	-0.059780	0.101711	0.028663	0.028576	0.016957
312	1.597999	0.005000	9.417600	-1.000643	-0.411997	-0.432765	-0.059914	0.101826	0.026351	0.032871	0.006624
313	1.602999	0.005000	9.395912	-0.998552	-0.324764	-0.432654	-0.060246	0.102073	0.009703	0.040165	0.019688
314	1.607999	0.005000	9.456840	-1.063121	-0.259173	-0.432544	-0.060578	0.102320	0.008552	0.046304	0.014631
315	1.612999	0.005000	9.535893	-1.006778	-0.300458	-0.432433	-0.060910	0.102567	-0.009921	0.046465	0.017153
316	1.617999	0.005000	9.470741	-0.927859	-0.339259	-0.432322	-0.061242	0.102814	0.004815	0.044899	0.015254
317	1.622999	0.005000	9.481162	-0.902520	-0.382997	-0.432211	-0.061574	0.103061	0.002498	0.039637	0.006618
318	1.627999	0.005000	9.426182	-0.879221	-0.274680	-0.432101	-0.061906	0.103308	0.005653	0.032354	0.019712
319	1.632999	0.005000	9.344434	-0.930110	-0.252403	-0.431990	-0.062238	0.103555	0.012232	0.043760	0.021311
320	1.637999	0.005000	9.357106	-0.802786	-0.232171	-0.431879	-0.062570	0.103802	0.008067	0.046886	0.020740
321	1.642999	0.005000	9.358128	-0.865728	-0.275904	-0.431769	-0.062902	0.104050	0.012242	0.052473	0.017617
322	1.647999	0.005000	9.417600	-0.940939	-0.314741	-0.431658	-0.063234	0.104297	0.014101	0.050545	0.014461
323	1.652999	0.005000	9.396547	-0.902520	-0.295733	-0.431547	-0.063566	0.104544	0.029920	0.036978	0.018399
324	1.657999	0.005000	9.474005	-0.936849	-0.313920	-0.431437	-0.063898	0.104791	0.028273	0.031532	0.013856
325	1.662999	0.005000	9.551462	-1.066436	-0.244626	-0.431326	-0.064196	0.104981	0.016096	0.038951	0.013455
326	1.667999	0.005000	9.456840	-1.074600	-0.304919	-0.431215	-0.064307	0.104857	0.011714	0.045402	0.005739
327	1.672999	0.005000	9.510177	-1.084623	-0.249537	-0.431105	-0.064417	0.104734	-0.006583	0.033881	-0.006303
328	1.677999	0.005000	9.443603	-1.085483	-0.249147	-0.430994	-0.064528	0.104610	0.020978	0.035215	0.016370
329	1.682999	0.005000	9.405067	-1.086187	-0.299745	-0.430884	-0.064639	0.104487	0.000715	0.041529	0.003045
330	1.687999	0.005000	9.507590	-1.126450	-0.325430	-0.430773	-0.064749	0.104363	0.007006	0.038055	0.007426
331	1.692999	0.005000	9.456840	-1.184977	-0.324408	-0.430663	-0.064860	0.104240	0.000421	0.041340	0.014168
332	1.697999	0.005000	9.486615	-1.079789	-0.412709	-0.430552	-0.064970	0.104116	-0.010371	0.046111	0.002536
333	1.702999	0.005000	9.479194	-1.037126	-0.305477	-0.430442	-0.065081	0.103993	-0.002929	0.031963	0.003287
334	1.707999	0.005000	9.417600	-1.154930	-0.360583	-0.430331	-0.065192	0.103869	-0.013761	0.043902	0.007941
335	1.712999	0.005000	9.411187	-1.053067	-0.320333	-0.430220	-0.065302	0.103746	0.005835	0.033812	-0.000940
336	1.717999	0.005000	9.417600	-1.009458	-0.269289	-0.430110	-0.065413	0.103622	0.002329	0.043822	0.001845
337	1.722999	0.005000	9.378360	-0.941760	-0.274680	-0.429999	-0.065524	0.103499	-0.002444	0.045322	0.000493
338	1.727999	0.005000	9.335774	-0.948452	-0.274680	-0.429889	-0.065634	0.103375	0.010239	0.039562	-0.005691
339	1.732999	0.005000	9.378360	-0.978212	-0.238228	-0.429851	-0.065745	0.103414	-0.009927	0.058254	-0.010992
340	1.737999	0.005000	9.417600	-0.904287	-0.349627	-0.429851	-0.065855	0.103538	0.022866	0.051223	-0.000632
341	1.742999	0.005000	9.418359	-0.981000	-0.313920	-0.429851	-0.065966	0.103662	0.026769	0.046644	0.000575
342	1.747999	0.005000	9.378887	-0.942023	-0.391873	-0.429851	-0.066077	0.103785	0.034062	0.034060	-0.006834
343	1.752999	0.005000	9.379646	-1.056908	-0.351874	-0.429851	-0.066187	0.103909	0.038939	0.041143	-0.006424
344	1.757999	0.005000	9.491464	-0.981000	-0.313920	-0.429851	-0.066298	0.104032	0.021901	0.048493	-0.018726
345	1.762999	0.005000	9.492749	-0.899189	-0.202861	-0.429851	-0.066409	0.104156	0.038316	0.046211	-0.007165
346	1.767999	0.005000	9.570207	-0.976647	-0.231087	-0.429851	-0.066519	0.104279	0.032468	0.045548	-0.011052
347	1.772999	0.005000	9.506831	-0.981000	-0.162336	-0.429851	-0.066630	0.104403	0.039045	0.045226	-0.007178
348	1.777999	0.005000	9.456840	-0.948158	-0.229042	-0.429851	-0.066740	0.104527	0.036114	0.048304	-0.001609
349	1.782999	0.005000	9.410180	-0.846301	-0.235440	-0.429851	-0.066851	0.104650	0.017104	0.045343	-0.012315
350	1.787999	0.005000	9.439954	-0.894077	-0.243883	-0.429851	-0.066962	0.104774	0.033630	0.047276	-0.001108
351	1.792999	0.005000	9.367516	-0.981000	-0.364004	-0.429851	-0.067072	0.104897	0.026968	0.051151	-0.019628
352	1.797999	0.005000	9.310368	-0.852792	-0.245928	-0.429889	-0.067220	0.105168	0.025476	0.046104	-0.001008
353	1.802999	0.005000	9.389522	-0.863280	-0.196200	-0.430110	-0.067552	0.106156	0.029848	0.041318	-0.002769
354	1.807999	0.005000	9.485837	-0.836411	-0.144589	-0.430331	-0.067884	0.107144	0.044479	0.035272	-0.002217
355	1.812999	0.005000	9.483919	-0.888980	-0.300380	-0.430552	-0.068216	0.108132	0.031454	0.033787	-0.003539
356	1.817999	0.005000	9.442743	-0.913565	-0.339063	-0.430773	-0.068548	0.109120	0.019354	0.039249	-0.011495
357	1.822999	0.005000	9.315000	-0.902520	-0.359279	-0.430995	-0.068880	0.110108	0.049090	0.035606	-0.011169
358	1.827999	0.005000	9.369174	-0.902520	-0.346204	-0.431216	-0.069211	0.111096	0.049784	0.034211	-0.005811
359	1.832999	0.005000	9.339120	-0.880429	-0.414491	-0.431437	-0.069543	0.112084	0.056025	0.036085	-0.007330
360	1.837999	0.005000	9.456840	-0.962828	-0.389503	-0.431658	-0.069875	0.113072	0.049783	0.043392	-0.000978
361	1.842999	0.005000	9.476886	-1.060332	-0.236292	-0.431879	-0.070207	0.114060	0.031674	0.048214	-0.016165
362	1.847999	0.005000	9.477056	-1.197416	-0.217609	-0.432101	-0.070539	0.115048	0.044557	0.041457	-0.009531
363	1.852999	0.005000	9.435601	-1.155961	-0.238678	-0.432322	-0.070870	0.116036	0.031575	0.033811	-0.007838
364	1.857999	0.005000	9.518341	-1.194179	-0.291659	-0.432543	-0.071202	0.117024	0.038283	0.033601	-0.005127
365	1.862999	0.005000	9.480124	-1.130633	-0.162986	-0.432764	-0.071534	0.118012	0.045164	0.032191	-0.014292
366	1.867999	0.005000	9.423161	-1.152894	-0.054174	-0.434180	-0.072015	0.118416	0.013375	0.036909	-0.021316
367	1.872999	0.005000	9.496080	-1.241769	-0.159454	-0.436171	-0.072568	0.118540	0.022357	0.038854	-0.015394
368	1.877999	0.005000	9.456840	-1.033702	-0.156960	-0.438161	-0.073121	0.118663	0.017701	0.042380	-0.022193
369	1.882999	0.005000	9.417600	-0.981000	-0.144613	-0.440152	-0.073674	0.118787	0.042137	0.038375	-0.019667
370	1.887999	0.005000	9.428924	-0.930436	-0.156960	-0.442143	-0.074227	0.118910	0.040561	0.036346	-0.010944
371	1.892999	0.005000	9.496080	-0.962364	-0.097116	-0.444134	-0.074780	0.119034	0.047738	0.034770	-0.020029
372	1.897999	0.005000	9.496080	-0.941760	-0.029961	-0.446124	-0.075333	0.119158	0.059709	0.039158	-0.024429
373	1.902999	0.005000	9.456840	-0.941760	-0.094994	-0.448115	-0.075886	0.119281	0.048607	0.032402	-0.024451
374	1.907999	0.005000	9.488845	-0.973765	-0.178664	-0.450106	-0.076439	0.119405	0.050664	0.032154	-0.019966
375	1.912999	0.005000	9.423812	-1.040844	-0.229228	-0.452097	-0.076992	0.119528	0.054629	0.032211	-0.036075
376	1.917999	0.005000	9.402031	-0.936570	-0.196200	-0.454087	-0.077545	0.119652	0.060560	0.021107	-0.029917
377	1.922999	0.005000	9.386725	-0.828223	-0.144412	-0.456078	-0.078098	0.119775	0.060007	0.023832	-0.037029
378	1.927999	0.005000	9.489759	-0.908841	-0.124041	-0.458069	-0.078651	0.119899	0.042385	0.027482	-0.028001
379	1.932999	0.005000	9.339120	-0.898244	-0.237578	-0.459362	-0.078944	0.119822	0.066748	0.020374	-0.029134
380	1.937999	0.005000	9.302138	-0.824040	-0.350902	-0.457481	-0.078059	0.118833	0.049372	0.032152	-0.026435
381	1.942999	0.005000	9.378360	-0.786473	-0.351487	-0.455600	-0.077174	0.117845	0.047632	0.029987	-0.026466
382	1.947999	0.005000	9.494686	-0.824969	-0.351766	-0.453719	-0.076289	0.116857	0.037274	0.016491	-0.025074
383	1.952999	0.005000	9.497552	-0.710737	-0.313920	-0.451838	-0.075404	0.115868	0.039448	0.027034	-0.020571
384	1.957999	0.005000	9.464322	-0.667080	-0.389906	-0.449957	-0.074519	0.114880	0.052652	0.031412	-0.025806
385	1.962999	0.005000	9.528287	-0.777767	-0.356677	-0.448076	-0.073633	0.113891	0.038861	0.031444	-0.033390
386	1.967999	0.005000	9.343659	-0.824040	-0.470880	-0.446195	-0.072748	0.112903	0.030678	0.040866	-0.031470
387	1.972999	0.005000	9.383921	-0.818479	-0.330604	-0.444314	-0.071863	0.111914	0.032088	0.037219	-0.036372
388	1.977999	0.005000	9.332536	-0.863280	-0.379232	-0.442433	-0.070978	0.110926	0.036475	0.028895	-0.029141
389	1.982999	0.005000	9.426415	-0.902520	-0.463274	-0.440552	-0.070093	0.109937	0.039624	0.033688	-0.012828
390	1.987999	0.005000	9.395618	-0.754189	-0.383771	-0.438671	-0.069208	0.108949	0.022975	0.037703	-0.020834
391	1.992999	0.005000	9.437538	-0.853629	-0.392400	-0.436790	-0.068322	0.107960	0.024269	0.042846	-0.028375
392	1.997999	0.005000	9.496080	-0.902520	-0.313920	-0.434908	-0.067437	0.106972	0.023458	0.045054	-0.024866
393	2.002999	0.005000	9.602104	-0.874976	-0.369008	-0.434404	-0.067164	0.106411	0.016703	0.044735	-0.026108
394	2.007999	0.005000	9.443037	-0.824040	-0.392400	-0.434515	-0.067164	0.106041	0.015706	0.035351	-0.016260
395	2.012999	0.005000	9.454887	-0.835818	-0.353160	-0.434626	-0.067164	0.105670	0.003920	0.043666	-0.020008
396	2.017999	0.005000	9.421723	-0.799254	-0.299466	-0.434736	-0.067164	0.105300	0.014792	0.043347	-0.018391
397	2.022999	0.005000	9.535320	-0.800106	-0.313920	-0.434847	-0.067164	0.104930	0.009808	0.048503	-0.015075
398	2.027999	0.005000	9.450256	-0.886192	-0.251768	-0.434957	-0.067164	0.104559	0.017842	0.043695	-0.012166
399	2.032999	0.005000	9.439282	-0.859157	-0.213758	-0.435068	-0.067164	0.104189	0.014320	0.050340	-0.016743
400	2.037999	0.005000	9.454346	-0.803173	-0.096853	-0.435179	-0.067164	0.103819	0.009960	0.040752	-0.017431
401	2.042999	0.005000	9.457305	-0.745560	-0.196200	-0.435289	-0.067164	0.103448	0.016130	0.034572	-0.011200
402	2.047999	0.005000	9.455275	-0.745560	-0.061207	-0.435400	-0.067164	0.103078	0.005304	0.044982	-0.020159
403	2.052999	0.005000	9.496080	-0.806225	-0.074870	-0.435510	-0.067164	0.102708	0.012262	0.040057	-0.014293
404	2.057999	0.005000	9.384014	-0.880073	-0.179407	-0.435621	-0.067164	0.102337	0.009702	0.040369	-0.020032
405	2.062999	0.005000	9.362590	-0.941760	-0.164659	-0.435731	-0.067164	0.101967	0.012624	0.033579	-0.012408
406	2.067999	0.005000	9.442092	-0.941760	-0.235440	-0.435821	-0.067164	0.101691	-0.003719	0.034211	-0.010132
407	2.072999	0.005000	9.364635	-0.981000	-0.221715	-0.435821	-0.067164	0.101814	-0.001964	0.037118	-0.021555
408	2.077999	0.005000	9.312583	-0.864411	-0.260846	-0.435821	-0.067164	0.101937	-0.003684	0.038287	-0.018511
409	2.082999	0.005000	9.468521	-0.874961	-0.329799	-0.435821	-0.067164	0.102061	-0.015662	0.031156	-0.015772
410	2.087999	0.005000	9.321196	-0.784800	-0.303262	-0.435821	-0.067164	0.102184	-0.003235	0.024678	-0.014265
411	2.092999	0.005000	9.397631	-0.715956	-0.313920	-0.435821	-0.067164	0.102308	0.010844	0.018628	-0.010700
412	2.097999	0.005000	9.434827	-0.684307	-0.274680	-0.435821	-0.067164	0.102431	0.013683	0.015003	-0.003751
413	2.102999	0.005000	9.456840	-0.635431	-0.337978	-0.435821	-0.067164	0.102555	0.021664	0.025905	-0.001050
414	2.107999	0.005000	9.443672	-0.725808	-0.228856	-0.435821	-0.067164	0.102678	0.010027	0.038522	-0.013592
415	2.112999	0.005000	9.478001	-0.679132	-0.096559	-0.435821	-0.067164	0.102802	0.019947	0.030133	-0.011502
416	2.117999	0.005000	9.451836	-0.809029	-0.201204	-0.435821	-0.067164	0.102925	0.031574	0.031972	-0.016616
417	2.122999	0.005000	9.460821	-0.784800	-0.396381	-0.435821	-0.067164	0.103049	0.032442	0.027515	-0.006614
418	2.127999	0.005000	9.496080	-0.899561	-0.434599	-0.435821	-0.067164	0.103172	0.045190	0.029165	-0.004267
419	2.132999	0.005000	9.574560	-0.898646	-0.427766	-0.435821	-0.067164	0.103295	0.026230	0.036090	0.000859
420	2.137999	0.005000	9.614729	-0.821252	-0.350372	-0.435667	-0.067087	0.103505	0.045835	0.035943	-0.000342
421	2.142999	0.005000	9.496452	-0.784614	-0.274587	-0.435446	-0.066976	0.103752	0.020515	0.036811	-0.000744
422	2.147999	0.005000	9.419831	-0.709666	-0.312805	-0.435224	-0.066866	0.103999	0.025697	0.026028	0.002996
423	2.152999	0.005000	9.419738	-0.747698	-0.316058	-0.435003	-0.066755	0.104246	0.026193	0.030488	0.010782
424	2.157999	0.005000	9.450519	-0.784800	-0.346839	-0.434782	-0.066645	0.104494	0.019242	0.029484	0.002001
425	2.162999	0.005000	9.425965	-0.819857	-0.313920	-0.434561	-0.066534	0.104741	0.014129	0.039619	0.000445
426	2.167999	0.005000	9.427167	-0.897737	-0.284247	-0.434339	-0.066423	0.104988	0.003405	0.046544	0.001432
427	2.172999	0.005000	9.384107	-0.885278	-0.241187	-0.434118	-0.066313	0.105235	0.011296	0.038253	-0.000713
428	2.177999	0.005000	9.450070	-0.830810	-0.385630	-0.433897	-0.066202	0.105482	0.009796	0.029981	-0.001574
429	2.182999	0.005000	9.629663	-0.863280	-0.345368	-0.433675	-0.066092	0.105729	0.004108	0.029003	0.000013
430	2.187999	0.005000	9.552949	-0.893705	-0.253069	-0.433454	-0.065981	0.105977	0.012212	0.029015	0.007716
431	2.192999	0.005000	9.574560	-0.971163	-0.264843	-0.433233	-0.065870	0.106224	-0.001697	0.027228	0.007591
432	2.197999	0.005000	9.574560	-1.009380	-0.207060	-0.433012	-0.065760	0.106471	0.012662	0.014577	0.009294
433	2.202999	0.005000	9.559084	-0.981000	-0.192606	-0.432882	-0.065741	0.106590	0.016753	0.017683	0.002232
434	2.207999	0.005000	9.483176	-0.968096	-0.222536	-0.433103	-0.066073	0.106220	-0.005473	0.021944	0.003729
435	2.212999	0.005000	9.299880	-0.967073	-0.210127	-0.433324	-0.066404	0.105849	0.001758	0.012599	0.018811
436	2.217999	0.005000	9.378360	-1.035189	-0.259731	-0.433546	-0.066736	0.105478	0.000173	0.013694	0.000652
437	2.222999	0.005000	9.464137	-1.145257	-0.281977	-0.433767	-0.067068	0.105108	0.002368	0.012598	0.002500
438	2.227999	0.005000	9.445144	-1.071176	-0.230157	-0.433988	-0.067400	0.104737	-0.012411	0.018878	-0.014545
439	2.232999	0.005000	9.456840	-1.051986	-0.196200	-0.434210	-0.067732	0.104366	-0.015615	0.003294	-0.010507
440	2.237999	0.005000	9.533198	-1.063725	-0.219004	-0.434431	-0.068064	0.103996	-0.009080	-0.001388	0.003066
441	2.242999	0.005000	9.515891	-1.118531	-0.294491	-0.434652	-0.068396	0.103625	-0.008464	-0.005860	-0.008801
442	2.247999	0.005000	9.458807	-1.117356	-0.295284	-0.434873	-0.068728	0.103254	-0.024059	0.000968	-0.007496
443	2.252999	0.005000	9.421612	-1.059480	-0.278692	-0.435095	-0.069060	0.102884	-0.045763	0.013236	-0.021124
444	2.257999	0.005000	9.423626	-1.098720	-0.353160	-0.435316	-0.069392	0.102513	-0.042361	0.006499	-0.015025
445	2.262999	0.005000	9.394502	-1.020240	-0.251024	-0.435537	-0.069723	0.102142	-0.046877	0.014774	-0.027715
446	2.267999	0.005000	9.417600	-1.059480	-0.260118	-0.435759	-0.070055	0.101772	-0.033248	0.002950	-0.032201
447	2.272999	0.005000	9.456840	-0.967460	-0.261140	-0.435900	-0.070070	0.102022	-0.021875	0.002530	-0.025509
448	2.277999	0.005000	9.430582	-0.915502	-0.326902	-0.436011	-0.069959	0.102516	-0.041773	0.006057	-0.036851
449	2.282999	0.005000	9.511401	-0.926439	-0.301961	-0.436122	-0.069848	0.103010	-0.031161	0.007661	-0.034193
450	2.287999	0.005000	9.478745	-0.913472	-0.257345	-0.436232	-0.069738	0.103504	-0.042051	0.021666	-0.035290
451	2.292999	0.005000	9.525390	-1.039620	-0.392400	-0.436343	-0.069627	0.103999	-0.033963	0.015822	-0.047510
452	2.297999	0.005000	9.526412	-0.981000	-0.317530	-0.436453	-0.069517	0.104493	-0.039091	0.013196	-0.040134
453	2.302999	0.005000	9.362590	-1.020240	-0.251210	-0.436564	-0.069406	0.104987	-0.026890	0.020916	-0.053488
454	2.307999	0.005000	9.378360	-1.013377	-0.360023	-0.436675	-0.069295	0.105481	-0.026673	0.014267	-0.052534
455	2.312999	0.005000	9.372520	-0.902520	-0.325601	-0.436785	-0.069185	0.105975	-0.037006	0.027587	-0.051599
456	2.317999	0.005000	9.343938	-0.985818	-0.431640	-0.436896	-0.069074	0.106470	-0.021927	0.031623	-0.058458
457	2.322999	0.005000	9.456840	-0.984795	-0.435435	-0.437007	-0.068963	0.106964	-0.030714	0.029095	-0.064258
458	2.327999	0.005000	9.341893	-0.947306	-0.355933	-0.437117	-0.068853	0.107458	-0.031225	0.031096	-0.066105
459	2.332999	0.005000	9.419351	-1.021991	-0.353160	-0.437228	-0.068742	0.107952	-0.015779	0.030036	-0.056399
460	2.337999	0.005000	9.377632	-1.097992	-0.393856	-0.437313	-0.068682	0.108333	-0.028869	0.023620	-0.064396
461	2.342999	0.005000	9.378066	-0.903697	-0.470880	-0.437313	-0.068793	0.108333	-0.046662	0.027200	-0.056361
462	2.347999	0.005000	9.496080	-1.018546	-0.317308	-0.437313	-0.068904	0.108333	-0.062515	0.041872	-0.080411
463	2.352999	0.005000	9.568983	-0.984718	-0.278398	-0.437313	-0.069014	0.108333	-0.081489	0.041295	-0.082910
464	2.357999	0.005000	9.496080	-0.947523	-0.347397	-0.437313	-0.069125	0.108333	-0.070266	0.037566	-0.074838
465	2.362999	0.005000	9.421504	-0.831848	-0.357064	-0.437313	-0.069235	0.108333	-0.070828	0.032413	-0.079461
466	2.367999	0.005000	9.417600	-0.784800	-0.348234	-0.437313	-0.069346	0.108333	-0.047362	0.023852	-0.071694
467	2.372999	0.005000	9.417600	-0.757457	-0.280629	-0.437313	-0.069457	0.108333	-0.068540	0.040086	-0.075581
468	2.377999	0.005000	9.320755	-0.738602	-0.242398	-0.437313	-0.069567	0.108333	-0.064343	0.038951	-0.075153
469	2.382999	0.005000	9.417600	-0.847324	-0.274680	-0.437313	-0.069678	0.108333	-0.065600	0.038784	-0.074680
470	2.387999	0.005000	9.438839	-0.793801	-0.214201	-0.437313	-0.069788	0.108333	-0.048984	0.033119	-0.078933
471	2.392999	0.005000	9.446817	-0.892497	-0.255486	-0.437313	-0.069899	0.108333	-0.045976	0.038242	-0.064890
472	2.397999	0.005000	9.602755	-0.902520	-0.224395	-0.437313	-0.070010	0.108333	-0.057642	0.031887	-0.072876
473	2.402999	0.005000	9.535320	-0.875348	-0.368264	-0.437313	-0.070120	0.108333	-0.049841	0.022836	-0.076591
474	2.407999	0.005000	9.483021	-0.784800	-0.327041	-0.437231	-0.070313	0.108333	-0.052066	0.029473	-0.079198
475	2.412999	0.005000	9.459938	-0.824040	-0.106706	-0.437120	-0.070534	0.108333	-0.062341	0.027996	-0.077222
476	2.417999	0.005000	9.441705	-0.721455	-0.141825	-0.437010	-0.070755	0.108333	-0.047938	0.031846	-0.073548
477	2.422999	0.005000	9.449915	-0.604758	-0.242365	-0.436899	-0.070977	0.108333	-0.062942	0.029639	-0.078039
478	2.427999	0.005000	9.344546	-0.667080	-0.269254	-0.436789	-0.071198	0.108333	-0.073157	0.027733	-0.063079
479	2.432999	0.005000	9.456840	-0.613913	-0.331642	-0.436678	-0.071419	0.108333	-0.065188	0.044248	-0.066176
480	2.437999	0.005000	9.414099	-0.626089	-0.392400	-0.436567	-0.071641	0.108333	-0.074909	0.036316	-0.080233
481	2.442999	0.005000	9.417600	-0.608367	-0.314214	-0.436457	-0.071862	0.108333	-0.078532	0.034982	-0.065774
482	2.447999	0.005000	9.399150	-0.609390	-0.256230	-0.436346	-0.072083	0.108333	-0.087525	0.044303	-0.066653
483	2.452999	0.005000	9.483036	-0.588600	-0.348776	-0.436236	-0.072304	0.108333	-0.080708	0.035889	-0.060844
484	2.457999	0.005000	9.502509	-0.572194	-0.359589	-0.436125	-0.072526	0.108333	-0.093159	0.036081	-0.068532
485	2.462999	0.005000	9.432983	-0.510120	-0.250823	-0.436014	-0.072747	0.108333	-0.099566	0.046532	-0.059076
486	2.467999	0.005000	9.463488	-0.613474	-0.224933	-0.435904	-0.072968	0.108333	-0.113354	0.050155	-0.056807
487	2.472999	0.005000	9.430133	-0.496766	-0.262147	-0.435821	-0.073162	0.108395	-0.113052	0.054517	-0.070329
488	2.477999	0.005000	9.520742	-0.431640	-0.353160	-0.435821	-0.073273	0.108642	-0.101707	0.054782	-0.053690
489	2.482999	0.005000	9.473191	-0.482324	-0.443084	-0.435821	-0.073383	0.108890	-0.103059	0.054945	-0.054170
490	2.487999	0.005000	9.535320	-0.470880	-0.488618	-0.435821	-0.073494	0.109137	-0.089546	0.057223	-0.046804
491	2.492999	0.005000	9.594343	-0.431640	-0.431640	-0.435821	-0.073605	0.109384	-0.101605	0.067130	-0.043912
492	2.497999	0.005000	9.513499	-0.353160	-0.431640	-0.435821	-0.073715	0.109631	-0.118646	0.065392	-0.047293
493	2.502999	0.005000	9.472239	-0.431640	-0.353160	-0.435821	-0.073826	0.109878	-0.103285	0.062712	-0.038268
494	2.507999	0.005000	9.521966	-0.399077	-0.359837	-0.435821	-0.073937	0.110125	-0.130365	0.060170	-0.026509
495	2.512999	0.005000	9.574560	-0.398054	-0.420331	-0.435821	-0.074047	0.110373	-0.110070	0.050456	-0.019648
496	2.517999	0.005000	9.486816	-0.392400	-0.387768	-0.435821	-0.074158	0.110620	-0.118436	0.057142	-0.020377
497	2.522999	0.005000	9.413990	-0.470880	-0.360379	-0.435821	-0.074269	0.110867	-0.115926	0.065436	-0.014775
498	2.527999	0.005000	9.386121	-0.392400	-0.358334	-0.435821	-0.074379	0.111114	-0.102709	0.067649	-0.006570
499	2.532999	0.005000	9.572995	-0.467751	-0.315485	-0.435821	-0.074490	0.111361	-0.108138	0.064503	-0.008926
500	2.537999	0.005000	9.574560	-0.391858	-0.315004	-0.435821	-0.074601	0.111608	-0.087026	0.056077	-0.004407
501	2.542999	0.005000	9.458281	-0.236881	-0.314880	-0.435821	-0.074711	0.111761	-0.100175	0.067760	-0.010605
502	2.547999	0.005000	9.610795	-0.236943	-0.350155	-0.435821	-0.074822	0.111885	-0.101901	0.060178	-0.000794
503	2.552999	0.005000	9.496080	-0.274680	-0.392400	-0.435821	-0.074933	0.112008	-0.081299	0.060330	0.007104
504	2.557999	0.005000	9.424695	-0.388852	-0.360255	-0.435821	-0.075043	0.112132	-0.070368	0.073545	0.002749
505	2.562999	0.005000	9.535320	-0.574936	-0.431640	-0.435821	-0.075154	0.112256	-0.055254	0.065085	0.010632
506	2.567999	0.005000	9.451263	-0.549360	-0.437217	-0.435821	-0.075265	0.112379	-0.056854	0.061086	0.005774
507	2.572999	0.005000	9.482881	-0.679922	-0.392400	-0.435821	-0.075375	0.112503	-0.055269	0.061150	0.013662
508	2.577999	0.005000	9.417600	-0.769556	-0.345538	-0.435821	-0.075486	0.112626	-0.064802	0.062614	0.005435
509	2.582999	0.005000	9.487802	-0.714598	-0.330475	-0.435821	-0.075597	0.112750	-0.071048	0.056069	0.008833
510	2.587999	0.005000	9.496080	-0.814728	-0.254064	-0.435821	-0.075707	0.112873	-0.077830	0.063981	0.025621
511	2.592999	0.005000	9.417600	-0.764382	-0.334338	-0.435821	-0.075818	0.112997	-0.104611	0.067701	0.012160
512	2.597999	0.005000	9.311111	-0.745560	-0.325151	-0.435821	-0.075929	0.113120	-0.079397	0.055920	0.020187
513	2.602999	0.005000	9.324388	-0.718574	-0.431640	-0.435821	-0.076039	0.113244	-0.114743	0.067086	0.017784
514	2.607999	0.005000	9.365672	-0.575912	-0.484156	-0.435821	-0.076026	0.113229	-0.107565	0.072494	0.031618
515	2.612999	0.005000	9.328477	-0.488835	-0.485179	-0.435821	-0.075694	0.112859	-0.109903	0.080572	0.022836
516	2.617999	0.005000	9.345843	-0.446961	-0.431640	-0.435821	-0.075363	0.112488	-0.088976	0.092005	0.022465
517	2.622999	0.005000	9.345673	-0.392400	-0.493776	-0.435821	-0.075031	0.112118	-0.055555	0.099654	0.022487
518	2.627999	0.005000	9.422108	-0.331286	-0.453514	-0.435821	-0.074699	0.111747	-0.053403	0.106421	0.025286
519	2.632999	0.005000	9.558635	-0.371548	-0.528508	-0.435821	-0.074367	0.111377	-0.052634	0.115289	0.035085
520	2.637999	0.005000	9.574560	-0.254851	-0.510538	-0.435821	-0.074035	0.111006	-0.066816	0.112518	0.035079
521	2.642999	0.005000	9.576187	-0.216633	-0.646647	-0.435821	-0.073704	0.110636	-0.065237	0.106745	0.040757
522	2.647999	0.005000	9.521207	-0.253224	-0.702649	-0.435821	-0.073372	0.110265	-0.061421	0.109067	0.057782
523	2.652999	0.005000	9.422901	-0.370129	-0.723289	-0.435821	-0.073040	0.109895	-0.047467	0.112909	0.060141
524	2.657999	0.005000	9.394580	-0.487100	-0.752361	-0.435821	-0.072708	0.109524	-0.019013	0.116518	0.071667
525	2.662999	0.005000	9.354317	-0.479726	-0.651883	-0.435821	-0.072377	0.109154	-0.023633	0.111527	0.066159
526	2.667999	0.005000	9.392535	-0.499229	-0.599491	-0.435821	-0.072045	0.108783	-0.016042	0.119543	0.065976
527	2.672999	0.005000	9.339120	-0.627840	-0.536208	-0.435821	-0.071713	0.108413	-0.037366	0.121575	0.074740
528	2.677999	0.005000	9.339120	-0.615710	-0.522250	-0.436690	-0.071903	0.110856	-0.043579	0.130841	0.067955
529	2.682999	0.005000	9.339120	-0.549360	-0.459757	-0.437796	-0.072235	0.114069	-0.030512	0.135393	0.080310
530	2.687999	0.005000	9.398561	-0.489919	-0.343060	-0.438903	-0.072566	0.117281	-0.036454	0.136940	0.076170
531	2.692999	0.005000	9.465918	-0.392400	-0.322998	-0.440009	-0.072898	0.120494	-0.029616	0.136856	0.088339
532	2.697999	0.005000	9.370304	-0.423584	-0.392400	-0.441116	-0.073230	0.123707	-0.041765	0.144617	0.092908
533	2.702999	0.005000	9.370862	-0.289676	-0.313920	-0.442222	-0.073562	0.126919	-0.040457	0.150877	0.096553
534	2.707999	0.005000	9.411125	-0.320395	-0.288018	-0.443329	-0.073894	0.130132	-0.034408	0.149981	0.104830
535	2.712999	0.005000	9.412131	-0.347691	-0.313920	-0.444435	-0.074226	0.133344	-0.039095	0.149139	0.104991
536	2.717999	0.005000	9.387252	-0.305028	-0.279126	-0.445542	-0.074558	0.136557	-0.022323	0.147551	0.114205
537	2.722999	0.005000	9.496080	-0.310496	-0.274680	-0.446648	-0.074890	0.139769	-0.034632	0.152908	0.114038
538	2.727999	0.005000	9.422402	-0.237841	-0.188996	-0.447755	-0.075222	0.142982	-0.009325	0.156002	0.120793
539	2.732999	0.005000	9.455461	-0.276059	-0.119099	-0.448861	-0.075554	0.146195	0.018505	0.144280	0.127598
540	2.737999	0.005000	9.300593	-0.471236	-0.197269	-0.449968	-0.075886	0.149407	0.043345	0.151507	0.120672
541	2.742999	0.005000	9.378360	-0.625842	-0.236772	-0.450943	-0.076217	0.151264	0.043241	0.162051	0.125665
542	2.747999	0.005000	9.303257	-0.779734	-0.276369	-0.451606	-0.076549	0.149905	0.045819	0.164910	0.118474
543	2.752999	0.005000	9.380591	-0.671542	-0.270218	-0.452270	-0.076881	0.148547	0.065303	0.161061	0.118265
544	2.757999	0.005000	9.492827	-0.817534	0.026227	-0.452934	-0.077213	0.147188	0.076929	0.154019	0.117753
545	2.762999	0.005000	9.347671	-0.815489	0.074204	-0.453597	-0.077545	0.145830	0.093544	0.152894	0.116678
546	2.767999	0.005000	9.490782	-0.863280	-0.005298	-0.454261	-0.077877	0.144471	0.115004	0.145758	0.123026
547	2.772999	0.005000	9.456840	-0.902520	-0.111399	-0.454924	-0.078208	0.143112	0.101267	0.152530	0.103113
548	2.777999	0.005000	9.449497	-0.941760	-0.188857	-0.455588	-0.078540	0.141754	0.111499	0.147105	0.109628
549	2.782999	0.005000	9.487715	-1.034384	-0.257949	-0.456252	-0.078872	0.140395	0.117897	0.143127	0.108798
550	2.787999	0.005000	9.438064	-1.216440	-0.155271	-0.456915	-0.079204	0.139037	0.127743	0.137967	0.098474
551	2.792999	0.005000	9.436980	-1.275060	0.009450	-0.457579	-0.079536	0.137678	0.148569	0.139406	0.092905
552	2.797999	0.005000	9.422170	-1.216440	0.252775	-0.458242	-0.079868	0.136319	0.155785	0.133446	0.086396
553	2.802999	0.005000	9.496080	-1.149935	0.341185	-0.458906	-0.080199	0.134961	0.191878	0.123438	0.091632
554	2.807999	0.005000	9.509077	-1.190445	0.392400	-0.459569	-0.080531	0.133602	0.208440	0.118649	0.073018
555	2.812999	0.005000	9.574560	-1.034260	0.417620	-0.458192	-0.079709	0.130954	0.214331	0.099961	0.064401
556	2.817999	0.005000	9.637998	-0.956802	0.344005	-0.456310	-0.078602	0.127988	0.229211	0.100459	0.072425
557	2.822999	0.005000	9.636975	-0.872234	0.267569	-0.454428	-0.077496	0.125021	0.230078	0.103391	0.059904
558	2.827999	0.005000	9.630887	-0.689233	0.419619	-0.452546	-0.076389	0.122054	0.259049	0.099075	0.057063
559	2.832999	0.005000	9.566597	-0.667080	0.327568	-0.450665	-0.075282	0.119087	0.298409	0.102678	0.048271
560	2.837999	0.005000	9.496080	-0.604550	0.353160	-0.448783	-0.074175	0.116121	0.336434	0.099454	0.045416
561	2.842999	0.005000	9.418452	-0.606942	0.176154	-0.446901	-0.073068	0.113154	0.362884	0.099994	0.041250
562	2.847999	0.005000	9.361722	-0.608816	0.001193	-0.445019	-0.071961	0.110187	0.386558	0.095510	0.020910
563	2.852999	0.005000	9.203399	-0.706320	-0.138959	-0.443137	-0.070854	0.107220	0.423847	0.094804	0.014804
564	2.857999	0.005000	9.120659	-0.801779	-0.156960	-0.441255	-0.069747	0.104254	0.460321	0.101157	0.006049
565	2.862999	0.005000	9.119636	-0.839996	-0.235440	-0.439373	-0.068640	0.101287	0.520692	0.103741	0.001831
566	2.867999	0.005000	9.221400	-1.025801	-0.093414	-0.437491	-0.067533	0.098320	0.526918	0.101890	-0.013328
567	2.872999	0.005000	9.350537	-1.193606	-0.115226	-0.435610	-0.066426	0.095353	0.530809	0.106716	-0.014475
568	2.877999	0.005000	9.404138	-1.438991	-0.117147	-0.434363	-0.065884	0.093215	0.535011	0.112430	-0.014464
569	2.882999	0.005000	9.405734	-1.632573	-0.093987	-0.434474	-0.066547	0.092845	0.499197	0.114981	-0.028103
570	2.887999	0.005000	9.478528	-1.637236	-0.117720	-0.434584	-0.067210	0.092474	0.487779	0.108737	-0.031155
571	2.892999	0.005000	9.515433	-1.697263	-0.156960	-0.434695	-0.067873	0.092104	0.441304	0.107198	-0.035699
572	2.897999	0.005000	9.475399	-1.814319	-0.216881	-0.434806	-0.068537	0.091733	0.420562	0.100571	-0.037849
573	2.902999	0.005000	9.496080	-1.782314	-0.125977	-0.434916	-0.069200	0.091363	0.396802	0.096457	-0.033271
574	2.907999	0.005000	9.485778	-1.751331	-0.064011	-0.435027	-0.069863	0.090993	0.359983	0.098777	-0.039270
575	2.912999	0.005000	9.496080	-1.681108	-0.072268	-0.435137	-0.070527	0.090622	0.318343	0.106895	-0.040382
576	2.917999	0.005000	9.496080	-1.504412	-0.049619	-0.435248	-0.071190	0.090252	0.258362	0.112940	-0.044041
577	2.922999	0.005000	9.531137	-1.369217	-0.200383	-0.435359	-0.071853	0.089882	0.229461	0.113830	-0.046474
578	2.927999	0.005000	9.532640	-1.286880	-0.235440	-0.435469	-0.072516	0.089511	0.176647	0.117879	-0.042010
579	2.932999	0.005000	9.463470	-1.057822	-0.112747	-0.435580	-0.073180	0.089141	0.139924	0.110537	-0.039909
580	2.937999	0.005000	9.613800	-0.941760	0.077365	-0.435690	-0.073843	0.088771	0.137407	0.099726	-0.040887
581	2.942999	0.005000	9.613521	-0.824040	0.000000	-0.435801	-0.074506	0.088400	0.112419	0.102415	-0.028500
582	2.947999	0.005000	9.457769	-0.785729	-0.076621	-0.435911	-0.074174	0.088333	0.104999	0.098377	-0.029947
583	2.952999	0.005000	9.649136	-0.514024	-0.041192	-0.436022	-0.073621	0.088333	0.047074	0.099731	-0.026463
584	2.957999	0.005000	9.544243	-0.510120	0.102848	-0.436133	-0.073068	0.088333	0.044633	0.099547	-0.018162
585	2.962999	0.005000	9.547310	-0.435637	0.188206	-0.436243	-0.072515	0.088333	0.060678	0.102104	-0.005704
586	2.967999	0.005000	9.422619	-0.431640	0.049278	-0.436354	-0.071961	0.088333	0.033070	0.109698	-0.006238
587	2.972999	0.005000	9.483997	-0.549360	-0.066397	-0.436465	-0.071408	0.088333	0.002196	0.105094	-0.000344
588	2.977999	0.005000	9.449776	-0.438704	0.032176	-0.436575	-0.070855	0.088333	-0.051955	0.111487	0.008299
589	2.982999	0.005000	9.496080	-0.361247	0.171940	-0.436686	-0.070302	0.088333	-0.061217	0.103873	0.016324
590	2.987999	0.005000	9.475027	-0.413453	0.235440	-0.436796	-0.069748	0.088333	-0.053886	0.110080	0.026383
591	2.992999	0.005000	9.417600	-0.451346	0.176666	-0.436907	-0.069195	0.088333	-0.082949	0.112445	0.024059
592	2.997999	0.005000	9.456840	-0.392400	0.196200	-0.437018	-0.068642	0.088333	-0.110097	0.109650	0.035971
593	3.002999	0.005000	9.523624	-0.325616	0.196200	-0.437128	-0.068088	0.088333	-0.144461	0.114100	0.031913
594	3.007999	0.005000	9.548039	-0.326639	0.221637	-0.437239	-0.067535	0.088333	-0.132388	0.099005	0.050088
595	3.012999	0.005000	9.600069	-0.327651	0.172644	-0.437240	-0.067273	0.088414	-0.102247	0.100107	0.048372
596	3.017999	0.005000	9.525576	-0.328668	0.220692	-0.437019	-0.067605	0.088662	-0.134800	0.106531	0.062405
597	3.022999	0.005000	9.496080	-0.227741	0.266609	-0.436798	-0.067937	0.088909	-0.127884	0.102725	0.070676
598	3.027999	0.005000	9.597007	-0.151306	0.297127	-0.436576	-0.068269	0.089156	-0.097587	0.095538	0.083375
599	3.032999	0.005000	9.631615	-0.099905	0.474490	-0.436355	-0.068601	0.089403	-0.061722	0.084326	0.099334
600	3.037999	0.005000	9.613800	0.001565	0.431640	-0.436134	-0.068933	0.089650	-0.073529	0.096546	0.108090
601	3.042999	0.005000	9.653520	0.000480	0.353160	-0.435912	-0.069265	0.089897	-0.073168	0.093377	0.110041
602	3.047999	0.005000	9.553677	-0.039240	0.429115	-0.435691	-0.069597	0.090145	-0.087287	0.086025	0.113747
603	3.052999	0.005000	9.444075	-0.039240	0.488215	-0.435470	-0.069929	0.090392	-0.073031	0.076076	0.119737
604	3.057999	0.005000	9.306495	-0.062167	0.510120	-0.435248	-0.070261	0.090639	-0.020711	0.071914	0.138088
605	3.062999	0.005000	9.323540	-0.094060	0.518201	-0.435027	-0.070593	0.090886	0.007390	0.074199	0.144938
606	3.067999	0.005000	9.329019	-0.210770	0.402501	-0.434806	-0.070925	0.091133	0.034557	0.065405	0.150800
607	3.072999	0.005000	9.456840	-0.366885	0.376738	-0.434585	-0.071257	0.091380	0.032207	0.065323	0.147770
608	3.077999	0.005000	9.508783	-0.261977	0.378566	-0.434363	-0.071589	0.091628	0.039578	0.069693	0.149777
609	3.082999	0.005000	9.586241	-0.364841	0.459199	-0.434142	-0.071084	0.091563	0.080978	0.061567	0.154374
610	3.087999	0.005000	9.585218	-0.460222	0.520778	-0.433921	-0.070420	0.091440	0.085424	0.057578	0.149868
611	3.092999	0.005000	9.712249	-0.411671	0.519756	-0.433699	-0.069756	0.091316	0.096592	0.042641	0.165460
612	3.097999	0.005000	9.583173	-0.510120	0.566587	-0.433478	-0.069092	0.091192	0.070745	0.056301	0.171638
613	3.102999	0.005000	9.574560	-0.463289	0.494938	-0.433257	-0.068428	0.091069	0.054510	0.055893	0.172679
614	3.107999	0.005000	9.561392	-0.562528	0.431640	-0.433036	-0.067765	0.090945	0.044824	0.045004	0.191440
615	3.112999	0.005000	9.508132	-0.627840	0.262628	-0.432814	-0.067101	0.090822	0.012972	0.049012	0.197465
616	3.117999	0.005000	9.549100	-0.544767	0.147773	-0.432593	-0.066437	0.090698	0.005542	0.055719	0.222710
617	3.122999	0.005000	9.562616	-0.549360	0.066536	-0.432372	-0.065773	0.090574	-0.014800	0.063090	0.231081
618	3.127999	0.005000	9.535320	-0.467921	-0.081439	-0.432150	-0.065109	0.090451	-0.018341	0.053522	0.225000
619	3.132999	0.005000	9.492206	-0.433577	-0.156960	-0.431929	-0.064445	0.090327	-0.043151	0.059553	0.241176
620	3.137999	0.005000	9.379289	-0.547501	-0.160678	-0.431708	-0.063781	0.090204	-0.048511	0.059678	0.234844
621	3.142999	0.005000	9.417600	-0.549174	-0.196479	-0.431486	-0.063117	0.090080	-0.014457	0.059373	0.237784
622	3.147999	0.005000	9.303226	-0.626725	-0.312805	-0.431304	-0.062765	0.090217	0.021255	0.059672	0.242991
623	3.152999	0.005000	9.299880	-0.859004	-0.348884	-0.431193	-0.062986	0.090835	0.038720	0.059912	0.226295
624	3.157999	0.005000	9.266961	-0.977840	-0.281001	-0.431083	-0.063207	0.091453	0.040721	0.059549	0.214464
625	3.162999	0.005000	9.417600	-1.098720	-0.099394	-0.430972	-0.063429	0.092071	0.082854	0.054696	0.204067
626	3.167999	0.005000	9.446430	-1.015035	0.146550	-0.430862	-0.063650	0.092688	0.129418	0.043570	0.208549
627	3.172999	0.005000	9.430055	-0.908748	0.123948	-0.430751	-0.063871	0.093306	0.118945	0.043898	0.223407
628	3.177999	0.005000	9.481580	-1.123460	0.117720	-0.430640	-0.064093	0.093924	0.082163	0.054640	0.234015
629	3.182999	0.005000	9.535320	-1.239135	-0.053663	-0.430530	-0.064314	0.094542	0.048933	0.071701	0.234892
630	3.187999	0.005000	9.367005	-1.264975	-0.108425	-0.430419	-0.064535	0.095160	0.011769	0.078640	0.233279
631	3.192999	0.005000	9.289563	-1.109037	-0.020635	-0.430309	-0.064757	0.095777	-0.029038	0.091626	0.247698
632	3.197999	0.005000	9.445511	-1.087391	-0.011329	-0.430198	-0.064978	0.096395	-0.022321	0.087482	0.242225
633	3.202999	0.005000	9.366336	-1.083529	-0.054431	-0.430087	-0.065199	0.097013	-0.003326	0.080643	0.245493
634	3.207999	0.005000	9.496080	-1.033144	-0.091911	-0.429977	-0.065420	0.097631	-0.019379	0.093772	0.249429
635	3.212999	0.005000	9.459381	-1.070866	-0.283526	-0.429866	-0.065642	0.098248	-0.044510	0.096960	0.245264
636	3.217999	0.005000	9.378360	-0.932419	-0.259731	-0.429469	-0.064908	0.097800	-0.041838	0.094584	0.252586
637	3.222999	0.005000	9.480108	-1.011565	-0.228143	-0.429026	-0.064023	0.097182	0.000655	0.095960	0.247036
638	3.227999	0.005000	9.339120	-1.182483	-0.252419	-0.428584	-0.063138	0.096564	0.054103	0.087776	0.246560
639	3.232999	0.005000	9.303118	-1.312921	-0.271442	-0.428141	-0.062252	0.095947	0.046739	0.099640	0.243549
640	3.237999	0.005000	9.318904	-1.353184	-0.134358	-0.427699	-0.061367	0.095329	0.012011	0.096849	0.238059
641	3.242999	0.005000	9.358314	-1.490268	0.116016	-0.427256	-0.060482	0.094711	-0.015566	0.101710	0.242210
642	3.247999	0.005000	9.453943	-1.548532	0.235440	-0.426814	-0.059597	0.094093	-0.016296	0.101029	0.235231
643	3.252999	0.005000	9.535320	-1.608840	0.291829	-0.426371	-0.058711	0.093475	-0.023227	0.087531	0.221556
644	3.257999	0.005000	9.479953	-1.592713	0.297793	-0.425928	-0.057826	0.092858	-0.068967	0.087859	0.214899
645	3.262999	0.005000	9.441256	-1.506704	0.337018	-0.425486	-0.056941	0.092240	-0.081946	0.081245	0.223863
646	3.267999	0.005000	9.339120	-1.501236	0.456318	-0.425043	-0.056055	0.091622	-0.110817	0.078495	0.218388
647	3.272999	0.005000	9.404060	-1.412640	0.470880	-0.424601	-0.055170	0.091004	-0.111072	0.082018	0.219191
648	3.277999	0.005000	9.444323	-1.451880	0.483397	-0.424158	-0.054285	0.090387	-0.098935	0.079343	0.230027
649	3.282999	0.005000	9.327625	-1.412640	0.447891	-0.423798	-0.053565	0.089861	-0.098565	0.081403	0.223775
650	3.287999	0.005000	9.456840	-1.284448	0.402872	-0.423577	-0.053123	0.089491	-0.074451	0.081922	0.231315
651	3.292999	0.005000	9.447390	-1.246230	0.491220	-0.423356	-0.052680	0.089120	-0.053041	0.085111	0.229489
652	3.297999	0.005000	9.479225	-1.247253	0.431640	-0.423134	-0.052238	0.088749	-0.039885	0.076805	0.236345
653	3.302999	0.005000	9.393170	-1.248275	0.360565	-0.422913	-0.051795	0.088379	-0.062361	0.079108	0.233655
654	3.307999	0.005000	9.431310	-1.203675	0.425257	-0.422692	-0.051352	0.088008	-0.070725	0.081535	0.211462
655	3.312999	0.005000	9.294520	-1.221800	0.353160	-0.422470	-0.050910	0.087637	-0.035863	0.069679	0.215994
656	3.317999	0.005000	9.256249	-1.329769	0.427249	-0.422249	-0.050467	0.087267	-0.001347	0.065177	0.210077
657	3.322999	0.005000	9.256845	-1.298715	0.439231	-0.422028	-0.050025	0.086896	0.051375	0.053400	0.209883
658	3.327999	0.005000	9.257867	-1.342479	0.434413	-0.421807	-0.049582	0.086525	0.068286	0.060367	0.191265
659	3.332999	0.005000	9.224901	-1.648080	0.394151	-0.421585	-0.049139	0.086155	0.074698	0.063574	0.187187
660	3.337999	0.005000	9.302064	-1.724376	0.392400	-0.421364	-0.048697	0.085784	0.061474	0.071777	0.186183
661	3.342999	0.005000	9.417600	-1.647786	0.470291	-0.421143	-0.048254	0.085413	0.044973	0.065437	0.168471
662	3.347999	0.005000	9.492175	-1.725258	0.430338	-0.420921	-0.047812	0.085042	0.065171	0.061348	0.181486
663	3.352999	0.005000	9.456840	-1.726560	0.433964	-0.420602	-0.047663	0.085438	0.028590	0.079788	0.188631
664	3.357999	0.005000	9.427638	-1.762454	0.327305	-0.420270	-0.047552	0.085932	-0.051322	0.072735	0.181215
665	3.362999	0.005000	9.373991	-1.569600	-0.056637	-0.419938	-0.047442	0.086426	-0.117595	0.077275	0.181808
666	3.367999	0.005000	9.329267	-1.648080	-0.078480	-0.419606	-0.047331	0.086920	-0.161765	0.081326	0.172529
667	3.372999	0.005000	9.305829	-1.530360	-0.184303	-0.419274	-0.047221	0.087415	-0.179259	0.081262	0.184404
668	3.377999	0.005000	9.378360	-1.484162	-0.371525	-0.418942	-0.047110	0.087909	-0.180167	0.077482	0.185409
669	3.382999	0.005000	9.409622	-1.467836	-0.423662	-0.418610	-0.046999	0.088403	-0.177656	0.075633	0.202769
670	3.387999	0.005000	9.360359	-1.430641	-0.449641	-0.418278	-0.046889	0.088897	-0.198084	0.089678	0.216346
671	3.392999	0.005000	9.270663	-1.383423	-0.539337	-0.417946	-0.046778	0.089392	-0.187317	0.095731	0.203200
672	3.397999	0.005000	9.266744	-1.345205	-0.538315	-0.417614	-0.046668	0.089886	-0.189378	0.094544	0.201943
673	3.402999	0.005000	9.299880	-1.349264	-0.389364	-0.417282	-0.046557	0.090380	-0.167845	0.109243	0.208950
674	3.407999	0.005000	9.443750	-1.412640	-0.274680	-0.416950	-0.046446	0.090875	-0.113703	0.094159	0.209251
675	3.412999	0.005000	9.263738	-1.477007	-0.182087	-0.416618	-0.046336	0.091369	-0.070604	0.100716	0.198303
676	3.417999	0.005000	9.260640	-1.530360	-0.172095	-0.416374	-0.046181	0.091667	-0.061423	0.107625	0.193714
677	3.422999	0.005000	9.244482	-1.562675	-0.196200	-0.416263	-0.045960	0.091667	-0.068428	0.110032	0.188844
678	3.427999	0.005000	9.282700	-1.478820	-0.061300	-0.416153	-0.045739	0.091667	-0.038078	0.112454	0.180790
679	3.432999	0.005000	9.360157	-1.569600	0.021037	-0.416042	-0.045517	0.091667	0.007280	0.097485	0.186938
680	3.437999	0.005000	9.378360	-1.568810	0.255455	-0.415931	-0.045296	0.091667	0.027120	0.104301	0.178861
681	3.442999	0.005000	9.280872	-1.492344	0.412632	-0.415821	-0.045075	0.091667	0.051836	0.102370	0.191244
682	3.447999	0.005000	9.317866	-1.569600	0.292666	-0.415710	-0.044853	0.091667	0.046350	0.103249	0.185366
683	3.452999	0.005000	9.439877	-1.586563	0.291643	-0.415599	-0.044632	0.091667	0.041586	0.106079	0.175624
684	3.457999	0.005000	9.378360	-1.475179	0.369101	-0.415489	-0.044411	0.091667	0.056554	0.099097	0.182812
685	3.462999	0.005000	9.417600	-1.520957	0.416722	-0.415378	-0.044190	0.091667	0.064701	0.097399	0.181563
686	3.467999	0.005000	9.389808	-1.597392	0.364608	-0.415267	-0.043968	0.091667	0.095958	0.093578	0.189874
687	3.472999	0.005000	9.325766	-1.582133	0.222086	-0.415157	-0.043747	0.091667	0.080252	0.099415	0.183420
688	3.477999	0.005000	9.363782	-1.555022	0.299342	-0.415046	-0.043526	0.091667	0.060170	0.103332	0.172714
689	3.482999	0.005000	9.434222	-1.648080	0.364469	-0.414935	-0.043304	0.091667	0.043612	0.107519	0.172363
690	3.487999	0.005000	9.425981	-1.697606	0.363446	-0.415829	-0.043686	0.093125	0.031870	0.100000	0.163015
691	3.492999	0.005000	9.415416	-1.756536	0.401664	-0.416824	-0.044128	0.094730	0.060331	0.089430	0.171189
692	3.497999	0.005000	9.401117	-1.774041	0.532877	-0.417820	-0.044570	0.096336	0.045687	0.088369	0.187183
693	3.502999	0.005000	9.314318	-1.844280	0.385181	-0.418815	-0.045013	0.097941	0.038601	0.085244	0.183091
694	3.507999	0.005000	9.384557	-1.741014	0.398597	-0.419810	-0.045455	0.099547	-0.000512	0.093275	0.173322
695	3.512999	0.005000	9.417600	-1.637732	0.496751	-0.420806	-0.045898	0.101152	-0.009079	0.085063	0.175360
696	3.517999	0.005000	9.405145	-1.573752	0.658777	-0.421801	-0.046340	0.102758	0.030560	0.075086	0.184926
697	3.522999	0.005000	9.296751	-1.654339	0.579212	-0.422797	-0.046782	0.104363	0.033326	0.081432	0.181786
698	3.527999	0.005000	9.258533	-1.800826	0.348946	-0.423792	-0.047225	0.105969	0.009925	0.091412	0.185574
699	3.532999	0.005000	9.376160	-1.646980	0.277980	-0.424787	-0.047667	0.107574	-0.072367	0.106275	0.180460
700	3.537999	0.005000	9.456763	-1.608840	0.353160	-0.425783	-0.048110	0.109180	-0.069123	0.091781	0.157720
701	3.542999	0.005000	9.341010	-1.608840	0.391455	-0.426778	-0.048552	0.110785	-0.022998	0.073688	0.169100
702	3.547999	0.005000	9.372458	-1.644145	0.429673	-0.427774	-0.048994	0.112391	0.007985	0.067943	0.170026
703	3.552999	0.005000	9.265690	-1.729085	0.429115	-0.428221	-0.049300	0.113690	0.028649	0.056329	0.178886
704	3.557999	0.005000	9.257092	-1.879972	0.353160	-0.427889	-0.049410	0.114555	0.013826	0.065286	0.183428
705	3.562999	0.005000	9.308989	-1.848835	0.348605	-0.427557	-0.049521	0.115419	0.010724	0.062500	0.182649
706	3.567999	0.005000	9.344697	-1.692897	0.420486	-0.427226	-0.049631	0.116284	0.025215	0.063471	0.192390
707	3.572999	0.005000	9.339120	-1.739759	0.431640	-0.426894	-0.049742	0.117148	0.042299	0.074428	0.198022
708	3.577999	0.005000	9.229022	-1.758178	0.502498	-0.426562	-0.049852	0.118013	0.055867	0.066186	0.210549
709	3.582999	0.005000	9.251996	-1.656724	0.414351	-0.426230	-0.049963	0.118877	0.030589	0.072127	0.210873
710	3.587999	0.005000	9.221400	-1.648080	0.402067	-0.425899	-0.050074	0.119742	0.036063	0.066830	0.202472
711	3.592999	0.005000	9.308114	-1.648080	0.324255	-0.425567	-0.050184	0.120607	0.046024	0.066111	0.208997
712	3.597999	0.005000	9.260640	-1.580831	0.364391	-0.425235	-0.050295	0.121471	0.044443	0.061802	0.200828
713	3.602999	0.005000	9.115934	-1.648080	0.286934	-0.424903	-0.050405	0.122336	0.066790	0.063957	0.200344
714	3.607999	0.005000	9.103680	-1.726560	0.156960	-0.424572	-0.050516	0.123200	0.063223	0.055296	0.179827
715	3.612999	0.005000	9.164205	-1.894163	0.196200	-0.424240	-0.050626	0.124065	0.114796	0.059030	0.182901
716	3.617999	0.005000	9.299880	-1.907439	0.370356	-0.423908	-0.050737	0.124929	0.147754	0.052843	0.173301
717	3.622999	0.005000	9.362300	-2.031540	0.438760	-0.423068	-0.050136	0.122277	0.170926	0.043021	0.163505
718	3.627999	0.005000	9.316766	-2.079720	0.392400	-0.422183	-0.049473	0.119312	0.162568	0.029593	0.169583
719	3.632999	0.005000	9.299880	-2.079720	0.331828	-0.421298	-0.048809	0.116346	0.118879	0.037338	0.165889
720	3.637999	0.005000	9.358051	-2.079720	0.354539	-0.420412	-0.048145	0.113381	0.108663	0.047950	0.176765
721	3.642999	0.005000	9.339120	-2.060433	0.411021	-0.419527	-0.047481	0.110415	0.056678	0.050526	0.176089
722	3.647999	0.005000	9.318144	-2.121671	0.374136	-0.418642	-0.046817	0.107450	0.060507	0.041529	0.181427
723	3.652999	0.005000	9.334364	-2.084476	0.331162	-0.417757	-0.046153	0.104485	0.045471	0.043353	0.176413
724	3.657999	0.005000	9.332319	-2.017460	0.290900	-0.416871	-0.045489	0.101519	-0.000136	0.047428	0.173091
725	3.662999	0.005000	9.275837	-2.040480	0.283526	-0.415986	-0.044825	0.098554	-0.020596	0.038380	0.174389
726	3.667999	0.005000	9.171269	-2.054655	0.210375	-0.415101	-0.044161	0.095588	-0.020373	0.045173	0.163735
727	3.672999	0.005000	9.273249	-2.065699	0.222831	-0.414216	-0.043498	0.092623	-0.015180	0.043885	0.162081
728	3.677999	0.005000	9.248030	-2.053090	0.197610	-0.413330	-0.042834	0.089657	-0.000166	0.038971	0.156561
729	3.682999	0.005000	9.366772	-2.033369	0.129308	-0.412445	-0.042170	0.086692	0.016581	0.035172	0.161221
730	3.687999	0.005000	9.192725	-2.011805	0.117720	-0.411655	-0.041506	0.084947	0.040481	0.035937	0.175624
731	3.692999	0.005000	9.221400	-2.070177	0.264068	-0.410991	-0.040842	0.084823	0.011099	0.061167	0.164492
732	3.697999	0.005000	9.212880	-1.984199	0.400920	-0.410327	-0.040178	0.084700	0.023583	0.051473	0.171497
733	3.702999	0.005000	9.182160	-1.969498	0.448386	-0.409663	-0.039514	0.084576	0.061436	0.051050	0.175645
734	3.707999	0.005000	9.090729	-2.040480	0.281155	-0.408999	-0.038850	0.084453	0.076641	0.039468	0.168542
735	3.712999	0.005000	9.058971	-2.068783	0.151491	-0.408336	-0.038187	0.084329	0.066027	0.050958	0.177496
736	3.717999	0.005000	9.103680	-1.932582	0.235440	-0.407672	-0.037523	0.084205	0.068187	0.064532	0.170731
737	3.722999	0.005000	9.111457	-1.993463	0.360937	-0.407008	-0.036859	0.084082	0.129885	0.045807	0.167667
738	3.727999	0.005000	9.297014	-1.805040	0.431640	-0.406344	-0.036195	0.083958	0.165407	0.038358	0.165475
739	3.732999	0.005000	9.256953	-1.846123	0.547517	-0.405680	-0.035531	0.083835	0.173258	0.028942	0.168104
740	3.737999	0.005000	9.183802	-1.765800	0.548539	-0.405016	-0.034867	0.083711	0.174833	0.038517	0.175874
741	3.742999	0.005000	9.221586	-1.804854	0.471066	-0.404352	-0.034203	0.083588	0.185968	0.045232	0.178091
742	3.747999	0.005000	9.106097	-1.806248	0.354368	-0.403688	-0.033539	0.083464	0.187262	0.043138	0.183472
743	3.752999	0.005000	9.219169	-1.999009	0.318382	-0.403024	-0.032875	0.083340	0.169170	0.056079	0.173582
744	3.757999	0.005000	9.260640	-2.043733	0.039240	-0.402777	-0.032524	0.083449	0.167735	0.051775	0.169000
745	3.762999	0.005000	9.173609	-2.114684	0.082756	-0.402556	-0.032192	0.083573	0.142194	0.064874	0.174405
746	3.767999	0.005000	9.210804	-2.158200	0.190902	-0.402334	-0.031860	0.083696	0.139334	0.072310	0.166722
747	3.772999	0.005000	9.320158	-2.368358	0.156960	-0.402113	-0.031528	0.083820	0.134922	0.057187	0.171219
748	3.777999	0.005000	9.267588	-2.329056	0.228492	-0.401892	-0.031196	0.083944	0.105873	0.066224	0.177901
749	3.782999	0.005000	9.151184	-2.290367	0.055769	-0.401670	-0.030864	0.084067	0.077451	0.063065	0.177636
750	3.787999	0.005000	9.203585	-2.318770	0.026723	-0.401449	-0.030532	0.084191	0.032354	0.077308	0.174595
751	3.792999	0.005000	9.231330	-2.305710	0.019380	-0.401228	-0.030200	0.084314	0.007720	0.079834	0.179150
752	3.797999	0.005000	9.153872	-2.393640	-0.078480	-0.401006	-0.029868	0.084438	-0.010530	0.093375	0.183228
753	3.802999	0.005000	9.142920	-2.287895	0.051215	-0.400785	-0.029536	0.084561	-0.027295	0.092835	0.177366
754	3.807999	0.005000	9.182160	-2.262923	0.091725	-0.400564	-0.029204	0.084685	-0.005325	0.083089	0.181071
755	3.812999	0.005000	9.078460	-2.250700	0.156960	-0.400343	-0.028872	0.084809	-0.010552	0.085716	0.182482
756	3.817999	0.005000	9.118722	-2.182398	0.196200	-0.400121	-0.028540	0.084932	0.005687	0.084225	0.173468
757	3.822999	0.005000	9.094726	-2.252745	0.242551	-0.399900	-0.028258	0.084833	0.025971	0.083958	0.165916
758	3.827999	0.005000	9.204587	-2.175013	0.336347	-0.399679	-0.028037	0.084462	0.037376	0.079240	0.168706
759	3.832999	0.005000	9.174197	-2.062091	0.427659	-0.399458	-0.027816	0.084092	0.085120	0.064062	0.162331
760	3.837999	0.005000	9.045788	-2.139548	0.429704	-0.399236	-0.027594	0.083721	0.094684	0.066064	0.171447
761	3.842999	0.005000	9.084114	-2.236680	0.490337	-0.399015	-0.027373	0.083351	0.106988	0.068656	0.171240
762	3.847999	0.005000	9.180007	-2.139657	0.570057	-0.398794	-0.027152	0.082980	0.086430	0.079288	0.157851
763	3.852999	0.005000	9.186358	-2.044678	0.606121	-0.398573	-0.026931	0.082610	0.116182	0.082664	0.158372
764	3.857999	0.005000	9.182160	-2.056978	0.543117	-0.398352	-0.026710	0.082239	0.152846	0.090052	0.164750
765	3.862999	0.005000	9.120231	-2.158200	0.533878	-0.398130	-0.026488	0.081868	0.134131	0.090755	0.162774
766	3.867999	0.005000	9.211098	-2.129262	0.510120	-0.397909	-0.026267	0.081498	0.108689	0.085714	0.164062
767	3.872999	0.005000	9.352567	-2.078620	0.496673	-0.397688	-0.026046	0.081127	0.094318	0.096694	0.170725
768	3.877999	0.005000	9.299880	-2.077753	0.470880	-0.397467	-0.025825	0.080757	0.099302	0.089252	0.167275
769	3.882999	0.005000	9.327254	-2.028614	0.459014	-0.397246	-0.025604	0.080386	0.109907	0.079493	0.168787
770	3.887999	0.005000	9.299880	-2.022928	0.274680	-0.397025	-0.025383	0.080016	0.116984	0.087981	0.167737
771	3.892999	0.005000	9.231164	-2.177851	0.353160	-0.396697	-0.025267	0.079409	0.135988	0.076273	0.172640
772	3.897999	0.005000	9.164531	-2.197440	0.301124	-0.396365	-0.025156	0.078790	0.137254	0.078285	0.175433
773	3.902999	0.005000	9.095888	-2.307089	0.360952	-0.396033	-0.025046	0.078172	0.166394	0.073806	0.162502
774	3.907999	0.005000	9.103680	-2.577679	0.392400	-0.395701	-0.024935	0.077554	0.218019	0.065748	0.160399
775	3.912999	0.005000	9.002211	-2.696065	0.488122	-0.395369	-0.024824	0.076936	0.236246	0.063370	0.156396
776	3.917999	0.005000	8.932545	-2.830005	0.637290	-0.395036	-0.024714	0.076318	0.235760	0.055937	0.160059
777	3.922999	0.005000	8.961530	-2.907462	0.588600	-0.394704	-0.024603	0.075700	0.228636	0.064274	0.151914
778	3.927999	0.005000	9.182160	-2.906440	0.661720	-0.394372	-0.024492	0.075082	0.220639	0.058399	0.143373
779	3.932999	0.005000	9.177187	-2.862862	0.627840	-0.394040	-0.024382	0.074464	0.168823	0.066377	0.144846
780	3.937999	0.005000	9.142920	-2.865155	0.667715	-0.393708	-0.024271	0.073846	0.134867	0.065564	0.138019
781	3.942999	0.005000	9.104067	-2.864907	0.784025	-0.393376	-0.024160	0.073228	0.120392	0.063225	0.130378
782	3.947999	0.005000	9.182160	-2.864520	0.785729	-0.393044	-0.024050	0.072610	0.099370	0.049787	0.141391
783	3.952999	0.005000	9.297928	-2.711464	0.743608	-0.392712	-0.023939	0.071992	0.059025	0.046467	0.139844
784	3.957999	0.005000	9.182160	-2.560797	0.667080	-0.392589	-0.023933	0.071667	0.002644	0.043446	0.145326
785	3.962999	0.005000	9.177698	-2.481043	0.667080	-0.392700	-0.024044	0.071667	0.033286	0.032875	0.142977
786	3.967999	0.005000	9.226419	-2.535542	0.667080	-0.392811	-0.024155	0.071667	0.059964	0.029957	0.145026
787	3.972999	0.005000	9.182160	-2.595882	0.489005	-0.392921	-0.024265	0.071667	0.057152	0.024525	0.132791
788	3.977999	0.005000	9.142920	-2.557664	0.385336	-0.393032	-0.024376	0.071667	0.050397	0.007775	0.137973
789	3.982999	0.005000	9.002133	-2.416707	0.556254	-0.393143	-0.024486	0.071667	0.073281	0.013093	0.120642
790	3.987999	0.005000	9.103680	-2.511360	0.694361	-0.393253	-0.024597	0.071667	0.125346	0.014274	0.123424
791	3.992999	0.005000	9.142920	-2.482236	0.696204	-0.393364	-0.024707	0.071667	0.171658	0.012933	0.126119
792	3.997999	0.005000	9.171022	-2.606803	0.667080	-0.393475	-0.024818	0.071667	0.165314	0.018932	0.114946
793	4.002999	0.005000	9.155081	-2.574922	0.546603	-0.393585	-0.024928	0.071667	0.146637	0.013700	0.105053
794	4.007999	0.005000	9.156103	-2.537417	0.614657	-0.393696	-0.025039	0.071667	0.125785	0.004382	0.100309
795	4.012999	0.005000	9.078336	-2.587393	0.613944	-0.393806	-0.025150	0.071667	0.135470	-0.002749	0.102687
796	4.017999	0.005000	8.985960	-2.692812	0.470880	-0.393917	-0.025260	0.071667	0.130220	0.001800	0.098360
797	4.022999	0.005000	8.954419	-2.723330	0.470880	-0.394028	-0.025371	0.071667	0.115793	0.013737	0.092839
798	4.027999	0.005000	9.086887	-2.730007	0.470880	-0.393596	-0.024831	0.071667	0.113801	0.012557	0.087697
799	4.032999	0.005000	9.021590	-2.864520	0.388790	-0.393154	-0.024277	0.071667	0.094932	0.011909	0.066312
800	4.037999	0.005000	9.045602	-2.982240	0.274680	-0.392711	-0.023724	0.071667	0.079177	0.012758	0.076123
801	4.042999	0.005000	9.162300	-2.825760	0.294540	-0.392268	-0.023170	0.071667	0.031156	0.029406	0.074150
802	4.047999	0.005000	9.163803	-2.843637	0.355685	-0.391825	-0.022617	0.071667	0.007112	0.027271	0.074570
803	4.052999	0.005000	9.221400	-2.864520	0.147691	-0.391382	-0.022063	0.071667	-0.004678	0.032744	0.071335
804	4.057999	0.005000	9.148574	-2.903760	0.056033	-0.390940	-0.021510	0.071667	-0.040696	0.026374	0.066910
805	4.062999	0.005000	9.088390	-2.888470	0.054530	-0.390497	-0.020956	0.071667	-0.054888	0.029555	0.062883
806	4.067999	0.005000	8.985960	-2.786040	0.093228	-0.390054	-0.020403	0.071667	-0.087720	0.040122	0.067387
807	4.072999	0.005000	8.934931	-2.680109	0.025515	-0.389611	-0.019849	0.071667	-0.066112	0.041627	0.076802
808	4.077999	0.005000	9.050606	-2.498657	-0.038109	-0.389168	-0.019296	0.071667	-0.048772	0.049495	0.084299
809	4.082999	0.005000	9.103680	-2.358598	-0.078480	-0.388726	-0.018742	0.071667	-0.043945	0.058259	0.083672
810	4.087999	0.005000	9.025200	-2.315160	-0.078480	-0.388283	-0.018189	0.071667	-0.031958	0.058807	0.082110
811	4.092999	0.005000	8.956356	-2.354400	-0.157657	-0.388170	-0.017855	0.071606	-0.052825	0.066787	0.081636
812	4.097999	0.005000	9.025200	-2.393640	-0.022013	-0.388391	-0.017744	0.071482	-0.010246	0.070396	0.072730
813	4.102999	0.005000	9.025200	-2.378458	0.031649	-0.388613	-0.017634	0.071358	0.028001	0.072747	0.060719
814	4.107999	0.005000	8.985960	-2.373888	-0.091648	-0.388834	-0.017523	0.071235	0.088239	0.073231	0.056710
815	4.112999	0.005000	9.014077	-2.326283	0.016684	-0.389055	-0.017413	0.071111	0.117552	0.071413	0.053856
816	4.117999	0.005000	8.985960	-2.485737	0.092097	-0.389276	-0.017302	0.070988	0.114941	0.079786	0.036105
817	4.122999	0.005000	8.943203	-2.704043	0.203233	-0.389498	-0.017191	0.070864	0.142093	0.091196	0.038127
818	4.127999	0.005000	8.868240	-2.707560	0.360642	-0.389719	-0.017081	0.070741	0.142830	0.102639	0.028413
819	4.132999	0.005000	9.023710	-2.630570	0.434620	-0.389940	-0.016970	0.070617	0.167789	0.096584	0.023099
820	4.137999	0.005000	9.066299	-2.669249	0.468092	-0.390162	-0.016860	0.070493	0.153532	0.104197	0.027509
821	4.142999	0.005000	9.142920	-2.552865	0.353160	-0.390383	-0.016749	0.070370	0.118329	0.100856	0.022958
822	4.147999	0.005000	9.179929	-2.589840	0.392400	-0.390604	-0.016638	0.070246	0.085726	0.107153	0.023814
823	4.152999	0.005000	9.223538	-2.517773	0.359573	-0.390825	-0.016528	0.070123	0.077887	0.104957	0.018420
824	4.157999	0.005000	9.155561	-2.580359	0.392400	-0.391044	-0.016417	0.069999	0.095615	0.096277	0.024160
825	4.162999	0.005000	9.177977	-2.441245	0.361525	-0.390933	-0.016306	0.069875	0.093583	0.096336	0.030847
826	4.167999	0.005000	9.069645	-2.349195	0.353160	-0.390823	-0.016196	0.069752	0.093905	0.092431	0.034410
827	4.172999	0.005000	9.012745	-2.360628	0.287135	-0.390712	-0.016085	0.069628	0.083322	0.109600	0.042321
828	4.177999	0.005000	9.214546	-2.289627	0.189346	-0.390602	-0.015975	0.069505	0.049181	0.124618	0.041555
829	4.182999	0.005000	9.087817	-2.228888	0.392400	-0.390491	-0.015864	0.069381	0.056376	0.115127	0.048460
830	4.187999	0.005000	9.121309	-2.384825	0.331549	-0.390380	-0.015753	0.069258	0.081319	0.117072	0.039655
831	4.192999	0.005000	8.985960	-2.432772	0.313920	-0.390270	-0.015643	0.069134	0.085097	0.120411	0.042395
832	4.197999	0.005000	9.025200	-2.386979	0.399061	-0.390159	-0.015532	0.069011	0.076300	0.124065	0.030583
833	4.202999	0.005000	9.119156	-2.315160	0.458998	-0.390048	-0.015421	0.068887	0.084085	0.113757	0.042461
834	4.207999	0.005000	9.077018	-2.434386	0.404978	-0.389938	-0.015311	0.068764	0.114042	0.113926	0.040939
835	4.212999	0.005000	9.117127	-2.459773	0.391300	-0.389827	-0.015200	0.068640	0.097274	0.119310	0.037669
836	4.217999	0.005000	9.064440	-2.496891	0.495651	-0.389716	-0.015089	0.068517	0.088764	0.124762	0.049146
837	4.222999	0.005000	9.119172	-2.409132	0.533868	-0.389606	-0.014979	0.068393	0.084384	0.127336	0.046930
838	4.227999	0.005000	9.103680	-2.377126	0.667080	-0.389552	-0.015152	0.068460	0.104333	0.123222	0.044468
839	4.232999	0.005000	9.125384	-2.411176	0.741393	-0.389552	-0.015594	0.068707	0.109441	0.114001	0.070480
840	4.237999	0.005000	9.163601	-2.317282	0.727001	-0.389552	-0.016036	0.068954	0.080217	0.116667	0.068749
841	4.242999	0.005000	9.221400	-2.217021	0.784800	-0.389552	-0.016479	0.069201	0.050595	0.122075	0.081881
842	4.247999	0.005000	9.242004	-2.021844	0.764196	-0.389552	-0.016921	0.069448	0.010685	0.124661	0.082647
843	4.252999	0.005000	9.203786	-1.844280	0.784800	-0.389552	-0.017363	0.069694	0.023926	0.101793	0.076059
844	4.257999	0.005000	9.165088	-1.805040	0.689248	-0.389552	-0.017806	0.069941	0.051114	0.096600	0.087349
845	4.262999	0.005000	9.158969	-1.694462	0.588600	-0.389552	-0.018248	0.070188	0.064287	0.089451	0.101553
846	4.267999	0.005000	9.064440	-1.633053	0.603627	-0.389552	-0.018690	0.070435	0.087220	0.099073	0.105778
847	4.272999	0.005000	9.140147	-1.690093	0.602604	-0.389552	-0.019132	0.070682	0.094126	0.106150	0.091789
848	4.277999	0.005000	9.077422	-1.804746	0.653804	-0.389552	-0.019575	0.070929	0.139336	0.093768	0.090271
849	4.282999	0.005000	9.076399	-1.943317	0.615881	-0.389552	-0.020017	0.071176	0.175382	0.100366	0.100286
850	4.287999	0.005000	9.036152	-2.180105	0.750130	-0.389552	-0.020459	0.071423	0.205412	0.106763	0.094508
851	4.292999	0.005000	9.201540	-2.256540	0.883140	-0.389565	-0.020896	0.071672	0.230573	0.092488	0.103804
852	4.297999	0.005000	9.151828	-2.481028	0.981000	-0.390672	-0.020896	0.072042	0.247819	0.094016	0.098489
853	4.302999	0.005000	9.142920	-2.527130	1.232024	-0.391779	-0.020896	0.072413	0.254757	0.077822	0.111190
854	4.307999	0.005000	9.142920	-2.642970	1.059480	-0.392885	-0.020896	0.072784	0.217651	0.079020	0.112705
855	4.312999	0.005000	9.213685	-2.707560	1.098720	-0.393992	-0.020896	0.073154	0.176832	0.064048	0.107074
856	4.317999	0.005000	9.278688	-2.686368	1.177200	-0.395098	-0.020896	0.073525	0.180757	0.057435	0.116616
857	4.322999	0.005000	9.116507	-2.463569	1.111547	-0.396205	-0.020896	0.073896	0.159617	0.046768	0.114743
858	4.327999	0.005000	9.221400	-2.387134	1.206680	-0.397311	-0.020896	0.074266	0.137159	0.026776	0.121811
859	4.332999	0.005000	9.256178	-2.428418	1.018009	-0.398418	-0.020896	0.074637	0.099811	0.029740	0.131551
860	4.337999	0.005000	9.221400	-2.315160	1.054647	-0.399524	-0.020896	0.075008	0.109965	0.026011	0.116387
861	4.342999	0.005000	9.182160	-2.393640	0.941760	-0.400631	-0.020896	0.075378	0.113511	0.015467	0.134140
862	4.347999	0.005000	9.143757	-2.355237	0.980163	-0.401738	-0.020896	0.075749	0.128847	0.011489	0.130420
863	4.352999	0.005000	8.988752	-2.275920	0.905312	-0.402844	-0.020896	0.076120	0.153562	0.005218	0.129373
864	4.357999	0.005000	9.062039	-2.278321	0.865681	-0.403951	-0.020896	0.076490	0.144504	0.008547	0.132909
865	4.362999	0.005000	8.982536	-2.465273	0.709744	-0.403725	-0.020722	0.076279	0.127609	0.022358	0.129137
866	4.367999	0.005000	9.020754	-2.615742	0.627840	-0.402288	-0.020390	0.075538	0.100943	0.030853	0.134088
867	4.372999	0.005000	9.025200	-2.707560	0.627840	-0.400850	-0.020059	0.074797	0.096892	0.025365	0.131992
868	4.377999	0.005000	9.025200	-2.707560	0.634331	-0.399412	-0.019727	0.074056	0.114537	0.017104	0.138972
869	4.382999	0.005000	9.010173	-2.810253	0.674593	-0.397974	-0.019395	0.073315	0.125204	0.020377	0.142971
870	4.387999	0.005000	8.994016	-2.825280	0.667080	-0.396536	-0.019063	0.072574	0.140525	0.008718	0.142733
871	4.392999	0.005000	9.124764	-2.894682	0.528276	-0.395099	-0.018731	0.071833	0.111593	0.018884	0.129761
872	4.397999	0.005000	9.161959	-2.777101	0.568399	-0.393661	-0.018399	0.071092	0.089186	0.020721	0.130737
873	4.402999	0.005000	9.058569	-2.786040	0.510120	-0.392223	-0.018068	0.070351	0.087874	0.017390	0.130260
874	4.407999	0.005000	8.985960	-2.930855	0.483025	-0.390785	-0.017736	0.069610	0.051807	0.021928	0.121536
875	4.412999	0.005000	9.116848	-2.838448	0.418472	-0.389347	-0.017404	0.068869	0.046645	0.020720	0.130869
876	4.417999	0.005000	9.114540	-2.746800	0.392400	-0.387910	-0.017072	0.068128	0.042756	0.020615	0.117458
877	4.422999	0.005000	9.079653	-2.849307	0.470880	-0.386472	-0.016740	0.067387	0.056801	0.015923	0.116773
878	4.427999	0.005000	9.034665	-2.763035	0.510120	-0.385062	-0.016421	0.066639	0.046707	0.019847	0.119519
879	4.432999	0.005000	8.898030	-2.869245	0.382950	-0.384620	-0.016532	0.065651	0.052503	0.038213	0.100890
880	4.437999	0.005000	8.967688	-2.982240	0.269287	-0.384177	-0.016642	0.064663	0.065657	0.034866	0.093155
881	4.442999	0.005000	9.005247	-3.061386	0.097101	-0.383735	-0.016753	0.063675	0.045652	0.032239	0.086606
882	4.447999	0.005000	8.848395	-3.080565	0.156511	-0.383293	-0.016863	0.062686	0.068989	0.036638	0.074090
883	4.452999	0.005000	8.907480	-3.178440	0.350666	-0.382850	-0.016974	0.061698	0.097260	0.059667	0.064307
884	4.457999	0.005000	8.976882	-3.252381	0.522931	-0.382408	-0.017085	0.060710	0.141099	0.044566	0.056834
885	4.462999	0.005000	9.018616	-3.462864	0.539616	-0.381965	-0.017195	0.059722	0.177795	0.055961	0.055201
886	4.467999	0.005000	9.001281	-3.555519	0.431640	-0.381523	-0.017306	0.058734	0.113391	0.073642	0.032679
887	4.472999	0.005000	9.078739	-3.527944	0.474536	-0.381080	-0.017416	0.057746	0.086335	0.068791	0.038688
888	4.477999	0.005000	8.973272	-3.466396	0.588600	-0.380638	-0.017527	0.056758	0.103968	0.056580	0.033472
889	4.482999	0.005000	9.037454	-3.401626	0.564092	-0.380195	-0.017637	0.055770	0.131531	0.057558	0.021259
890	4.487999	0.005000	9.075671	-3.363409	0.431640	-0.379753	-0.017748	0.054782	0.093338	0.057586	0.032230
891	4.492999	0.005000	9.153251	-3.403549	0.441971	-0.379310	-0.017858	0.053794	0.069687	0.060191	0.016651
892	4.497999	0.005000	9.074107	-3.257493	0.392400	-0.379281	-0.017615	0.053399	0.076923	0.048011	0.023154
893	4.502999	0.005000	9.081729	-3.178440	0.379093	-0.379613	-0.017062	0.053522	0.039785	0.062684	0.006226
894	4.507999	0.005000	9.080815	-3.131578	0.392400	-0.379944	-0.016510	0.053646	0.044469	0.059130	0.018433
895	4.512999	0.005000	8.914079	-3.198238	0.431640	-0.380276	-0.015957	0.053769	0.068368	0.056588	0.006590
896	4.517999	0.005000	9.030777	-3.385794	0.207354	-0.380608	-0.015404	0.053893	0.072721	0.077015	0.005498
897	4.522999	0.005000	9.011536	-3.453120	0.288344	-0.380939	-0.014852	0.054016	0.063346	0.080585	-0.014579
898	4.527999	0.005000	8.953784	-3.449588	0.431640	-0.381271	-0.014299	0.054140	0.072398	0.082577	-0.018909
899	4.532999	0.005000	8.985960	-3.460649	0.429130	-0.381603	-0.013746	0.054263	0.101055	0.089351	-0.022624
900	4.537999	0.005000	9.067451	-3.530094	0.347138	-0.381934	-0.013193	0.054387	0.074633	0.098420	-0.036874
901	4.542999	0.005000	9.142920	-3.489525	0.232605	-0.382266	-0.012641	0.054510	0.043374	0.107264	-0.029456
902	4.547999	0.005000	9.064595	-3.374640	0.313533	-0.382598	-0.012088	0.054634	0.028142	0.099841	-0.027162
903	4.552999	0.005000	8.870440	-3.374640	0.353160	-0.382929	-0.011535	0.054757	0.016200	0.116529	-0.040083
904	4.557999	0.005000	8.909602	-3.374640	0.278925	-0.383261	-0.010983	0.054881	-0.008328	0.120271	-0.043709
905	4.562999	0.005000	8.985960	-3.374640	0.317065	-0.383575	-0.010459	0.055008	-0.037728	0.116487	-0.057979
906	4.567999	0.005000	8.985960	-3.374640	0.357327	-0.383354	-0.010791	0.055255	-0.039268	0.117992	-0.064673
907	4.572999	0.005000	8.951910	-3.340590	0.353160	-0.383132	-0.011122	0.055502	-0.056847	0.116508	-0.060094
908	4.577999	0.005000	9.052016	-3.112384	0.196200	-0.382911	-0.011454	0.055749	-0.119331	0.131252	-0.072927
909	4.582999	0.005000	9.025200	-3.021480	0.196200	-0.382690	-0.011786	0.055996	-0.142942	0.134924	-0.081060
910	4.587999	0.005000	9.064440	-3.116449	0.313920	-0.382469	-0.012118	0.056243	-0.132511	0.135690	-0.102765
911	4.592999	0.005000	9.124392	-3.021480	0.226176	-0.382248	-0.012449	0.056490	-0.118224	0.127128	-0.104545
912	4.597999	0.005000	9.074726	-2.914046	0.411067	-0.382026	-0.012781	0.056737	-0.109518	0.127695	-0.098076
913	4.602999	0.005000	9.193469	-2.903760	0.532056	-0.381805	-0.013113	0.056984	-0.098707	0.123815	-0.094315
914	4.607999	0.005000	9.209391	-2.810057	0.627840	-0.381584	-0.013445	0.057231	-0.092961	0.122997	-0.083158
915	4.612999	0.005000	9.286418	-2.537138	0.798262	-0.381363	-0.013776	0.057478	-0.114991	0.130258	-0.065276
916	4.617999	0.005000	9.325219	-2.396104	0.824040	-0.381142	-0.014108	0.057725	-0.099457	0.126775	-0.062733
917	4.622999	0.005000	9.314798	-2.148797	0.730642	-0.380920	-0.014440	0.057972	-0.074491	0.114294	-0.053838
918	4.627999	0.005000	9.253282	-1.963224	0.815458	-0.380699	-0.014772	0.058219	-0.060905	0.096526	-0.048135
919	4.632999	0.005000	9.238363	-1.861243	0.779486	-0.380894	-0.014984	0.058200	-0.076619	0.098958	-0.033901
920	4.637999	0.005000	9.160906	-1.841011	0.830577	-0.381447	-0.015095	0.057953	-0.019662	0.097929	-0.036326
921	4.642999	0.005000	9.023491	-1.903994	0.822331	-0.382000	-0.015206	0.057706	0.013119	0.110745	-0.023553
922	4.647999	0.005000	8.966278	-1.883520	0.765118	-0.382554	-0.015316	0.057459	0.031735	0.122110	-0.022411
923	4.652999	0.005000	8.905575	-1.920855	0.824040	-0.383107	-0.015427	0.057212	0.070950	0.126381	-0.025419
924	4.657999	0.005000	8.815306	-2.018885	0.959405	-0.383660	-0.015538	0.056965	0.099164	0.134898	-0.025859
925	4.662999	0.005000	8.789760	-2.246704	1.026637	-0.384213	-0.015648	0.056718	0.121942	0.139179	-0.026929
926	4.667999	0.005000	9.063960	-2.409240	0.910560	-0.384766	-0.015759	0.056471	0.126667	0.144329	-0.015107
927	4.672999	0.005000	9.157498	-2.594333	0.902520	-0.385319	-0.015870	0.056224	0.049919	0.136832	-0.025190
928	4.677999	0.005000	9.262065	-2.721115	1.139385	-0.385872	-0.015980	0.055977	0.036925	0.124286	-0.025131
929	4.682999	0.005000	9.351653	-2.770223	1.385933	-0.386425	-0.016091	0.055730	0.049085	0.104679	-0.011910
930	4.687999	0.005000	9.412891	-2.903760	1.502630	-0.386978	-0.016201	0.055483	0.059564	0.074416	-0.020622
931	4.692999	0.005000	9.474144	-2.842584	1.626144	-0.387531	-0.016312	0.055236	0.063413	0.043164	-0.016071
932	4.697999	0.005000	9.348523	-2.815334	1.676832	-0.388070	-0.016437	0.055000	0.033105	0.025326	-0.019318
933	4.702999	0.005000	9.269563	-2.846674	1.482197	-0.388291	-0.016879	0.055000	0.002625	0.010195	-0.018631
934	4.707999	0.005000	9.252739	-2.691759	1.538261	-0.388512	-0.017321	0.055000	-0.037935	-0.000479	-0.031348
935	4.712999	0.005000	9.207644	-2.458364	1.634324	-0.388733	-0.017764	0.055000	-0.006909	-0.027917	-0.039031
936	4.717999	0.005000	9.007633	-2.387784	1.614696	-0.388954	-0.018206	0.055000	0.026442	-0.033721	-0.033707
937	4.722999	0.005000	8.951553	-2.393640	1.495953	-0.389175	-0.018648	0.055000	0.028667	-0.031809	-0.037946
938	4.727999	0.005000	8.899858	-2.401262	1.420262	-0.389396	-0.019090	0.055000	0.030839	-0.030989	-0.036885
939	4.732999	0.005000	8.798125	-2.441245	1.454668	-0.389617	-0.019532	0.055000	0.026622	-0.028299	-0.035652
940	4.737999	0.005000	8.909247	-2.395407	1.301987	-0.389838	-0.019975	0.055000	0.040251	-0.014780	-0.042437
941	4.742999	0.005000	9.025959	-2.391363	1.297956	-0.390059	-0.020417	0.055000	0.038391	-0.014980	-0.040116
942	4.747999	0.005000	9.025200	-2.432477	1.372594	-0.390280	-0.020859	0.055000	0.050745	-0.016269	-0.047189
943	4.752999	0.005000	9.025200	-2.354400	1.101183	-0.390502	-0.021301	0.055000	0.051322	-0.025111	-0.035487
944	4.757999	0.005000	9.103680	-2.236680	0.943603	-0.390723	-0.021743	0.055000	0.042077	-0.030866	-0.042455
945	4.762999	0.005000	8.952452	-2.121826	0.754158	-0.390944	-0.022185	0.055000	0.067860	-0.049646	-0.039726
946	4.767999	0.005000	8.954497	-2.268143	0.749448	-0.390805	-0.022208	0.055067	0.065405	-0.040731	-0.040726
947	4.772999	0.005000	9.015409	-2.349505	0.711215	-0.390363	-0.021876	0.055191	0.098548	-0.054034	-0.046403
948	4.777999	0.005000	9.019282	-2.511360	0.718156	-0.389920	-0.021544	0.055314	0.127811	-0.057553	-0.040006
949	4.782999	0.005000	8.985960	-2.647499	0.763979	-0.389477	-0.021212	0.055438	0.182374	-0.055057	-0.039421
950	4.787999	0.005000	9.017702	-2.825280	0.911768	-0.389035	-0.020880	0.055561	0.220463	-0.061026	-0.025524
951	4.792999	0.005000	9.025200	-2.943000	0.941760	-0.388592	-0.020548	0.055685	0.193658	-0.053388	-0.016071
952	4.797999	0.005000	9.133377	-2.776497	0.932217	-0.388150	-0.020216	0.055808	0.181464	-0.061529	-0.018486
953	4.802999	0.005000	9.103680	-2.814730	1.059480	-0.387707	-0.019884	0.055932	0.144968	-0.049250	0.002153
954	4.807999	0.005000	9.193732	-2.880616	1.177200	-0.387264	-0.019552	0.056056	0.095495	-0.052429	-0.005824
955	4.812999	0.005000	9.169565	-2.784584	1.084669	-0.386822	-0.019220	0.056179	0.066231	-0.055835	0.003343
956	4.817999	0.005000	9.219789	-2.722788	1.006623	-0.386379	-0.018888	0.056303	0.017752	-0.064446	0.003873
957	4.822999	0.005000	9.206761	-2.540639	1.113359	-0.385937	-0.018556	0.056426	-0.014690	-0.081396	0.001255
958	4.827999	0.005000	9.166790	-2.526730	0.987869	-0.385494	-0.018224	0.056550	-0.046311	-0.089594	-0.005949
959	4.832999	0.005000	9.113052	-2.589840	0.863280	-0.385093	-0.017904	0.056713	-0.067325	-0.101686	-0.011433
960	4.837999	0.005000	8.985960	-2.607067	0.762787	-0.385424	-0.017794	0.057577	-0.077915	-0.112103	-0.006109
961	4.842999	0.005000	8.823516	-2.602605	0.766551	-0.385756	-0.017683	0.058442	-0.086700	-0.098783	-0.018823
962	4.847999	0.005000	8.829000	-2.649049	0.765529	-0.386088	-0.017572	0.059306	-0.076286	-0.104153	-0.026460
963	4.852999	0.005000	8.926426	-2.725158	0.802398	-0.386420	-0.017462	0.060171	-0.042187	-0.084701	-0.028252
964	4.857999	0.005000	8.829000	-2.864520	0.824040	-0.386751	-0.017351	0.061035	-0.006620	-0.078810	-0.040887
965	4.862999	0.005000	8.863221	-3.011443	0.740541	-0.387083	-0.017241	0.061900	-0.006709	-0.064273	-0.045523
966	4.867999	0.005000	9.018678	-3.021480	0.824040	-0.387415	-0.017130	0.062764	-0.012927	-0.046390	-0.060745
967	4.872999	0.005000	9.088343	-3.185210	0.854713	-0.387747	-0.017020	0.063629	0.028468	-0.038333	-0.060378
968	4.877999	0.005000	8.932406	-3.339102	0.809726	-0.388078	-0.016909	0.064493	0.017908	-0.034181	-0.071595
969	4.882999	0.005000	8.946720	-3.427331	0.653629	-0.388410	-0.016799	0.065358	-0.033841	-0.018376	-0.079588
970	4.887999	0.005000	8.984937	-3.531600	0.626817	-0.388742	-0.016688	0.066222	-0.082375	-0.005325	-0.068804
971	4.892999	0.005000	9.170433	-3.355245	0.757287	-0.389074	-0.016577	0.067087	-0.125014	-0.007935	-0.078804
972	4.897999	0.005000	9.221400	-3.224806	0.784800	-0.389405	-0.016467	0.067951	-0.130479	-0.013279	-0.068603
973	4.902999	0.005000	9.162284	-2.923636	0.745560	-0.389552	-0.016356	0.067919	-0.198603	-0.023176	-0.051311
974	4.907999	0.005000	9.251980	-2.563861	0.619180	-0.389552	-0.016246	0.067178	-0.272612	-0.030273	-0.037465
975	4.912999	0.005000	9.221400	-2.188068	0.351890	-0.389552	-0.016135	0.066436	-0.344381	-0.045618	-0.029327
976	4.917999	0.005000	9.193070	-1.723305	0.196200	-0.389552	-0.016024	0.065695	-0.383952	-0.056930	-0.010525
977	4.922999	0.005000	9.058367	-1.303797	0.184055	-0.389552	-0.015913	0.064954	-0.366357	-0.075296	0.002368
978	4.927999	0.005000	8.912530	-1.054430	-0.088580	-0.389552	-0.015803	0.064212	-0.334547	-0.096532	0.002009
979	4.932999	0.005000	8.973877	-1.024268	-0.243496	-0.389552	-0.015692	0.063471	-0.233496	-0.097370	0.006414
980	4.937999	0.005000	8.825995	-1.140965	-0.244456	-0.389552	-0.015581	0.062730	-0.176042	-0.091558	-0.015344
981	4.942999	0.005000	8.719212	-1.224372	-0.307971	-0.389552	-0.015471	0.061988	-0.053232	-0.086437	-0.021269
982	4.947999	0.005000	8.869200	-1.495922	-0.233519	-0.389552	-0.015360	0.061247	0.102794	-0.082706	-0.023572
983	4.952999	0.005000	8.907480	-1.804854	-0.039426	-0.389552	-0.015249	0.060506	0.210489	-0.079920	-0.042075
984	4.957999	0.005000	8.830084	-2.115707	0.234356	-0.389552	-0.015139	0.059764	0.276908	-0.066783	-0.029596
985	4.962999	0.005000	9.138706	-2.385213	0.390293	-0.389552	-0.015028	0.059023	0.274584	-0.041703	-0.047030
986	4.967999	0.005000	9.139791	-2.544341	0.353160	-0.389552	-0.014979	0.058402	0.284106	-0.039303	-0.047745
987	4.972999	0.005000	9.221400	-2.624928	0.510120	-0.389552	-0.015753	0.059390	0.250598	-0.036148	-0.040368
988	4.977999	0.005000	9.191548	-2.737412	0.445722	-0.389552	-0.016527	0.060378	0.193053	-0.039357	-0.038572
989	4.982999	0.005000	9.109396	-2.713276	0.358876	-0.389552	-0.017302	0.061366	0.141105	-0.029015	-0.027198
990	4.987999	0.005000	9.103680	-2.779301	0.392400	-0.389552	-0.018076	0.062354	0.085257	-0.015565	-0.031399
991	4.992999	0.005000	9.048918	-2.754561	0.431640	-0.389552	-0.018850	0.063342	0.043156	-0.011360	-0.032343
992	4.997999	0.005000	9.112464	-2.834064	0.479664	-0.389552	-0.019624	0.064330	0.030473	0.012848	-0.029106
993	5.002999	0.005000	9.231222	-2.727172	0.470880	-0.389552	-0.020398	0.065318	0.029285	0.002476	-0.030985
994	5.007999	0.005000	9.238983	-2.775211	0.363989	-0.389552	-0.021173	0.066306	0.000365	-0.001157	-0.015659
995	5.012999	0.005000	9.272476	-2.719396	0.251009	-0.389552	-0.021947	0.067294	-0.059570	0.005188	-0.018609
996	5.017999	0.005000	9.246483	-2.680862	0.299763	-0.389552	-0.022721	0.068282	-0.057214	0.013039	-0.006167
997	5.022999	0.005000	9.195576	-2.629080	0.157967	-0.389552	-0.023495	0.069271	-0.073872	0.027193	-0.007366
998	5.027999	0.005000	9.157358	-2.579476	0.270606	-0.389552	-0.024269	0.070259	-0.089655	0.022666	-0.002735
999	5.032999	0.005000	9.032342	-2.535139	0.242582	-0.389552	-0.025044	0.071247	-0.069929	0.020244	0.011571
1000	5.037999	0.005000	9.018908	-2.662028	0.189908	-0.390060	-0.025627	0.072590	-0.062652	0.015663	0.002272
1001	5.042999	0.005000	9.003450	-2.563830	0.139470	-0.390945	-0.026070	0.074195	-0.077333	0.022093	0.017962
1002	5.047999	0.005000	9.004472	-2.548385	0.101423	-0.391830	-0.026512	0.075801	-0.074559	0.026631	0.009650
1003	5.052999	0.005000	9.123385	-2.472120	0.098015	-0.392715	-0.026954	0.077406	-0.064959	0.016218	0.008308
1004	5.057999	0.005000	9.043883	-2.548726	0.059797	-0.393600	-0.027397	0.079012	-0.061353	0.038422	0.002968
1005	5.062999	0.005000	9.046780	-2.472120	0.096140	-0.394485	-0.027839	0.080617	-0.048798	0.038239	-0.005482
1006	5.067999	0.005000	9.019236	-2.377002	0.145032	-0.395370	-0.028282	0.082223	-0.035993	0.035028	0.002797
1007	5.072999	0.005000	9.126824	-2.338304	0.173056	-0.396254	-0.028724	0.083828	-0.027545	0.041725	-0.005136
1008	5.077999	0.005000	9.016106	-2.197440	0.211273	-0.397139	-0.029166	0.085434	0.006312	0.046551	0.005890
1009	5.082999	0.005000	8.921531	-2.197440	0.089618	-0.398024	-0.029609	0.087039	0.010643	0.057693	-0.007032
1010	5.087999	0.005000	8.985960	-2.275920	0.000310	-0.398909	-0.030051	0.088645	0.004621	0.070593	-0.011927
1011	5.092999	0.005000	9.064440	-2.236680	-0.081702	-0.399794	-0.030494	0.090250	0.005662	0.082241	-0.017896
1012	5.097999	0.005000	9.075423	-2.225697	-0.006290	-0.400679	-0.030936	0.091856	0.022397	0.094792	-0.017165
1013	5.102999	0.005000	9.113037	-2.236680	0.127681	-0.401511	-0.031308	0.093313	0.078565	0.087965	-0.018994
1014	5.107999	0.005000	9.092697	-2.313595	0.127139	-0.401732	-0.030865	0.093066	0.111150	0.088153	-0.018074
1015	5.112999	0.005000	9.112076	-2.472120	0.204596	-0.401953	-0.030423	0.092819	0.102111	0.095292	-0.022907
1016	5.117999	0.005000	9.103680	-2.557974	0.196200	-0.402174	-0.029981	0.092572	0.078437	0.105678	-0.017959
1017	5.122999	0.005000	9.090977	-2.589840	0.183497	-0.402395	-0.029538	0.092325	0.074363	0.114773	-0.031765
1018	5.127999	0.005000	9.019871	-2.684307	0.201529	-0.402617	-0.029096	0.092078	0.070987	0.103144	-0.025634
1019	5.132999	0.005000	8.994573	-2.746800	0.226827	-0.402838	-0.028653	0.091831	0.064656	0.115309	-0.023759
1020	5.137999	0.005000	8.985960	-2.831848	0.242008	-0.403059	-0.028211	0.091584	0.069175	0.131913	-0.015904
1021	5.142999	0.005000	9.105942	-2.827542	0.390138	-0.403280	-0.027769	0.091337	0.055686	0.136291	0.001095
1022	5.147999	0.005000	9.103680	-2.824025	0.353160	-0.403501	-0.027326	0.091090	0.034254	0.136327	-0.009341
1023	5.152999	0.005000	9.142223	-2.786040	0.353160	-0.403723	-0.026884	0.090843	0.005880	0.144247	-0.003971
1024	5.157999	0.005000	9.064765	-2.669296	0.430989	-0.403944	-0.026441	0.090596	-0.032454	0.154048	-0.008332
1025	5.162999	0.005000	9.182160	-2.703517	0.391052	-0.404165	-0.025999	0.090349	-0.055207	0.140290	0.005997
1026	5.167999	0.005000	9.255900	-2.513730	0.424529	-0.404386	-0.025557	0.090102	-0.064826	0.135687	-0.001945
1027	5.172999	0.005000	9.218007	-2.553993	0.464095	-0.403895	-0.025244	0.088627	-0.071056	0.134737	-0.002643
1028	5.177999	0.005000	9.068855	-2.363230	0.396815	-0.402900	-0.025022	0.086279	-0.058883	0.136223	0.003376
1029	5.182999	0.005000	9.132045	-2.281358	0.392400	-0.401904	-0.024801	0.083931	-0.063303	0.138291	-0.013369
1030	5.187999	0.005000	8.894080	-2.308700	0.373020	-0.400908	-0.024580	0.081584	-0.049276	0.136585	-0.006045
1031	5.192999	0.005000	8.971026	-2.315160	0.463413	-0.399912	-0.024358	0.079236	-0.034216	0.138333	-0.008696
1032	5.197999	0.005000	9.103680	-2.284409	0.518609	-0.398916	-0.024137	0.076888	0.007756	0.142219	-0.005293
1033	5.202999	0.005000	8.955875	-2.396258	0.491809	-0.397920	-0.023916	0.074541	0.017536	0.147345	-0.000263
1034	5.207999	0.005000	8.926581	-2.472120	0.588600	-0.396924	-0.023694	0.072193	0.042410	0.157835	-0.011860
1035	5.212999	0.005000	9.053348	-2.421788	0.588600	-0.395929	-0.023473	0.069845	0.045003	0.161201	-0.007315
1036	5.217999	0.005000	9.221400	-2.487131	0.642851	-0.394933	-0.023252	0.067498	0.036828	0.163930	-0.007502
1037	5.222999	0.005000	9.156041	-2.420007	0.627840	-0.393937	-0.023031	0.065150	0.046813	0.163842	-0.014485
1038	5.227999	0.005000	9.142920	-2.393640	0.742369	-0.392941	-0.022809	0.062802	0.050702	0.154313	-0.006160
1039	5.232999	0.005000	9.173252	-2.282179	0.603766	-0.391945	-0.022588	0.060455	0.036968	0.146123	-0.002516
1040	5.237999	0.005000	9.096817	-2.275920	0.556223	-0.391088	-0.022388	0.058392	0.016448	0.148736	-0.004853
1041	5.242999	0.005000	9.103680	-2.315160	0.684291	-0.391530	-0.022388	0.059010	-0.013577	0.154494	-0.005845
1042	5.247999	0.005000	9.085446	-2.396413	0.588600	-0.391973	-0.022388	0.059628	-0.005493	0.159871	-0.008487
1043	5.252999	0.005000	9.084424	-2.412896	0.608584	-0.392415	-0.022388	0.060246	-0.010749	0.159634	-0.012354
1044	5.257999	0.005000	9.083402	-2.354400	0.629157	-0.392858	-0.022388	0.060864	0.016639	0.145131	-0.011190
1045	5.262999	0.005000	9.007003	-2.333357	0.627840	-0.393301	-0.022388	0.061482	0.038170	0.142670	0.012165
1046	5.267999	0.005000	8.985960	-2.315160	0.605997	-0.393743	-0.022388	0.062100	0.017069	0.150794	0.004577
1047	5.272999	0.005000	9.096229	-2.299266	0.588600	-0.394186	-0.022388	0.062717	0.019376	0.147080	0.003628
1048	5.277999	0.005000	9.206528	-2.349024	0.736064	-0.394628	-0.022388	0.063335	0.021269	0.143292	-0.002406
1049	5.282999	0.005000	9.182160	-2.289785	0.745560	-0.395071	-0.022388	0.063953	0.059481	0.142511	0.008386
1050	5.287999	0.005000	9.077436	-2.393640	0.693073	-0.395513	-0.022388	0.064571	0.063673	0.142637	0.008702
1051	5.292999	0.005000	9.142920	-2.422981	0.720990	-0.395956	-0.022388	0.065189	0.041068	0.144253	0.008084
1052	5.297999	0.005000	9.154182	-2.303898	0.706320	-0.396399	-0.022388	0.065807	0.037628	0.145150	0.004739
1053	5.302999	0.005000	9.153160	-2.403880	0.638080	-0.396841	-0.022388	0.066424	0.031510	0.139939	-0.004174
1054	5.307999	0.005000	9.062070	-2.502143	0.678668	-0.396679	-0.022321	0.066292	0.059463	0.132134	0.000044
1055	5.312999	0.005000	9.126499	-2.424669	0.644261	-0.396126	-0.022210	0.065674	0.055374	0.136844	-0.007158
1056	5.317999	0.005000	9.142920	-2.479308	0.659892	-0.395572	-0.022100	0.065056	0.049159	0.135527	-0.004766
1057	5.322999	0.005000	9.124423	-2.445211	0.640171	-0.395019	-0.021989	0.064438	0.057939	0.129131	-0.003525
1058	5.327999	0.005000	9.064440	-2.584697	0.661937	-0.394466	-0.021878	0.063820	0.051233	0.131352	-0.014106
1059	5.332999	0.005000	9.111921	-2.550600	0.710441	-0.393913	-0.021768	0.063202	0.063474	0.136255	-0.014950
1060	5.337999	0.005000	9.178597	-2.600529	0.738434	-0.393359	-0.021657	0.062585	0.050632	0.136801	-0.026722
1061	5.342999	0.005000	9.140364	-2.665764	0.669636	-0.392806	-0.021547	0.061967	0.056667	0.146159	-0.022351
1062	5.347999	0.005000	9.142920	-2.663719	0.670147	-0.392253	-0.021436	0.061349	0.054286	0.148166	-0.015506
1063	5.352999	0.005000	8.986982	-2.550089	0.668102	-0.391699	-0.021325	0.060731	0.046611	0.144614	-0.021071
1064	5.357999	0.005000	9.025711	-2.550089	0.784289	-0.391146	-0.021215	0.060113	0.060754	0.160304	-0.018401
1065	5.362999	0.005000	9.138319	-2.586773	0.668614	-0.390593	-0.021104	0.059495	0.032738	0.155522	-0.024514
1066	5.367999	0.005000	9.066996	-2.626524	0.630396	-0.390040	-0.020993	0.058878	0.030290	0.160601	-0.020686
1067	5.372999	0.005000	9.096523	-2.511360	0.624261	-0.389578	-0.020896	0.058274	0.034371	0.150865	-0.024418
1068	5.377999	0.005000	9.099079	-2.663719	0.563163	-0.389800	-0.020896	0.057780	0.040716	0.156529	-0.017474
1069	5.382999	0.005000	9.070063	-2.696313	0.622217	-0.390021	-0.020896	0.057286	0.056980	0.143791	-0.006821
1070	5.387999	0.005000	9.071086	-2.674966	0.764862	-0.390242	-0.020896	0.056792	0.020161	0.150378	-0.002209
1071	5.392999	0.005000	9.174972	-2.550600	0.809664	-0.390463	-0.020896	0.056298	0.024796	0.157909	-0.011155
1072	5.397999	0.005000	9.204979	-2.511360	0.902520	-0.390685	-0.020896	0.055803	0.022530	0.161253	-0.006692
1073	5.402999	0.005000	9.092139	-2.481353	0.743252	-0.390906	-0.020896	0.055309	0.015224	0.150819	-0.007202
1074	5.407999	0.005000	9.151394	-2.393640	0.677335	-0.391127	-0.020896	0.054815	0.030293	0.150692	-0.001193
1075	5.412999	0.005000	9.187567	-2.421602	0.706320	-0.391349	-0.020896	0.054321	0.023856	0.144630	-0.006398
1076	5.417999	0.005000	9.142920	-2.379001	0.743221	-0.391570	-0.020896	0.053827	0.033922	0.138017	0.003348
1077	5.422999	0.005000	9.025200	-2.328483	0.693725	-0.391791	-0.020896	0.053333	0.020258	0.145044	-0.006494
1078	5.427999	0.005000	9.075607	-2.483287	0.717487	-0.392012	-0.020896	0.052838	0.017326	0.142682	-0.006778
1079	5.432999	0.005000	9.128033	-2.417993	0.926873	-0.392234	-0.020896	0.052344	0.025688	0.145917	-0.013333
1080	5.437999	0.005000	9.182160	-2.464700	0.972511	-0.392455	-0.020896	0.051850	0.034533	0.143753	-0.012566
1081	5.442999	0.005000	9.137544	-2.292852	1.070231	-0.392537	-0.021105	0.051589	0.055617	0.136607	-0.014505
1082	5.447999	0.005000	9.121635	-2.336445	1.059480	-0.392537	-0.021437	0.051466	0.039736	0.137441	-0.021747
1083	5.452999	0.005000	9.125229	-2.434166	0.822754	-0.392537	-0.021769	0.051342	0.043371	0.140249	-0.015075
1084	5.457999	0.005000	9.162920	-2.433639	0.843280	-0.392537	-0.022101	0.051218	0.012860	0.139960	-0.012541
1085	5.462999	0.005000	9.205964	-2.375415	0.863280	-0.392537	-0.022433	0.051095	0.014202	0.130675	-0.012913
1086	5.467999	0.005000	9.138515	-2.358805	1.002823	-0.392537	-0.022765	0.050971	0.041828	0.125501	-0.008673
1087	5.472999	0.005000	9.142920	-2.376987	1.137960	-0.392537	-0.023096	0.050848	0.052307	0.126394	-0.012934
1088	5.477999	0.005000	9.229378	-2.416924	1.098720	-0.392537	-0.023428	0.050724	0.079851	0.116156	-0.012440
1089	5.482999	0.005000	9.103680	-2.379032	1.044872	-0.392537	-0.023760	0.050600	0.050772	0.123310	-0.017868
1090	5.487999	0.005000	9.052372	-2.405708	1.177200	-0.392537	-0.024092	0.050477	0.031070	0.120013	-0.014922
1091	5.492999	0.005000	9.155489	-2.368503	1.216440	-0.392537	-0.024424	0.050353	0.032755	0.119813	-0.020001
1092	5.497999	0.005000	9.119807	-2.299033	1.200313	-0.392537	-0.024756	0.050230	0.049086	0.104824	-0.023415
1093	5.502999	0.005000	9.096043	-2.440517	1.245146	-0.392537	-0.025088	0.050106	0.057271	0.105271	-0.019225
1094	5.507999	0.005000	9.092975	-2.432880	1.216440	-0.392537	-0.025326	0.049983	0.045704	0.111425	-0.006189
1095	5.512999	0.005000	9.055951	-2.379868	1.216440	-0.392537	-0.024994	0.049859	0.043210	0.099996	-0.002738
1096	5.517999	0.005000	9.096213	-2.449719	1.154799	-0.392537	-0.024662	0.049735	0.031744	0.099339	-0.004781
