# FOX Logger (IMU file)
# (c) INRIA 2011-2014
# File created from file sensbiotk output
#
# File format:
# id	t	dt	ax	ay	az	mx	my	mz	gx	gy	gz
#
# Units:
#	Time: s
#\Acceleration: m.s^-2
#\Magneto: gauss
#\Gyrometer: rad/s
#
1	0.042664	0.042664	-0.274680	-0.078480	-10.218292	-0.498507	0.164179	-0.003333	0.005572	-0.005505	0.017289
2	0.047664	0.005000	-0.268750	-0.156960	-10.235710	-0.498286	0.164069	-0.003086	0.013134	0.002253	0.005149
3	0.052664	0.005000	-0.274680	-0.085673	-10.280880	-0.498065	0.163958	-0.002840	0.011305	-0.007024	-0.003204
4	0.057664	0.005000	-0.274680	-0.155781	-10.279701	-0.497844	0.163848	-0.002593	0.007072	-0.006405	-0.005977
5	0.062664	0.005000	-0.274680	-0.117720	-10.164690	-0.497623	0.163737	-0.002346	0.003177	-0.000287	-0.004235
6	0.067664	0.005000	-0.268342	-0.127228	-10.166329	-0.497403	0.163627	-0.002100	-0.006562	-0.000600	-0.000856
7	0.072664	0.005000	-0.207243	-0.112199	-10.280880	-0.497182	0.163517	-0.001853	-0.005457	-0.007636	-0.000223
8	0.077664	0.005000	-0.212851	-0.196200	-10.383541	-0.496961	0.163406	-0.001606	-0.018565	-0.001367	-0.004793
9	0.082664	0.005000	-0.206018	-0.137355	-10.329938	-0.496740	0.163296	-0.001360	-0.019227	-0.010369	0.010972
10	0.087664	0.005000	-0.219952	-0.090356	-10.335608	-0.496519	0.163185	-0.001113	-0.012567	-0.012832	0.002735
11	0.092664	0.005000	-0.235440	-0.196200	-10.373474	-0.496298	0.163075	-0.000866	-0.009848	-0.010145	0.008069
12	0.097664	0.005000	-0.251669	-0.087926	-10.313338	-0.496077	0.162964	-0.000620	-0.005861	-0.011402	-0.008104
13	0.102664	0.005000	-0.254081	-0.119679	-10.282839	-0.495856	0.162854	-0.000373	0.001479	-0.014458	0.002015
14	0.107664	0.005000	-0.235440	-0.104000	-10.204760	-0.495635	0.162744	-0.000127	-0.010609	0.003181	0.009433
15	0.112664	0.005000	-0.274680	-0.101476	-10.195648	-0.495414	0.162848	0.000000	-0.018932	0.006177	0.001339
16	0.117664	0.005000	-0.274680	-0.064351	-10.302845	-0.495194	0.163180	0.000000	-0.024180	-0.006000	0.004196
17	0.122664	0.005000	-0.231874	-0.117720	-10.214291	-0.494973	0.163511	0.000000	-0.025708	-0.003467	0.004733
18	0.127664	0.005000	-0.304087	-0.127553	-10.300545	-0.494752	0.163842	0.000000	-0.024652	-0.008150	0.004461
19	0.132664	0.005000	-0.274680	-0.125253	-10.391067	-0.494531	0.164174	0.000000	-0.016343	-0.010670	-0.000680
20	0.137664	0.005000	-0.269159	-0.196200	-10.309077	-0.494310	0.164505	0.000000	-0.027065	-0.006655	-0.006909
21	0.142664	0.005000	-0.307553	-0.196200	-10.241640	-0.494089	0.164836	0.000000	-0.018716	-0.012921	0.017532
22	0.147664	0.005000	-0.236665	-0.196200	-10.161935	-0.493868	0.165167	0.000000	-0.027146	-0.006446	-0.004003
23	0.152664	0.005000	-0.274680	-0.120047	-10.085844	-0.493647	0.165499	0.000000	-0.031721	-0.009341	0.009673
24	0.157664	0.005000	-0.310812	-0.081588	-10.163160	-0.493426	0.165830	0.000000	-0.036586	-0.012642	0.008347
25	0.162664	0.005000	-0.285730	-0.112195	-10.275355	-0.493205	0.166161	0.000000	-0.052130	-0.005221	0.007671
26	0.167664	0.005000	-0.227509	0.023379	-10.272949	-0.492985	0.166493	0.000000	-0.046320	-0.005188	0.002821
27	0.172664	0.005000	-0.313920	-0.019490	-10.241640	-0.492764	0.166824	0.000000	-0.018765	-0.000035	-0.003334
28	0.177664	0.005000	-0.220779	0.000000	-10.307831	-0.492543	0.167155	0.000000	-0.002512	-0.015914	0.010306
29	0.182664	0.005000	-0.235440	-0.088676	-10.241640	-0.492752	0.167487	-0.000240	-0.001930	-0.006902	-0.009513
30	0.187664	0.005000	-0.235440	-0.061838	-10.219042	-0.492973	0.167818	-0.000487	-0.008503	-0.007941	-0.003876
31	0.192664	0.005000	-0.313920	-0.059647	-10.262047	-0.493194	0.168150	-0.000734	-0.013464	-0.007916	-0.005358
32	0.197664	0.005000	-0.295677	0.062992	-10.411333	-0.493415	0.168481	-0.000981	-0.006459	0.007732	0.004486
33	0.202664	0.005000	-0.251550	-0.016110	-10.405619	-0.493636	0.168813	-0.001227	0.007226	-0.000304	-0.004114
34	0.207664	0.005000	-0.196200	-0.131606	-10.331587	-0.493857	0.169144	-0.001474	0.022061	-0.008435	-0.016633
35	0.212664	0.005000	-0.179916	-0.184722	-10.269402	-0.494078	0.169476	-0.001721	0.002733	-0.008136	0.001651
36	0.217664	0.005000	-0.304382	-0.177124	-10.221476	-0.494299	0.169808	-0.001968	-0.001429	-0.015129	-0.006399
37	0.222664	0.005000	-0.242572	-0.149828	-10.305856	-0.494520	0.170139	-0.002214	-0.016045	-0.010978	-0.006619
38	0.227664	0.005000	-0.240568	-0.167216	-10.309864	-0.494741	0.170471	-0.002461	-0.009745	-0.009280	-0.004000
39	0.232664	0.005000	-0.243753	-0.243753	-10.165931	-0.494962	0.170802	-0.002708	-0.020374	-0.009895	-0.008552
40	0.237664	0.005000	-0.274313	-0.236175	-10.123920	-0.495183	0.171134	-0.002955	-0.032326	-0.004861	0.006004
41	0.242664	0.005000	-0.310766	-0.389246	-10.199246	-0.495404	0.171465	-0.003201	-0.065025	-0.006035	-0.005802
42	0.247664	0.005000	-0.274680	-0.313920	-10.469184	-0.495574	0.171384	-0.002757	-0.096915	-0.006244	0.005659
43	0.252664	0.005000	-0.202138	-0.223564	-10.298694	-0.495684	0.170832	-0.001523	-0.112065	-0.018311	0.003555
44	0.257664	0.005000	-0.274680	-0.025032	-10.280880	-0.495795	0.170279	-0.000290	-0.112346	-0.012038	0.004192
45	0.262664	0.005000	-0.206488	-0.059817	-10.338783	-0.495905	0.169727	0.000944	-0.082330	-0.011475	0.008764
46	0.267664	0.005000	-0.288515	0.118853	-10.320120	-0.496016	0.169174	0.002178	-0.055799	-0.013134	-0.000039
47	0.272664	0.005000	-0.338514	0.004698	-10.280880	-0.496126	0.168622	0.003412	-0.040542	-0.012424	0.006501
48	0.277664	0.005000	-0.291736	-0.061424	-10.376416	-0.496237	0.168069	0.004646	-0.039880	-0.003636	0.006625
49	0.282664	0.005000	-0.235440	-0.019998	-10.339362	-0.496347	0.167516	0.005880	-0.033174	-0.011551	-0.002474
50	0.287664	0.005000	-0.214036	0.060644	-10.184564	-0.496458	0.166964	0.007114	-0.030183	-0.017016	0.006370
51	0.292664	0.005000	-0.258978	0.094182	-10.233804	-0.496568	0.166411	0.008348	-0.023521	-0.008200	0.003983
52	0.297664	0.005000	-0.274680	0.066206	-10.294363	-0.496679	0.165859	0.009582	0.003269	-0.006382	0.009843
53	0.302664	0.005000	-0.246509	0.084512	-10.320120	-0.496789	0.165306	0.010815	0.020937	-0.002443	-0.002435
54	0.307664	0.005000	-0.283696	-0.105527	-10.320120	-0.496900	0.164754	0.012049	0.026352	-0.003747	0.002858
55	0.312664	0.005000	-0.281399	-0.117720	-10.260724	-0.497011	0.164201	0.013283	0.001783	-0.013454	0.006536
56	0.317664	0.005000	-0.304481	-0.156960	-10.142799	-0.497651	0.163225	0.014872	-0.007268	-0.000916	-0.005113
57	0.322664	0.005000	-0.237770	-0.196200	-10.320120	-0.498314	0.162231	0.016475	-0.015453	-0.010285	0.007141
58	0.327664	0.005000	-0.235486	-0.117812	-10.320120	-0.498976	0.161237	0.018078	-0.015614	-0.006262	-0.008903
59	0.332664	0.005000	-0.309049	-0.078480	-10.202400	-0.499639	0.160243	0.019682	-0.017725	-0.015487	0.003674
60	0.337664	0.005000	-0.348752	-0.231032	-10.280880	-0.500302	0.159249	0.021285	-0.010320	-0.009589	-0.007315
61	0.342664	0.005000	-0.346347	-0.339534	-10.274067	-0.500964	0.158255	0.022889	-0.035150	-0.022414	-0.003410
62	0.347664	0.005000	-0.344038	-0.214443	-10.377603	-0.501627	0.157261	0.024492	-0.064694	-0.017457	-0.001815
63	0.352664	0.005000	-0.218544	-0.050412	-10.409772	-0.502290	0.156267	0.026095	-0.072413	-0.000415	-0.024076
64	0.357664	0.005000	-0.300502	0.077466	-10.202400	-0.502952	0.155273	0.027699	-0.059673	-0.017162	0.003894
65	0.362664	0.005000	-0.188009	0.046574	-10.280880	-0.503615	0.154279	0.029302	-0.045574	-0.012159	-0.001787
66	0.367664	0.005000	-0.200012	0.003812	-10.251730	-0.504278	0.153284	0.030906	-0.033042	-0.009161	-0.004374
67	0.372664	0.005000	-0.254807	-0.058102	-10.338982	-0.504940	0.152290	0.032509	-0.030757	-0.009930	-0.010323
68	0.377664	0.005000	-0.274680	0.022283	-10.325446	-0.505603	0.151296	0.034112	-0.033430	-0.008526	-0.010884
69	0.382664	0.005000	-0.226227	-0.132733	-10.265867	-0.505822	0.151338	0.033954	-0.036440	-0.014680	-0.004624
70	0.387664	0.005000	-0.235440	-0.144360	-10.215000	-0.505491	0.152663	0.031610	-0.030184	-0.017473	-0.001656
71	0.392664	0.005000	-0.245969	-0.060297	-10.191871	-0.505159	0.153989	0.029267	-0.029970	-0.007574	0.006977
72	0.397664	0.005000	-0.243689	-0.125969	-10.187907	-0.504828	0.155314	0.026924	-0.043429	-0.012761	-0.005049
73	0.402664	0.005000	-0.274680	-0.190367	-10.337620	-0.504497	0.156639	0.024580	-0.045616	-0.013243	-0.001488
74	0.407664	0.005000	-0.243218	-0.102165	-10.390822	-0.504166	0.157965	0.022237	-0.041244	-0.013498	0.001628
75	0.412664	0.005000	-0.274680	-0.079965	-10.318635	-0.503834	0.159290	0.019893	-0.048072	-0.000953	-0.015611
76	0.417664	0.005000	-0.235899	-0.117720	-10.280880	-0.503503	0.160616	0.017550	-0.051587	-0.008176	-0.000305
77	0.422664	0.005000	-0.274680	-0.117720	-10.205277	-0.503172	0.161941	0.015207	-0.052480	-0.004732	-0.004045
78	0.427664	0.005000	-0.347941	-0.083699	-10.314901	-0.502840	0.163267	0.012863	-0.042846	-0.009110	0.000028
79	0.432664	0.005000	-0.377947	-0.024787	-10.280880	-0.502509	0.164592	0.010520	-0.036570	-0.011922	0.002759
80	0.437664	0.005000	-0.293940	-0.068850	-10.152810	-0.502178	0.165918	0.008176	-0.034010	-0.010697	-0.002955
81	0.442664	0.005000	-0.286254	-0.117720	-10.347786	-0.501846	0.167243	0.005833	-0.039810	-0.019571	0.003374
82	0.447664	0.005000	-0.350436	0.025252	-10.370624	-0.501515	0.168568	0.003490	-0.054243	-0.008133	-0.000069
83	0.452664	0.005000	-0.244804	-0.092155	-10.352522	-0.501080	0.168554	0.004369	-0.035624	-0.022901	0.002701
84	0.457664	0.005000	-0.256338	-0.060138	-10.181502	-0.500638	0.168443	0.005480	-0.036321	-0.009961	-0.004691
85	0.462664	0.005000	-0.235440	-0.115455	-10.278615	-0.500196	0.168333	0.006590	-0.038179	0.001732	0.001819
86	0.467664	0.005000	-0.219087	-0.006535	-10.248175	-0.499754	0.168222	0.007701	-0.024113	-0.012036	0.000655
87	0.472664	0.005000	-0.207177	0.000000	-10.241640	-0.499312	0.168112	0.008811	-0.021589	-0.009500	-0.013190
88	0.477664	0.005000	-0.247163	-0.152889	-10.206471	-0.498870	0.168001	0.009922	-0.022613	-0.012388	0.005600
89	0.482664	0.005000	-0.304141	-0.245219	-10.172817	-0.498428	0.167891	0.011033	-0.040663	-0.010892	-0.011111
90	0.487664	0.005000	-0.321284	-0.213347	-10.234276	-0.497986	0.167780	0.012143	-0.053739	-0.016044	-0.002522
91	0.492664	0.005000	-0.342320	-0.073060	-10.247060	-0.497544	0.167670	0.013254	-0.072448	-0.007941	0.000856
92	0.497664	0.005000	-0.313920	0.006030	-10.320120	-0.497102	0.167559	0.014364	-0.073289	-0.010469	0.000199
93	0.502664	0.005000	-0.236499	-0.036063	-10.282998	-0.496660	0.167448	0.015475	-0.068857	-0.010517	0.006090
94	0.507664	0.005000	-0.274680	0.040572	-10.283544	-0.496218	0.167338	0.016585	-0.045166	-0.015608	-0.003096
95	0.512664	0.005000	-0.317196	-0.107891	-10.323396	-0.495776	0.167227	0.017696	-0.031389	-0.009354	0.000297
96	0.517664	0.005000	-0.280373	0.033547	-10.241640	-0.495475	0.167258	0.017755	-0.006741	-0.006120	-0.007117
97	0.522664	0.005000	-0.235440	-0.008002	-10.312118	-0.495365	0.167479	0.016398	-0.015179	-0.010850	-0.003245
98	0.527664	0.005000	-0.274680	-0.087590	-10.320120	-0.495254	0.167700	0.015041	-0.007176	-0.011761	-0.013006
99	0.532664	0.005000	-0.196200	-0.039240	-10.346902	-0.495144	0.167921	0.013685	-0.002942	-0.013092	-0.012998
100	0.537664	0.005000	-0.166823	-0.103031	-10.256329	-0.495033	0.168142	0.012328	-0.010605	-0.007341	-0.005393
101	0.542664	0.005000	-0.336349	-0.168152	-10.196781	-0.494923	0.168363	0.010971	-0.020441	-0.012874	-0.006922
102	0.547664	0.005000	-0.255680	-0.098720	-10.222640	-0.494812	0.168584	0.009615	-0.035000	-0.010205	-0.000700
103	0.552664	0.005000	-0.313920	-0.057314	-10.256623	-0.494702	0.168804	0.008258	-0.042003	-0.015894	0.008678
104	0.557664	0.005000	-0.376738	0.023578	-10.218062	-0.494592	0.169025	0.006901	-0.046422	-0.010756	-0.015210
105	0.562664	0.005000	-0.274680	-0.064926	-10.151028	-0.494481	0.169246	0.005545	-0.063160	-0.016636	0.000988
106	0.567664	0.005000	-0.246750	-0.044551	-10.213710	-0.494371	0.169467	0.004188	-0.060422	-0.011606	-0.001545
107	0.572664	0.005000	-0.274680	0.060690	-10.211295	-0.494260	0.169688	0.002831	-0.046800	-0.007166	0.000188
108	0.577664	0.005000	-0.242403	0.000000	-10.216327	-0.494150	0.169909	0.001475	-0.029714	-0.005000	0.001772
109	0.582664	0.005000	-0.200747	-0.078480	-10.163160	-0.494040	0.170130	0.000118	-0.024027	0.003176	0.002663
110	0.587664	0.005000	-0.272108	-0.005143	-10.207543	-0.494131	0.169544	0.000225	-0.017081	-0.021081	0.001270
111	0.592664	0.005000	-0.274481	-0.039439	-10.281278	-0.494241	0.168881	0.000472	-0.034000	-0.005736	0.001895
112	0.597664	0.005000	-0.198393	-0.041433	-10.248220	-0.494352	0.168218	0.000719	-0.032849	-0.007289	-0.000284
113	0.602664	0.005000	-0.192037	-0.101069	-10.241640	-0.494462	0.167555	0.000966	-0.033350	-0.010996	-0.005096
114	0.607664	0.005000	-0.189710	-0.065501	-10.287370	-0.494573	0.166892	0.001212	-0.041028	-0.005270	-0.007155
115	0.612664	0.005000	-0.274680	-0.047752	-10.258665	-0.494683	0.166229	0.001459	-0.053160	-0.009989	0.002309
116	0.617664	0.005000	-0.313920	-0.032782	-10.252567	-0.494794	0.165566	0.001706	-0.055884	-0.004539	-0.003604
117	0.622664	0.005000	-0.261809	-0.118347	-10.320120	-0.494904	0.164903	0.001953	-0.044845	-0.012943	0.009594
118	0.627664	0.005000	-0.235440	-0.109039	-10.304840	-0.495015	0.164240	0.002199	-0.046830	-0.005908	0.003262
119	0.632664	0.005000	-0.257193	0.004266	-10.298367	-0.495125	0.163577	0.002446	-0.050309	-0.005625	0.005320
120	0.637664	0.005000	-0.274649	0.157021	-10.280911	-0.495235	0.162914	0.002693	-0.037926	-0.008096	0.011056
121	0.642664	0.005000	-0.156960	0.095673	-10.207253	-0.495346	0.162251	0.002940	-0.022075	-0.003162	-0.002924
122	0.647664	0.005000	-0.180942	0.093738	-10.163160	-0.495456	0.161588	0.003186	-0.013161	-0.010515	0.003856
123	0.652664	0.005000	-0.209045	0.026395	-10.240936	-0.495343	0.161373	0.003283	-0.019296	-0.006518	-0.008191
124	0.657664	0.005000	-0.342389	0.100021	-10.337819	-0.494901	0.161815	0.003160	-0.024459	-0.012228	-0.002383
125	0.662664	0.005000	-0.383906	0.218452	-10.275615	-0.494459	0.162257	0.003036	-0.027460	-0.015342	-0.002609
126	0.667664	0.005000	-0.313920	0.150486	-10.359360	-0.494017	0.162699	0.002913	-0.006824	0.001026	-0.003861
127	0.672664	0.005000	-0.309836	0.188031	-10.351191	-0.493576	0.163140	0.002790	0.010111	-0.006890	0.008484
128	0.677664	0.005000	-0.233711	0.083668	-10.204129	-0.493134	0.163582	0.002667	0.031958	-0.002239	0.003000
129	0.682664	0.005000	-0.274251	0.040097	-10.163589	-0.492692	0.164024	0.002543	0.041417	-0.011545	0.007768
130	0.687664	0.005000	-0.201465	0.002632	-10.199768	-0.492250	0.164466	0.002420	0.035522	-0.012212	-0.004714
131	0.692664	0.005000	-0.201177	0.049194	-10.393623	-0.491808	0.164908	0.002297	0.035212	-0.007418	0.006087
132	0.697664	0.005000	-0.274680	0.000000	-10.216363	-0.491367	0.165349	0.002173	0.043306	-0.013914	-0.003015
133	0.702664	0.005000	-0.226152	0.050616	-10.241640	-0.490925	0.165791	0.002050	0.046095	-0.003496	-0.001574
134	0.707664	0.005000	-0.263340	-0.067140	-10.202400	-0.490483	0.166233	0.001927	0.044839	-0.010966	0.002045
135	0.712664	0.005000	-0.247183	-0.092229	-10.227891	-0.490041	0.166675	0.001804	0.030305	-0.002816	-0.004192
136	0.717664	0.005000	-0.274680	-0.024597	-10.218359	-0.489599	0.167117	0.001680	0.011269	-0.000689	0.007641
137	0.722664	0.005000	-0.217343	0.175057	-10.241640	-0.489947	0.167361	0.001667	0.009536	-0.005953	-0.004000
138	0.727664	0.005000	-0.216708	0.119495	-10.222908	-0.490389	0.167582	0.001667	0.031184	0.000412	0.000607
139	0.732664	0.005000	-0.291469	-0.016789	-10.235977	-0.490831	0.167803	0.001667	0.043354	-0.002995	0.005444
140	0.737664	0.005000	-0.313920	-0.028753	-10.309633	-0.491273	0.168024	0.001667	0.051016	0.004918	-0.001610
141	0.742664	0.005000	-0.262397	-0.156960	-10.371643	-0.491714	0.168245	0.001667	0.042554	-0.012478	0.003522
142	0.747664	0.005000	-0.284588	-0.196200	-10.251155	-0.492156	0.168466	0.001667	0.037952	-0.006262	-0.007676
143	0.752664	0.005000	-0.298702	-0.156960	-10.218813	-0.492598	0.168687	0.001667	0.016071	-0.007214	-0.000470
144	0.757664	0.005000	-0.308323	-0.117720	-10.202400	-0.493040	0.168908	0.001667	0.011808	-0.002520	-0.008448
145	0.762664	0.005000	-0.310660	0.085000	-10.274360	-0.493482	0.169129	0.001667	0.007941	-0.009985	-0.012615
146	0.767664	0.005000	-0.273838	0.037556	-10.125604	-0.493924	0.169350	0.001667	0.014330	-0.010487	-0.002598
147	0.772664	0.005000	-0.311716	-0.115516	-10.240538	-0.494366	0.169571	0.001667	0.007532	-0.008589	-0.016710
148	0.777664	0.005000	-0.278144	-0.078480	-10.205864	-0.494808	0.169792	0.001667	0.011779	-0.013092	-0.009536
149	0.782664	0.005000	-0.196200	-0.089381	-10.252541	-0.495250	0.170013	0.001667	0.007130	-0.009601	-0.003633
150	0.787664	0.005000	-0.258972	-0.109866	-10.202400	-0.495522	0.170192	0.001857	-0.006231	-0.003112	0.005745
151	0.792664	0.005000	-0.293619	-0.098781	-10.232851	-0.495522	0.170302	0.002351	0.001846	-0.010555	0.016876
152	0.797664	0.005000	-0.220626	-0.039240	-10.229427	-0.495522	0.170413	0.002844	0.004865	-0.001563	-0.004204
153	0.802664	0.005000	-0.220819	-0.014621	-10.167784	-0.495522	0.170523	0.003337	-0.004635	-0.007449	0.009641
154	0.807664	0.005000	-0.297083	0.005567	-10.207967	-0.495522	0.170634	0.003830	0.002933	-0.007386	-0.009113
155	0.812664	0.005000	-0.273394	0.096172	-10.321406	-0.495522	0.170744	0.004324	0.008473	0.002522	0.001813
156	0.817664	0.005000	-0.271143	0.057092	-10.402137	-0.495522	0.170855	0.004817	0.016590	-0.010894	-0.005076
157	0.822664	0.005000	-0.313920	0.039240	-10.351935	-0.495522	0.170965	0.005310	0.015649	-0.010172	0.001967
158	0.827664	0.005000	-0.288178	0.051483	-10.307877	-0.495522	0.171075	0.005804	0.024096	-0.012325	0.004971
159	0.832664	0.005000	-0.246861	-0.027819	-10.359360	-0.495522	0.171186	0.006297	0.028226	-0.009024	-0.012433
160	0.837664	0.005000	-0.265540	0.030100	-10.280880	-0.495522	0.171296	0.006790	0.026429	-0.009448	-0.000389
161	0.842664	0.005000	-0.189466	-0.091948	-10.248374	-0.495522	0.171407	0.007283	0.034705	-0.011053	-0.007351
162	0.847664	0.005000	-0.161226	-0.074214	-10.241640	-0.495522	0.171517	0.007777	0.038980	0.011153	-0.007247
163	0.852664	0.005000	-0.274680	-0.005739	-10.282793	-0.495522	0.171628	0.008270	0.046540	-0.006034	-0.001605
164	0.857664	0.005000	-0.274680	-0.000092	-10.241701	-0.495426	0.171257	0.007687	0.039120	-0.004808	-0.010470
165	0.862664	0.005000	-0.238314	-0.033492	-10.317246	-0.495315	0.170815	0.006947	0.031169	-0.014072	-0.000075
166	0.867664	0.005000	-0.235440	-0.078480	-10.290583	-0.495205	0.170373	0.006207	0.024229	-0.014599	-0.002160
167	0.872664	0.005000	-0.171301	-0.092821	-10.334461	-0.495094	0.169931	0.005467	0.021972	-0.011068	0.004820
168	0.877664	0.005000	-0.274680	-0.108519	-10.211601	-0.494984	0.169489	0.004727	0.023707	-0.002433	-0.005848
169	0.882664	0.005000	-0.247056	-0.145344	-10.241640	-0.494874	0.169048	0.003987	0.032827	-0.001488	-0.006360
170	0.887664	0.005000	-0.288240	-0.235440	-10.282319	-0.494763	0.168606	0.003247	0.029525	-0.005281	-0.000732
171	0.892664	0.005000	-0.235440	-0.165626	-10.248943	-0.494653	0.168164	0.002507	0.003170	-0.004433	-0.005661
172	0.897664	0.005000	-0.235440	-0.138792	-10.184232	-0.494542	0.167722	0.001767	-0.016366	-0.015257	-0.002458
173	0.902664	0.005000	-0.276088	-0.119128	-10.298388	-0.494432	0.167280	0.001027	-0.029613	-0.015677	-0.001222
174	0.907664	0.005000	-0.291184	-0.035198	-10.287111	-0.494322	0.166839	0.000287	-0.039853	-0.001930	0.002192
175	0.912664	0.005000	-0.260294	0.039240	-10.095148	-0.494211	0.166397	-0.000453	-0.024450	-0.019677	0.013996
176	0.917664	0.005000	-0.259743	-0.012152	-10.202400	-0.494101	0.165955	-0.001193	-0.026789	-0.012790	-0.000723
177	0.922664	0.005000	-0.304183	-0.097955	-10.261115	-0.494109	0.165791	-0.001623	-0.034159	-0.014820	0.011775
178	0.927664	0.005000	-0.227647	-0.109927	-10.359360	-0.494330	0.166123	-0.001499	-0.038559	-0.009704	-0.000880
179	0.932664	0.005000	-0.235440	-0.005389	-10.293174	-0.494551	0.166454	-0.001376	-0.049274	-0.015405	0.002186
180	0.937664	0.005000	-0.235440	0.035836	-10.241640	-0.494772	0.166785	-0.001252	-0.036682	-0.008495	0.002138
181	0.942664	0.005000	-0.273639	-0.075358	-10.360401	-0.494993	0.167117	-0.001129	-0.048224	-0.017106	-0.000645
182	0.947664	0.005000	-0.235440	0.114997	-10.247086	-0.495214	0.167448	-0.001006	-0.023161	-0.015345	0.006362
183	0.952664	0.005000	-0.274680	0.186237	-10.159839	-0.495435	0.167780	-0.000882	-0.007554	-0.017021	-0.009552
184	0.957664	0.005000	-0.341845	0.089795	-10.202400	-0.495656	0.168111	-0.000759	0.006671	-0.009967	0.001015
185	0.962664	0.005000	-0.298579	-0.031570	-10.257869	-0.495877	0.168443	-0.000635	0.026009	-0.012077	-0.007042
186	0.967664	0.005000	-0.304587	-0.009333	-10.368693	-0.496098	0.168774	-0.000512	0.031290	-0.015747	-0.005382
187	0.972664	0.005000	-0.206335	-0.078480	-10.305568	-0.496319	0.169106	-0.000388	0.026360	-0.008010	-0.002344
188	0.977664	0.005000	-0.156960	0.049605	-10.216838	-0.496540	0.169437	-0.000265	0.030087	-0.011616	-0.000017
189	0.982664	0.005000	-0.258298	0.022858	-10.241640	-0.496761	0.169769	-0.000142	0.043147	-0.007787	0.003698
190	0.987664	0.005000	-0.373606	0.018794	-10.299674	-0.496982	0.170100	-0.000018	0.057597	-0.002749	-0.009814
191	0.992664	0.005000	-0.313920	-0.020951	-10.226014	-0.496921	0.170055	0.000000	0.073874	0.001703	-0.009204
192	0.997664	0.005000	-0.330011	0.030207	-10.130978	-0.496810	0.169944	0.000000	0.083761	-0.004179	-0.008982
193	1.002664	0.005000	-0.274680	-0.025553	-10.190535	-0.496700	0.169834	0.000000	0.088298	-0.004859	-0.007142
194	1.007664	0.005000	-0.313920	-0.090083	-10.269277	-0.496589	0.169724	0.000000	0.080597	-0.012906	-0.001704
195	1.012664	0.005000	-0.334489	-0.186864	-10.329456	-0.496479	0.169613	0.000000	0.068482	-0.014486	-0.018915
196	1.017664	0.005000	-0.203120	-0.242360	-10.273960	-0.496368	0.169503	0.000000	0.060556	-0.006281	-0.005840
197	1.022664	0.005000	-0.269764	-0.269764	-10.246556	-0.496258	0.169392	0.000000	0.050036	-0.020265	-0.007159
198	1.027664	0.005000	-0.235440	-0.232869	-10.241640	-0.496147	0.169282	0.000000	0.024261	-0.006701	-0.006962
199	1.032664	0.005000	-0.196353	-0.156960	-10.241640	-0.496037	0.169172	0.000000	0.006279	-0.013575	0.003767
200	1.037664	0.005000	-0.197991	-0.119511	-10.279089	-0.495926	0.169061	0.000000	-0.005433	-0.010326	-0.003298
201	1.042664	0.005000	-0.103650	-0.392400	-10.084680	-0.495816	0.168951	0.000000	-0.034895	-0.006773	0.001117
202	1.047664	0.005000	-0.183921	-0.129999	-10.289423	-0.495706	0.168840	0.000000	-0.082103	0.002151	-0.004496
203	1.052664	0.005000	-0.204755	0.240460	-10.258750	-0.495595	0.168730	0.000000	-0.069880	-0.002765	0.005928
204	1.057664	0.005000	-0.196200	0.089311	-10.280880	-0.495522	0.168882	-0.000084	-0.023281	-0.010954	0.005145
205	1.062664	0.005000	-0.340254	0.131147	-10.136826	-0.495522	0.169545	-0.000330	0.013270	0.000645	-0.011283
206	1.067664	0.005000	-0.274680	-0.071761	-10.193799	-0.495522	0.170208	-0.000577	0.013759	0.001802	0.007240
207	1.072664	0.005000	-0.331183	-0.039240	-10.167874	-0.495522	0.170871	-0.000824	0.004855	-0.009016	-0.009340
208	1.077664	0.005000	-0.235532	0.039148	-10.221882	-0.495522	0.171534	-0.001071	-0.020374	-0.012477	-0.000565
209	1.082664	0.005000	-0.252867	-0.017427	-10.302693	-0.495522	0.172197	-0.001317	-0.014983	0.006996	-0.005365
210	1.087664	0.005000	-0.180982	-0.006415	-10.320120	-0.495522	0.172860	-0.001564	-0.000146	0.006860	0.001495
211	1.092664	0.005000	-0.248555	-0.065365	-10.267871	-0.495522	0.173523	-0.001811	0.019422	-0.011507	-0.001824
212	1.097664	0.005000	-0.313920	-0.139452	-10.280880	-0.495522	0.174186	-0.002058	0.024435	-0.000153	-0.003589
213	1.102664	0.005000	-0.305101	-0.226621	-10.211219	-0.495522	0.174849	-0.002304	0.005978	-0.001453	0.015224
214	1.107664	0.005000	-0.241947	-0.156960	-10.248147	-0.495522	0.175512	-0.002551	-0.020521	-0.005721	-0.005584
215	1.112664	0.005000	-0.239542	-0.152858	-10.320120	-0.495522	0.176175	-0.002798	-0.037818	-0.001189	-0.002871
216	1.117664	0.005000	-0.276813	-0.030708	-10.200267	-0.495522	0.176838	-0.003045	-0.045118	-0.015182	-0.003882
217	1.122664	0.005000	-0.313920	0.117720	-10.124180	-0.495522	0.177500	-0.003291	-0.052756	-0.006587	-0.008764
218	1.127664	0.005000	-0.313920	-0.033976	-10.317488	-0.496533	0.176233	-0.001486	-0.023928	-0.010003	-0.001295
219	1.132664	0.005000	-0.270072	-0.113112	-10.207008	-0.497749	0.174576	0.000736	-0.019139	-0.007881	-0.000867
220	1.137664	0.005000	-0.203143	-0.156960	-10.299290	-0.498964	0.172918	0.002957	-0.024342	-0.013008	-0.000671
221	1.142664	0.005000	-0.235440	-0.139023	-10.241640	-0.500180	0.171261	0.005178	-0.023470	-0.019389	0.002985
222	1.147664	0.005000	-0.369649	-0.129095	-10.202400	-0.501395	0.169603	0.007399	-0.035204	-0.008888	-0.003965
223	1.152664	0.005000	-0.287995	-0.039944	-10.280880	-0.502611	0.167946	0.009620	-0.037671	-0.004143	0.005558
224	1.157664	0.005000	-0.337436	-0.062756	-10.343636	-0.503826	0.166288	0.011841	-0.029267	-0.004599	-0.005320
225	1.162664	0.005000	-0.335492	-0.121624	-10.298548	-0.505042	0.164631	0.014062	-0.019113	-0.005310	-0.001230
226	1.167664	0.005000	-0.215361	-0.020079	-10.241640	-0.506257	0.162973	0.016283	-0.013551	-0.018045	-0.001211
227	1.172664	0.005000	-0.257662	-0.034036	-10.180178	-0.507473	0.161316	0.018504	-0.018048	-0.011546	-0.007350
228	1.177664	0.005000	-0.284310	-0.122895	-10.251270	-0.508688	0.159658	0.020725	-0.017678	-0.012217	-0.001844
229	1.182664	0.005000	-0.274680	-0.103894	-10.333946	-0.509904	0.158001	0.022946	-0.029133	-0.010414	-0.005132
230	1.187664	0.005000	-0.245893	-0.196200	-10.252093	-0.511119	0.156343	0.025167	-0.027240	0.000653	0.014252
231	1.192664	0.005000	-0.235440	-0.156960	-10.303299	-0.511545	0.155547	0.026146	-0.040631	0.000968	-0.005809
232	1.197664	0.005000	-0.202221	-0.105679	-10.274859	-0.510330	0.156541	0.024543	-0.040092	-0.003522	-0.006360
233	1.202664	0.005000	-0.196200	-0.031863	-10.312743	-0.509115	0.157535	0.022939	-0.050343	-0.008542	0.005653
234	1.207664	0.005000	-0.199649	0.005174	-10.205849	-0.507901	0.158529	0.021336	-0.051660	-0.007720	0.001102
235	1.212664	0.005000	-0.236113	0.117720	-10.319447	-0.506686	0.159523	0.019733	-0.033488	-0.010408	0.002193
236	1.217664	0.005000	-0.235440	0.041843	-10.359360	-0.505471	0.160517	0.018129	-0.020522	-0.003887	-0.009065
237	1.222664	0.005000	-0.313920	-0.107680	-10.133960	-0.504256	0.161511	0.016526	-0.013311	-0.012966	0.001606
238	1.227664	0.005000	-0.306583	-0.164297	-10.067450	-0.503041	0.162505	0.014922	-0.010325	-0.008975	-0.002572
239	1.232664	0.005000	-0.293420	-0.097220	-10.202400	-0.501826	0.163499	0.013319	-0.033668	-0.009305	-0.000092
240	1.237664	0.005000	-0.196200	0.015672	-10.178832	-0.500611	0.164493	0.011716	-0.038859	-0.009275	0.001210
241	1.242664	0.005000	-0.247224	-0.013728	-10.188672	-0.499396	0.165488	0.010112	-0.040481	-0.009255	-0.000813
242	1.247664	0.005000	-0.274680	-0.039240	-10.297017	-0.498181	0.166482	0.008509	-0.035723	-0.015774	0.015662
243	1.252664	0.005000	-0.277252	-0.039240	-10.338454	-0.496966	0.167476	0.006905	-0.024188	-0.012916	-0.003902
244	1.257664	0.005000	-0.295172	-0.080225	-10.321865	-0.495751	0.168470	0.005302	-0.013451	-0.008052	0.006658
245	1.262664	0.005000	-0.274680	-0.006568	-10.280880	-0.495881	0.168747	0.004599	-0.011014	-0.012274	0.008462
246	1.267664	0.005000	-0.260460	0.064260	-10.230839	-0.496323	0.168857	0.004106	0.005887	-0.015834	0.004024
247	1.272664	0.005000	-0.262697	-0.027257	-10.268897	-0.496765	0.168968	0.003612	0.017787	-0.017396	0.004928
248	1.277664	0.005000	-0.235440	-0.088049	-10.300982	-0.497207	0.169078	0.003119	0.022602	-0.010655	-0.014608
249	1.282664	0.005000	-0.267056	-0.172209	-10.170784	-0.497649	0.169188	0.002625	0.026152	-0.013416	-0.002825
250	1.287664	0.005000	-0.274680	-0.151739	-10.231198	-0.498091	0.169299	0.002131	0.004364	-0.002682	-0.003657
251	1.292664	0.005000	-0.271404	-0.035964	-10.127196	-0.498533	0.169409	0.001638	0.001473	-0.014046	-0.010566
252	1.297664	0.005000	-0.235440	-0.081097	-10.162288	-0.498975	0.169520	0.001144	-0.004942	-0.011912	-0.006835
253	1.302664	0.005000	-0.273608	-0.081695	-10.200257	-0.499417	0.169630	0.000651	-0.012116	-0.008873	-0.009579
254	1.307664	0.005000	-0.271191	-0.006979	-10.159671	-0.499859	0.169741	0.000157	0.001951	-0.014554	-0.001018
255	1.312664	0.005000	-0.207848	-0.045064	-10.280880	-0.500301	0.169851	-0.000337	-0.007384	-0.010947	-0.020198
256	1.317664	0.005000	-0.259002	0.031401	-10.273041	-0.500744	0.169962	-0.000830	-0.018712	-0.007726	0.002582
257	1.322664	0.005000	-0.284815	-0.068345	-10.320120	-0.501186	0.170072	-0.001324	-0.009562	-0.009270	0.000094
258	1.327664	0.005000	-0.235440	-0.036592	-10.253837	-0.501291	0.170115	-0.001592	-0.003353	-0.007521	-0.009039
259	1.332664	0.005000	-0.274680	0.068103	-10.119866	-0.500628	0.170005	-0.001345	-0.006095	-0.011966	-0.001755
260	1.337664	0.005000	-0.320059	0.101170	-10.117781	-0.499965	0.169894	-0.001098	-0.005169	-0.008883	-0.006130
261	1.342664	0.005000	-0.372122	0.077164	-10.201084	-0.499302	0.169784	-0.000851	-0.015640	-0.017051	0.000716
262	1.347664	0.005000	-0.313920	0.057574	-10.181494	-0.498639	0.169674	-0.000604	-0.003823	-0.018386	-0.001610
263	1.352664	0.005000	-0.282075	-0.039240	-10.241640	-0.497976	0.169563	-0.000358	-0.008455	-0.008674	0.000966
264	1.357664	0.005000	-0.246704	-0.075756	-10.255628	-0.497313	0.169453	-0.000111	0.011189	-0.003342	-0.000608
265	1.362664	0.005000	-0.235440	-0.102290	-10.280880	-0.496650	0.169342	0.000136	-0.003671	-0.006297	-0.011690
266	1.367664	0.005000	-0.274680	-0.068850	-10.290510	-0.495987	0.169232	0.000383	-0.014954	-0.009122	0.011233
267	1.372664	0.005000	-0.274680	-0.032016	-10.305673	-0.495324	0.169121	0.000630	-0.014492	-0.011031	-0.008516
268	1.377664	0.005000	-0.190981	0.039240	-10.382943	-0.494660	0.169011	0.000876	-0.031714	-0.004603	-0.004826
269	1.382664	0.005000	-0.120583	0.111994	-10.208126	-0.493997	0.168900	0.001123	-0.024590	-0.018951	-0.004025
270	1.387664	0.005000	-0.234532	0.076665	-10.203308	-0.493334	0.168790	0.001370	-0.024961	-0.004268	-0.006230
271	1.392664	0.005000	-0.347220	0.037755	-10.279395	-0.492671	0.168679	0.001617	-0.016208	-0.008535	0.006402
272	1.397664	0.005000	-0.282395	-0.070765	-10.265450	-0.492713	0.168569	0.001569	-0.007292	-0.001774	-0.003899
273	1.402664	0.005000	-0.280526	0.021701	-10.241640	-0.492934	0.168458	0.001445	-0.012028	-0.007341	0.010216
274	1.407664	0.005000	-0.181421	0.101413	-10.289034	-0.493155	0.168348	0.001322	-0.005345	-0.004063	-0.009513
275	1.412664	0.005000	-0.225243	0.049437	-10.349163	-0.493376	0.168237	0.001199	-0.000832	-0.010361	-0.013322
276	1.417664	0.005000	-0.247905	0.066015	-10.334430	-0.493597	0.168127	0.001075	0.012173	-0.011360	-0.005178
277	1.422664	0.005000	-0.284240	-0.102880	-10.374200	-0.493818	0.168016	0.000952	0.017690	-0.012407	-0.015340
278	1.427664	0.005000	-0.274680	-0.117720	-10.303163	-0.494039	0.167906	0.000828	0.017194	-0.011618	0.012569
279	1.432664	0.005000	-0.254576	-0.117720	-10.222504	-0.494259	0.167796	0.000705	0.007344	-0.002672	-0.007951
280	1.437664	0.005000	-0.238824	-0.039240	-10.184472	-0.494480	0.167685	0.000582	-0.003541	-0.002614	-0.004607
281	1.442664	0.005000	-0.290198	-0.180682	-10.226122	-0.494701	0.167575	0.000458	-0.001347	-0.010100	-0.004954
282	1.447664	0.005000	-0.274680	-0.142529	-10.215818	-0.494922	0.167464	0.000335	-0.017594	-0.014881	-0.008254
283	1.452664	0.005000	-0.285841	-0.050401	-10.224722	-0.495143	0.167354	0.000212	-0.007348	-0.013547	0.006522
284	1.457664	0.005000	-0.213708	-0.161184	-10.280880	-0.495364	0.167243	0.000088	-0.016796	-0.014355	0.007223
285	1.462664	0.005000	-0.196200	0.011999	-10.320120	-0.495491	0.167195	0.000035	-0.026506	-0.010047	0.003344
286	1.467664	0.005000	-0.313920	-0.069692	-10.250428	-0.495380	0.167306	0.000159	-0.023769	-0.008037	-0.006689
287	1.472664	0.005000	-0.353160	-0.071219	-10.322540	-0.495270	0.167417	0.000282	-0.014892	-0.006468	-0.001493
288	1.477664	0.005000	-0.313874	0.039286	-10.202492	-0.495159	0.167527	0.000406	-0.005577	-0.008401	0.004817
289	1.482664	0.005000	-0.274680	-0.069101	-10.280880	-0.495049	0.167638	0.000529	-0.008188	-0.008148	-0.008085
290	1.487664	0.005000	-0.318236	-0.113404	-10.245956	-0.494938	0.167748	0.000652	-0.009965	-0.010135	-0.000003
291	1.492664	0.005000	-0.307279	-0.078480	-10.267598	-0.494828	0.167859	0.000776	-0.004902	-0.019842	0.000032
292	1.497664	0.005000	-0.252771	-0.030574	-10.289546	-0.494717	0.167970	0.000899	0.005340	-0.012933	-0.001412
293	1.502664	0.005000	-0.302851	-0.034203	-10.269811	-0.494607	0.168080	0.001023	0.007153	-0.023122	0.001787
294	1.507664	0.005000	-0.353160	-0.104706	-10.320120	-0.494496	0.168191	0.001146	0.005868	-0.000621	-0.006740
295	1.512664	0.005000	-0.329347	-0.063053	-10.202400	-0.494385	0.168301	0.001270	0.011656	-0.006382	0.000032
296	1.517664	0.005000	-0.331543	-0.039240	-10.202400	-0.494275	0.168412	0.001393	0.014789	-0.008229	-0.013160
297	1.522664	0.005000	-0.294693	0.040027	-10.221627	-0.494164	0.168522	0.001517	0.004352	-0.009742	-0.002379
298	1.527664	0.005000	-0.291986	0.017306	-10.241640	-0.494054	0.168633	0.001640	0.011910	-0.009466	-0.006574
299	1.532664	0.005000	-0.338055	0.087509	-10.286956	-0.494117	0.168397	0.002247	-0.000458	0.003890	-0.012946
300	1.537664	0.005000	-0.367016	-0.051932	-10.332812	-0.494227	0.168066	0.002987	0.013807	-0.005697	-0.000146
301	1.542664	0.005000	-0.285428	-0.039240	-10.359360	-0.494337	0.167734	0.003728	0.007185	-0.006150	-0.002919
302	1.547664	0.005000	-0.313920	-0.078480	-10.311779	-0.494448	0.167403	0.004468	0.009625	-0.001538	-0.000787
303	1.552664	0.005000	-0.307597	-0.039240	-10.288504	-0.494558	0.167071	0.005208	-0.006248	-0.017168	-0.011052
304	1.557664	0.005000	-0.309939	0.000000	-10.206381	-0.494669	0.166740	0.005949	-0.009595	-0.002779	-0.001168
305	1.562664	0.005000	-0.276692	-0.113696	-10.324144	-0.494779	0.166408	0.006689	0.001710	-0.007367	0.002578
306	1.567664	0.005000	-0.313920	0.038505	-10.243110	-0.494890	0.166077	0.007429	-0.006323	-0.014471	-0.001362
307	1.572664	0.005000	-0.313920	0.032307	-10.239329	-0.495000	0.165745	0.008170	-0.007472	-0.020187	-0.001532
308	1.577664	0.005000	-0.205631	-0.113004	-10.251071	-0.495111	0.165414	0.008910	-0.003786	-0.010816	-0.004007
309	1.582664	0.005000	-0.346111	-0.046289	-10.377452	-0.495221	0.165082	0.009650	0.012702	-0.004760	0.001484
310	1.587664	0.005000	-0.313920	-0.060329	-10.220551	-0.495332	0.164750	0.010391	0.008119	-0.006720	-0.006101
311	1.592664	0.005000	-0.274680	-0.073688	-10.269397	-0.495442	0.164419	0.011131	0.011954	-0.001489	-0.003938
312	1.597664	0.005000	-0.222013	0.013427	-10.306693	-0.495491	0.164210	0.011463	0.004704	0.001420	-0.001271
313	1.602664	0.005000	-0.274680	-0.110160	-10.311840	-0.495381	0.164320	0.010722	-0.006515	-0.011285	-0.010370
314	1.607664	0.005000	-0.295888	-0.199377	-10.323297	-0.495271	0.164431	0.009982	0.000203	-0.007300	0.006790
315	1.612664	0.005000	-0.197348	-0.098674	-10.280880	-0.495160	0.164541	0.009241	0.012038	-0.002655	-0.006119
316	1.617664	0.005000	-0.206867	-0.022604	-10.230973	-0.495050	0.164652	0.008501	0.010727	0.003110	0.002389
317	1.622664	0.005000	-0.250132	-0.068624	-10.163160	-0.494939	0.164762	0.007761	0.003903	-0.001966	0.012136
318	1.627664	0.005000	-0.286959	-0.041644	-10.278476	-0.494829	0.164873	0.007020	-0.016146	-0.011990	-0.011147
319	1.632664	0.005000	-0.313920	0.057811	-10.291214	-0.494718	0.164983	0.006280	-0.013932	-0.009175	-0.003360
320	1.637664	0.005000	-0.235440	-0.078480	-10.288811	-0.494608	0.165094	0.005540	0.005787	-0.000337	-0.004685
321	1.642664	0.005000	-0.268694	-0.072494	-10.229667	-0.494497	0.165204	0.004799	0.015332	0.004632	-0.010178
322	1.647664	0.005000	-0.199781	-0.071318	-10.163160	-0.494387	0.165315	0.004059	0.013710	0.001252	-0.002272
323	1.652664	0.005000	-0.235440	-0.040878	-10.168073	-0.494276	0.165425	0.003319	0.005647	-0.006432	-0.006055
324	1.657664	0.005000	-0.235440	-0.155417	-10.357817	-0.494166	0.165536	0.002578	-0.014100	-0.008733	0.009658
325	1.662664	0.005000	-0.240888	0.031068	-10.252537	-0.494055	0.165646	0.001838	-0.013985	-0.003336	0.004911
326	1.667664	0.005000	-0.196200	0.063277	-10.280880	-0.494285	0.165757	0.001762	0.011243	-0.006191	0.010153
327	1.672664	0.005000	-0.171107	-0.078480	-10.098827	-0.494616	0.165867	0.001885	0.013847	-0.009621	0.004021
328	1.677664	0.005000	-0.166449	-0.147471	-10.173934	-0.494947	0.165978	0.002008	0.015729	-0.005192	0.000521
329	1.682664	0.005000	-0.224008	-0.184768	-10.308688	-0.495279	0.166088	0.002132	0.000648	-0.011594	-0.000905
330	1.687664	0.005000	-0.288520	-0.106161	-10.280880	-0.495610	0.166199	0.002255	-0.012745	-0.002269	0.002826
331	1.692664	0.005000	-0.212265	-0.094545	-10.139985	-0.495941	0.166309	0.002378	0.000851	-0.008697	0.006534
332	1.697664	0.005000	-0.235440	-0.039240	-10.163160	-0.496273	0.166419	0.002502	-0.010838	-0.008657	0.007985
333	1.702664	0.005000	-0.295288	-0.099088	-10.237690	-0.496604	0.166530	0.002625	-0.017232	-0.007054	0.001556
334	1.707664	0.005000	-0.274680	-0.061976	-10.264376	-0.496935	0.166640	0.002748	-0.001374	-0.006904	0.011181
335	1.712664	0.005000	-0.264009	0.039240	-10.195342	-0.497267	0.166751	0.002871	0.008585	-0.004903	0.002879
336	1.717664	0.005000	-0.302044	-0.023752	-10.362972	-0.497598	0.166861	0.002995	0.008186	-0.012311	0.003604
337	1.722664	0.005000	-0.313920	-0.068548	-10.280880	-0.497929	0.166971	0.003118	0.006549	-0.009210	-0.003281
338	1.727664	0.005000	-0.267163	-0.108549	-10.250811	-0.498261	0.167082	0.003241	0.009163	-0.010362	0.001177
339	1.732664	0.005000	-0.201706	-0.201706	-10.157654	-0.498450	0.167192	0.003207	0.010294	-0.025873	-0.000925
340	1.737664	0.005000	-0.317088	-0.186696	-10.202400	-0.498229	0.167303	0.002713	0.004145	-0.012951	0.000177
341	1.742664	0.005000	-0.312710	-0.038030	-10.282090	-0.498008	0.167413	0.002220	0.004633	-0.014011	-0.005490
342	1.747664	0.005000	-0.274680	-0.152185	-10.282074	-0.497787	0.167524	0.001726	0.010590	-0.014466	-0.005931
343	1.752664	0.005000	-0.203310	-0.114165	-10.277325	-0.497566	0.167634	0.001233	0.002424	-0.003330	0.000851
344	1.757664	0.005000	-0.302835	-0.072938	-10.207942	-0.497345	0.167745	0.000739	0.012227	-0.006859	-0.016089
345	1.762664	0.005000	-0.431640	-0.086438	-10.218316	-0.497124	0.167855	0.000246	0.004964	-0.004170	-0.001965
346	1.767664	0.005000	-0.313920	-0.117720	-10.251542	-0.496903	0.167966	-0.000248	0.008945	-0.008023	-0.004642
347	1.772664	0.005000	-0.353160	-0.039240	-10.121608	-0.496682	0.168077	-0.000741	0.000370	-0.010185	0.003706
348	1.777664	0.005000	-0.264515	-0.142423	-10.222731	-0.496461	0.168187	-0.001235	0.005335	-0.008861	0.006771
349	1.782664	0.005000	-0.280605	-0.117720	-10.235715	-0.496240	0.168298	-0.001728	0.011001	-0.011216	0.003771
350	1.787664	0.005000	-0.254289	-0.197743	-10.222791	-0.496020	0.168408	-0.002222	0.008368	-0.009451	0.004203
351	1.792664	0.005000	-0.274680	-0.081265	-10.184173	-0.495799	0.168519	-0.002716	-0.011716	-0.002576	0.002738
352	1.797664	0.005000	-0.274680	0.023425	-10.218215	-0.495578	0.168629	-0.003209	-0.013706	-0.011189	-0.009761
353	1.802664	0.005000	-0.209905	-0.051069	-10.306415	-0.495605	0.169153	-0.002964	-0.017769	-0.004708	0.008300
354	1.807664	0.005000	-0.207663	0.027777	-10.230177	-0.495715	0.169816	-0.002470	-0.004830	0.001060	-0.009413
355	1.812664	0.005000	-0.254258	-0.009409	-10.251049	-0.495826	0.170479	-0.001977	0.007871	-0.005759	-0.002034
356	1.817664	0.005000	-0.371088	-0.007104	-10.345152	-0.495936	0.171141	-0.001484	0.006998	-0.012502	-0.004315
357	1.822664	0.005000	-0.274680	-0.127916	-10.246738	-0.496047	0.171804	-0.000990	0.009737	-0.003528	-0.001026
358	1.827664	0.005000	-0.271925	-0.112210	-10.286390	-0.496157	0.172467	-0.000497	0.010723	-0.019408	-0.002776
359	1.832664	0.005000	-0.274680	-0.079490	-10.241977	-0.496268	0.173129	-0.000004	0.005082	-0.004415	-0.001748
360	1.837664	0.005000	-0.349946	-0.083301	-10.205614	-0.496378	0.173792	0.000489	0.006548	-0.012141	0.003856
361	1.842664	0.005000	-0.235440	-0.043203	-10.198437	-0.496489	0.174455	0.000983	0.001569	-0.004421	-0.006595
362	1.847664	0.005000	-0.241396	-0.060613	-10.235684	-0.496599	0.175117	0.001476	0.002929	-0.006577	-0.000343
363	1.852664	0.005000	-0.251959	-0.117720	-10.351101	-0.496710	0.175780	0.001969	-0.000926	-0.002582	-0.004363
364	1.857664	0.005000	-0.450272	-0.078480	-10.301488	-0.496820	0.176443	0.002463	-0.000727	-0.007446	-0.009563
365	1.862664	0.005000	-0.339356	-0.208918	-10.202400	-0.496931	0.177105	0.002956	-0.008960	-0.015670	-0.003660
366	1.867664	0.005000	-0.298974	-0.142014	-10.301423	-0.496963	0.177456	0.003275	-0.006405	-0.017228	-0.009641
367	1.872664	0.005000	-0.319018	-0.029043	-10.285978	-0.496742	0.176793	0.003028	-0.018536	-0.005794	0.015143
368	1.877664	0.005000	-0.333177	-0.000726	-10.241640	-0.496521	0.176130	0.002781	-0.015889	-0.002701	-0.001255
369	1.882664	0.005000	-0.274680	-0.017814	-10.263066	-0.496300	0.175467	0.002535	-0.012970	-0.000068	-0.002493
370	1.887664	0.005000	-0.313920	-0.015687	-10.320120	-0.496079	0.174804	0.002288	0.004833	-0.013505	-0.000599
371	1.892664	0.005000	-0.287005	-0.118853	-10.320120	-0.495858	0.174141	0.002041	0.002916	-0.009834	-0.000700
372	1.897664	0.005000	-0.274680	-0.263630	-10.320120	-0.495637	0.173478	0.001794	-0.002744	-0.007655	0.000861
373	1.902664	0.005000	-0.244441	-0.217439	-10.184399	-0.495416	0.172815	0.001548	-0.016726	-0.005030	-0.005730
374	1.907664	0.005000	-0.274680	-0.170341	-10.268402	-0.495195	0.172152	0.001301	-0.022021	-0.003143	0.008365
375	1.912664	0.005000	-0.318205	-0.187630	-10.385744	-0.494974	0.171489	0.001054	-0.019651	-0.008817	-0.000310
376	1.917664	0.005000	-0.274680	-0.080794	-10.287823	-0.494753	0.170826	0.000807	-0.015993	-0.003538	0.002666
377	1.922664	0.005000	-0.274680	-0.117720	-10.320242	-0.494532	0.170163	0.000560	0.002767	-0.014664	0.013321
378	1.927664	0.005000	-0.237446	-0.039240	-10.355349	-0.494311	0.169500	0.000314	-0.003337	-0.009877	-0.000517
379	1.932664	0.005000	-0.165806	-0.108874	-10.320120	-0.494090	0.168837	0.000067	0.000795	-0.008720	0.004254
380	1.937664	0.005000	-0.163788	-0.078480	-10.320120	-0.494352	0.168093	0.001528	0.006035	-0.032307	-0.014950
381	1.942664	0.005000	-0.257135	-0.030467	-10.289653	-0.494794	0.167320	0.003626	-0.001859	-0.013998	-0.003813
382	1.947664	0.005000	-0.285738	-0.039240	-10.207392	-0.495236	0.166546	0.005724	0.005226	-0.019784	0.005151
383	1.952664	0.005000	-0.300789	-0.091611	-10.228509	-0.495678	0.165773	0.007821	-0.003366	-0.006451	-0.002036
384	1.957664	0.005000	-0.337620	-0.133260	-10.241640	-0.496120	0.164999	0.009919	-0.000033	-0.009689	0.011056
385	1.962664	0.005000	-0.253184	0.025247	-10.223896	-0.496562	0.164226	0.012017	0.014323	-0.007687	-0.008378
386	1.967664	0.005000	-0.215545	0.019895	-10.300775	-0.497004	0.163452	0.014114	0.011300	-0.007486	0.001984
387	1.972664	0.005000	-0.257480	-0.117720	-10.241640	-0.497446	0.162679	0.016212	0.013247	-0.014628	0.000616
388	1.977664	0.005000	-0.289669	-0.126983	-10.256629	-0.497888	0.161905	0.018310	0.011501	-0.006741	0.005603
389	1.982664	0.005000	-0.288760	-0.169540	-10.321620	-0.498330	0.161132	0.020407	0.006312	-0.025310	0.001853
390	1.987664	0.005000	-0.264039	-0.153638	-10.252281	-0.498772	0.160358	0.022505	-0.006951	-0.000888	-0.005450
391	1.992664	0.005000	-0.274680	0.031006	-10.272646	-0.499214	0.159585	0.024603	-0.006192	-0.001808	-0.001260
392	1.997664	0.005000	-0.202490	-0.026660	-10.175740	-0.499656	0.158811	0.026700	0.001231	-0.011036	-0.003843
393	2.002664	0.005000	-0.160833	-0.156960	-10.210147	-0.500024	0.158307	0.028169	0.008927	-0.001985	0.007158
394	2.007664	0.005000	-0.237346	-0.192388	-10.314402	-0.500135	0.158749	0.027429	0.008185	-0.009915	-0.002608
395	2.012664	0.005000	-0.235915	-0.117720	-10.202400	-0.500246	0.159191	0.026688	-0.013920	-0.004029	0.000010
396	2.017664	0.005000	-0.268962	-0.075621	-10.208118	-0.500356	0.159633	0.025948	-0.007025	-0.006861	0.000545
397	2.022664	0.005000	-0.313920	-0.156960	-10.236804	-0.500467	0.160075	0.025208	-0.012241	-0.006837	-0.010214
398	2.027664	0.005000	-0.288990	-0.228285	-10.288035	-0.500577	0.160517	0.024467	-0.013821	-0.000505	0.007981
399	2.032664	0.005000	-0.313920	-0.075984	-10.299252	-0.500688	0.160959	0.023727	-0.006869	-0.008407	0.004134
400	2.037664	0.005000	-0.341559	-0.078480	-10.260403	-0.500798	0.161401	0.022987	-0.016549	-0.005914	-0.002765
401	2.042664	0.005000	-0.313920	-0.025696	-10.228096	-0.500909	0.161843	0.022246	-0.006932	-0.010396	0.003325
402	2.047664	0.005000	-0.228106	-0.015953	-10.257593	-0.501019	0.162285	0.021506	0.006590	-0.005765	-0.004016
403	2.052664	0.005000	-0.235440	-0.039240	-10.145007	-0.501130	0.162727	0.020765	-0.003103	-0.012313	0.003585
404	2.057664	0.005000	-0.276043	-0.059541	-10.241640	-0.501240	0.163169	0.020025	-0.005174	-0.007150	-0.004987
405	2.062664	0.005000	-0.212991	-0.061689	-10.252774	-0.501351	0.163611	0.019285	-0.000938	0.001164	-0.001270
406	2.067664	0.005000	-0.303850	0.053825	-10.148575	-0.501461	0.164053	0.018544	0.000761	-0.011999	-0.001855
407	2.072664	0.005000	-0.313920	0.081990	-10.175655	-0.501414	0.164337	0.017275	0.022591	-0.009401	-0.004607
408	2.077664	0.005000	-0.313920	-0.107493	-10.200731	-0.501303	0.164558	0.015794	0.024529	-0.006450	-0.003352
409	2.082664	0.005000	-0.211841	-0.117720	-10.084680	-0.501193	0.164779	0.014314	0.015842	0.005661	-0.006288
410	2.087664	0.005000	-0.347351	-0.162769	-10.141347	-0.501082	0.165000	0.012833	0.010700	-0.007065	-0.006859
411	2.092664	0.005000	-0.274680	-0.146580	-10.359360	-0.500972	0.165221	0.011352	-0.000547	-0.013343	-0.000514
412	2.097664	0.005000	-0.236938	-0.079978	-10.317125	-0.500861	0.165442	0.009872	-0.001382	-0.012931	-0.006474
413	2.102664	0.005000	-0.236328	-0.117720	-10.241640	-0.500751	0.165663	0.008391	0.006368	-0.009716	-0.003347
414	2.107664	0.005000	-0.277947	-0.189665	-10.231838	-0.500640	0.165884	0.006910	0.007533	-0.015412	-0.010763
415	2.112664	0.005000	-0.274680	-0.162209	-10.280880	-0.500530	0.166105	0.005429	0.002688	-0.009491	-0.000339
416	2.117664	0.005000	-0.274680	-0.133030	-10.297155	-0.500419	0.166326	0.003949	-0.003424	-0.001108	-0.001592
417	2.122664	0.005000	-0.284279	-0.097679	-10.260839	-0.500309	0.166547	0.002468	0.003443	0.002890	0.001122
418	2.127664	0.005000	-0.235440	-0.132954	-10.320120	-0.500198	0.166768	0.000987	0.003378	-0.006441	-0.001355
419	2.132664	0.005000	-0.285420	-0.210450	-10.280880	-0.500088	0.166989	-0.000493	-0.004684	-0.006859	0.000485
420	2.137664	0.005000	-0.392400	-0.235440	-10.274360	-0.500000	0.167187	-0.001693	-0.012207	-0.010079	0.000588
421	2.142664	0.005000	-0.313920	-0.076781	-10.320120	-0.500000	0.167297	-0.001816	-0.014193	-0.001527	-0.008247
422	2.147664	0.005000	-0.295395	-0.078480	-10.262355	-0.500000	0.167408	-0.001939	-0.009130	-0.007205	0.004169
423	2.152664	0.005000	-0.235440	-0.117720	-10.172266	-0.500000	0.167518	-0.002062	0.004505	-0.006669	0.001222
424	2.157664	0.005000	-0.208035	-0.145125	-10.253475	-0.500000	0.167629	-0.002186	0.012223	0.003665	-0.006109
425	2.162664	0.005000	-0.251164	-0.180476	-10.296604	-0.500000	0.167739	-0.002309	0.015836	-0.002926	0.000564
426	2.167664	0.005000	-0.313920	-0.117720	-10.280880	-0.500000	0.167850	-0.002432	0.011270	0.000533	-0.007938
427	2.172664	0.005000	-0.274680	-0.156960	-10.280880	-0.500000	0.167960	-0.002556	0.014738	-0.012085	0.011581
428	2.177664	0.005000	-0.313920	-0.117720	-10.305147	-0.500000	0.168071	-0.002679	0.011662	-0.012895	-0.000761
429	2.182664	0.005000	-0.347139	-0.156960	-10.350329	-0.500000	0.168181	-0.002802	0.005466	-0.014126	0.005783
430	2.187664	0.005000	-0.275323	-0.194914	-10.242283	-0.500000	0.168292	-0.002925	0.003888	-0.011495	-0.002720
431	2.192664	0.005000	-0.276435	-0.042750	-10.393336	-0.500000	0.168402	-0.003049	-0.007565	-0.005138	-0.010314
432	2.197664	0.005000	-0.278385	-0.035535	-10.320120	-0.500000	0.168513	-0.003172	0.003459	-0.011190	0.005720
433	2.202664	0.005000	-0.268629	-0.033189	-10.280880	-0.500000	0.168623	-0.003295	-0.008094	-0.011475	-0.007156
434	2.207664	0.005000	-0.282745	-0.156960	-10.288945	-0.499847	0.168504	-0.003247	0.000250	-0.000574	0.007432
435	2.212664	0.005000	-0.303448	-0.156960	-10.283529	-0.499626	0.168283	-0.003124	-0.009587	-0.023222	0.002383
436	2.217664	0.005000	-0.274680	-0.169377	-10.214817	-0.499405	0.168062	-0.003001	-0.004391	-0.003918	-0.006373
437	2.222664	0.005000	-0.299090	-0.132550	-10.163160	-0.499184	0.167841	-0.002877	0.002888	-0.017121	-0.002606
438	2.227664	0.005000	-0.313920	-0.151267	-10.280880	-0.498963	0.167620	-0.002754	0.007555	-0.011404	-0.004887
439	2.232664	0.005000	-0.294736	-0.039240	-10.222456	-0.498742	0.167399	-0.002631	0.006831	-0.001365	0.007774
440	2.237664	0.005000	-0.274680	-0.063384	-10.223528	-0.498521	0.167178	-0.002507	-0.001410	-0.006098	0.009718
441	2.242664	0.005000	-0.251142	-0.023538	-10.249476	-0.498300	0.166957	-0.002384	0.010685	-0.006546	-0.005642
442	2.247664	0.005000	-0.261081	-0.066439	-10.294479	-0.498079	0.166736	-0.002261	0.013109	-0.012727	0.007789
443	2.252664	0.005000	-0.235440	-0.083685	-10.252985	-0.497858	0.166515	-0.002137	-0.000899	-0.005859	-0.007612
444	2.257664	0.005000	-0.313920	-0.117720	-10.338696	-0.497637	0.166294	-0.002014	0.000092	-0.016749	0.006393
445	2.262664	0.005000	-0.313920	-0.046234	-10.299138	-0.497416	0.166073	-0.001891	-0.006658	-0.000238	-0.000820
446	2.267664	0.005000	-0.313920	-0.043818	-10.119342	-0.497195	0.165852	-0.001767	0.005745	-0.000902	0.010414
447	2.272664	0.005000	-0.272032	-0.162255	-10.207695	-0.497015	0.165734	-0.001713	-0.002477	-0.007445	0.004348
448	2.277664	0.005000	-0.274910	-0.235440	-10.318972	-0.497015	0.166065	-0.001960	-0.010269	-0.002333	0.007770
449	2.282664	0.005000	-0.313920	-0.235440	-10.274024	-0.497015	0.166397	-0.002207	-0.010293	-0.003225	0.003163
450	2.287664	0.005000	-0.239558	-0.156960	-10.171397	-0.497015	0.166728	-0.002453	-0.027091	-0.005972	-0.005361
451	2.292664	0.005000	-0.307857	-0.006063	-10.196337	-0.497015	0.167060	-0.002700	-0.020835	-0.007145	0.000371
452	2.297664	0.005000	-0.322399	-0.064676	-10.210879	-0.497015	0.167391	-0.002947	-0.014811	-0.008991	0.001908
453	2.302664	0.005000	-0.274680	-0.039240	-10.320120	-0.497015	0.167723	-0.003194	-0.013449	-0.006055	0.003615
454	2.307664	0.005000	-0.301090	-0.039990	-10.332950	-0.497015	0.168054	-0.003440	-0.003984	-0.013340	0.019000
455	2.312664	0.005000	-0.289747	-0.196200	-10.217467	-0.497015	0.168386	-0.003687	0.002208	-0.009717	0.001526
456	2.317664	0.005000	-0.218253	-0.100533	-10.312667	-0.497015	0.168717	-0.003934	0.004525	-0.014165	0.012377
457	2.322664	0.005000	-0.156446	-0.098357	-10.221763	-0.497015	0.169049	-0.004181	-0.004856	-0.006140	-0.005410
458	2.327664	0.005000	-0.174659	-0.156960	-10.255496	-0.497015	0.169380	-0.004428	0.000686	-0.007733	-0.001994
459	2.332664	0.005000	-0.187538	-0.126382	-10.187111	-0.497015	0.169711	-0.004674	-0.002890	-0.008059	0.004719
460	2.337664	0.005000	-0.262141	-0.131070	-10.189861	-0.497015	0.170043	-0.004921	0.008357	-0.002075	0.005629
461	2.342664	0.005000	-0.246383	-0.189788	-10.202400	-0.497015	0.169924	-0.004665	-0.004393	-0.013745	0.010538
462	2.347664	0.005000	-0.274680	-0.165855	-10.263090	-0.497015	0.169592	-0.004171	-0.022885	-0.013154	-0.001660
463	2.352664	0.005000	-0.202783	-0.150377	-10.208983	-0.497015	0.169261	-0.003678	-0.031714	-0.009622	0.006900
464	2.357664	0.005000	-0.200784	-0.156960	-10.167744	-0.497015	0.168930	-0.003184	-0.030668	-0.003009	0.001281
465	2.362664	0.005000	-0.272446	-0.228737	-10.248343	-0.497015	0.168598	-0.002691	-0.035498	-0.007523	-0.003462
466	2.367664	0.005000	-0.235440	-0.000545	-10.242185	-0.497015	0.168267	-0.002198	-0.022101	-0.010719	0.009303
467	2.372664	0.005000	-0.235440	-0.152705	-10.237385	-0.497015	0.167936	-0.001704	-0.017723	-0.010401	-0.001370
468	2.377664	0.005000	-0.304856	-0.087544	-10.202400	-0.497015	0.167605	-0.001211	-0.008559	-0.005272	0.008120
469	2.382664	0.005000	-0.320788	-0.182464	-10.352492	-0.497015	0.167273	-0.000718	-0.020223	-0.004340	-0.000128
470	2.387664	0.005000	-0.274680	-0.165852	-10.268315	-0.497015	0.166942	-0.000224	-0.026566	-0.012562	-0.003067
471	2.392664	0.005000	-0.285979	-0.140318	-10.387301	-0.497015	0.166611	0.000269	-0.021367	-0.010053	0.007447
472	2.397664	0.005000	-0.184068	-0.104166	-10.282302	-0.497015	0.166279	0.000763	-0.018544	-0.010176	0.003585
473	2.402664	0.005000	-0.133376	-0.156960	-10.241640	-0.497015	0.165948	0.001256	-0.018664	-0.001796	0.008703
474	2.407664	0.005000	-0.253290	-0.217590	-10.163160	-0.496997	0.165654	0.001667	-0.012885	-0.001905	-0.006842
475	2.412664	0.005000	-0.255443	-0.156960	-10.221637	-0.496886	0.165543	0.001667	-0.018098	-0.012625	-0.001306
476	2.417664	0.005000	-0.173786	-0.100894	-10.275292	-0.496775	0.165432	0.001667	-0.025154	-0.009379	-0.003410
477	2.422664	0.005000	-0.250144	-0.053944	-10.241640	-0.496665	0.165322	0.001667	-0.022464	-0.005748	-0.009400
478	2.427664	0.005000	-0.194379	-0.090953	-10.150687	-0.496554	0.165211	0.001667	-0.011663	-0.015719	-0.004528
479	2.432664	0.005000	-0.342752	-0.128128	-10.223215	-0.496444	0.165101	0.001667	-0.017233	-0.012186	-0.002137
480	2.437664	0.005000	-0.336931	-0.109606	-10.390486	-0.496333	0.164990	0.001667	-0.011455	-0.010794	0.003044
481	2.442664	0.005000	-0.241536	-0.039240	-10.314024	-0.496223	0.164880	0.001667	-0.004877	-0.015250	-0.011916
482	2.447664	0.005000	-0.313920	-0.117720	-10.269585	-0.496112	0.164769	0.001667	0.004253	-0.021899	-0.007238
483	2.452664	0.005000	-0.313920	-0.041935	-10.278185	-0.496002	0.164659	0.001667	-0.009070	-0.019418	-0.001862
484	2.457664	0.005000	-0.275277	-0.195006	-10.241043	-0.495891	0.164548	0.001667	-0.005187	-0.010354	-0.009992
485	2.462664	0.005000	-0.277645	-0.045170	-10.283845	-0.495781	0.164438	0.001667	-0.018857	-0.008502	0.008254
486	2.467664	0.005000	-0.274680	-0.078480	-10.251530	-0.495670	0.164327	0.001667	-0.009951	-0.010228	-0.008431
487	2.472664	0.005000	-0.249992	-0.196200	-10.320120	-0.495560	0.164217	0.001667	-0.007077	-0.010668	-0.001810
488	2.477664	0.005000	-0.274680	-0.087773	-10.280880	-0.495522	0.164470	0.001504	0.006281	-0.011884	-0.000676
489	2.482664	0.005000	-0.262972	-0.066772	-10.225815	-0.495522	0.164912	0.001257	0.009883	-0.007495	0.006434
490	2.487664	0.005000	-0.313920	-0.117720	-10.229703	-0.495522	0.165354	0.001011	0.012521	-0.006803	0.001037
491	2.492664	0.005000	-0.290740	-0.094540	-10.250581	-0.495522	0.165796	0.000764	0.002063	0.002007	-0.000887
492	2.497664	0.005000	-0.274680	-0.002723	-10.220659	-0.495522	0.166238	0.000517	0.004560	-0.011074	-0.001485
493	2.502664	0.005000	-0.216616	-0.098896	-10.163160	-0.495522	0.166679	0.000271	-0.001647	-0.008681	0.002329
494	2.507664	0.005000	-0.291365	-0.179515	-10.297565	-0.495522	0.167121	0.000024	-0.010790	-0.001576	-0.000347
495	2.512664	0.005000	-0.245744	-0.196200	-10.305652	-0.495522	0.167563	-0.000223	-0.004700	-0.016750	-0.002701
496	2.517664	0.005000	-0.235440	-0.129780	-10.241640	-0.495522	0.168005	-0.000470	-0.011607	-0.003780	-0.006968
497	2.522664	0.005000	-0.313920	-0.137718	-10.221642	-0.495522	0.168447	-0.000716	-0.016906	-0.011221	0.002419
498	2.527664	0.005000	-0.266979	-0.125421	-10.217802	-0.495522	0.168888	-0.000963	-0.013134	-0.012828	-0.008885
499	2.532664	0.005000	-0.264089	-0.156960	-10.270289	-0.495522	0.169330	-0.001210	-0.024984	-0.013296	-0.001017
500	2.537664	0.005000	-0.199513	-0.114407	-10.313494	-0.495522	0.169772	-0.001456	-0.018626	-0.011763	-0.000648
501	2.542664	0.005000	-0.275614	-0.154158	-10.282748	-0.495506	0.170117	-0.001649	-0.017696	-0.007937	-0.002632
502	2.547664	0.005000	-0.237430	-0.039240	-10.244625	-0.495395	0.169896	-0.001525	-0.010765	-0.014661	0.010223
503	2.552664	0.005000	-0.274680	0.039240	-10.277467	-0.495285	0.169675	-0.001402	-0.007566	-0.013684	-0.007767
504	2.557664	0.005000	-0.196200	-0.039240	-10.365108	-0.495174	0.169454	-0.001279	-0.015409	-0.011164	-0.004865
505	2.562664	0.005000	-0.290633	-0.078480	-10.280880	-0.495064	0.169233	-0.001155	-0.017031	-0.007367	-0.016011
506	2.567664	0.005000	-0.313920	-0.010177	-10.260525	-0.494954	0.169012	-0.001032	-0.020124	-0.013404	0.000547
507	2.572664	0.005000	-0.313920	-0.210571	-10.280880	-0.494843	0.168791	-0.000908	-0.021107	-0.009745	0.003319
508	2.577664	0.005000	-0.328449	-0.196200	-10.295409	-0.494733	0.168570	-0.000785	-0.025413	-0.006985	-0.008513
509	2.582664	0.005000	-0.313920	-0.100778	-10.359360	-0.494622	0.168349	-0.000662	-0.021233	-0.018864	0.006989
510	2.587664	0.005000	-0.254325	-0.037771	-10.356422	-0.494512	0.168128	-0.000538	-0.020710	-0.005567	-0.005391
511	2.592664	0.005000	-0.253384	-0.053831	-10.277527	-0.494401	0.167907	-0.000415	-0.020200	-0.011133	0.007641
512	2.597664	0.005000	-0.266496	-0.086664	-10.327744	-0.494291	0.167686	-0.000291	-0.015479	-0.013364	0.004839
513	2.602664	0.005000	-0.197730	-0.169020	-10.280880	-0.494180	0.167465	-0.000168	-0.012789	-0.004033	-0.000412
514	2.607664	0.005000	-0.325096	-0.089656	-10.359360	-0.494070	0.167244	-0.000045	-0.018083	-0.009640	0.002882
515	2.612664	0.005000	-0.343928	-0.186968	-10.320120	-0.494312	0.167235	0.000237	-0.016325	-0.015418	-0.009258
516	2.617664	0.005000	-0.203028	-0.150132	-10.287708	-0.494754	0.167345	0.000607	-0.012807	-0.013660	-0.004922
517	2.622664	0.005000	-0.274680	-0.122546	-10.280880	-0.495196	0.167456	0.000977	-0.008218	-0.010822	-0.015246
518	2.627664	0.005000	-0.277159	-0.159439	-10.239161	-0.495638	0.167566	0.001347	-0.007762	-0.003426	0.000447
519	2.632664	0.005000	-0.313920	-0.158019	-10.164219	-0.496080	0.167677	0.001717	-0.009162	-0.003343	0.007627
520	2.637664	0.005000	-0.239205	-0.160725	-10.316355	-0.496521	0.167787	0.002087	-0.009602	0.006063	0.001311
521	2.642664	0.005000	-0.248147	-0.148489	-10.315884	-0.496963	0.167898	0.002457	-0.002493	-0.016485	0.012646
522	2.647664	0.005000	-0.301458	-0.156960	-10.274649	-0.497405	0.168008	0.002827	-0.009515	-0.011441	-0.004462
523	2.652664	0.005000	-0.274680	-0.235440	-10.280880	-0.497847	0.168119	0.003197	-0.008877	-0.005065	-0.004108
524	2.657664	0.005000	-0.303329	-0.206791	-10.252231	-0.498289	0.168229	0.003567	-0.011864	-0.010264	0.002291
525	2.662664	0.005000	-0.287678	-0.183202	-10.281125	-0.498730	0.168340	0.003937	-0.023258	-0.008333	-0.002124
526	2.667664	0.005000	-0.259737	-0.078480	-10.280880	-0.499172	0.168450	0.004307	-0.025823	-0.005288	0.007083
527	2.672664	0.005000	-0.274680	-0.122250	-10.359360	-0.499614	0.168560	0.004677	-0.015307	-0.005403	0.001608
528	2.677664	0.005000	-0.333861	-0.137019	-10.280880	-0.499930	0.168643	0.005016	-0.008904	-0.008706	-0.000755
529	2.682664	0.005000	-0.257150	-0.078480	-10.298410	-0.499378	0.168532	0.005139	-0.005386	-0.013925	0.000868
530	2.687664	0.005000	-0.259280	-0.023840	-10.280880	-0.498825	0.168422	0.005262	-0.008741	-0.019076	-0.001675
531	2.692664	0.005000	-0.235440	0.000306	-10.294062	-0.498273	0.168311	0.005386	-0.013351	-0.007665	0.007257
532	2.697664	0.005000	-0.257647	-0.005930	-10.269777	-0.497720	0.168201	0.005509	-0.017618	-0.004887	-0.004798
533	2.702664	0.005000	-0.344329	0.051988	-10.093511	-0.497168	0.168090	0.005633	-0.004289	-0.011809	0.009667
534	2.707664	0.005000	-0.281095	-0.091310	-10.280880	-0.496615	0.167980	0.005756	0.006948	-0.002936	-0.001527
535	2.712664	0.005000	-0.309503	-0.191783	-10.211234	-0.496063	0.167869	0.005880	0.008606	-0.013136	0.004192
536	2.717664	0.005000	-0.200332	-0.113588	-10.278814	-0.495510	0.167759	0.006003	-0.002452	-0.018764	-0.004081
537	2.722664	0.005000	-0.274438	-0.078722	-10.320241	-0.494957	0.167648	0.006126	-0.011771	0.001127	0.001341
538	2.727664	0.005000	-0.270089	-0.120016	-10.322416	-0.494405	0.167538	0.006250	0.009882	-0.006743	0.003191
539	2.732664	0.005000	-0.196200	-0.043479	-10.320120	-0.493852	0.167427	0.006373	0.002103	-0.003558	0.001008
540	2.737664	0.005000	-0.268035	-0.189555	-10.248285	-0.493300	0.167317	0.006497	0.007024	-0.006929	-0.001104
541	2.742664	0.005000	-0.266091	-0.165549	-10.228167	-0.492747	0.167206	0.006620	-0.005647	-0.011065	0.004591
542	2.747664	0.005000	-0.246444	-0.196200	-10.252644	-0.492811	0.167232	0.007202	-0.011936	0.003360	0.008191
543	2.752664	0.005000	-0.287417	-0.130971	-10.216166	-0.493253	0.167343	0.008066	-0.030641	-0.025725	-0.002622
544	2.757664	0.005000	-0.337804	-0.063124	-10.280880	-0.493695	0.167454	0.008929	-0.024711	-0.001313	-0.003432
545	2.762664	0.005000	-0.209603	-0.096028	-10.224092	-0.494137	0.167564	0.009793	-0.004983	-0.011590	0.004108
546	2.767664	0.005000	-0.196200	-0.156960	-10.202400	-0.494579	0.167675	0.010657	-0.018146	-0.005231	-0.005385
547	2.772664	0.005000	-0.313920	-0.134845	-10.219525	-0.495021	0.167785	0.011520	-0.026535	-0.007388	0.000391
548	2.777664	0.005000	-0.320225	-0.156960	-10.199829	-0.495463	0.167896	0.012384	-0.023552	-0.016130	0.005902
549	2.782664	0.005000	-0.405169	-0.092183	-10.293649	-0.495905	0.168006	0.013248	-0.036138	-0.011162	-0.001703
550	2.787664	0.005000	-0.303225	-0.010695	-10.202400	-0.496347	0.168117	0.014111	-0.036092	-0.009939	0.016268
551	2.792664	0.005000	-0.305503	-0.030823	-10.224805	-0.496789	0.168227	0.014975	-0.028745	-0.007032	-0.000793
552	2.797664	0.005000	-0.229041	-0.019196	-10.123920	-0.497231	0.168338	0.015839	-0.019930	-0.004359	0.001227
553	2.802664	0.005000	-0.243554	0.004057	-10.194286	-0.497673	0.168448	0.016703	-0.020182	-0.018725	-0.002302
554	2.807664	0.005000	-0.351072	-0.035065	-10.165248	-0.498115	0.168559	0.017566	-0.027568	-0.011365	0.001405
555	2.812664	0.005000	-0.352869	0.000291	-10.241349	-0.498594	0.168595	0.018430	-0.019263	-0.009391	0.002371
556	2.817664	0.005000	-0.164993	-0.039240	-10.283558	-0.499367	0.168042	0.019294	-0.017051	-0.004716	-0.009855
557	2.822664	0.005000	-0.196200	0.073828	-10.236988	-0.500141	0.167490	0.020157	-0.007934	-0.005807	0.006112
558	2.827664	0.005000	-0.221324	-0.046298	-10.138036	-0.500914	0.166937	0.021021	0.007461	-0.002165	-0.001315
559	2.832664	0.005000	-0.226441	-0.108721	-10.293123	-0.501688	0.166385	0.021885	0.001389	-0.014080	-0.012237
560	2.837664	0.005000	-0.353160	-0.117720	-10.213806	-0.502461	0.165832	0.022749	-0.005445	-0.013553	0.007982
561	2.842664	0.005000	-0.313920	-0.144421	-10.189861	-0.503235	0.165280	0.023612	-0.020127	-0.002861	0.000920
562	2.847664	0.005000	-0.258917	-0.039240	-10.163160	-0.504008	0.164727	0.024476	-0.016558	-0.012879	0.014050
563	2.852664	0.005000	-0.256724	-0.057196	-10.244968	-0.504782	0.164175	0.025340	-0.017152	-0.003475	-0.009942
564	2.857664	0.005000	-0.254562	-0.039240	-10.379478	-0.505555	0.163622	0.026204	-0.015340	-0.014397	0.006590
565	2.862664	0.005000	-0.268864	-0.033424	-10.376072	-0.506329	0.163070	0.027068	-0.012916	-0.009578	0.003623
566	2.867664	0.005000	-0.259911	-0.054009	-10.290583	-0.507102	0.162517	0.027931	-0.015887	-0.007773	-0.005579
567	2.872664	0.005000	-0.169315	-0.090835	-10.229285	-0.507876	0.161965	0.028795	-0.012588	-0.014784	0.014908
568	2.877664	0.005000	-0.128131	0.008007	-10.241640	-0.508649	0.161412	0.029659	-0.011226	-0.005106	0.000546
569	2.882664	0.005000	-0.204204	-0.078480	-10.296888	-0.508487	0.161395	0.028880	-0.003480	-0.009393	0.001944
570	2.887664	0.005000	-0.247421	-0.129701	-10.326110	-0.507713	0.161726	0.027029	-0.005071	-0.001268	-0.014286
571	2.892664	0.005000	-0.313920	-0.185269	-10.359360	-0.506940	0.162058	0.025178	-0.004648	-0.007704	-0.008720
572	2.897664	0.005000	-0.351920	-0.039240	-10.317640	-0.506166	0.162389	0.023328	-0.009851	-0.008400	-0.006110
573	2.902664	0.005000	-0.313920	-0.039240	-10.241640	-0.505393	0.162721	0.021477	-0.019240	-0.009724	-0.005062
574	2.907664	0.005000	-0.307704	-0.078480	-10.139460	-0.504619	0.163052	0.019626	-0.020241	-0.013977	0.008331
575	2.912664	0.005000	-0.318972	0.063323	-10.236588	-0.503846	0.163384	0.017775	-0.025995	-0.012473	-0.005119
576	2.917664	0.005000	-0.282148	-0.063543	-10.241640	-0.503072	0.163715	0.015924	-0.023174	-0.001083	0.005878
577	2.922664	0.005000	-0.304163	-0.039240	-10.290637	-0.502299	0.164047	0.014073	-0.011949	-0.001872	0.005500
578	2.927664	0.005000	-0.313920	-0.105901	-10.288918	-0.501525	0.164378	0.012222	-0.027595	-0.006314	-0.006313
579	2.932664	0.005000	-0.249508	-0.078480	-10.331223	-0.500752	0.164710	0.010371	-0.037036	-0.026935	-0.002081
580	2.937664	0.005000	-0.258503	-0.055417	-10.250930	-0.499978	0.165041	0.008520	-0.042371	-0.008879	0.002474
581	2.942664	0.005000	-0.256093	0.000000	-10.181747	-0.499205	0.165373	0.006670	-0.025064	-0.005279	0.011279
582	2.947664	0.005000	-0.295211	0.016887	-10.221109	-0.498475	0.165726	0.004964	-0.023537	-0.004220	-0.000485
583	2.952664	0.005000	-0.251739	0.039240	-10.254924	-0.498143	0.166278	0.004594	-0.022678	-0.006373	0.002806
584	2.957664	0.005000	-0.182011	-0.053429	-10.270019	-0.497812	0.166831	0.004224	-0.022683	-0.010331	-0.001731
585	2.962664	0.005000	-0.274680	0.011942	-10.292822	-0.497481	0.167383	0.003854	-0.033868	0.001290	-0.011775
586	2.967664	0.005000	-0.244978	0.009538	-10.281967	-0.497149	0.167935	0.003484	-0.025284	-0.007107	0.002770
587	2.972664	0.005000	-0.203703	-0.007503	-10.170663	-0.496818	0.168487	0.003114	-0.024854	-0.016722	-0.006376
588	2.977664	0.005000	-0.206576	0.000000	-10.252016	-0.496487	0.169039	0.002744	-0.019321	-0.010438	0.003761
589	2.982664	0.005000	-0.271473	-0.009621	-10.320120	-0.496155	0.169592	0.002374	-0.008884	-0.013398	-0.002881
590	2.987664	0.005000	-0.273853	-0.079307	-10.201573	-0.495824	0.170144	0.002004	-0.017858	-0.010358	0.000369
591	2.992664	0.005000	-0.273122	-0.042356	-10.163160	-0.495493	0.170696	0.001634	-0.019638	-0.013722	0.007236
592	2.997664	0.005000	-0.271159	-0.035719	-10.198879	-0.495161	0.171248	0.001264	-0.022219	-0.009660	-0.007872
593	3.002664	0.005000	-0.241378	-0.117720	-10.229764	-0.494830	0.171800	0.000894	-0.025135	-0.013382	0.008213
594	3.007664	0.005000	-0.235440	-0.171467	-10.241640	-0.494499	0.172353	0.000524	-0.021098	-0.009910	-0.002816
595	3.012664	0.005000	-0.272766	-0.138297	-10.291168	-0.494168	0.172905	0.000154	-0.037206	0.005548	-0.003990
596	3.017664	0.005000	-0.262124	0.091036	-10.307564	-0.494159	0.173069	0.000000	-0.039047	-0.015366	-0.006088
597	3.022664	0.005000	-0.313920	-0.039240	-10.305474	-0.494380	0.172959	0.000000	-0.034215	-0.006643	-0.004776
598	3.027664	0.005000	-0.291736	-0.112591	-10.291138	-0.494601	0.172848	0.000000	-0.021995	-0.012951	0.011309
599	3.032664	0.005000	-0.294920	-0.177200	-10.298640	-0.494823	0.172738	0.000000	-0.015139	-0.007850	0.000478
600	3.037664	0.005000	-0.349593	-0.142691	-10.145324	-0.495044	0.172627	0.000000	-0.016187	-0.014129	0.004322
601	3.042664	0.005000	-0.321756	-0.109854	-10.170996	-0.495265	0.172517	0.000000	-0.006800	-0.003913	-0.006524
602	3.047664	0.005000	-0.129994	0.000000	-10.253914	-0.495486	0.172406	0.000000	-0.020309	-0.006584	-0.004050
603	3.052664	0.005000	-0.207269	0.067411	-10.258741	-0.495707	0.172296	0.000000	-0.018919	-0.004523	0.001988
604	3.057664	0.005000	-0.265664	0.018032	-10.202400	-0.495928	0.172185	0.000000	-0.008761	-0.011180	-0.009250
605	3.062664	0.005000	-0.274680	0.111001	-10.241640	-0.496149	0.172075	0.000000	-0.011613	-0.005854	0.005628
606	3.067664	0.005000	-0.230720	-0.014159	-10.324840	-0.496370	0.171964	0.000000	-0.007172	-0.004426	-0.002188
607	3.072664	0.005000	-0.200916	-0.078480	-10.278522	-0.496591	0.171854	0.000000	-0.018497	-0.009665	-0.011590
608	3.077664	0.005000	-0.234623	-0.118128	-10.243274	-0.496812	0.171743	0.000000	-0.007121	0.001878	-0.002205
609	3.082664	0.005000	-0.268709	-0.082461	-10.286851	-0.497006	0.171633	0.000021	-0.018057	0.000436	-0.000613
610	3.087664	0.005000	-0.313920	-0.052310	-10.254710	-0.496895	0.171522	0.000267	-0.022315	-0.011098	-0.000532
611	3.092664	0.005000	-0.313920	0.072129	-10.241640	-0.496785	0.171412	0.000514	-0.010307	-0.013222	-0.008888
612	3.097664	0.005000	-0.244093	-0.008653	-10.193747	-0.496674	0.171301	0.000761	-0.006544	-0.013637	-0.000523
613	3.102664	0.005000	-0.217604	-0.010702	-10.263044	-0.496564	0.171191	0.001007	-0.005079	-0.011366	-0.004665
614	3.107664	0.005000	-0.222476	0.000000	-10.280880	-0.496453	0.171080	0.001254	-0.014211	-0.002447	-0.013982
615	3.112664	0.005000	-0.283242	-0.102381	-10.163160	-0.496343	0.170970	0.001501	-0.017165	-0.016136	0.013053
616	3.117664	0.005000	-0.270364	-0.043556	-10.285196	-0.496232	0.170859	0.001747	-0.022599	-0.008151	-0.002133
617	3.122664	0.005000	-0.254846	-0.098314	-10.280880	-0.496122	0.170749	0.001994	-0.029319	0.000001	0.000762
618	3.127664	0.005000	-0.274680	-0.074086	-10.232852	-0.496011	0.170638	0.002240	-0.031952	-0.005869	-0.003600
619	3.132664	0.005000	-0.244093	-0.093774	-10.352719	-0.495901	0.170528	0.002487	-0.025864	-0.008768	-0.001892
620	3.137664	0.005000	-0.248510	0.091550	-10.280911	-0.495790	0.170417	0.002734	-0.005596	-0.007718	-0.005113
621	3.142664	0.005000	-0.257435	-0.061235	-10.163160	-0.495680	0.170307	0.002980	-0.011044	-0.007912	-0.012985
622	3.147664	0.005000	-0.313920	-0.135143	-10.132631	-0.495569	0.170196	0.003227	-0.010645	-0.009253	0.006418
623	3.152664	0.005000	-0.268375	-0.131739	-10.142836	-0.495774	0.170149	0.003263	-0.020558	-0.018904	0.005018
624	3.157664	0.005000	-0.270369	-0.082791	-10.298125	-0.496217	0.170149	0.003139	-0.027641	-0.011606	0.003474
625	3.162664	0.005000	-0.239329	-0.037296	-10.322064	-0.496659	0.170149	0.003016	-0.032420	-0.007718	-0.001201
626	3.167664	0.005000	-0.196200	-0.039240	-10.320120	-0.497101	0.170149	0.002892	-0.022647	-0.004873	-0.003266
627	3.172664	0.005000	-0.269873	0.112913	-10.288091	-0.497543	0.170149	0.002769	-0.003318	-0.013040	0.011451
628	3.177664	0.005000	-0.240205	-0.034475	-10.285645	-0.497986	0.170149	0.002646	0.000234	-0.007870	-0.002184
629	3.182664	0.005000	-0.307168	-0.085232	-10.248392	-0.498428	0.170149	0.002522	-0.000516	-0.013960	0.005782
630	3.187664	0.005000	-0.353160	-0.138838	-10.371416	-0.498870	0.170149	0.002399	-0.007078	-0.005909	0.000477
631	3.192664	0.005000	-0.330938	-0.128831	-10.185382	-0.499312	0.170149	0.002275	-0.020678	-0.015750	0.009659
632	3.197664	0.005000	-0.196200	-0.025883	-10.214925	-0.499755	0.170149	0.002152	-0.036511	-0.021380	0.004068
633	3.202664	0.005000	-0.235440	0.000000	-10.202400	-0.500197	0.170149	0.002029	-0.047915	-0.014077	-0.008443
634	3.207664	0.005000	-0.257011	0.021571	-10.145491	-0.500639	0.170149	0.001905	-0.025196	-0.013472	0.013853
635	3.212664	0.005000	-0.274680	0.000000	-10.221423	-0.501082	0.170149	0.001782	-0.015089	-0.004119	0.003122
636	3.217664	0.005000	-0.274680	0.012586	-10.219675	-0.501462	0.170080	0.001650	-0.022843	-0.004244	0.012250
637	3.222664	0.005000	-0.274680	0.196200	-10.069615	-0.501020	0.169086	0.001403	-0.016907	-0.006010	0.005619
638	3.227664	0.005000	-0.248097	0.093677	-10.240370	-0.500579	0.168092	0.001156	-0.015949	-0.000172	-0.006118
639	3.232664	0.005000	-0.235440	-0.057302	-10.231051	-0.500137	0.167098	0.000910	-0.006531	-0.014768	-0.005308
640	3.237664	0.005000	-0.243738	-0.022644	-10.146564	-0.499695	0.166104	0.000663	-0.009011	-0.000284	0.003309
641	3.242664	0.005000	-0.229548	-0.066696	-10.163160	-0.499253	0.165109	0.000416	-0.004599	-0.014495	0.000949
642	3.247664	0.005000	-0.282580	-0.117720	-10.312220	-0.498811	0.164115	0.000169	-0.007996	-0.013468	-0.003858
643	3.252664	0.005000	-0.312374	-0.078480	-10.207037	-0.498369	0.163121	-0.000077	-0.008370	-0.002739	-0.001143
644	3.257664	0.005000	-0.235838	-0.039638	-10.203594	-0.497927	0.162127	-0.000324	0.004202	-0.006301	-0.001834
645	3.262664	0.005000	-0.274680	-0.067346	-10.241640	-0.497485	0.161133	-0.000571	0.000165	0.004088	0.004994
646	3.267664	0.005000	-0.200960	-0.152200	-10.241640	-0.497044	0.160139	-0.000817	0.002891	-0.003175	0.008564
647	3.272664	0.005000	-0.274680	-0.189035	-10.352195	-0.496602	0.159145	-0.001064	0.003392	-0.003035	-0.012740
648	3.277664	0.005000	-0.244550	-0.226330	-10.350250	-0.496160	0.158151	-0.001311	-0.019337	-0.015572	-0.005838
649	3.282664	0.005000	-0.263156	-0.191532	-10.220780	-0.495718	0.157157	-0.001558	-0.014001	-0.003778	-0.000227
650	3.287664	0.005000	-0.223135	-0.091948	-10.279717	-0.495768	0.157208	-0.001667	-0.028466	-0.005042	-0.007640
651	3.292664	0.005000	-0.212077	-0.085967	-10.179037	-0.496210	0.158091	-0.001667	-0.025984	-0.011089	0.009320
652	3.297664	0.005000	-0.277766	-0.156960	-10.298957	-0.496652	0.158975	-0.001667	-0.023718	-0.006457	-0.003833
653	3.302664	0.005000	-0.255672	-0.117720	-10.318896	-0.497093	0.159859	-0.001667	-0.012064	-0.005457	0.004361
654	3.307664	0.005000	-0.235440	-0.163008	-10.208448	-0.497535	0.160742	-0.001667	-0.020625	-0.008533	0.000311
655	3.312664	0.005000	-0.313920	-0.068544	-10.113984	-0.497977	0.161626	-0.001667	-0.031917	-0.008709	-0.000681
656	3.317664	0.005000	-0.286928	-0.117720	-10.190152	-0.498419	0.162510	-0.001667	-0.025540	-0.010423	0.005837
657	3.322664	0.005000	-0.303616	0.000000	-10.223008	-0.498861	0.163393	-0.001667	-0.020038	-0.010019	-0.005165
658	3.327664	0.005000	-0.227543	-0.023691	-10.249537	-0.499303	0.164277	-0.001667	-0.030427	-0.013009	0.011116
659	3.332664	0.005000	-0.235440	0.045124	-10.375062	-0.499745	0.165161	-0.001667	-0.032247	-0.008441	-0.002055
660	3.337664	0.005000	-0.271143	0.007073	-10.127457	-0.500186	0.166044	-0.001667	-0.027764	-0.005073	-0.002636
661	3.342664	0.005000	-0.235440	0.117720	-10.120774	-0.500628	0.166928	-0.001667	-0.012693	-0.011172	0.002003
662	3.347664	0.005000	-0.235440	0.117720	-10.045440	-0.501070	0.167812	-0.001667	-0.012774	-0.001992	-0.003360
663	3.352664	0.005000	-0.238196	-0.033728	-10.196888	-0.501464	0.168657	-0.001640	-0.014704	-0.012785	0.002560
664	3.357664	0.005000	-0.274680	0.112547	-10.270534	-0.500802	0.168657	-0.001024	-0.017176	-0.001914	-0.006264
665	3.362664	0.005000	-0.203316	-0.032124	-10.262989	-0.500139	0.168657	-0.000407	-0.008505	-0.008496	0.001869
666	3.367664	0.005000	-0.255634	-0.117720	-10.172683	-0.499476	0.168657	0.000210	-0.005451	-0.009937	-0.005640
667	3.372664	0.005000	-0.263213	-0.067013	-10.269413	-0.498813	0.168657	0.000827	-0.015770	-0.000552	-0.004083
668	3.377664	0.005000	-0.313920	-0.207678	-10.283283	-0.498151	0.168657	0.001443	-0.008352	-0.007389	-0.004108
669	3.382664	0.005000	-0.283726	-0.078480	-10.280880	-0.497488	0.168657	0.002060	-0.027340	-0.014781	-0.012167
670	3.387664	0.005000	-0.295686	-0.114949	-10.220634	-0.496825	0.168657	0.002677	-0.032492	-0.009235	0.012944
671	3.392664	0.005000	-0.293282	0.074407	-10.241640	-0.496162	0.168657	0.003294	-0.040934	-0.017973	0.000494
672	3.397664	0.005000	-0.347235	-0.049972	-10.336777	-0.495499	0.168657	0.003910	-0.032946	-0.011283	-0.008146
673	3.402664	0.005000	-0.313920	-0.089224	-10.241640	-0.494837	0.168657	0.004527	-0.031430	-0.003217	-0.003315
674	3.407664	0.005000	-0.313920	0.012162	-10.232231	-0.494174	0.168657	0.005144	-0.032219	0.000240	0.000537
675	3.412664	0.005000	-0.274680	0.029468	-10.163160	-0.493511	0.168657	0.005761	-0.027282	-0.009962	0.009568
676	3.417664	0.005000	-0.257891	-0.024272	-10.249124	-0.492848	0.168657	0.006377	-0.028255	-0.019937	-0.007560
677	3.422664	0.005000	-0.348092	0.102517	-10.192265	-0.492537	0.168657	0.006405	-0.028430	-0.011032	0.005239
678	3.427664	0.005000	-0.271557	-0.042363	-10.163160	-0.492537	0.168657	0.005912	-0.016141	-0.019809	0.001347
679	3.432664	0.005000	-0.275399	-0.078480	-10.203119	-0.492537	0.168657	0.005418	0.000056	-0.004654	-0.019672
680	3.437664	0.005000	-0.275905	-0.078480	-10.203625	-0.492537	0.168657	0.004925	0.002251	-0.003941	0.001444
681	3.442664	0.005000	-0.235440	-0.046441	-10.202400	-0.492537	0.168657	0.004431	-0.010569	-0.001221	-0.002748
682	3.447664	0.005000	-0.274680	0.005586	-10.269708	-0.492537	0.168657	0.003937	-0.023564	-0.011203	0.004512
683	3.452664	0.005000	-0.266688	-0.109728	-10.265616	-0.492537	0.168657	0.003444	-0.031046	-0.001282	-0.006395
684	3.457664	0.005000	-0.313920	-0.049527	-10.388313	-0.492537	0.168657	0.002950	-0.033324	0.005892	0.000449
685	3.462664	0.005000	-0.260120	-0.012340	-10.241640	-0.492537	0.168657	0.002457	-0.025415	-0.005072	0.000380
686	3.467664	0.005000	-0.260097	0.000000	-10.241640	-0.492537	0.168657	0.001963	-0.024665	-0.003479	-0.004798
687	3.472664	0.005000	-0.229594	-0.067629	-10.202400	-0.492537	0.168657	0.001469	-0.015251	-0.010828	-0.000068
688	3.477664	0.005000	-0.197226	-0.019107	-10.143027	-0.492537	0.168657	0.000976	-0.025180	-0.004134	-0.004812
689	3.482664	0.005000	-0.235440	-0.078480	-10.280880	-0.492537	0.168657	0.000482	-0.023901	-0.002541	-0.006570
690	3.487664	0.005000	-0.258901	-0.039240	-10.288563	-0.492540	0.168644	0.000014	-0.022719	-0.015124	-0.000107
691	3.492664	0.005000	-0.235440	-0.104045	-10.163160	-0.492650	0.168092	0.000631	-0.045815	-0.014551	-0.008101
692	3.497664	0.005000	-0.313920	-0.022843	-10.197424	-0.492761	0.167540	0.001247	-0.036104	-0.006208	0.011130
693	3.502664	0.005000	-0.274680	0.009364	-10.331269	-0.492871	0.166987	0.001864	-0.023131	-0.005725	-0.009625
694	3.507664	0.005000	-0.178172	-0.046311	-10.223612	-0.492981	0.166435	0.002481	-0.027281	-0.012994	0.005456
695	3.512664	0.005000	-0.270026	-0.182237	-10.359360	-0.493092	0.165883	0.003097	-0.022799	-0.008769	-0.005002
696	3.517664	0.005000	-0.272002	-0.031207	-10.283558	-0.493202	0.165331	0.003714	-0.035111	-0.008579	-0.003182
697	3.522664	0.005000	-0.195894	0.117720	-10.280880	-0.493313	0.164778	0.004331	-0.022991	-0.008596	-0.001159
698	3.527664	0.005000	-0.194562	0.117720	-10.243278	-0.493423	0.164226	0.004947	-0.015832	-0.007597	-0.013187
699	3.532664	0.005000	-0.270638	0.086564	-10.280880	-0.493534	0.163674	0.005564	-0.004826	-0.005395	0.002918
700	3.537664	0.005000	-0.248207	-0.117720	-10.254407	-0.493644	0.163122	0.006181	0.004233	-0.009182	-0.003060
701	3.542664	0.005000	-0.283082	-0.047642	-10.233238	-0.493755	0.162569	0.006797	-0.002382	-0.008088	0.005510
702	3.547664	0.005000	-0.342480	-0.089160	-10.270200	-0.493865	0.162017	0.007414	-0.023334	-0.008308	-0.000387
703	3.552664	0.005000	-0.313920	0.000000	-10.149427	-0.493976	0.161465	0.008031	-0.026704	0.002542	-0.003195
704	3.557664	0.005000	-0.337994	-0.024074	-10.172067	-0.493974	0.161363	0.008144	-0.038274	-0.002905	0.005273
705	3.562664	0.005000	-0.313920	0.139594	-10.123920	-0.493863	0.161695	0.007774	-0.018831	-0.001033	-0.007393
706	3.567664	0.005000	-0.313920	0.019520	-10.222120	-0.493753	0.162026	0.007404	-0.004559	-0.007276	0.004994
707	3.572664	0.005000	-0.296611	0.034618	-10.246262	-0.493642	0.162358	0.007034	-0.005897	-0.014976	-0.005591
708	3.577664	0.005000	-0.250805	0.078480	-10.272371	-0.493532	0.162689	0.006664	-0.003872	-0.000670	-0.001263
709	3.582664	0.005000	-0.327255	0.013335	-10.293832	-0.493421	0.163021	0.006293	-0.008274	-0.015705	0.001014
710	3.587664	0.005000	-0.196200	0.050248	-10.241640	-0.493310	0.163352	0.005923	-0.020139	-0.008757	-0.004093
711	3.592664	0.005000	-0.187599	0.039240	-10.219602	-0.493200	0.163684	0.005553	-0.015438	-0.013057	0.010289
712	3.597664	0.005000	-0.235440	-0.006580	-10.378859	-0.493089	0.164015	0.005183	-0.022241	-0.007339	0.004457
713	3.602664	0.005000	-0.239695	-0.156960	-10.315865	-0.492979	0.164347	0.004813	-0.019473	-0.001510	0.000409
714	3.607664	0.005000	-0.312083	-0.074806	-10.279043	-0.492868	0.164678	0.004442	-0.008043	-0.010257	-0.004556
715	3.612664	0.005000	-0.196414	-0.039133	-10.319906	-0.492758	0.165010	0.004072	-0.004505	-0.003901	0.001718
716	3.617664	0.005000	-0.230478	0.034278	-10.199919	-0.492647	0.165341	0.003702	-0.001037	-0.013237	0.002194
717	3.622664	0.005000	-0.279135	0.039240	-10.128375	-0.492542	0.165670	0.003340	0.002806	-0.007963	-0.011017
718	3.627664	0.005000	-0.228568	-0.129474	-10.163160	-0.494310	0.165118	0.005931	-0.004854	-0.007495	0.010980
719	3.632664	0.005000	-0.304753	-0.126887	-10.371099	-0.496078	0.164565	0.008523	-0.012145	-0.006531	0.000538
720	3.637664	0.005000	-0.274680	0.067258	-10.331342	-0.497846	0.164013	0.011114	-0.017174	-0.002958	0.000088
721	3.642664	0.005000	-0.248918	0.090763	-10.228162	-0.499614	0.163460	0.013705	-0.015454	-0.009455	0.002763
722	3.647664	0.005000	-0.306421	0.109639	-10.288379	-0.501382	0.162908	0.016296	-0.023504	-0.012004	-0.004660
723	3.652664	0.005000	-0.253214	0.057014	-10.180934	-0.503150	0.162355	0.018888	-0.023493	-0.008368	0.010566
724	3.657664	0.005000	-0.333226	0.077852	-10.202400	-0.504918	0.161803	0.021479	-0.022756	-0.005897	-0.000031
725	3.662664	0.005000	-0.297024	0.033792	-10.263984	-0.506686	0.161250	0.024070	-0.020790	-0.002492	0.009646
726	3.667664	0.005000	-0.265356	0.132678	-10.187442	-0.508454	0.160698	0.026661	-0.020111	-0.012170	0.010562
727	3.672664	0.005000	-0.301371	0.092621	-10.252598	-0.510222	0.160145	0.029252	-0.018587	-0.003701	-0.006684
728	3.677664	0.005000	-0.235440	-0.010483	-10.262606	-0.511990	0.159593	0.031844	-0.008682	-0.010227	0.012505
729	3.682664	0.005000	-0.188009	-0.062098	-10.241640	-0.513758	0.159040	0.034435	-0.007466	-0.009342	-0.012899
730	3.687664	0.005000	-0.301576	-0.084652	-10.307776	-0.515526	0.158488	0.037026	-0.024880	-0.012209	0.003558
731	3.692664	0.005000	-0.310079	-0.035399	-10.277039	-0.515870	0.158428	0.037293	-0.010464	-0.019239	-0.011292
732	3.697664	0.005000	-0.315344	0.079904	-10.276608	-0.514765	0.158870	0.035196	-0.016399	0.000884	-0.003708
733	3.702664	0.005000	-0.314440	0.040281	-10.163160	-0.513660	0.159312	0.033098	-0.002800	-0.000394	-0.000254
734	3.707664	0.005000	-0.202048	0.081404	-10.163160	-0.512555	0.159754	0.031000	0.006399	-0.004897	0.002760
735	3.712664	0.005000	-0.235440	-0.068743	-10.212137	-0.511450	0.160196	0.028903	0.016881	-0.008940	0.003906
736	3.717664	0.005000	-0.313920	-0.110435	-10.241640	-0.510345	0.160638	0.026805	0.015250	-0.006757	-0.006191
737	3.722664	0.005000	-0.372311	-0.059329	-10.232064	-0.509240	0.161080	0.024707	0.005076	-0.007565	0.004653
738	3.727664	0.005000	-0.353160	-0.027604	-10.296849	-0.508135	0.161522	0.022610	-0.009710	-0.009565	-0.002615
739	3.732664	0.005000	-0.274680	0.000000	-10.294929	-0.507031	0.161964	0.020512	-0.016918	0.001684	0.004833
740	3.737664	0.005000	-0.258696	-0.015984	-10.288152	-0.505926	0.162406	0.018415	-0.014083	-0.008679	-0.000363
741	3.742664	0.005000	-0.277129	-0.039240	-10.275983	-0.504821	0.162848	0.016317	-0.002736	-0.006686	-0.001661
742	3.747664	0.005000	-0.295019	-0.100258	-10.243079	-0.503716	0.163290	0.014219	0.014048	-0.006878	0.006528
743	3.752664	0.005000	-0.196200	-0.016489	-10.264391	-0.502611	0.163732	0.012122	0.002046	-0.006017	0.003329
744	3.757664	0.005000	-0.210571	0.028742	-10.323993	-0.501506	0.164174	0.010024	-0.016262	-0.007618	-0.003004
745	3.762664	0.005000	-0.274680	0.036409	-10.293016	-0.501056	0.164397	0.009269	-0.010228	-0.019548	0.018803
746	3.767664	0.005000	-0.264958	0.117720	-10.261084	-0.500615	0.164618	0.008529	-0.009354	-0.008487	-0.003491
747	3.772664	0.005000	-0.274680	0.055147	-10.390822	-0.500173	0.164839	0.007789	0.009112	-0.010576	-0.001445
748	3.777664	0.005000	-0.280052	-0.078480	-10.197028	-0.499731	0.165060	0.007050	0.014968	-0.003039	0.003884
749	3.782664	0.005000	-0.271292	-0.046017	-10.176714	-0.499290	0.165280	0.006310	-0.000360	-0.007747	0.002806
750	3.787664	0.005000	-0.236450	-0.155950	-10.278859	-0.498848	0.165501	0.005570	-0.011694	-0.008702	-0.003082
751	3.792664	0.005000	-0.274680	-0.041993	-10.315990	-0.498406	0.165722	0.004831	-0.032276	-0.006414	-0.003663
752	3.797664	0.005000	-0.202875	0.146947	-10.234965	-0.497965	0.165943	0.004091	-0.030802	-0.005573	0.007132
753	3.802664	0.005000	-0.268992	0.196200	-10.263816	-0.497523	0.166164	0.003351	-0.019136	-0.006451	-0.004345
754	3.807664	0.005000	-0.266982	0.101574	-10.343964	-0.497081	0.166384	0.002612	-0.005660	-0.006997	-0.000848
755	3.812664	0.005000	-0.313920	0.068379	-10.408701	-0.496640	0.166605	0.001872	0.008309	-0.013896	-0.008661
756	3.817664	0.005000	-0.235440	0.012359	-10.410959	-0.496198	0.166826	0.001132	0.022238	-0.011872	-0.005335
757	3.822664	0.005000	-0.289602	0.063558	-10.320120	-0.495756	0.167047	0.000392	0.021748	-0.011853	0.006411
758	3.827664	0.005000	-0.218109	0.078480	-10.320120	-0.495470	0.167268	0.000000	0.023336	-0.012900	0.001858
759	3.832664	0.005000	-0.235440	-0.059204	-10.359360	-0.495360	0.167489	0.000000	0.013072	-0.006722	0.008206
760	3.837664	0.005000	-0.252994	-0.039240	-10.219954	-0.495249	0.167710	0.000000	0.011996	-0.001587	-0.001743
761	3.842664	0.005000	-0.235440	0.070461	-10.280880	-0.495139	0.167931	0.000000	0.005680	-0.005283	0.005621
762	3.847664	0.005000	-0.261483	0.183003	-10.307275	-0.495028	0.168152	0.000000	-0.001124	-0.012918	0.001430
763	3.852664	0.005000	-0.302801	0.100717	-10.376363	-0.494918	0.168373	0.000000	0.005337	-0.011102	-0.009284
764	3.857664	0.005000	-0.313920	0.078480	-10.202400	-0.494807	0.168594	0.000000	0.019014	-0.009323	0.003739
765	3.862664	0.005000	-0.313920	0.026379	-10.241640	-0.494697	0.168815	0.000000	0.029625	-0.009121	0.006852
766	3.867664	0.005000	-0.313920	-0.004486	-10.167646	-0.494586	0.169036	0.000000	0.044511	-0.006128	0.001270
767	3.872664	0.005000	-0.274680	-0.039240	-10.204481	-0.494476	0.169257	0.000000	0.044557	-0.014229	0.007060
768	3.877664	0.005000	-0.274680	-0.038968	-10.280472	-0.494366	0.169478	0.000000	0.035237	-0.001299	0.004792
769	3.882664	0.005000	-0.274680	0.039240	-10.274082	-0.494255	0.169699	0.000000	0.028413	-0.014045	-0.003508
770	3.887664	0.005000	-0.305499	-0.030819	-10.241640	-0.494145	0.169920	0.000000	0.026558	-0.007208	-0.012109
771	3.892664	0.005000	-0.274680	-0.019360	-10.313493	-0.494034	0.170141	0.000000	0.028177	-0.020762	0.006098
772	3.897664	0.005000	-0.165885	0.017850	-10.293345	-0.494243	0.170362	0.000356	0.027262	-0.014666	-0.003178
773	3.902664	0.005000	-0.263703	-0.078480	-10.263595	-0.494464	0.170583	0.000727	0.033764	-0.002558	-0.003711
774	3.907664	0.005000	-0.339924	-0.078480	-10.228873	-0.494685	0.170804	0.001097	0.033068	-0.012435	-0.005679
775	3.912664	0.005000	-0.353160	-0.196200	-10.226305	-0.494906	0.171025	0.001467	0.015710	-0.012802	-0.006374
776	3.917664	0.005000	-0.313920	-0.162043	-10.202400	-0.495127	0.171246	0.001838	0.003945	-0.009915	-0.004439
777	3.922664	0.005000	-0.235440	-0.098498	-10.181586	-0.495348	0.171467	0.002208	0.001078	-0.022230	-0.009135
778	3.927664	0.005000	-0.256815	0.000000	-10.184535	-0.495569	0.171688	0.002578	-0.003141	-0.012359	-0.007102
779	3.932664	0.005000	-0.298258	-0.023409	-10.265386	-0.495790	0.171909	0.002949	-0.003042	-0.006692	-0.014183
780	3.937664	0.005000	-0.144828	-0.182646	-10.293012	-0.496011	0.172130	0.003319	-0.019778	0.005765	-0.004047
781	3.942664	0.005000	-0.325230	0.061860	-10.454460	-0.496233	0.172352	0.003689	-0.054451	-0.009622	0.001425
782	3.947664	0.005000	-0.226182	0.036608	-10.276039	-0.496454	0.172573	0.004060	-0.058839	-0.011497	-0.007111
783	3.952664	0.005000	-0.288607	-1.052517	-9.927720	-0.496675	0.172794	0.004430	-0.091096	-0.009983	0.027093
784	3.957664	0.005000	-0.313920	-0.648892	-9.933951	-0.496896	0.173015	0.004800	-0.250211	-0.010103	0.027431
785	3.962664	0.005000	-0.358365	-0.047247	-10.320120	-0.496964	0.172930	0.005114	-0.374851	-0.018369	0.025264
786	3.967664	0.005000	-0.392002	0.549559	-10.241242	-0.496853	0.172488	0.005361	-0.344166	-0.023824	0.037097
787	3.972664	0.005000	-0.276425	0.701084	-10.313139	-0.496743	0.172046	0.005607	-0.211669	-0.013979	0.008352
788	3.977664	0.005000	-0.196200	0.596925	-10.328445	-0.496632	0.171604	0.005854	-0.077744	-0.018823	0.018243
789	3.982664	0.005000	-0.274680	0.411869	-10.300349	-0.496522	0.171162	0.006101	0.032774	-0.014196	-0.002443
790	3.987664	0.005000	-0.305408	0.011835	-10.289392	-0.496411	0.170720	0.006348	0.113303	-0.013545	0.003181
791	3.992664	0.005000	-0.302993	-0.298524	-10.202400	-0.496301	0.170278	0.006594	0.109576	-0.009565	-0.001974
792	3.997664	0.005000	-0.287551	-0.274053	-10.202400	-0.496190	0.169836	0.006841	0.050637	-0.008536	-0.001516
793	4.002664	0.005000	-0.196200	-0.211480	-10.069400	-0.496080	0.169394	0.007088	-0.020876	-0.009575	0.000739
794	4.007664	0.005000	-0.257456	-0.108136	-10.185176	-0.495969	0.168952	0.007335	-0.063858	-0.007463	-0.011762
795	4.012664	0.005000	-0.274680	0.078449	-10.300515	-0.495859	0.168510	0.007581	-0.080504	-0.004814	0.005717
796	4.017664	0.005000	-0.235440	0.113394	-10.224183	-0.495748	0.168068	0.007828	-0.065793	-0.010980	-0.003861
797	4.022664	0.005000	-0.220182	0.126443	-10.202400	-0.495638	0.167626	0.008075	-0.051030	-0.013858	0.013744
798	4.027664	0.005000	-0.248601	0.026079	-10.294041	-0.495527	0.167184	0.008322	-0.045451	-0.007464	0.005604
799	4.032664	0.005000	-0.324821	-0.006537	-10.287417	-0.495733	0.166953	0.007745	-0.053212	-0.014498	-0.011406
800	4.037664	0.005000	-0.383551	0.096179	-10.228948	-0.495954	0.166732	0.007128	-0.035002	-0.004041	0.002146
801	4.042664	0.005000	-0.313920	0.091429	-10.267931	-0.496175	0.166511	0.006511	-0.024245	0.003051	0.001322
802	4.047664	0.005000	-0.223039	0.231306	-10.072279	-0.496395	0.166291	0.005895	-0.015994	0.001739	0.006238
803	4.052664	0.005000	-0.165613	0.274680	-10.215379	-0.496616	0.166070	0.005278	0.023680	0.007362	0.009534
804	4.057664	0.005000	-0.313920	0.157603	-10.515891	-0.496837	0.165849	0.004661	0.092229	0.014627	0.022034
805	4.062664	0.005000	-0.277282	-0.185792	-10.675882	-0.497058	0.165628	0.004045	0.134087	0.021746	0.044530
806	4.067664	0.005000	-0.235440	-0.304768	-10.343000	-0.497279	0.165407	0.003428	0.119061	0.020356	0.057411
807	4.072664	0.005000	-0.424742	-0.503222	-10.384804	-0.497500	0.165186	0.002811	0.127843	0.006682	0.077534
808	4.077664	0.005000	-0.440566	-0.431640	-10.537708	-0.497721	0.164965	0.002195	0.091453	0.022864	0.099884
809	4.082664	0.005000	-0.403740	0.026997	-10.483202	-0.497942	0.164744	0.001578	0.040218	0.029234	0.100003
810	4.087664	0.005000	-0.379126	1.017331	-10.332812	-0.498163	0.164523	0.000961	0.037489	0.026560	0.088647
811	4.092664	0.005000	-0.439506	1.962046	-10.634086	-0.498384	0.164302	0.000345	0.209571	0.025391	0.051114
812	4.097664	0.005000	-0.474359	1.940640	-11.118837	-0.498556	0.165738	-0.002339	0.607909	0.043097	0.060045
813	4.102664	0.005000	-0.490921	1.649764	-11.554075	-0.498666	0.169272	-0.007642	1.142738	0.061211	0.045226
814	4.107664	0.005000	-0.453625	1.392323	-11.536560	-0.498777	0.172806	-0.012946	1.667513	0.082272	0.044739
815	4.112664	0.005000	-0.529220	1.102975	-11.355205	-0.498887	0.176341	-0.018249	2.122504	0.116714	0.024316
816	4.117664	0.005000	-0.498351	0.865247	-11.314856	-0.498998	0.179875	-0.023553	2.426612	0.134802	0.006134
817	4.122664	0.005000	-0.303433	-0.175577	-11.332582	-0.499108	0.183410	-0.028856	2.636477	0.132099	0.008247
818	4.127664	0.005000	-0.369321	-0.383156	-12.002849	-0.499219	0.186944	-0.034160	2.850520	0.147509	-0.016796
819	4.132664	0.005000	-0.510120	-0.165515	-12.950501	-0.499329	0.190478	-0.039463	3.052900	0.165174	-0.021388
820	4.137664	0.005000	-0.470880	0.042960	-13.950486	-0.499440	0.194013	-0.044767	3.275155	0.191650	-0.039934
821	4.142664	0.005000	-0.713424	0.123048	-15.080592	-0.499550	0.197547	-0.050070	3.639322	0.229591	-0.058442
822	4.147664	0.005000	-0.901900	0.235440	-15.767658	-0.499661	0.201082	-0.055374	4.319438	0.273152	-0.076379
823	4.152664	0.005000	-1.316155	0.345444	-15.661904	-0.499771	0.204616	-0.060677	5.144334	0.324858	-0.108929
824	4.157664	0.005000	-1.618145	0.147655	-15.406352	-0.499882	0.208150	-0.065981	6.064150	0.357342	-0.128460
825	4.162664	0.005000	-1.751960	-0.228596	-15.199644	-0.499992	0.211685	-0.071284	7.123192	0.419863	-0.170324
826	4.167664	0.005000	-1.560264	-0.915651	-14.571018	-0.500820	0.215323	-0.102463	8.239593	0.456595	-0.203407
827	4.172664	0.005000	-1.140698	-2.191964	-14.449185	-0.501704	0.218970	-0.135656	9.286948	0.476483	-0.249745
828	4.177664	0.005000	-0.761069	-3.041567	-13.519535	-0.502588	0.222616	-0.168848	9.967063	0.503629	-0.314190
829	4.182664	0.005000	-0.526034	-4.108431	-12.151754	-0.503472	0.226263	-0.202041	9.998642	0.499840	-0.341788
830	4.187664	0.005000	-0.172513	-5.509866	-10.983776	-0.504356	0.229909	-0.235234	9.998642	0.483344	-0.392591
831	4.192664	0.005000	0.114382	-6.104323	-9.821682	-0.505240	0.233556	-0.268426	9.998642	0.465127	-0.442121
832	4.197664	0.005000	0.235440	-5.627960	-9.005081	-0.506124	0.237203	-0.301619	9.998642	0.458892	-0.517687
833	4.202664	0.005000	0.289112	-6.187279	-7.487203	-0.507008	0.240849	-0.334812	9.998642	0.473169	-0.577191
834	4.207664	0.005000	0.337957	-7.281998	-5.048916	-0.507892	0.244496	-0.368004	9.998642	0.475353	-0.652375
835	4.212664	0.005000	0.363234	-8.993355	-1.909027	-0.508776	0.248142	-0.401197	9.998642	0.521032	-0.746190
836	4.217664	0.005000	0.393303	-12.927988	2.468049	-0.509660	0.251789	-0.434390	9.998642	0.550135	-0.816808
837	4.222664	0.005000	-0.331256	-22.061079	6.360359	-0.510544	0.255435	-0.467582	9.998642	0.535008	-0.870923
838	4.227664	0.005000	-0.914860	-24.747610	1.094280	-0.511428	0.259082	-0.500775	9.998642	0.488849	-0.820943
839	4.232664	0.005000	1.272843	-19.751775	-7.863754	-0.511940	0.259985	-0.523842	9.998642	0.420147	-0.682671
840	4.237664	0.005000	2.612429	-23.388815	-3.085268	-0.511940	0.257112	-0.532973	9.998642	0.312747	-0.581106
841	4.242664	0.005000	2.427676	-24.745222	0.669077	-0.511940	0.254239	-0.542104	9.542914	0.186248	-0.491730
842	4.247664	0.005000	1.443459	-21.886826	-1.382494	-0.511940	0.251366	-0.551235	6.524883	0.123914	-0.376990
843	4.252664	0.005000	0.792391	-19.893609	-3.280764	-0.511940	0.248493	-0.560366	4.319027	0.055449	-0.279656
844	4.257664	0.005000	0.903010	-18.579283	-0.910065	-0.511940	0.245620	-0.569497	3.113090	0.007240	-0.236964
845	4.262664	0.005000	1.843208	-16.639903	0.353160	-0.511940	0.242747	-0.578628	2.280655	0.004309	-0.231801
846	4.267664	0.005000	2.319629	-13.928853	0.186099	-0.511940	0.239874	-0.587759	2.199526	0.004391	-0.259345
847	4.272664	0.005000	1.786399	-11.389731	0.993427	-0.511940	0.237001	-0.596890	2.816923	0.017992	-0.312082
848	4.277664	0.005000	1.269030	-9.636321	0.860494	-0.511940	0.234128	-0.606020	3.413413	0.036321	-0.319187
849	4.282664	0.005000	0.715124	-8.451273	0.244244	-0.511940	0.231255	-0.615151	3.824719	0.050287	-0.310417
850	4.287664	0.005000	0.321235	-7.901871	-0.078480	-0.511940	0.228382	-0.624282	3.984013	0.039938	-0.278844
851	4.292664	0.005000	0.170817	-7.531750	0.078480	-0.511940	0.225509	-0.633413	3.909370	0.037173	-0.206827
852	4.297664	0.005000	0.055270	-7.596530	0.200625	-0.511940	0.222636	-0.642544	3.727974	0.023554	-0.150848
853	4.302664	0.005000	0.087681	-7.679404	0.103650	-0.511738	0.219965	-0.649082	3.578477	0.002498	-0.082895
854	4.307664	0.005000	0.296191	-7.862341	0.460321	-0.511517	0.217313	-0.655375	3.476332	0.010034	-0.056375
855	4.312664	0.005000	0.661800	-8.122680	0.613286	-0.511296	0.214661	-0.661668	3.446082	0.001592	-0.013700
856	4.317664	0.005000	1.264303	-7.909235	0.470880	-0.511075	0.212009	-0.667961	3.413586	0.005716	0.010385
857	4.322664	0.005000	1.414110	-7.409011	0.310491	-0.510854	0.209357	-0.674254	3.383445	0.007843	0.010414
858	4.327664	0.005000	1.605058	-6.416920	-0.222204	-0.510633	0.206705	-0.680547	3.414617	-0.001772	0.017684
859	4.332664	0.005000	1.561884	-5.496800	-0.647789	-0.510412	0.204053	-0.686841	3.453122	0.022011	0.037208
860	4.337664	0.005000	1.491120	-4.494115	-0.844674	-0.510191	0.201401	-0.693134	3.386287	0.031933	0.090057
861	4.342664	0.005000	0.805600	-3.564623	-0.745560	-0.509970	0.198749	-0.699427	3.256624	0.054997	0.123970
862	4.347664	0.005000	0.231337	-2.542394	-0.649091	-0.509749	0.196097	-0.705720	3.067314	0.048135	0.178251
863	4.352664	0.005000	-0.235562	-1.660752	-0.313675	-0.509528	0.193445	-0.712013	2.893136	0.045903	0.235072
864	4.357664	0.005000	-0.694903	-0.962451	-0.175509	-0.509307	0.190793	-0.718306	2.699011	0.041517	0.290208
865	4.362664	0.005000	-1.068391	-0.806648	-0.056632	-0.509086	0.188141	-0.724599	2.577376	0.030884	0.364611
866	4.367664	0.005000	-0.921913	-1.255862	0.118174	-0.508596	0.184007	-0.731292	2.487542	0.024855	0.418239
867	4.372664	0.005000	-0.356865	-1.731337	0.671857	-0.507712	0.177712	-0.738569	2.449425	0.007190	0.477680
868	4.377664	0.005000	0.247500	-2.085750	1.119840	-0.506829	0.171416	-0.745846	2.436299	-0.011242	0.515836
869	4.382664	0.005000	0.405394	-2.158971	1.399131	-0.505945	0.165120	-0.753122	2.529701	-0.029902	0.549960
870	4.387664	0.005000	0.096255	-1.723207	2.589503	-0.505061	0.158825	-0.760399	2.839794	-0.032457	0.578861
871	4.392664	0.005000	-0.191692	-1.704686	2.729434	-0.504178	0.152529	-0.767676	3.406951	-0.025031	0.595608
872	4.397664	0.005000	-0.399731	-1.270341	2.412786	-0.503294	0.146233	-0.774953	4.301844	0.003962	0.634492
873	4.402664	0.005000	-0.474845	-1.331021	3.422224	-0.502411	0.139938	-0.782230	5.590056	0.031446	0.607954
874	4.407664	0.005000	-0.543039	-2.101842	4.365121	-0.501527	0.133642	-0.789507	6.943226	0.051523	0.566114
875	4.412664	0.005000	-0.198091	-3.484040	4.552218	-0.500644	0.127347	-0.796784	8.152687	0.052598	0.517172
876	4.417664	0.005000	0.219150	-4.371609	4.568130	-0.499760	0.121051	-0.804061	9.142320	0.074035	0.421173
877	4.422664	0.005000	0.673110	-5.490141	4.310370	-0.498876	0.114755	-0.811338	9.853981	0.099561	0.333721
878	4.427664	0.005000	1.240529	-6.093801	3.858896	-0.497993	0.108460	-0.818614	9.998642	0.119464	0.230368
879	4.432664	0.005000	2.088309	-6.513840	3.827332	-0.497109	0.102164	-0.825891	9.991086	0.141738	0.150432
880	4.437664	0.005000	2.583577	-6.513840	3.565727	-0.497311	0.095965	-0.825895	9.657200	0.125838	0.079470
881	4.442664	0.005000	2.394727	-5.928501	3.039270	-0.497643	0.089776	-0.825032	8.884682	0.098066	0.021485
882	4.447664	0.005000	2.158996	-5.345761	1.996098	-0.497974	0.083588	-0.824168	7.916962	0.073029	-0.005387
883	4.452664	0.005000	1.575061	-4.802180	1.125374	-0.498306	0.077400	-0.823304	6.900110	0.043133	-0.020714
884	4.457664	0.005000	1.141497	-4.377028	0.437534	-0.498637	0.071212	-0.822440	5.927624	0.029079	0.005098
885	4.462664	0.005000	0.739630	-4.411762	0.246846	-0.498969	0.065024	-0.821576	4.967324	0.018987	0.041931
886	4.467664	0.005000	0.441527	-4.512600	0.671870	-0.499300	0.058836	-0.820713	3.988928	-0.003079	0.088098
887	4.472664	0.005000	0.198650	-4.463546	0.743110	-0.499632	0.052648	-0.819849	3.039300	-0.017597	0.136741
888	4.477664	0.005000	0.049559	-4.116127	0.815757	-0.499963	0.046460	-0.818985	2.124692	-0.035077	0.169242
889	4.482664	0.005000	-0.118041	-3.492039	0.730378	-0.500295	0.040271	-0.818121	1.379461	-0.034108	0.215717
890	4.487664	0.005000	-0.572958	-2.923244	1.022297	-0.500627	0.034083	-0.817258	0.870027	-0.045618	0.238080
891	4.492664	0.005000	-0.584880	-2.368608	2.543664	-0.500958	0.027895	-0.816394	0.651317	-0.062920	0.279415
892	4.497664	0.005000	-1.534951	-3.335400	3.966683	-0.501290	0.021707	-0.815530	0.822625	-0.064263	0.294998
893	4.502664	0.005000	-1.841095	-3.796726	4.811394	-0.501749	0.016714	-0.814523	0.981611	-0.099836	0.325612
894	4.507664	0.005000	-2.106253	-4.535956	4.930414	-0.502412	0.013621	-0.813289	1.303312	-0.109439	0.330261
895	4.512664	0.005000	-2.304872	-4.996999	5.247872	-0.503075	0.010527	-0.812055	1.737943	-0.112705	0.302402
896	4.517664	0.005000	-2.102139	-5.076906	5.818744	-0.503738	0.007433	-0.810821	2.241188	-0.092636	0.289761
897	4.522664	0.005000	-1.656360	-5.091696	6.241609	-0.504401	0.004339	-0.809587	2.742605	-0.079828	0.254203
898	4.527664	0.005000	-0.943153	-5.058454	6.145263	-0.505064	0.001245	-0.808354	3.223632	-0.056262	0.219589
899	4.532664	0.005000	-0.449036	-5.112122	6.339484	-0.505727	-0.001849	-0.807120	3.677210	-0.039921	0.168859
900	4.537664	0.005000	0.043081	-4.744199	6.366445	-0.506390	-0.004943	-0.805886	4.025195	-0.024736	0.102754
901	4.542664	0.005000	0.457084	-4.304752	6.476930	-0.507053	-0.008037	-0.804652	4.101977	-0.019655	0.047716
902	4.547664	0.005000	0.745560	-3.386674	6.689417	-0.507716	-0.011131	-0.803418	3.925982	-0.007894	-0.004178
903	4.552664	0.005000	0.777974	-2.392798	7.052104	-0.508379	-0.014225	-0.802184	3.492791	-0.011672	-0.025587
904	4.557664	0.005000	0.667080	-1.252191	7.858652	-0.509042	-0.017319	-0.800950	2.913003	-0.035727	-0.060245
905	4.562664	0.005000	0.643380	-0.541200	8.649121	-0.509705	-0.020413	-0.799716	2.241130	-0.057012	-0.058109
906	4.567664	0.005000	0.372206	-0.461357	9.074346	-0.510368	-0.023507	-0.798482	1.531503	-0.087577	-0.036341
907	4.572664	0.005000	-0.185212	-0.736316	8.886727	-0.510254	-0.024950	-0.798116	0.899910	-0.110323	-0.041074
908	4.577664	0.005000	-0.891057	-1.036906	8.425489	-0.510033	-0.026165	-0.797869	0.455890	-0.134529	-0.033283
909	4.582664	0.005000	-1.437861	-1.401774	8.551167	-0.509812	-0.027381	-0.797623	0.255316	-0.107399	-0.057851
910	4.587664	0.005000	-1.923969	-2.246352	8.877912	-0.509591	-0.028596	-0.797376	0.257431	-0.080023	-0.060957
911	4.592664	0.005000	-1.885910	-2.740825	9.448475	-0.509370	-0.029812	-0.797129	0.257484	-0.063438	-0.086334
912	4.597664	0.005000	-1.805040	-3.349650	10.398570	-0.509149	-0.031027	-0.796882	0.173615	-0.043173	-0.109039
913	4.602664	0.005000	-1.518908	-4.036499	10.864259	-0.508928	-0.032243	-0.796635	0.074618	-0.053255	-0.103599
914	4.607664	0.005000	-1.334787	-4.754131	10.979227	-0.508707	-0.033458	-0.796389	-0.027953	-0.073588	-0.085300
915	4.612664	0.005000	-0.952106	-5.512149	10.781511	-0.508486	-0.034674	-0.796142	-0.092354	-0.097092	-0.042350
916	4.617664	0.005000	-0.757885	-6.128238	10.398600	-0.508265	-0.035889	-0.795895	-0.200626	-0.119767	-0.031880
917	4.622664	0.005000	-0.731291	-6.100036	10.280880	-0.508044	-0.037105	-0.795648	-0.447621	-0.135408	-0.013630
918	4.627664	0.005000	-0.621963	-5.036555	10.371114	-0.507823	-0.038320	-0.795402	-0.764386	-0.118512	0.006710
919	4.632664	0.005000	-0.329758	-3.237255	10.718571	-0.507602	-0.039536	-0.795155	-0.952918	-0.096614	0.010241
920	4.637664	0.005000	-0.096684	-1.398891	11.286958	-0.507257	-0.040587	-0.795551	-0.852740	-0.056597	0.031610
921	4.642664	0.005000	-0.070338	-0.320593	11.843318	-0.506705	-0.041360	-0.797032	-0.475967	-0.041442	0.038718
922	4.647664	0.005000	-0.078480	0.276991	12.298281	-0.506152	-0.042134	-0.798512	0.092674	-0.032519	0.041080
923	4.652664	0.005000	-0.106283	0.341723	11.920876	-0.505600	-0.042907	-0.799993	0.783542	-0.013141	0.043436
924	4.657664	0.005000	-0.156960	0.168913	11.214360	-0.505047	-0.043681	-0.801474	1.475557	0.014958	0.011286
925	4.662664	0.005000	-0.103543	-0.224554	10.947960	-0.504495	-0.044454	-0.802955	2.067389	0.016382	-0.010988
926	4.667664	0.005000	-0.127885	-0.973678	11.169574	-0.503942	-0.045228	-0.804435	2.569895	0.035883	-0.048164
927	4.672664	0.005000	-0.311181	-2.235792	11.547518	-0.503390	-0.046001	-0.805916	2.885990	0.031079	-0.078875
928	4.677664	0.005000	-0.157282	-3.456657	11.969165	-0.502837	-0.046774	-0.807397	2.957239	0.013727	-0.096283
929	4.682664	0.005000	-0.196200	-4.260938	12.424480	-0.502285	-0.047548	-0.808877	2.816992	-0.010616	-0.123139
930	4.687664	0.005000	-0.376486	-5.030132	12.635280	-0.501732	-0.048321	-0.810358	2.559201	-0.045186	-0.142243
931	4.692664	0.005000	-0.504149	-5.469716	12.870720	-0.501180	-0.049095	-0.811839	2.221507	-0.079616	-0.179016
932	4.697664	0.005000	-0.440027	-5.392653	12.800627	-0.500627	-0.049868	-0.813319	1.859606	-0.097518	-0.178614
933	4.702664	0.005000	-0.296009	-4.933167	12.513733	-0.500075	-0.050642	-0.814800	1.519381	-0.114850	-0.186552
934	4.707664	0.005000	-0.102930	-3.892369	12.334098	-0.499904	-0.051319	-0.814467	1.285057	-0.129503	-0.173297
935	4.712664	0.005000	0.190512	-2.896559	12.282120	-0.499794	-0.051982	-0.813850	1.218311	-0.126530	-0.160208
936	4.717664	0.005000	4.715427	-20.731576	24.188017	-0.499683	-0.052645	-0.813233	0.894727	-0.131436	-0.158701
937	4.722664	0.005000	9.327637	-0.210638	3.164676	-0.499573	-0.053307	-0.812617	-2.912191	0.764590	0.372400
938	4.727664	0.005000	-1.376216	-4.280466	8.838091	-0.499462	-0.053970	-0.812000	1.647990	0.081379	0.598666
939	4.732664	0.005000	-4.772552	-4.933416	7.781431	-0.499352	-0.054633	-0.811383	2.827916	0.489327	0.612044
940	4.737664	0.005000	-5.309441	-7.301635	25.125036	-0.499242	-0.055295	-0.810767	3.289665	0.296483	0.337602
941	4.742664	0.005000	-3.026439	-3.990267	24.685863	-0.499131	-0.055958	-0.810150	1.758481	0.344140	0.138494
942	4.747664	0.005000	-1.779181	-0.775277	16.873613	-0.499021	-0.056621	-0.809533	0.269180	0.244955	0.131532
943	4.752664	0.005000	-2.098934	-1.713210	14.858793	-0.498910	-0.057283	-0.808917	-0.066024	0.127710	0.172083
944	4.757664	0.005000	-1.854442	-1.648294	10.917474	-0.498800	-0.057946	-0.808300	0.119324	0.136358	0.215518
945	4.762664	0.005000	-1.590230	-13.596629	23.617583	-0.498689	-0.058609	-0.807683	0.356205	0.001653	0.175534
946	4.767664	0.005000	-0.159592	-0.562974	1.988866	-0.498579	-0.059271	-0.807067	-0.854798	0.049428	0.133822
947	4.772664	0.005000	0.380187	-6.311426	12.809549	-0.498507	-0.059779	-0.806450	0.387990	-0.047683	0.097651
948	4.777664	0.005000	1.071673	-2.639306	11.429792	-0.498507	-0.060000	-0.805833	0.350180	-0.029195	0.033694
949	4.782664	0.005000	1.767668	-0.444562	10.002924	-0.498507	-0.060221	-0.805216	0.539054	-0.013463	0.035775
950	4.787664	0.005000	1.500639	-0.736316	11.478833	-0.498507	-0.060442	-0.804599	0.670142	-0.014045	0.023221
951	4.792664	0.005000	1.171179	-0.865005	8.841798	-0.498507	-0.060663	-0.803982	0.556824	0.008234	0.040487
952	4.797664	0.005000	0.680624	-1.950644	10.585434	-0.498507	-0.060884	-0.803365	0.505212	-0.031007	0.032495
953	4.802664	0.005000	0.493117	-1.612107	8.676941	-0.498507	-0.061105	-0.802748	0.278880	-0.005772	0.011087
954	4.807664	0.005000	0.226958	-2.310383	9.613800	-0.498507	-0.061326	-0.802131	0.342160	0.002930	0.021846
955	4.812664	0.005000	-0.293997	-2.531404	10.358997	-0.498507	-0.061547	-0.801514	0.252405	-0.007377	-0.006716
956	4.817664	0.005000	-0.636288	-2.036011	9.806021	-0.498507	-0.061768	-0.800897	0.081426	-0.009710	-0.008439
957	4.822664	0.005000	-0.700640	-1.980587	9.636000	-0.498507	-0.061989	-0.800280	0.031286	-0.030256	-0.035414
958	4.827664	0.005000	-0.523302	-1.556571	8.776731	-0.498507	-0.062211	-0.799663	-0.040388	-0.006694	-0.024618
959	4.832664	0.005000	-0.371158	-1.295808	8.615690	-0.498507	-0.062432	-0.799046	-0.000303	-0.020208	-0.021779
960	4.837664	0.005000	-0.182620	-0.637838	8.382448	-0.498507	-0.062653	-0.798429	0.000141	0.024044	-0.019526
961	4.842664	0.005000	0.208724	-2.747213	12.227845	-0.498320	-0.063060	-0.798750	0.071457	0.004408	-0.019716
962	4.847664	0.005000	0.392400	-0.577527	8.012645	-0.498100	-0.063502	-0.799243	-0.303469	0.019804	-0.017719
963	4.852664	0.005000	0.431640	-3.142513	11.392367	-0.497879	-0.063943	-0.799736	-0.018721	-0.024298	-0.023837
964	4.857664	0.005000	0.315435	-1.077156	8.158033	-0.497658	-0.064385	-0.800229	-0.265508	-0.003571	-0.012115
965	4.862664	0.005000	0.083349	-3.090805	10.946689	-0.497437	-0.064826	-0.800722	-0.020277	-0.015334	-0.030431
966	4.867664	0.005000	0.147257	-1.130966	8.953423	-0.497216	-0.065268	-0.801215	-0.157991	-0.000495	-0.019036
967	4.872664	0.005000	0.300330	-2.945877	10.326731	-0.496996	-0.065710	-0.801709	0.104351	-0.005122	-0.024477
968	4.877664	0.005000	0.304719	-1.305484	9.152948	-0.496775	-0.066151	-0.802202	0.080597	-0.000472	-0.021269
969	4.882664	0.005000	0.251717	-2.572686	9.740233	-0.496554	-0.066593	-0.802695	0.329283	0.010458	-0.038581
970	4.887664	0.005000	-0.037801	-1.970632	9.277077	-0.496333	-0.067034	-0.803188	0.406463	0.010070	-0.037758
971	4.892664	0.005000	-0.023271	-2.258589	9.926357	-0.496112	-0.067476	-0.803681	0.474048	0.005086	-0.033007
972	4.897664	0.005000	0.018168	-2.233776	9.584015	-0.495892	-0.067918	-0.804174	0.487176	0.012585	-0.049796
973	4.902664	0.005000	0.002816	-2.315160	9.653040	-0.495671	-0.068359	-0.804667	0.545588	0.013379	-0.035543
974	4.907664	0.005000	-0.095256	-2.186352	9.524232	-0.495558	-0.068801	-0.804920	0.621025	0.008026	-0.048664
975	4.912664	0.005000	-0.190520	-2.158200	9.475840	-0.495669	-0.069243	-0.804673	0.676851	0.017982	-0.047779
976	4.917664	0.005000	-0.585815	-2.055417	9.468992	-0.495779	-0.069685	-0.804426	0.752319	0.007164	-0.038656
977	4.922664	0.005000	-0.697704	-1.960408	9.654632	-0.495890	-0.070127	-0.804179	0.799548	0.020915	-0.053102
978	4.927664	0.005000	-0.957346	-1.812833	9.747381	-0.496000	-0.070569	-0.803933	0.816960	0.025327	-0.039059
979	4.932664	0.005000	-1.143754	-1.967794	9.793935	-0.496111	-0.071011	-0.803686	0.762020	0.029215	-0.028378
980	4.937664	0.005000	-1.134515	-1.919315	9.913941	-0.496221	-0.071453	-0.803439	0.661540	0.040841	-0.002160
981	4.942664	0.005000	-0.976553	-1.880555	9.773725	-0.496332	-0.071895	-0.803192	0.519962	0.044149	0.021558
982	4.947664	0.005000	-0.748270	-1.766703	9.925913	-0.496442	-0.072337	-0.802946	0.386850	0.037418	0.029753
983	4.952664	0.005000	-0.333854	-1.306311	9.927720	-0.496553	-0.072779	-0.802699	0.255048	0.030316	0.048996
984	4.957664	0.005000	-0.031588	-1.109249	9.770760	-0.496663	-0.073221	-0.802452	0.147768	0.032838	0.058016
985	4.962664	0.005000	0.113710	-0.695913	9.881272	-0.496774	-0.073663	-0.802205	0.086656	0.029467	0.064088
986	4.967664	0.005000	0.216210	-0.509339	9.966960	-0.496884	-0.074105	-0.801959	0.091065	0.015161	0.060029
987	4.972664	0.005000	0.341270	-0.404290	10.123920	-0.496995	-0.074547	-0.801712	0.180490	0.019772	0.044761
988	4.977664	0.005000	0.417667	-0.468202	9.815356	-0.497015	-0.074808	-0.801061	0.346450	-0.006178	0.018851
989	4.982664	0.005000	0.448022	-0.539454	9.375313	-0.497015	-0.075029	-0.800321	0.537445	-0.005437	0.000464
990	4.987664	0.005000	0.332246	-0.970436	8.962459	-0.497015	-0.075250	-0.799580	0.704756	-0.007383	-0.014178
991	4.992664	0.005000	0.219172	-1.387434	9.103680	-0.497015	-0.075471	-0.798840	0.799377	-0.011549	-0.045958
992	4.997664	0.005000	0.124225	-1.641575	9.152783	-0.497015	-0.075692	-0.798100	0.754356	-0.008611	-0.054984
993	5.002664	0.005000	0.092627	-1.808240	9.185360	-0.497015	-0.075913	-0.797359	0.588600	-0.020959	-0.068914
994	5.007664	0.005000	-0.060358	-1.922760	9.311952	-0.497015	-0.076134	-0.796619	0.351871	-0.019812	-0.070962
995	5.012664	0.005000	-0.372711	-1.795241	9.388159	-0.497015	-0.076355	-0.795879	0.083345	-0.026899	-0.065877
996	5.017664	0.005000	-0.603384	-1.642968	9.339120	-0.497015	-0.076576	-0.795138	-0.125946	-0.042904	-0.088333
997	5.022664	0.005000	-0.677977	-1.262230	9.350017	-0.497015	-0.076797	-0.794398	-0.189242	-0.038888	-0.073556
998	5.027664	0.005000	-0.751623	-1.020240	9.550477	-0.497015	-0.077018	-0.793658	-0.097863	-0.029463	-0.089229
999	5.032664	0.005000	-0.785874	-0.943908	9.936312	-0.497015	-0.077239	-0.792917	0.074234	-0.015970	-0.097607
1000	5.037664	0.005000	-0.786117	-1.134010	10.507103	-0.497015	-0.077460	-0.792177	0.261387	-0.037309	-0.101823
1001	5.042664	0.005000	-0.824040	-1.508214	10.822858	-0.496981	-0.077646	-0.791705	0.410324	-0.040460	-0.101290
1002	5.047664	0.005000	-0.863280	-1.855131	10.796678	-0.496870	-0.077757	-0.791829	0.512908	-0.038452	-0.091374
1003	5.052664	0.005000	-0.824040	-2.102986	10.595496	-0.496760	-0.077867	-0.791952	0.561601	-0.022596	-0.101779
1004	5.057664	0.005000	-0.892492	-2.363555	10.536376	-0.496649	-0.077978	-0.792075	0.568640	-0.033513	-0.086568
1005	5.062664	0.005000	-0.929318	-2.261565	10.291409	-0.496539	-0.078088	-0.792199	0.513524	-0.027239	-0.076809
1006	5.067664	0.005000	-0.852812	-1.941064	9.960410	-0.496428	-0.078198	-0.792322	0.395657	-0.032101	-0.058726
1007	5.072664	0.005000	-0.622191	-1.490967	9.540816	-0.496318	-0.078309	-0.792445	0.286111	-0.034259	-0.049387
1008	5.077664	0.005000	-0.429865	-1.037197	9.197342	-0.496207	-0.078419	-0.792568	0.181693	-0.036502	-0.053228
1009	5.082664	0.005000	-0.199247	-0.552407	8.816997	-0.496097	-0.078530	-0.792692	0.122423	-0.036425	-0.043082
1010	5.087664	0.005000	-0.062521	-0.321242	8.656081	-0.495986	-0.078640	-0.792815	0.105234	-0.031879	-0.040303
1011	5.092664	0.005000	0.054973	-0.141227	8.646543	-0.495876	-0.078750	-0.792938	0.125018	-0.021124	-0.014815
1012	5.097664	0.005000	0.262880	-0.003841	8.672040	-0.495765	-0.078861	-0.793062	0.164143	-0.025324	-0.012234
1013	5.102664	0.005000	0.304535	-0.067395	8.673739	-0.495655	-0.078971	-0.793185	0.213375	-0.014756	-0.010797
1014	5.107664	0.005000	0.321272	-0.210904	8.632800	-0.495544	-0.079082	-0.793308	0.248409	-0.001405	-0.010817
1015	5.112664	0.005000	0.303850	-0.299855	8.716315	-0.495875	-0.079545	-0.793727	0.259683	0.020158	-0.007391
1016	5.117664	0.005000	0.146488	-0.476116	8.826382	-0.496317	-0.080097	-0.794220	0.238362	0.020606	0.003621
1017	5.122664	0.005000	-0.158307	-0.629187	8.870935	-0.496758	-0.080649	-0.794714	0.196888	0.026171	0.013070
1018	5.127664	0.005000	-0.310501	-0.893973	9.137792	-0.497200	-0.081202	-0.795207	0.132777	0.027621	0.010248
1019	5.132664	0.005000	-0.246463	-1.162502	8.951573	-0.497642	-0.081754	-0.795700	0.022519	0.023770	0.034470
1020	5.137664	0.005000	-0.187415	-0.842313	10.242344	-0.498084	-0.082306	-0.796194	-0.075444	0.047875	0.028108
1021	5.142664	0.005000	-0.470007	-1.676679	10.701879	-0.498526	-0.082858	-0.796687	0.029337	0.036531	0.051635
1022	5.147664	0.005000	-0.374035	-1.941125	10.908720	-0.498968	-0.083411	-0.797180	0.032861	0.040516	0.042242
1023	5.152664	0.005000	-0.299745	-1.944541	10.937069	-0.499410	-0.083963	-0.797674	-0.065334	0.022909	0.024077
1024	5.157664	0.005000	-0.068819	-1.589519	10.781339	-0.499851	-0.084515	-0.798167	-0.113550	0.011224	0.020594
1025	5.162664	0.005000	-0.005234	-1.412640	10.628806	-0.500293	-0.085068	-0.798661	-0.099642	-0.005086	0.011883
1026	5.167664	0.005000	-0.058386	-1.273877	10.338317	-0.500735	-0.085620	-0.799154	-0.056127	-0.016653	0.012746
1027	5.172664	0.005000	0.057181	-1.033673	10.034216	-0.501177	-0.086172	-0.799647	-0.034443	-0.010385	-0.011113
1028	5.177664	0.005000	0.007762	-0.729821	9.755021	-0.501367	-0.086598	-0.799859	0.009016	-0.010312	0.002813
1029	5.182664	0.005000	-0.078480	-0.587850	9.653040	-0.500925	-0.086709	-0.799366	0.079312	-0.013225	-0.001918
1030	5.187664	0.005000	-0.145705	-0.510120	9.563305	-0.500483	-0.086819	-0.798873	0.185062	-0.007260	0.002891
1031	5.192664	0.005000	-0.069508	-0.497795	9.544292	-0.500041	-0.086930	-0.798379	0.282932	-0.012191	-0.001311
1032	5.197664	0.005000	-0.039240	-0.694854	9.456840	-0.499600	-0.087040	-0.797886	0.344335	-0.010361	-0.003293
1033	5.202664	0.005000	-0.073858	-0.854036	9.408356	-0.499158	-0.087151	-0.797393	0.393290	0.006080	0.004681
1034	5.207664	0.005000	-0.030421	-0.869894	9.304289	-0.498716	-0.087261	-0.796899	0.421759	0.006837	0.004558
1035	5.212664	0.005000	0.235168	-0.941760	9.457385	-0.498274	-0.087372	-0.796406	0.414765	0.009913	0.000601
1036	5.217664	0.005000	0.307492	-0.978857	9.572417	-0.497832	-0.087482	-0.795912	0.395759	0.014751	0.005058
1037	5.222664	0.005000	0.344988	-1.094634	9.578646	-0.497390	-0.087593	-0.795419	0.357974	0.026324	-0.003731
1038	5.227664	0.005000	0.385908	-1.131468	9.528828	-0.496948	-0.087703	-0.794926	0.298065	0.011954	0.007267
1039	5.232664	0.005000	0.305116	-1.146764	9.705108	-0.496507	-0.087814	-0.794432	0.250394	0.023458	-0.000788
1040	5.237664	0.005000	-0.006688	-1.920235	10.573849	-0.496065	-0.087924	-0.793939	0.169629	-0.009850	-0.009110
1041	5.242664	0.005000	0.104997	-1.021312	9.026272	-0.495623	-0.088035	-0.793446	0.096427	0.005122	-0.021518
1042	5.247664	0.005000	-0.197229	-1.271170	10.262274	-0.495692	-0.088316	-0.792762	0.220580	-0.015815	-0.029771
1043	5.252664	0.005000	-0.313920	-0.812011	9.469588	-0.495913	-0.088647	-0.792022	0.086307	0.000152	-0.019464
1044	5.257664	0.005000	-0.392400	-0.862282	9.748311	-0.496134	-0.088978	-0.791282	0.027447	-0.010300	-0.017736
1045	5.262664	0.005000	-0.492850	-1.029640	10.095611	-0.496355	-0.089310	-0.790542	-0.004212	-0.006672	-0.009943
1046	5.267664	0.005000	-0.495260	-0.863280	9.418763	-0.496576	-0.089641	-0.789802	-0.015128	-0.002683	-0.018676
1047	5.272664	0.005000	-0.575194	-0.954677	10.138306	-0.496797	-0.089972	-0.789062	0.038751	-0.017245	-0.023166
1048	5.277664	0.005000	-0.567594	-0.745560	9.435834	-0.497018	-0.090304	-0.788322	0.043286	-0.008774	-0.026194
1049	5.282664	0.005000	-0.540790	-0.972430	9.874951	-0.497239	-0.090635	-0.787582	0.056841	-0.006944	-0.025364
1050	5.287664	0.005000	-0.464725	-0.844816	9.634576	-0.497460	-0.090966	-0.786842	0.023789	-0.009446	-0.017530
1051	5.292664	0.005000	-0.392400	-0.784800	9.769413	-0.497681	-0.091297	-0.786102	0.014591	-0.008317	-0.019809
1052	5.297664	0.005000	-0.349548	-0.738336	9.988141	-0.497901	-0.091629	-0.785362	0.004209	-0.013987	-0.010130
1053	5.302664	0.005000	-0.274680	-0.705907	9.652902	-0.498122	-0.091960	-0.784622	-0.015711	-0.012949	-0.006952
1054	5.307664	0.005000	-0.308808	-0.591156	10.189621	-0.498343	-0.092291	-0.783882	-0.006386	-0.005693	-0.022602
1055	5.312664	0.005000	-0.200699	-0.470880	9.458095	-0.498736	-0.092708	-0.782855	-0.014489	-0.008952	-0.006115
1056	5.317664	0.005000	-0.221630	-0.477785	9.944056	-0.499619	-0.093371	-0.781005	0.007957	-0.001272	-0.014185
1057	5.322664	0.005000	-0.235440	-0.480092	9.669075	-0.500503	-0.094034	-0.779154	0.019109	-0.010451	-0.002980
1058	5.327664	0.005000	-0.184936	-0.672528	9.865585	-0.501386	-0.094697	-0.777304	0.057856	0.003981	-0.010830
1059	5.332664	0.005000	-0.209709	-0.719829	9.746314	-0.502270	-0.095359	-0.775454	0.064437	0.001936	-0.018529
1060	5.337664	0.005000	-0.313920	-0.815584	9.942605	-0.503154	-0.096022	-0.773604	0.082621	-0.006965	-0.003289
1061	5.342664	0.005000	-0.313920	-0.878125	9.803633	-0.504037	-0.096685	-0.771754	0.086616	0.005395	-0.020667
1062	5.347664	0.005000	-0.274680	-0.901370	9.730370	-0.504921	-0.097348	-0.769904	0.099418	-0.008995	-0.004244
1063	5.352664	0.005000	-0.336295	-0.908030	9.703299	-0.505805	-0.098010	-0.768054	0.114182	-0.010068	-0.030433
1064	5.357664	0.005000	-0.303586	-0.941760	9.653040	-0.506688	-0.098673	-0.766204	0.123661	0.000111	-0.015475
1065	5.362664	0.005000	-0.378177	-0.863280	9.704788	-0.507572	-0.099336	-0.764354	0.125045	-0.004172	-0.015785
1066	5.367664	0.005000	-0.450678	-0.921558	9.741621	-0.508456	-0.099999	-0.762504	0.116370	0.004210	-0.021314
1067	5.372664	0.005000	-0.400463	-0.776737	9.731520	-0.509339	-0.100662	-0.760654	0.128475	0.008185	-0.018751
1068	5.377664	0.005000	-0.235440	-0.773317	9.787035	-0.510223	-0.101324	-0.758804	0.154204	0.001369	-0.023183
1069	5.382664	0.005000	-0.396152	-0.670832	9.613800	-0.509542	-0.101246	-0.759161	0.175488	0.000978	-0.025071
1070	5.387664	0.005000	-0.391007	-0.630625	9.728735	-0.508326	-0.100914	-0.760271	0.196950	0.003584	-0.016965
1071	5.392664	0.005000	-0.276707	-0.744546	9.576587	-0.507111	-0.100583	-0.761382	0.207581	-0.006469	-0.021857
1072	5.397664	0.005000	-0.271711	-0.745560	9.831426	-0.505895	-0.100251	-0.762492	0.231129	-0.010541	-0.021842
1073	5.402664	0.005000	-0.230130	-0.633150	9.726210	-0.504680	-0.099920	-0.763603	0.252392	-0.001593	-0.023416
1074	5.407664	0.005000	-0.164278	-0.745560	9.788045	-0.503464	-0.099588	-0.764713	0.269695	-0.005568	-0.025541
1075	5.412664	0.005000	-0.147227	-0.627840	9.712053	-0.502249	-0.099257	-0.765824	0.287095	-0.001158	-0.016244
1076	5.417664	0.005000	-0.184523	-0.623631	9.786646	-0.501033	-0.098925	-0.766935	0.291195	0.001362	-0.026114
1077	5.422664	0.005000	-0.221355	-0.563445	9.787861	-0.499818	-0.098594	-0.768045	0.297248	-0.006751	-0.011693
1078	5.427664	0.005000	-0.297628	-0.706320	9.731520	-0.498602	-0.098262	-0.769156	0.284409	0.002366	-0.019140
1079	5.432664	0.005000	-0.332353	-0.625467	9.611427	-0.497387	-0.097931	-0.770266	0.251215	-0.002140	-0.009239
1080	5.437664	0.005000	-0.272231	-0.588600	9.747467	-0.496171	-0.097599	-0.771377	0.233245	-0.005293	-0.018634
