# FOX Logger (IMU file)
# (c) INRIA 2011-2014
# File created from file sensbiotk output
#
# File format:
# id	t	dt	ax	ay	az	mx	my	mz	gx	gy	gz
#
# Units:
#	Time: s
#	Acceleration: m.s^-2
#	Magneto: gauss
#	Gyrometer: rad/s
#
1	0.049530	0.049530	9.417600	-0.898693	-0.078480	-0.423881	-0.158209	-0.113333	0.036088	0.039254	0.009495
2	0.054530	0.005000	9.419815	-0.962488	-0.134017	-0.423992	-0.157656	-0.113580	0.032329	0.035016	0.010795
3	0.059530	0.005000	9.456840	-0.941930	-0.117890	-0.424102	-0.157103	-0.113827	0.040608	0.029045	0.009530
4	0.064530	0.005000	9.456840	-0.960443	-0.156960	-0.424213	-0.156551	-0.114074	0.032450	0.036993	0.010924
5	0.069530	0.005000	9.452921	-1.002580	-0.174620	-0.424323	-0.155998	-0.114321	0.020901	0.035583	0.009017
6	0.074530	0.005000	9.411636	-0.919158	-0.150996	-0.424434	-0.155445	-0.114568	0.015685	0.035879	0.012661
7	0.079530	0.005000	9.464849	-0.957375	-0.149354	-0.424544	-0.154892	-0.114815	0.020224	0.043148	0.007000
8	0.084530	0.005000	9.363767	-0.917113	0.000000	-0.424655	-0.154340	-0.115062	0.023903	0.031927	0.017138
9	0.089530	0.005000	9.366261	-0.941760	-0.117720	-0.424765	-0.153787	-0.115309	0.017968	0.039295	0.017366
10	0.094530	0.005000	9.496080	-0.954324	-0.142847	-0.424876	-0.153234	-0.115556	0.027332	0.036227	0.016730
11	0.099530	0.005000	9.535320	-0.941760	0.000000	-0.424986	-0.152681	-0.115802	0.025935	0.039126	0.010882
12	0.104530	0.005000	9.564041	-0.959963	-0.049759	-0.425097	-0.152128	-0.116049	0.023982	0.046881	0.007480
13	0.109530	0.005000	9.603839	-0.981000	-0.127681	-0.425207	-0.151576	-0.116296	0.031848	0.042542	0.012480
14	0.114530	0.005000	9.517443	-0.902520	-0.196200	-0.425318	-0.151023	-0.116543	0.016482	0.048897	0.018272
15	0.119530	0.005000	9.433432	-0.988916	-0.251272	-0.425373	-0.150746	-0.116667	0.038294	0.032122	0.016003
16	0.124530	0.005000	9.489171	-1.013331	-0.320829	-0.425373	-0.150746	-0.116667	0.024905	0.036281	0.024509
17	0.129530	0.005000	9.507854	-1.047706	-0.257020	-0.425373	-0.150746	-0.116667	0.013741	0.045511	0.016801
18	0.134530	0.005000	9.604071	-0.971271	-0.142367	-0.425373	-0.150746	-0.116667	0.025905	0.039642	0.017201
19	0.139530	0.005000	9.535320	-0.945602	-0.082322	-0.425373	-0.150746	-0.116667	0.021785	0.039900	0.018138
20	0.144530	0.005000	9.454021	-1.056661	-0.120539	-0.425373	-0.150746	-0.116667	0.032415	0.032217	0.015138
21	0.149530	0.005000	9.422991	-0.979203	-0.158757	-0.425373	-0.150746	-0.116667	0.028455	0.038912	0.016384
22	0.154530	0.005000	9.456840	-0.941760	-0.157735	-0.425373	-0.150746	-0.116667	0.036652	0.035943	0.011404
23	0.159530	0.005000	9.417848	-1.019744	-0.196200	-0.425373	-0.150746	-0.116667	0.030992	0.040269	0.018161
24	0.164530	0.005000	9.301480	-1.021040	-0.233840	-0.425373	-0.150746	-0.116667	0.019086	0.038040	0.011943
25	0.169530	0.005000	9.412162	-1.171762	-0.196200	-0.425373	-0.150746	-0.116667	0.028359	0.038293	0.019264
26	0.174530	0.005000	9.375490	-1.135090	-0.241180	-0.425373	-0.150746	-0.116667	0.031270	0.034216	0.004927
27	0.179530	0.005000	9.413743	-1.063337	-0.203915	-0.425373	-0.150746	-0.116667	0.034322	0.034868	0.019906
28	0.184530	0.005000	9.491200	-0.990760	-0.122600	-0.425377	-0.150752	-0.116661	0.039415	0.037947	0.022209
29	0.189530	0.005000	9.433231	-0.981000	-0.151058	-0.426373	-0.152079	-0.115302	0.031029	0.037999	0.003737
30	0.194530	0.005000	9.424525	-1.038706	-0.189275	-0.427369	-0.153407	-0.113943	0.024647	0.035007	0.010581
31	0.199530	0.005000	9.386307	-1.067427	-0.007947	-0.428365	-0.154735	-0.112584	0.023298	0.044067	0.004037
32	0.204530	0.005000	9.517381	-0.929429	-0.039240	-0.429361	-0.156063	-0.111224	0.032935	0.031846	0.012940
33	0.209530	0.005000	9.427112	-1.001216	-0.079673	-0.430356	-0.157391	-0.109865	0.027049	0.032952	0.005635
34	0.214530	0.005000	9.435772	-1.098720	-0.156960	-0.431352	-0.158719	-0.108506	0.025382	0.040246	0.014921
35	0.219530	0.005000	9.461410	-1.075607	-0.200770	-0.432348	-0.160046	-0.107147	0.031792	0.036749	0.015090
36	0.224530	0.005000	9.483501	-1.111299	-0.196200	-0.433344	-0.161374	-0.105788	0.018314	0.038729	0.010922
37	0.229530	0.005000	9.429637	-1.086683	-0.170562	-0.434340	-0.162702	-0.104428	0.035533	0.040800	0.003481
38	0.234530	0.005000	9.466832	-1.020240	-0.210824	-0.435336	-0.164030	-0.103069	0.021188	0.036859	0.010445
39	0.239530	0.005000	9.441194	-1.043834	-0.094126	-0.436332	-0.165358	-0.101710	0.030600	0.036378	0.009191
40	0.244530	0.005000	9.417600	-1.042820	-0.140300	-0.437328	-0.166686	-0.100351	0.042457	0.026144	0.010160
41	0.249530	0.005000	9.429993	-1.007847	-0.196200	-0.438323	-0.168014	-0.098992	0.024180	0.037059	0.016672
42	0.254530	0.005000	9.378360	-0.941760	-0.138726	-0.438350	-0.168030	-0.098906	0.034020	0.039237	0.009826
43	0.259530	0.005000	9.515336	-0.980272	-0.117720	-0.437465	-0.166813	-0.100017	0.016101	0.046246	0.008684
44	0.264530	0.005000	9.417600	-0.960722	-0.136682	-0.436580	-0.165597	-0.101129	0.037580	0.035479	0.016615
45	0.269530	0.005000	9.456840	-1.020240	-0.150237	-0.435696	-0.164380	-0.102241	0.042887	0.037203	0.012248
46	0.274530	0.005000	9.439917	-0.964077	-0.235440	-0.434811	-0.163163	-0.103352	0.042150	0.032185	0.011872
47	0.279530	0.005000	9.448351	-0.902520	-0.148471	-0.433926	-0.161947	-0.104464	0.036910	0.037950	0.017712
48	0.284530	0.005000	9.496080	-0.981000	-0.211087	-0.433041	-0.160730	-0.105575	0.032441	0.044089	0.003326
49	0.289530	0.005000	9.560695	-1.047970	-0.166115	-0.432156	-0.159514	-0.106687	0.046023	0.038175	0.016246
50	0.294530	0.005000	9.508922	-1.072322	-0.077767	-0.431272	-0.158297	-0.107798	0.039867	0.035846	0.008202
51	0.299530	0.005000	9.523500	-1.008420	-0.235440	-0.430387	-0.157080	-0.108910	0.036023	0.035659	0.024402
52	0.304530	0.005000	9.474485	-1.005492	-0.174605	-0.429502	-0.155864	-0.110021	0.039210	0.039484	0.026231
53	0.309530	0.005000	9.417600	-1.000550	-0.098030	-0.428617	-0.154647	-0.111133	0.027587	0.048347	0.011311
54	0.314530	0.005000	9.369607	-1.020240	-0.165713	-0.427733	-0.153431	-0.112244	0.027996	0.041379	0.007767
55	0.319530	0.005000	9.307610	-1.020240	-0.180739	-0.426868	-0.152246	-0.113336	0.011229	0.039089	0.007977
56	0.324530	0.005000	9.378360	-1.020240	-0.052656	-0.426979	-0.152577	-0.113459	0.024955	0.036209	0.019474
57	0.329530	0.005000	9.444509	-0.968669	-0.117720	-0.427089	-0.152909	-0.113582	0.034146	0.022743	0.007544
58	0.334530	0.005000	9.368074	-0.975857	-0.093910	-0.427200	-0.153241	-0.113706	0.024984	0.027972	0.006297
59	0.339530	0.005000	9.456840	-0.976879	-0.179717	-0.427310	-0.153572	-0.113829	0.034103	0.028310	0.019186
60	0.344530	0.005000	9.420698	-0.977902	0.036142	-0.427421	-0.153904	-0.113953	0.015966	0.037449	0.008538
61	0.349530	0.005000	9.454764	-0.983076	-0.037164	-0.427531	-0.154235	-0.114076	0.030135	0.029020	0.013669
62	0.354530	0.005000	9.415493	-1.058427	-0.003160	-0.427642	-0.154567	-0.114200	0.043049	0.028409	0.015341
63	0.359530	0.005000	9.417662	-1.020302	-0.117782	-0.427752	-0.154899	-0.114323	0.034212	0.033442	0.014684
64	0.364530	0.005000	9.457831	-1.022223	-0.157951	-0.427863	-0.155230	-0.114447	0.040134	0.031633	0.014112
65	0.369530	0.005000	9.417600	-0.984997	-0.160957	-0.427973	-0.155562	-0.114570	0.009347	0.033491	0.018633
66	0.374530	0.005000	9.375339	-0.944781	-0.150918	-0.428084	-0.155893	-0.114694	0.020566	0.026929	0.016130
67	0.379530	0.005000	9.452797	-1.047350	-0.082523	-0.428194	-0.156225	-0.114817	0.010543	0.035430	0.012975
68	0.384530	0.005000	9.569494	-1.020240	0.000000	-0.428305	-0.156557	-0.114941	0.016684	0.030373	0.018289
69	0.389530	0.005000	9.417600	-0.926873	-0.123808	-0.428186	-0.156601	-0.115193	0.052591	0.021015	0.017561
70	0.394530	0.005000	9.488969	-1.084499	-0.149849	-0.427854	-0.156380	-0.115563	0.026271	0.033900	0.005498
71	0.399530	0.005000	9.504213	-0.966159	-0.125853	-0.427522	-0.156158	-0.115934	0.037911	0.027378	0.012597
72	0.404530	0.005000	9.447685	-0.971845	-0.205355	-0.427190	-0.155937	-0.116305	0.035058	0.027042	0.017029
73	0.409530	0.005000	9.485902	-0.960644	-0.156960	-0.426858	-0.155716	-0.116675	0.045528	0.022127	0.013725
74	0.414530	0.005000	9.467560	-1.009520	-0.164040	-0.426526	-0.155495	-0.117046	0.057474	0.036861	0.016284
75	0.419530	0.005000	9.456840	-1.031983	-0.141205	-0.426194	-0.155273	-0.117417	0.042402	0.019102	0.019407
76	0.424530	0.005000	9.455895	-1.033005	-0.011820	-0.425862	-0.155052	-0.117787	0.058341	0.019884	0.024663
77	0.429530	0.005000	9.378360	-1.073267	-0.090145	-0.425530	-0.154831	-0.118158	0.038049	0.025269	0.015107
78	0.434530	0.005000	9.373170	-1.035050	-0.117720	-0.425198	-0.154609	-0.118529	0.041543	0.025076	0.008492
79	0.439530	0.005000	9.480248	-1.020240	-0.062648	-0.424866	-0.154388	-0.118899	0.042196	0.025351	0.003782
80	0.444530	0.005000	9.462370	-1.076335	-0.117720	-0.424535	-0.154167	-0.119270	0.046358	0.022579	0.006475
81	0.449530	0.005000	9.374874	-1.041603	-0.042726	-0.424203	-0.153945	-0.119641	0.042055	0.024403	0.027068
82	0.454530	0.005000	9.360901	-1.097279	-0.158401	-0.423881	-0.153745	-0.119992	0.034079	0.031066	0.020903
83	0.459530	0.005000	9.398267	-1.058907	-0.157533	-0.423881	-0.154187	-0.119745	0.046222	0.027202	0.018835
84	0.464530	0.005000	9.357896	-1.001464	-0.058016	-0.423881	-0.154629	-0.119498	0.024956	0.035493	0.017702
85	0.469530	0.005000	9.403580	-0.981000	-0.099967	-0.423881	-0.155072	-0.119251	0.020769	0.028433	0.005814
86	0.474530	0.005000	9.395091	-0.958491	-0.140229	-0.423881	-0.155514	-0.119004	0.036672	0.030660	0.016514
87	0.479530	0.005000	9.401892	-0.902520	-0.156960	-0.423881	-0.155957	-0.118757	0.030111	0.033760	0.014082
88	0.484530	0.005000	9.368492	-0.927074	-0.206068	-0.423881	-0.156399	-0.118511	0.033217	0.027357	0.023878
89	0.489530	0.005000	9.392039	-0.888841	-0.182521	-0.423881	-0.156841	-0.118264	0.022304	0.038939	0.019707
90	0.494530	0.005000	9.403673	-0.967073	-0.143033	-0.423881	-0.157284	-0.118017	0.008133	0.040162	0.008798
91	0.499530	0.005000	9.484446	-0.969366	-0.191862	-0.423881	-0.157726	-0.117770	0.013035	0.041367	0.013996
92	0.504530	0.005000	9.446228	-0.923743	-0.107108	-0.423881	-0.158168	-0.117523	0.016741	0.031111	0.013812
93	0.509530	0.005000	9.408169	-0.961633	-0.176833	-0.423881	-0.158611	-0.117276	0.034807	0.029639	0.026327
94	0.514530	0.005000	9.565525	-0.977900	-0.235440	-0.423881	-0.159053	-0.117029	0.019983	0.042674	0.030248
95	0.519530	0.005000	9.401551	-1.067505	-0.251489	-0.423881	-0.159496	-0.116782	0.027480	0.045372	0.016406
96	0.524530	0.005000	9.456840	-1.091718	-0.175194	-0.423940	-0.159523	-0.116733	0.002041	0.052161	0.014605
97	0.529530	0.005000	9.450860	-1.020240	-0.072500	-0.424051	-0.159192	-0.116857	0.014919	0.045191	0.012241
98	0.534530	0.005000	9.427515	-1.025197	0.000000	-0.424161	-0.158860	-0.116980	0.024323	0.032152	0.018520
99	0.539530	0.005000	9.452905	-1.094785	-0.086350	-0.424272	-0.158528	-0.117103	0.027309	0.031681	0.016305
100	0.544530	0.005000	9.493168	-1.053655	-0.120632	-0.424382	-0.158197	-0.117227	0.035423	0.022105	0.012267
101	0.549530	0.005000	9.539100	-1.139850	-0.153180	-0.424493	-0.157865	-0.117350	0.032047	0.026279	0.012264
102	0.554530	0.005000	9.572825	-1.176332	-0.117720	-0.424603	-0.157534	-0.117474	0.030232	0.026571	0.007533
103	0.559530	0.005000	9.456995	-1.137960	0.077705	-0.424714	-0.157202	-0.117597	0.044411	0.030038	0.007571
104	0.564530	0.005000	9.496080	-1.174845	-0.152251	-0.424824	-0.156870	-0.117720	0.039038	0.028868	0.008624
105	0.569530	0.005000	9.533120	-1.137960	-0.050239	-0.424935	-0.156539	-0.117844	0.038857	0.029892	0.015138
106	0.574530	0.005000	9.459582	-1.137960	-0.154218	-0.425045	-0.156207	-0.117967	0.028990	0.025311	0.007463
107	0.579530	0.005000	9.354178	-1.141724	-0.227911	-0.425156	-0.155876	-0.118091	0.030563	0.024102	0.016930
108	0.584530	0.005000	9.496080	-1.098720	-0.235440	-0.425266	-0.155544	-0.118214	0.026520	0.031172	0.001309
109	0.589530	0.005000	9.478652	-1.098720	-0.202009	-0.425373	-0.155216	-0.118307	0.016385	0.032237	0.003863
110	0.594530	0.005000	9.410768	-1.144792	-0.131384	-0.425373	-0.154995	-0.117566	0.028725	0.019773	0.016349
111	0.599530	0.005000	9.307734	-1.114397	-0.164814	-0.425373	-0.154774	-0.116825	0.017131	0.026608	0.007755
112	0.604530	0.005000	9.417600	-1.068357	-0.187323	-0.425373	-0.154553	-0.116084	0.029179	0.022980	0.006224
113	0.609530	0.005000	9.407716	-1.030124	-0.245324	-0.425373	-0.154331	-0.115343	0.012113	0.026317	0.001771
114	0.614530	0.005000	9.467746	-1.020240	-0.150438	-0.425373	-0.154110	-0.114602	0.011293	0.030755	0.002522
115	0.619530	0.005000	9.496080	-1.004857	-0.114265	-0.425373	-0.153889	-0.113861	0.026313	0.038835	0.004412
116	0.624530	0.005000	9.456453	-0.993951	-0.091431	-0.425373	-0.153668	-0.113120	0.013312	0.035726	-0.003635
117	0.629530	0.005000	9.417600	-1.034213	-0.067187	-0.425373	-0.153447	-0.112379	0.029534	0.037891	0.011334
118	0.634530	0.005000	9.427778	-1.069658	-0.074127	-0.425373	-0.153226	-0.111638	0.029973	0.035145	0.008783
119	0.639530	0.005000	9.322792	-1.012076	-0.039240	-0.425373	-0.153004	-0.110897	0.032975	0.032006	0.015958
120	0.644530	0.005000	9.429838	-0.879840	-0.123839	-0.425373	-0.152783	-0.110156	0.032794	0.028449	0.007941
121	0.649530	0.005000	9.456840	-0.941760	-0.213783	-0.425373	-0.152562	-0.109415	0.023921	0.029664	0.004007
122	0.654530	0.005000	9.498109	-0.921125	-0.115691	-0.425373	-0.152341	-0.108674	0.039475	0.038694	0.004491
123	0.659530	0.005000	9.535335	-0.922148	-0.098092	-0.425254	-0.152358	-0.108733	0.040883	0.040904	0.014738
124	0.664530	0.005000	9.473369	-0.921110	-0.080540	-0.425032	-0.152580	-0.109474	0.037502	0.033903	0.021701
125	0.669530	0.005000	9.417600	-1.002673	-0.056807	-0.424811	-0.152801	-0.110215	0.026261	0.041036	0.011851
126	0.674530	0.005000	9.440295	-1.036785	-0.078480	-0.424590	-0.153022	-0.110956	0.024663	0.042665	0.009735
127	0.679530	0.005000	9.386555	-1.067675	-0.156960	-0.424369	-0.153243	-0.111697	0.035763	0.035051	0.019657
128	0.684530	0.005000	9.378360	-0.941760	-0.088720	-0.424148	-0.153464	-0.112438	0.021959	0.035848	0.000935
129	0.689530	0.005000	9.417600	-0.903713	-0.183915	-0.423926	-0.153686	-0.113179	0.028293	0.025551	0.020236
130	0.694530	0.005000	9.362156	-0.877610	-0.196200	-0.423705	-0.153907	-0.113920	0.007061	0.041338	0.020745
131	0.699530	0.005000	9.456840	-0.879645	-0.173325	-0.423484	-0.154128	-0.114661	0.009571	0.037865	0.020131
132	0.704530	0.005000	9.477692	-0.902520	-0.128146	-0.423263	-0.154349	-0.115402	0.011570	0.039840	0.015604
133	0.709530	0.005000	9.565157	-0.962193	-0.196200	-0.423042	-0.154570	-0.116143	0.012529	0.032832	0.010582
134	0.714530	0.005000	9.496080	-0.889817	-0.144257	-0.422820	-0.154792	-0.116884	0.025962	0.032247	0.014497
135	0.719530	0.005000	9.409777	-0.973177	-0.141314	-0.422599	-0.155013	-0.117625	0.018152	0.034337	0.015227
136	0.724530	0.005000	9.410799	-1.027041	-0.117720	-0.422413	-0.155254	-0.118300	0.016452	0.049704	0.023393
137	0.729530	0.005000	9.389948	-0.975206	-0.123514	-0.422966	-0.155918	-0.117558	0.004403	0.044650	0.019858
138	0.734530	0.005000	9.353434	-1.054709	-0.177114	-0.423519	-0.156581	-0.116817	0.006285	0.036964	0.019831
139	0.739530	0.005000	9.413851	-1.020240	-0.035491	-0.424072	-0.157245	-0.116076	0.030623	0.031897	0.018027
140	0.744530	0.005000	9.414873	-0.910700	-0.010906	-0.424625	-0.157908	-0.115335	0.024159	0.033993	0.018661
141	0.749530	0.005000	9.419304	-1.021944	-0.153552	-0.425178	-0.158572	-0.114594	0.039335	0.028034	0.014541
142	0.754530	0.005000	9.456840	-1.058798	-0.079843	-0.425731	-0.159235	-0.113853	0.019598	0.042736	0.016572
143	0.759530	0.005000	9.573538	-1.020240	-0.118061	-0.426284	-0.159899	-0.113112	0.018503	0.033250	0.015370
144	0.764530	0.005000	9.459534	-0.982347	-0.083867	-0.426837	-0.160563	-0.112371	0.018328	0.029513	0.013250
145	0.769530	0.005000	9.380265	-0.939855	-0.153149	-0.427390	-0.161226	-0.111630	0.008151	0.033444	0.012520
146	0.774530	0.005000	9.414672	-1.023168	-0.156960	-0.427943	-0.161890	-0.110889	0.026524	0.028702	0.010702
147	0.779530	0.005000	9.492130	-1.134010	-0.160910	-0.428496	-0.162553	-0.110148	0.009992	0.030063	0.021358
148	0.784530	0.005000	9.461813	-1.025213	-0.235440	-0.429049	-0.163217	-0.109407	0.017543	0.027442	0.007418
149	0.789530	0.005000	9.456840	-0.986995	-0.208190	-0.429602	-0.163881	-0.108666	0.010082	0.033216	-0.000883
150	0.794530	0.005000	9.489062	-1.066498	-0.170995	-0.429668	-0.163631	-0.108673	0.011319	0.031230	-0.001036
151	0.799530	0.005000	9.402480	-1.012200	-0.235440	-0.429337	-0.162636	-0.109290	0.026034	0.026057	0.009178
152	0.804530	0.005000	9.339120	-1.050417	-0.235440	-0.429005	-0.161640	-0.109908	0.023405	0.025943	0.004448
153	0.809530	0.005000	9.416500	-1.030325	-0.117720	-0.428673	-0.160645	-0.110526	0.041991	0.017049	0.003127
154	0.814530	0.005000	9.439815	-1.020240	-0.084398	-0.428341	-0.159650	-0.111143	0.028125	0.023564	0.013744
155	0.819530	0.005000	9.366241	-1.059480	-0.144841	-0.428009	-0.158654	-0.111761	0.016736	0.031094	-0.001887
156	0.824530	0.005000	9.416376	-1.059480	-0.196200	-0.427677	-0.157659	-0.112378	0.016501	0.034304	0.001005
157	0.829530	0.005000	9.364666	-1.006546	-0.288374	-0.427346	-0.156663	-0.112996	0.025126	0.037906	-0.003011
158	0.834530	0.005000	9.442123	-1.108526	-0.171677	-0.427014	-0.155668	-0.113613	0.036086	0.024688	0.011476
159	0.839530	0.005000	9.401861	-1.004501	-0.141221	-0.426682	-0.154673	-0.114231	0.030676	0.030358	0.013505
160	0.844530	0.005000	9.496080	-1.053764	-0.145527	-0.426350	-0.153677	-0.114848	0.028510	0.024360	0.005423
161	0.849530	0.005000	9.496080	-1.095032	-0.156960	-0.426018	-0.152682	-0.115466	0.034201	0.034738	0.001554
162	0.854530	0.005000	9.359569	-1.040689	-0.155302	-0.425686	-0.151686	-0.116084	0.007656	0.032316	-0.007701
163	0.859530	0.005000	9.397941	-1.020240	-0.176619	-0.425367	-0.150771	-0.116660	0.030103	0.026846	0.000032
164	0.864530	0.005000	9.456840	-0.941760	-0.156960	-0.425256	-0.151213	-0.116537	0.029092	0.030852	-0.001409
165	0.869530	0.005000	9.417600	-1.005941	-0.096326	-0.425146	-0.151656	-0.116413	0.019739	0.028018	0.005142
166	0.874530	0.005000	9.451248	-0.919344	-0.117720	-0.425035	-0.152099	-0.116289	0.031602	0.030182	0.016627
167	0.879530	0.005000	9.535320	-0.839848	-0.141152	-0.424924	-0.152542	-0.116166	0.026791	0.027413	0.014050
168	0.884530	0.005000	9.505731	-0.902520	-0.108069	-0.424814	-0.152984	-0.116042	0.028215	0.033342	0.017955
169	0.889530	0.005000	9.366664	-0.967228	-0.127340	-0.424703	-0.153427	-0.115918	0.012067	0.032949	0.012133
170	0.894530	0.005000	9.430350	-0.955501	-0.103979	-0.424592	-0.153870	-0.115795	0.034569	0.033111	0.019127
171	0.899530	0.005000	9.460899	-0.906579	-0.168687	-0.424482	-0.154313	-0.115671	0.029507	0.036672	0.019653
172	0.904530	0.005000	9.406895	-0.834745	-0.078480	-0.424371	-0.154756	-0.115547	0.033347	0.028882	0.016197
173	0.909530	0.005000	9.397724	-0.912202	-0.097844	-0.424260	-0.155198	-0.115424	0.036502	0.026992	0.011165
174	0.914530	0.005000	9.478760	-0.902520	-0.117720	-0.424150	-0.155641	-0.115300	0.024525	0.040987	0.010985
175	0.919530	0.005000	9.417600	-0.917984	-0.117720	-0.424039	-0.156084	-0.115176	0.042514	0.027952	0.014263
176	0.924530	0.005000	9.417600	-0.966810	-0.117720	-0.423928	-0.156527	-0.115053	0.024372	0.033856	0.013752
177	0.929530	0.005000	9.423673	-0.920738	-0.057458	-0.423944	-0.156526	-0.115212	0.063616	0.022528	0.012315
178	0.934530	0.005000	9.461890	-1.049380	-0.303820	-0.424055	-0.156194	-0.115583	0.044466	0.022518	0.008847
179	0.939530	0.005000	9.409544	-0.953843	-0.043268	-0.424166	-0.155862	-0.115954	0.028592	0.025239	0.017509
180	0.944530	0.005000	9.384371	-1.023245	-0.190189	-0.424276	-0.155530	-0.116324	0.035576	0.027085	0.012454
181	0.949530	0.005000	9.454857	-1.092771	-0.200166	-0.424387	-0.155198	-0.116695	0.004997	0.032031	0.005321
182	0.954530	0.005000	9.341041	-1.021200	-0.275640	-0.424497	-0.154866	-0.117066	0.027773	0.034368	0.012785
183	0.959530	0.005000	9.378422	-1.137836	-0.353098	-0.424608	-0.154534	-0.117436	0.026054	0.029087	0.019516
184	0.964530	0.005000	9.459009	-1.060564	-0.275764	-0.424719	-0.154203	-0.117807	0.022625	0.031469	0.016604
185	0.969530	0.005000	9.419227	-1.097093	-0.158587	-0.424829	-0.153871	-0.118178	0.031344	0.031869	0.010586
186	0.974530	0.005000	9.412302	-1.132662	-0.342564	-0.424940	-0.153539	-0.118548	0.006075	0.044937	0.007665
187	0.979530	0.005000	9.428614	-1.148974	-0.089494	-0.425050	-0.153207	-0.118919	0.026633	0.052974	0.005358
188	0.984530	0.005000	9.403518	-1.094026	-0.182118	-0.425161	-0.152875	-0.119290	0.024098	0.040253	0.004012
189	0.989530	0.005000	9.406167	-1.053764	-0.156960	-0.425272	-0.152543	-0.119660	0.031606	0.036047	0.006731
190	0.994530	0.005000	9.320096	-1.091981	-0.143482	-0.425494	-0.152248	-0.119813	0.051389	0.033819	0.004671
191	0.999530	0.005000	9.441318	-1.090959	-0.196200	-0.426932	-0.152359	-0.117590	0.033645	0.029950	0.009942
192	1.004530	0.005000	9.426368	-1.098720	-0.257144	-0.428369	-0.152469	-0.115367	0.024780	0.031859	0.007436
193	1.009530	0.005000	9.319461	-1.098720	-0.264889	-0.429807	-0.152580	-0.113144	0.018843	0.042231	0.005190
194	1.014530	0.005000	9.406787	-0.970187	-0.274680	-0.431245	-0.152691	-0.110921	0.019260	0.041449	0.005426
195	1.019530	0.005000	9.389867	-0.964774	-0.184693	-0.432683	-0.152801	-0.108698	0.026449	0.038142	0.005058
196	1.024530	0.005000	9.380420	-0.993393	-0.262287	-0.434121	-0.152912	-0.106475	0.012202	0.040744	0.004680
197	1.029530	0.005000	9.481657	-0.955176	-0.234433	-0.435558	-0.153022	-0.104252	0.024699	0.042532	0.006754
198	1.034530	0.005000	9.481657	-0.941760	-0.171383	-0.436996	-0.153133	-0.102029	0.013767	0.046264	-0.003149
199	1.039530	0.005000	9.417600	-0.957205	-0.093925	-0.438434	-0.153243	-0.099806	0.021688	0.047491	0.002304
200	1.044530	0.005000	9.423905	-0.856975	-0.101253	-0.439872	-0.153354	-0.097582	0.020726	0.050964	0.008945
201	1.049530	0.005000	9.474330	-0.963510	-0.117720	-0.441310	-0.153464	-0.095359	0.026936	0.047048	0.007218
202	1.054530	0.005000	9.493865	-0.902520	-0.198415	-0.442748	-0.153575	-0.093136	0.023715	0.041850	0.017265
203	1.059530	0.005000	9.436964	-0.961636	-0.176324	-0.444185	-0.153686	-0.090913	0.020247	0.039905	0.007662
204	1.064530	0.005000	9.475523	-1.022114	-0.158834	-0.444059	-0.153927	-0.090946	0.026518	0.041896	0.003405
205	1.069530	0.005000	9.439180	-0.945679	-0.213860	-0.442843	-0.154258	-0.092552	0.012029	0.046377	0.001892
206	1.074530	0.005000	9.367686	-0.896556	-0.235440	-0.441626	-0.154590	-0.094157	0.022872	0.052261	0.014032
207	1.079530	0.005000	9.448831	-0.972991	-0.172575	-0.440409	-0.154922	-0.095763	0.030730	0.041170	0.023581
208	1.084530	0.005000	9.456840	-1.014260	-0.117720	-0.439193	-0.155254	-0.097368	0.019057	0.041326	0.025811
209	1.089530	0.005000	9.467978	-0.981000	-0.089618	-0.437976	-0.155586	-0.098974	0.021039	0.037765	0.011807
210	1.094530	0.005000	9.417445	-0.981000	-0.013028	-0.436760	-0.155917	-0.100579	0.007171	0.043398	0.004250
211	1.099530	0.005000	9.444834	-1.086714	-0.024012	-0.435543	-0.156249	-0.102185	0.010328	0.044943	0.003020
212	1.104530	0.005000	9.445857	-0.959033	-0.163250	-0.434326	-0.156581	-0.103790	0.005259	0.043216	0.007745
213	1.109530	0.005000	9.368399	-0.893163	-0.156960	-0.433110	-0.156913	-0.105396	0.015120	0.033122	0.011851
214	1.114530	0.005000	9.348059	-1.038117	-0.178323	-0.431893	-0.157245	-0.107002	0.026143	0.027790	0.025652
215	1.119530	0.005000	9.441008	-1.035732	-0.015832	-0.430677	-0.157577	-0.108607	0.017152	0.035150	0.014090
216	1.124530	0.005000	9.417600	-0.955578	-0.150051	-0.429460	-0.157908	-0.110213	0.035105	0.030955	0.015854
217	1.129530	0.005000	9.345472	-1.092368	0.026537	-0.428379	-0.158209	-0.111714	0.018264	0.039014	0.008280
218	1.134530	0.005000	9.355107	-0.947089	-0.049898	-0.428600	-0.158209	-0.112207	0.030151	0.038108	-0.002005
219	1.139530	0.005000	9.456840	-1.020240	-0.117720	-0.428821	-0.158209	-0.112701	0.037438	0.030704	0.003772
220	1.144530	0.005000	9.417600	-1.023524	-0.196200	-0.429042	-0.158209	-0.113195	0.024060	0.037464	0.010379
221	1.149530	0.005000	9.371575	-1.017978	-0.076218	-0.429264	-0.158209	-0.113689	0.047069	0.037675	0.014454
222	1.154530	0.005000	9.417600	-1.020240	-0.116465	-0.429485	-0.158209	-0.114183	0.022989	0.040966	0.005778
223	1.159530	0.005000	9.496080	-0.981465	-0.117720	-0.429706	-0.158209	-0.114677	0.032848	0.037924	0.001694
224	1.164530	0.005000	9.496080	-1.097930	-0.002370	-0.429927	-0.158209	-0.115171	0.035452	0.035925	0.005028
225	1.169530	0.005000	9.419413	-1.059480	-0.115907	-0.430148	-0.158209	-0.115665	0.027277	0.033399	0.008937
226	1.174530	0.005000	9.336285	-1.020240	-0.154125	-0.430370	-0.158209	-0.116159	0.033941	0.030424	0.017711
227	1.179530	0.005000	9.378360	-0.910235	-0.192343	-0.430591	-0.158209	-0.116653	0.015667	0.043927	0.016298
228	1.184530	0.005000	9.304760	-0.833800	-0.093119	-0.430812	-0.158209	-0.117147	0.020622	0.039001	0.016746
229	1.189530	0.005000	9.372458	-0.929955	-0.211831	-0.431033	-0.158209	-0.117641	0.016403	0.035690	0.014026
230	1.194530	0.005000	9.476507	-1.046431	-0.163484	-0.431254	-0.158209	-0.118135	0.032636	0.035743	-0.006943
231	1.199530	0.005000	9.456840	-0.981000	-0.142026	-0.430945	-0.158076	-0.118333	0.057258	0.027817	0.020014
232	1.204530	0.005000	9.496080	-1.129471	-0.061501	-0.430281	-0.157855	-0.118333	0.036864	0.030963	0.005548
233	1.209530	0.005000	9.446969	-1.000742	-0.186329	-0.429617	-0.157634	-0.118333	0.033004	0.030832	0.009123
234	1.214530	0.005000	9.428134	-0.991534	-0.060308	-0.428953	-0.157412	-0.118333	0.029614	0.041334	0.007755
235	1.219530	0.005000	9.339120	-1.036367	-0.083050	-0.428290	-0.157191	-0.118333	0.033186	0.040121	0.000852
236	1.224530	0.005000	9.405021	-1.045398	-0.183621	-0.427626	-0.156970	-0.118333	0.029822	0.036726	0.004606
237	1.229530	0.005000	9.456840	-1.045878	-0.196200	-0.426962	-0.156749	-0.118333	0.014001	0.034700	-0.003990
238	1.234530	0.005000	9.470984	-1.020240	-0.156960	-0.426298	-0.156527	-0.118333	0.037499	0.028782	0.002490
239	1.239530	0.005000	9.417600	-1.122794	0.017815	-0.425634	-0.156306	-0.118333	0.030132	0.034914	0.003243
240	1.244530	0.005000	9.401411	-1.108046	-0.101531	-0.424970	-0.156085	-0.118333	0.036290	0.037064	-0.002174
241	1.249530	0.005000	9.422418	-1.076691	-0.073662	-0.424306	-0.155863	-0.118333	0.031924	0.037878	-0.010774
242	1.254530	0.005000	9.477846	-1.062253	-0.096714	-0.423642	-0.155642	-0.118333	0.021721	0.042743	-0.010935
243	1.259530	0.005000	9.535320	-1.098720	-0.138432	-0.422978	-0.155421	-0.118333	0.038592	0.033335	0.002460
244	1.264530	0.005000	9.475802	-1.021557	-0.058202	-0.422376	-0.155212	-0.118333	0.047167	0.027618	-0.003311
245	1.269530	0.005000	9.553259	-1.005662	-0.114358	-0.422265	-0.155101	-0.118333	0.039870	0.030702	0.004271
246	1.274530	0.005000	9.501473	-0.868673	-0.083873	-0.422155	-0.154990	-0.118333	0.029564	0.031798	0.004735
247	1.279530	0.005000	9.463879	-0.879380	-0.085519	-0.422044	-0.154880	-0.118333	0.036648	0.033191	-0.007838
248	1.284530	0.005000	9.480728	-0.863280	-0.156960	-0.421933	-0.154769	-0.118333	0.052138	0.037204	-0.001936
249	1.289530	0.005000	9.574560	-0.938011	-0.206781	-0.421823	-0.154658	-0.118333	0.052599	0.034140	-0.011057
250	1.294530	0.005000	9.456158	-0.863280	-0.287987	-0.421712	-0.154548	-0.118333	0.063469	0.026194	-0.001636
251	1.299530	0.005000	9.260640	-0.929475	-0.223155	-0.421601	-0.154437	-0.118333	0.054304	0.036400	0.001265
252	1.304530	0.005000	9.350398	-0.992278	-0.156960	-0.421491	-0.154326	-0.118333	0.053452	0.042154	0.001523
253	1.309530	0.005000	9.446585	-0.999729	-0.196200	-0.421380	-0.154216	-0.118333	0.057880	0.039511	0.013141
254	1.314530	0.005000	9.357586	-0.962534	-0.177734	-0.421270	-0.154105	-0.118333	0.044288	0.044757	-0.001997
255	1.319530	0.005000	9.417600	-0.941760	-0.148386	-0.421159	-0.153994	-0.118333	0.046782	0.039715	0.007255
256	1.324530	0.005000	9.402294	-0.988653	-0.093786	-0.421048	-0.153884	-0.118333	0.045086	0.035537	0.004965
257	1.329530	0.005000	9.417600	-0.967739	-0.104459	-0.420938	-0.153773	-0.118333	0.052696	0.029295	0.008421
258	1.334530	0.005000	9.423223	-0.947383	-0.190577	-0.421034	-0.154006	-0.118256	0.060860	0.031020	0.009363
259	1.339530	0.005000	9.447638	-0.932558	-0.235440	-0.421255	-0.154448	-0.118133	0.046943	0.033576	0.004560
260	1.344530	0.005000	9.385517	-0.938181	-0.156960	-0.421476	-0.154891	-0.118009	0.052618	0.036892	0.008824
261	1.349530	0.005000	9.346788	-0.944316	-0.191088	-0.421697	-0.155333	-0.117886	0.040352	0.035498	0.010725
262	1.354530	0.005000	9.535320	-0.979466	-0.037706	-0.421918	-0.155776	-0.117762	0.053297	0.027784	0.010955
263	1.359530	0.005000	9.535831	-1.018706	0.038729	-0.422140	-0.156218	-0.117639	0.036698	0.034399	0.015797
264	1.364530	0.005000	9.380916	-0.979978	-0.116186	-0.422361	-0.156660	-0.117516	0.038602	0.035060	0.012347
265	1.369530	0.005000	9.345255	-1.017173	-0.153893	-0.422582	-0.157103	-0.117392	0.041188	0.027792	0.009033
266	1.374530	0.005000	9.493524	-0.941760	-0.086148	-0.422803	-0.157545	-0.117269	0.021318	0.039585	0.002150
267	1.379530	0.005000	9.421179	-0.902520	-0.121299	-0.423024	-0.157988	-0.117145	0.038461	0.026973	0.008826
268	1.384530	0.005000	9.378360	-1.011896	-0.051755	-0.423246	-0.158430	-0.117022	0.037379	0.029889	0.004598
269	1.389530	0.005000	9.344263	-0.912806	-0.073337	-0.423467	-0.158872	-0.116898	0.050632	0.029956	0.015683
270	1.394530	0.005000	9.411434	-0.869446	-0.039240	-0.423688	-0.159315	-0.116775	0.047248	0.033761	0.004076
271	1.399530	0.005000	9.339120	-1.013052	-0.046428	-0.423853	-0.159687	-0.116698	0.040859	0.035588	-0.000762
272	1.404530	0.005000	9.378360	-0.941760	-0.062059	-0.423631	-0.159576	-0.116946	0.046203	0.044333	0.008896
273	1.409530	0.005000	9.477614	-0.842506	-0.117720	-0.423410	-0.159466	-0.117193	0.034745	0.033375	0.001758
274	1.414530	0.005000	9.485825	-0.989474	-0.068225	-0.423189	-0.159355	-0.117440	0.046642	0.027407	0.010151
275	1.419530	0.005000	9.468118	-0.941760	-0.061796	-0.422967	-0.159244	-0.117687	0.050666	0.030499	0.009904
276	1.424530	0.005000	9.378360	-0.993290	-0.080851	-0.422746	-0.159134	-0.117934	0.042536	0.040944	0.014707
277	1.429530	0.005000	9.378360	-0.968374	-0.130346	-0.422525	-0.159023	-0.118182	0.027845	0.053021	0.012415
278	1.434530	0.005000	9.481750	-0.981000	-0.206781	-0.422303	-0.158912	-0.118429	0.026764	0.053796	0.006314
279	1.439530	0.005000	9.441488	-0.965648	-0.124536	-0.422082	-0.158802	-0.118676	0.034182	0.040276	0.011401
280	1.444530	0.005000	9.456840	-1.036615	-0.140585	-0.421860	-0.158691	-0.118923	0.035849	0.040993	0.012827
281	1.449530	0.005000	9.456840	-1.007289	-0.218043	-0.421639	-0.158580	-0.119170	0.026710	0.032582	0.021502
282	1.454530	0.005000	9.592979	-1.077899	-0.212218	-0.421418	-0.158470	-0.119418	0.029114	0.045054	0.027542
283	1.459530	0.005000	9.515277	-1.020240	-0.097677	-0.421196	-0.158359	-0.119665	0.005616	0.046559	0.008247
284	1.464530	0.005000	9.359104	-0.981000	-0.136976	-0.420975	-0.158248	-0.119912	0.015946	0.042731	0.012287
285	1.469530	0.005000	9.433061	-0.884286	-0.096714	-0.421039	-0.158138	-0.119761	0.020677	0.036251	0.011921
286	1.474530	0.005000	9.478869	-0.919731	-0.095691	-0.421260	-0.158027	-0.119391	0.019289	0.025814	0.011274
287	1.479530	0.005000	9.424463	-0.981000	-0.110857	-0.421481	-0.157916	-0.119020	0.023294	0.031835	0.008126
288	1.484530	0.005000	9.450581	-0.911428	-0.165868	-0.421702	-0.157806	-0.118649	0.005581	0.036125	0.013974
289	1.489530	0.005000	9.470984	-0.891568	-0.075289	-0.421924	-0.157695	-0.118278	0.021785	0.037247	0.018226
290	1.494530	0.005000	9.483083	-1.046483	-0.130841	-0.422145	-0.157584	-0.117908	0.001965	0.037107	0.015737
291	1.499530	0.005000	9.393402	-0.981000	-0.181158	-0.422366	-0.157474	-0.117537	0.011537	0.030329	0.015272
292	1.504530	0.005000	9.350196	-1.031316	-0.179113	-0.422588	-0.157363	-0.117166	0.018248	0.027911	0.013023
293	1.509530	0.005000	9.535320	-1.030294	-0.255548	-0.422809	-0.157252	-0.116796	0.021015	0.025738	0.007330
294	1.514530	0.005000	9.426635	-0.981000	-0.256610	-0.423030	-0.157142	-0.116425	0.023600	0.023316	0.014194
295	1.519530	0.005000	9.519271	-1.043431	-0.140911	-0.423252	-0.157031	-0.116054	0.020167	0.031868	0.001717
296	1.524530	0.005000	9.477846	-0.988002	-0.203202	-0.423473	-0.156920	-0.115684	0.047430	0.024168	0.006579
297	1.529530	0.005000	9.496080	-1.013796	-0.156960	-0.423694	-0.156809	-0.115313	0.027366	0.022702	-0.004344
298	1.534530	0.005000	9.496080	-0.970156	-0.196200	-0.423933	-0.156682	-0.115019	0.045560	0.014699	-0.002633
299	1.539530	0.005000	9.378360	-0.937360	-0.148161	-0.424265	-0.156460	-0.115143	0.043819	0.020242	0.006388
300	1.544530	0.005000	9.460218	-0.941760	-0.085237	-0.424596	-0.156239	-0.115266	0.031498	0.026921	0.007535
301	1.549530	0.005000	9.378360	-1.015500	-0.083220	-0.424928	-0.156018	-0.115390	0.030637	0.024102	0.014131
302	1.554530	0.005000	9.337772	-0.943108	-0.234092	-0.425260	-0.155796	-0.115514	0.025968	0.030993	0.002711
303	1.559530	0.005000	9.379011	-0.902520	-0.118371	-0.425592	-0.155575	-0.115637	0.034415	0.028190	0.010050
304	1.564530	0.005000	9.495383	-0.902520	-0.196200	-0.425924	-0.155354	-0.115761	0.054038	0.024494	0.013391
305	1.569530	0.005000	9.421039	-0.865000	-0.042679	-0.426256	-0.155133	-0.115884	0.050538	0.025506	0.013432
306	1.574530	0.005000	9.487854	-0.866022	-0.083964	-0.426588	-0.154911	-0.116008	0.047262	0.026878	0.010534
307	1.579530	0.005000	9.420925	-0.791450	-0.114395	-0.426920	-0.154690	-0.116131	0.030618	0.034708	0.012180
308	1.584530	0.005000	9.487467	-0.863280	-0.152653	-0.427252	-0.154469	-0.116255	0.047988	0.027920	0.002832
309	1.589530	0.005000	9.349778	-0.941760	-0.172947	-0.427584	-0.154247	-0.116379	0.045093	0.026989	0.007732
310	1.594530	0.005000	9.450488	-0.941760	-0.156960	-0.427916	-0.154026	-0.116502	0.048076	0.023739	0.018092
311	1.599530	0.005000	9.503454	-0.878028	-0.203574	-0.428247	-0.153805	-0.116626	0.054433	0.025431	0.019362
312	1.604530	0.005000	9.425996	-0.972604	-0.156960	-0.428211	-0.153731	-0.116173	0.041909	0.036784	0.009957
313	1.609530	0.005000	9.546303	-1.040642	-0.244859	-0.427989	-0.153731	-0.115432	0.039878	0.034819	0.014331
314	1.614530	0.005000	9.535320	-0.981000	-0.167401	-0.427768	-0.153731	-0.114691	0.030650	0.038619	0.015138
315	1.619530	0.005000	9.558247	-0.997313	-0.201049	-0.427547	-0.153731	-0.113950	0.041742	0.035178	0.017055
316	1.624530	0.005000	9.588828	-1.032726	-0.235440	-0.427326	-0.153731	-0.113209	0.043674	0.025351	0.020260
317	1.629530	0.005000	9.429823	-1.032463	-0.209709	-0.427105	-0.153731	-0.112468	0.030290	0.021339	0.018972
318	1.634530	0.005000	9.432131	-1.005709	-0.082833	-0.426883	-0.153731	-0.111727	0.026100	0.031031	0.019165
319	1.639530	0.005000	9.417600	-1.020240	-0.039240	-0.426662	-0.153731	-0.110986	0.005124	0.037302	0.007508
320	1.644530	0.005000	9.440280	-1.092601	-0.095040	-0.426441	-0.153731	-0.110245	0.017060	0.025771	0.018635
321	1.649530	0.005000	9.474423	-1.037823	-0.161034	-0.426220	-0.153731	-0.109504	0.021313	0.029630	0.020464
322	1.654530	0.005000	9.473416	-1.018211	-0.297344	-0.425999	-0.153731	-0.108763	0.032964	0.028124	0.013228
323	1.659530	0.005000	9.397988	-0.902535	-0.215828	-0.425777	-0.153731	-0.108022	0.039380	0.034592	0.015785
324	1.664530	0.005000	9.475430	-0.939700	-0.099130	-0.425556	-0.153731	-0.107281	0.020998	0.050626	0.003208
325	1.669530	0.005000	9.431062	-1.072942	-0.035135	-0.425430	-0.153731	-0.106816	0.012830	0.037224	0.013113
326	1.674530	0.005000	9.445004	-1.025430	-0.213225	-0.425762	-0.153731	-0.107680	0.013651	0.044523	0.004301
327	1.679530	0.005000	9.519317	-0.988235	0.000000	-0.426094	-0.153731	-0.108544	0.026540	0.039064	0.007137
328	1.684530	0.005000	9.378360	-0.981000	-0.078480	-0.426426	-0.153731	-0.109409	0.034445	0.031218	0.018315
329	1.689530	0.005000	9.498714	-0.969676	-0.117720	-0.426757	-0.153731	-0.110273	0.024297	0.034158	0.005703
330	1.694530	0.005000	9.470209	-1.085785	-0.144025	-0.427089	-0.153731	-0.111138	0.024875	0.034736	0.006330
331	1.699530	0.005000	9.402186	-1.035654	-0.102306	-0.427421	-0.153731	-0.112002	0.007551	0.044468	0.010377
332	1.704530	0.005000	9.389251	-1.020240	-0.196200	-0.427753	-0.153731	-0.112867	0.014845	0.038264	0.012856
333	1.709530	0.005000	9.436859	-1.020240	-0.245430	-0.428085	-0.153731	-0.113731	0.021124	0.039854	0.007636
334	1.714530	0.005000	9.474751	-0.950715	-0.287054	-0.428416	-0.153731	-0.114596	0.025628	0.037915	0.017299
335	1.719530	0.005000	9.605497	-1.011937	-0.086783	-0.428748	-0.153731	-0.115460	0.041264	0.035280	0.018232
336	1.724530	0.005000	9.545436	-0.949041	-0.046521	-0.429080	-0.153731	-0.116325	0.027407	0.038835	0.008530
337	1.729530	0.005000	9.471046	-0.908779	-0.045499	-0.429412	-0.153731	-0.117189	0.035951	0.042658	0.010976
338	1.734530	0.005000	9.339120	-0.981000	-0.230204	-0.429744	-0.153731	-0.118054	0.031116	0.045343	0.005645
339	1.739530	0.005000	9.456840	-0.945974	-0.126147	-0.429701	-0.153731	-0.117999	0.025929	0.039693	0.006462
340	1.744530	0.005000	9.456840	-0.935377	-0.150577	-0.429480	-0.153731	-0.117505	0.034069	0.035253	0.018160
341	1.749530	0.005000	9.456840	-0.943929	-0.037071	-0.429259	-0.153731	-0.117011	0.030158	0.031741	0.010256
342	1.754530	0.005000	9.341413	-0.941760	-0.043825	-0.429038	-0.153731	-0.116517	0.035573	0.031871	0.019797
343	1.759530	0.005000	9.378221	-0.980861	-0.235022	-0.428816	-0.153731	-0.116023	0.019215	0.032684	0.017710
344	1.764530	0.005000	9.415834	-0.941760	-0.041006	-0.428595	-0.153731	-0.115529	0.021088	0.036118	0.011714
345	1.769530	0.005000	9.305596	-1.049953	-0.115815	-0.428374	-0.153731	-0.115035	0.026139	0.026711	0.007552
346	1.774530	0.005000	9.456840	-0.983928	-0.075552	-0.428153	-0.153731	-0.114541	0.019058	0.026267	0.004275
347	1.779530	0.005000	9.500030	-1.055530	-0.149059	-0.427932	-0.153731	-0.114047	0.030821	0.031314	0.020569
348	1.784530	0.005000	9.491107	-0.941760	-0.196200	-0.427710	-0.153731	-0.113553	0.017846	0.037665	0.014364
349	1.789530	0.005000	9.450845	-0.929770	-0.190205	-0.427489	-0.153731	-0.113059	0.020501	0.030859	0.008957
350	1.794530	0.005000	9.522245	-0.915595	-0.124257	-0.427268	-0.153731	-0.112565	0.025319	0.042773	0.012783
351	1.799530	0.005000	9.613800	-1.051920	-0.132840	-0.427047	-0.153731	-0.112071	0.030037	0.030864	0.011364
352	1.804530	0.005000	9.583142	-0.998165	-0.187618	-0.427108	-0.153892	-0.111577	0.040323	0.015407	0.021604
353	1.809530	0.005000	9.397569	-1.059480	-0.058449	-0.428436	-0.154778	-0.111083	0.030343	0.025797	0.011502
354	1.814530	0.005000	9.388987	-0.991627	-0.107093	-0.429763	-0.155663	-0.110588	0.019907	0.030570	0.011550
355	1.819530	0.005000	9.350770	-0.981000	-0.133661	-0.431091	-0.156548	-0.110094	0.013769	0.031956	0.009226
356	1.824530	0.005000	9.404928	-0.915192	-0.143064	-0.432419	-0.157433	-0.109600	0.033604	0.027644	0.005372
357	1.829530	0.005000	9.468691	-0.837734	-0.208051	-0.433747	-0.158319	-0.109106	0.041325	0.016142	0.015790
358	1.834530	0.005000	9.456840	-0.981000	-0.246207	-0.435075	-0.159204	-0.108611	0.026925	0.026484	0.014623
359	1.839530	0.005000	9.417600	-1.037683	-0.124257	-0.436402	-0.160089	-0.108117	0.023572	0.024668	0.017518
360	1.844530	0.005000	9.440558	-0.997282	-0.150283	-0.437730	-0.160974	-0.107623	0.012032	0.028868	0.013985
361	1.849530	0.005000	9.378360	-1.002936	-0.279312	-0.439058	-0.161860	-0.107129	0.019267	0.025244	0.006228
362	1.854530	0.005000	9.438514	-1.062067	-0.133459	-0.440386	-0.162745	-0.106634	0.016447	0.026525	0.021075
363	1.859530	0.005000	9.496622	-1.059480	-0.117178	-0.441713	-0.163630	-0.106140	0.028848	0.031615	0.023727
364	1.864530	0.005000	9.535320	-1.078349	-0.116217	-0.443041	-0.164515	-0.105646	0.035985	0.027135	0.017251
365	1.869530	0.005000	9.417600	-1.102268	-0.078480	-0.444369	-0.165401	-0.105152	0.041037	0.034411	0.024682
366	1.874530	0.005000	9.473664	-1.003416	-0.078480	-0.444086	-0.165365	-0.105514	0.050213	0.031692	0.019963
367	1.879530	0.005000	9.425225	-0.957568	-0.110095	-0.443090	-0.164923	-0.106255	0.022899	0.030543	0.017951
368	1.884530	0.005000	9.393154	-0.966206	-0.132514	-0.442095	-0.164480	-0.106996	0.013873	0.035221	0.005348
369	1.889530	0.005000	9.342590	-0.984470	-0.181963	-0.441100	-0.164038	-0.107737	0.025003	0.033334	0.018454
370	1.894530	0.005000	9.260640	-0.967786	-0.196603	-0.440104	-0.163595	-0.108478	0.018841	0.033017	0.005186
371	1.899530	0.005000	9.341785	-0.968808	-0.159625	-0.439109	-0.163153	-0.109219	0.032211	0.023543	0.017875
372	1.904530	0.005000	9.215668	-0.952929	-0.033508	-0.438113	-0.162710	-0.109960	0.011427	0.036929	0.019158
373	1.909530	0.005000	9.328969	-0.922822	-0.078480	-0.437118	-0.162268	-0.110701	0.021787	0.030683	0.019271
374	1.914530	0.005000	9.339120	-0.971860	-0.018280	-0.436123	-0.161826	-0.111442	0.024548	0.044416	0.014099
375	1.919530	0.005000	9.412689	-0.998165	-0.148378	-0.435127	-0.161383	-0.112183	0.018581	0.042926	0.012061
376	1.924530	0.005000	9.535320	-1.012680	-0.196200	-0.434132	-0.160941	-0.112924	0.037266	0.035210	0.016134
377	1.929530	0.005000	9.404525	-0.967925	-0.222365	-0.433136	-0.160498	-0.113665	0.031942	0.036942	0.001833
378	1.934530	0.005000	9.428630	-0.963820	-0.196200	-0.432141	-0.160056	-0.114406	0.036632	0.034019	0.007865
379	1.939530	0.005000	9.452346	-0.946254	-0.187211	-0.431321	-0.159635	-0.114975	0.022507	0.041724	0.015996
380	1.944530	0.005000	9.460326	-0.981000	-0.088937	-0.431211	-0.159303	-0.114852	0.026247	0.041076	0.009581
381	1.949530	0.005000	9.488691	-0.978537	-0.083406	-0.431100	-0.158972	-0.114728	0.040505	0.034658	0.012700
382	1.954530	0.005000	9.491758	-1.058039	-0.233999	-0.430989	-0.158640	-0.114605	0.032813	0.035344	0.017929
383	1.959530	0.005000	9.379197	-1.020240	-0.273843	-0.430879	-0.158308	-0.114481	0.052437	0.032992	0.019392
384	1.964530	0.005000	9.379568	-0.981604	-0.157564	-0.430768	-0.157976	-0.114358	0.042929	0.038989	0.015814
385	1.969530	0.005000	9.456840	-1.059480	-0.197827	-0.430658	-0.157645	-0.114234	0.020557	0.038790	0.003898
386	1.974530	0.005000	9.459489	-1.022889	-0.277329	-0.430547	-0.157313	-0.114111	0.039719	0.041308	0.015382
387	1.979530	0.005000	9.496080	-0.909863	-0.089494	-0.430437	-0.156981	-0.113987	0.027479	0.038078	0.012103
388	1.984530	0.005000	9.299880	-0.941760	-0.108332	-0.430326	-0.156649	-0.113864	0.034358	0.031527	0.018099
389	1.989530	0.005000	9.339120	-1.087287	-0.123436	-0.430215	-0.156318	-0.113740	0.032591	0.041289	0.018847
390	1.994530	0.005000	9.515104	-1.026979	-0.163699	-0.430105	-0.155986	-0.113617	0.028356	0.038485	0.013619
391	1.999530	0.005000	9.393102	-1.115846	-0.149589	-0.429994	-0.155654	-0.113493	0.018241	0.041481	0.013506
392	2.004530	0.005000	9.417600	-1.137960	-0.134526	-0.429884	-0.155322	-0.113370	0.016188	0.042841	-0.000437
393	2.009530	0.005000	9.397012	-1.038892	-0.117720	-0.429695	-0.155224	-0.113507	0.014860	0.033366	0.005555
394	2.014530	0.005000	9.417600	-0.952108	-0.156960	-0.429474	-0.155224	-0.113754	0.017394	0.042518	0.015644
395	2.019530	0.005000	9.406229	-0.930389	-0.129091	-0.429253	-0.155224	-0.114001	0.031810	0.036256	0.018116
396	2.024530	0.005000	9.378360	-0.978940	-0.078480	-0.429031	-0.155224	-0.114248	0.015005	0.044434	0.020620
397	2.029530	0.005000	9.390769	-1.047071	-0.131136	-0.428810	-0.155224	-0.114496	0.010835	0.045097	0.011821
398	2.034530	0.005000	9.432023	-0.956183	-0.064057	-0.428589	-0.155224	-0.114743	0.007405	0.043563	0.016990
399	2.039530	0.005000	9.378360	-0.981000	-0.172405	-0.428368	-0.155224	-0.114990	0.010843	0.038636	0.006231
400	2.044530	0.005000	9.372055	-0.958227	-0.124025	-0.428146	-0.155224	-0.115237	0.011386	0.031227	0.021436
401	2.049530	0.005000	9.374100	-0.985260	-0.235440	-0.427925	-0.155224	-0.115484	0.015263	0.030169	0.013332
402	2.054530	0.005000	9.422031	-0.960272	-0.235440	-0.427704	-0.155224	-0.115731	0.018000	0.037832	0.014744
403	2.059530	0.005000	9.497196	-0.843102	-0.255618	-0.427482	-0.155224	-0.115979	0.013161	0.040087	0.022333
404	2.064530	0.005000	9.534406	-0.824040	-0.196200	-0.427261	-0.155224	-0.116226	0.011476	0.043883	0.013462
405	2.069530	0.005000	9.535320	-0.881421	-0.196200	-0.427040	-0.155224	-0.116473	0.034742	0.038685	0.018114
406	2.074530	0.005000	9.400482	-0.946764	-0.191196	-0.426818	-0.155272	-0.116694	0.006618	0.037116	0.020647
407	2.079530	0.005000	9.378360	-0.964904	-0.140864	-0.426597	-0.155493	-0.116817	0.023979	0.027794	0.017439
408	2.084530	0.005000	9.408506	-0.848207	-0.196200	-0.426376	-0.155714	-0.116941	0.034401	0.030118	0.019869
409	2.089530	0.005000	9.431651	-0.891382	-0.218477	-0.426155	-0.155935	-0.117064	0.024965	0.036529	0.025474
410	2.094530	0.005000	9.496080	-1.020240	-0.117720	-0.425933	-0.156157	-0.117188	0.033184	0.028305	0.019853
411	2.099530	0.005000	9.538542	-0.890514	-0.114498	-0.425712	-0.156378	-0.117311	0.027332	0.026814	0.016388
412	2.104530	0.005000	9.485097	-0.952743	-0.167943	-0.425491	-0.156599	-0.117435	0.041715	0.021510	0.021556
413	2.109530	0.005000	9.486119	-0.961078	-0.255362	-0.425269	-0.156821	-0.117558	0.033398	0.034579	0.020936
414	2.114530	0.005000	9.378360	-0.989939	-0.226501	-0.425048	-0.157042	-0.117682	0.032599	0.035789	0.020207
415	2.119530	0.005000	9.378360	-0.972986	-0.180172	-0.424827	-0.157263	-0.117805	0.032508	0.036942	0.022749
416	2.124530	0.005000	9.314628	-1.042362	-0.110346	-0.424606	-0.157484	-0.117929	0.024270	0.038571	0.002448
417	2.129530	0.005000	9.384712	-1.086017	-0.039240	-0.424384	-0.157706	-0.118052	0.035506	0.031948	0.012353
418	2.134530	0.005000	9.389018	-1.014911	-0.190871	-0.424163	-0.157927	-0.118176	0.027225	0.037205	0.013963
419	2.139530	0.005000	9.374053	-0.915440	-0.047853	-0.423942	-0.158148	-0.118299	0.029201	0.027846	0.024009
420	2.144530	0.005000	9.299880	-1.102004	-0.088333	-0.424122	-0.158048	-0.118333	0.017687	0.039154	0.029402
421	2.149530	0.005000	9.304404	-1.098720	-0.152436	-0.424454	-0.157827	-0.118333	0.017888	0.042491	0.020085
422	2.154530	0.005000	9.420110	-1.056970	-0.117720	-0.424786	-0.157606	-0.118333	0.019098	0.029996	0.014451
423	2.159530	0.005000	9.457072	-0.981465	-0.156728	-0.425118	-0.157384	-0.118333	0.021598	0.034857	0.012972
424	2.164530	0.005000	9.419180	-1.021030	-0.117720	-0.425450	-0.157163	-0.118333	0.035229	0.032821	0.011205
425	2.169530	0.005000	9.339120	-1.018427	-0.117720	-0.425781	-0.156942	-0.118333	0.034474	0.036798	0.017680
426	2.174530	0.005000	9.414765	-0.983835	-0.193365	-0.426113	-0.156721	-0.118333	0.026779	0.037187	0.013806
427	2.179530	0.005000	9.378360	-0.941760	-0.184628	-0.426445	-0.156499	-0.118333	0.028707	0.037543	0.011364
428	2.184530	0.005000	9.482881	-0.906920	-0.161360	-0.426777	-0.156278	-0.118333	0.013560	0.051870	0.008845
429	2.189530	0.005000	9.524476	-0.868702	-0.094746	-0.427109	-0.156057	-0.118333	0.028808	0.035737	0.008680
430	2.194530	0.005000	9.515413	-0.902520	-0.098387	-0.427441	-0.155835	-0.118333	0.025007	0.030876	0.012221
431	2.199530	0.005000	9.385827	-0.949227	-0.125187	-0.427773	-0.155614	-0.118333	0.038086	0.024664	0.013442
432	2.204530	0.005000	9.439861	-0.924781	-0.182428	-0.428105	-0.155393	-0.118333	0.046467	0.030305	0.013777
433	2.209530	0.005000	9.486568	-1.040456	-0.136744	-0.428306	-0.155276	-0.118274	0.021441	0.041341	0.014760
434	2.214530	0.005000	9.496080	-0.981000	-0.107186	-0.428084	-0.155498	-0.118027	0.042034	0.030896	0.010432
435	2.219530	0.005000	9.439753	-1.020240	-0.117720	-0.427863	-0.155719	-0.117780	0.022491	0.038528	0.016824
436	2.224530	0.005000	9.538263	-0.965958	-0.105621	-0.427642	-0.155940	-0.117533	0.033227	0.032271	0.009870
437	2.229530	0.005000	9.496080	-0.994121	-0.065359	-0.427420	-0.156162	-0.117286	0.033321	0.031460	0.021013
438	2.234530	0.005000	9.431744	-0.849136	-0.025096	-0.427199	-0.156383	-0.117039	0.026532	0.026634	0.019242
439	2.239530	0.005000	9.363194	-0.965834	-0.063314	-0.426978	-0.156604	-0.116792	0.039156	0.030335	0.022520
440	2.244530	0.005000	9.447514	-1.066343	-0.180011	-0.426756	-0.156826	-0.116545	0.002447	0.035741	0.019048
441	2.249530	0.005000	9.474051	-1.081509	-0.100509	-0.426535	-0.157047	-0.116298	0.020828	0.030269	0.022310
442	2.254530	0.005000	9.456840	-0.959994	-0.120493	-0.426314	-0.157268	-0.116051	0.022408	0.027913	0.023144
443	2.259530	0.005000	9.378360	-0.921048	-0.117720	-0.426093	-0.157489	-0.115803	0.019666	0.023333	0.020154
444	2.264530	0.005000	9.358082	-0.958088	-0.158277	-0.425871	-0.157711	-0.115556	0.030049	0.026646	0.024172
445	2.269530	0.005000	9.474779	-0.981000	-0.132298	-0.425650	-0.157932	-0.115309	0.018485	0.038221	0.006393
446	2.274530	0.005000	9.439917	-1.042557	-0.196200	-0.425429	-0.158153	-0.115062	0.018756	0.035007	0.013941
447	2.279530	0.005000	9.394270	-1.043570	-0.165449	-0.425207	-0.157961	-0.115000	0.016359	0.023512	0.018238
448	2.284530	0.005000	9.432952	-1.020240	-0.133072	-0.424986	-0.157629	-0.115000	0.015456	0.022190	0.022240
449	2.289530	0.005000	9.545901	-1.045150	-0.142630	-0.424765	-0.157297	-0.115000	0.023542	0.027141	0.019617
450	2.294530	0.005000	9.470147	-0.993626	-0.131027	-0.424544	-0.156965	-0.115000	0.021812	0.030002	0.015547
451	2.299530	0.005000	9.483795	-0.978614	-0.196200	-0.424323	-0.156633	-0.115000	0.027014	0.028950	0.021945
452	2.304530	0.005000	9.552004	-0.992278	-0.128998	-0.424101	-0.156301	-0.115000	0.009969	0.039897	0.009751
453	2.309530	0.005000	9.349375	-1.020240	-0.175689	-0.423880	-0.155970	-0.115000	0.008847	0.031761	0.003549
454	2.314530	0.005000	9.369127	-1.119494	-0.226207	-0.423659	-0.155638	-0.115000	0.018801	0.034096	0.009713
455	2.319530	0.005000	9.473261	-1.020240	-0.187989	-0.423438	-0.155306	-0.115000	0.017291	0.033741	0.008056
456	2.324530	0.005000	9.550626	-1.115002	-0.196200	-0.423217	-0.154974	-0.115000	0.034896	0.028163	0.016443
457	2.329530	0.005000	9.528767	-1.052927	-0.117720	-0.422995	-0.154642	-0.115000	0.021210	0.035136	0.014208
458	2.334530	0.005000	9.451217	-1.042610	-0.179330	-0.422774	-0.154311	-0.115000	0.023297	0.030092	0.013628
459	2.339530	0.005000	9.408398	-0.950962	-0.186998	-0.422553	-0.153979	-0.115000	0.017321	0.031837	0.016538
460	2.344530	0.005000	9.342699	-1.030976	-0.028504	-0.422416	-0.153759	-0.114937	0.037255	0.032459	0.009250
461	2.349530	0.005000	9.417600	-1.020240	0.073368	-0.422527	-0.153870	-0.114690	0.030765	0.030769	0.016816
462	2.354530	0.005000	9.456840	-1.057946	-0.191599	-0.422637	-0.153980	-0.114443	0.017325	0.040148	0.016279
463	2.359530	0.005000	9.418111	-1.021262	0.039751	-0.422748	-0.154091	-0.114196	0.018446	0.031698	0.017398
464	2.364530	0.005000	9.418111	-0.982534	-0.153893	-0.422859	-0.154202	-0.113949	0.015936	0.037184	0.010125
465	2.369530	0.005000	9.456840	-0.940226	-0.119254	-0.422969	-0.154312	-0.113702	0.002197	0.044039	-0.000116
466	2.374530	0.005000	9.496080	-0.937608	-0.080556	-0.423080	-0.154423	-0.113455	0.013943	0.036865	0.014302
467	2.379530	0.005000	9.456840	-0.944858	-0.072283	-0.423191	-0.154534	-0.113208	0.019529	0.029370	0.003203
468	2.384530	0.005000	9.496080	-0.945881	-0.047481	-0.423301	-0.154644	-0.112961	0.042992	0.027608	0.015548
469	2.389530	0.005000	9.427886	-0.902520	-0.049526	-0.423412	-0.154755	-0.112715	0.023983	0.038354	0.001656
470	2.394530	0.005000	9.384526	-1.053314	-0.072314	-0.423522	-0.154865	-0.112468	0.018915	0.038359	0.013375
471	2.399530	0.005000	9.392736	-1.013052	-0.053616	-0.423633	-0.154976	-0.112221	0.019835	0.040124	0.005825
472	2.404530	0.005000	9.409389	-1.074088	-0.024632	-0.423744	-0.155087	-0.111974	0.008500	0.035692	0.006056
473	2.409530	0.005000	9.378360	-1.059480	-0.008861	-0.423854	-0.155197	-0.111727	0.016244	0.033264	0.011200
474	2.414530	0.005000	9.427375	-1.049705	-0.058790	-0.424133	-0.154972	-0.112136	0.000686	0.038156	0.000703
475	2.419530	0.005000	9.389501	-0.981000	-0.039240	-0.424464	-0.154640	-0.112753	0.018256	0.033645	0.005756
476	2.424530	0.005000	9.511680	-0.996600	-0.039240	-0.424796	-0.154309	-0.113371	0.008334	0.035609	0.002946
477	2.429530	0.005000	9.470395	-0.981000	-0.092035	-0.425128	-0.153977	-0.113988	0.001743	0.037975	-0.000707
478	2.434530	0.005000	9.470705	-1.031750	-0.103855	-0.425460	-0.153645	-0.114606	0.005616	0.041007	0.006437
479	2.439530	0.005000	9.320189	-1.020240	-0.186735	-0.425792	-0.153313	-0.115223	-0.002167	0.037311	0.007425
480	2.444530	0.005000	9.315790	-1.004330	-0.125140	-0.426123	-0.152981	-0.115841	0.021759	0.031261	0.019432
481	2.449530	0.005000	9.294504	-0.902520	-0.190824	-0.426455	-0.152649	-0.116458	0.008469	0.038778	0.018378
482	2.454530	0.005000	9.339120	-0.863280	-0.135666	-0.426787	-0.152318	-0.117076	0.011710	0.032580	0.007227
483	2.459530	0.005000	9.339120	-0.844318	-0.177238	-0.427119	-0.151986	-0.117693	0.009245	0.040149	0.010544
484	2.464530	0.005000	9.535320	-0.843296	-0.215456	-0.427450	-0.151654	-0.118311	0.005351	0.040680	0.020556
485	2.469530	0.005000	9.535320	-0.902520	-0.274680	-0.427782	-0.151322	-0.118928	0.032947	0.023326	0.016666
486	2.474530	0.005000	9.570155	-0.880697	-0.261668	-0.428114	-0.150990	-0.119546	0.015129	0.016814	0.020094
487	2.479530	0.005000	9.535320	-0.941760	-0.212658	-0.428270	-0.150863	-0.119935	0.024898	0.020601	0.024435
488	2.484530	0.005000	9.480726	-1.083366	-0.329274	-0.427939	-0.151305	-0.119688	0.019921	0.028143	0.018815
489	2.489530	0.005000	9.427592	-0.956384	-0.230808	-0.427607	-0.151748	-0.119441	0.012845	0.028870	0.020144
490	2.494530	0.005000	9.391962	-0.994602	-0.080045	-0.427275	-0.152190	-0.119194	0.031330	0.036744	0.024592
491	2.499530	0.005000	9.376857	-0.929181	-0.260598	-0.426943	-0.152632	-0.118947	0.018457	0.031480	0.012452
492	2.504530	0.005000	9.417600	-0.874837	-0.302363	-0.426612	-0.153075	-0.118700	0.036029	0.026539	0.036134
493	2.509530	0.005000	9.407066	-0.952294	-0.235440	-0.426280	-0.153517	-0.118453	0.026005	0.026685	0.024795
494	2.514530	0.005000	9.456840	-0.981000	-0.167665	-0.425948	-0.153959	-0.118206	0.027460	0.025507	0.018664
495	2.519530	0.005000	9.409111	-0.902520	-0.126209	-0.425616	-0.154402	-0.117959	0.020419	0.032467	0.020197
496	2.524530	0.005000	9.464787	-0.902520	-0.149013	-0.425285	-0.154844	-0.117712	0.008326	0.035631	0.023885
497	2.529530	0.005000	9.332195	-0.888671	-0.110795	-0.424953	-0.155287	-0.117465	0.020978	0.031911	0.031350
498	2.534530	0.005000	9.390165	-0.908422	-0.156960	-0.424621	-0.155729	-0.117218	0.015786	0.029439	0.033092
499	2.539530	0.005000	9.456840	-0.936880	-0.122600	-0.424289	-0.156171	-0.116971	0.027857	0.046540	0.032325
500	2.544530	0.005000	9.499937	-0.981000	-0.117720	-0.423958	-0.156614	-0.116724	0.026250	0.047138	0.028957
501	2.549530	0.005000	9.493245	-0.981000	-0.078480	-0.424136	-0.156886	-0.115243	0.022808	0.047112	0.027925
502	2.554530	0.005000	9.456840	-1.061293	-0.151522	-0.424468	-0.157107	-0.113391	0.024564	0.042740	0.033391
503	2.559530	0.005000	9.535320	-1.058690	-0.116140	-0.424799	-0.157328	-0.111540	0.017226	0.035775	0.025157
504	2.564530	0.005000	9.458218	-1.058791	-0.116342	-0.425131	-0.157549	-0.109688	0.025315	0.029757	0.029992
505	2.569530	0.005000	9.383519	-1.134521	-0.307042	-0.425462	-0.157770	-0.107836	0.027151	0.039623	0.026408
506	2.574530	0.005000	9.535320	-1.059480	-0.277422	-0.425794	-0.157991	-0.105984	0.027632	0.045221	0.023390
507	2.579530	0.005000	9.539084	-1.169671	-0.192436	-0.426126	-0.158213	-0.104133	0.018384	0.051928	0.010016
508	2.584530	0.005000	9.469760	-1.282000	-0.113413	-0.426457	-0.158434	-0.102281	0.021654	0.049049	0.016869
509	2.589530	0.005000	9.490751	-1.328831	-0.049898	-0.426789	-0.158655	-0.100429	0.032826	0.040563	0.021384
510	2.594530	0.005000	9.477025	-1.249328	-0.045592	-0.427120	-0.158876	-0.098578	0.034469	0.042464	0.022274
511	2.599530	0.005000	9.456840	-1.191948	-0.134838	-0.427452	-0.159097	-0.096726	0.033308	0.030238	0.017820
512	2.604530	0.005000	9.487684	-1.208044	-0.173753	-0.427784	-0.159318	-0.094874	0.029629	0.041128	0.016594
513	2.609530	0.005000	9.475678	-1.158362	-0.196200	-0.428115	-0.159539	-0.093022	0.016159	0.049707	0.006844
514	2.614530	0.005000	9.446399	-1.098720	-0.117720	-0.428477	-0.159820	-0.091866	0.036068	0.037846	0.013627
515	2.619530	0.005000	9.396439	-1.059480	-0.050704	-0.428919	-0.160262	-0.092607	0.025370	0.039294	0.010389
516	2.624530	0.005000	9.417600	-1.098720	-0.080262	-0.429362	-0.160705	-0.093348	0.041477	0.028650	0.014415
517	2.629530	0.005000	9.417600	-0.982286	-0.104211	-0.429804	-0.161148	-0.094090	0.033222	0.034934	0.008579
518	2.634530	0.005000	9.417600	-0.941760	-0.142909	-0.430247	-0.161590	-0.094831	0.042187	0.037973	0.008943
519	2.639530	0.005000	9.456840	-1.020240	-0.133076	-0.430690	-0.162033	-0.095572	0.033678	0.046715	0.014387
520	2.644530	0.005000	9.364263	-0.934711	-0.180104	-0.431132	-0.162476	-0.096314	0.027201	0.042868	0.008380
521	2.649530	0.005000	9.361242	-1.020240	-0.235440	-0.431575	-0.162918	-0.097055	0.042737	0.041532	0.008507
522	2.654530	0.005000	9.438699	-1.038381	-0.111802	-0.432017	-0.163361	-0.097797	0.032966	0.036915	-0.005065
523	2.659530	0.005000	9.435849	-0.940846	-0.158788	-0.432460	-0.163804	-0.098538	0.034984	0.036488	0.008962
524	2.664530	0.005000	9.378360	-0.941760	-0.158091	-0.432903	-0.164246	-0.099279	0.034907	0.028361	0.010035
525	2.669530	0.005000	9.357168	-1.002192	-0.078480	-0.433345	-0.164689	-0.100021	0.017764	0.041782	0.004939
526	2.674530	0.005000	9.479055	-1.042455	-0.129556	-0.433788	-0.165132	-0.100762	0.033159	0.043905	0.002043
527	2.679530	0.005000	9.503315	-1.075483	-0.101717	-0.434230	-0.165574	-0.101503	0.018633	0.040243	0.005075
528	2.684530	0.005000	9.408321	-1.005260	-0.132700	-0.433811	-0.165155	-0.102726	0.032316	0.030159	0.010428
529	2.689530	0.005000	9.510205	-1.020240	-0.156960	-0.433147	-0.164491	-0.104084	0.042270	0.035727	0.013868
530	2.694530	0.005000	9.456350	-1.006997	-0.221707	-0.432484	-0.163828	-0.105443	0.033553	0.041671	0.015041
531	2.699530	0.005000	9.378360	-0.941760	-0.144567	-0.431820	-0.163164	-0.106801	0.038081	0.030216	0.011710
532	2.704530	0.005000	9.361862	-0.986128	-0.129091	-0.431157	-0.162500	-0.108160	0.034363	0.040334	0.007159
533	2.709530	0.005000	9.467188	-1.038783	-0.146612	-0.430493	-0.161837	-0.109518	0.036971	0.034323	0.012738
534	2.714530	0.005000	9.477428	-1.010914	-0.166286	-0.429829	-0.161173	-0.110877	0.037883	0.032208	0.014841
535	2.719530	0.005000	9.400993	-1.051177	-0.156960	-0.429166	-0.160509	-0.112235	0.034225	0.022174	0.009964
536	2.724530	0.005000	9.400203	-0.966438	-0.085761	-0.428502	-0.159846	-0.113594	0.038697	0.025710	0.019979
537	2.729530	0.005000	9.411341	-1.032757	-0.084739	-0.427839	-0.159182	-0.114952	0.012174	0.042861	0.001779
538	2.734530	0.005000	9.388832	-1.088248	-0.190964	-0.427175	-0.158518	-0.116311	0.018856	0.035298	0.004230
539	2.739530	0.005000	9.422294	-0.995082	-0.147572	-0.426511	-0.157855	-0.117669	0.015796	0.038969	0.005893
540	2.744530	0.005000	9.378360	-1.048466	-0.042911	-0.425848	-0.157191	-0.119028	0.032607	0.026155	0.004189
541	2.749530	0.005000	9.412302	-0.983649	-0.078480	-0.425404	-0.156779	-0.120000	0.019297	0.028572	0.000639
542	2.754530	0.005000	9.378360	-0.979373	-0.076853	-0.425515	-0.157000	-0.120000	0.010313	0.028405	0.006308
543	2.759530	0.005000	9.418808	-0.866301	-0.118324	-0.425626	-0.157221	-0.120000	0.026024	0.028821	0.009913
544	2.764530	0.005000	9.573723	-0.943015	-0.156960	-0.425736	-0.157442	-0.120000	0.007000	0.034799	0.000951
545	2.769530	0.005000	9.459721	-0.943201	-0.155519	-0.425847	-0.157664	-0.120000	0.014215	0.038386	0.011848
546	2.774530	0.005000	9.493617	-0.983463	-0.122646	-0.425958	-0.157885	-0.120000	0.017479	0.039736	0.015976
547	2.779530	0.005000	9.414557	-0.830125	-0.232397	-0.426068	-0.158106	-0.120000	0.018607	0.037471	0.017392
548	2.784530	0.005000	9.452812	-0.902520	-0.125776	-0.426179	-0.158327	-0.120000	0.036294	0.040511	0.020657
549	2.789530	0.005000	9.422650	-0.863280	-0.141809	-0.426290	-0.158548	-0.120000	0.013084	0.042145	0.006414
550	2.794530	0.005000	9.339120	-0.830113	-0.129865	-0.426400	-0.158770	-0.120000	0.020680	0.048273	0.013940
551	2.799530	0.005000	9.435555	-0.966810	-0.078480	-0.426511	-0.158991	-0.120000	0.007284	0.039424	0.012790
552	2.804530	0.005000	9.496080	-0.910638	-0.171847	-0.426621	-0.159212	-0.120000	0.013608	0.037874	0.010148
553	2.809530	0.005000	9.456840	-0.992820	-0.117720	-0.426732	-0.159433	-0.120000	0.020856	0.046045	0.012190
554	2.814530	0.005000	9.447158	-0.970807	-0.156960	-0.426843	-0.159654	-0.120000	0.024550	0.052085	0.017761
555	2.819530	0.005000	9.456840	-1.020240	-0.156960	-0.426604	-0.159352	-0.119902	0.051944	0.043330	0.024445
556	2.824530	0.005000	9.511866	-1.004454	-0.168687	-0.426272	-0.158909	-0.119779	0.025326	0.044226	0.010814
557	2.829530	0.005000	9.535320	-0.968250	-0.156960	-0.425940	-0.158467	-0.119655	0.035755	0.044956	0.017804
558	2.834530	0.005000	9.419676	-0.983076	-0.156960	-0.425609	-0.158025	-0.119532	0.047599	0.041579	0.015734
559	2.839530	0.005000	9.447189	-0.995794	-0.117720	-0.425277	-0.157582	-0.119408	0.038323	0.038123	0.020601
560	2.844530	0.005000	9.433417	-1.059480	-0.282286	-0.424945	-0.157140	-0.119285	0.058343	0.037530	0.019606
561	2.849530	0.005000	9.378360	-1.037064	-0.067295	-0.424613	-0.156697	-0.119161	0.047778	0.046407	0.011027
562	2.854530	0.005000	9.478234	-1.084421	-0.024941	-0.424281	-0.156255	-0.119038	0.051038	0.045072	0.014783
563	2.859530	0.005000	9.536823	-1.137960	-0.175829	-0.423949	-0.155813	-0.118914	0.042288	0.050245	0.009007
564	2.864530	0.005000	9.515971	-1.158393	-0.019891	-0.423618	-0.155370	-0.118791	0.026531	0.048300	0.017009
565	2.869530	0.005000	9.456840	-1.135373	-0.057566	-0.423286	-0.154928	-0.118667	0.041337	0.044953	0.018732
566	2.874530	0.005000	9.431666	-1.177200	-0.135489	-0.422954	-0.154485	-0.118544	0.026065	0.043097	0.016359
567	2.879530	0.005000	9.473602	-1.143676	-0.084196	-0.422622	-0.154043	-0.118420	0.030997	0.037157	0.019691
568	2.884530	0.005000	9.503841	-1.043741	-0.023501	-0.422388	-0.153731	-0.118297	0.032656	0.042804	0.016904
569	2.889530	0.005000	9.383271	-1.044763	-0.053957	-0.422388	-0.153731	-0.118173	0.020647	0.052443	0.020342
570	2.894530	0.005000	9.405749	-1.008389	-0.064786	-0.422388	-0.153731	-0.118050	0.023589	0.055636	0.012747
571	2.899530	0.005000	9.391032	-1.084824	-0.026568	-0.422388	-0.153731	-0.117926	0.009789	0.043094	0.000702
572	2.904530	0.005000	9.378360	-1.087070	-0.078480	-0.422388	-0.153731	-0.117803	0.036738	0.040737	0.010660
573	2.909530	0.005000	9.399614	-1.088093	-0.128347	-0.422388	-0.153731	-0.117679	0.026508	0.038227	0.002926
574	2.914530	0.005000	9.496080	-1.010155	-0.117720	-0.422388	-0.153731	-0.117556	0.020044	0.041252	0.007146
575	2.919530	0.005000	9.496080	-0.971937	-0.078480	-0.422388	-0.153731	-0.117432	0.016519	0.043518	0.011806
576	2.924530	0.005000	9.378360	-0.894480	-0.093600	-0.422388	-0.153731	-0.117309	0.012460	0.040399	0.001051
577	2.929530	0.005000	9.503098	-0.902520	-0.071462	-0.422388	-0.153731	-0.117186	0.019406	0.032282	0.010608
578	2.934530	0.005000	9.529325	-0.975005	-0.045235	-0.422388	-0.153731	-0.117062	0.019929	0.039089	0.010677
579	2.939530	0.005000	9.461813	-0.981000	-0.093398	-0.422388	-0.153731	-0.116939	0.028793	0.028506	0.013572
580	2.944530	0.005000	9.421550	-0.941760	-0.184349	-0.422388	-0.153731	-0.116815	0.024136	0.038446	0.004928
581	2.949530	0.005000	9.417600	-1.017312	-0.081408	-0.422388	-0.153731	-0.116692	0.026746	0.041155	0.004741
582	2.954530	0.005000	9.380265	-0.898709	0.003811	-0.422476	-0.153643	-0.116371	0.025967	0.044059	0.008322
583	2.959530	0.005000	9.457723	-0.825806	-0.037474	-0.422587	-0.153532	-0.116000	0.025820	0.043687	0.004462
584	2.964530	0.005000	9.494717	-0.786163	-0.118061	-0.422698	-0.153421	-0.115630	0.038073	0.034980	0.012740
585	2.969530	0.005000	9.377678	-0.980318	-0.118402	-0.422808	-0.153311	-0.115259	0.036984	0.035975	0.016998
586	2.974530	0.005000	9.378360	-1.016832	-0.076776	-0.422919	-0.153200	-0.114889	0.034268	0.026965	0.018010
587	2.979530	0.005000	9.527140	-0.981000	-0.083933	-0.423030	-0.153090	-0.114518	0.034378	0.036917	0.015747
588	2.984530	0.005000	9.468087	-0.984749	-0.156960	-0.423140	-0.152979	-0.114148	0.020194	0.038893	-0.000639
589	2.989530	0.005000	9.387903	-0.946531	-0.142646	-0.423251	-0.152869	-0.113777	0.024674	0.035386	0.015205
590	2.994530	0.005000	9.451046	-0.908314	-0.017381	-0.423362	-0.152758	-0.113407	0.020769	0.035673	0.008871
591	2.999530	0.005000	9.463643	-0.902520	-0.018830	-0.423472	-0.152648	-0.113036	0.029942	0.028759	0.013071
592	3.004530	0.005000	9.354766	-0.981000	-0.054886	-0.423583	-0.152537	-0.112666	0.032191	0.030489	0.015911
593	3.009530	0.005000	9.339120	-0.972519	-0.117720	-0.423693	-0.152426	-0.112295	0.011235	0.033676	0.015208
594	3.014530	0.005000	9.387763	-0.932357	-0.156960	-0.423804	-0.152316	-0.111925	0.020325	0.033542	0.022209
595	3.019530	0.005000	9.407174	-0.970574	-0.107294	-0.424016	-0.152306	-0.111818	0.016602	0.020408	0.013395
596	3.024530	0.005000	9.389808	-1.036584	-0.223992	-0.424458	-0.152528	-0.112312	0.030080	0.015382	0.016614
597	3.029530	0.005000	9.417600	-1.020240	-0.144500	-0.424901	-0.152749	-0.112806	0.019377	0.022792	0.018090
598	3.034530	0.005000	9.364882	-1.125675	-0.234247	-0.425343	-0.152970	-0.113300	0.016639	0.023755	0.008237
599	3.039530	0.005000	9.427840	-1.137960	-0.239700	-0.425785	-0.153191	-0.113794	0.029976	0.030344	0.026822
600	3.044530	0.005000	9.465035	-1.043958	-0.228113	-0.426228	-0.153412	-0.114287	0.015802	0.036322	0.016488
601	3.049530	0.005000	9.450690	-1.014090	-0.297375	-0.426670	-0.153634	-0.114781	0.002749	0.023824	0.004887
602	3.054530	0.005000	9.482618	-1.020240	-0.170422	-0.427113	-0.153855	-0.115275	0.003054	0.033678	0.004729
603	3.059530	0.005000	9.493073	-0.923643	-0.159967	-0.427555	-0.154076	-0.115769	0.016229	0.020216	0.010386
604	3.064530	0.005000	9.397492	-1.039372	-0.019132	-0.427997	-0.154297	-0.116263	0.005249	0.028276	0.025806
605	3.069530	0.005000	9.475926	-0.961914	-0.098634	-0.428440	-0.154518	-0.116757	0.002273	0.033365	0.023361
606	3.074530	0.005000	9.453726	-0.959823	-0.114606	-0.428882	-0.154740	-0.117251	0.010704	0.026573	0.017307
607	3.079530	0.005000	9.461999	-0.929878	-0.122879	-0.429325	-0.154961	-0.117745	0.011855	0.030298	0.021319
608	3.084530	0.005000	9.417600	-0.925742	0.023222	-0.429767	-0.155182	-0.118239	0.034334	0.030645	0.025209
609	3.089530	0.005000	9.486832	-0.995996	-0.069232	-0.429493	-0.155403	-0.117733	0.053009	0.028061	0.023124
610	3.094530	0.005000	9.496080	-1.020240	-0.053213	-0.429050	-0.155625	-0.116991	0.046066	0.027724	0.016564
611	3.099530	0.005000	9.509031	-1.033191	-0.117720	-0.428607	-0.155846	-0.116250	0.053376	0.028306	0.022194
612	3.104530	0.005000	9.511167	-1.044393	-0.144884	-0.428165	-0.156067	-0.115508	0.032178	0.028879	0.031738
613	3.109530	0.005000	9.401133	-1.110106	-0.156960	-0.427722	-0.156288	-0.114767	0.037755	0.020400	0.015343
614	3.114530	0.005000	9.485716	-1.109084	-0.156960	-0.427280	-0.156510	-0.114026	0.013576	0.029655	0.021916
615	3.119530	0.005000	9.477397	-1.156643	-0.186859	-0.426837	-0.156731	-0.113284	0.031749	0.022152	0.010402
616	3.124530	0.005000	9.425919	-1.107039	-0.204519	-0.426394	-0.156952	-0.112543	0.030863	0.023202	0.021058
617	3.129530	0.005000	9.417600	-1.184497	-0.117720	-0.425952	-0.157174	-0.111802	0.010793	0.027455	0.015423
618	3.134530	0.005000	9.397182	-1.282372	-0.078480	-0.425509	-0.157395	-0.111060	0.014304	0.023981	0.016108
619	3.139530	0.005000	9.333868	-1.161445	-0.117720	-0.425067	-0.157616	-0.110319	-0.006850	0.028841	0.007107
620	3.144530	0.005000	9.347578	-1.090262	-0.130408	-0.424624	-0.157837	-0.109578	-0.003538	0.026798	0.023314
621	3.149530	0.005000	9.456840	-0.984246	-0.232194	-0.424181	-0.158059	-0.108836	0.023075	0.023213	0.013751
622	3.154530	0.005000	9.454175	-1.135295	-0.123049	-0.423845	-0.158173	-0.108531	0.035469	0.029745	0.012329
623	3.159530	0.005000	9.383286	-1.054554	-0.197842	-0.423735	-0.158063	-0.109149	0.029420	0.019745	0.004645
624	3.164530	0.005000	9.494841	-1.021479	-0.234201	-0.423624	-0.157952	-0.109767	0.013279	0.026282	0.010370
625	3.169530	0.005000	9.378763	-1.137557	-0.273472	-0.423514	-0.157842	-0.110384	0.018937	0.026345	0.010542
626	3.174530	0.005000	9.339120	-1.175775	-0.194775	-0.423403	-0.157731	-0.111002	0.020449	0.026043	0.003310
627	3.179530	0.005000	9.412705	-1.172305	-0.225649	-0.423292	-0.157620	-0.111619	0.034009	0.020832	0.000365
628	3.184530	0.005000	9.456840	-1.187564	-0.128084	-0.423182	-0.157510	-0.112237	0.032518	0.022806	0.005309
629	3.189530	0.005000	9.491603	-1.325206	-0.191723	-0.423071	-0.157399	-0.112854	0.026139	0.029666	0.013414
630	3.194530	0.005000	9.417600	-1.232938	-0.235440	-0.422960	-0.157288	-0.113472	0.022679	0.026165	0.008653
631	3.199530	0.005000	9.384882	-1.131438	-0.189678	-0.422850	-0.157178	-0.114090	0.009593	0.030794	0.000366
632	3.204530	0.005000	9.480991	-1.089657	-0.117720	-0.422739	-0.157067	-0.114707	0.019522	0.016038	-0.012311
633	3.209530	0.005000	9.409033	-1.112260	-0.156960	-0.422628	-0.156956	-0.115325	0.022060	0.018364	-0.004235
634	3.214530	0.005000	9.378360	-1.098720	-0.107248	-0.422518	-0.156846	-0.115942	0.018035	0.026236	-0.003142
635	3.219530	0.005000	9.339120	-1.009983	-0.177474	-0.422407	-0.156735	-0.116560	0.025214	0.025040	-0.013590
636	3.224530	0.005000	9.389514	-1.020240	-0.134249	-0.422754	-0.156716	-0.116463	0.007194	0.028143	-0.009177
637	3.229530	0.005000	9.402713	-1.008064	-0.117720	-0.423196	-0.156716	-0.116216	0.007252	0.028243	-0.006571
638	3.234530	0.005000	9.456840	-1.033439	-0.091322	-0.423638	-0.156716	-0.115969	0.020054	0.034209	-0.002508
639	3.239530	0.005000	9.342544	-1.020240	-0.153536	-0.424081	-0.156716	-0.115722	0.032773	0.033157	-0.013518
640	3.244530	0.005000	9.474345	-0.996244	-0.156960	-0.424523	-0.156716	-0.115475	0.048229	0.020738	0.001819
641	3.249530	0.005000	9.535320	-0.925494	-0.124428	-0.424966	-0.156716	-0.115228	0.044203	0.030129	-0.002915
642	3.254530	0.005000	9.552609	-0.981000	-0.039240	-0.425408	-0.156716	-0.114980	0.037743	0.031503	0.000960
643	3.259530	0.005000	9.496080	-0.941760	-0.120338	-0.425850	-0.156716	-0.114733	0.031982	0.034882	0.003628
644	3.264530	0.005000	9.436933	-1.019667	-0.019907	-0.426293	-0.156716	-0.114486	0.034341	0.025348	-0.003093
645	3.269530	0.005000	9.455836	-0.941760	-0.195196	-0.426735	-0.156716	-0.114239	0.038805	0.026158	0.009284
646	3.274530	0.005000	9.456840	-0.920862	-0.159516	-0.427178	-0.156716	-0.113992	0.049557	0.024698	0.000696
647	3.279530	0.005000	9.444121	-0.976399	-0.078480	-0.427620	-0.156716	-0.113745	0.035929	0.028169	0.008469
648	3.284530	0.005000	9.456840	-1.026886	-0.156960	-0.428062	-0.156716	-0.113498	0.013525	0.035690	-0.008269
649	3.289530	0.005000	9.456840	-0.941760	-0.109029	-0.428321	-0.156716	-0.113456	0.011694	0.025553	-0.001476
650	3.294530	0.005000	9.481828	-0.981000	-0.153443	-0.428211	-0.156716	-0.113827	0.035115	0.028345	-0.001062
651	3.299530	0.005000	9.351890	-0.981000	-0.156960	-0.428100	-0.156716	-0.114197	0.021715	0.024374	0.004154
652	3.304530	0.005000	9.339120	-0.914743	-0.169183	-0.427989	-0.156716	-0.114568	0.032919	0.031595	0.003054
653	3.309530	0.005000	9.311080	-0.981000	-0.185000	-0.427879	-0.156716	-0.114939	0.016905	0.045397	0.005467
654	3.314530	0.005000	9.369654	-0.912698	-0.156960	-0.427768	-0.156716	-0.115309	0.029171	0.042762	0.009621
655	3.319530	0.005000	9.435911	-0.971845	-0.207974	-0.427658	-0.156716	-0.115680	0.017842	0.041986	0.002674
656	3.324530	0.005000	9.378360	-0.989133	-0.179934	-0.427547	-0.156716	-0.116051	0.019999	0.038071	-0.003780
657	3.329530	0.005000	9.438932	-0.988111	-0.110609	-0.427436	-0.156716	-0.116421	0.034598	0.037290	0.012346
658	3.334530	0.005000	9.411512	-1.020240	-0.144784	-0.427326	-0.156716	-0.116792	0.020993	0.046286	0.009583
659	3.339530	0.005000	9.501146	-1.064546	-0.083546	-0.427215	-0.156716	-0.117163	0.024943	0.037885	0.010531
660	3.344530	0.005000	9.570517	-1.055437	-0.121763	-0.427105	-0.156716	-0.117533	0.012830	0.042113	-0.004674
661	3.349530	0.005000	9.526257	-1.023261	-0.235440	-0.426994	-0.156716	-0.117904	0.016078	0.039275	0.010590
662	3.354530	0.005000	9.303877	-0.945757	-0.158958	-0.426883	-0.156716	-0.118275	0.021423	0.037693	0.003596
663	3.359530	0.005000	9.495104	-1.022192	-0.080432	-0.427705	-0.157182	-0.116251	0.013598	0.028921	0.007768
664	3.364530	0.005000	9.417631	-1.020302	-0.156960	-0.428700	-0.157735	-0.113781	0.002675	0.041501	0.009143
665	3.369530	0.005000	9.417600	-0.982053	-0.156960	-0.429696	-0.158288	-0.111311	-0.004397	0.035345	0.002176
666	3.374530	0.005000	9.496080	-0.940149	-0.197811	-0.430691	-0.158841	-0.108841	0.003349	0.045971	0.003916
667	3.379530	0.005000	9.344387	-0.983634	-0.120354	-0.431687	-0.159394	-0.106371	0.002773	0.038985	0.009346
668	3.384530	0.005000	9.453184	-0.941760	-0.153304	-0.432682	-0.159947	-0.103901	0.000861	0.034431	0.008908
669	3.389530	0.005000	9.417600	-0.941760	-0.235440	-0.433677	-0.160500	-0.101431	0.019411	0.029007	0.018157
670	3.394530	0.005000	9.384048	-0.941760	-0.056303	-0.434673	-0.161053	-0.098961	0.013131	0.028647	0.015001
671	3.399530	0.005000	9.456840	-0.948468	-0.208609	-0.435668	-0.161606	-0.096491	0.024232	0.034455	0.015882
672	3.404530	0.005000	9.456840	-0.917981	-0.164690	-0.436664	-0.162159	-0.094021	0.017392	0.036911	0.014287
673	3.409530	0.005000	9.513585	-0.885015	-0.095985	-0.437659	-0.162712	-0.091551	0.009849	0.038790	0.005954
674	3.414530	0.005000	9.456840	-0.931985	0.029604	-0.438654	-0.163265	-0.089081	0.021337	0.032382	0.012181
675	3.419530	0.005000	9.485282	-0.930962	-0.017645	-0.439650	-0.163818	-0.086611	0.016161	0.035977	0.016762
676	3.424530	0.005000	9.339120	-0.918799	-0.156960	-0.440030	-0.164294	-0.085343	0.039936	0.019471	0.019074
677	3.429530	0.005000	9.390722	-1.034756	-0.196200	-0.439256	-0.164626	-0.086331	0.020040	0.030606	0.012439
678	3.434530	0.005000	9.496080	-0.929289	-0.156960	-0.438482	-0.164958	-0.087319	0.017959	0.030336	0.004664
679	3.439530	0.005000	9.481673	-0.902520	-0.171367	-0.437708	-0.165289	-0.088306	0.016119	0.031161	0.012657
680	3.444530	0.005000	9.480650	-0.831089	-0.180770	-0.436934	-0.165621	-0.089294	0.028500	0.037306	0.004142
681	3.449530	0.005000	9.450504	-0.948096	-0.150624	-0.436160	-0.165953	-0.090281	0.046429	0.031679	0.011167
682	3.454530	0.005000	9.452549	-0.959234	-0.200491	-0.435387	-0.166284	-0.091269	0.030342	0.033629	0.014295
683	3.459530	0.005000	9.456840	-0.941760	-0.156960	-0.434613	-0.166616	-0.092256	0.039374	0.031819	0.011428
684	3.464530	0.005000	9.398561	-0.921559	-0.077318	-0.433839	-0.166948	-0.093244	0.028579	0.033119	0.009989
685	3.469530	0.005000	9.377477	-0.864163	-0.078480	-0.433065	-0.167280	-0.094232	0.026410	0.043816	0.018492
686	3.474530	0.005000	9.399444	-0.905448	-0.078480	-0.432291	-0.167611	-0.095219	0.035518	0.039401	0.016543
687	3.479530	0.005000	9.378360	-0.958894	-0.117720	-0.431517	-0.167943	-0.096207	0.030041	0.035880	0.021328
688	3.484530	0.005000	9.433711	-0.973982	-0.055351	-0.430743	-0.168275	-0.097194	0.044957	0.037638	0.029451
689	3.489530	0.005000	9.541346	-0.917609	-0.147897	-0.429969	-0.168606	-0.098182	0.031287	0.036419	0.020319
690	3.494530	0.005000	9.636015	-0.916586	-0.232481	-0.429476	-0.167533	-0.099379	0.033057	0.026941	0.018788
691	3.499530	0.005000	9.535320	-0.954589	-0.235440	-0.429034	-0.166206	-0.100614	0.045509	0.038654	0.018614
692	3.504530	0.005000	9.456840	-0.915022	-0.181963	-0.428592	-0.164878	-0.101849	0.035780	0.033611	0.017720
693	3.509530	0.005000	9.417600	-0.981000	-0.173242	-0.428149	-0.163551	-0.103084	0.050342	0.031292	0.011709
694	3.514530	0.005000	9.349577	-0.970543	-0.167417	-0.427707	-0.162224	-0.104319	0.048119	0.030806	0.019395
695	3.519530	0.005000	9.485143	-0.951194	-0.166394	-0.427264	-0.160897	-0.105554	0.046176	0.036174	0.017231
696	3.524530	0.005000	9.512707	-0.910833	-0.101093	-0.426822	-0.159569	-0.106789	0.041123	0.036902	0.012608
697	3.529530	0.005000	9.417600	-1.020240	-0.188811	-0.426380	-0.158242	-0.108024	0.038094	0.032365	0.006123
698	3.534530	0.005000	9.411233	-1.053113	-0.098619	-0.425937	-0.156915	-0.109259	0.049538	0.037166	0.007092
699	3.539530	0.005000	9.315914	-0.981000	-0.028551	-0.425495	-0.155588	-0.110495	0.047580	0.038612	0.011241
700	3.544530	0.005000	9.260640	-1.020240	-0.004338	-0.425052	-0.154261	-0.111730	0.056670	0.029138	0.010120
701	3.549530	0.005000	9.420915	-1.052850	0.111090	-0.424610	-0.152933	-0.112965	0.045877	0.027000	0.017592
702	3.554530	0.005000	9.535320	-1.095963	0.039240	-0.424168	-0.151606	-0.114200	0.035645	0.038399	0.016179
703	3.559530	0.005000	9.494345	-1.018505	-0.042710	-0.423920	-0.150824	-0.115130	0.053329	0.031500	0.016249
704	3.564530	0.005000	9.379073	-0.981000	-0.197625	-0.424030	-0.151045	-0.115501	0.035836	0.035172	0.005513
705	3.569530	0.005000	9.378670	-0.942070	-0.235750	-0.424141	-0.151266	-0.115871	0.044064	0.018275	0.007330
706	3.574530	0.005000	9.413648	-1.060797	-0.159595	-0.424252	-0.151487	-0.116242	0.033425	0.028379	0.014462
707	3.579530	0.005000	9.419939	-1.280885	-0.124738	-0.424362	-0.151709	-0.116612	0.034821	0.027183	0.014353
708	3.584530	0.005000	9.274087	-1.151407	-0.153598	-0.424473	-0.151930	-0.116983	0.028152	0.025196	0.009163
709	3.589530	0.005000	9.369592	-1.103104	-0.239824	-0.424583	-0.152151	-0.117353	0.010551	0.030156	0.002223
710	3.594530	0.005000	9.389173	-1.036460	-0.196200	-0.424694	-0.152372	-0.117724	0.016817	0.035305	0.011143
711	3.599530	0.005000	9.319167	-1.053051	-0.196200	-0.424804	-0.152593	-0.118095	0.008895	0.031065	0.006768
712	3.604530	0.005000	9.306938	-0.995115	-0.156960	-0.424915	-0.152815	-0.118465	0.017781	0.024173	0.008003
713	3.609530	0.005000	9.347114	-1.051486	-0.094467	-0.425026	-0.153036	-0.118836	0.010806	0.028880	0.006510
714	3.614530	0.005000	9.326928	-0.999032	-0.156960	-0.425136	-0.153257	-0.119206	0.000611	0.038203	0.004887
715	3.619530	0.005000	9.329995	-0.941760	-0.215363	-0.425247	-0.153478	-0.119577	0.019826	0.030849	0.011013
716	3.624530	0.005000	9.434718	-0.902520	-0.156960	-0.425357	-0.153699	-0.119947	0.012107	0.038477	0.000524
717	3.629530	0.005000	9.468923	-0.890437	-0.184117	-0.425563	-0.154015	-0.119894	0.030975	0.041382	-0.006499
718	3.634530	0.005000	9.496080	-0.850174	-0.091586	-0.425784	-0.154347	-0.119771	0.023648	0.029994	0.002191
719	3.639530	0.005000	9.428583	-0.877408	-0.171088	-0.426005	-0.154679	-0.119647	0.033918	0.033794	0.012137
720	3.644530	0.005000	9.426539	-0.911459	-0.054391	-0.426226	-0.155011	-0.119524	0.039027	0.030025	0.016109
721	3.649530	0.005000	9.511967	-0.956691	-0.117720	-0.426447	-0.155343	-0.119400	0.030711	0.035286	0.009846
722	3.654530	0.005000	9.400885	-0.952666	-0.146054	-0.426669	-0.155675	-0.119276	0.031133	0.034303	0.013518
723	3.659530	0.005000	9.417600	-0.967027	-0.174698	-0.426890	-0.156006	-0.119153	0.019205	0.036532	0.008841
724	3.664530	0.005000	9.400559	-1.020240	-0.175720	-0.427111	-0.156338	-0.119029	0.031731	0.026195	0.007242
725	3.669530	0.005000	9.496080	-0.942085	-0.118045	-0.427332	-0.156670	-0.118906	0.029065	0.029264	0.014577
726	3.674530	0.005000	9.419970	-0.902520	-0.156960	-0.427553	-0.157002	-0.118782	0.012920	0.028034	0.011386
727	3.679530	0.005000	9.417600	-0.981000	-0.130717	-0.427775	-0.157334	-0.118659	0.003429	0.032255	0.020315
728	3.684530	0.005000	9.412101	-1.014741	-0.156960	-0.427996	-0.157666	-0.118535	0.007029	0.036886	0.013490
729	3.689530	0.005000	9.503624	-0.972697	-0.055088	-0.428217	-0.157997	-0.118412	0.014488	0.036624	0.005405
730	3.694530	0.005000	9.550145	-0.941760	-0.156960	-0.428238	-0.158049	-0.118333	0.008710	0.032857	0.019093
731	3.699530	0.005000	9.431403	-0.955563	-0.117720	-0.427906	-0.157606	-0.118333	0.025367	0.026360	0.018298
732	3.704530	0.005000	9.496080	-0.968220	-0.196200	-0.427574	-0.157163	-0.118333	0.036764	0.023763	0.022978
733	3.709530	0.005000	9.386152	-0.965276	-0.105962	-0.427242	-0.156721	-0.118333	0.032362	0.028398	0.024240
734	3.714530	0.005000	9.478311	-1.009504	-0.106984	-0.426910	-0.156278	-0.118333	0.025464	0.037626	0.015854
735	3.719530	0.005000	9.466553	-0.951473	-0.186487	-0.426578	-0.155836	-0.118333	0.016090	0.035526	0.019692
736	3.724530	0.005000	9.469997	-1.037628	-0.135108	-0.426246	-0.155393	-0.118333	0.020871	0.041335	0.010512
737	3.729530	0.005000	9.386044	-1.020240	-0.149276	-0.425914	-0.154951	-0.118333	0.024355	0.035560	0.026505
738	3.734530	0.005000	9.404277	-0.994323	-0.208795	-0.425583	-0.154508	-0.118333	0.022809	0.039944	0.030226
739	3.739530	0.005000	9.429013	-0.947466	-0.151254	-0.425251	-0.154065	-0.118333	0.039195	0.038213	0.030373
740	3.744530	0.005000	9.446678	-1.025321	-0.073399	-0.424919	-0.153623	-0.118333	0.020464	0.039452	0.021220
741	3.749530	0.005000	9.452781	-1.090602	-0.161019	-0.424587	-0.153180	-0.118333	0.029019	0.036435	0.024364
742	3.754530	0.005000	9.456840	-0.977948	-0.156960	-0.424255	-0.152738	-0.118333	0.038666	0.028711	0.025032
743	3.759530	0.005000	9.535320	-0.983029	-0.192141	-0.423923	-0.152295	-0.118333	0.029747	0.033001	0.019572
744	3.764530	0.005000	9.416593	-1.020240	-0.195193	-0.423881	-0.152336	-0.118441	0.035810	0.031102	0.024807
745	3.769530	0.005000	9.456809	-0.981015	-0.196185	-0.423881	-0.152446	-0.118564	0.026393	0.039257	0.017104
746	3.774530	0.005000	9.495042	-1.057404	-0.078480	-0.423881	-0.152557	-0.118688	0.035685	0.034624	0.021613
747	3.779530	0.005000	9.419660	-1.020240	-0.190019	-0.423881	-0.152667	-0.118811	0.036834	0.042791	0.015739
748	3.784530	0.005000	9.381443	-1.059480	-0.123886	-0.423881	-0.152778	-0.118935	0.033000	0.035508	0.015253
749	3.789530	0.005000	9.303985	-1.059480	-0.144644	-0.423881	-0.152888	-0.119059	0.044675	0.032345	0.025982
750	3.794530	0.005000	9.236783	-0.981000	-0.167215	-0.423881	-0.152999	-0.119182	0.036312	0.031609	0.021762
751	3.799530	0.005000	9.293730	-0.987150	-0.123870	-0.423881	-0.153110	-0.119306	0.040932	0.031676	0.028614
752	3.804530	0.005000	9.442495	-1.091547	-0.156960	-0.423881	-0.153220	-0.119429	0.036389	0.039676	0.014506
753	3.809530	0.005000	9.465221	-1.051765	-0.125435	-0.423881	-0.153331	-0.119553	0.042642	0.040203	0.018295
754	3.814530	0.005000	9.395834	-0.989737	-0.148223	-0.423881	-0.153441	-0.119676	0.036915	0.035359	0.023023
755	3.819530	0.005000	9.417600	-0.951520	-0.255161	-0.423881	-0.153552	-0.119800	0.042106	0.026722	0.015325
756	3.824530	0.005000	9.535320	-1.037916	-0.267786	-0.423881	-0.153662	-0.119923	0.061398	0.023774	0.023282
757	3.829530	0.005000	9.417600	-0.992805	-0.196200	-0.423923	-0.153689	-0.119906	0.059840	0.031561	0.024995
758	3.834530	0.005000	9.391187	-1.006654	-0.064894	-0.424033	-0.153579	-0.119659	0.048674	0.038112	0.021550
759	3.839530	0.005000	9.417600	-1.110261	-0.090021	-0.424144	-0.153468	-0.119412	0.032276	0.044500	0.024606
760	3.844530	0.005000	9.403030	-1.201870	-0.014570	-0.424255	-0.153357	-0.119165	0.026508	0.042476	0.019877
761	3.849530	0.005000	9.362946	-1.216440	-0.078480	-0.424365	-0.153247	-0.118918	0.042379	0.029094	0.019336
762	3.854530	0.005000	9.469574	-1.154396	-0.101284	-0.424476	-0.153136	-0.118671	0.037390	0.026113	0.018286
763	3.859530	0.005000	9.478621	-1.137960	-0.117720	-0.424587	-0.153025	-0.118424	0.035589	0.019428	0.009504
764	3.864530	0.005000	9.475321	-0.999481	-0.133924	-0.424697	-0.152915	-0.118177	0.016115	0.031986	0.011291
765	3.869530	0.005000	9.398096	-1.039976	-0.176464	-0.424808	-0.152804	-0.117930	0.020250	0.042970	0.001188
766	3.874530	0.005000	9.378360	-1.115643	-0.156960	-0.424918	-0.152694	-0.117683	0.039798	0.038049	0.008060
767	3.879530	0.005000	9.378360	-1.212614	-0.156960	-0.425029	-0.152583	-0.117436	0.023294	0.033042	0.002788
768	3.884530	0.005000	9.283196	-1.154644	-0.162831	-0.425140	-0.152472	-0.117188	0.038144	0.027204	0.000931
769	3.889530	0.005000	9.394022	-1.114382	-0.094142	-0.425250	-0.152362	-0.116941	0.020077	0.031487	0.002199
770	3.894530	0.005000	9.393175	-1.044665	-0.136940	-0.425361	-0.152251	-0.116694	0.022812	0.033635	-0.012431
771	3.899530	0.005000	9.392442	-1.045398	-0.028164	-0.425471	-0.152436	-0.116777	0.034170	0.033089	-0.006921
772	3.904530	0.005000	9.456840	-0.981000	-0.130785	-0.425582	-0.152657	-0.116900	0.020400	0.036139	-0.002455
773	3.909530	0.005000	9.487110	-0.953812	-0.181065	-0.425693	-0.152879	-0.117024	0.018910	0.033903	-0.006332
774	3.914530	0.005000	9.428630	-0.941760	-0.241590	-0.425804	-0.153100	-0.117147	0.018683	0.031714	-0.003206
775	3.919530	0.005000	9.446832	-0.960985	-0.156960	-0.425914	-0.153321	-0.117271	0.031810	0.029576	-0.001523
776	3.924530	0.005000	9.496080	-0.981000	-0.223155	-0.426025	-0.153542	-0.117394	0.019563	0.033979	-0.003299
777	3.929530	0.005000	9.511432	-1.020240	-0.227477	-0.426136	-0.153764	-0.117518	0.010329	0.034736	-0.001805
778	3.934530	0.005000	9.332180	-0.967120	-0.150020	-0.426246	-0.153985	-0.117641	0.024775	0.032963	-0.001021
779	3.939530	0.005000	9.272622	-0.953742	-0.039240	-0.426357	-0.154206	-0.117765	0.013495	0.030223	0.004358
780	3.944530	0.005000	9.389111	-0.981000	-0.083856	-0.426468	-0.154428	-0.117889	0.035586	0.023180	0.013010
781	3.949530	0.005000	9.496080	-0.937407	-0.156960	-0.426578	-0.154649	-0.118012	0.006816	0.025507	0.012296
782	3.954530	0.005000	9.388352	-0.892528	-0.232109	-0.426689	-0.154870	-0.118136	0.015882	0.019456	0.005774
783	3.959530	0.005000	9.530704	-0.900212	-0.085405	-0.426800	-0.155091	-0.118259	0.003662	0.034870	0.017434
784	3.964530	0.005000	9.339120	-0.903806	-0.155674	-0.426644	-0.155268	-0.118283	0.016981	0.037564	0.012562
785	3.969530	0.005000	9.378623	-0.901993	-0.117720	-0.426091	-0.155379	-0.118160	0.020320	0.035030	0.018112
786	3.974530	0.005000	9.417600	-0.785559	-0.040758	-0.425538	-0.155489	-0.118037	0.005964	0.030606	0.015577
787	3.979530	0.005000	9.458622	-0.865062	-0.190855	-0.424985	-0.155600	-0.117913	0.022432	0.038960	0.015644
788	3.984530	0.005000	9.385331	-0.895549	-0.193876	-0.424432	-0.155711	-0.117790	0.019590	0.039531	0.020071
789	3.989530	0.005000	9.417600	-0.902520	-0.228748	-0.423879	-0.155821	-0.117666	0.018995	0.033062	0.013526
790	3.994530	0.005000	9.417600	-0.902520	-0.156960	-0.423326	-0.155932	-0.117543	0.014221	0.029219	0.014661
791	3.999530	0.005000	9.417600	-0.970218	-0.162351	-0.422773	-0.156042	-0.117419	0.014281	0.028264	0.017176
792	4.004530	0.005000	9.463253	-0.961760	-0.229027	-0.422220	-0.156153	-0.117296	0.031397	0.022051	0.018999
793	4.009530	0.005000	9.535320	-0.949196	-0.156960	-0.421667	-0.156263	-0.117172	0.017858	0.035395	0.030479
794	4.014530	0.005000	9.456840	-0.902520	-0.235440	-0.421114	-0.156374	-0.117049	0.021449	0.033235	0.024567
795	4.019530	0.005000	9.289082	-0.893039	-0.196200	-0.420561	-0.156485	-0.116925	0.020529	0.032863	0.026999
796	4.024530	0.005000	9.388863	-0.952263	-0.149230	-0.420008	-0.156595	-0.116802	0.013764	0.031903	0.025193
797	4.029530	0.005000	9.512300	-1.020240	-0.168470	-0.419455	-0.156706	-0.116679	0.032725	0.031133	0.029156
798	4.034530	0.005000	9.588735	-0.981000	-0.183667	-0.420005	-0.157017	-0.115771	0.042326	0.038160	0.021720
799	4.039530	0.005000	9.574560	-1.059480	-0.144830	-0.420669	-0.157349	-0.114782	0.028292	0.030911	0.031522
800	4.044530	0.005000	9.549433	-1.006127	-0.128734	-0.421333	-0.157681	-0.113793	0.040103	0.036792	0.033275
801	4.049530	0.005000	9.520185	-1.107690	-0.093615	-0.421997	-0.158013	-0.112804	0.022480	0.029627	0.028039
802	4.054530	0.005000	9.590718	-1.066405	-0.140802	-0.422662	-0.158346	-0.111815	0.032516	0.039777	0.018292
803	4.059530	0.005000	9.474005	-1.076645	-0.139795	-0.423326	-0.158678	-0.110826	0.020144	0.039994	0.014271
804	4.064530	0.005000	9.498946	-1.062346	-0.180879	-0.423990	-0.159010	-0.109837	0.028823	0.036163	0.013245
805	4.069530	0.005000	9.476871	-0.980179	-0.216231	-0.424654	-0.159342	-0.108848	0.032187	0.032952	0.017651
806	4.074530	0.005000	9.477072	-1.078488	-0.273456	-0.425318	-0.159674	-0.107859	0.030849	0.029523	0.013322
807	4.079530	0.005000	9.517334	-1.098720	-0.277949	-0.425983	-0.160006	-0.106870	0.038446	0.032078	0.017273
808	4.084530	0.005000	9.456840	-1.003073	-0.191293	-0.426647	-0.160338	-0.105881	0.025542	0.042381	0.020942
809	4.089530	0.005000	9.535320	-0.902520	-0.264657	-0.427311	-0.160670	-0.104892	0.041985	0.036793	0.013815
810	4.094530	0.005000	9.566117	-0.972557	-0.126163	-0.427975	-0.161003	-0.103903	0.026304	0.038040	0.019039
811	4.099530	0.005000	9.442464	-0.956136	-0.156960	-0.428358	-0.160960	-0.103699	0.056051	0.027853	0.012966
812	4.104530	0.005000	9.443486	-1.006886	-0.209554	-0.428358	-0.160406	-0.104564	0.040897	0.039321	0.034189
813	4.109530	0.005000	9.363782	-0.956338	-0.262349	-0.428358	-0.159853	-0.105429	0.047882	0.028543	0.024172
814	4.114530	0.005000	9.339120	-0.964378	-0.190886	-0.428358	-0.159300	-0.106294	0.046655	0.035552	0.015668
815	4.119530	0.005000	9.496080	-1.049194	-0.185914	-0.428358	-0.158747	-0.107159	0.043101	0.040389	0.009465
816	4.124530	0.005000	9.387624	-1.031688	-0.166224	-0.428358	-0.158193	-0.108024	0.048926	0.038077	0.015010
817	4.129530	0.005000	9.347361	-0.974726	-0.148719	-0.428358	-0.157640	-0.108889	0.053319	0.044736	0.023420
818	4.134530	0.005000	9.410381	-1.052261	-0.156960	-0.428358	-0.157087	-0.109754	0.035625	0.039255	0.016602
819	4.139530	0.005000	9.372163	-0.974803	-0.156960	-0.428358	-0.156533	-0.110619	0.053668	0.033133	0.022384
820	4.144530	0.005000	9.451666	-1.103894	-0.151786	-0.428358	-0.155980	-0.111484	0.032839	0.041048	0.018508
821	4.149530	0.005000	9.412968	-1.054848	-0.078480	-0.428358	-0.155427	-0.112349	0.032556	0.047953	0.018128
822	4.154530	0.005000	9.417600	-0.977390	-0.082090	-0.428358	-0.154874	-0.113214	0.032531	0.044669	0.021608
823	4.159530	0.005000	9.375773	-1.017653	-0.005174	-0.428358	-0.154320	-0.114079	0.042502	0.040706	0.024421
824	4.164530	0.005000	9.304574	-1.023369	-0.197765	-0.428358	-0.153767	-0.114944	0.045846	0.039177	0.017194
825	4.169530	0.005000	9.377818	-1.058396	-0.196200	-0.429703	-0.154662	-0.113267	0.037509	0.052056	0.022295
826	4.174530	0.005000	9.377880	-0.864721	-0.041161	-0.431141	-0.155658	-0.111414	0.035523	0.040208	0.021435
827	4.179530	0.005000	9.416112	-0.982488	-0.116232	-0.432580	-0.156654	-0.109561	0.025378	0.042122	0.018687
828	4.184530	0.005000	9.525282	-1.017730	-0.117720	-0.434018	-0.157650	-0.107707	0.030492	0.039817	0.011402
829	4.189530	0.005000	9.453773	-1.062547	-0.193133	-0.435456	-0.158645	-0.105854	0.036394	0.036903	0.021374
830	4.194530	0.005000	9.456840	-1.071749	-0.113630	-0.436895	-0.159641	-0.104001	0.031689	0.031622	0.013102
831	4.199530	0.005000	9.461952	-0.986112	-0.167184	-0.438333	-0.160637	-0.102147	0.034431	0.033164	0.019819
832	4.204530	0.005000	9.357524	-1.086451	-0.117720	-0.439772	-0.161633	-0.100294	0.016537	0.038021	0.010734
833	4.209530	0.005000	9.496080	-1.155775	-0.164102	-0.441210	-0.162629	-0.098440	0.015903	0.038472	0.017097
834	4.214530	0.005000	9.504244	-1.129796	-0.188036	-0.442649	-0.163625	-0.096587	0.015381	0.039525	0.012287
835	4.219530	0.005000	9.417600	-1.020240	-0.078480	-0.444087	-0.164621	-0.094734	0.024855	0.033291	0.013630
836	4.224530	0.005000	9.388104	-1.020240	-0.088224	-0.445526	-0.165616	-0.092880	0.028998	0.032848	0.017721
837	4.229530	0.005000	9.485313	-0.984826	-0.096187	-0.446964	-0.166612	-0.091027	0.015174	0.027178	0.013694
838	4.234530	0.005000	9.390149	-0.914309	-0.105931	-0.446971	-0.166819	-0.090606	0.026932	0.032883	0.003334
839	4.239530	0.005000	9.431248	-0.902520	-0.051184	-0.445201	-0.166044	-0.091965	0.023433	0.040343	0.010974
840	4.244530	0.005000	9.454625	-0.978785	-0.129323	-0.443431	-0.165269	-0.093324	0.011183	0.036771	0.009633
841	4.249530	0.005000	9.481239	-1.069038	-0.108162	-0.441660	-0.164495	-0.094684	0.023108	0.029323	0.018169
842	4.254530	0.005000	9.535320	-1.059480	-0.070130	-0.439890	-0.163720	-0.096043	0.025058	0.026196	0.013514
843	4.259530	0.005000	9.535320	-1.037126	-0.145543	-0.438120	-0.162946	-0.097402	0.038517	0.027089	0.013302
844	4.264530	0.005000	9.474748	-1.002332	-0.117720	-0.436349	-0.162171	-0.098761	0.012861	0.037672	0.006248
845	4.269530	0.005000	9.535320	-1.064158	-0.154621	-0.434579	-0.161397	-0.100120	0.010212	0.031220	0.002330
846	4.274530	0.005000	9.476902	-1.059480	-0.176727	-0.432809	-0.160622	-0.101479	0.017401	0.038311	0.007982
847	4.279530	0.005000	9.438095	-1.001495	-0.156960	-0.431038	-0.159847	-0.102838	0.012917	0.024995	0.001557
848	4.284530	0.005000	9.435322	-0.959482	-0.156960	-0.429268	-0.159073	-0.104197	0.026623	0.019969	0.013274
849	4.289530	0.005000	9.535320	-1.053640	-0.167820	-0.427497	-0.158298	-0.105557	0.028405	0.029902	0.012492
850	4.294530	0.005000	9.503965	-0.981000	-0.188315	-0.425727	-0.157524	-0.106916	0.037898	0.023742	0.022742
851	4.299530	0.005000	9.471677	-0.971433	-0.235440	-0.423957	-0.156749	-0.108275	0.021490	0.030330	0.002058
852	4.304530	0.005000	9.456840	-1.034353	-0.210313	-0.423881	-0.156716	-0.107860	0.016839	0.034769	0.010449
853	4.309530	0.005000	9.443781	-1.007150	-0.196200	-0.423881	-0.156716	-0.107366	0.031110	0.031913	-0.000028
854	4.314530	0.005000	9.417600	-0.965896	-0.141856	-0.423881	-0.156716	-0.106872	0.022972	0.026719	0.007270
855	4.319530	0.005000	9.473989	-1.009195	-0.174109	-0.423881	-0.156716	-0.106377	0.035354	0.020392	0.005408
856	4.324530	0.005000	9.464604	-0.960016	-0.175216	-0.423881	-0.156716	-0.105883	0.034960	0.027116	0.003747
857	4.329530	0.005000	9.427081	-0.902520	-0.136682	-0.423881	-0.156716	-0.105389	0.029521	0.024266	0.012886
858	4.334530	0.005000	9.400683	-0.950218	-0.201607	-0.423881	-0.156716	-0.104895	0.037191	0.022654	0.016457
859	4.339530	0.005000	9.434532	-0.981000	0.039240	-0.423881	-0.156716	-0.104401	0.015265	0.031467	0.002004
860	4.344530	0.005000	9.411187	-0.948173	-0.124133	-0.423881	-0.156716	-0.103906	0.022384	0.035517	0.005936
861	4.349530	0.005000	9.378360	-0.907976	-0.201656	-0.423881	-0.156716	-0.103412	0.023495	0.029824	0.004916
862	4.354530	0.005000	9.452005	-0.976165	-0.171466	-0.423881	-0.156716	-0.102918	0.037602	0.027217	0.013323
863	4.359530	0.005000	9.527667	-0.988653	-0.196200	-0.423881	-0.156716	-0.102424	0.032172	0.035283	0.017709
864	4.364530	0.005000	9.532516	-0.978196	-0.156960	-0.423881	-0.156716	-0.101930	0.021295	0.032552	0.014245
865	4.369530	0.005000	9.417600	-0.982782	-0.192637	-0.423933	-0.156509	-0.102188	0.022587	0.031780	0.010206
866	4.374530	0.005000	9.380808	-1.057032	-0.082151	-0.424043	-0.156066	-0.103299	0.021977	0.036822	0.012835
867	4.379530	0.005000	9.456639	-1.020441	-0.235239	-0.424154	-0.155624	-0.104411	0.033796	0.033032	0.017898
868	4.384530	0.005000	9.340762	-1.021061	-0.157781	-0.424264	-0.155182	-0.105522	0.026190	0.036251	0.016517
869	4.389530	0.005000	9.376532	-0.945416	-0.196200	-0.424375	-0.154739	-0.106634	0.024390	0.038666	0.019559
870	4.394530	0.005000	9.423301	-0.983850	-0.154110	-0.424486	-0.154297	-0.107745	0.021472	0.031401	0.025565
871	4.399530	0.005000	9.445221	-1.055607	-0.153087	-0.424596	-0.153854	-0.108857	0.006383	0.036832	0.020409
872	4.404530	0.005000	9.525529	-0.971209	-0.156960	-0.424707	-0.153412	-0.109968	0.024175	0.044629	0.020075
873	4.409530	0.005000	9.350956	-1.020240	-0.168796	-0.424817	-0.152970	-0.111080	0.013214	0.038675	0.020487
874	4.414530	0.005000	9.456840	-1.046529	-0.117720	-0.424928	-0.152527	-0.112191	0.037218	0.032366	0.016238
875	4.419530	0.005000	9.449358	-1.059480	-0.149478	-0.425038	-0.152085	-0.113303	0.035454	0.031865	0.014895
876	4.424530	0.005000	9.409095	-1.059480	-0.226935	-0.425149	-0.151642	-0.114415	0.037240	0.037193	0.015427
877	4.429530	0.005000	9.368833	-1.078535	-0.215255	-0.425260	-0.151200	-0.115526	0.041369	0.025001	0.023568
878	4.434530	0.005000	9.456840	-1.020240	-0.196200	-0.425370	-0.150758	-0.116638	0.017396	0.036635	0.018571
879	4.439530	0.005000	9.445599	-1.104238	-0.156960	-0.425158	-0.151284	-0.116547	0.018815	0.038275	0.009000
880	4.444530	0.005000	9.468959	-1.137960	-0.129839	-0.424936	-0.151837	-0.116423	0.018722	0.039236	0.003370
881	4.449530	0.005000	9.365394	-1.190337	-0.143823	-0.424715	-0.152390	-0.116300	0.012237	0.037279	0.004385
882	4.454530	0.005000	9.364201	-1.073639	-0.210359	-0.424494	-0.152944	-0.116176	0.022741	0.027067	0.007495
883	4.459530	0.005000	9.456840	-1.074662	-0.102538	-0.424273	-0.153497	-0.116053	0.023388	0.030479	0.014819
884	4.464530	0.005000	9.401586	-1.004226	-0.180186	-0.424052	-0.154050	-0.115929	0.021463	0.028388	0.005179
885	4.469530	0.005000	9.479318	-1.020240	-0.095242	-0.423830	-0.154603	-0.115806	0.012077	0.031233	0.014775
886	4.474530	0.005000	9.396136	-0.981000	-0.213976	-0.423609	-0.155156	-0.115682	0.017120	0.032814	0.007387
887	4.479530	0.005000	9.299880	-1.039031	-0.196200	-0.423388	-0.155709	-0.115558	0.021818	0.038744	0.002708
888	4.484530	0.005000	9.417600	-1.020240	-0.137534	-0.423167	-0.156262	-0.115435	0.029744	0.037377	0.006034
889	4.489530	0.005000	9.343984	-1.059480	-0.101748	-0.422946	-0.156815	-0.115311	0.029631	0.031154	0.006719
890	4.494530	0.005000	9.330166	-1.076861	-0.056621	-0.422724	-0.157368	-0.115188	0.017900	0.027816	0.014245
891	4.499530	0.005000	9.411078	-1.128123	-0.156960	-0.422503	-0.157921	-0.115064	0.039829	0.030874	0.020014
892	4.504530	0.005000	9.496080	-1.068047	-0.139826	-0.422388	-0.158103	-0.114941	0.024499	0.035736	0.010817
893	4.509530	0.005000	9.417600	-1.108371	-0.235440	-0.422388	-0.157882	-0.114817	0.001608	0.037916	0.006820
894	4.514530	0.005000	9.443068	-1.084948	-0.249212	-0.422388	-0.157660	-0.114694	0.012410	0.036748	0.000503
895	4.519530	0.005000	9.456840	-1.046730	-0.195209	-0.422388	-0.157439	-0.114570	0.008248	0.035003	0.005372
896	4.524530	0.005000	9.472626	-1.036026	-0.211986	-0.422388	-0.157218	-0.114446	0.023485	0.030304	0.007836
897	4.529530	0.005000	9.378360	-0.973874	-0.253271	-0.422388	-0.156997	-0.114323	0.021626	0.024018	0.014611
898	4.534530	0.005000	9.407918	-1.010558	-0.166642	-0.422388	-0.156775	-0.114199	0.015414	0.021390	0.008542
899	4.539530	0.005000	9.487420	-0.941760	-0.187540	-0.422388	-0.156554	-0.114076	0.022423	0.030512	0.009068
900	4.544530	0.005000	9.488443	-0.902520	-0.086117	-0.422388	-0.156333	-0.113952	0.010690	0.036346	0.014159
901	4.549530	0.005000	9.463455	-0.883125	-0.124335	-0.422388	-0.156111	-0.113829	0.032826	0.026216	0.018271
902	4.554530	0.005000	9.462913	-1.020240	-0.111647	-0.422388	-0.155890	-0.113705	0.030750	0.020328	0.009031
903	4.559530	0.005000	9.456840	-1.025290	-0.230390	-0.422388	-0.155669	-0.113581	0.044841	0.020769	0.022521
904	4.564530	0.005000	9.500108	-0.981000	-0.152932	-0.422388	-0.155448	-0.113458	0.038227	0.024727	0.012572
905	4.569530	0.005000	9.529309	-0.990016	-0.045251	-0.422388	-0.155226	-0.113334	0.031120	0.028422	0.007722
906	4.574530	0.005000	9.531354	-1.132011	-0.233457	-0.422607	-0.155005	-0.113578	0.037535	0.022874	0.006231
907	4.579530	0.005000	9.455880	-1.176240	-0.156960	-0.422829	-0.154783	-0.113825	0.032390	0.034324	0.008464
908	4.584530	0.005000	9.417600	-1.059604	-0.117782	-0.423050	-0.154562	-0.114072	0.027724	0.029148	0.018935
909	4.589530	0.005000	9.455005	-1.137960	-0.155737	-0.423271	-0.154341	-0.114320	0.017420	0.021392	0.014257
910	4.594530	0.005000	9.494453	-1.136333	-0.119347	-0.423493	-0.154119	-0.114567	0.027644	0.027185	0.018622
911	4.599530	0.005000	9.422898	-1.025538	-0.086427	-0.423714	-0.153898	-0.114814	0.031899	0.019772	0.015912
912	4.604530	0.005000	9.449497	-0.984671	-0.235440	-0.423936	-0.153676	-0.115061	0.004100	0.031117	0.004260
913	4.609530	0.005000	9.491386	-1.020240	-0.136496	-0.424157	-0.153455	-0.115309	0.005317	0.031944	0.009468
914	4.614530	0.005000	9.496080	-1.059480	-0.039240	-0.424378	-0.153234	-0.115556	0.017894	0.028974	0.004085
915	4.619530	0.005000	9.456840	-1.053221	-0.131926	-0.424600	-0.153012	-0.115803	0.020697	0.019693	0.006126
916	4.624530	0.005000	9.417600	-0.956322	-0.260118	-0.424821	-0.152791	-0.116051	0.035534	0.029033	0.019791
917	4.629530	0.005000	9.440233	-1.020240	-0.187897	-0.425043	-0.152569	-0.116298	0.025724	0.037493	0.015063
918	4.634530	0.005000	9.367098	-1.080068	-0.205526	-0.425264	-0.152348	-0.116545	0.035269	0.032161	0.005777
919	4.639530	0.005000	9.493927	-1.137960	-0.156960	-0.425373	-0.152407	-0.116604	0.033299	0.032476	0.009199
920	4.644530	0.005000	9.468211	-1.070851	-0.212698	-0.425373	-0.152739	-0.116481	0.019421	0.030927	0.009224
921	4.649530	0.005000	9.405539	-0.926641	-0.235440	-0.425373	-0.153071	-0.116357	0.031660	0.030140	0.004067
922	4.654530	0.005000	9.535320	-0.928825	-0.196200	-0.425373	-0.153403	-0.116234	0.023497	0.031064	-0.003231
923	4.659530	0.005000	9.456840	-1.045522	-0.235440	-0.425373	-0.153734	-0.116110	0.031950	0.027002	0.013355
924	4.664530	0.005000	9.481100	-1.083740	-0.283959	-0.425373	-0.154066	-0.115987	0.013580	0.039753	0.013603
925	4.669530	0.005000	9.480077	-1.020240	-0.258677	-0.425373	-0.154398	-0.115863	0.022922	0.036497	0.007175
926	4.674530	0.005000	9.512830	-0.981000	-0.252190	-0.425373	-0.154730	-0.115740	0.020058	0.042054	0.003944
927	4.679530	0.005000	9.439273	-1.037807	-0.152855	-0.425373	-0.155061	-0.115616	0.016631	0.040320	-0.004273
928	4.684530	0.005000	9.496080	-1.078070	-0.196200	-0.425373	-0.155393	-0.115493	0.017362	0.039868	0.002973
929	4.689530	0.005000	9.397972	-0.980985	-0.196200	-0.425373	-0.155725	-0.115369	0.011532	0.034954	-0.001282
930	4.694530	0.005000	9.378360	-1.020240	-0.198229	-0.425373	-0.156057	-0.115246	0.035216	0.034715	0.015189
931	4.699530	0.005000	9.460914	-1.002657	-0.096063	-0.425373	-0.156388	-0.115122	0.028278	0.033804	0.011524
932	4.704530	0.005000	9.423309	-1.025949	-0.072771	-0.425373	-0.156715	-0.115002	0.021695	0.033702	0.009482
933	4.709530	0.005000	9.394378	-0.957778	-0.148145	-0.425373	-0.156604	-0.115125	0.021001	0.038018	0.018751
934	4.714530	0.005000	9.456840	-0.956756	-0.201947	-0.425373	-0.156493	-0.115249	0.020476	0.040219	0.008885
935	4.719530	0.005000	9.507373	-1.006267	-0.142987	-0.425373	-0.156383	-0.115372	0.037538	0.027892	0.011341
936	4.724530	0.005000	9.352458	-0.981000	-0.144009	-0.425373	-0.156272	-0.115496	0.023760	0.023999	0.008535
937	4.729530	0.005000	9.366432	-0.969072	0.030766	-0.425373	-0.156162	-0.115619	0.030755	0.026670	0.006109
938	4.734530	0.005000	9.350026	-1.020240	-0.071958	-0.425373	-0.156051	-0.115743	0.026465	0.027000	0.008070
939	4.739530	0.005000	9.407236	-1.090571	-0.196200	-0.425373	-0.155940	-0.115867	0.022187	0.027702	0.003850
940	4.744530	0.005000	9.486739	-1.126744	-0.136403	-0.425373	-0.155830	-0.115990	0.020296	0.025937	0.009303
941	4.749530	0.005000	9.543639	-1.113003	-0.196200	-0.425373	-0.155719	-0.116114	0.009980	0.030741	0.006216
942	4.754530	0.005000	9.471433	-1.123367	-0.196200	-0.425373	-0.155609	-0.116237	0.019851	0.023365	0.011145
943	4.759530	0.005000	9.450566	-1.020240	-0.045514	-0.425373	-0.155498	-0.116361	0.018742	0.019535	0.011375
944	4.764530	0.005000	9.456840	-1.020240	-0.101407	-0.425373	-0.155387	-0.116485	0.021139	0.029245	0.016705
945	4.769530	0.005000	9.452558	-1.129397	-0.196200	-0.425373	-0.155277	-0.116608	0.025604	0.033557	0.010373
946	4.774530	0.005000	9.535320	-1.055793	-0.160647	-0.425315	-0.155340	-0.116343	0.024691	0.034600	0.002883
947	4.779530	0.005000	9.529991	-1.025569	-0.164954	-0.425204	-0.155561	-0.115726	0.021710	0.029843	0.001174
948	4.784530	0.005000	9.497722	-1.097078	-0.160244	-0.425094	-0.155782	-0.115108	0.004009	0.035143	-0.001405
949	4.789530	0.005000	9.532841	-1.060100	-0.233581	-0.424983	-0.156004	-0.114490	0.023263	0.033222	0.006496
950	4.794530	0.005000	9.378360	-0.982208	-0.156557	-0.424873	-0.156225	-0.113872	0.023648	0.037322	0.006289
951	4.799530	0.005000	9.493210	-1.020240	-0.117720	-0.424762	-0.156446	-0.113254	0.006089	0.035329	-0.002403
952	4.804530	0.005000	9.537287	-0.981000	0.000000	-0.424651	-0.156668	-0.112636	0.000807	0.031513	0.007738
953	4.809530	0.005000	9.532330	-0.983990	-0.117720	-0.424541	-0.156889	-0.112019	-0.008525	0.042797	0.007347
954	4.814530	0.005000	9.531308	-1.012215	-0.148935	-0.424430	-0.157110	-0.111401	0.003524	0.036567	0.007368
955	4.819530	0.005000	9.393464	-0.986035	-0.196200	-0.424320	-0.157332	-0.110783	0.010534	0.039080	0.011286
956	4.824530	0.005000	9.417600	-0.947337	-0.156960	-0.424209	-0.157553	-0.110165	0.014248	0.036626	0.009609
957	4.829530	0.005000	9.371761	-0.869879	-0.130919	-0.424098	-0.157774	-0.109547	0.021640	0.028733	0.012053
958	4.834530	0.005000	9.370738	-0.863280	-0.141716	-0.423988	-0.157995	-0.108929	0.033121	0.034547	0.016492
959	4.839530	0.005000	9.439551	-0.854636	-0.187556	-0.423881	-0.158194	-0.108363	0.039575	0.032967	0.023752
960	4.844530	0.005000	9.398267	-0.892853	-0.147293	-0.423881	-0.157751	-0.109228	0.024876	0.043412	0.030600
961	4.849530	0.005000	9.299880	-0.902520	-0.135582	-0.423881	-0.157309	-0.110092	0.028708	0.047896	0.008762
962	4.854530	0.005000	9.434099	-0.902520	-0.224069	-0.423881	-0.156866	-0.110957	0.043901	0.042399	0.017497
963	4.859530	0.005000	9.442108	-0.904999	-0.208454	-0.423881	-0.156424	-0.111821	0.023803	0.036149	0.015069
964	4.864530	0.005000	9.378360	-1.020240	-0.209476	-0.423881	-0.155982	-0.112686	0.046598	0.029655	0.020096
965	4.869530	0.005000	9.481781	-1.034539	-0.092779	-0.423881	-0.155539	-0.113551	0.025001	0.044233	0.030479
966	4.874530	0.005000	9.378360	-1.020240	-0.165558	-0.423881	-0.155097	-0.114415	0.015119	0.033928	0.019675
967	4.879530	0.005000	9.417600	-1.027753	-0.242953	-0.423881	-0.154654	-0.115280	0.010908	0.040096	0.015803
968	4.884530	0.005000	9.395246	-0.941760	-0.196200	-0.423881	-0.154212	-0.116144	0.015626	0.039394	0.018062
969	4.889530	0.005000	9.353605	-1.062904	-0.135628	-0.423881	-0.153770	-0.117009	0.026353	0.033353	0.007758
970	4.894530	0.005000	9.417600	-0.979621	-0.177269	-0.423881	-0.153327	-0.117873	0.019757	0.037189	0.010154
971	4.899530	0.005000	9.398074	-0.941948	-0.098006	-0.423881	-0.152885	-0.118738	0.035624	0.031209	0.019420
972	4.904530	0.005000	9.456840	-0.902520	-0.098975	-0.423881	-0.152442	-0.119602	0.043209	0.030615	0.032011
973	4.909530	0.005000	9.517598	-0.973409	-0.096202	-0.423821	-0.152239	-0.119666	0.034254	0.029408	0.021845
974	4.914530	0.005000	9.440140	-1.020240	-0.095180	-0.423711	-0.152239	-0.119049	0.043267	0.031618	0.023073
975	4.919530	0.005000	9.480403	-1.083043	-0.054917	-0.423600	-0.152239	-0.118431	0.027261	0.042377	0.010562
976	4.924530	0.005000	9.481243	-1.113557	-0.093317	-0.423489	-0.152239	-0.117813	0.043825	0.036308	0.008361
977	4.929530	0.005000	9.470953	-1.098720	-0.156960	-0.423378	-0.152239	-0.117195	0.026641	0.037629	0.016222
978	4.934530	0.005000	9.456840	-1.229499	-0.209290	-0.423268	-0.152239	-0.116578	0.031392	0.036348	0.022772
979	4.939530	0.005000	9.417600	-1.059480	-0.223372	-0.423157	-0.152239	-0.115960	0.033126	0.039762	0.024470
980	4.944530	0.005000	9.406555	-1.149005	-0.246485	-0.423046	-0.152239	-0.115342	0.025641	0.033254	0.007379
981	4.949530	0.005000	9.446693	-1.127813	-0.186053	-0.422936	-0.152239	-0.114724	0.026130	0.027459	0.028311
982	4.954530	0.005000	9.485282	-1.020240	-0.127201	-0.422825	-0.152239	-0.114106	0.005224	0.040359	0.006656
983	4.959530	0.005000	9.543778	-1.028698	-0.196200	-0.422714	-0.152239	-0.113489	0.001653	0.039587	0.009596
984	4.964530	0.005000	9.456840	-1.012804	-0.085916	-0.422604	-0.152239	-0.112871	0.005913	0.039047	0.006776
985	4.969530	0.005000	9.476840	-0.981000	-0.144133	-0.422493	-0.152239	-0.112253	0.019609	0.032670	0.012634
986	4.974530	0.005000	9.242964	-0.991782	-0.156960	-0.422473	-0.152273	-0.111566	0.036320	0.034439	0.015460
987	4.979530	0.005000	9.312986	-1.094351	-0.191831	-0.424133	-0.152937	-0.109589	0.027284	0.039507	0.016194
988	4.984530	0.005000	9.420988	-1.095332	-0.081868	-0.425792	-0.153601	-0.107612	0.018774	0.040294	0.010939
989	4.989530	0.005000	9.459644	-1.020240	-0.151352	-0.427452	-0.154265	-0.105635	0.012054	0.041004	0.005144
990	4.994530	0.005000	9.490735	-1.018458	-0.082043	-0.429112	-0.154929	-0.103658	0.026174	0.033083	0.001935
991	4.999530	0.005000	9.458358	-1.057962	-0.156201	-0.430772	-0.155592	-0.101681	0.030511	0.026605	0.014304
992	5.004530	0.005000	9.496343	-0.942023	-0.156697	-0.432431	-0.156256	-0.099704	0.034114	0.034114	0.012828
993	5.009530	0.005000	9.382217	-0.981000	-0.158246	-0.434091	-0.156920	-0.097727	0.041968	0.042724	0.024802
994	5.014530	0.005000	9.456840	-1.095019	-0.194349	-0.435751	-0.157584	-0.095750	0.038033	0.034165	0.023531
995	5.019530	0.005000	9.504631	-0.986701	-0.159810	-0.437411	-0.158248	-0.093773	0.031461	0.030544	0.013136
996	5.024530	0.005000	9.566814	-0.945633	-0.160833	-0.439070	-0.158912	-0.091796	0.028461	0.033366	0.012838
997	5.029530	0.005000	9.525529	-0.985895	-0.225649	-0.440730	-0.159576	-0.089819	0.013901	0.027802	0.014326
998	5.034530	0.005000	9.390196	-0.986918	-0.223604	-0.442390	-0.160240	-0.087842	0.037143	0.032976	0.015990
999	5.039530	0.005000	9.424540	-1.020240	-0.281620	-0.444050	-0.160903	-0.085865	0.037646	0.030604	0.012165
1000	5.044530	0.005000	9.519395	-1.012277	-0.156960	-0.444029	-0.161007	-0.085903	0.014480	0.028338	0.014676
1001	5.049530	0.005000	9.535320	-1.059480	-0.156960	-0.442701	-0.160675	-0.087510	0.017490	0.035766	0.014531
1002	5.054530	0.005000	9.496080	-0.970342	-0.077349	-0.441374	-0.160343	-0.089116	0.023205	0.040088	0.011329
1003	5.059530	0.005000	9.446290	-0.981000	-0.164551	-0.440046	-0.160011	-0.090722	0.030961	0.033228	0.019023
1004	5.064530	0.005000	9.406028	-1.098720	-0.168532	-0.438718	-0.159679	-0.092329	0.010075	0.038179	0.009030
1005	5.069530	0.005000	9.417600	-1.086125	-0.130315	-0.437390	-0.159347	-0.093935	0.022556	0.034667	0.015775
1006	5.074530	0.005000	9.417600	-1.122732	-0.208206	-0.436063	-0.159015	-0.095541	0.029553	0.028142	0.015208
1007	5.079530	0.005000	9.329159	-1.074119	-0.146999	-0.434735	-0.158683	-0.097148	0.021683	0.030457	0.007263
1008	5.084530	0.005000	9.393833	-1.067775	-0.071302	-0.433407	-0.158351	-0.098754	0.021667	0.034023	0.013300
1009	5.089530	0.005000	9.394564	-1.091888	-0.094684	-0.432079	-0.158019	-0.100360	0.009604	0.045071	0.013977
1010	5.094530	0.005000	9.434827	-1.042253	-0.152173	-0.430751	-0.157687	-0.101967	0.036773	0.041339	0.010491
1011	5.099530	0.005000	9.417600	-1.062222	-0.096729	-0.429424	-0.157355	-0.103573	0.025019	0.031805	0.006414
1012	5.104530	0.005000	9.515351	-1.098023	-0.078480	-0.428096	-0.157023	-0.105179	0.025522	0.028226	0.009182
1013	5.109530	0.005000	9.456840	-1.097372	-0.174558	-0.426841	-0.156667	-0.106731	0.014462	0.036181	0.007056
1014	5.114530	0.005000	9.496080	-1.077404	-0.217516	-0.426509	-0.156003	-0.107596	-0.003002	0.046120	0.008777
1015	5.119530	0.005000	9.417600	-1.003339	-0.235440	-0.426177	-0.155339	-0.108461	0.017372	0.044026	0.014479
1016	5.124530	0.005000	9.424689	-0.973911	-0.242529	-0.425845	-0.154674	-0.109327	0.007822	0.036728	0.014818
1017	5.129530	0.005000	9.448273	-1.020240	-0.187633	-0.425513	-0.154010	-0.110192	0.028527	0.034588	0.015040
1018	5.134530	0.005000	9.378360	-0.941760	-0.235440	-0.425181	-0.153346	-0.111057	0.027399	0.033609	0.011768
1019	5.139530	0.005000	9.496080	-0.955052	-0.313920	-0.424849	-0.152682	-0.111922	0.031782	0.030497	0.011793
1020	5.144530	0.005000	9.442139	-1.020240	-0.237872	-0.424517	-0.152018	-0.112788	0.043462	0.032927	0.017764
1021	5.149530	0.005000	9.496080	-0.997746	-0.156960	-0.424184	-0.151354	-0.113653	0.021630	0.041093	0.014120
1022	5.154530	0.005000	9.376702	-1.020240	-0.216649	-0.423852	-0.150689	-0.114518	0.039551	0.035159	0.010194
1023	5.159530	0.005000	9.357524	-1.029442	-0.108518	-0.423520	-0.150025	-0.115383	0.024855	0.033080	0.007554
1024	5.164530	0.005000	9.402945	-1.020240	-0.063825	-0.423188	-0.149361	-0.116249	0.034468	0.033351	0.009917
1025	5.169530	0.005000	9.511355	-1.027877	-0.078480	-0.422856	-0.148697	-0.117114	0.039194	0.040786	0.014398
1026	5.174530	0.005000	9.522090	-1.092105	-0.045855	-0.422524	-0.148033	-0.117979	0.022145	0.037757	0.015307
1027	5.179530	0.005000	9.484895	-0.981000	-0.044832	-0.422649	-0.148284	-0.118333	0.004970	0.031606	0.005894
1028	5.184530	0.005000	9.452270	-0.941760	-0.113150	-0.423092	-0.149169	-0.118333	0.016863	0.047824	0.011436
1029	5.189530	0.005000	9.371262	-0.984549	-0.085578	-0.423534	-0.150053	-0.118333	0.022554	0.039048	0.013487
1030	5.194530	0.005000	9.341661	-1.015159	-0.115179	-0.423977	-0.150938	-0.118333	0.035098	0.036294	0.015869
1031	5.199530	0.005000	9.417600	-0.982518	-0.042276	-0.424419	-0.151823	-0.118333	0.032894	0.041891	0.012283
1032	5.204530	0.005000	9.376873	-1.059480	-0.040231	-0.424861	-0.152708	-0.118333	0.034851	0.039322	0.017509
1033	5.209530	0.005000	9.338995	-0.941948	-0.078543	-0.425304	-0.153593	-0.118333	0.013603	0.044443	0.010548
1034	5.214530	0.005000	9.415431	-1.020240	-0.156960	-0.425746	-0.154477	-0.118333	0.015698	0.036369	0.014299
1035	5.219530	0.005000	9.339120	-1.055266	-0.156960	-0.426189	-0.155362	-0.118333	0.026688	0.036957	0.018035
1036	5.224530	0.005000	9.372132	-0.944874	-0.186859	-0.426631	-0.156247	-0.118333	0.025780	0.029527	0.012281
1037	5.229530	0.005000	9.448568	-1.055344	0.014423	-0.427073	-0.157132	-0.118333	0.028363	0.037048	0.012230
1038	5.234530	0.005000	9.501239	-0.952077	-0.112561	-0.427516	-0.158017	-0.118333	0.017822	0.036188	0.004701
1039	5.239530	0.005000	9.462556	-0.986716	-0.084196	-0.427958	-0.158901	-0.118333	0.034977	0.025101	0.020433
1040	5.244530	0.005000	9.489260	-0.981000	-0.071660	-0.428347	-0.159626	-0.118345	0.010882	0.042104	0.003928
1041	5.249530	0.005000	9.472796	-1.012479	-0.235440	-0.428237	-0.158852	-0.118468	0.006356	0.039735	0.005893
1042	5.254530	0.005000	9.347888	-1.098720	-0.204968	-0.428126	-0.158078	-0.118592	0.014944	0.028330	0.008929
1043	5.259530	0.005000	9.407809	-1.088852	-0.196200	-0.428016	-0.157303	-0.118716	0.008124	0.032661	-0.002952
1044	5.264530	0.005000	9.389173	-1.020240	-0.156960	-0.427905	-0.156529	-0.118839	0.029074	0.029431	0.008535
1045	5.269530	0.005000	9.456840	-1.070987	-0.207707	-0.427794	-0.155754	-0.118963	0.013549	0.032976	0.014427
1046	5.274530	0.005000	9.508473	-1.111113	-0.262287	-0.427684	-0.154980	-0.119086	0.028368	0.032376	0.016921
1047	5.279530	0.005000	9.561144	-0.994416	-0.196200	-0.427573	-0.154205	-0.119210	0.018235	0.042778	0.010244
1048	5.284530	0.005000	9.613800	-1.098720	-0.082508	-0.427462	-0.153431	-0.119334	0.009747	0.035823	0.011832
1049	5.289530	0.005000	9.472285	-1.083275	-0.165310	-0.427352	-0.152656	-0.119457	0.032005	0.031451	0.018738
1050	5.294530	0.005000	9.456840	-1.075947	-0.251907	-0.427241	-0.151882	-0.119581	0.027048	0.034663	0.008858
1051	5.299530	0.005000	9.373578	-1.081491	-0.247888	-0.427131	-0.151107	-0.119704	0.036389	0.037116	0.014448
1052	5.304530	0.005000	9.317928	-1.098720	-0.135768	-0.427020	-0.150333	-0.119828	0.036865	0.042926	0.013486
1053	5.309530	0.005000	9.358182	-1.139076	-0.058302	-0.426909	-0.149558	-0.119951	0.031128	0.037595	0.010217
1054	5.314530	0.005000	9.378360	-1.079557	-0.156046	-0.426866	-0.149590	-0.119925	0.023936	0.033670	0.009850
1055	5.319530	0.005000	9.499039	-1.002099	-0.156960	-0.426866	-0.150143	-0.119801	0.009044	0.044204	-0.002693
1056	5.324530	0.005000	9.429714	-1.015236	-0.129834	-0.426866	-0.150696	-0.119678	0.022870	0.035891	0.009769
1057	5.329530	0.005000	9.489031	-1.027289	-0.196200	-0.426866	-0.151250	-0.119554	0.012415	0.046132	0.005129
1058	5.334530	0.005000	9.520247	-0.965927	-0.172033	-0.426866	-0.151803	-0.119431	0.019492	0.030593	0.012267
1059	5.339530	0.005000	9.392881	-0.941760	-0.196200	-0.426866	-0.152356	-0.119307	0.024423	0.035970	0.013498
1060	5.344530	0.005000	9.405377	-0.995794	-0.105497	-0.426866	-0.152909	-0.119183	0.016108	0.047170	0.011198
1061	5.349530	0.005000	9.537102	-1.059480	-0.090966	-0.426866	-0.153462	-0.119060	0.024577	0.043273	0.003921
1062	5.354530	0.005000	9.389824	-1.110184	-0.094793	-0.426866	-0.154016	-0.118936	0.021199	0.041739	0.004837
1063	5.359530	0.005000	9.438483	-1.020240	-0.167401	-0.426866	-0.154569	-0.118813	0.034856	0.039309	0.007062
1064	5.364530	0.005000	9.427019	-1.020240	-0.128703	-0.426866	-0.155122	-0.118689	0.037457	0.032183	0.004435
1065	5.369530	0.005000	9.496080	-1.032886	-0.108855	-0.426866	-0.155675	-0.118566	0.026861	0.032041	0.012881
1066	5.374530	0.005000	9.456809	-0.949614	-0.156960	-0.426866	-0.156228	-0.118442	0.032267	0.039041	0.014465
1067	5.379530	0.005000	9.320375	-0.987832	-0.168873	-0.426840	-0.156690	-0.118304	0.016945	0.042602	0.007661
1068	5.384530	0.005000	9.389979	-1.020240	-0.017428	-0.426618	-0.156468	-0.118057	0.027561	0.031382	0.009745
1069	5.389530	0.005000	9.422387	-1.020240	-0.117720	-0.426397	-0.156247	-0.117810	0.020503	0.035125	0.003360
1070	5.394530	0.005000	9.413836	-0.973471	0.070951	-0.426176	-0.156026	-0.117562	0.025497	0.038578	0.015973
1071	5.399530	0.005000	9.540804	-0.944502	-0.075738	-0.425955	-0.155805	-0.117315	0.037829	0.029980	0.015305
1072	5.404530	0.005000	9.458560	-0.979280	-0.039240	-0.425733	-0.155583	-0.117068	0.031830	0.037721	0.021751
1073	5.409530	0.005000	9.456840	-1.097326	-0.079874	-0.425512	-0.155362	-0.116821	0.030001	0.030254	0.015128
1074	5.414530	0.005000	9.456840	-1.059155	-0.156960	-0.425291	-0.155141	-0.116574	0.001109	0.037283	0.007573
1075	5.419530	0.005000	9.417600	-1.136612	-0.194852	-0.425069	-0.154919	-0.116327	0.010899	0.039804	0.015070
1076	5.424530	0.005000	9.376447	-1.061393	-0.117720	-0.424848	-0.154698	-0.116080	0.019791	0.038064	0.023511
1077	5.429530	0.005000	9.378360	-0.908345	-0.196200	-0.424627	-0.154477	-0.115833	0.015680	0.037026	0.016444
1078	5.434530	0.005000	9.452905	-0.969195	-0.262875	-0.424406	-0.154256	-0.115586	0.015818	0.037229	0.021697
1079	5.439530	0.005000	9.417600	-0.936803	-0.161917	-0.424184	-0.154034	-0.115339	0.014614	0.040200	0.005780
1080	5.444530	0.005000	9.396299	-0.914479	-0.262721	-0.423963	-0.153813	-0.115091	0.017887	0.037753	0.007332
1081	5.449530	0.005000	9.482076	-1.013238	-0.163962	-0.424160	-0.154010	-0.114689	0.034134	0.031961	0.018221
1082	5.454530	0.005000	9.386385	-1.059480	-0.258631	-0.424602	-0.154452	-0.114194	0.022707	0.036409	0.014512
1083	5.459530	0.005000	9.369313	-1.002146	-0.144861	-0.425045	-0.154895	-0.113700	0.031952	0.034694	0.018631
1084	5.464530	0.005000	9.486026	-0.941760	-0.127774	-0.425488	-0.155338	-0.113206	0.021153	0.037086	0.015573
1085	5.469530	0.005000	9.445764	-1.115807	-0.128796	-0.425930	-0.155780	-0.112712	0.022549	0.041613	0.018537
1086	5.474530	0.005000	9.496080	-1.032339	-0.159903	-0.426373	-0.156223	-0.112217	0.024102	0.051252	0.015884
1087	5.479530	0.005000	9.521697	-1.033048	-0.143337	-0.426815	-0.156665	-0.111723	0.018145	0.040783	0.013008
1088	5.484530	0.005000	9.431279	-1.047598	-0.168842	-0.427258	-0.157108	-0.111229	0.027722	0.042566	0.016454
