# FOX Logger (IMU file)
# (c) INRIA 2011-2014
# File created from file sensbiotk output
#
# File format:
# id	t	dt	ax	ay	az	mx	my	mz	gx	gy	gz
#
# Units:
#	Time: s
#	Acceleration: m.s^-2
#	Magneto: gauss
#	Gyrometer: rad/s
#
1	0.054779	0.054779	9.728685	0.861390	1.763910	0.141791	0.194030	-0.391667	0.013772	-0.001898	-0.004415
2	0.059779	0.005000	9.768312	0.865728	1.770695	0.141791	0.194362	-0.391543	0.014669	-0.013967	0.009502
3	0.064779	0.005000	9.688345	0.871150	1.801105	0.141791	0.194694	-0.391420	0.020531	-0.000348	-0.006418
4	0.069779	0.005000	9.765401	0.784800	1.771159	0.141791	0.195027	-0.391296	0.025787	-0.009536	-0.004793
5	0.074779	0.005000	9.770760	0.856439	1.786323	0.141791	0.195359	-0.391172	0.015480	-0.013839	-0.000308
6	0.079779	0.005000	9.723573	0.863280	1.906866	0.141791	0.195691	-0.391049	0.008440	0.001511	0.001268
7	0.084779	0.005000	9.623234	0.872714	1.863149	0.141791	0.196023	-0.390925	0.005184	-0.011708	-0.004650
8	0.089779	0.005000	9.731520	0.898012	1.815977	0.141791	0.196355	-0.390801	0.022855	0.001702	-0.009177
9	0.094779	0.005000	9.746202	0.836319	1.778079	0.141791	0.196688	-0.390677	0.022000	-0.015285	-0.004164
10	0.099779	0.005000	9.717771	0.708326	1.673571	0.141791	0.197020	-0.390554	0.007132	-0.013050	-0.005672
11	0.104779	0.005000	9.810000	0.808812	1.639295	0.141791	0.197352	-0.390430	0.014386	-0.007166	-0.008910
12	0.109779	0.005000	9.737887	0.824040	1.670884	0.141791	0.197684	-0.390306	0.011117	-0.008641	0.006460
13	0.114779	0.005000	9.810000	0.863280	1.712029	0.141791	0.198016	-0.390183	0.009318	0.001318	0.004836
14	0.119779	0.005000	9.711471	0.766466	1.726560	0.141791	0.198349	-0.390059	0.011957	-0.009777	-0.002266
15	0.124779	0.005000	9.710851	0.842611	1.567503	0.141907	0.197464	-0.390388	0.006951	0.002812	0.000309
16	0.129779	0.005000	9.635945	0.902520	1.569600	0.142128	0.195472	-0.391130	-0.004158	0.003829	0.007010
17	0.134779	0.005000	9.817637	0.863280	1.718923	0.142350	0.193479	-0.391872	-0.003725	0.000626	-0.002133
18	0.139779	0.005000	9.781372	0.813428	1.726560	0.142571	0.191486	-0.392613	0.005574	-0.004049	-0.008096
19	0.144779	0.005000	9.770760	0.876107	1.805040	0.142792	0.189494	-0.393355	0.009552	-0.006355	0.011668
20	0.149779	0.005000	9.810000	0.885929	1.782391	0.143014	0.187501	-0.394097	0.002068	0.000212	-0.000448
21	0.154779	0.005000	9.799819	0.912701	1.736741	0.143235	0.185509	-0.394838	0.003991	-0.007033	0.014963
22	0.159779	0.005000	9.840532	0.911228	1.805040	0.143457	0.183516	-0.395580	0.027293	0.000000	0.007592
23	0.164779	0.005000	9.756136	0.863280	1.765800	0.143678	0.181524	-0.396322	0.018793	-0.007878	0.002107
24	0.169779	0.005000	9.692280	0.863280	1.787566	0.143899	0.179531	-0.397063	0.027295	-0.011385	0.007069
25	0.174779	0.005000	9.696604	0.850308	1.717912	0.144121	0.177538	-0.397805	0.022215	-0.005513	-0.005262
26	0.179779	0.005000	9.692280	0.818370	1.617345	0.144342	0.175546	-0.398547	0.032369	-0.012655	0.010640
27	0.184779	0.005000	9.770760	0.749143	1.648080	0.144564	0.173553	-0.399289	0.013560	-0.010957	0.011957
28	0.189779	0.005000	9.731520	0.745881	1.725917	0.144776	0.171710	-0.399965	0.020712	-0.021959	0.002317
29	0.194779	0.005000	9.731520	0.784800	1.724205	0.144776	0.173370	-0.399099	0.022467	-0.018734	0.012803
30	0.199779	0.005000	9.655705	0.824040	1.695314	0.144776	0.175031	-0.398234	0.024124	-0.006323	0.000697
31	0.204779	0.005000	9.766643	0.850930	1.726560	0.144776	0.176691	-0.397369	0.029382	-0.017409	0.014600
32	0.209779	0.005000	9.759584	0.756736	1.681732	0.144776	0.178352	-0.396503	0.029637	-0.002784	0.007511
33	0.214779	0.005000	9.777818	0.770684	1.733618	0.144776	0.180012	-0.395638	0.026489	-0.003971	0.008343
34	0.219779	0.005000	9.748600	0.754100	1.695860	0.144776	0.181673	-0.394773	0.012599	-0.006142	0.017013
35	0.224779	0.005000	9.692280	0.853613	1.716893	0.144776	0.183333	-0.393907	0.013364	-0.007487	0.007487
36	0.229779	0.005000	9.653040	0.795954	1.704252	0.144776	0.184994	-0.393042	0.022291	-0.000732	0.008029
37	0.234779	0.005000	9.718863	0.824040	1.686050	0.144776	0.186654	-0.392177	0.009009	0.001953	-0.001862
38	0.239779	0.005000	9.820952	0.824040	1.701464	0.144776	0.188315	-0.391311	0.013242	-0.008308	-0.000711
39	0.244779	0.005000	9.825457	0.871605	1.742017	0.144776	0.189975	-0.390446	0.008889	-0.000466	0.004629
40	0.249779	0.005000	9.731520	0.958693	1.765800	0.144776	0.191636	-0.389581	-0.000415	-0.001977	0.004564
41	0.254779	0.005000	9.770760	0.914820	1.805040	0.144776	0.193296	-0.388715	0.009649	0.001097	0.007530
42	0.259779	0.005000	9.751163	0.863280	1.785397	0.144652	0.194277	-0.388333	0.008675	-0.002417	0.002857
43	0.264779	0.005000	9.668082	0.881374	1.765800	0.144431	0.194720	-0.388333	0.012852	-0.012241	0.007918
44	0.269779	0.005000	9.669647	0.931179	1.906153	0.144209	0.195164	-0.388333	0.012611	0.005205	0.011238
45	0.274779	0.005000	9.716416	0.833072	1.774832	0.143988	0.195607	-0.388333	0.005915	-0.009217	0.009751
46	0.279779	0.005000	9.770760	0.759477	1.765800	0.143766	0.196050	-0.388333	0.018934	-0.002440	0.009798
47	0.284779	0.005000	9.783202	0.758002	1.780155	0.143544	0.196493	-0.388333	0.018721	-0.006350	0.017552
48	0.289779	0.005000	9.720547	0.717293	1.676347	0.143323	0.196936	-0.388333	0.016285	-0.010177	0.019114
49	0.294779	0.005000	9.711489	0.784800	1.628049	0.143101	0.197380	-0.388333	0.016275	-0.004603	0.012393
50	0.299779	0.005000	9.723402	0.832158	1.703555	0.142880	0.197823	-0.388333	0.026314	-0.004274	0.013035
51	0.304779	0.005000	9.692280	0.869895	1.641465	0.142658	0.198266	-0.388333	0.021316	-0.006936	-0.001132
52	0.309779	0.005000	9.725993	0.936233	1.732087	0.142436	0.198709	-0.388333	0.027184	-0.010773	0.014665
53	0.314779	0.005000	9.797684	0.863280	1.734771	0.142215	0.199152	-0.388333	0.021414	-0.010193	0.027403
54	0.319779	0.005000	9.765555	0.826643	1.846883	0.141993	0.199596	-0.388333	0.025842	-0.004182	0.008276
55	0.324779	0.005000	9.692280	0.862165	1.765800	0.141810	0.199922	-0.388333	0.028290	-0.011078	0.017778
56	0.329779	0.005000	9.692280	0.824040	1.804673	0.142032	0.199037	-0.388333	0.029570	-0.001203	0.006089
57	0.334779	0.005000	9.730126	0.895549	1.803646	0.142253	0.198151	-0.388333	0.039126	-0.002323	0.009251
58	0.339779	0.005000	9.655937	0.748457	1.732354	0.142475	0.197266	-0.388333	0.026680	-0.005482	0.003252
59	0.344779	0.005000	9.613800	0.749944	1.761416	0.142696	0.196380	-0.388333	0.030110	-0.004782	-0.001281
60	0.349779	0.005000	9.698167	0.875054	1.726560	0.142917	0.195494	-0.388333	0.023946	0.000594	0.014900
61	0.354779	0.005000	9.788137	0.813951	1.765800	0.143139	0.194609	-0.388333	0.016440	0.008112	0.006083
62	0.359779	0.005000	9.753221	0.776031	1.774569	0.143360	0.193723	-0.388333	0.042936	-0.000221	0.011035
63	0.364779	0.005000	9.712765	0.735317	1.805040	0.143582	0.192838	-0.388333	0.020496	0.007112	0.008919
64	0.369779	0.005000	9.680894	0.824040	1.805040	0.143803	0.191952	-0.388333	0.018249	0.000072	-0.004891
65	0.374779	0.005000	9.797127	0.824040	1.792167	0.144024	0.191067	-0.388333	0.021926	-0.006849	0.007837
66	0.379779	0.005000	9.717144	0.859392	1.794552	0.144246	0.190181	-0.388333	0.032979	-0.003828	0.012232
67	0.384779	0.005000	9.754897	0.847417	1.781663	0.144467	0.189295	-0.388333	0.036684	-0.006955	0.015915
68	0.389779	0.005000	9.653040	0.924604	1.805040	0.144689	0.188410	-0.388333	0.027671	-0.002537	0.014290
69	0.394779	0.005000	9.712888	0.844648	1.726560	0.144910	0.188127	-0.388183	0.034841	0.000073	0.007374
70	0.399779	0.005000	9.751630	0.862301	1.746670	0.145131	0.188238	-0.387936	0.029961	-0.014371	0.013196
71	0.404779	0.005000	9.731520	0.906006	1.723074	0.145353	0.188348	-0.387689	0.031829	-0.012680	0.017182
72	0.409779	0.005000	9.770760	0.931876	1.720069	0.145574	0.188459	-0.387441	0.028577	-0.000477	0.019691
73	0.414779	0.005000	9.755873	0.848393	1.731982	0.145796	0.188570	-0.387194	0.027493	-0.004730	0.009119
74	0.419779	0.005000	9.731520	0.902520	1.739945	0.146017	0.188681	-0.386947	0.042975	-0.014752	0.024990
75	0.424779	0.005000	9.743738	0.824040	1.832062	0.146239	0.188791	-0.386699	0.039903	-0.002921	0.011301
76	0.429779	0.005000	9.731520	0.784800	1.665833	0.146460	0.188902	-0.386452	0.034187	-0.004459	0.010228
77	0.434779	0.005000	9.722257	0.784800	1.657343	0.146682	0.189013	-0.386205	0.045334	-0.008234	0.020958
78	0.439779	0.005000	9.707866	0.714113	1.718767	0.146903	0.189123	-0.385958	0.037361	-0.004456	0.014605
79	0.444779	0.005000	9.744316	0.699922	1.785846	0.147125	0.189234	-0.385710	0.045204	-0.010303	0.020606
80	0.449779	0.005000	9.770760	0.794591	1.657871	0.147346	0.189345	-0.385463	0.032601	-0.003428	0.014113
81	0.454779	0.005000	9.763944	0.859872	1.719744	0.147568	0.189456	-0.385216	0.036091	-0.005042	0.016885
82	0.459779	0.005000	9.692280	0.824040	1.692034	0.147676	0.189580	-0.385048	0.026865	-0.012828	0.021351
83	0.464779	0.005000	9.810000	0.823167	1.804167	0.147012	0.189802	-0.385418	0.021686	-0.005812	0.017705
84	0.469779	0.005000	9.771364	0.862072	1.843072	0.146347	0.190023	-0.385789	0.026514	-0.011768	0.012738
85	0.474779	0.005000	9.807893	0.629947	1.802933	0.145683	0.190245	-0.386160	0.012663	-0.008689	0.009023
86	0.479779	0.005000	9.692280	0.738372	1.698102	0.145019	0.190466	-0.386531	0.019048	-0.020335	0.019498
87	0.484779	0.005000	9.687258	0.779778	1.658123	0.144355	0.190687	-0.386902	0.011013	-0.011101	0.009011
88	0.489779	0.005000	9.731520	0.811031	1.628567	0.143691	0.190909	-0.387273	0.003856	-0.008803	0.013266
89	0.494779	0.005000	9.731520	0.800013	1.718954	0.143026	0.191130	-0.387644	-0.001306	-0.013464	0.005816
90	0.499779	0.005000	9.731520	0.775706	1.853374	0.142362	0.191352	-0.388014	-0.010415	-0.004030	-0.010683
91	0.504779	0.005000	9.681684	0.766752	1.854876	0.141698	0.191573	-0.388385	-0.003065	-0.008394	0.009431
92	0.509779	0.005000	9.731520	0.827030	1.856363	0.141034	0.191794	-0.388756	-0.010606	-0.003385	0.003047
93	0.514779	0.005000	9.769242	0.798386	1.818626	0.140370	0.192016	-0.389127	-0.021872	-0.008986	0.004410
94	0.519779	0.005000	9.722062	0.809149	1.819931	0.139705	0.192237	-0.389498	-0.014502	-0.011510	0.009171
95	0.524779	0.005000	9.725013	0.761927	1.742927	0.139041	0.192459	-0.389869	-0.010737	-0.018959	-0.009774
96	0.529779	0.005000	9.731520	0.841623	1.791531	0.139092	0.192680	-0.389920	-0.010314	-0.007154	0.006779
97	0.534779	0.005000	9.653040	0.804954	1.824126	0.139535	0.192902	-0.389796	-0.016941	0.004068	0.000574
98	0.539779	0.005000	9.710947	0.745560	1.685415	0.139979	0.193123	-0.389673	-0.010919	-0.002815	0.006631
99	0.544779	0.005000	9.788191	0.780423	1.783231	0.140422	0.193345	-0.389549	-0.010823	0.002634	0.002159
100	0.549779	0.005000	9.724186	0.768847	1.789087	0.140865	0.193566	-0.389425	-0.006272	-0.001883	-0.005071
101	0.554779	0.005000	9.756277	0.745560	1.819523	0.141308	0.193788	-0.389301	-0.010353	-0.005760	0.000991
102	0.559779	0.005000	9.653040	0.706320	1.856921	0.141751	0.194010	-0.389178	-0.008551	-0.001636	0.002194
103	0.564779	0.005000	9.676370	0.690410	1.765800	0.142195	0.194231	-0.389054	-0.005633	-0.009893	0.015949
104	0.569779	0.005000	9.692280	0.756078	1.726560	0.142638	0.194453	-0.388930	0.013512	-0.000396	0.015655
105	0.574779	0.005000	9.749610	0.697275	1.765800	0.143081	0.194674	-0.388806	0.007192	-0.008951	0.016137
106	0.579779	0.005000	9.739173	0.627840	1.859586	0.143524	0.194896	-0.388683	-0.006332	-0.009214	0.015240
107	0.584779	0.005000	9.731520	0.534782	1.865023	0.143967	0.195118	-0.388559	0.002090	-0.002342	0.009905
108	0.589779	0.005000	9.770760	0.740895	1.936754	0.144410	0.195339	-0.388435	0.008545	-0.010113	0.018048
109	0.594779	0.005000	9.692280	0.670692	1.840668	0.144815	0.195386	-0.388311	0.005866	-0.006372	0.015077
110	0.599779	0.005000	9.770760	0.739176	1.689448	0.145036	0.194611	-0.388188	0.013489	-0.006029	0.020745
111	0.604779	0.005000	9.732178	0.706320	1.649396	0.145258	0.193837	-0.388064	-0.003061	-0.002749	0.020255
112	0.609779	0.005000	9.809163	0.783127	1.688157	0.145479	0.193062	-0.387941	0.004481	-0.010787	0.021474
113	0.614779	0.005000	9.766113	0.856309	1.606516	0.145700	0.192287	-0.387817	0.001903	-0.011244	0.030586
114	0.619779	0.005000	9.774586	0.930281	1.777279	0.145922	0.191512	-0.387694	-0.005547	0.001107	0.017126
115	0.624779	0.005000	9.697531	0.716823	1.799789	0.146143	0.190737	-0.387570	-0.000419	0.003233	0.015562
116	0.629779	0.005000	9.789798	0.856546	1.779268	0.146365	0.189962	-0.387446	-0.007680	0.006427	0.019267
117	0.634779	0.005000	9.810000	0.839810	1.765800	0.146586	0.189187	-0.387323	-0.000660	-0.002779	0.011753
118	0.639779	0.005000	9.770760	0.863280	1.777062	0.146807	0.188413	-0.387199	0.001566	-0.007330	0.013312
119	0.644779	0.005000	9.731520	0.863280	1.776613	0.147029	0.187638	-0.387076	-0.003147	-0.003512	0.011454
120	0.649779	0.005000	9.694573	0.811724	1.792724	0.147250	0.186863	-0.386952	0.003505	-0.003620	0.019804
121	0.654779	0.005000	9.680323	0.812083	1.805040	0.147472	0.186088	-0.386829	-0.006257	0.004229	0.003665
122	0.659779	0.005000	9.716399	0.863280	1.702441	0.147693	0.185313	-0.386705	0.009264	-0.009862	0.012595
123	0.664779	0.005000	9.754432	0.886192	1.788712	0.147684	0.185535	-0.386667	0.016464	-0.004749	0.008188
124	0.669779	0.005000	9.706486	0.827650	1.830074	0.147574	0.186200	-0.386667	0.010032	-0.005498	-0.001856
125	0.674779	0.005000	9.672342	0.863280	1.883520	0.147463	0.186864	-0.386667	0.005039	-0.012997	0.002717
126	0.679779	0.005000	9.632486	0.883834	1.726560	0.147352	0.187529	-0.386667	-0.000201	-0.005285	0.002601
127	0.684779	0.005000	9.709489	0.885311	1.787831	0.147241	0.188193	-0.386667	0.012147	-0.010307	0.014341
128	0.689779	0.005000	9.825733	0.784800	1.765800	0.147131	0.188858	-0.386667	0.004693	-0.005498	0.010559
129	0.694779	0.005000	9.824423	0.741532	1.755405	0.147020	0.189522	-0.386667	0.010474	-0.010764	-0.000578
130	0.699779	0.005000	9.797065	0.771865	1.817975	0.146909	0.190187	-0.386667	0.011287	-0.002767	0.005917
131	0.704779	0.005000	9.793635	0.768435	1.782165	0.146799	0.190851	-0.386667	0.010954	-0.005301	0.000164
132	0.709779	0.005000	9.741820	0.745560	1.637780	0.146688	0.191516	-0.386667	0.014981	-0.011025	0.001588
133	0.714779	0.005000	9.770760	0.797584	1.696139	0.146577	0.192180	-0.386667	0.010363	-0.007215	-0.001172
134	0.719779	0.005000	9.660476	0.713756	1.748868	0.146467	0.192845	-0.386667	0.015990	-0.011471	-0.006555
135	0.724779	0.005000	9.770760	0.684880	1.799107	0.146356	0.193509	-0.386667	0.012616	-0.007636	-0.001540
136	0.729779	0.005000	9.761868	0.775908	1.735452	0.146269	0.193958	-0.386694	0.016378	-0.009990	-0.005237
137	0.734779	0.005000	9.731520	0.706320	1.844280	0.146269	0.193626	-0.386817	0.014200	-0.008199	-0.003774
138	0.739779	0.005000	9.731520	0.706320	1.882064	0.146269	0.193294	-0.386941	-0.003929	-0.004174	-0.009923
139	0.744779	0.005000	9.731091	0.746417	1.844280	0.146269	0.192961	-0.387065	0.004640	-0.011360	0.003190
140	0.749779	0.005000	9.654093	0.824040	1.767907	0.146269	0.192629	-0.387188	0.000642	-0.003322	0.002007
141	0.754779	0.005000	9.802332	0.826596	1.692432	0.146269	0.192297	-0.387312	0.003207	-0.008781	-0.013984
142	0.759779	0.005000	9.810000	0.828036	1.683324	0.146269	0.191965	-0.387435	-0.005984	-0.002729	-0.003130
143	0.764779	0.005000	9.770760	0.711799	1.760321	0.146269	0.191632	-0.387559	-0.011252	-0.012438	-0.014081
144	0.769779	0.005000	9.659991	0.713271	1.733511	0.146269	0.191300	-0.387683	-0.013970	-0.007211	0.004008
145	0.774779	0.005000	9.582993	0.667080	1.743425	0.146269	0.190968	-0.387806	-0.028096	-0.003056	-0.022594
146	0.779779	0.005000	9.643482	0.618282	1.667197	0.146269	0.190635	-0.387930	-0.012215	-0.011061	-0.007656
147	0.784779	0.005000	9.748669	0.673184	1.715515	0.146269	0.190303	-0.388054	-0.003458	-0.003396	-0.000331
148	0.789779	0.005000	9.731520	0.745560	1.765800	0.146269	0.189971	-0.388177	-0.007161	-0.008826	-0.010736
149	0.794779	0.005000	9.717485	0.655911	1.676151	0.146269	0.189639	-0.388301	-0.012775	-0.010467	-0.000725
150	0.799779	0.005000	9.740078	0.675638	1.671979	0.146351	0.189798	-0.388424	-0.009415	0.001832	-0.005377
151	0.804779	0.005000	9.709099	0.751161	1.687320	0.146461	0.190130	-0.388548	0.001562	-0.006388	0.000553
152	0.809779	0.005000	9.752464	0.766504	1.867873	0.146572	0.190462	-0.388672	-0.003802	-0.008154	0.000003
153	0.814779	0.005000	9.810000	0.824210	1.883350	0.146683	0.190794	-0.388795	0.002853	-0.010754	-0.005589
154	0.819779	0.005000	9.788970	0.824040	1.844280	0.146793	0.191126	-0.388919	0.011104	0.003171	-0.003310
155	0.824779	0.005000	9.776569	0.706320	1.827565	0.146904	0.191458	-0.389043	0.010865	-0.004054	-0.005326
156	0.829779	0.005000	9.755251	0.753782	1.827837	0.147015	0.191790	-0.389166	0.004478	-0.014082	0.004205
157	0.834779	0.005000	9.784794	0.692286	1.819074	0.147125	0.192123	-0.389290	0.005814	0.009147	-0.002735
158	0.839779	0.005000	9.770760	0.744429	1.779634	0.147236	0.192455	-0.389414	0.021475	-0.008963	0.007890
159	0.844779	0.005000	9.781976	0.812824	1.816256	0.147347	0.192787	-0.389537	0.005270	-0.007674	0.003554
160	0.849779	0.005000	9.770760	0.774700	1.854380	0.147457	0.193119	-0.389661	0.000741	-0.011572	-0.010362
161	0.854779	0.005000	9.700869	0.832629	1.765800	0.147568	0.193451	-0.389784	0.006098	-0.018803	0.003357
162	0.859779	0.005000	9.724401	0.791919	1.765800	0.147679	0.193783	-0.389908	0.010791	-0.013372	-0.009029
163	0.864779	0.005000	9.720225	0.857633	1.765800	0.147704	0.194058	-0.390064	0.013423	-0.005819	-0.003421
164	0.869779	0.005000	9.692280	0.863280	1.809204	0.147483	0.194169	-0.390311	0.002868	0.001907	-0.007360
165	0.874779	0.005000	9.731520	0.863280	1.807767	0.147261	0.194280	-0.390558	0.005454	-0.006065	-0.004569
166	0.879779	0.005000	9.692280	0.824040	1.805040	0.147040	0.194391	-0.390805	-0.004494	0.001323	-0.003588
167	0.884779	0.005000	9.692280	0.863020	1.805040	0.146818	0.194501	-0.391053	-0.001950	-0.011444	-0.002314
168	0.889779	0.005000	9.732806	0.902520	1.882234	0.146597	0.194612	-0.391300	0.009795	-0.004560	-0.000387
169	0.894779	0.005000	9.695054	0.787574	1.729334	0.146375	0.194723	-0.391547	0.000393	0.005750	-0.010222
170	0.899779	0.005000	9.762209	0.937484	1.660907	0.146154	0.194833	-0.391795	0.007337	0.003930	-0.010910
171	0.904779	0.005000	9.676091	0.902520	1.653843	0.145932	0.194944	-0.392042	0.004216	0.006006	-0.005063
172	0.909779	0.005000	9.613800	0.895254	1.616106	0.145711	0.195055	-0.392289	0.001670	0.009694	-0.012043
173	0.914779	0.005000	9.692280	0.810751	1.757150	0.145489	0.195166	-0.392537	0.032557	-0.004265	-0.012398
174	0.919779	0.005000	9.702411	0.863280	1.659497	0.145268	0.195276	-0.392784	0.020946	0.007010	-0.017166
175	0.924779	0.005000	9.748204	0.891242	1.810447	0.145046	0.195387	-0.393031	0.007854	-0.008503	-0.008907
176	0.929779	0.005000	9.757050	0.888810	1.805040	0.144825	0.195498	-0.393279	0.013897	0.007330	-0.007483
177	0.934779	0.005000	9.810000	0.863280	1.819125	0.144862	0.193794	-0.393526	0.020909	-0.000291	-0.012994
178	0.939779	0.005000	9.770760	0.878844	1.655533	0.144973	0.191579	-0.393773	0.013995	-0.001325	-0.011802
179	0.944779	0.005000	9.687120	0.835921	1.680599	0.145084	0.189364	-0.394021	0.021199	-0.010996	-0.026392
180	0.949779	0.005000	9.692280	0.824040	1.671767	0.145195	0.187149	-0.394268	0.023710	-0.010482	-0.004143
181	0.954779	0.005000	9.731520	0.843807	1.726266	0.145306	0.184934	-0.394516	0.002054	-0.004216	-0.012410
182	0.959779	0.005000	9.713534	0.842026	1.626826	0.145416	0.182719	-0.394763	0.005554	-0.001568	0.000786
183	0.964779	0.005000	9.764486	0.846797	1.693594	0.145527	0.180504	-0.395010	0.014126	-0.001858	-0.012368
184	0.969779	0.005000	9.755480	0.793481	1.663360	0.145638	0.178289	-0.395258	0.004808	0.008027	-0.010618
185	0.974779	0.005000	9.731520	0.784800	1.754180	0.145749	0.176074	-0.395505	0.010781	-0.006726	-0.002346
186	0.979779	0.005000	9.731520	0.772314	1.753314	0.145860	0.173859	-0.395753	0.003998	-0.000105	-0.014390
187	0.984779	0.005000	9.781743	0.740866	1.765800	0.145970	0.171644	-0.396000	0.009263	-0.008078	0.004132
188	0.989779	0.005000	9.741016	0.686073	1.726560	0.146081	0.169429	-0.396247	0.006544	-0.001615	-0.001067
189	0.994779	0.005000	9.794013	0.753554	1.687320	0.146192	0.167214	-0.396495	0.007973	-0.011119	-0.010246
190	0.999779	0.005000	9.763870	0.731781	1.777482	0.146235	0.166244	-0.396479	0.009884	-0.009013	-0.000422
191	1.004779	0.005000	9.658458	0.829458	1.658915	0.146125	0.168127	-0.395861	-0.001082	-0.001699	-0.003939
192	1.009779	0.005000	9.649043	0.780803	1.644083	0.146014	0.170009	-0.395242	0.009052	-0.011484	0.016002
193	1.014779	0.005000	9.650546	0.826534	1.577082	0.145903	0.171892	-0.394624	0.001179	0.001605	0.000608
194	1.019779	0.005000	9.654494	0.863280	1.764346	0.145792	0.173775	-0.394006	0.000455	-0.008053	-0.006042
195	1.024779	0.005000	9.692280	0.863280	1.687335	0.145681	0.175658	-0.393387	0.009612	-0.001345	0.001459
196	1.029779	0.005000	9.730020	0.745560	1.611840	0.145571	0.177540	-0.392769	-0.003353	-0.004887	0.000073
197	1.034779	0.005000	9.728550	0.860310	1.684350	0.145460	0.179423	-0.392150	0.014731	0.006109	0.006930
198	1.039779	0.005000	9.810000	0.858826	1.678413	0.145349	0.181306	-0.391532	0.005411	0.003167	-0.006414
199	1.044779	0.005000	9.703314	0.936243	1.810557	0.145238	0.183189	-0.390913	0.001822	0.001446	-0.000277
200	1.049779	0.005000	9.685262	0.831058	1.726560	0.145127	0.185071	-0.390295	-0.000901	0.005349	-0.001634
201	1.054779	0.005000	9.700785	0.815535	1.765800	0.145017	0.186954	-0.389677	0.012661	0.005475	-0.010315
202	1.059779	0.005000	9.741100	0.902520	1.863747	0.144906	0.188837	-0.389058	0.021565	0.004950	-0.007945
203	1.064779	0.005000	9.770760	0.886000	1.816400	0.144795	0.190720	-0.388440	0.009756	-0.000485	-0.006102
204	1.069779	0.005000	9.678720	0.889680	1.817880	0.144776	0.191320	-0.388640	-0.005380	-0.003039	-0.011043
205	1.074779	0.005000	9.678260	0.838060	1.791020	0.144776	0.191652	-0.389011	0.004863	-0.002211	-0.015895
206	1.079779	0.005000	9.716013	0.855054	1.820547	0.144776	0.191984	-0.389381	0.006051	-0.016663	-0.013487
207	1.084779	0.005000	9.613800	0.846279	1.810278	0.144776	0.192316	-0.389752	0.002749	-0.006721	-0.011604
208	1.089779	0.005000	9.710553	0.842313	1.846974	0.144776	0.192648	-0.390123	0.002299	-0.011727	-0.010955
209	1.094779	0.005000	9.692280	0.784800	1.844540	0.144776	0.192980	-0.390494	0.010413	-0.006428	0.003314
210	1.099779	0.005000	9.692280	0.748333	1.880747	0.144776	0.193312	-0.390865	0.005030	0.001880	-0.021924
211	1.104779	0.005000	9.709011	0.768069	1.916982	0.144776	0.193644	-0.391236	0.008181	-0.011999	-0.014824
212	1.109779	0.005000	9.685789	0.760804	1.916269	0.144776	0.193976	-0.391607	0.009194	-0.011782	-0.006483
213	1.114779	0.005000	9.757019	0.810299	1.844280	0.144776	0.194308	-0.391977	-0.001152	-0.011780	0.000534
214	1.119779	0.005000	9.653040	0.692219	1.819141	0.144776	0.194640	-0.392348	-0.002042	-0.010462	-0.001288
215	1.124779	0.005000	9.703380	0.756660	1.782840	0.144776	0.194972	-0.392719	0.010295	-0.002923	-0.011429
216	1.129779	0.005000	9.721776	0.784537	1.765537	0.144776	0.195304	-0.393090	0.006096	-0.005669	-0.005428
217	1.134779	0.005000	9.661281	0.846797	1.906277	0.144700	0.195331	-0.393290	0.018946	0.004114	-0.020209
218	1.139779	0.005000	9.724385	0.752695	1.890655	0.144478	0.194778	-0.393167	0.017681	-0.004008	0.000693
219	1.144779	0.005000	9.770760	0.762548	1.737885	0.144257	0.194224	-0.393043	0.016623	0.000059	-0.008892
220	1.149779	0.005000	9.770760	0.815582	1.726560	0.144035	0.193670	-0.392920	0.011529	-0.003025	-0.002596
221	1.154779	0.005000	9.692280	0.860538	1.802298	0.143814	0.193116	-0.392796	0.031045	-0.010829	0.000611
222	1.159779	0.005000	9.849240	0.822785	1.765800	0.143592	0.192563	-0.392672	0.022874	-0.010610	-0.005160
223	1.164779	0.005000	9.809541	0.784800	1.766259	0.143371	0.192009	-0.392549	0.013274	-0.014669	-0.001279
224	1.169779	0.005000	9.731520	0.746830	1.806310	0.143149	0.191455	-0.392425	0.014772	-0.004304	-0.004894
225	1.174779	0.005000	9.695037	0.709077	1.849795	0.142928	0.190902	-0.392301	0.027654	-0.005824	-0.001864
226	1.179779	0.005000	9.696489	0.784800	1.844280	0.142706	0.190348	-0.392178	0.022428	-0.003854	-0.011310
227	1.184779	0.005000	9.697960	0.896840	1.715720	0.142485	0.189794	-0.392054	0.015766	-0.007803	-0.009445
228	1.189779	0.005000	9.724750	0.837580	1.777961	0.142263	0.189241	-0.391931	0.008012	-0.010244	-0.003313
229	1.194779	0.005000	9.653040	0.771465	1.765800	0.142042	0.188687	-0.391807	0.009971	-0.013337	-0.008626
230	1.199779	0.005000	9.682520	0.765281	1.765599	0.141820	0.188133	-0.391683	0.017040	-0.019548	-0.002481
231	1.204779	0.005000	9.731520	0.762570	1.861290	0.141887	0.188540	-0.391560	0.017447	-0.008895	-0.007513
232	1.209779	0.005000	9.731520	0.732965	1.726560	0.141998	0.189094	-0.391436	0.010797	-0.019462	0.000566
233	1.214779	0.005000	9.767790	0.770730	1.790970	0.142109	0.189647	-0.391312	0.017779	-0.014633	0.006507
234	1.219779	0.005000	9.849240	0.745560	1.874798	0.142219	0.190201	-0.391189	0.011442	-0.009786	0.001330
235	1.224779	0.005000	9.770760	0.706320	1.799324	0.142330	0.190754	-0.391065	0.005997	-0.024184	0.009414
236	1.229779	0.005000	9.692280	0.706320	1.823289	0.142441	0.191308	-0.390941	0.011298	-0.013340	0.012124
237	1.234779	0.005000	9.672545	0.804535	1.746295	0.142552	0.191861	-0.390818	0.021363	-0.007356	0.022217
238	1.239779	0.005000	9.689556	0.808506	1.862538	0.142662	0.192415	-0.390694	0.022717	-0.010796	0.009561
239	1.244779	0.005000	9.736803	0.857997	1.788061	0.142773	0.192968	-0.390571	0.017472	-0.006653	-0.000908
240	1.249779	0.005000	9.700537	0.902520	1.640845	0.142884	0.193521	-0.390447	0.031154	-0.012415	0.007031
241	1.254779	0.005000	9.731520	0.838029	1.754538	0.142994	0.194075	-0.390323	0.015471	-0.008473	0.004544
242	1.259779	0.005000	9.613800	0.902520	1.726560	0.143105	0.194628	-0.390200	0.015768	-0.012485	0.001962
243	1.264779	0.005000	9.653040	0.919079	1.715220	0.143216	0.195182	-0.390076	0.015829	-0.004898	0.013355
244	1.269779	0.005000	9.711800	0.892660	1.707040	0.143369	0.195266	-0.389952	0.013425	-0.007309	0.015814
245	1.274779	0.005000	9.670019	0.801779	1.735049	0.143591	0.194602	-0.389829	0.030145	-0.004499	0.019009
246	1.279779	0.005000	9.692280	0.817038	1.708326	0.143812	0.193937	-0.389705	0.031400	-0.002257	0.006766
247	1.284779	0.005000	9.692280	0.868779	1.799541	0.144034	0.193273	-0.389581	0.032660	-0.010720	0.013970
248	1.289779	0.005000	9.661065	0.910545	1.757775	0.144255	0.192608	-0.389458	0.026517	-0.001441	0.009860
249	1.294779	0.005000	9.734474	0.944714	1.684366	0.144477	0.191944	-0.389334	0.047171	-0.009418	0.016220
250	1.299779	0.005000	9.770760	1.095780	1.646610	0.144698	0.191279	-0.389210	0.034787	0.004775	0.015036
251	1.304779	0.005000	9.810000	0.981000	1.687320	0.144920	0.190615	-0.389086	0.031299	0.000208	0.017934
252	1.309779	0.005000	9.808512	0.869231	1.762824	0.145141	0.189950	-0.388963	0.035656	-0.005760	0.014337
253	1.314779	0.005000	9.734474	0.975093	1.765800	0.145363	0.189286	-0.388839	0.037501	-0.000769	0.004607
254	1.319779	0.005000	9.727095	0.802499	1.735409	0.145584	0.188621	-0.388715	0.040583	0.004430	0.019950
255	1.324779	0.005000	9.653040	0.929945	1.732467	0.145806	0.187957	-0.388592	0.038976	0.002488	0.017536
256	1.329779	0.005000	9.685278	0.902520	1.694322	0.146027	0.187292	-0.388468	0.041756	0.006849	0.010528
257	1.334779	0.005000	9.714541	0.899313	1.726560	0.146249	0.186628	-0.388344	0.052300	-0.002103	0.014084
258	1.339779	0.005000	9.760768	0.883264	1.814304	0.145967	0.186869	-0.388221	0.052790	-0.000661	0.000440
259	1.344779	0.005000	9.715238	0.824040	1.844280	0.145635	0.187201	-0.388097	0.039520	-0.005501	0.004897
260	1.349779	0.005000	9.731520	0.836855	1.818651	0.145303	0.187533	-0.387973	0.047342	0.003796	0.002638
261	1.354779	0.005000	9.638746	0.863280	1.833628	0.144970	0.187866	-0.387850	0.043323	-0.010283	0.009050
262	1.359779	0.005000	9.653040	0.753817	1.774057	0.144638	0.188198	-0.387726	0.033309	-0.008047	0.012650
263	1.364779	0.005000	9.692280	0.762808	1.787792	0.144306	0.188530	-0.387603	0.031655	-0.004287	0.004214
264	1.369779	0.005000	9.750001	0.805559	1.805040	0.143973	0.188863	-0.387479	0.028283	0.001160	-0.001634
265	1.374779	0.005000	9.731520	0.941063	1.747226	0.143641	0.189195	-0.387355	0.018588	-0.002859	-0.000942
266	1.379779	0.005000	9.692280	0.824040	1.697684	0.143309	0.189527	-0.387232	0.023116	-0.014263	0.002278
267	1.384779	0.005000	9.692280	0.840322	1.749518	0.142977	0.189859	-0.387108	0.019019	-0.009683	0.003514
268	1.389779	0.005000	9.731520	0.824040	1.711479	0.142644	0.190192	-0.386984	0.021461	-0.013826	-0.005813
269	1.394779	0.005000	9.653040	0.863280	1.820222	0.142312	0.190524	-0.386861	0.025924	-0.009755	0.006701
270	1.399779	0.005000	9.716531	0.796926	1.856406	0.141980	0.190856	-0.386737	0.001128	0.006290	-0.009767
271	1.404779	0.005000	9.703062	0.874062	1.687320	0.141887	0.191189	-0.386774	0.010220	-0.008119	0.000054
272	1.409779	0.005000	9.662319	0.854001	1.717281	0.142108	0.191521	-0.387021	0.022919	-0.003915	0.000846
273	1.414779	0.005000	9.731520	0.863280	1.695112	0.142330	0.191853	-0.387269	0.019611	0.000943	-0.009974
274	1.419779	0.005000	9.626379	0.849198	1.739139	0.142551	0.192185	-0.387516	0.017688	-0.012691	-0.010522
275	1.424779	0.005000	9.731520	1.010635	1.770602	0.142773	0.192517	-0.387763	0.031678	-0.001527	-0.011056
276	1.429779	0.005000	9.692280	0.941760	1.805040	0.142994	0.192850	-0.388010	0.031027	-0.009329	0.001307
277	1.434779	0.005000	9.726990	0.861015	1.768065	0.143216	0.193182	-0.388258	0.017025	-0.001146	-0.009211
278	1.439779	0.005000	9.693842	0.823259	1.841938	0.143437	0.193514	-0.388505	0.040329	-0.007107	-0.006148
279	1.444779	0.005000	9.732217	0.900429	1.765103	0.143659	0.193846	-0.388752	0.021847	0.001946	-0.004992
280	1.449779	0.005000	9.727174	0.824040	1.765800	0.143880	0.194178	-0.389000	0.015648	-0.004146	-0.009263
281	1.454779	0.005000	9.802712	0.792088	1.769444	0.144102	0.194511	-0.389247	0.024761	-0.012273	-0.006130
282	1.459779	0.005000	9.736647	0.813786	1.765800	0.144323	0.194843	-0.389494	0.013420	-0.010619	-0.011466
283	1.464779	0.005000	9.758367	0.784800	1.850477	0.144545	0.195175	-0.389742	0.025311	-0.016810	-0.005161
284	1.469779	0.005000	9.770760	0.887121	1.734259	0.144766	0.195507	-0.389989	0.015125	-0.014002	-0.001539
285	1.474779	0.005000	9.800814	0.803173	1.774986	0.145199	0.195310	-0.389764	0.012770	-0.013348	-0.014350
286	1.479779	0.005000	9.731520	0.784800	1.844280	0.145642	0.195089	-0.389517	-0.000413	-0.009654	-0.006893
287	1.484779	0.005000	9.825172	0.799972	1.777834	0.146085	0.194868	-0.389269	-0.003561	-0.008886	-0.016891
288	1.489779	0.005000	9.757918	0.850081	1.843924	0.146527	0.194646	-0.389022	-0.005755	-0.018181	-0.003918
289	1.494779	0.005000	9.741357	0.848579	1.662781	0.146970	0.194425	-0.388775	-0.009323	-0.008697	-0.010807
290	1.499779	0.005000	9.816863	0.768611	1.733423	0.147413	0.194203	-0.388528	0.001046	-0.008876	0.005322
291	1.504779	0.005000	9.784547	0.784800	1.787364	0.147856	0.193982	-0.388281	-0.002320	-0.006429	0.007667
292	1.509779	0.005000	9.731520	0.806440	1.784747	0.148299	0.193761	-0.388033	-0.010640	-0.002723	-0.006940
293	1.514779	0.005000	9.731520	0.882096	1.786224	0.148741	0.193539	-0.387786	0.001914	-0.005753	-0.004978
294	1.519779	0.005000	9.696416	0.845728	1.744112	0.149184	0.193318	-0.387539	-0.008330	0.001619	-0.013581
295	1.524779	0.005000	9.731520	0.902520	1.837138	0.149627	0.193097	-0.387292	0.005192	-0.009591	0.002541
296	1.529779	0.005000	9.692280	0.936447	1.952462	0.150070	0.192875	-0.387045	0.005708	0.000802	0.005040
297	1.534779	0.005000	9.600424	0.850792	1.962888	0.150513	0.192654	-0.386797	0.009760	-0.002443	-0.001365
298	1.539779	0.005000	9.625852	0.878415	1.937895	0.150537	0.192537	-0.386725	0.017582	-0.006761	0.006811
299	1.544779	0.005000	9.713379	0.824040	1.805040	0.150094	0.192537	-0.386849	0.013211	-0.014904	-0.003599
300	1.549779	0.005000	9.713395	0.863280	1.892583	0.149651	0.192537	-0.386973	0.018378	-0.012284	0.004447
301	1.554779	0.005000	9.684337	0.863280	1.868109	0.149208	0.192537	-0.387096	0.030609	0.005394	0.009113
302	1.559779	0.005000	9.731520	0.928685	1.837743	0.148765	0.192537	-0.387220	0.051432	-0.012957	0.001222
303	1.564779	0.005000	9.697330	0.912620	1.731610	0.148323	0.192537	-0.387343	0.040536	-0.004952	0.006720
304	1.569779	0.005000	9.727972	0.981000	1.801492	0.147880	0.192537	-0.387467	0.042753	-0.005484	0.009760
305	1.574779	0.005000	9.694340	0.978940	1.728620	0.147437	0.192537	-0.387590	0.045270	-0.009587	0.021224
306	1.579779	0.005000	9.692280	0.902520	1.765800	0.146994	0.192537	-0.387714	0.042755	-0.001757	-0.000611
307	1.584779	0.005000	9.808652	0.902520	1.765800	0.146552	0.192537	-0.387838	0.056903	0.004018	0.001996
308	1.589779	0.005000	9.692280	0.902520	1.763848	0.146109	0.192537	-0.387961	0.050502	0.003725	0.005329
309	1.594779	0.005000	9.695719	0.938321	1.723121	0.145666	0.192537	-0.388085	0.047237	-0.000161	-0.003754
310	1.599779	0.005000	9.697222	0.868222	1.726560	0.145223	0.192537	-0.388208	0.041457	-0.004702	0.007500
311	1.604779	0.005000	9.816354	0.764621	1.648080	0.144780	0.192537	-0.388332	0.032728	0.005209	-0.001369
312	1.609779	0.005000	9.802164	0.965328	1.695156	0.144995	0.192866	-0.388578	0.040233	-0.008826	0.000675
313	1.614779	0.005000	9.670917	0.884643	1.587477	0.145217	0.193198	-0.388825	0.026265	-0.000621	-0.001411
314	1.619779	0.005000	9.721079	0.824040	1.784157	0.145438	0.193531	-0.389073	0.030577	-0.010209	-0.000048
315	1.624779	0.005000	9.664968	0.772872	1.738488	0.145660	0.193863	-0.389320	0.023548	-0.009955	0.006277
316	1.629779	0.005000	9.718089	0.771369	1.752369	0.145881	0.194195	-0.389568	0.026065	-0.000330	-0.003697
317	1.634779	0.005000	9.702033	0.887776	1.780544	0.146103	0.194527	-0.389815	0.014743	-0.009200	-0.002129
318	1.639779	0.005000	9.747742	0.856485	1.798245	0.146324	0.194860	-0.390062	-0.003347	0.001527	0.004393
319	1.644779	0.005000	9.735363	0.763259	1.773486	0.146546	0.195192	-0.390310	-0.010241	-0.013098	0.010401
320	1.649779	0.005000	9.711448	0.804872	1.942832	0.146767	0.195524	-0.390557	0.000685	-0.001676	0.002697
321	1.654779	0.005000	9.712698	0.745560	1.864698	0.146989	0.195857	-0.390804	-0.007147	-0.007941	0.002504
322	1.659779	0.005000	9.753440	0.723640	1.870801	0.147210	0.196189	-0.391052	-0.007500	0.000535	0.007232
323	1.664779	0.005000	9.770760	0.863280	1.749968	0.147432	0.196521	-0.391299	0.002298	0.008392	0.003729
324	1.669779	0.005000	9.717190	0.873861	1.744639	0.147653	0.196853	-0.391547	-0.009210	-0.004668	0.004966
325	1.674779	0.005000	9.744671	0.784800	1.831129	0.147590	0.196731	-0.391540	-0.004212	0.000408	-0.000300
326	1.679779	0.005000	9.731520	0.824040	1.820926	0.147258	0.196177	-0.391293	-0.001457	0.001767	-0.000935
327	1.684779	0.005000	9.741717	0.981000	1.735210	0.146926	0.195624	-0.391045	0.005152	-0.005206	0.001998
328	1.689779	0.005000	9.731520	0.845620	1.753050	0.146594	0.195070	-0.390798	0.002271	0.002089	-0.001735
329	1.694779	0.005000	9.677594	0.784800	1.797697	0.146262	0.194517	-0.390551	0.014210	-0.015898	0.005930
330	1.699779	0.005000	9.703961	0.739720	1.805040	0.145930	0.193963	-0.390304	0.004494	-0.010646	-0.005957
331	1.704779	0.005000	9.653040	0.758619	1.770153	0.145598	0.193410	-0.390056	0.017108	-0.013437	0.003686
332	1.709779	0.005000	9.731520	0.826890	1.796489	0.145266	0.192856	-0.389809	0.015752	-0.010544	0.010113
333	1.714779	0.005000	9.729713	0.900713	1.765800	0.144934	0.192302	-0.389562	0.018567	-0.003043	0.003965
334	1.719779	0.005000	9.731520	0.823699	1.767163	0.144602	0.191749	-0.389314	0.028786	-0.004964	0.011226
335	1.724779	0.005000	9.655336	0.822892	1.884668	0.144270	0.191195	-0.389067	0.037784	-0.008637	-0.001101
336	1.729779	0.005000	9.653040	0.818806	1.695171	0.143938	0.190642	-0.388820	0.028476	-0.015083	0.003548
337	1.734779	0.005000	9.656711	0.756574	1.801369	0.143606	0.190088	-0.388573	0.025507	-0.001819	-0.010551
338	1.739779	0.005000	9.692280	0.784800	1.755483	0.143284	0.189487	-0.388352	0.025656	-0.018717	0.003881
339	1.744779	0.005000	9.731520	0.784800	1.687320	0.143284	0.187383	-0.388971	0.019829	-0.013953	0.001658
340	1.749779	0.005000	9.621853	0.894467	1.703426	0.143284	0.185278	-0.389589	0.005340	-0.006434	-0.007731
341	1.754779	0.005000	9.721985	0.883451	1.618375	0.143284	0.183174	-0.390207	0.016962	-0.004082	-0.002530
342	1.759779	0.005000	9.681272	1.037464	1.783024	0.143284	0.181070	-0.390826	0.014239	0.004614	0.001619
343	1.764779	0.005000	9.692280	0.927476	1.765800	0.143284	0.178966	-0.391444	-0.000980	-0.002682	-0.005981
344	1.769779	0.005000	9.731520	0.812096	1.740208	0.143284	0.176861	-0.392063	0.008131	0.005706	0.000496
345	1.774779	0.005000	9.722581	0.815101	1.711409	0.143284	0.174757	-0.392681	-0.009463	-0.004615	-0.006399
346	1.779779	0.005000	9.659004	0.784800	1.749162	0.143284	0.172653	-0.393299	0.005243	-0.003171	0.005469
347	1.784779	0.005000	9.710421	0.842181	1.829098	0.143284	0.170549	-0.393918	-0.005306	0.000185	-0.009560
348	1.789779	0.005000	9.712122	0.745116	1.785198	0.143284	0.168444	-0.394536	0.001344	0.000856	0.002920
349	1.794779	0.005000	9.689770	0.821530	1.820895	0.143284	0.166340	-0.395155	-0.001444	-0.002972	0.003377
350	1.799779	0.005000	9.787647	0.880167	1.844280	0.143284	0.164236	-0.395773	0.006769	0.000982	0.008593
351	1.804779	0.005000	9.692280	0.972595	1.798028	0.143284	0.162132	-0.396391	0.003940	0.002394	0.000531
352	1.809779	0.005000	9.717407	0.966887	1.790927	0.143345	0.162299	-0.396530	0.007697	-0.008509	-0.008280
353	1.814779	0.005000	9.784780	0.891320	1.791020	0.143456	0.164291	-0.396283	0.003276	-0.006115	-0.001281
354	1.819779	0.005000	9.692280	0.857409	1.793917	0.143567	0.166284	-0.396035	0.019880	-0.005317	-0.006963
355	1.824779	0.005000	9.662660	0.794420	1.814660	0.143677	0.168277	-0.395788	0.017320	-0.003504	0.002065
356	1.829779	0.005000	9.754494	0.847014	1.867254	0.143788	0.170269	-0.395541	0.016213	-0.002409	0.001993
357	1.834779	0.005000	9.724495	0.720369	1.715419	0.143899	0.172262	-0.395293	0.017208	-0.007299	0.000862
358	1.839779	0.005000	9.737062	0.925133	1.866893	0.144009	0.174255	-0.395046	0.028786	0.000568	0.004178
359	1.844779	0.005000	9.715037	0.788921	1.765800	0.144120	0.176247	-0.394799	0.023556	-0.008352	0.001495
360	1.849779	0.005000	9.613800	0.902520	1.689954	0.144231	0.178240	-0.394552	0.033122	-0.008112	0.006599
361	1.854779	0.005000	9.693411	0.822909	1.646949	0.144341	0.180233	-0.394304	0.019154	-0.001961	-0.007286
362	1.859779	0.005000	9.614014	0.784907	1.765693	0.144452	0.182225	-0.394057	0.021773	-0.013623	-0.001770
363	1.864779	0.005000	9.654419	0.861901	1.764421	0.144563	0.184218	-0.393810	0.013454	-0.015231	0.010802
364	1.869779	0.005000	9.692280	0.742679	1.768681	0.144673	0.186210	-0.393563	0.007757	-0.002072	-0.008374
365	1.874779	0.005000	9.718568	0.959413	1.608840	0.144784	0.188012	-0.393324	0.006703	-0.007126	0.006946
366	1.879779	0.005000	9.714158	0.935973	1.787678	0.144895	0.187348	-0.393201	-0.006207	-0.003188	-0.009878
367	1.884779	0.005000	9.699550	0.831310	1.687320	0.145006	0.186683	-0.393077	-0.005064	-0.002770	-0.006137
368	1.889779	0.005000	9.653040	0.824040	1.805040	0.145116	0.186019	-0.392953	-0.009507	-0.000089	0.005484
369	1.894779	0.005000	9.613800	0.824040	1.648080	0.145227	0.185354	-0.392830	-0.008347	-0.003554	-0.013010
370	1.899779	0.005000	9.669538	0.879778	1.620211	0.145338	0.184689	-0.392706	-0.026529	-0.012032	-0.008011
371	1.904779	0.005000	9.679422	0.928902	1.700178	0.145449	0.184025	-0.392582	-0.021337	-0.000727	-0.009454
372	1.909779	0.005000	9.756573	0.838227	1.676454	0.145559	0.183360	-0.392459	-0.020222	-0.000561	0.005081
373	1.914779	0.005000	9.755098	0.863280	1.648080	0.145670	0.182696	-0.392335	-0.023155	0.010075	0.001466
374	1.919779	0.005000	9.742891	0.981000	1.754429	0.145781	0.182031	-0.392212	-0.012656	0.003757	0.002643
375	1.924779	0.005000	9.791643	0.960117	1.807565	0.145892	0.181367	-0.392088	-0.013285	0.002220	0.006900
376	1.929779	0.005000	9.712140	0.903000	1.844280	0.146003	0.180702	-0.391964	0.004165	0.006094	-0.000063
377	1.934779	0.005000	9.731520	0.845387	1.805040	0.146113	0.180038	-0.391841	0.017227	0.003140	0.007096
378	1.939779	0.005000	9.692280	0.925094	1.838373	0.146224	0.179373	-0.391717	0.012583	0.007657	0.004031
379	1.944779	0.005000	9.755392	0.957128	1.828912	0.146203	0.179631	-0.391667	0.007708	0.007330	0.004558
380	1.949779	0.005000	9.703759	0.849400	1.858160	0.146092	0.180517	-0.391667	0.013082	0.004783	-0.000667
381	1.954779	0.005000	9.638586	0.914913	1.753407	0.145982	0.181402	-0.391667	0.039376	-0.000723	0.004912
382	1.959779	0.005000	9.731520	0.852047	1.698553	0.145871	0.182288	-0.391667	0.032105	-0.003335	0.006560
383	1.964779	0.005000	9.712015	0.873033	1.726560	0.145760	0.183174	-0.391667	0.035358	-0.005001	0.008061
384	1.969779	0.005000	9.708839	0.902520	1.743119	0.145649	0.184059	-0.391667	0.029130	-0.008338	0.004410
385	1.974779	0.005000	9.738318	0.902520	1.798242	0.145539	0.184945	-0.391667	0.023350	0.001443	0.003932
386	1.979779	0.005000	9.713844	0.936369	1.805040	0.145428	0.185831	-0.391667	0.016029	-0.000560	-0.002150
387	1.984779	0.005000	9.806112	0.788688	1.773577	0.145317	0.186716	-0.391667	0.021695	-0.005096	0.011882
388	1.989779	0.005000	9.773161	0.750362	1.768201	0.145206	0.187602	-0.391667	0.005033	-0.001408	-0.001913
389	1.994779	0.005000	9.770760	0.861452	1.726560	0.145096	0.188488	-0.391667	0.007847	0.000224	0.016237
390	1.999779	0.005000	9.692497	0.784800	1.765692	0.144985	0.189373	-0.391667	0.000470	0.002186	0.001833
391	2.004779	0.005000	9.692280	0.825651	1.770633	0.144874	0.190259	-0.391667	0.002227	-0.006601	0.014519
392	2.009779	0.005000	9.656138	0.718713	1.828788	0.144826	0.191070	-0.391639	0.004650	0.005312	0.011778
393	2.014779	0.005000	9.687679	0.844876	1.913558	0.145269	0.191291	-0.391392	0.005971	-0.007055	0.008331
394	2.019779	0.005000	9.686192	0.857192	1.777976	0.145712	0.191513	-0.391144	-0.000630	-0.004585	0.021335
395	2.024779	0.005000	9.731520	0.887522	1.876021	0.146155	0.191734	-0.390897	-0.014732	0.001222	-0.004079
396	2.029779	0.005000	9.731520	0.919722	1.765800	0.146598	0.191956	-0.390650	-0.009394	-0.011533	0.006263
397	2.034779	0.005000	9.750559	0.815101	1.746761	0.147041	0.192177	-0.390402	-0.019626	-0.007618	0.001055
398	2.039779	0.005000	9.770760	0.851692	1.726560	0.147484	0.192399	-0.390155	-0.003410	-0.003427	-0.001895
399	2.044779	0.005000	9.679190	0.928670	1.818099	0.147927	0.192620	-0.389907	-0.001827	-0.007495	0.009002
400	2.049779	0.005000	9.731520	0.892094	1.776226	0.148370	0.192842	-0.389660	0.000613	-0.002312	-0.003665
401	2.054779	0.005000	9.692280	0.925874	1.805040	0.148813	0.193063	-0.389413	0.000754	-0.000618	0.004284
402	2.059779	0.005000	9.692280	0.851212	1.822143	0.149256	0.193285	-0.389165	-0.006817	-0.006632	0.001719
403	2.064779	0.005000	9.733580	0.923170	1.687320	0.149699	0.193506	-0.388918	-0.003579	-0.016969	0.001642
404	2.069779	0.005000	9.770760	0.903434	1.805040	0.150142	0.193728	-0.388670	-0.012415	-0.008500	0.003627
405	2.074779	0.005000	9.660879	0.959420	1.854102	0.150585	0.193949	-0.388423	-0.017224	-0.013516	-0.004034
406	2.079779	0.005000	9.620154	0.925317	1.850634	0.150323	0.193889	-0.388412	-0.003501	-0.003544	0.016292
407	2.084779	0.005000	9.668008	0.941760	1.735865	0.149659	0.193668	-0.388535	-0.010250	0.002230	-0.005918
408	2.089779	0.005000	9.680336	0.916168	1.844280	0.148994	0.193446	-0.388659	0.009456	-0.006541	-0.000662
409	2.094779	0.005000	9.692280	0.981000	1.844280	0.148330	0.193225	-0.388783	0.008983	-0.006355	0.002687
410	2.099779	0.005000	9.731520	0.945153	1.776458	0.147665	0.193003	-0.388906	0.022986	-0.004699	0.012405
411	2.104779	0.005000	9.692280	0.932225	1.864451	0.147001	0.192782	-0.389030	0.023506	-0.001904	0.015134
412	2.109779	0.005000	9.778813	0.824040	1.781906	0.146336	0.192560	-0.389154	0.007569	-0.008421	0.003112
413	2.114779	0.005000	9.724939	0.784800	1.844280	0.145672	0.192339	-0.389278	0.028281	-0.019720	0.014498
414	2.119779	0.005000	9.663357	0.824040	1.985764	0.145008	0.192117	-0.389401	0.036078	-0.011016	0.007966
415	2.124779	0.005000	9.727849	0.866951	1.958329	0.144343	0.191896	-0.389525	0.034874	-0.000594	0.009841
416	2.129779	0.005000	9.655209	0.854605	1.842111	0.143679	0.191674	-0.389649	0.030141	0.009115	0.012925
417	2.134779	0.005000	9.731520	0.706320	1.805040	0.143014	0.191453	-0.389772	0.026720	-0.006550	0.009392
418	2.139779	0.005000	9.731520	0.667421	1.805040	0.142350	0.191231	-0.389896	0.025431	-0.000664	0.009712
419	2.144779	0.005000	9.692280	0.782971	1.655395	0.141844	0.191027	-0.390000	0.021527	-0.000159	0.004626
420	2.149779	0.005000	9.728189	0.742229	1.537021	0.142176	0.190917	-0.390000	0.031963	-0.012209	0.009609
421	2.154779	0.005000	9.697041	0.706320	1.761039	0.142508	0.190806	-0.390000	0.016029	-0.005634	0.016420
422	2.159779	0.005000	9.653040	0.784800	1.726560	0.142840	0.190695	-0.390000	0.029077	-0.016248	0.017669
423	2.164779	0.005000	9.723804	0.839473	1.805040	0.143172	0.190584	-0.390000	0.033831	-0.010074	0.017066
424	2.169779	0.005000	9.722690	0.824040	1.865860	0.143505	0.190474	-0.390000	0.020021	-0.008834	0.000923
425	2.174779	0.005000	9.692280	0.873613	1.747226	0.143837	0.190363	-0.390000	0.018099	-0.007487	0.013434
426	2.179779	0.005000	9.731520	0.863280	1.738380	0.144169	0.190252	-0.390000	0.016188	0.005491	0.005461
427	2.184779	0.005000	9.731520	0.901838	1.844280	0.144501	0.190141	-0.390000	0.009690	-0.001646	0.001702
428	2.189779	0.005000	9.677470	0.848470	1.805040	0.144833	0.190031	-0.390000	-0.005927	0.002575	0.006676
429	2.194779	0.005000	9.747626	0.745560	1.844280	0.145165	0.189920	-0.390000	0.002348	-0.002833	0.007159
430	2.199779	0.005000	9.731520	0.845695	1.761729	0.145497	0.189809	-0.390000	-0.012164	-0.001522	0.012176
431	2.204779	0.005000	9.671862	0.842862	1.746978	0.145830	0.189699	-0.390000	-0.006833	0.002982	-0.000959
432	2.209779	0.005000	9.671971	0.803731	1.845659	0.146162	0.189588	-0.390000	0.010949	-0.013932	0.005709
433	2.214779	0.005000	9.831812	0.919948	1.791996	0.146119	0.189927	-0.390084	0.007541	-0.005498	0.004754
434	2.219779	0.005000	9.747461	0.909878	1.773158	0.145898	0.190481	-0.390207	0.004968	-0.009184	0.005957
435	2.224779	0.005000	9.781093	0.852947	1.805040	0.145676	0.191034	-0.390331	0.012097	-0.008310	0.018638
436	2.229779	0.005000	9.758058	0.889251	1.726560	0.145455	0.191588	-0.390455	0.005372	-0.006703	0.008000
437	2.234779	0.005000	9.680491	0.796589	1.805040	0.145233	0.192142	-0.390579	-0.001172	-0.009896	0.016482
438	2.239779	0.005000	9.663355	0.813725	1.873205	0.145012	0.192696	-0.390702	-0.000451	-0.006883	0.000579
439	2.244779	0.005000	9.710157	0.793739	1.862157	0.144790	0.193249	-0.390826	0.024432	-0.015702	0.009327
440	2.249779	0.005000	9.778211	0.895069	1.780703	0.144569	0.193803	-0.390950	0.006770	-0.001161	0.010658
441	2.254779	0.005000	9.680378	0.818089	1.747947	0.144347	0.194357	-0.391073	0.004560	-0.012741	-0.002211
442	2.259779	0.005000	9.657502	0.863280	1.731022	0.144126	0.194911	-0.391197	0.011557	-0.013459	0.014383
443	2.264779	0.005000	9.731520	0.824040	1.841306	0.143904	0.195465	-0.391321	0.007918	0.004324	0.000029
444	2.269779	0.005000	9.768832	0.861352	1.720775	0.143683	0.196018	-0.391444	0.013157	-0.007636	0.005866
445	2.274779	0.005000	9.652152	0.824928	1.648524	0.143461	0.196572	-0.391568	-0.000937	-0.007309	0.008497
446	2.279779	0.005000	9.650964	0.864318	1.763724	0.143284	0.196926	-0.391692	0.006632	-0.004459	0.006345
447	2.284779	0.005000	9.692280	0.782259	1.805040	0.143284	0.196483	-0.391815	-0.003508	-0.010397	0.006714
448	2.289779	0.005000	9.841279	0.749541	1.683339	0.143284	0.196040	-0.391939	-0.004219	-0.005498	-0.006334
449	2.294779	0.005000	9.641052	0.756461	1.703671	0.143284	0.195597	-0.392063	-0.005089	-0.011444	-0.001039
450	2.299779	0.005000	9.685743	0.758635	1.726560	0.143284	0.195154	-0.392186	-0.022185	-0.014199	0.005058
451	2.304779	0.005000	9.785880	0.706320	1.788960	0.143284	0.194711	-0.392310	0.004865	-0.011629	0.006156
452	2.309779	0.005000	9.770760	0.736144	1.834864	0.143284	0.194268	-0.392433	-0.003318	-0.012242	0.002629
453	2.314779	0.005000	9.703177	0.824040	1.698217	0.143284	0.193825	-0.392557	-0.024620	-0.008897	-0.008935
454	2.319779	0.005000	9.704332	0.718372	1.847363	0.143284	0.193382	-0.392681	-0.005702	-0.012608	0.014371
455	2.324779	0.005000	9.796460	0.732020	1.779340	0.143284	0.192939	-0.392804	-0.007672	-0.002283	-0.004302
456	2.329779	0.005000	9.794958	0.784800	1.663122	0.143284	0.192496	-0.392928	-0.006514	-0.020261	0.001640
457	2.334779	0.005000	9.708610	0.729230	1.592510	0.143284	0.192053	-0.393052	-0.015987	-0.012971	-0.004139
458	2.339779	0.005000	9.670846	0.727754	1.751623	0.143284	0.191610	-0.393175	-0.004132	-0.010558	-0.003653
459	2.344779	0.005000	9.693627	0.745560	1.765127	0.143284	0.191167	-0.393299	-0.009856	-0.014437	0.013189
460	2.349779	0.005000	9.714665	0.825883	1.728403	0.143204	0.191446	-0.393065	-0.024091	-0.008605	0.006118
461	2.354779	0.005000	9.726702	0.846069	1.726560	0.143093	0.191999	-0.392694	-0.013908	-0.015427	0.007491
462	2.359779	0.005000	9.810000	0.855395	1.805040	0.142982	0.192553	-0.392323	-0.008479	-0.007666	-0.004801
463	2.364779	0.005000	9.784981	0.720541	1.676522	0.142871	0.193107	-0.391951	-0.013606	-0.022047	0.002679
464	2.369779	0.005000	9.796956	0.745560	1.595796	0.142761	0.193660	-0.391580	-0.021098	-0.012726	0.007349
465	2.374779	0.005000	9.747620	0.784800	1.620410	0.142650	0.194214	-0.391209	0.006252	-0.013830	0.008607
466	2.379779	0.005000	9.731520	0.873489	1.697529	0.142539	0.194768	-0.390838	0.002225	-0.013221	0.003565
467	2.384779	0.005000	9.683558	0.824040	1.696042	0.142428	0.195322	-0.390467	-0.020686	-0.001649	-0.009927
468	2.389779	0.005000	9.635457	0.777581	1.797821	0.142318	0.195875	-0.390096	-0.006496	-0.018284	0.011973
469	2.394779	0.005000	9.704528	0.869404	1.726560	0.142207	0.196429	-0.389725	-0.003331	-0.005756	0.003913
470	2.399779	0.005000	9.770760	0.828692	1.839628	0.142096	0.196983	-0.389354	-0.008663	-0.006581	0.006206
471	2.404779	0.005000	9.770760	0.853772	1.687320	0.141985	0.197536	-0.388983	-0.013362	-0.003753	0.011410
472	2.409779	0.005000	9.733240	0.711479	1.724840	0.141874	0.198090	-0.388612	-0.011089	0.004569	-0.009799
473	2.414779	0.005000	9.770528	0.746489	1.805040	0.141818	0.198480	-0.388425	-0.006744	-0.006946	-0.002562
474	2.419779	0.005000	9.693535	0.788565	1.881010	0.141929	0.198369	-0.388795	-0.023637	-0.007153	0.000069
475	2.424779	0.005000	9.653040	0.860555	1.773976	0.142040	0.198258	-0.389166	-0.023939	-0.015708	-0.001158
476	2.429779	0.005000	9.720180	0.937980	1.769580	0.142151	0.198148	-0.389537	-0.011942	-0.005684	0.003345
477	2.434779	0.005000	9.658323	0.907803	1.760517	0.142261	0.198037	-0.389908	-0.025761	-0.013195	-0.004496
478	2.439779	0.005000	9.685510	0.934990	1.759030	0.142372	0.197926	-0.390279	-0.025112	-0.010730	-0.001554
479	2.444779	0.005000	9.661300	0.950020	1.796780	0.142483	0.197816	-0.390650	-0.017315	0.001425	-0.006006
480	2.449779	0.005000	9.633757	0.843997	1.726560	0.142593	0.197705	-0.391021	-0.014355	-0.015112	0.012171
481	2.454779	0.005000	9.681165	0.812925	1.709550	0.142704	0.197594	-0.391391	-0.014095	-0.008217	0.002719
482	2.459779	0.005000	9.745569	0.889925	1.646626	0.142815	0.197484	-0.391762	-0.015681	-0.011039	-0.006503
483	2.464779	0.005000	9.680584	0.812344	1.687320	0.142926	0.197373	-0.392133	0.015526	-0.003437	0.011320
484	2.469779	0.005000	9.629059	0.902520	1.765800	0.143036	0.197262	-0.392504	0.006692	0.001506	-0.001656
485	2.474779	0.005000	9.714758	0.964238	1.765800	0.143147	0.197152	-0.392875	0.004104	-0.002061	-0.001260
486	2.479779	0.005000	9.770760	0.981000	1.729729	0.143258	0.197041	-0.393246	0.000493	0.005435	-0.002450
487	2.484779	0.005000	9.810230	0.902290	1.785076	0.143453	0.196761	-0.393050	0.006079	-0.002438	0.003259
488	2.489779	0.005000	9.773484	0.899796	1.744818	0.143675	0.196429	-0.392679	0.003772	0.003410	0.003744
489	2.494779	0.005000	9.714740	0.902520	1.760120	0.143896	0.196097	-0.392308	0.006151	0.005888	-0.009995
490	2.499779	0.005000	9.716028	0.981000	1.781292	0.144117	0.195765	-0.391937	0.003316	-0.009617	0.000507
491	2.504779	0.005000	9.664302	0.913782	1.664795	0.144339	0.195433	-0.391566	-0.010297	0.011963	-0.000058
492	2.509779	0.005000	9.731520	0.877517	1.765800	0.144560	0.195100	-0.391195	0.000646	-0.001507	-0.004875
493	2.514779	0.005000	9.692280	0.863280	1.754460	0.144782	0.194768	-0.390824	0.004706	0.000329	-0.001073
494	2.519779	0.005000	9.633520	0.902520	1.765800	0.145003	0.194436	-0.390454	-0.005552	-0.003809	-0.019801
495	2.524779	0.005000	9.723031	0.902520	1.709581	0.145224	0.194104	-0.390083	0.007501	-0.012398	-0.010017
496	2.529779	0.005000	9.706284	0.981000	1.758798	0.145446	0.193772	-0.389712	0.001470	-0.003939	-0.010129
497	2.534779	0.005000	9.731520	0.941760	1.714817	0.145667	0.193440	-0.389341	0.013554	-0.007335	-0.012455
498	2.539779	0.005000	9.688268	0.902520	1.757775	0.145889	0.193108	-0.388970	0.003376	-0.011349	-0.008215
499	2.544779	0.005000	9.723991	0.865790	1.724050	0.146110	0.192776	-0.388599	0.010519	-0.010690	0.002168
500	2.549779	0.005000	9.695220	0.863280	1.688790	0.146238	0.192100	-0.388472	0.012204	-0.006880	0.003269
501	2.554779	0.005000	9.810000	0.863280	1.687320	0.146127	0.190550	-0.388967	0.006263	-0.005494	-0.003155
502	2.559779	0.005000	9.769272	0.787776	1.879057	0.146016	0.188999	-0.389462	0.003912	-0.008775	0.010011
503	2.564779	0.005000	9.770760	0.854310	1.771780	0.145905	0.187449	-0.389957	0.020498	0.005929	-0.002262
504	2.569779	0.005000	9.801151	0.784800	1.765800	0.145795	0.185898	-0.390451	0.033080	-0.007604	0.008093
505	2.574779	0.005000	9.770760	0.824040	1.693227	0.145684	0.184348	-0.390946	0.014235	-0.002648	0.015718
506	2.579779	0.005000	9.746279	0.855900	1.623599	0.145573	0.182797	-0.391441	0.018779	-0.002108	0.003596
507	2.584779	0.005000	9.670019	0.745560	1.678831	0.145462	0.181247	-0.391935	0.025842	-0.002282	0.009014
508	2.589779	0.005000	9.721528	0.726304	1.668064	0.145352	0.179696	-0.392430	0.018985	0.005417	0.001318
509	2.594779	0.005000	9.703759	0.600079	1.719883	0.145241	0.178146	-0.392925	0.022644	-0.010696	0.013151
510	2.599779	0.005000	9.718705	0.732745	1.870705	0.145130	0.176595	-0.393420	0.017364	-0.005635	0.009346
511	2.604779	0.005000	9.695922	0.716972	1.765800	0.145019	0.175045	-0.393914	0.019563	-0.016778	0.014171
512	2.609779	0.005000	9.676788	0.738325	1.789548	0.144908	0.173494	-0.394409	0.014375	-0.011642	0.012674
513	2.614779	0.005000	9.731520	0.817627	1.731843	0.144798	0.171944	-0.394904	0.003035	-0.014661	0.015224
514	2.619779	0.005000	9.710761	0.821763	1.805040	0.144865	0.172444	-0.394801	0.012412	-0.009008	0.024309
515	2.624779	0.005000	9.731520	0.686351	1.785769	0.144976	0.173441	-0.394554	0.015143	-0.000915	0.010513
516	2.629779	0.005000	9.713751	0.767031	1.822809	0.145087	0.174437	-0.394307	0.025565	-0.011155	0.016297
517	2.634779	0.005000	9.714970	0.784800	1.749250	0.145197	0.175433	-0.394059	0.019708	-0.007497	0.013249
518	2.639779	0.005000	9.746601	0.760641	1.687320	0.145308	0.176429	-0.393812	0.008418	-0.011395	0.011268
519	2.644779	0.005000	9.705885	0.916125	1.738589	0.145419	0.177426	-0.393565	0.010033	-0.010100	0.018729
520	2.649779	0.005000	9.704549	0.902520	1.898221	0.145530	0.178422	-0.393318	0.001038	-0.006272	0.012146
521	2.654779	0.005000	9.674604	0.859392	1.765800	0.145640	0.179418	-0.393071	0.015326	-0.009157	0.015670
522	2.659779	0.005000	9.750079	0.775521	1.705879	0.145751	0.180415	-0.392823	0.013620	0.003739	0.021465
523	2.664779	0.005000	9.786623	0.918104	1.758008	0.145862	0.181411	-0.392576	0.010693	-0.011300	0.013593
524	2.669779	0.005000	9.731520	0.877362	1.713981	0.145972	0.182407	-0.392329	0.003511	-0.011416	0.009994
525	2.674779	0.005000	9.658259	0.790019	1.653299	0.146083	0.183404	-0.392082	0.014258	-0.006057	0.016262
526	2.679779	0.005000	9.696016	0.867016	1.644344	0.146194	0.184400	-0.391835	0.011463	-0.013458	0.019018
527	2.684779	0.005000	9.655305	0.824040	1.696380	0.146340	0.185111	-0.391587	0.017500	0.007527	0.023660
528	2.689779	0.005000	9.652250	0.903310	1.845860	0.146562	0.185221	-0.391340	0.023824	0.003693	0.019796
529	2.694779	0.005000	9.729453	0.903209	1.884209	0.146783	0.185332	-0.391093	0.034497	0.000719	0.016188
530	2.699779	0.005000	9.766414	0.939587	1.767973	0.147005	0.185443	-0.390845	0.028254	0.003831	0.014210
531	2.704779	0.005000	9.692280	0.866502	1.759356	0.147226	0.185553	-0.390598	0.011080	0.000962	0.009165
532	2.709779	0.005000	9.692280	0.824040	1.775219	0.147447	0.185664	-0.390351	0.013970	0.009419	0.005090
533	2.714779	0.005000	9.758367	0.844690	1.831887	0.147669	0.185775	-0.390104	0.025382	-0.009980	0.010983
534	2.719779	0.005000	9.746732	0.855674	1.829068	0.147890	0.185885	-0.389856	0.011590	0.001340	0.009282
535	2.724779	0.005000	9.701359	0.724478	1.684396	0.148112	0.185996	-0.389609	0.032805	-0.002825	0.015215
536	2.729779	0.005000	9.671160	0.706320	1.705440	0.148333	0.186107	-0.389362	0.031124	-0.000933	0.012253
537	2.734779	0.005000	9.731520	0.761377	1.848385	0.148554	0.186217	-0.389114	0.023005	0.002976	0.010711
538	2.739779	0.005000	9.705794	0.706320	1.792827	0.148776	0.186328	-0.388867	0.029646	-0.008759	0.014237
539	2.744779	0.005000	9.716531	0.667080	1.702309	0.148997	0.186439	-0.388620	0.014299	-0.006776	-0.000549
540	2.749779	0.005000	9.724657	0.745560	1.726560	0.149219	0.186549	-0.388373	0.004482	-0.017136	0.003019
541	2.754779	0.005000	9.688392	0.827928	1.708884	0.149161	0.187032	-0.388333	-0.007743	-0.008018	0.015829
542	2.759779	0.005000	9.692280	0.785683	1.647197	0.149050	0.187586	-0.388333	-0.009335	-0.010126	-0.004163
543	2.764779	0.005000	9.710854	0.747651	1.666654	0.148939	0.188140	-0.388333	-0.013369	-0.013928	0.012543
544	2.769779	0.005000	9.670380	0.876059	1.721999	0.148829	0.188693	-0.388333	-0.007381	0.008178	-0.001626
545	2.774779	0.005000	9.699797	0.895003	1.710699	0.148718	0.189247	-0.388333	-0.018021	-0.004056	-0.003478
546	2.779779	0.005000	9.721052	0.898602	1.740946	0.148607	0.189801	-0.388333	-0.014391	-0.001720	-0.008513
547	2.784779	0.005000	9.757854	0.836946	1.805040	0.148496	0.190355	-0.388333	-0.015770	-0.009217	0.002180
548	2.789779	0.005000	9.742957	0.846913	1.770730	0.148385	0.190908	-0.388333	-0.011459	-0.003910	0.007779
549	2.794779	0.005000	9.740505	0.981000	1.589770	0.148275	0.191462	-0.388333	-0.007022	0.002819	-0.015515
550	2.799779	0.005000	9.653040	1.072973	1.687320	0.148164	0.192016	-0.388333	-0.013190	-0.001613	-0.002500
551	2.804779	0.005000	9.582031	0.895049	1.821866	0.148053	0.192570	-0.388333	-0.007153	-0.002342	-0.007484
552	2.809779	0.005000	9.671038	0.896521	1.693319	0.147942	0.193124	-0.388333	-0.007473	0.001011	-0.007632
553	2.814779	0.005000	9.692280	0.916070	1.731077	0.147832	0.193677	-0.388333	0.007660	-0.001356	-0.000574
554	2.819779	0.005000	9.695363	1.014074	1.844280	0.147761	0.194151	-0.388423	0.009074	-0.010399	-0.003090
555	2.824779	0.005000	9.733082	0.863280	1.803478	0.147761	0.194483	-0.388670	0.005105	-0.015402	-0.004325
556	2.829779	0.005000	9.731613	0.824040	1.765707	0.147761	0.194815	-0.388918	0.000263	-0.002395	-0.012876
557	2.834779	0.005000	9.809071	0.977282	1.764871	0.147761	0.195147	-0.389165	0.020717	-0.013230	0.007234
558	2.839779	0.005000	9.733937	0.902520	1.800207	0.147761	0.195480	-0.389412	0.019822	-0.006720	0.001037
559	2.844779	0.005000	9.806081	0.859361	1.879601	0.147761	0.195812	-0.389660	0.031252	-0.011379	-0.011674
560	2.849779	0.005000	9.804593	0.745560	1.771207	0.147761	0.196144	-0.389907	0.024143	-0.011159	-0.000411
561	2.854779	0.005000	9.849240	0.680898	1.772709	0.147761	0.196476	-0.390155	0.023195	-0.008242	-0.018466
562	2.859779	0.005000	9.801702	0.689724	1.796742	0.147761	0.196808	-0.390402	0.021339	-0.018565	0.003393
563	2.864779	0.005000	9.780179	0.657661	1.696739	0.147761	0.197141	-0.390649	0.011653	-0.012365	0.003130
564	2.869779	0.005000	9.753332	0.627840	1.715654	0.147761	0.197473	-0.390897	0.015682	-0.019662	0.007285
565	2.874779	0.005000	9.758351	0.615431	1.753391	0.147761	0.197805	-0.391144	0.002512	-0.013762	-0.000683
566	2.879779	0.005000	9.810000	0.824040	1.802592	0.147761	0.198137	-0.391392	0.000879	-0.016299	0.002666
567	2.884779	0.005000	9.707679	0.744073	2.025081	0.147761	0.198469	-0.391639	0.009297	-0.020613	0.007159
568	2.889779	0.005000	9.686416	0.633704	1.972824	0.147663	0.197918	-0.391557	0.009709	-0.005896	0.007543
569	2.894779	0.005000	9.610892	0.688154	1.799224	0.147552	0.197253	-0.391434	0.005056	-0.014213	0.008628
570	2.899779	0.005000	9.653040	0.706754	1.805474	0.147441	0.196589	-0.391310	-0.012384	-0.001009	0.000139
571	2.904779	0.005000	9.671382	0.745560	1.941102	0.147331	0.195924	-0.391186	-0.011947	-0.003014	-0.005188
572	2.909779	0.005000	9.692280	0.840895	1.788185	0.147220	0.195260	-0.391063	-0.013871	-0.012809	0.006046
573	2.914779	0.005000	9.770760	0.902520	1.811856	0.147109	0.194595	-0.390939	-0.014474	0.000095	0.007712
574	2.919779	0.005000	9.653040	0.849415	1.897385	0.146999	0.193931	-0.390815	-0.010271	-0.007939	0.006282
575	2.924779	0.005000	9.626487	0.902520	1.845458	0.146888	0.193266	-0.390691	-0.019392	-0.001372	0.004092
576	2.929779	0.005000	9.742727	0.835247	1.799421	0.146777	0.192602	-0.390568	-0.023291	-0.008008	-0.002138
577	2.934779	0.005000	9.760907	0.863280	1.942295	0.146666	0.191937	-0.390444	-0.015752	0.008049	0.007423
578	2.939779	0.005000	9.762407	0.793153	1.897700	0.146556	0.191273	-0.390320	0.002054	0.001306	0.002495
579	2.944779	0.005000	9.706005	0.895657	1.876657	0.146445	0.190608	-0.390197	0.008235	-0.002895	0.003988
580	2.949779	0.005000	9.764988	0.773256	1.822356	0.146334	0.189944	-0.390073	-0.004370	-0.009066	0.003533
581	2.954779	0.005000	9.731520	0.858980	1.914159	0.146314	0.189779	-0.390000	0.010259	-0.016767	0.005013
582	2.959779	0.005000	9.653040	0.899703	1.802223	0.146425	0.190333	-0.390000	0.005964	-0.009532	-0.000020
583	2.964779	0.005000	9.694974	0.865974	1.802346	0.146536	0.190886	-0.390000	0.006109	-0.008797	-0.000098
584	2.969779	0.005000	9.731659	0.902659	1.843862	0.146646	0.191440	-0.390000	0.018419	-0.013011	0.002630
585	2.974779	0.005000	9.731520	0.940152	1.845888	0.146757	0.191993	-0.390000	0.011298	-0.007025	-0.005646
586	2.979779	0.005000	9.695357	0.863280	1.880443	0.146868	0.192547	-0.390000	0.027130	-0.007932	0.005503
587	2.984779	0.005000	9.696416	0.850871	1.883520	0.146978	0.193100	-0.390000	0.025679	-0.010607	-0.004374
588	2.989779	0.005000	9.697919	0.868919	1.934038	0.147089	0.193654	-0.390000	0.028381	-0.014945	-0.000921
589	2.994779	0.005000	9.660166	0.909646	1.805040	0.147200	0.194207	-0.390000	0.028655	-0.014071	-0.001179
590	2.999779	0.005000	9.683651	0.871909	1.765800	0.147310	0.194761	-0.390000	0.013388	-0.011242	-0.010275
591	3.004779	0.005000	9.731520	0.853164	1.931652	0.147421	0.195314	-0.390000	0.021332	-0.017122	-0.004278
592	3.009779	0.005000	9.731520	0.902520	1.772473	0.147532	0.195868	-0.390000	0.009258	-0.003106	-0.010449
593	3.014779	0.005000	9.718568	0.824040	1.739512	0.147642	0.196421	-0.390000	0.019432	-0.012400	0.008817
594	3.019779	0.005000	9.628222	0.774404	1.726560	0.147753	0.196975	-0.390000	0.007005	0.006790	-0.005607
595	3.024779	0.005000	9.668655	0.847665	1.758194	0.147556	0.196707	-0.390115	0.009710	-0.000035	-0.011108
596	3.029779	0.005000	9.709398	0.762678	1.738674	0.147334	0.196375	-0.390238	0.009805	-0.009665	-0.005927
597	3.034779	0.005000	9.690251	0.822011	1.765800	0.147113	0.196042	-0.390362	-0.005761	-0.004002	-0.009056
598	3.039779	0.005000	9.732496	0.824040	1.765800	0.146891	0.195710	-0.390486	-0.005969	-0.006366	-0.002124
599	3.044779	0.005000	9.752862	0.863280	1.844280	0.146670	0.195378	-0.390610	-0.000564	-0.002500	-0.008916
600	3.049779	0.005000	9.669461	0.814016	1.837883	0.146448	0.195045	-0.390733	-0.006457	-0.008273	-0.004596
601	3.054779	0.005000	9.677145	0.784800	1.916594	0.146227	0.194713	-0.390857	-0.006207	-0.010399	-0.017195
602	3.059779	0.005000	9.731520	0.929785	1.830647	0.146005	0.194381	-0.390981	-0.007518	-0.022113	-0.020425
603	3.064779	0.005000	9.731520	0.863280	1.765800	0.145784	0.194049	-0.391104	-0.004759	-0.023924	-0.006202
604	3.069779	0.005000	9.748783	0.924497	1.715572	0.145562	0.193716	-0.391228	-0.007498	-0.002257	-0.017341
605	3.074779	0.005000	9.692280	0.981000	1.706335	0.145341	0.193384	-0.391352	0.002645	-0.010685	-0.000440
606	3.079779	0.005000	9.644907	0.910653	1.890228	0.145119	0.193052	-0.391475	0.003257	-0.005640	-0.003305
607	3.084779	0.005000	9.659670	0.791430	1.870259	0.144898	0.192719	-0.391599	0.011102	-0.006308	-0.010733
608	3.089779	0.005000	9.731520	0.941760	1.794754	0.144826	0.192587	-0.391555	0.008617	-0.010314	-0.002491
609	3.094779	0.005000	9.695936	0.906176	1.722904	0.144937	0.192698	-0.391308	0.008244	-0.004065	-0.018426
610	3.099779	0.005000	9.731520	0.860678	1.734365	0.145048	0.192809	-0.391061	0.020188	-0.006561	-0.015704
611	3.104779	0.005000	9.731520	0.864398	1.922760	0.145158	0.192919	-0.390813	0.014905	-0.003910	-0.016738
612	3.109779	0.005000	9.731520	0.824753	1.961644	0.145269	0.193030	-0.390566	0.009378	-0.008104	-0.008827
613	3.114779	0.005000	9.729683	0.788473	1.842443	0.145380	0.193141	-0.390318	0.018232	0.002972	-0.009589
614	3.119779	0.005000	9.734827	0.788107	1.769107	0.145491	0.193252	-0.390071	0.007593	0.001105	-0.006578
615	3.124779	0.005000	9.735889	0.710689	1.700426	0.145601	0.193362	-0.389824	0.017844	-0.007765	-0.015489
616	3.129779	0.005000	9.653040	0.667080	1.805040	0.145712	0.193473	-0.389576	0.006668	-0.007105	-0.022327
617	3.134779	0.005000	9.660398	0.595958	1.773158	0.145823	0.193584	-0.389329	0.005771	-0.021593	-0.012354
618	3.139779	0.005000	9.692280	0.645531	1.796194	0.145934	0.193695	-0.389082	0.007580	-0.007538	-0.009835
619	3.144779	0.005000	9.682057	0.725114	1.747006	0.146045	0.193806	-0.388834	-0.006483	-0.016063	-0.016674
620	3.149779	0.005000	9.770760	0.773429	1.648080	0.146155	0.193916	-0.388587	-0.000471	-0.011018	-0.009477
621	3.154779	0.005000	9.718662	0.798324	1.634556	0.146266	0.194027	-0.388339	-0.013312	-0.013758	-0.013665
622	3.159779	0.005000	9.731520	0.720681	1.651922	0.146053	0.194569	-0.388213	-0.007962	-0.015767	0.003150
623	3.164779	0.005000	9.653040	0.753475	1.758053	0.145832	0.195123	-0.388089	-0.005450	-0.011432	-0.005926
624	3.169779	0.005000	9.658016	0.684212	1.738716	0.145610	0.195676	-0.387965	0.000850	-0.005882	-0.006615
625	3.174779	0.005000	9.770760	0.784800	1.784410	0.145389	0.196230	-0.387842	0.003732	-0.002457	0.000433
626	3.179779	0.005000	9.731520	0.785280	1.786140	0.145168	0.196783	-0.387718	0.003711	-0.009836	-0.003665
627	3.184779	0.005000	9.767305	0.613402	1.822933	0.144946	0.197337	-0.387595	0.002812	-0.001356	0.001602
628	3.189779	0.005000	9.685820	0.667080	1.821430	0.144725	0.197890	-0.387471	0.007268	-0.002659	-0.000493
629	3.194779	0.005000	9.716332	0.754425	1.853145	0.144504	0.198444	-0.387348	0.011744	-0.018465	0.005149
630	3.199779	0.005000	9.719705	0.563073	1.738375	0.144282	0.198998	-0.387224	-0.008839	-0.004887	0.006209
631	3.204779	0.005000	9.743763	0.745560	1.689830	0.144061	0.199551	-0.387101	0.003284	-0.013572	0.011032
632	3.209779	0.005000	9.692280	0.780478	1.726560	0.143839	0.200105	-0.386977	0.000813	-0.016640	0.012814
633	3.214779	0.005000	9.740923	0.706320	1.657483	0.143618	0.200658	-0.386853	-0.009329	-0.009500	0.003583
634	3.219779	0.005000	9.668578	0.706320	1.726297	0.143397	0.201212	-0.386730	0.011681	-0.008720	0.016302
635	3.224779	0.005000	9.659453	0.784800	1.654493	0.143393	0.201330	-0.386789	-0.007687	-0.008315	0.009819
636	3.229779	0.005000	9.736846	0.863280	1.726560	0.143614	0.200997	-0.387036	-0.000728	-0.003760	0.010562
637	3.234779	0.005000	9.731520	0.906363	1.754271	0.143836	0.200665	-0.387283	-0.000664	-0.007181	0.011824
638	3.239779	0.005000	9.726718	0.902520	1.616044	0.144057	0.200333	-0.387531	-0.002388	-0.000121	0.004511
639	3.244779	0.005000	9.614714	0.899778	1.725646	0.144279	0.200001	-0.387778	0.000102	-0.010910	0.006537
640	3.249779	0.005000	9.691698	0.862117	1.725978	0.144500	0.199668	-0.388025	-0.009798	0.004341	0.015865
641	3.254779	0.005000	9.618633	0.938538	1.724949	0.144722	0.199336	-0.388273	0.012586	-0.007447	0.004837
642	3.259779	0.005000	9.764563	0.863280	1.690418	0.144943	0.199004	-0.388520	0.001822	0.002455	0.005443
643	3.264779	0.005000	9.731520	0.902520	1.805040	0.145165	0.198671	-0.388767	0.009542	-0.000920	0.003846
644	3.269779	0.005000	9.698368	0.981000	1.771888	0.145386	0.198339	-0.389014	0.021960	-0.006233	0.011502
645	3.274779	0.005000	9.699779	1.012741	1.734059	0.145608	0.198007	-0.389262	0.011930	-0.010053	0.009536
646	3.279779	0.005000	9.761788	0.902520	1.826336	0.145829	0.197675	-0.389509	0.010525	-0.021508	0.006287
647	3.284779	0.005000	9.723605	0.873722	1.873078	0.146051	0.197342	-0.389756	0.008137	-0.015036	-0.004006
648	3.289779	0.005000	9.798412	0.985477	1.765800	0.146269	0.196991	-0.390008	0.008498	-0.014051	0.008715
649	3.294779	0.005000	9.823059	0.915610	1.896579	0.146269	0.195441	-0.390502	0.005687	-0.003110	0.017008
650	3.299779	0.005000	9.770760	0.843110	1.780378	0.146269	0.193890	-0.390997	0.002133	-0.007169	0.007571
651	3.304779	0.005000	9.793920	0.886440	1.696321	0.146269	0.192340	-0.391492	0.014406	-0.012370	0.013591
652	3.309779	0.005000	9.792638	0.941760	1.709198	0.146269	0.190789	-0.391986	0.019992	-0.001555	0.007885
653	3.314779	0.005000	9.750359	0.940199	1.666919	0.146269	0.189239	-0.392481	0.036319	-0.011596	0.009450
654	3.319779	0.005000	9.653040	0.825417	1.627771	0.146269	0.187688	-0.392976	0.007969	-0.003537	0.005882
655	3.324779	0.005000	9.653040	0.841700	1.787380	0.146269	0.186138	-0.393470	0.009956	-0.005022	-0.005478
656	3.329779	0.005000	9.669213	0.856386	1.798146	0.146269	0.184587	-0.393965	0.005294	-0.010506	0.003573
657	3.334779	0.005000	9.731520	0.927090	1.765800	0.146269	0.183037	-0.394460	0.004334	-0.003478	-0.007584
658	3.339779	0.005000	9.639857	0.889027	1.687320	0.146269	0.181486	-0.394955	0.006421	-0.007369	-0.003971
659	3.344779	0.005000	9.637161	0.859082	1.844280	0.146269	0.179935	-0.395449	0.005671	0.002846	-0.018598
660	3.349779	0.005000	9.742053	0.834573	1.851920	0.146269	0.178385	-0.395944	0.012253	-0.001016	-0.007716
661	3.354779	0.005000	9.731520	0.775736	1.774864	0.146269	0.176834	-0.396439	-0.011728	-0.002454	0.004876
662	3.359779	0.005000	9.707462	0.808858	1.710093	0.145971	0.175880	-0.396667	-0.019107	-0.013973	0.003928
663	3.364779	0.005000	9.731520	0.790981	1.759619	0.145417	0.175437	-0.396667	-0.004285	-0.010695	0.009714
664	3.369779	0.005000	9.726826	0.824040	1.795652	0.144863	0.174994	-0.396667	-0.021627	0.006634	-0.003301
665	3.374779	0.005000	9.728329	0.824040	1.716986	0.144309	0.174551	-0.396667	-0.017908	-0.003665	-0.000263
666	3.379779	0.005000	9.653040	0.863280	1.693750	0.143756	0.174108	-0.396667	-0.013455	-0.000194	0.013382
667	3.384779	0.005000	9.772107	0.863280	1.843607	0.143202	0.173665	-0.396667	-0.011748	-0.007705	0.004810
668	3.389779	0.005000	9.810821	0.901699	1.843459	0.142648	0.173222	-0.396667	-0.010252	-0.007794	0.015008
669	3.394779	0.005000	9.807692	0.860972	1.807348	0.142094	0.172779	-0.396667	-0.015114	0.009029	-0.008784
670	3.399779	0.005000	9.766965	0.934169	1.777186	0.141541	0.172336	-0.396667	-0.009824	-0.005406	-0.001975
671	3.404779	0.005000	9.741988	0.873748	1.917526	0.140987	0.171893	-0.396667	0.003908	0.007491	-0.011836
672	3.409779	0.005000	9.744932	0.935054	1.864398	0.140433	0.171451	-0.396667	0.007785	-0.005946	-0.002278
673	3.414779	0.005000	9.708656	0.964624	1.757612	0.139879	0.171008	-0.396667	0.013750	-0.007264	0.000132
674	3.419779	0.005000	9.790679	0.981000	1.912502	0.139325	0.170565	-0.396667	0.021019	-0.003378	-0.009316
675	3.424779	0.005000	9.709925	0.920165	1.691270	0.138833	0.170252	-0.396621	0.020979	-0.010638	0.006981
676	3.429779	0.005000	9.704580	0.890220	1.780439	0.139276	0.171912	-0.395879	0.011571	0.003302	0.000676
677	3.434779	0.005000	9.666827	0.916307	1.765800	0.139719	0.173573	-0.395138	0.017960	-0.013788	0.006373
678	3.439779	0.005000	9.722829	0.878555	1.765800	0.140162	0.175233	-0.394396	0.014982	-0.009747	0.010316
679	3.444779	0.005000	9.754186	0.925186	1.765800	0.140605	0.176894	-0.393654	0.019371	-0.012477	0.014107
680	3.449779	0.005000	9.770760	0.899381	1.747749	0.141047	0.178555	-0.392913	0.031483	-0.019679	0.020398
681	3.454779	0.005000	9.672327	0.843327	1.864233	0.141490	0.180215	-0.392171	0.027849	-0.012601	0.008973
682	3.459779	0.005000	9.650701	0.805590	1.862730	0.141933	0.181876	-0.391429	0.038780	-0.010606	0.008499
683	3.464779	0.005000	9.630763	0.868594	1.822003	0.142376	0.183536	-0.390687	0.022910	-0.005446	0.013449
684	3.469779	0.005000	9.692280	0.824040	1.789286	0.142819	0.185197	-0.389946	0.032551	-0.001557	0.011230
685	3.474779	0.005000	9.702962	0.849001	1.858559	0.143261	0.186857	-0.389204	0.050705	-0.011262	0.011987
686	3.479779	0.005000	9.692280	0.811241	1.909119	0.143704	0.188518	-0.388462	0.036623	-0.003937	0.002002
687	3.484779	0.005000	9.759296	0.812576	1.872056	0.144147	0.190178	-0.387721	0.033982	-0.006335	0.012620
688	3.489779	0.005000	9.653040	0.843358	1.952039	0.144590	0.191839	-0.386979	0.038444	-0.003510	0.007694
689	3.494779	0.005000	9.739994	0.885572	1.928105	0.144712	0.192601	-0.386739	0.032352	-0.015531	0.013189
690	3.499779	0.005000	9.770760	0.855919	1.844280	0.144601	0.192712	-0.386862	0.049209	-0.005433	0.012320
691	3.504779	0.005000	9.831603	0.829919	1.726560	0.144490	0.192823	-0.386986	0.042690	0.001876	0.008442
692	3.509779	0.005000	9.692280	0.671489	1.739788	0.144380	0.192934	-0.387109	0.039256	-0.006547	0.011915
693	3.514779	0.005000	9.734494	0.745560	1.759851	0.144269	0.193044	-0.387233	0.049548	-0.008495	-0.000973
694	3.519779	0.005000	9.769288	0.783328	1.614727	0.144158	0.193155	-0.387357	0.042134	-0.012082	0.007623
695	3.524779	0.005000	9.653071	0.706335	1.805025	0.144048	0.193266	-0.387480	0.038589	-0.005057	0.012956
696	3.529779	0.005000	9.769260	0.784800	1.802040	0.143937	0.193377	-0.387604	0.049899	-0.008878	0.012699
697	3.534779	0.005000	9.844159	0.782259	1.839199	0.143826	0.193487	-0.387728	0.047973	-0.002600	0.012509
698	3.539779	0.005000	9.700336	0.741532	1.792957	0.143715	0.193598	-0.387851	0.038629	-0.005464	0.006047
699	3.544779	0.005000	9.770760	0.700803	1.827729	0.143605	0.193709	-0.387975	0.052259	-0.013011	0.016891
700	3.549779	0.005000	9.763827	0.674013	1.876587	0.143494	0.193820	-0.388098	0.037013	0.000045	0.012173
701	3.554779	0.005000	9.739925	0.824040	1.852685	0.143383	0.193931	-0.388222	0.037576	-0.006699	0.013354
702	3.559779	0.005000	9.839353	0.765333	1.687320	0.143318	0.193882	-0.388422	0.026670	-0.005948	0.009758
703	3.564779	0.005000	9.776961	0.773440	1.754440	0.143650	0.192443	-0.389287	0.032540	-0.010144	0.000449
704	3.569779	0.005000	9.744037	0.850763	1.699837	0.143982	0.191004	-0.390153	0.031951	-0.004027	0.014778
705	3.574779	0.005000	9.731520	0.709139	1.698520	0.144314	0.189565	-0.391018	0.016750	-0.001440	-0.002363
706	3.579779	0.005000	9.731520	0.690813	1.726560	0.144646	0.188126	-0.391883	0.017701	-0.013231	0.010407
707	3.584779	0.005000	9.753759	0.728559	1.777563	0.144978	0.186686	-0.392749	0.011676	-0.012625	0.000680
708	3.589779	0.005000	9.770760	0.761811	1.747303	0.145310	0.185247	-0.393614	0.007807	-0.011782	0.000307
709	3.594779	0.005000	9.712030	0.745560	1.667830	0.145643	0.183808	-0.394479	-0.008667	-0.020244	0.012866
710	3.599779	0.005000	9.710293	0.745560	1.690534	0.145975	0.182369	-0.395345	-0.004501	-0.025296	0.009070
711	3.604779	0.005000	9.714789	0.723051	1.743291	0.146307	0.180930	-0.396210	-0.011065	-0.027949	0.012622
712	3.609779	0.005000	9.755516	0.778309	1.741804	0.146639	0.179491	-0.397075	-0.016952	-0.005803	0.006719
713	3.614779	0.005000	9.757019	0.798541	1.765800	0.146971	0.178052	-0.397941	-0.010477	-0.012267	0.013556
714	3.619779	0.005000	9.706381	0.863280	1.883520	0.147303	0.176613	-0.398806	-0.005438	-0.000625	0.011370
715	3.624779	0.005000	9.681180	0.924720	1.776900	0.147635	0.175174	-0.399671	-0.009174	-0.006382	0.002127
716	3.629779	0.005000	9.633787	0.941760	1.756174	0.147692	0.175520	-0.399463	-0.023119	-0.002962	0.004951
717	3.634779	0.005000	9.574560	0.846797	1.813281	0.147582	0.176960	-0.398597	-0.005385	0.007734	0.008742
718	3.639779	0.005000	9.542074	0.810531	1.929514	0.147471	0.178399	-0.397732	-0.006691	-0.000644	0.015748
719	3.644779	0.005000	9.658292	0.873783	1.839028	0.147360	0.179839	-0.396866	-0.008759	-0.002221	0.004722
720	3.649779	0.005000	9.770760	0.859516	1.765800	0.147249	0.181279	-0.396000	-0.002807	-0.003603	0.003371
721	3.654779	0.005000	9.807291	0.829458	1.922760	0.147139	0.182719	-0.395134	-0.007769	0.004051	0.008536
722	3.659779	0.005000	9.772000	0.902520	1.844280	0.147028	0.184158	-0.394269	-0.022493	0.008428	-0.000383
723	3.664779	0.005000	9.810000	0.824536	1.922264	0.146917	0.185598	-0.393403	-0.009835	-0.002121	0.009096
724	3.669779	0.005000	9.654755	0.977571	1.921045	0.146807	0.187038	-0.392537	-0.013459	-0.000849	-0.005562
725	3.674779	0.005000	9.658555	0.944517	1.880763	0.146696	0.188478	-0.391672	-0.008553	-0.003910	0.013310
726	3.679779	0.005000	9.653040	0.867950	1.765800	0.146585	0.189917	-0.390806	0.009862	-0.006125	0.011682
727	3.684779	0.005000	9.686533	0.857533	1.822282	0.146475	0.191357	-0.389940	0.004703	-0.006331	0.006805
728	3.689779	0.005000	9.699530	0.966500	1.797790	0.146364	0.192797	-0.389074	0.013595	-0.018859	0.001194
729	3.694779	0.005000	9.753490	0.893885	1.774435	0.146221	0.194109	-0.388351	0.021476	-0.012396	0.005200
730	3.699779	0.005000	9.770760	0.941760	1.746769	0.145889	0.194663	-0.388474	0.015799	-0.025667	-0.002264
731	3.704779	0.005000	9.754014	0.863280	1.642581	0.145557	0.195217	-0.388598	0.015182	-0.010519	-0.002309
732	3.709779	0.005000	9.652049	0.824040	1.806031	0.145225	0.195770	-0.388722	0.023892	-0.018127	0.008254
733	3.714779	0.005000	9.781527	0.938290	1.780037	0.144893	0.196324	-0.388845	0.028880	-0.011333	0.015056
734	3.719779	0.005000	9.864979	0.981000	1.820779	0.144561	0.196877	-0.388969	0.029967	-0.008628	0.001075
735	3.724779	0.005000	9.787785	0.880305	1.765800	0.144229	0.197431	-0.389093	0.027213	-0.015249	0.009989
736	3.729779	0.005000	9.690046	0.826274	1.823543	0.143896	0.197984	-0.389216	0.027639	-0.014836	0.004657
737	3.734779	0.005000	9.691560	0.824040	1.765080	0.143564	0.198538	-0.389340	0.028920	-0.012704	0.001473
738	3.739779	0.005000	9.692280	0.830515	1.744561	0.143232	0.199091	-0.389464	0.019098	-0.012632	0.006748
739	3.744779	0.005000	9.681978	0.840554	1.844280	0.142900	0.199645	-0.389587	0.019622	-0.004023	0.002471
740	3.749779	0.005000	9.746824	0.863280	1.868216	0.142568	0.200198	-0.389711	0.025284	-0.006039	0.008244
741	3.754779	0.005000	9.747580	0.800860	1.869695	0.142236	0.200752	-0.389834	0.021680	-0.004771	-0.000441
742	3.759779	0.005000	9.745757	0.904255	1.935262	0.141904	0.201305	-0.389958	0.023689	-0.018521	0.006582
743	3.764779	0.005000	9.685651	0.813170	1.855150	0.141937	0.201347	-0.389837	0.018086	-0.009530	0.013666
744	3.769779	0.005000	9.790976	0.755072	1.884713	0.142159	0.201125	-0.389589	0.022307	-0.011204	0.006511
745	3.774779	0.005000	9.700305	0.792825	1.726560	0.142380	0.200903	-0.389342	0.027311	-0.008930	0.007434
746	3.779779	0.005000	9.653040	0.895998	1.713516	0.142602	0.200682	-0.389095	0.014976	-0.011749	0.002608
747	3.784779	0.005000	9.731520	0.857845	1.692755	0.142823	0.200460	-0.388847	0.029430	-0.008912	0.010710
748	3.789779	0.005000	9.727556	0.788764	1.726560	0.143045	0.200239	-0.388600	0.018777	-0.000996	0.008485
749	3.794779	0.005000	9.770760	0.824040	1.795002	0.143266	0.200017	-0.388353	0.030877	-0.012494	0.021919
750	3.799779	0.005000	9.807955	0.863280	1.612930	0.143488	0.199796	-0.388105	0.039795	-0.008862	0.012364
751	3.804779	0.005000	9.731520	0.824514	1.727034	0.143709	0.199574	-0.387858	0.026329	-0.010833	-0.000823
752	3.809779	0.005000	9.692280	0.781824	1.803552	0.143931	0.199352	-0.387611	0.029708	-0.007771	0.003005
753	3.814779	0.005000	9.692280	0.703330	1.729550	0.144152	0.199131	-0.387363	0.040714	-0.002805	0.000554
754	3.819779	0.005000	9.766283	0.671557	1.657034	0.144374	0.198909	-0.387116	0.042890	-0.021946	0.006543
755	3.824779	0.005000	9.743479	0.661100	1.871561	0.144595	0.198688	-0.386869	0.052847	-0.006116	0.009800
756	3.829779	0.005000	9.755826	0.840879	1.694787	0.144776	0.198527	-0.386690	0.048151	-0.017278	0.004744
757	3.834779	0.005000	9.779621	0.645562	1.805040	0.144776	0.198638	-0.386813	0.031722	-0.006496	0.009929
758	3.839779	0.005000	9.663374	0.648509	1.852517	0.144776	0.198749	-0.386937	0.037143	-0.013011	0.008858
759	3.844779	0.005000	9.680801	0.565642	1.816519	0.144776	0.198860	-0.387060	0.042403	-0.010763	0.015439
760	3.849779	0.005000	9.692621	0.693354	1.909794	0.144776	0.198970	-0.387184	0.027835	-0.016606	0.004995
761	3.854779	0.005000	9.663342	0.667080	1.922760	0.144776	0.199081	-0.387308	0.033013	-0.015209	0.013873
762	3.859779	0.005000	9.684579	0.596301	1.805040	0.144776	0.199192	-0.387431	0.022153	-0.003944	0.011034
763	3.864779	0.005000	9.731520	0.649832	1.905512	0.144776	0.199303	-0.387555	0.017698	-0.005981	0.004615
764	3.869779	0.005000	9.731520	0.687596	1.864796	0.144776	0.199413	-0.387678	0.024356	-0.008742	0.023518
765	3.874779	0.005000	9.731520	0.628537	1.765800	0.144776	0.199524	-0.387802	0.010498	-0.005647	0.019587
766	3.879779	0.005000	9.749289	0.549360	1.844280	0.144776	0.199635	-0.387925	0.004847	-0.015909	0.012748
767	3.884779	0.005000	9.754478	0.611558	1.867238	0.144776	0.199745	-0.388049	-0.000811	-0.003367	0.012530
768	3.889779	0.005000	9.716439	0.555362	1.829199	0.144776	0.199856	-0.388173	0.004230	-0.013839	0.011888
769	3.894779	0.005000	9.705885	0.721502	1.752195	0.144776	0.199967	-0.388296	-0.005633	-0.014386	0.025252
770	3.899779	0.005000	9.770760	0.718446	1.805040	0.144698	0.199845	-0.388159	-0.010292	-0.023247	0.030925
771	3.904779	0.005000	9.703062	0.767124	1.815822	0.144588	0.199623	-0.387912	-0.011331	-0.010975	0.024572
772	3.909779	0.005000	9.752201	0.842599	1.726560	0.144477	0.199402	-0.387665	-0.021571	-0.011301	0.015942
773	3.914779	0.005000	9.684488	0.902520	1.703183	0.144366	0.199180	-0.387418	-0.029660	-0.004238	0.021920
774	3.919779	0.005000	9.632669	0.863280	1.660659	0.144255	0.198959	-0.387170	-0.022897	-0.003212	0.022520
775	3.924779	0.005000	9.697499	0.926104	1.784165	0.144145	0.198737	-0.386923	-0.016849	-0.020169	0.006754
776	3.929779	0.005000	9.692280	0.831511	1.801304	0.144034	0.198516	-0.386676	-0.015906	-0.011512	0.009374
777	3.934779	0.005000	9.731520	0.897935	1.763507	0.143923	0.198294	-0.386428	-0.027465	-0.003060	0.014360
778	3.939779	0.005000	9.730730	0.824040	1.725770	0.143813	0.198073	-0.386181	-0.032782	-0.017767	0.013263
779	3.944779	0.005000	9.807933	0.901142	1.725871	0.143702	0.197851	-0.385934	-0.020579	-0.010385	-0.000551
780	3.949779	0.005000	9.775106	1.092200	1.839934	0.143591	0.197630	-0.385686	-0.016050	-0.019017	0.000395
781	3.954779	0.005000	9.653040	0.944982	1.736227	0.143481	0.197408	-0.385439	-0.009566	-0.016617	0.013823
782	3.959779	0.005000	9.692280	0.981000	1.648080	0.143370	0.197187	-0.385192	-0.012768	-0.013424	0.005391
783	3.964779	0.005000	9.725323	1.026437	1.798843	0.143284	0.197065	-0.385056	-0.002979	-0.018933	0.009749
784	3.969779	0.005000	9.770760	0.949459	1.734259	0.143284	0.197286	-0.385303	-0.010061	-0.002524	-0.000406
785	3.974779	0.005000	9.692280	0.990079	1.795961	0.143284	0.197508	-0.385550	0.003274	-0.013293	-0.005046
786	3.979779	0.005000	9.702840	0.949320	1.765800	0.143284	0.197729	-0.385797	0.010470	-0.008528	0.006166
787	3.984779	0.005000	9.653040	0.992712	1.749983	0.143284	0.197950	-0.386044	0.003298	0.000978	-0.002751
788	3.989779	0.005000	9.666239	1.020240	1.805396	0.143284	0.198172	-0.386292	0.006818	-0.013031	0.006370
789	3.994779	0.005000	9.706981	0.931923	1.765800	0.143284	0.198393	-0.386539	0.033141	-0.007282	0.000671
790	3.999779	0.005000	9.715331	0.918709	1.772663	0.143284	0.198615	-0.386786	0.022122	-0.009599	0.007447
791	4.004779	0.005000	9.714051	0.989604	1.722258	0.143284	0.198836	-0.387033	0.016780	-0.014195	0.007715
792	4.009779	0.005000	9.671738	0.960458	1.726560	0.143284	0.199057	-0.387280	0.042444	-0.007407	0.009659
793	4.014779	0.005000	9.653040	0.860956	1.646918	0.143284	0.199279	-0.387528	0.022280	-0.000949	0.001340
794	4.019779	0.005000	9.666456	0.849864	1.744112	0.143284	0.199500	-0.387775	0.014243	0.004693	-0.012344
795	4.024779	0.005000	9.692280	0.768751	1.758658	0.143284	0.199722	-0.388022	0.018134	-0.010996	0.001753
796	4.029779	0.005000	9.741636	0.750006	1.761354	0.143284	0.199943	-0.388269	0.017824	-0.005695	-0.001024
797	4.034779	0.005000	9.770760	0.706320	1.700441	0.143448	0.199671	-0.388333	0.017200	-0.009774	0.006039
798	4.039779	0.005000	9.731520	0.678987	1.726560	0.143670	0.199228	-0.388333	0.023013	-0.006604	0.010721
799	4.044779	0.005000	9.731520	0.755986	1.752909	0.143891	0.198785	-0.388333	0.010412	-0.014451	-0.002785
800	4.049779	0.005000	9.722567	0.766894	1.792659	0.144113	0.198342	-0.388333	0.020784	-0.005893	0.013792
801	4.054779	0.005000	9.723960	0.792360	1.836720	0.144334	0.197899	-0.388333	0.016100	-0.009406	0.008309
802	4.059779	0.005000	9.737593	0.836185	1.786822	0.144556	0.197456	-0.388333	0.041516	-0.018534	0.023751
803	4.064779	0.005000	9.740660	0.833180	1.721990	0.144777	0.197013	-0.388333	0.037423	-0.001853	0.016956
804	4.069779	0.005000	9.842228	0.820534	1.730066	0.144999	0.196570	-0.388333	0.045662	-0.013308	0.014979
805	4.074779	0.005000	9.731520	0.710393	1.722487	0.145220	0.196127	-0.388333	0.029859	-0.008251	0.022704
806	4.079779	0.005000	9.654173	0.783101	1.766366	0.145442	0.195684	-0.388333	0.014588	0.001305	0.009273
807	4.084779	0.005000	9.731520	0.743701	1.766729	0.145663	0.195241	-0.388333	0.033237	-0.004464	0.012395
808	4.089779	0.005000	9.768343	0.784800	1.687320	0.145885	0.194798	-0.388333	0.031460	-0.011011	0.009472
809	4.094779	0.005000	9.912043	0.745560	1.765800	0.146106	0.194355	-0.388333	0.038273	-0.005511	0.013712
810	4.099779	0.005000	9.826030	0.863280	1.838937	0.146328	0.193559	-0.388464	0.043479	-0.000932	0.021377
811	4.104779	0.005000	9.777586	0.798451	1.661731	0.146549	0.191788	-0.388959	0.047262	-0.010756	0.021022
812	4.109779	0.005000	9.723222	0.956106	1.583946	0.146771	0.190017	-0.389453	0.036612	-0.000518	0.014077
813	4.114779	0.005000	9.741288	0.892584	1.677384	0.146992	0.188245	-0.389948	0.044348	-0.001312	0.015700
814	4.119779	0.005000	9.748948	0.824040	1.711270	0.147213	0.186474	-0.390442	0.054815	-0.008163	0.017577
815	4.124779	0.005000	9.743929	0.731137	1.648080	0.147435	0.184703	-0.390937	0.044437	0.002619	0.020833
816	4.129779	0.005000	9.613800	0.759456	1.738008	0.147656	0.182932	-0.391431	0.046823	-0.003878	0.013935
817	4.134779	0.005000	9.653040	0.745560	1.796597	0.147878	0.181160	-0.391926	0.039699	-0.011559	0.006353
818	4.139779	0.005000	9.669728	0.768112	1.838416	0.148099	0.179389	-0.392420	0.033498	-0.002441	0.003734
819	4.144779	0.005000	9.710446	0.802966	1.886428	0.148320	0.177618	-0.392915	0.045253	-0.005540	0.011462
820	4.149779	0.005000	9.672009	0.725723	1.765800	0.148542	0.175847	-0.393409	0.047835	0.000734	0.016143
821	4.154779	0.005000	9.653040	0.685207	1.726560	0.148763	0.174075	-0.393904	0.049431	-0.000179	0.012474
822	4.159779	0.005000	9.669895	0.694996	1.704175	0.148985	0.172304	-0.394398	0.041236	0.006204	0.008431
823	4.164779	0.005000	9.716168	0.643192	1.695856	0.149206	0.170533	-0.394893	0.029451	-0.002112	0.009163
824	4.169779	0.005000	9.756895	0.759425	1.712695	0.148994	0.171189	-0.394903	0.027200	-0.010463	0.009065
825	4.174779	0.005000	9.718833	0.615153	1.751934	0.148662	0.172518	-0.394780	0.018742	0.001561	0.002721
826	4.179779	0.005000	9.680940	0.706320	1.844280	0.148330	0.173846	-0.394656	0.038384	-0.008777	-0.003298
827	4.184779	0.005000	9.692280	0.676933	1.844110	0.147997	0.175175	-0.394532	0.008618	0.001712	0.007223
828	4.189779	0.005000	9.731520	0.737207	1.726560	0.147665	0.176503	-0.394409	0.014220	-0.001222	0.015099
829	4.194779	0.005000	9.737918	0.745560	1.772198	0.147333	0.177832	-0.394285	0.014960	0.000948	0.003360
830	4.199779	0.005000	9.810000	0.701009	1.854901	0.147001	0.179160	-0.394161	0.006507	-0.002165	-0.005551
831	4.204779	0.005000	9.770760	0.694701	1.801167	0.146669	0.180489	-0.394038	0.019087	-0.013915	-0.003385
832	4.209779	0.005000	9.768374	0.593371	1.763414	0.146337	0.181817	-0.393914	-0.002257	-0.011844	0.003773
833	4.214779	0.005000	9.769877	0.627840	1.730092	0.146005	0.183146	-0.393790	-0.002426	-0.013744	-0.000742
834	4.219779	0.005000	9.653319	0.706041	1.883520	0.145673	0.184474	-0.393667	0.002739	-0.013829	0.012228
835	4.224779	0.005000	9.697160	0.634346	1.881893	0.145340	0.185802	-0.393543	0.001213	0.000507	-0.003457
836	4.229779	0.005000	9.656155	0.700090	1.886635	0.145008	0.187131	-0.393419	-0.006950	-0.010306	-0.000689
837	4.234779	0.005000	9.687719	0.775679	1.779482	0.144809	0.188027	-0.393296	0.001208	0.007512	-0.003904
838	4.239779	0.005000	9.725488	0.818008	1.720528	0.144920	0.187916	-0.393172	0.001879	-0.003240	0.010373
839	4.244779	0.005000	9.770760	0.721349	1.797526	0.145031	0.187805	-0.393049	0.000665	-0.007046	0.010795
840	4.249779	0.005000	9.801371	0.706320	1.779154	0.145142	0.187694	-0.392925	0.000754	-0.009176	0.007703
841	4.254779	0.005000	9.663156	0.803808	1.825272	0.145252	0.187584	-0.392801	0.001978	-0.013559	0.013248
842	4.259779	0.005000	9.641421	0.792035	1.887904	0.145363	0.187473	-0.392678	-0.016065	0.004935	0.011921
843	4.264779	0.005000	9.679328	0.627840	1.830945	0.145474	0.187362	-0.392554	0.000280	-0.011192	0.013024
844	4.269779	0.005000	9.681884	0.642262	1.897942	0.145585	0.187251	-0.392430	0.010921	0.001231	0.012180
845	4.274779	0.005000	9.613800	0.745560	1.797602	0.145696	0.187140	-0.392307	0.011365	-0.013520	0.006972
846	4.279779	0.005000	9.714402	0.811926	1.787922	0.145806	0.187030	-0.392183	0.006381	-0.017826	0.009912
847	4.284779	0.005000	9.731520	0.805185	1.803510	0.145917	0.186919	-0.392060	0.004914	-0.006692	0.006914
848	4.289779	0.005000	9.751628	0.706320	1.843304	0.146028	0.186808	-0.391936	0.018244	-0.009772	0.010075
849	4.294779	0.005000	9.753115	0.745560	1.840330	0.146139	0.186697	-0.391812	0.005970	-0.001493	0.000869
850	4.299779	0.005000	9.731520	0.761702	1.874334	0.146250	0.186586	-0.391689	0.017144	-0.016651	0.014972
851	4.304779	0.005000	9.692280	0.706320	1.908105	0.146178	0.187206	-0.391667	0.018173	-0.012347	0.010361
852	4.309779	0.005000	9.757287	0.771327	1.818513	0.146067	0.187981	-0.391667	0.014039	-0.008695	0.006263
853	4.314779	0.005000	9.692280	0.851281	1.871521	0.145956	0.188756	-0.391667	0.014331	-0.015753	0.030070
854	4.319779	0.005000	9.770760	0.863280	1.784004	0.145845	0.189532	-0.391667	0.017050	-0.009513	0.000700
855	4.324779	0.005000	9.791689	0.773026	1.795885	0.145735	0.190307	-0.391667	0.010511	-0.020263	0.007111
856	4.329779	0.005000	9.778413	0.698667	1.711254	0.145624	0.191082	-0.391667	0.014705	-0.010537	0.010974
857	4.334779	0.005000	9.776926	0.745560	1.693486	0.145513	0.191857	-0.391667	0.016410	-0.014621	0.010099
858	4.339779	0.005000	9.701610	0.867945	1.809705	0.145402	0.192633	-0.391667	0.022811	-0.003874	0.022893
859	4.344779	0.005000	9.845628	0.824040	1.794205	0.145291	0.193408	-0.391667	0.018994	-0.010085	0.006085
860	4.349779	0.005000	9.810000	0.828347	1.730867	0.145181	0.194183	-0.391667	0.006360	-0.022730	0.013557
861	4.354779	0.005000	9.769428	0.861948	1.767132	0.145070	0.194959	-0.391667	0.014589	-0.002339	0.011395
862	4.359779	0.005000	9.692280	0.707973	1.844280	0.144959	0.195734	-0.391667	0.011255	-0.006789	0.010685
863	4.364779	0.005000	9.808141	0.782941	1.765800	0.144848	0.196509	-0.391667	0.007574	-0.002489	0.011721
864	4.369779	0.005000	9.656820	0.902520	1.773360	0.144891	0.197169	-0.391581	0.017339	-0.012256	0.007043
865	4.374779	0.005000	9.618649	0.868129	1.692169	0.145224	0.197612	-0.391334	0.015815	-0.016749	0.016802
866	4.379779	0.005000	9.613800	0.836712	1.726560	0.145556	0.198054	-0.391087	0.007844	-0.000175	-0.010124
867	4.384779	0.005000	9.621532	0.792532	1.687320	0.145888	0.198497	-0.390839	0.020249	-0.020535	0.002524
868	4.389779	0.005000	9.692280	0.805614	1.648080	0.146220	0.198940	-0.390592	0.019048	-0.005393	0.001631
869	4.394779	0.005000	9.692280	0.795487	1.737247	0.146552	0.199383	-0.390345	0.009537	-0.014137	-0.002106
870	4.399779	0.005000	9.704116	0.772964	1.726560	0.146884	0.199826	-0.390097	0.008259	-0.006339	0.013347
871	4.404779	0.005000	9.692280	0.758898	1.713222	0.147216	0.200268	-0.389850	0.004897	-0.001782	0.007047
872	4.409779	0.005000	9.770760	0.784800	1.736149	0.147548	0.200711	-0.389603	0.021532	-0.002877	0.001819
873	4.414779	0.005000	9.715192	0.801128	1.726560	0.147881	0.201154	-0.389356	0.010052	-0.009662	0.004801
874	4.419779	0.005000	9.792400	0.806440	1.826680	0.148213	0.201597	-0.389108	0.026511	-0.007103	-0.001008
875	4.424779	0.005000	9.789836	0.822953	1.783789	0.148545	0.202040	-0.388861	0.019447	-0.011741	0.006893
876	4.429779	0.005000	9.810000	0.725235	1.687320	0.148877	0.202482	-0.388614	0.026847	-0.002795	-0.006863
877	4.434779	0.005000	9.775175	0.824040	1.687320	0.149209	0.202925	-0.388366	0.026838	-0.018380	0.008627
878	4.439779	0.005000	9.715595	0.831429	1.655469	0.148871	0.202889	-0.388440	0.007810	-0.011698	0.008701
879	4.444779	0.005000	9.707003	0.760283	1.702043	0.148428	0.202779	-0.388564	0.024096	-0.019855	0.002953
880	4.449779	0.005000	9.679037	0.745560	1.556847	0.147985	0.202668	-0.388687	0.030057	-0.008233	0.002917
881	4.454779	0.005000	9.688361	0.757334	1.636306	0.147542	0.202557	-0.388811	0.030561	-0.013960	0.003944
882	4.459779	0.005000	9.789148	0.685468	1.765800	0.147099	0.202446	-0.388935	0.017687	-0.007040	-0.002760
883	4.464779	0.005000	9.713674	0.676003	1.874597	0.146656	0.202336	-0.389058	0.012453	-0.010141	-0.003168
884	4.469779	0.005000	9.677408	0.620404	1.844280	0.146213	0.202225	-0.389182	0.010039	-0.018565	0.006588
885	4.474779	0.005000	9.659376	0.679752	1.772136	0.145770	0.202114	-0.389306	0.001700	-0.011823	-0.000541
886	4.479779	0.005000	9.701987	0.775093	1.809893	0.145327	0.202004	-0.389430	0.009164	-0.015949	0.004476
887	4.484779	0.005000	9.774184	0.634687	1.808464	0.144884	0.201893	-0.389553	0.000485	-0.005400	0.013950
888	4.489779	0.005000	9.735362	0.596284	1.842359	0.144441	0.201782	-0.389677	0.003037	-0.006128	0.005537
889	4.494779	0.005000	9.809143	0.707606	1.882663	0.143998	0.201671	-0.389801	0.018758	-0.012865	0.001826
890	4.499779	0.005000	9.769707	0.862227	1.690480	0.143555	0.201561	-0.389924	-0.000394	0.000311	-0.010570
891	4.504779	0.005000	9.812525	0.865805	1.726560	0.143284	0.201278	-0.389952	0.001446	-0.013846	-0.007648
892	4.509779	0.005000	9.735099	0.820461	1.719403	0.143284	0.200725	-0.389828	0.000413	-0.003868	-0.001114
893	4.514779	0.005000	9.726454	0.794931	1.765800	0.143284	0.200171	-0.389705	-0.005560	-0.007374	0.000720
894	4.519779	0.005000	9.725031	0.837018	1.831302	0.143284	0.199618	-0.389581	-0.002110	-0.007594	0.013426
895	4.524779	0.005000	9.723559	0.745560	1.797079	0.143284	0.199064	-0.389457	0.003845	-0.000916	0.000137
896	4.529779	0.005000	9.653040	0.802956	1.726560	0.143284	0.198510	-0.389334	0.005337	-0.009908	0.006388
897	4.534779	0.005000	9.681715	0.745560	1.697885	0.143284	0.197957	-0.389210	-0.000304	-0.007432	0.007537
898	4.539779	0.005000	9.704348	0.784800	1.792972	0.143284	0.197403	-0.389087	0.008408	-0.014575	0.002296
899	4.544779	0.005000	9.717965	0.772670	1.726560	0.143284	0.196850	-0.388963	0.019242	-0.003303	0.014820
900	4.549779	0.005000	9.722395	0.824040	1.617965	0.143284	0.196296	-0.388839	0.021554	-0.003347	0.000649
901	4.554779	0.005000	9.793649	0.807689	1.782151	0.143284	0.195743	-0.388716	0.023738	-0.012574	0.000873
902	4.559779	0.005000	9.792171	0.763389	1.744389	0.143284	0.195189	-0.388592	0.010473	-0.008561	0.003811
903	4.564779	0.005000	9.790694	0.784800	1.727188	0.143284	0.194636	-0.388468	0.018860	-0.010798	0.001862
904	4.569779	0.005000	9.772634	0.764243	1.784483	0.143284	0.194082	-0.388345	0.012767	-0.003971	0.009211
905	4.574779	0.005000	9.687431	0.728364	1.770649	0.143284	0.194130	-0.388557	0.011148	-0.013611	-0.004203
906	4.579779	0.005000	9.731520	0.737706	1.648080	0.143284	0.194241	-0.388804	0.015882	-0.009863	-0.002556
907	4.584779	0.005000	9.653040	0.874109	1.690697	0.143284	0.194352	-0.389052	0.015944	-0.016891	0.001490
908	4.589779	0.005000	9.717686	0.824040	1.791206	0.143284	0.194462	-0.389299	0.009128	-0.014524	0.008279
909	4.594779	0.005000	9.810000	0.800952	1.777344	0.143284	0.194573	-0.389547	0.015181	-0.004517	0.001796
910	4.599779	0.005000	9.839170	0.736531	1.854350	0.143284	0.194684	-0.389794	0.011648	-0.013921	0.004457
911	4.604779	0.005000	9.722826	0.802188	1.787652	0.143284	0.194795	-0.390041	0.014548	-0.001576	0.008749
912	4.609779	0.005000	9.706687	0.809633	1.648080	0.143284	0.194905	-0.390289	0.004503	-0.016668	0.001867
913	4.614779	0.005000	9.804284	0.796233	1.581033	0.143284	0.195016	-0.390536	0.020645	-0.015227	0.012354
914	4.619779	0.005000	9.800726	0.754834	1.721923	0.143284	0.195127	-0.390784	0.001131	-0.006800	0.002669
915	4.624779	0.005000	9.725212	0.824040	1.657542	0.143284	0.195237	-0.391031	-0.001606	-0.003380	-0.004396
916	4.629779	0.005000	9.695688	0.825744	1.726560	0.143284	0.195348	-0.391278	0.003360	0.012828	0.003787
917	4.634779	0.005000	9.809597	0.941357	1.648483	0.143284	0.195459	-0.391526	0.019416	-0.006054	0.000340
918	4.639779	0.005000	9.731520	0.863280	1.764529	0.143331	0.195665	-0.391667	0.010284	-0.005981	0.000134
919	4.644779	0.005000	9.731520	0.711801	1.726560	0.143442	0.195997	-0.391667	0.006142	-0.005262	0.013949
920	4.649779	0.005000	9.766536	0.737112	1.726560	0.143553	0.196329	-0.391667	0.013732	-0.008231	0.013692
921	4.654779	0.005000	9.838644	0.750858	1.726560	0.143664	0.196661	-0.391667	0.016043	-0.002548	0.002846
922	4.659779	0.005000	9.745091	0.817255	1.661651	0.143774	0.196994	-0.391667	0.019703	-0.013744	0.006606
923	4.664779	0.005000	9.700568	0.894232	1.648080	0.143885	0.197326	-0.391667	0.002052	-0.012814	0.012503
924	4.669779	0.005000	9.770760	0.833815	1.726699	0.143996	0.197658	-0.391667	0.005226	-0.004490	0.002321
925	4.674779	0.005000	9.703558	0.723469	1.844280	0.144106	0.197991	-0.391667	0.010613	-0.005077	0.012794
926	4.679779	0.005000	9.745529	0.877289	1.792424	0.144217	0.198323	-0.391667	0.010996	-0.010713	0.004566
927	4.684779	0.005000	9.770760	0.874349	1.698389	0.144328	0.198655	-0.391667	0.005332	-0.018749	0.011666
928	4.689779	0.005000	9.770760	0.902520	1.710996	0.144439	0.198987	-0.391667	0.015865	-0.018842	0.012958
929	4.694779	0.005000	9.753720	0.818880	1.822080	0.144549	0.199320	-0.391667	0.009243	-0.020005	0.000083
930	4.699779	0.005000	9.710544	0.763824	1.763089	0.144660	0.199652	-0.391667	0.012319	-0.013334	0.019853
931	4.704779	0.005000	9.770466	0.745854	1.785273	0.144771	0.199984	-0.391667	0.014966	-0.002457	0.008036
932	4.709779	0.005000	9.770760	0.706320	1.747814	0.145092	0.199684	-0.391667	0.017248	-0.005317	0.011743
933	4.714779	0.005000	9.744068	0.706320	1.782283	0.145425	0.199351	-0.391667	0.018536	-0.006247	-0.001904
934	4.719779	0.005000	9.701528	0.760556	1.795792	0.145757	0.199019	-0.391667	0.011096	-0.014794	0.008524
935	4.724779	0.005000	9.731520	0.745560	1.767989	0.146089	0.198687	-0.391667	0.010414	-0.013919	0.007259
936	4.729779	0.005000	9.770760	0.735459	1.834179	0.146422	0.198354	-0.391667	0.015826	-0.008506	-0.000700
937	4.734779	0.005000	9.781615	0.745560	1.737415	0.146754	0.198022	-0.391667	0.009772	-0.013624	0.022849
938	4.739779	0.005000	9.770760	0.814544	1.736056	0.147086	0.197690	-0.391667	0.001371	-0.010072	0.001997
939	4.744779	0.005000	9.802006	0.722307	1.781787	0.147418	0.197358	-0.391667	0.008704	-0.010939	0.002251
940	4.749779	0.005000	9.829721	0.778294	1.772306	0.147751	0.197025	-0.391667	0.006094	-0.003345	0.002084
941	4.754779	0.005000	9.687276	0.897516	1.648080	0.148083	0.196693	-0.391667	0.008010	-0.008623	0.001870
942	4.759779	0.005000	9.728003	0.791833	1.690837	0.148415	0.196361	-0.391667	0.000145	-0.013957	0.009660
943	4.764779	0.005000	9.733985	0.784800	1.611305	0.148748	0.196028	-0.391667	-0.005549	-0.009774	-0.008633
944	4.769779	0.005000	9.770760	0.746555	1.648080	0.149080	0.195696	-0.391667	0.012421	-0.010922	-0.003540
945	4.774779	0.005000	9.848249	0.746056	1.686824	0.148991	0.195733	-0.391608	0.007411	-0.007737	-0.001812
946	4.779779	0.005000	9.808017	0.896571	1.730526	0.148437	0.196176	-0.391485	0.007786	-0.011797	0.003362
947	4.784779	0.005000	9.738407	0.755890	1.687320	0.147884	0.196618	-0.391361	-0.000706	-0.013198	-0.002065
948	4.789779	0.005000	9.765845	0.603344	1.545104	0.147330	0.197061	-0.391237	-0.000730	-0.017913	-0.001847
949	4.794779	0.005000	9.764765	0.733570	1.636090	0.146777	0.197504	-0.391114	-0.007091	-0.004945	0.005200
950	4.799779	0.005000	9.810000	0.713802	1.719078	0.146223	0.197947	-0.390990	0.005458	-0.013279	-0.003770
951	4.804779	0.005000	9.749490	0.815055	1.805040	0.145669	0.198390	-0.390866	0.017626	-0.013003	0.000804
952	4.809779	0.005000	9.731520	0.873752	1.794568	0.145116	0.198833	-0.390743	0.035787	-0.007157	-0.001471
953	4.814779	0.005000	9.704110	0.957340	1.844280	0.144562	0.199276	-0.390619	0.082307	-0.007522	-0.004563
954	4.819779	0.005000	9.718215	0.994305	1.858258	0.144009	0.199719	-0.390495	0.095156	-0.010107	0.009498
955	4.824779	0.005000	9.746005	0.867494	1.755529	0.143455	0.200161	-0.390372	0.105787	-0.008083	-0.006189
956	4.829779	0.005000	9.794013	0.793522	1.812306	0.142902	0.200604	-0.390248	0.104430	-0.014204	0.004921
957	4.834779	0.005000	9.792526	0.797983	1.783274	0.142348	0.201047	-0.390124	0.077061	-0.011062	0.004786
958	4.839779	0.005000	9.770760	0.962038	1.686003	0.141795	0.201490	-0.390001	0.054186	-0.020712	0.003332
959	4.844779	0.005000	9.712497	0.787187	1.668297	0.142121	0.200503	-0.389754	0.042956	-0.009666	-0.002546
960	4.849779	0.005000	9.696429	0.819891	1.765800	0.142453	0.199507	-0.389507	0.023067	0.001282	-0.003956
961	4.854779	0.005000	9.669306	0.840306	1.625106	0.142785	0.198511	-0.389260	0.015828	0.004223	0.002484
962	4.859779	0.005000	9.731520	0.775087	1.623603	0.143117	0.197515	-0.389013	-0.009202	0.005218	-0.015345
963	4.864779	0.005000	9.796724	0.732872	1.635392	0.143449	0.196518	-0.388766	-0.018938	0.000305	-0.012812
964	4.869779	0.005000	9.719414	0.836146	1.792934	0.143782	0.195522	-0.388518	-0.025396	-0.003208	-0.003475
965	4.874779	0.005000	9.810000	0.766833	1.783767	0.144114	0.194526	-0.388271	-0.006513	-0.012129	0.007577
966	4.879779	0.005000	9.791472	0.835488	1.775064	0.144446	0.193529	-0.388024	-0.011444	-0.010547	0.007887
967	4.884779	0.005000	9.700057	0.863280	1.710650	0.144778	0.192533	-0.387777	-0.003149	-0.016308	-0.003981
968	4.889779	0.005000	9.777034	0.830314	1.772074	0.145110	0.191537	-0.387530	0.015490	-0.020418	-0.003233
969	4.894779	0.005000	9.814787	0.789587	1.756226	0.145442	0.190540	-0.387282	0.023971	-0.009932	-0.005836
970	4.899779	0.005000	9.881042	0.831478	1.726560	0.145774	0.189544	-0.387035	0.039539	-0.010762	-0.002887
971	4.904779	0.005000	9.846978	0.863280	1.617887	0.146106	0.188548	-0.386788	0.055785	-0.003229	0.008487
972	4.909779	0.005000	9.809225	0.900971	1.765025	0.146326	0.187156	-0.387046	0.065207	-0.000588	0.006241
973	4.914779	0.005000	9.732224	0.785504	1.726560	0.146436	0.185383	-0.387788	0.062708	-0.008301	0.017170
974	4.919779	0.005000	9.656510	0.745560	1.690790	0.146547	0.183611	-0.388530	0.045466	-0.004768	0.007436
975	4.924779	0.005000	9.620275	0.742322	1.612078	0.146658	0.181839	-0.389272	0.050676	-0.004788	0.001343
976	4.929779	0.005000	9.761310	0.853830	1.790865	0.146768	0.180067	-0.390014	0.045103	0.009552	0.009529
977	4.934779	0.005000	9.770760	0.712548	1.792585	0.146879	0.178295	-0.390756	0.022947	0.000346	0.007329
978	4.939779	0.005000	9.770760	0.793181	1.718845	0.146990	0.176523	-0.391498	0.007573	-0.009039	0.017352
979	4.944779	0.005000	9.840134	0.706320	1.708348	0.147100	0.174751	-0.392240	-0.001386	0.001617	0.009863
980	4.949779	0.005000	9.810000	0.763650	1.726560	0.147211	0.172979	-0.392982	-0.006150	-0.009763	0.016161
981	4.954779	0.005000	9.719793	0.733833	1.750014	0.147322	0.171207	-0.393724	-0.012448	-0.002777	0.001091
982	4.959779	0.005000	9.666254	0.784800	1.752183	0.147433	0.169435	-0.394466	-0.029616	-0.011226	0.012817
983	4.964779	0.005000	9.623606	0.794606	1.790323	0.147543	0.167663	-0.395208	-0.031607	-0.018317	0.015976
984	4.969779	0.005000	9.630004	0.777968	1.733392	0.147654	0.165891	-0.395950	-0.029392	-0.009324	0.010430
985	4.974779	0.005000	9.692280	0.880987	1.844280	0.147753	0.164239	-0.396654	-0.026695	-0.009306	0.009061
986	4.979779	0.005000	9.672234	0.803994	1.784994	0.147532	0.166011	-0.396283	-0.026049	-0.000773	-0.003525
987	4.984779	0.005000	9.671834	0.783147	1.764147	0.147310	0.167783	-0.395912	-0.010033	-0.016279	0.006118
988	4.989779	0.005000	9.687689	0.824040	1.805040	0.147089	0.169555	-0.395541	0.000573	-0.005740	-0.006490
989	4.994779	0.005000	9.676434	0.839886	1.828434	0.146867	0.171327	-0.395170	-0.007113	-0.007485	0.016242
990	4.999779	0.005000	9.706827	0.799347	1.868973	0.146646	0.173099	-0.394799	0.001369	-0.014381	0.015906
991	5.004779	0.005000	9.679128	0.850236	1.844388	0.146424	0.174871	-0.394428	-0.001441	-0.011534	0.001612
992	5.009779	0.005000	9.770760	0.824040	1.715003	0.146203	0.176643	-0.394057	0.014971	-0.010681	0.010283
993	5.014779	0.005000	9.731520	0.754638	1.775854	0.145982	0.178416	-0.393686	0.020885	-0.003770	0.003633
994	5.019779	0.005000	9.770760	0.745560	1.774726	0.145760	0.180188	-0.393315	0.014643	-0.002455	-0.002324
995	5.024779	0.005000	9.763216	0.721409	1.851824	0.145539	0.181960	-0.392944	0.017993	0.002183	0.002632
996	5.029779	0.005000	9.776817	0.745560	1.786868	0.145317	0.183732	-0.392573	0.010109	-0.000761	-0.000160
997	5.034779	0.005000	9.805445	0.793909	1.722005	0.145096	0.185504	-0.392202	0.002777	-0.009200	0.014050
998	5.039779	0.005000	9.767269	0.709811	1.730051	0.144874	0.187276	-0.391831	0.005124	-0.001608	-0.000472
999	5.044779	0.005000	9.733540	0.826060	1.803020	0.144838	0.188492	-0.391667	0.005949	-0.014853	0.004863
1000	5.049779	0.005000	9.732062	0.784800	1.805582	0.144949	0.189267	-0.391667	0.003807	-0.005711	-0.002173
1001	5.054779	0.005000	9.770760	0.861412	1.729362	0.145059	0.190042	-0.391667	0.005683	-0.013705	0.004339
1002	5.059779	0.005000	9.765924	0.787218	1.758546	0.145170	0.190818	-0.391667	0.011724	-0.012691	0.009671
1003	5.064779	0.005000	9.770760	0.745560	1.848167	0.145281	0.191593	-0.391667	-0.008785	-0.006595	-0.006008
1004	5.069779	0.005000	9.781477	0.779441	1.810399	0.145392	0.192368	-0.391667	0.003481	-0.012911	-0.002802
1005	5.074779	0.005000	9.770760	0.856836	1.726560	0.145502	0.193143	-0.391667	-0.014404	-0.005357	-0.003169
1006	5.079779	0.005000	9.833346	0.855333	1.789146	0.145613	0.193918	-0.391667	-0.004082	-0.001352	-0.006296
1007	5.084779	0.005000	9.819434	0.773863	1.786171	0.145724	0.194694	-0.391667	0.002065	0.005466	0.011246
1008	5.089779	0.005000	9.674650	0.852475	1.669690	0.145835	0.195469	-0.391667	0.010128	-0.001229	-0.007184
1009	5.094779	0.005000	9.680001	0.860876	1.702002	0.145946	0.196244	-0.391667	-0.013141	0.007922	-0.003305
1010	5.099779	0.005000	9.653040	0.798549	1.724554	0.146056	0.197019	-0.391667	-0.004793	0.009820	-0.009066
1011	5.104779	0.005000	9.638106	0.829601	1.853652	0.146167	0.197794	-0.391667	-0.001227	-0.003833	-0.000274
1012	5.109779	0.005000	9.653040	0.650644	1.805040	0.146251	0.198507	-0.391637	0.001324	-0.002807	-0.001919
1013	5.114779	0.005000	9.749444	0.685004	1.744484	0.146030	0.198507	-0.391266	0.008046	-0.008722	-0.009322
1014	5.119779	0.005000	9.632991	0.785657	1.687320	0.145808	0.198507	-0.390895	0.006149	-0.014385	0.009379
1015	5.124779	0.005000	9.708754	0.803371	1.745131	0.145587	0.198507	-0.390524	-0.017676	-0.011532	-0.003747
1016	5.129779	0.005000	9.670135	0.789850	1.765800	0.145365	0.198507	-0.390153	0.000694	-0.010242	0.004836
1017	5.134779	0.005000	9.754959	0.706320	1.797403	0.145144	0.198507	-0.389782	-0.003276	0.002286	0.002540
1018	5.139779	0.005000	9.720908	0.734948	1.790726	0.144922	0.198507	-0.389411	-0.006230	-0.002478	-0.004264
1019	5.144779	0.005000	9.718693	0.692734	1.805799	0.144701	0.198507	-0.389040	-0.002225	-0.012200	-0.001492
1020	5.149779	0.005000	9.703604	0.863280	1.580924	0.144479	0.198507	-0.388669	-0.016873	-0.002668	-0.001371
1021	5.154779	0.005000	9.692280	0.774963	1.716831	0.144258	0.198507	-0.388298	0.004873	-0.001339	0.005230
1022	5.159779	0.005000	9.709696	0.776092	1.704736	0.144036	0.198507	-0.387927	0.005884	0.006151	-0.001425
1023	5.164779	0.005000	9.717067	0.752786	1.704881	0.143815	0.198507	-0.387556	0.004596	-0.005053	-0.003484
1024	5.169779	0.005000	9.631274	0.784800	1.693145	0.143593	0.198507	-0.387185	0.012394	-0.004555	0.000698
1025	5.174779	0.005000	9.661688	0.863280	1.783095	0.143372	0.198507	-0.386814	0.017994	-0.012513	-0.001823
1026	5.179779	0.005000	9.725850	0.751230	1.838610	0.143351	0.198039	-0.386742	0.015004	-0.010648	0.006488
1027	5.184779	0.005000	9.612452	0.822692	1.922760	0.143462	0.197263	-0.386865	0.012389	-0.007174	0.002650
1028	5.189779	0.005000	9.652397	0.784479	1.921474	0.143572	0.196488	-0.386989	0.012415	-0.006895	0.013064
1029	5.194779	0.005000	9.650685	0.783623	1.803863	0.143683	0.195713	-0.387113	0.016677	0.007655	0.008444
1030	5.199779	0.005000	9.650375	0.933766	1.765800	0.143794	0.194938	-0.387236	0.023707	-0.000932	0.004339
1031	5.204779	0.005000	9.696447	0.828207	1.765800	0.143904	0.194163	-0.387360	0.017650	-0.005648	0.011066
1032	5.209779	0.005000	9.804412	0.857692	1.810628	0.144015	0.193387	-0.387483	0.020514	-0.006982	-0.004847
1033	5.214779	0.005000	9.784114	0.758914	1.680643	0.144126	0.192612	-0.387607	0.021639	-0.008030	0.000420
1034	5.219779	0.005000	9.818164	0.770052	1.765800	0.144237	0.191837	-0.387731	0.012717	0.002749	0.002360
1035	5.224779	0.005000	9.721853	0.735893	1.756133	0.144347	0.191062	-0.387854	0.014637	-0.011768	0.004968
1036	5.229779	0.005000	9.692280	0.784800	1.720782	0.144458	0.190287	-0.387978	0.016658	-0.005730	0.006480
1037	5.234779	0.005000	9.758103	0.692393	1.778457	0.144569	0.189511	-0.388102	0.013198	-0.012456	0.000106
1038	5.239779	0.005000	9.706424	0.731416	1.768991	0.144679	0.188736	-0.388225	0.012655	-0.013720	0.006641
1039	5.244779	0.005000	9.755303	0.745560	1.711103	0.144790	0.188159	-0.388349	0.007219	-0.005354	-0.000027
1040	5.249779	0.005000	9.753827	0.812481	1.653454	0.144901	0.188934	-0.388472	0.010162	-0.018438	0.013865
1041	5.254779	0.005000	9.773688	0.739704	1.708404	0.145012	0.189709	-0.388596	0.011082	-0.005145	0.009988
1042	5.259779	0.005000	9.790403	0.627840	1.765846	0.145122	0.190483	-0.388720	0.010846	-0.007432	-0.003666
1043	5.264779	0.005000	9.752666	0.645934	1.726560	0.145233	0.191258	-0.388843	0.002276	-0.009572	0.006864
1044	5.269779	0.005000	9.714648	0.672959	1.653576	0.145344	0.192033	-0.388967	-0.010690	-0.004848	-0.014456
1045	5.274779	0.005000	9.653040	0.776352	1.670424	0.145455	0.192808	-0.389091	0.000489	0.001595	0.002297
1046	5.279779	0.005000	9.656045	0.849198	1.754724	0.145565	0.193583	-0.389214	0.000734	-0.000330	-0.004857
1047	5.284779	0.005000	9.783355	0.811445	1.699915	0.145676	0.194358	-0.389338	0.005938	-0.005020	-0.000648
1048	5.289779	0.005000	9.731520	0.784800	1.580707	0.145787	0.195133	-0.389462	-0.006514	-0.004354	-0.008258
1049	5.294779	0.005000	9.663003	0.804726	1.608840	0.145897	0.195907	-0.389585	-0.012235	-0.003085	-0.008974
1050	5.299779	0.005000	9.723038	0.784800	1.608840	0.146008	0.196682	-0.389709	0.010588	-0.011473	0.005714
1051	5.304779	0.005000	9.738529	0.824040	1.544379	0.146119	0.197457	-0.389832	0.002787	-0.003460	-0.010405
1052	5.309779	0.005000	9.737047	0.773746	1.642553	0.146230	0.198232	-0.389956	0.003902	-0.006452	0.007918
1053	5.314779	0.005000	9.762549	0.675291	1.691425	0.146126	0.198364	-0.389761	0.005689	0.000088	0.003716
1054	5.319779	0.005000	9.692280	0.745560	1.692525	0.145905	0.198143	-0.389390	-0.009454	-0.009482	0.001648
1055	5.324779	0.005000	9.730405	0.746675	1.802809	0.145683	0.197921	-0.389019	-0.005470	-0.005179	0.001941
1056	5.329779	0.005000	9.692372	0.784800	1.726468	0.145462	0.197700	-0.388648	-0.002929	-0.005760	-0.011299
1057	5.334779	0.005000	9.731520	0.671263	1.687320	0.145240	0.197478	-0.388277	0.006748	-0.011582	-0.002626
1058	5.339779	0.005000	9.653040	0.706320	1.799246	0.145019	0.197257	-0.387906	-0.006103	0.000975	-0.003591
1059	5.344779	0.005000	9.622466	0.858947	1.765800	0.144797	0.197035	-0.387535	-0.006529	-0.008462	-0.004230
1060	5.349779	0.005000	9.551540	0.790207	1.760393	0.144576	0.196814	-0.387164	-0.018319	-0.010280	0.005639
1061	5.354779	0.005000	9.574560	0.777891	1.726560	0.144354	0.196592	-0.386793	-0.000113	-0.005457	-0.009527
1062	5.359779	0.005000	9.669833	0.854884	1.734956	0.144133	0.196371	-0.386422	0.005748	-0.002429	0.002557
1063	5.364779	0.005000	9.662927	0.882745	1.795153	0.143911	0.196149	-0.386051	-0.006700	0.010140	-0.014829
1064	5.369779	0.005000	9.681031	0.874529	1.777049	0.143690	0.195928	-0.385680	-0.008201	-0.012309	-0.007952
1065	5.374779	0.005000	9.679557	0.889797	1.765800	0.143468	0.195706	-0.385309	0.001030	-0.010408	-0.006352
1066	5.379779	0.005000	9.706176	0.902520	1.883520	0.143303	0.195522	-0.385083	-0.007130	-0.001522	-0.001177
1067	5.384779	0.005000	9.724564	0.902520	1.946601	0.143413	0.195522	-0.385578	-0.002841	0.003533	-0.008880
1068	5.389779	0.005000	9.787646	0.801686	1.878051	0.143524	0.195522	-0.386073	0.003137	0.003362	-0.011963
1069	5.394779	0.005000	9.770760	0.844892	1.763337	0.143635	0.195522	-0.386567	0.015270	0.001166	-0.012468
1070	5.399779	0.005000	9.770714	0.843683	1.746157	0.143745	0.195522	-0.387062	0.004639	-0.009100	-0.012105
1071	5.404779	0.005000	9.713393	0.727433	1.762815	0.143856	0.195522	-0.387557	0.015439	-0.009451	-0.014331
1072	5.409779	0.005000	9.709135	0.762415	1.782655	0.143967	0.195522	-0.388052	-0.006244	-0.002781	-0.013037
1073	5.414779	0.005000	9.770760	0.784800	1.796504	0.144078	0.195522	-0.388546	-0.003828	-0.008207	-0.010892
1074	5.419779	0.005000	9.770760	0.888655	1.740425	0.144188	0.195522	-0.389041	0.011188	-0.008026	-0.001939
1075	5.424779	0.005000	9.731520	0.929073	1.831593	0.144299	0.195522	-0.389536	0.005778	0.000789	-0.023816
1076	5.429779	0.005000	9.731520	0.773593	1.777007	0.144410	0.195522	-0.390030	0.008032	-0.008150	-0.011885
1077	5.434779	0.005000	9.770760	0.804505	1.736413	0.144520	0.195522	-0.390525	0.005772	-0.004102	-0.015010
1078	5.439779	0.005000	9.700633	0.793153	1.852633	0.144631	0.195522	-0.391020	0.006402	0.000820	-0.011731
1079	5.444779	0.005000	9.646177	0.948623	1.895309	0.144742	0.195522	-0.391515	0.001499	0.001720	-0.003429
1080	5.449779	0.005000	9.619176	0.874031	1.872769	0.145006	0.195599	-0.391667	0.000835	0.001180	-0.016041
1081	5.454779	0.005000	9.618100	0.858980	1.648080	0.145338	0.195709	-0.391667	-0.003028	-0.001501	-0.004026
1082	5.459779	0.005000	9.695097	0.902520	1.690137	0.145670	0.195820	-0.391667	-0.006570	0.006067	-0.011376
1083	5.464779	0.005000	9.730157	0.860553	1.765800	0.146003	0.195931	-0.391667	-0.014785	-0.000153	-0.019436
1084	5.469779	0.005000	9.692280	0.745698	1.648493	0.146335	0.196042	-0.391667	-0.004120	0.016158	-0.009252
1085	5.474779	0.005000	9.770760	0.822878	1.727722	0.146667	0.196153	-0.391667	-0.005016	0.009179	-0.013295
1086	5.479779	0.005000	9.770760	0.863280	1.799742	0.147000	0.196263	-0.391667	0.021685	-0.002417	-0.008552
1087	5.484779	0.005000	9.849240	0.859144	1.813312	0.147332	0.196374	-0.391667	0.002799	0.004285	-0.019838
1088	5.489779	0.005000	9.697919	0.829679	1.777078	0.147664	0.196485	-0.391667	0.026733	0.002840	-0.005987
1089	5.494779	0.005000	9.731520	0.824040	1.740645	0.147996	0.196596	-0.391667	0.012984	-0.008253	-0.010449
1090	5.499779	0.005000	9.762236	0.824040	1.748751	0.148329	0.196707	-0.391667	0.026693	-0.009201	-0.027166
1091	5.504779	0.005000	9.780758	0.824040	1.756553	0.148661	0.196817	-0.391667	0.035168	-0.003588	-0.005330
1092	5.509779	0.005000	9.709243	0.869105	1.748837	0.148993	0.196928	-0.391667	0.025461	0.000096	-0.008274
1093	5.514779	0.005000	9.770760	0.797431	1.767148	0.149182	0.197039	-0.391640	0.029570	-0.009339	-0.001360
1094	5.519779	0.005000	9.784888	0.695337	1.726560	0.148850	0.197149	-0.391517	0.035187	0.002223	-0.004105
1095	5.524779	0.005000	9.707895	0.737954	1.695329	0.148518	0.197260	-0.391393	0.032748	-0.001780	-0.004966
1096	5.529779	0.005000	9.770760	0.767682	1.748682	0.148186	0.197371	-0.391269	0.039339	-0.005856	-0.003980
1097	5.534779	0.005000	9.849240	0.706320	1.747412	0.147854	0.197481	-0.391146	0.040317	0.000704	-0.016035
1098	5.539779	0.005000	9.810490	0.725695	1.765310	0.147522	0.197592	-0.391022	0.045321	-0.010867	0.002348
1099	5.544779	0.005000	9.788870	0.742539	1.726560	0.147190	0.197703	-0.390899	0.028634	0.005429	-0.011087
1100	5.549779	0.005000	9.770760	0.751555	1.765800	0.146858	0.197813	-0.390775	0.033661	-0.015127	-0.009677
1101	5.554779	0.005000	9.755625	0.769665	1.780935	0.146525	0.197924	-0.390651	0.011873	-0.002702	-0.013056
1102	5.559779	0.005000	9.745462	0.796156	1.751858	0.146193	0.198035	-0.390528	0.013450	-0.006144	-0.010369
1103	5.564779	0.005000	9.706595	0.758022	1.739022	0.145861	0.198145	-0.390404	0.006629	-0.002035	0.000721
1104	5.569779	0.005000	9.624788	0.717308	1.754812	0.145529	0.198256	-0.390280	-0.005118	0.002977	-0.005710
1105	5.574779	0.005000	9.632815	0.744350	1.737277	0.145197	0.198367	-0.390157	0.007078	-0.008463	0.000465
1106	5.579779	0.005000	9.778795	0.745560	1.671251	0.144865	0.198477	-0.390033	0.005012	0.007702	0.000448
1107	5.584779	0.005000	9.698910	0.784800	1.739821	0.144695	0.198588	-0.390000	0.010199	-0.005363	0.001950
1108	5.589779	0.005000	9.653040	0.789943	1.810183	0.144584	0.198699	-0.390000	-0.000688	0.000443	-0.004109
1109	5.594779	0.005000	9.653040	0.902520	1.809113	0.144473	0.198810	-0.390000	0.000986	0.011441	-0.008895
1110	5.599779	0.005000	9.582365	0.897317	1.883520	0.144363	0.198921	-0.390000	0.016610	-0.013941	-0.002010
1111	5.604779	0.005000	9.769629	0.901389	1.802778	0.144252	0.199031	-0.390000	0.018236	-0.003144	-0.005642
1112	5.609779	0.005000	9.653744	0.863280	1.804336	0.144141	0.199142	-0.390000	0.007809	0.002448	-0.003689
1113	5.614779	0.005000	9.688607	0.786637	1.806877	0.144031	0.199253	-0.390000	0.016791	-0.001018	-0.002756
1114	5.619779	0.005000	9.610919	0.821159	1.760037	0.143920	0.199364	-0.390000	0.018020	-0.008531	-0.012338
