# FOX Logger (IMU file)
# (c) INRIA 2011-2014
#
# File created from file HKB0_01.RAW
#
# File format:
# t;dt;ax;ay;az
#
# Units:
#	Time: s
#	Acceleration: m.s^-2
#
0.000916;0.000916;-0.431640;0.215820;-9.986580
0.006073;0.005157;-0.470880;0.255060;-10.065060
0.011230;0.005157;-0.470880;0.235440;-10.143540
0.016388;0.005157;-0.412020;0.215820;-10.143540
0.021545;0.005157;-0.333540;0.196200;-10.163160
0.026703;0.005157;-0.294300;0.235440;-10.143540
0.031860;0.005157;-0.353160;0.274680;-10.143540
0.036987;0.005127;-0.313920;0.215820;-10.123920
0.042145;0.005157;-0.353160;0.255060;-10.241640
0.047302;0.005157;-0.412020;0.255060;-10.300500
0.052460;0.005157;-0.274680;0.235440;-10.241640
0.057617;0.005157;-0.274680;0.196200;-10.182780
0.062775;0.005157;-0.372780;0.255060;-10.143540
0.067932;0.005157;-0.431640;0.274680;-10.065060
0.073090;0.005157;-0.392400;0.313920;-10.123920
0.078247;0.005157;-0.372780;0.274680;-10.202400
0.083405;0.005157;-0.431640;0.255060;-10.202400
0.088562;0.005157;-0.451260;0.215820;-10.143540
0.093719;0.005157;-0.431640;0.235440;-10.104300
0.098877;0.005157;-0.353160;0.255060;-10.182780
0.104034;0.005157;-0.333540;0.313920;-10.261260
0.109192;0.005157;-0.235440;0.274680;-10.280880
0.114349;0.005157;-0.313920;0.333540;-10.339740
0.119507;0.005157;-0.274680;0.372780;-10.241640
0.124634;0.005127;-0.235440;0.353160;-10.182780
0.129791;0.005157;-0.235440;0.294300;-10.143540
0.134949;0.005157;-0.255060;0.313920;-10.065060
0.140106;0.005157;-0.372780;0.392400;-10.241640
0.145264;0.005157;-0.372780;0.372780;-10.359360
0.150421;0.005157;-0.294300;0.392400;-10.378980
0.155579;0.005157;-0.255060;0.294300;-10.339740
0.160736;0.005157;-0.313920;0.274680;-10.202400
0.165894;0.005157;-0.313920;0.255060;-10.261260
0.171051;0.005157;-0.274680;0.294300;-10.182780
0.176208;0.005157;-0.255060;0.313920;-10.261260
0.181366;0.005157;-0.235440;0.294300;-10.202400
0.186523;0.005157;-0.392400;0.294300;-10.182780
0.191681;0.005157;-0.451260;0.333540;-10.182780
0.196838;0.005157;-0.431640;0.372780;-10.163160
0.201996;0.005157;-0.451260;0.353160;-10.143540
0.207123;0.005127;-0.392400;0.353160;-10.163160
0.212280;0.005157;-0.451260;0.412020;-10.123920
0.217438;0.005157;-0.412020;0.412020;-10.045440
0.222595;0.005157;-0.372780;0.372780;-10.045440
0.227753;0.005157;-0.392400;0.412020;-10.065060
0.232910;0.005157;-0.372780;0.431640;-9.966960
0.238068;0.005157;-0.333540;0.372780;-10.065060
0.243225;0.005157;-0.274680;0.353160;-10.025820
0.248383;0.005157;-0.215820;0.294300;-10.123920
0.253540;0.005157;-0.176580;0.274680;-10.163160
0.258698;0.005157;-0.255060;0.313920;-10.241640
0.263855;0.005157;-0.235440;0.313920;-10.222020
0.269012;0.005157;-0.215820;0.392400;-10.182780
0.274170;0.005157;-0.176580;0.470880;-10.163160
0.279327;0.005157;-0.235440;0.510120;-10.143540
0.284485;0.005157;-0.215820;0.490500;-10.104300
0.289642;0.005157;-0.255060;0.510120;-10.025820
0.294800;0.005157;-0.353160;0.510120;-10.025820
0.299957;0.005157;-0.294300;0.510120;-10.045440
0.305115;0.005157;-0.255060;0.451260;-10.084680
0.310272;0.005157;-0.196200;0.470880;-10.025820
0.315430;0.005157;-0.235440;0.549360;-9.986580
0.320557;0.005127;-0.215820;0.549360;-10.065060
0.325745;0.005188;-0.176580;0.451260;-10.025820
0.330902;0.005157;-0.176580;0.470880;-10.045440
0.336090;0.005188;-0.117720;0.529740;-10.065060
0.341248;0.005157;-0.117720;0.529740;-10.045440
0.346405;0.005157;-0.176580;0.470880;-9.986580
0.351562;0.005157;-0.137340;0.549360;-10.025820
0.356720;0.005157;-0.117720;0.510120;-10.123920
0.361877;0.005157;-0.137340;0.451260;-10.182780
0.367004;0.005127;-0.156960;0.470880;-10.104300
0.372162;0.005157;-0.196200;0.510120;-10.143540
0.377319;0.005157;-0.156960;0.412020;-10.202400
0.382477;0.005157;-0.196200;0.392400;-10.339740
0.387634;0.005157;-0.156960;0.412020;-10.320120
0.392792;0.005157;-0.137340;0.431640;-10.300500
0.397949;0.005157;-0.058860;0.372780;-10.359360
0.403107;0.005157;-0.039240;0.412020;-10.300500
0.408264;0.005157;0.019620;0.470880;-10.241640
0.413422;0.005157;0.039240;0.412020;-10.300500
0.418579;0.005157;0.019620;0.353160;-10.182780
0.423706;0.005127;0.078480;0.274680;-10.202400
0.428894;0.005188;0.137340;0.196200;-10.065060
0.434021;0.005127;0.255060;0.235440;-9.770760
0.439209;0.005188;0.274680;0.294300;-9.751140
0.444336;0.005127;0.333540;0.274680;-9.731520
0.449493;0.005157;0.294300;0.235440;-9.731520
0.454681;0.005188;0.294300;0.196200;-9.731520
0.459808;0.005127;0.215820;0.156960;-9.594180
0.464996;0.005188;0.215820;0.039240;-9.594180
0.470154;0.005157;0.215820;-0.117720;-9.751140
0.475311;0.005157;0.098100;-0.137340;-9.849240
0.480438;0.005127;-0.078480;-0.156960;-9.888480
0.485596;0.005157;-0.451260;-0.137340;-10.123920
0.490753;0.005157;-0.490500;0.078480;-10.241640
0.495911;0.005157;0.078480;0.843660;-9.437220
0.501068;0.005157;-0.137340;0.353160;-10.339740
0.506226;0.005157;-0.215820;0.117720;-10.398600
0.511383;0.005157;-0.255060;0.039240;-10.182780
0.516541;0.005157;-0.294300;-0.058860;-10.143540
0.521698;0.005157;-0.333540;-0.137340;-10.163160
0.526855;0.005157;-0.392400;-0.353160;-10.143540
0.532013;0.005157;-0.568980;-0.392400;-10.104300
0.537170;0.005157;-0.549360;-0.333540;-10.182780
0.542328;0.005157;-0.510120;-0.215820;-10.222020
0.547485;0.005157;-0.470880;-0.215820;-10.202400
0.552643;0.005157;-0.490500;-0.255060;-10.241640
0.557800;0.005157;-0.333540;-0.313920;-10.222020
0.562958;0.005157;-0.333540;-0.353160;-10.280880
0.568115;0.005157;-0.294300;-0.353160;-10.280880
0.573273;0.005157;-0.313920;-0.372780;-10.182780
0.578430;0.005157;-0.294300;-0.510120;-10.104300
0.583588;0.005157;-0.255060;-0.431640;-10.123920
0.588745;0.005157;-0.235440;-0.392400;-10.163160
0.593903;0.005157;-0.294300;-0.372780;-10.182780
0.599060;0.005157;-0.353160;-0.470880;-10.045440
0.604218;0.005157;-0.392400;-0.647460;-9.868860
0.609375;0.005157;-0.451260;-0.745560;-9.829620
0.614532;0.005157;-0.490500;-0.745560;-9.751140
0.619690;0.005157;-0.549360;-0.667080;-9.770760
0.624847;0.005157;-0.608220;-0.608220;-9.790380
0.630005;0.005157;-0.725940;-0.686700;-9.829620
0.635162;0.005157;-0.784800;-0.686700;-10.025820
0.640320;0.005157;-0.725940;-0.765180;-10.163160
0.645477;0.005157;-0.490500;-0.882900;-10.261260
0.650635;0.005157;-0.313920;-0.961380;-10.320120
0.655792;0.005157;-0.313920;-0.981000;-10.516320
0.660950;0.005157;-0.255060;-0.981000;-10.614420
0.666107;0.005157;-0.176580;-0.941760;-10.791000
0.671265;0.005157;-0.176580;-1.039860;-10.810620
0.676392;0.005127;-0.176580;-1.137960;-10.751760
0.681549;0.005157;-0.196200;-1.059480;-10.732140
0.686707;0.005157;-0.176580;-1.098720;-10.908720
0.691864;0.005157;-0.176580;-1.255680;-10.908720
0.697021;0.005157;-0.098100;-1.294920;-10.771380
0.702179;0.005157;-0.176580;-1.530360;-10.575180
0.707336;0.005157;-0.333540;-1.549980;-10.496700
0.712494;0.005157;-0.313920;-1.157580;-9.437220
0.717651;0.005157;-0.058860;-1.059480;-10.084680
0.722809;0.005157;-0.156960;-1.334160;-9.829620
0.727966;0.005157;-0.294300;-1.275300;-9.554940
0.733124;0.005157;-0.215820;-1.275300;-9.868860
0.738281;0.005157;0.058860;-1.020240;-10.182780
0.743439;0.005157;-0.353160;-1.569600;-10.202400
0.748596;0.005157;-0.529740;-1.098720;-10.084680
0.753754;0.005157;-0.255060;-0.725940;-9.908100
0.758911;0.005157;0.176580;0.784800;-9.358740
0.764069;0.005157;0.333540;-1.216440;-9.515700
0.769226;0.005157;-0.431640;-1.236060;-9.692280
0.774384;0.005157;-0.686700;-0.745560;-10.025820
0.779541;0.005157;-0.549360;-1.020240;-10.261260
0.784698;0.005157;-0.294300;-1.137960;-10.359360
0.789856;0.005157;-0.078480;-1.314540;-10.339740
0.795013;0.005157;-0.058860;-1.353780;-10.496700
0.800171;0.005157;0.019620;-1.334160;-10.516320
0.805328;0.005157;0.117720;-1.314540;-10.457460
0.810486;0.005157;-0.058860;-1.334160;-10.477080
0.815643;0.005157;-0.333540;-1.314540;-10.241640
0.820801;0.005157;-0.568980;-1.451880;-9.966960
0.825958;0.005157;-0.667080;-1.373400;-9.476460
0.831116;0.005157;-0.156960;-1.393020;-9.044820
0.836273;0.005157;-0.313920;-1.942380;-9.260640
0.841431;0.005157;-0.647460;-1.628460;-9.731520
0.846588;0.005157;-0.255060;-1.451880;-9.574560
0.851715;0.005127;0.137340;-1.667700;-9.594180
0.856873;0.005157;0.215820;-1.667700;-9.672660
0.862030;0.005157;0.353160;-1.530360;-9.770760
0.867188;0.005157;0.313920;-1.589220;-9.810000
0.872345;0.005157;0.196200;-1.451880;-9.653040
0.877502;0.005157;-0.058860;-1.373400;-9.711900
0.882660;0.005157;-0.215820;-1.432260;-9.613800
0.887817;0.005157;-0.412020;-1.451880;-9.751140
0.892975;0.005157;-0.549360;-1.471500;-9.908100
0.898132;0.005157;-0.804420;-1.471500;-10.025820
0.903290;0.005157;-0.922140;-1.549980;-10.222020
0.908447;0.005157;-0.882900;-1.687320;-10.261260
0.913635;0.005188;-0.765180;-1.844280;-10.222020
0.918762;0.005127;-0.608220;-1.765800;-10.222020
0.923920;0.005157;-0.608220;-1.726560;-9.966960
0.929077;0.005157;-0.627840;-1.765800;-9.849240
0.934235;0.005157;-0.549360;-1.667700;-9.672660
0.939392;0.005157;-0.451260;-1.628460;-9.633420
0.944550;0.005157;-0.588600;-1.687320;-9.653040
0.949707;0.005157;-0.745560;-1.922760;-9.417600
0.954865;0.005157;-0.941760;-2.079720;-9.123300
0.960022;0.005157;-0.981000;-2.099340;-8.966340
0.965179;0.005157;-0.961380;-2.060100;-8.927100
0.970337;0.005157;-0.843660;-1.903140;-8.907480
0.975494;0.005157;-0.725940;-1.785420;-8.946720
0.980652;0.005157;-0.608220;-1.746180;-9.044820
0.985809;0.005157;-0.490500;-1.785420;-9.162540
0.990967;0.005157;-0.412020;-1.922760;-9.260640
0.996124;0.005157;-0.274680;-2.079720;-9.339120
1.001282;0.005157;-0.255060;-2.197440;-9.456840
1.006439;0.005157;-0.353160;-2.217060;-9.437220
1.011566;0.005127;-0.510120;-2.158200;-9.397980
1.016754;0.005188;-0.568980;-2.060100;-9.378360
1.021912;0.005157;-1.236060;-2.432880;-8.181540
1.027069;0.005157;-1.314540;-2.393640;-8.711280
1.032227;0.005157;-0.392400;-2.413260;-8.927100
1.037384;0.005157;0.294300;-2.138580;-8.770140
1.042511;0.005127;0.235440;-1.922760;-8.809380
1.047668;0.005157;0.176580;-1.883520;-8.907480
1.052826;0.005157;-0.058860;-2.060100;-8.966340
1.057983;0.005157;-0.470880;-1.903140;-9.044820
1.063141;0.005157;-0.824040;-1.824660;-8.829000
1.068298;0.005157;-0.824040;-1.785420;-8.770140
1.073456;0.005157;-0.588600;-1.805040;-8.966340
1.078613;0.005157;-0.313920;-1.824660;-9.162540
1.083771;0.005157;-0.255060;-1.981620;-9.142920
1.088928;0.005157;-0.176580;-2.020860;-9.005580
1.094086;0.005157;-0.333540;-1.922760;-9.044820
1.099243;0.005157;-0.568980;-1.706940;-9.201780
1.104401;0.005157;-0.882900;-1.412640;-9.064440
1.109558;0.005157;-1.020240;-1.393020;-8.789760
1.114716;0.005157;-1.118340;-1.510740;-8.593560
1.119873;0.005157;-1.000620;-1.451880;-8.593560
1.125031;0.005157;-0.981000;-1.491120;-8.593560
1.130188;0.005157;-1.098720;-1.471500;-8.456220
1.135345;0.005157;-1.118340;-1.432260;-8.397360
1.140503;0.005157;-1.216440;-1.353780;-8.829000
1.145660;0.005157;-1.275300;-1.236060;-9.339120
1.150787;0.005127;-1.137960;-1.255680;-9.711900
1.155945;0.005157;-1.039860;-1.353780;-10.065060
1.161102;0.005157;-0.804420;-1.491120;-10.182780
1.166260;0.005157;-0.706320;-1.549980;-10.280880
1.171417;0.005157;-0.745560;-1.589220;-10.398600
1.176575;0.005157;-0.902520;-1.451880;-10.614420
1.181732;0.005157;-1.118340;-1.314540;-10.810620
1.186890;0.005157;-1.334160;-1.216440;-11.085300
1.192047;0.005157;-1.648080;-1.079100;-10.908720
1.197205;0.005157;-1.765800;-1.039860;-10.614420
1.202362;0.005157;-1.785420;-0.863280;-10.477080
1.207520;0.005157;-1.844280;-0.588600;-10.634040
1.212677;0.005157;-2.060100;-0.353160;-10.830240
1.217834;0.005157;-2.275920;-0.196200;-10.987200
1.222992;0.005157;-2.511360;-0.137340;-11.065680
1.228149;0.005157;-2.511360;-0.098100;-11.399220
1.233307;0.005157;-2.295540;-0.313920;-11.536560
1.238464;0.005157;-1.726560;-0.824040;-11.104920
1.243622;0.005157;-1.098720;-1.275300;-10.634040
1.248779;0.005157;-0.765180;-1.432260;-10.614420
1.253937;0.005157;-0.863280;-1.196820;-11.085300
1.259094;0.005157;-1.412640;-0.902520;-11.595420
1.264252;0.005157;-1.844280;-0.686700;-11.791620
1.269409;0.005157;-2.060100;-0.549360;-11.811240
1.274536;0.005127;-2.099340;-0.451260;-11.870100
1.279694;0.005157;-1.844280;-0.412020;-11.928960
1.284851;0.005157;-1.549980;-0.490500;-11.850480
1.290009;0.005157;-1.275300;-0.510120;-11.713140
1.295166;0.005157;-1.157580;-0.451260;-11.595420
1.300323;0.005157;-1.275300;-0.392400;-11.458080
1.305481;0.005157;-1.451880;-0.431640;-11.438460
1.310638;0.005157;-1.451880;-0.392400;-11.477700
1.315796;0.005157;-1.549980;-0.353160;-11.477700
1.320953;0.005157;-1.608840;-0.353160;-11.516940
1.326111;0.005157;-1.687320;-0.333540;-11.595420
1.331268;0.005157;-1.608840;-0.294300;-11.732760
1.336426;0.005157;-1.530360;-0.078480;-11.870100
1.341583;0.005157;-0.961380;-0.176580;-11.085300
1.346741;0.005157;-0.274680;-0.902520;-10.163160
1.351898;0.005157;0.117720;-1.373400;-9.868860
1.357056;0.005157;-0.098100;-1.687320;-9.810000
1.362213;0.005157;-0.451260;-1.608840;-9.868860
1.367371;0.005157;-0.824040;-1.432260;-10.123920
1.372528;0.005157;-1.157580;-1.216440;-10.320120
1.377686;0.005157;-1.491120;-1.059480;-10.320120
1.382843;0.005157;-1.589220;-0.863280;-10.339740
1.388000;0.005157;-1.432260;-0.725940;-10.477080
1.393158;0.005157;-1.294920;-0.667080;-10.712520
1.398315;0.005157;-1.177200;-0.647460;-10.830240
1.403442;0.005127;-1.079100;-0.627840;-10.830240
1.408600;0.005157;-1.039860;-0.706320;-10.653660
1.413757;0.005157;-1.098720;-0.706320;-10.673280
1.418915;0.005157;-1.157580;-0.765180;-10.830240
1.424072;0.005157;-1.059480;-0.765180;-11.065680
1.429260;0.005188;-0.627840;-0.882900;-11.301120
1.434418;0.005157;-0.804420;-0.922140;-11.399220
1.439545;0.005127;-0.922140;-0.922140;-11.438460
1.444702;0.005157;-0.824040;-1.059480;-11.301120
1.449890;0.005188;-0.765180;-1.157580;-11.124540
1.455048;0.005157;-0.627840;-1.137960;-11.026440
1.460205;0.005157;-0.568980;-1.314540;-10.712520
1.465363;0.005157;-0.608220;-1.334160;-10.320120
1.470520;0.005157;-0.608220;-1.216440;-10.006200
1.475677;0.005157;-0.333540;-2.275920;-10.300500
1.480835;0.005157;-0.372780;-1.216440;-10.908720
1.485992;0.005157;-0.627840;-0.843660;-10.398600
1.491150;0.005157;-0.922140;-0.941760;-9.653040
1.496307;0.005157;-1.137960;-0.804420;-9.201780
1.501434;0.005127;-1.216440;-0.490500;-8.887860
1.506592;0.005157;-1.196820;-0.392400;-8.887860
1.511780;0.005188;-1.196820;-0.372780;-9.142920
1.516907;0.005127;-1.157580;-0.333540;-9.358740
1.522064;0.005157;-1.079100;-0.353160;-9.417600
1.527252;0.005188;-1.020240;-0.333540;-9.476460
1.532410;0.005157;-0.941760;-0.333540;-9.456840
1.537537;0.005127;-1.118340;-0.372780;-9.280260
1.542694;0.005157;-1.353780;-0.392400;-9.241020
1.547852;0.005157;-1.451880;-0.470880;-9.260640
1.553009;0.005157;-1.275300;-0.529740;-9.221400
1.558167;0.005157;-0.922140;-0.608220;-9.476460
1.563324;0.005157;-0.784800;-0.529740;-9.692280
1.568481;0.005157;-0.941760;-0.451260;-9.849240
1.573639;0.005157;-1.314540;-0.353160;-9.908100
1.578796;0.005157;-1.589220;-0.313920;-9.790380
1.583954;0.005157;-1.824660;-0.372780;-9.476460
1.589111;0.005157;-1.981620;-0.274680;-9.319500
1.594269;0.005157;-2.138580;-0.078480;-9.456840
1.599426;0.005157;-2.099340;0.117720;-9.515700
1.604584;0.005157;-2.177820;0.176580;-9.456840
1.609741;0.005157;-2.256300;0.215820;-9.456840
1.614899;0.005157;-2.197440;0.274680;-9.378360
1.620056;0.005157;-2.118960;0.294300;-9.417600
1.625214;0.005157;-2.001240;0.176580;-9.456840
1.630371;0.005157;-1.805040;0.274680;-9.633420
1.635529;0.005157;-1.765800;0.294300;-9.927720
1.640686;0.005157;-1.746180;0.235440;-10.084680
1.645844;0.005157;-1.628460;0.078480;-10.025820
1.651001;0.005157;-1.510740;0.000000;-9.908100
1.656158;0.005157;-1.393020;-0.137340;-9.829620
1.661285;0.005127;-1.294920;-0.235440;-9.790380
1.666473;0.005188;-1.059480;-0.313920;-9.888480
1.671631;0.005157;-1.020240;-0.313920;-10.123920
1.676788;0.005157;-1.000620;-0.294300;-10.222020
1.681915;0.005127;-1.020240;-0.294300;-10.261260
1.687073;0.005157;-0.981000;-0.313920;-10.222020
1.692230;0.005157;-1.000620;-0.313920;-10.280880
1.697388;0.005157;-1.059480;-0.274680;-10.320120
1.702545;0.005157;-0.941760;-0.372780;-10.359360
1.707703;0.005157;-0.981000;-0.392400;-10.418220
1.712891;0.005188;-1.079100;-0.451260;-10.437840
1.718018;0.005127;-1.137960;-0.490500;-10.516320
1.723175;0.005157;-1.157580;-0.490500;-10.634040
1.728333;0.005157;-1.216440;-0.510120;-10.732140
1.733490;0.005157;-1.216440;-0.627840;-10.673280
1.738647;0.005157;-1.098720;-0.706320;-10.653660
1.743805;0.005157;-0.961380;-0.784800;-10.614420
1.748962;0.005157;-0.686700;-0.745560;-10.555560
1.754120;0.005157;-0.510120;-0.765180;-10.437840
1.759277;0.005157;-0.412020;-0.667080;-10.359360
1.764435;0.005157;-0.215820;-0.686700;-10.320120
1.769592;0.005157;0.019620;-1.000620;-10.143540
1.774750;0.005157;0.137340;-0.843660;-10.771380
1.779907;0.005157;0.117720;-0.647460;-10.202400
1.785065;0.005157;-0.156960;-0.647460;-9.633420
1.790222;0.005157;-0.627840;-0.627840;-9.005580
1.795380;0.005157;-0.882900;-0.510120;-8.672040
1.800537;0.005157;-0.882900;-0.549360;-8.554320
1.805695;0.005157;-0.706320;-0.608220;-8.691660
1.810852;0.005157;-0.470880;-0.588600;-9.044820
1.816010;0.005157;-0.235440;-0.588600;-9.456840
1.821136;0.005127;-0.039240;-0.706320;-9.554940
1.826294;0.005157;0.098100;-0.804420;-9.692280
1.831451;0.005157;0.156960;-0.961380;-9.633420
1.836609;0.005157;0.176580;-1.118340;-9.476460
1.841766;0.005157;0.215820;-0.804420;-9.476460
1.846924;0.005157;0.235440;-0.941760;-9.437220
1.852081;0.005157;0.078480;-0.902520;-9.613800
1.857239;0.005157;-0.137340;-0.941760;-9.653040
1.862396;0.005157;-0.215820;-1.000620;-9.692280
1.867554;0.005157;-0.294300;-1.098720;-9.731520
1.872711;0.005157;-0.333540;-1.177200;-9.711900
1.877869;0.005157;-0.235440;-1.177200;-9.751140
1.883026;0.005157;-0.117720;-1.098720;-9.849240
1.888184;0.005157;-0.058860;-1.255680;-9.672660
1.893341;0.005157;0.039240;-1.196820;-9.574560
1.898499;0.005157;0.098100;-1.059480;-9.358740
1.903656;0.005157;0.078480;-0.961380;-9.123300
1.908813;0.005157;0.156960;-0.765180;-9.241020
1.913971;0.005157;0.078480;-0.824040;-9.084060
1.919128;0.005157;0.039240;-1.000620;-8.770140
1.924286;0.005157;-0.176580;-1.020240;-8.534700
1.929443;0.005157;-0.372780;-0.922140;-8.475840
1.934601;0.005157;-0.490500;-0.824040;-8.672040
1.939758;0.005157;-0.431640;-0.922140;-8.789760
1.944916;0.005157;-0.392400;-1.000620;-8.946720
1.950073;0.005157;-0.313920;-0.961380;-9.064440
1.955200;0.005127;-0.313920;-0.784800;-9.044820
1.960358;0.005157;-0.235440;-0.745560;-9.201780
1.965515;0.005157;-0.196200;-0.725940;-9.064440
1.970673;0.005157;-0.137340;-0.765180;-8.966340
1.975830;0.005157;-0.137340;-0.686700;-8.946720
1.980988;0.005157;-0.196200;-0.549360;-9.005580
1.986145;0.005157;-0.215820;-0.549360;-9.025200
1.991302;0.005157;-0.196200;-0.529740;-9.142920
1.996460;0.005157;-0.333540;-0.529740;-9.339120
2.001617;0.005157;-0.568980;-0.470880;-9.437220
2.006775;0.005157;-0.608220;-0.568980;-9.437220
2.011902;0.005127;-0.745560;-0.843660;-9.633420
2.017059;0.005157;-0.706320;-0.725940;-9.711900
2.022217;0.005157;-0.725940;-0.941760;-9.751140
2.027374;0.005157;-0.706320;-1.059480;-9.888480
2.032532;0.005157;-0.824040;-0.981000;-10.143540
2.037689;0.005157;-0.804420;-0.863280;-10.222020
2.042847;0.005157;-0.784800;-0.941760;-10.222020
2.048004;0.005157;-0.765180;-0.784800;-10.202400
2.053162;0.005157;-0.784800;-0.588600;-9.927720
2.058319;0.005157;-0.902520;-0.549360;-9.633420
2.063477;0.005157;-1.020240;-0.372780;-9.496080
2.068634;0.005157;-1.079100;-0.313920;-9.358740
2.073792;0.005157;-1.216440;-0.274680;-9.437220
2.078949;0.005157;-1.353780;-0.215820;-9.397980
2.084106;0.005157;-1.471500;-0.137340;-9.319500
2.089264;0.005157;-1.451880;-0.117720;-9.182160
2.094421;0.005157;-1.393020;-0.176580;-9.221400
2.099579;0.005157;-1.236060;-0.215820;-9.319500
2.104736;0.005157;-1.000620;-0.235440;-9.437220
2.109894;0.005157;-0.745560;-0.392400;-9.594180
2.115051;0.005157;-0.608220;-0.529740;-9.574560
2.120178;0.005127;-0.510120;-0.568980;-9.515700
2.125336;0.005157;-0.588600;-0.549360;-9.574560
2.130493;0.005157;-0.706320;-0.431640;-9.692280
2.135651;0.005157;-0.922140;-0.431640;-9.653040
2.140808;0.005157;-1.039860;-0.372780;-9.653040
2.145966;0.005157;-1.059480;-0.274680;-9.613800
2.151123;0.005157;-1.059480;-0.176580;-9.672660
2.156281;0.005157;-0.922140;-0.098100;-9.829620
2.161438;0.005157;-0.941760;-0.137340;-9.692280
2.166595;0.005157;-1.000620;-0.156960;-9.613800
2.171753;0.005157;-1.157580;-0.274680;-9.672660
2.176910;0.005157;-1.118340;-0.333540;-9.613800
2.182068;0.005157;-1.098720;-0.313920;-9.613800
2.187225;0.005157;-1.020240;-0.333540;-9.653040
2.192383;0.005157;-0.961380;-0.372780;-9.653040
2.197540;0.005157;-1.059480;-0.353160;-9.535320
2.202698;0.005157;-1.255680;-0.313920;-9.299880
2.207855;0.005157;-1.589220;-0.215820;-9.025200
2.213013;0.005157;-1.765800;-0.098100;-8.848620
2.218140;0.005127;-1.863900;0.078480;-8.966340
2.223297;0.005157;-1.981620;0.156960;-9.142920
2.228455;0.005157;-1.942380;0.098100;-9.162540
2.233612;0.005157;-1.903140;0.078480;-9.358740
2.238770;0.005157;-1.844280;0.235440;-9.476460
2.243927;0.005157;-1.589220;0.078480;-9.770760
2.249084;0.005157;-1.471500;-0.215820;-9.966960
2.254242;0.005157;-1.294920;-0.058860;-10.065060
2.259399;0.005157;-1.373400;-0.039240;-10.182780
2.264557;0.005157;-1.667700;-0.196200;-10.104300
2.269714;0.005157;-1.962000;-0.019620;-10.045440
2.274872;0.005157;-2.197440;0.078480;-10.045440
2.279999;0.005127;-2.354400;-0.039240;-9.966960
2.285187;0.005188;-2.275920;-0.117720;-9.927720
2.290314;0.005127;-2.138580;-0.137340;-9.947340
2.295471;0.005157;-1.981620;-0.235440;-10.045440
2.300629;0.005157;-1.863900;-0.255060;-10.261260
2.305786;0.005157;-1.785420;-0.255060;-10.457460
2.310944;0.005157;-1.805040;-0.235440;-10.516320
2.316101;0.005157;-1.687320;-0.235440;-10.339740
2.321259;0.005157;-1.608840;-0.215820;-10.222020
2.326416;0.005157;-1.530360;-0.235440;-10.182780
2.331573;0.005157;-1.765800;-0.137340;-10.006200
2.336731;0.005157;-1.706940;-0.745560;-9.947340
2.341888;0.005157;-1.922760;-0.156960;-10.614420
2.347046;0.005157;-2.138580;0.000000;-9.908100
2.352173;0.005127;-2.275920;-0.137340;-9.280260
2.357330;0.005157;-2.393640;-0.156960;-8.848620
2.362488;0.005157;-2.275920;0.117720;-8.672040
2.367645;0.005157;-1.962000;0.019620;-8.691660
2.372803;0.005157;-1.726560;-0.117720;-8.809380
2.377960;0.005157;-1.549980;-0.117720;-8.946720
2.383118;0.005157;-1.589220;-0.019620;-9.182160
2.388275;0.005157;-1.785420;-0.137340;-9.476460
2.393433;0.005157;-1.844280;-0.196200;-9.554940
2.398590;0.005157;-1.903140;-0.196200;-9.711900
2.403748;0.005157;-1.962000;-0.196200;-9.849240
2.408905;0.005157;-2.040480;-0.137340;-9.986580
2.414062;0.005157;-2.217060;-0.137340;-10.104300
2.419220;0.005157;-2.472120;-0.255060;-10.437840
2.424377;0.005157;-2.589840;-0.235440;-10.869480
2.429535;0.005157;-2.746800;-0.196200;-11.379600
2.434662;0.005127;-2.648700;-0.274680;-11.889720
2.439819;0.005157;-2.236680;-0.451260;-12.027060
2.444977;0.005157;-1.863900;-0.608220;-11.948580
2.450134;0.005157;-1.491120;-0.490500;-11.850480
2.455292;0.005157;-1.353780;-0.392400;-11.654280
2.460449;0.005157;-1.137960;-0.568980;-11.497320
2.465607;0.005157;-1.314540;-0.608220;-11.615040
2.470764;0.005157;-1.608840;-0.490500;-11.359980
2.475922;0.005157;-1.844280;-0.490500;-10.967580
2.481079;0.005157;-1.903140;-0.647460;-10.418220
2.486237;0.005157;-2.040480;-0.745560;-10.143540
2.491394;0.005157;-2.295540;-0.745560;-9.868860
2.496552;0.005157;-2.374020;-0.745560;-9.810000
2.501709;0.005157;-1.981620;-0.863280;-9.849240
2.506866;0.005157;-1.608840;-0.922140;-10.163160
2.512024;0.005157;-1.628460;-0.647460;-10.575180
2.517181;0.005157;-1.981620;-0.725940;-10.575180
2.522339;0.005157;-2.256300;-0.804420;-10.261260
2.527496;0.005157;-2.315160;-0.863280;-10.006200
2.532654;0.005157;-2.629080;-1.079100;-9.810000
2.537811;0.005157;-2.629080;-0.981000;-9.829620
2.542969;0.005157;-2.491740;-1.079100;-9.692280
2.548126;0.005157;-2.099340;-1.255680;-9.653040
2.553284;0.005157;-1.667700;-1.530360;-9.711900
2.558441;0.005157;-1.353780;-1.667700;-10.065060
2.563599;0.005157;-1.334160;-1.844280;-10.143540
2.568756;0.005157;-1.275300;-1.962000;-10.241640
2.573914;0.005157;-1.216440;-1.962000;-10.378980
2.579071;0.005157;-1.334160;-1.805040;-10.614420
2.584229;0.005157;-1.314540;-1.687320;-10.673280
2.589386;0.005157;-1.236060;-1.903140;-10.594800
2.594513;0.005127;-1.098720;-1.942380;-10.477080
2.599670;0.005157;-1.137960;-1.883520;-10.320120
2.604828;0.005157;-1.196820;-1.883520;-10.241640
2.609985;0.005157;-1.216440;-1.922760;-10.123920
2.615143;0.005157;-1.177200;-2.060100;-10.143540
2.620300;0.005157;-1.177200;-2.118960;-10.222020
2.625458;0.005157;-1.275300;-2.138580;-10.359360
2.630615;0.005157;-1.275300;-2.158200;-10.378980
2.635773;0.005157;-1.373400;-2.236680;-10.418220
2.640930;0.005157;-1.608840;-2.099340;-10.378980
2.646088;0.005157;-1.648080;-1.981620;-10.222020
2.651245;0.005157;-1.765800;-1.883520;-10.163160
2.656403;0.005157;-2.001240;-1.785420;-10.222020
2.661560;0.005157;-2.275920;-1.608840;-10.163160
2.666718;0.005157;-2.413260;-1.589220;-10.163160
2.671875;0.005157;-2.589840;-1.491120;-10.104300
2.677032;0.005157;-2.884140;-1.589220;-9.966960
2.682190;0.005157;-3.198060;-1.589220;-9.849240
2.687347;0.005157;-3.178440;-1.549980;-9.711900
2.692505;0.005157;-2.962620;-1.491120;-9.692280
2.697662;0.005157;-3.041100;-1.510740;-9.613800
2.702820;0.005157;-3.041100;-1.491120;-9.613800
2.707977;0.005157;-2.923380;-1.471500;-9.653040
2.713135;0.005157;-2.786040;-1.373400;-9.770760
2.718292;0.005157;-2.746800;-1.471500;-9.966960
2.723450;0.005157;-2.825280;-1.569600;-10.163160
2.728607;0.005157;-2.786040;-1.648080;-10.241640
2.733765;0.005157;-2.805660;-1.824660;-10.359360
2.738892;0.005127;-2.746800;-1.962000;-10.320120
2.744049;0.005157;-2.687940;-2.020860;-10.241640
2.749207;0.005157;-2.727180;-2.158200;-10.182780
2.754364;0.005157;-2.766420;-2.177820;-9.966960
2.759521;0.005157;-2.884140;-2.217060;-9.829620
2.764679;0.005157;-3.119580;-2.236680;-9.849240
2.769836;0.005157;-3.217680;-2.275920;-10.025820
2.774994;0.005157;-3.296160;-2.315160;-10.261260
2.780151;0.005157;-3.433500;-2.295540;-10.398600
2.785309;0.005157;-3.511980;-2.138580;-10.516320
2.790466;0.005157;-3.590460;-2.040480;-10.575180
2.795624;0.005157;-3.629700;-2.099340;-10.653660
2.800781;0.005157;-3.649320;-2.217060;-10.594800
2.805908;0.005127;-3.610080;-2.236680;-10.673280
2.811066;0.005157;-3.590460;-2.236680;-10.614420
2.816223;0.005157;-3.668940;-2.256300;-10.535940
2.821381;0.005157;-3.629700;-2.295540;-10.477080
2.826538;0.005157;-3.649320;-2.256300;-10.320120
2.831696;0.005157;-3.786660;-2.236680;-10.222020
2.836853;0.005157;-3.982860;-2.197440;-10.143540
2.842010;0.005157;-3.963240;-2.118960;-10.261260
2.847168;0.005157;-3.982860;-2.099340;-10.418220
2.852325;0.005157;-3.924000;-2.236680;-10.634040
2.857483;0.005157;-3.884760;-2.374020;-10.947960
2.862640;0.005157;-3.767040;-2.589840;-11.124540
2.867798;0.005157;-3.668940;-2.727180;-11.144160
2.872955;0.005157;-3.335400;-2.844900;-11.281500
2.878113;0.005157;-2.786040;-3.001860;-11.418840
2.883270;0.005157;-2.315160;-3.276540;-11.379600
2.888397;0.005127;-2.040480;-3.453120;-11.183400
2.893585;0.005188;-1.922760;-3.453120;-11.026440
2.898712;0.005127;-1.824660;-3.511980;-11.065680
2.903900;0.005188;-1.491120;-3.668940;-11.163780
2.909058;0.005157;-1.177200;-3.668940;-11.379600
2.914215;0.005157;-0.686700;-3.668940;-11.634660
2.919342;0.005127;-0.353160;-3.727800;-11.595420
2.924500;0.005157;-0.196200;-3.845520;-11.261880
2.929657;0.005157;-0.333540;-3.767040;-10.869480
2.934845;0.005188;-0.451260;-3.649320;-10.535940
2.940002;0.005157;-0.431640;-3.511980;-10.261260
2.945160;0.005157;-0.470880;-3.472740;-10.045440
2.950287;0.005127;-0.647460;-3.394260;-9.966960
2.955475;0.005188;-1.020240;-3.237300;-9.908100
2.960632;0.005157;-1.373400;-3.041100;-9.829620
2.965790;0.005157;-1.628460;-2.766420;-9.927720
2.970947;0.005157;-1.765800;-2.786040;-9.986580
2.976105;0.005157;-1.844280;-2.550600;-9.986580
2.981262;0.005157;-1.981620;-2.354400;-10.045440
2.986420;0.005157;-2.079720;-2.295540;-10.065060
2.991577;0.005157;-2.197440;-2.158200;-9.927720
2.996735;0.005157;-2.295540;-2.001240;-9.868860
3.001892;0.005157;-2.432880;-1.863900;-9.731520
3.007050;0.005157;-2.746800;-1.706940;-9.672660
3.012177;0.005127;-3.041100;-1.432260;-9.633420
3.017334;0.005157;-3.158820;-1.196820;-9.594180
3.022522;0.005188;-3.178440;-1.000620;-9.751140
3.027649;0.005127;-3.060720;-1.177200;-9.888480
3.032806;0.005157;-2.903760;-1.412640;-10.084680
3.037964;0.005157;-2.491740;-1.491120;-10.182780
3.043121;0.005157;-2.256300;-1.687320;-10.261260
3.048279;0.005157;-2.138580;-1.883520;-10.202400
3.053436;0.005157;-2.138580;-1.922760;-10.143540
3.058594;0.005157;-2.079720;-1.962000;-10.025820
3.063751;0.005157;-1.962000;-2.001240;-9.986580
3.068909;0.005157;-1.687320;-2.099340;-10.045440
3.074066;0.005157;-1.412640;-2.177820;-10.143540
3.079224;0.005157;-1.314540;-2.177820;-10.222020
3.084381;0.005157;-1.314540;-2.256300;-10.025820
3.089539;0.005157;-1.432260;-2.197440;-9.947340
3.094696;0.005157;-1.510740;-2.020860;-9.947340
3.099854;0.005157;-1.589220;-1.824660;-9.908100
3.105011;0.005157;-1.451880;-1.824660;-9.908100
3.110168;0.005157;-1.530360;-1.706940;-9.711900
3.115326;0.005157;-1.569600;-1.589220;-9.633420
3.120483;0.005157;-1.805040;-1.491120;-9.594180
3.125641;0.005157;-1.922760;-1.373400;-9.653040
3.130798;0.005157;-1.863900;-1.373400;-9.672660
3.135956;0.005157;-1.805040;-1.432260;-9.770760
3.141113;0.005157;-1.805040;-1.589220;-9.888480
3.146271;0.005157;-1.883520;-1.687320;-9.947340
3.151428;0.005157;-1.746180;-1.824660;-10.143540
3.156586;0.005157;-1.471500;-2.040480;-10.634040
3.161743;0.005157;-1.294920;-2.177820;-11.144160
3.166901;0.005157;-1.157580;-2.177820;-11.359980
3.172058;0.005157;-1.079100;-2.374020;-11.222640
3.177216;0.005157;-1.137960;-2.295540;-11.222640
3.182343;0.005127;-1.079100;-2.138580;-11.497320
3.187500;0.005157;-1.216440;-2.334780;-11.046060
3.192657;0.005157;-1.275300;-2.256300;-10.810620
3.197815;0.005157;-1.177200;-2.099340;-10.555560
3.202972;0.005157;-1.098720;-1.942380;-10.477080
3.208130;0.005157;-1.098720;-1.942380;-10.418220
3.213287;0.005157;-1.255680;-1.785420;-10.378980
3.218445;0.005157;-1.510740;-1.667700;-10.202400
3.223602;0.005157;-1.667700;-1.589220;-10.123920
3.228760;0.005157;-1.687320;-1.510740;-10.280880
3.233917;0.005157;-1.549980;-1.608840;-10.378980
3.239075;0.005157;-1.432260;-1.549980;-10.496700
3.244232;0.005157;-1.608840;-1.628460;-10.280880
3.249390;0.005157;-1.687320;-1.785420;-10.025820
3.254547;0.005157;-1.608840;-1.805040;-9.908100
3.259705;0.005157;-1.510740;-1.844280;-9.908100
3.264862;0.005157;-1.510740;-1.922760;-9.908100
3.269989;0.005127;-1.569600;-1.844280;-9.986580
3.275146;0.005157;-1.667700;-1.648080;-10.084680
3.280304;0.005157;-1.648080;-1.549980;-10.123920
3.285461;0.005157;-1.530360;-1.510740;-10.182780
3.290619;0.005157;-1.471500;-1.451880;-10.182780
3.295776;0.005157;-1.432260;-1.471500;-10.222020
3.300934;0.005157;-1.510740;-1.569600;-10.280880
3.306091;0.005157;-1.530360;-1.471500;-10.398600
3.311249;0.005157;-1.569600;-1.471500;-10.202400
3.316406;0.005157;-1.667700;-1.510740;-9.986580
3.321564;0.005157;-1.726560;-1.648080;-9.790380
3.326721;0.005157;-1.687320;-1.628460;-9.770760
3.331879;0.005157;-1.785420;-1.510740;-10.006200
3.337036;0.005157;-1.883520;-1.549980;-10.084680
3.342194;0.005157;-2.060100;-1.667700;-9.966960
3.347351;0.005157;-2.177820;-1.569600;-9.986580
3.352509;0.005157;-2.197440;-1.471500;-10.065060
3.357666;0.005157;-2.138580;-1.353780;-10.143540
3.362823;0.005157;-2.079720;-1.275300;-10.261260
3.367981;0.005157;-2.158200;-1.275300;-10.320120
3.373138;0.005157;-2.256300;-1.314540;-10.280880
3.378296;0.005157;-2.079720;-1.373400;-10.320120
3.383453;0.005157;-2.040480;-1.393020;-10.320120
3.388611;0.005157;-1.922760;-1.491120;-10.202400
3.393768;0.005157;-1.883520;-1.569600;-10.104300
3.398926;0.005157;-1.903140;-1.510740;-9.947340
3.404083;0.005157;-1.981620;-1.471500;-9.986580
3.409241;0.005157;-1.942380;-1.393020;-9.966960
3.414398;0.005157;-1.981620;-1.412640;-9.849240
3.419556;0.005157;-2.001240;-1.353780;-9.908100
3.424713;0.005157;-2.079720;-1.412640;-10.006200
3.429871;0.005157;-2.099340;-1.412640;-10.202400
3.435028;0.005157;-1.863900;-1.589220;-10.320120
3.440186;0.005157;-1.706940;-1.706940;-10.477080
3.445343;0.005157;-1.628460;-1.785420;-10.496700
3.450500;0.005157;-1.589220;-1.844280;-10.437840
3.455658;0.005157;-1.549980;-1.805040;-10.555560
3.460815;0.005157;-1.373400;-1.844280;-10.477080
3.465973;0.005157;-1.275300;-1.824660;-10.496700
3.471130;0.005157;-1.393020;-1.687320;-10.516320
3.476288;0.005157;-1.294920;-1.962000;-10.398600
3.481445;0.005157;-1.373400;-1.706940;-10.222020
3.486603;0.005157;-1.608840;-1.569600;-10.202400
3.491760;0.005157;-1.805040;-1.510740;-10.025820
3.496918;0.005157;-2.079720;-1.314540;-9.849240
3.502075;0.005157;-2.275920;-1.216440;-9.927720
3.507202;0.005127;-2.315160;-1.098720;-10.006200
3.512360;0.005157;-2.413260;-0.941760;-10.006200
3.517517;0.005157;-2.511360;-0.961380;-9.849240
3.522675;0.005157;-2.413260;-0.922140;-9.829620
3.527832;0.005157;-2.275920;-0.922140;-9.810000
3.532990;0.005157;-2.334780;-0.961380;-9.986580
3.538147;0.005157;-2.354400;-1.059480;-10.084680
3.543304;0.005157;-2.295540;-0.882900;-10.065060
3.548462;0.005157;-2.177820;-1.079100;-9.888480
3.553619;0.005157;-1.942380;-1.137960;-9.908100
3.558777;0.005157;-1.903140;-1.275300;-10.006200
3.563934;0.005157;-1.922760;-1.177200;-10.202400
3.569092;0.005157;-1.726560;-1.314540;-10.378980
3.574249;0.005157;-1.510740;-1.412640;-10.398600
3.579407;0.005157;-1.451880;-1.432260;-10.437840
3.584564;0.005157;-1.412640;-1.451880;-10.300500
3.589722;0.005157;-1.255680;-1.451880;-10.222020
3.594879;0.005157;-1.255680;-1.412640;-10.339740
3.600037;0.005157;-1.294920;-1.314540;-10.418220
3.605194;0.005157;-1.314540;-1.393020;-10.378980
3.610352;0.005157;-1.236060;-1.432260;-10.378980
3.615509;0.005157;-1.216440;-1.530360;-10.339740
3.620667;0.005157;-1.294920;-1.648080;-10.339740
3.625824;0.005157;-1.412640;-1.648080;-10.437840
3.630981;0.005157;-1.589220;-1.412640;-10.555560
3.636139;0.005157;-1.726560;-1.353780;-10.692900
3.641296;0.005157;-1.765800;-1.294920;-10.594800
3.646454;0.005157;-1.765800;-1.451880;-10.477080
3.651611;0.005157;-1.510740;-1.236060;-10.535940
3.656738;0.005127;-1.255680;-1.314540;-10.496700
3.661896;0.005157;-1.236060;-1.510740;-10.300500
3.667053;0.005157;-1.334160;-1.451880;-10.280880
3.672211;0.005157;-1.510740;-1.412640;-10.261260
3.677368;0.005157;-1.412640;-1.353780;-10.222020
3.682526;0.005157;-1.314540;-1.373400;-10.261260
3.687683;0.005157;-1.294920;-1.432260;-10.123920
3.692841;0.005157;-1.353780;-1.157580;-10.222020
3.697998;0.005157;-1.569600;-1.098720;-10.182780
3.703156;0.005157;-1.628460;-1.177200;-10.104300
3.708313;0.005157;-1.491120;-1.177200;-10.065060
3.713470;0.005157;-1.373400;-1.177200;-10.104300
3.718628;0.005157;-1.471500;-1.157580;-10.280880
3.723785;0.005157;-1.549980;-1.098720;-10.222020
3.728943;0.005157;-1.628460;-1.079100;-9.986580
3.734100;0.005157;-1.706940;-1.039860;-9.711900
3.739258;0.005157;-1.805040;-0.882900;-9.711900
3.744415;0.005157;-1.824660;-0.843660;-9.633420
3.749573;0.005157;-1.824660;-0.725940;-9.633420
3.754730;0.005157;-1.824660;-0.706320;-9.554940
3.759888;0.005157;-1.844280;-0.765180;-9.633420
3.765045;0.005157;-1.863900;-0.706320;-9.692280
3.770203;0.005157;-1.785420;-0.706320;-9.868860
3.775360;0.005157;-1.706940;-0.686700;-10.045440
3.780487;0.005127;-1.491120;-0.784800;-10.241640
3.785645;0.005157;-1.491120;-0.941760;-10.163160
3.790802;0.005157;-1.471500;-1.039860;-10.143540
3.795959;0.005157;-1.412640;-1.039860;-10.182780
3.801117;0.005157;-1.373400;-1.020240;-10.163160
3.806274;0.005157;-1.412640;-1.020240;-10.065060
3.811432;0.005157;-1.432260;-0.961380;-10.006200
3.816589;0.005157;-1.236060;-0.922140;-10.143540
3.821747;0.005157;-1.294920;-0.902520;-10.222020
3.826904;0.005157;-1.236060;-0.961380;-10.222020
3.832062;0.005157;-1.098720;-1.098720;-10.104300
3.837219;0.005157;-1.098720;-1.255680;-10.084680
3.842377;0.005157;-1.079100;-1.451880;-10.104300
3.847534;0.005157;-1.039860;-1.432260;-10.163160
3.852692;0.005157;-0.981000;-1.373400;-10.241640
3.857849;0.005157;-0.941760;-1.432260;-10.104300
3.863007;0.005157;-1.059480;-1.393020;-10.065060
3.868134;0.005127;-1.137960;-1.314540;-10.025820
3.873291;0.005157;-1.216440;-1.353780;-10.025820
3.878448;0.005157;-1.353780;-1.334160;-10.025820
3.883606;0.005157;-1.471500;-1.236060;-10.025820
3.888763;0.005157;-1.471500;-1.098720;-10.065060
3.893921;0.005157;-1.393020;-0.941760;-10.006200
3.899078;0.005157;-1.393020;-1.020240;-9.810000
3.904236;0.005157;-1.412640;-1.020240;-9.810000
3.909424;0.005188;-1.471500;-0.882900;-10.025820
3.914581;0.005157;-1.549980;-0.784800;-10.104300
3.919708;0.005127;-1.432260;-0.941760;-10.104300
3.924866;0.005157;-1.432260;-1.020240;-10.065060
3.930023;0.005157;-1.471500;-1.020240;-10.006200
3.935181;0.005157;-1.549980;-1.039860;-9.986580
3.940338;0.005157;-1.726560;-1.020240;-9.849240
3.945496;0.005157;-1.648080;-1.098720;-9.888480
3.950653;0.005157;-1.569600;-1.098720;-10.006200
3.955811;0.005157;-1.432260;-1.137960;-10.143540
3.960968;0.005157;-1.255680;-1.255680;-10.320120
3.966125;0.005157;-1.236060;-1.216440;-10.418220
3.971283;0.005157;-1.196820;-1.098720;-10.398600
3.976440;0.005157;-1.236060;-0.981000;-10.222020
3.981598;0.005157;-1.314540;-0.941760;-10.123920
3.986755;0.005157;-1.393020;-0.882900;-10.241640
3.991913;0.005157;-1.393020;-0.882900;-10.123920
3.997070;0.005157;-1.412640;-0.902520;-10.261260
4.002228;0.005157;-1.334160;-0.824040;-10.418220
4.007385;0.005157;-1.314540;-0.765180;-10.555560
4.012543;0.005157;-1.334160;-0.804420;-10.614420
4.017700;0.005157;-1.373400;-0.941760;-10.516320
4.022858;0.005157;-1.373400;-0.941760;-10.437840
4.028015;0.005157;-1.412640;-0.941760;-10.457460
4.033173;0.005157;-1.353780;-0.902520;-10.555560
4.038330;0.005157;-1.314540;-0.961380;-10.634040
4.043488;0.005157;-1.294920;-0.902520;-10.712520
4.048645;0.005157;-1.275300;-0.922140;-10.751760
4.053802;0.005157;-1.294920;-0.843660;-10.692900
4.058929;0.005127;-1.294920;-0.824040;-10.634040
4.064087;0.005157;-1.255680;-0.745560;-10.437840
4.069244;0.005157;-1.275300;-0.627840;-10.143540
4.074402;0.005157;-1.334160;-0.588600;-9.966960
4.079559;0.005157;-1.412640;-0.510120;-9.966960
4.084717;0.005157;-1.412640;-0.549360;-9.966960
4.089874;0.005157;-1.334160;-0.647460;-10.025820
4.095032;0.005157;-1.196820;-0.725940;-10.143540
4.100189;0.005157;-0.941760;-0.804420;-10.202400
4.105347;0.005157;-0.882900;-0.843660;-10.123920
4.110504;0.005157;-0.961380;-0.902520;-10.045440
4.115662;0.005157;-1.000620;-0.882900;-10.045440
4.120819;0.005157;-1.039860;-0.922140;-10.045440
4.125977;0.005157;-1.098720;-0.961380;-9.927720
4.131134;0.005157;-1.098720;-0.902520;-10.006200
4.136292;0.005157;-1.000620;-0.843660;-10.065060
4.141449;0.005157;-1.000620;-0.725940;-10.202400
4.146606;0.005157;-0.961380;-0.745560;-10.320120
4.151764;0.005157;-1.020240;-0.784800;-10.241640
4.156921;0.005157;-1.098720;-0.784800;-10.045440
4.162079;0.005157;-1.118340;-0.882900;-9.947340
4.167236;0.005157;-1.059480;-0.902520;-9.966960
4.172394;0.005157;-1.000620;-0.981000;-9.966960
4.177551;0.005157;-1.059480;-0.941760;-10.045440
4.182709;0.005157;-1.059480;-0.922140;-10.104300
4.187866;0.005157;-1.118340;-0.922140;-9.947340
4.193024;0.005157;-1.177200;-1.000620;-9.849240
4.198181;0.005157;-1.157580;-1.000620;-9.927720
4.203339;0.005157;-1.157580;-0.941760;-9.986580
4.208496;0.005157;-1.137960;-0.863280;-10.182780
4.213654;0.005157;-1.039860;-1.000620;-10.182780
4.218811;0.005157;-0.882900;-0.922140;-10.045440
4.223969;0.005157;-0.804420;-0.902520;-10.006200
4.229126;0.005157;-0.804420;-0.882900;-10.065060
4.234283;0.005157;-0.902520;-0.804420;-10.123920
4.239441;0.005157;-1.039860;-0.686700;-10.123920
4.244598;0.005157;-1.236060;-0.627840;-10.006200
4.249756;0.005157;-1.353780;-0.568980;-9.947340
4.254913;0.005157;-1.491120;-0.529740;-10.123920
4.260071;0.005157;-1.451880;-0.431640;-10.437840
4.265228;0.005157;-1.491120;-0.412020;-10.398600
4.270386;0.005157;-1.549980;-0.549360;-10.418220
4.275543;0.005157;-1.510740;-0.568980;-10.535940
4.280701;0.005157;-1.412640;-0.588600;-10.535940
4.285858;0.005157;-1.294920;-0.686700;-10.457460
4.290985;0.005127;-1.216440;-0.706320;-10.202400
4.296143;0.005157;-1.216440;-0.706320;-10.006200
4.301300;0.005157;-1.216440;-0.588600;-9.986580
4.306458;0.005157;-1.314540;-0.510120;-9.966960
4.311615;0.005157;-1.334160;-0.470880;-9.829620
4.316772;0.005157;-1.353780;-0.490500;-9.810000
4.321930;0.005157;-1.118340;-0.667080;-9.966960
4.327087;0.005157;-0.765180;-0.804420;-10.261260
4.332245;0.005157;-0.647460;-0.961380;-10.535940
4.337402;0.005157;-0.549360;-1.118340;-10.477080
4.342560;0.005157;-0.353160;-1.216440;-10.378980
4.347717;0.005157;-0.490500;-1.236060;-10.359360
4.352844;0.005127;-0.745560;-1.079100;-10.359360
4.358002;0.005157;-0.941760;-0.765180;-10.280880
4.363159;0.005157;-1.059480;-0.706320;-10.084680
4.368317;0.005157;-1.236060;-0.588600;-10.006200
4.373474;0.005157;-1.432260;-0.412020;-9.908100
4.378632;0.005157;-1.432260;-0.255060;-9.633420
4.383789;0.005157;-1.471500;-0.215820;-9.574560
4.388947;0.005157;-1.491120;-0.255060;-9.535320
4.394104;0.005157;-1.412640;-0.333540;-9.554940
4.399261;0.005157;-1.294920;-0.490500;-9.554940
4.404388;0.005127;-1.177200;-0.627840;-9.810000
4.409546;0.005157;-1.137960;-0.686700;-10.065060
4.414703;0.005157;-1.118340;-0.647460;-10.065060
4.419861;0.005157;-1.118340;-0.549360;-10.045440
4.425018;0.005157;-1.294920;-0.392400;-10.025820
4.430176;0.005157;-1.628460;-0.274680;-9.868860
4.435333;0.005157;-1.667700;-0.196200;-9.770760
4.440491;0.005157;-1.726560;-0.098100;-9.574560
4.445648;0.005157;-1.746180;-0.078480;-9.515700
4.450806;0.005157;-1.667700;-0.156960;-9.594180
4.455963;0.005157;-1.648080;-0.215820;-9.731520
4.461121;0.005157;-1.451880;-0.353160;-9.849240
4.466278;0.005157;-1.196820;-0.588600;-9.986580
4.471405;0.005127;-1.118340;-0.725940;-10.084680
4.476562;0.005157;-1.196820;-0.647460;-10.222020
4.481750;0.005188;-1.137960;-0.627840;-10.241640
4.486908;0.005157;-1.059480;-0.745560;-10.300500
4.492035;0.005127;-1.216440;-0.706320;-10.437840
4.497192;0.005157;-1.255680;-0.627840;-10.535940
4.502350;0.005157;-1.137960;-0.588600;-10.418220
4.507507;0.005157;-0.961380;-0.706320;-10.182780
4.512665;0.005157;-0.804420;-0.843660;-10.065060
4.517822;0.005157;-0.588600;-0.882900;-10.084680
4.522980;0.005157;-0.568980;-0.882900;-10.300500
4.528137;0.005157;-0.588600;-0.902520;-10.320120
4.533295;0.005157;-0.647460;-0.902520;-10.300500
4.538452;0.005157;-0.725940;-0.843660;-10.280880
4.543610;0.005157;-0.843660;-0.784800;-10.182780
4.548767;0.005157;-0.824040;-0.706320;-10.202400
4.553925;0.005157;-0.922140;-0.706320;-10.241640
4.559082;0.005157;-0.941760;-0.706320;-10.222020
4.564240;0.005157;-0.941760;-0.745560;-10.222020
4.569397;0.005157;-0.882900;-0.804420;-10.261260
4.574554;0.005157;-0.824040;-0.863280;-10.320120
4.579681;0.005127;-0.843660;-0.922140;-10.300500
4.584869;0.005188;-0.863280;-0.902520;-10.437840
4.589996;0.005127;-0.922140;-0.824040;-10.398600
4.595154;0.005157;-0.863280;-0.784800;-10.378980
4.600311;0.005157;-0.804420;-0.804420;-10.280880
4.605469;0.005157;-0.745560;-0.863280;-10.300500
4.610626;0.005157;-0.804420;-0.804420;-10.378980
4.615784;0.005157;-0.922140;-0.725940;-10.320120
4.620941;0.005157;-0.941760;-0.627840;-10.300500
4.626099;0.005157;-0.981000;-0.647460;-10.261260
4.631256;0.005157;-1.059480;-0.608220;-10.261260
4.636414;0.005157;-1.020240;-0.549360;-10.241640
4.641571;0.005157;-1.020240;-0.529740;-10.261260
4.646729;0.005157;-1.039860;-0.470880;-10.163160
4.651886;0.005157;-0.941760;-0.529740;-10.163160
4.657043;0.005157;-0.843660;-0.588600;-10.104300
4.662201;0.005157;-0.745560;-0.667080;-10.163160
4.667358;0.005157;-0.588600;-0.706320;-10.241640
4.672516;0.005157;-0.549360;-0.824040;-10.378980
4.677673;0.005157;-0.608220;-0.765180;-10.477080
4.682831;0.005157;-0.627840;-0.706320;-10.575180
4.687988;0.005157;-0.745560;-0.745560;-10.496700
4.693146;0.005157;-0.981000;-0.686700;-10.496700
4.698303;0.005157;-1.118340;-0.510120;-10.535940
4.703461;0.005157;-1.177200;-0.412020;-10.437840
4.708618;0.005157;-1.098720;-0.372780;-10.378980
4.713776;0.005157;-0.941760;-0.667080;-10.222020
4.718933;0.005157;-0.882900;-0.470880;-10.084680
4.724091;0.005157;-0.902520;-0.451260;-10.182780
4.729248;0.005157;-1.020240;-0.490500;-9.986580
4.734406;0.005157;-1.118340;-0.529740;-9.947340
4.739532;0.005127;-1.177200;-0.353160;-9.868860
4.744690;0.005157;-1.275300;-0.392400;-9.692280
4.749847;0.005157;-1.451880;-0.353160;-9.672660
4.755005;0.005157;-1.510740;-0.215820;-9.633420
4.760162;0.005157;-1.903140;-0.215820;-9.241020
4.765320;0.005157;-1.648080;-0.058860;-9.201780
4.770477;0.005157;-1.314540;0.019620;-9.280260
4.775635;0.005157;-1.196820;0.156960;-9.613800
4.780792;0.005157;-1.000620;0.176580;-10.065060
4.785950;0.005157;-0.725940;0.549360;-9.437220
4.791107;0.005157;-0.313920;-0.608220;-8.495460
4.796265;0.005157;0.313920;-1.373400;-8.711280
4.801422;0.005157;1.079100;-0.470880;-8.338500
4.806580;0.005157;1.667700;-0.392400;-8.593560
4.811737;0.005157;5.415120;2.550600;-8.024580
4.816895;0.005157;5.081580;2.550600;-4.865760
4.822052;0.005157;2.256300;1.373400;-2.550600
4.827209;0.005157;0.784800;0.745560;-1.373400
4.832367;0.005157;0.058860;0.431640;-0.863280
4.837524;0.005157;-0.255060;0.215820;-0.608220
4.842682;0.005157;-0.470880;0.196200;-0.431640
4.847839;0.005157;-0.529740;0.156960;-0.333540
4.852997;0.005157;-0.510120;0.137340;-0.274680
4.858154;0.005157;-0.549360;0.137340;-0.235440
4.863312;0.005157;-0.588600;0.156960;-0.294300
4.868439;0.005127;-0.588600;0.176580;-0.274680
4.873596;0.005157;-0.608220;0.137340;-0.255060
4.878754;0.005157;-0.608220;0.156960;-0.255060
4.883911;0.005157;-0.608220;0.117720;-0.313920
4.889069;0.005157;-0.608220;0.156960;-0.274680
4.894226;0.005157;-0.647460;0.137340;-0.274680
4.899384;0.005157;-0.667080;0.137340;-0.294300
4.904541;0.005157;-0.627840;0.156960;-0.294300
4.909698;0.005157;-0.588600;0.098100;-0.274680
4.914856;0.005157;-0.568980;0.137340;-0.235440
4.920013;0.005157;-0.627840;0.098100;-0.255060
4.925171;0.005157;-0.588600;0.156960;-0.274680
4.930328;0.005157;-0.568980;0.117720;-0.333540
4.935486;0.005157;-0.568980;0.098100;-0.313920
4.940643;0.005157;-0.490500;0.117720;-0.274680
4.945801;0.005157;-0.490500;0.117720;-0.333540
4.950958;0.005157;-0.490500;0.117720;-0.333540
4.956116;0.005157;-0.568980;0.117720;-0.313920
4.961273;0.005157;-0.647460;0.156960;-0.255060
4.966431;0.005157;-0.549360;0.058860;-0.294300
4.971588;0.005157;-0.549360;0.019620;-0.255060
4.976746;0.005157;-0.568980;0.019620;-0.294300
4.981903;0.005157;-0.608220;0.019620;-0.294300
4.987061;0.005157;-0.647460;0.019620;-0.294300
4.992218;0.005157;-0.647460;0.039240;-0.274680
4.997345;0.005127;-0.627840;0.039240;-0.274680
5.002502;0.005157;-0.647460;0.058860;-0.372780
5.007660;0.005157;-0.667080;0.039240;-0.353160
5.012817;0.005157;-0.627840;0.039240;-0.313920
5.017975;0.005157;-0.588600;0.019620;-0.333540
5.023132;0.005157;-0.627840;0.019620;-0.274680
5.028290;0.005157;19.698480;-19.933920;19.875060
5.033447;0.005157;5.473980;-2.118960;20.934540
5.038605;0.005157;-1.157580;6.396120;11.948580
5.043762;0.005157;-5.061960;10.751760;6.729660
5.048920;0.005157;-7.671420;13.145400;4.453740
5.054077;0.005157;-9.476460;14.479560;3.551220
5.059235;0.005157;-10.869480;15.185880;3.315780
5.064392;0.005157;-12.007440;15.499800;3.355020
5.069550;0.005157;-12.831480;15.656760;3.590460
5.074707;0.005157;-13.420080;15.617520;3.904380
5.079865;0.005157;-13.792860;15.480180;4.159440
5.085022;0.005157;-13.773240;15.382080;4.414500
5.090179;0.005157;-13.616280;15.146640;4.610700
5.095337;0.005157;-13.223880;14.891580;4.865760
5.100494;0.005157;-12.635280;14.538420;5.101200
5.105652;0.005157;-11.909340;14.047920;5.218920
5.110809;0.005157;-10.987200;13.478940;5.434740
5.115967;0.005157;-10.182780;12.674520;5.689800
5.121124;0.005157;-6.003720;7.318260;7.769520
5.126282;0.005157;-1.137960;1.393020;7.122060
5.131439;0.005157;-0.392400;3.237300;3.943620
5.136597;0.005157;-0.255060;-13.557420;-7.985340
5.141754;0.005157;0.058860;-3.315780;-3.080340
5.146912;0.005157;0.156960;2.217060;-0.627840
5.152069;0.005157;0.078480;5.297400;0.431640
5.157227;0.005157;4.787280;7.592940;10.123920
5.162384;0.005157;1.785420;4.591080;6.258780
5.167542;0.005157;0.156960;2.786040;3.237300
5.172699;0.005157;0.196200;0.706320;6.003720
5.177856;0.005157;-1.314540;-3.198060;-14.616900
5.182983;0.005127;-1.137960;-1.530360;-9.790380
5.188141;0.005157;-1.726560;2.629080;-22.759200
5.193329;0.005188;0.725940;3.531600;-12.085920
5.198486;0.005157;0.627840;2.472120;-6.808140
5.203613;0.005127;0.392400;0.333540;-6.494220
5.208771;0.005157;-0.392400;-0.156960;-9.221400
5.213928;0.005157;0.588600;0.882900;-9.770760
5.219086;0.005157;1.020240;1.549980;-6.042960
5.224243;0.005157;0.156960;1.236060;-13.106160
5.229401;0.005157;0.372780;0.098100;-10.104300
5.234558;0.005157;0.372780;-0.451260;-8.220780
5.239716;0.005157;0.804420;0.588600;-7.946100
5.244873;0.005157;1.079100;0.843660;-7.632180
5.250031;0.005157;0.647460;0.196200;-11.340360
5.255188;0.005157;0.470880;-0.117720;-11.850480
5.260345;0.005157;0.608220;-0.255060;-9.966960
5.265503;0.005157;0.843660;0.568980;-9.397980
5.270660;0.005157;0.941760;0.686700;-9.358740
5.275818;0.005157;0.863280;0.274680;-9.966960
5.280975;0.005157;0.784800;-0.058860;-12.007440
5.286102;0.005127;0.706320;0.019620;-10.143540
5.291290;0.005188;0.784800;0.255060;-9.554940
5.296448;0.005157;0.765180;-0.353160;-10.437840
5.301575;0.005127;0.961380;-0.019620;-9.574560
5.306732;0.005157;0.588600;-0.137340;-10.947960
5.311890;0.005157;0.470880;-0.313920;-10.261260
5.317047;0.005157;0.686700;-0.412020;-9.986580
5.322205;0.005157;0.608220;-0.588600;-10.594800
5.327362;0.005157;0.451260;-0.588600;-10.104300
5.332520;0.005157;0.235440;-0.765180;-10.398600
5.337677;0.005157;0.039240;-0.981000;-10.339740
5.342834;0.005157;-0.215820;-1.157580;-10.202400
5.347992;0.005157;-0.765180;-1.000620;-10.163160
5.353149;0.005157;-1.137960;-0.588600;-10.300500
5.358307;0.005157;-1.236060;-0.510120;-10.222020
5.363464;0.005157;-1.236060;-0.431640;-10.222020
5.368622;0.005157;-1.059480;-0.235440;-10.065060
5.373779;0.005157;-1.079100;-0.078480;-10.182780
5.378937;0.005157;-1.098720;-0.137340;-10.182780
5.384094;0.005157;-1.020240;-0.058860;-10.084680
5.389252;0.005157;-1.059480;-0.058860;-10.202400
5.394409;0.005157;-1.079100;0.039240;-10.163160
5.399567;0.005157;-1.000620;-0.078480;-10.143540
5.404694;0.005127;-1.020240;-0.058860;-10.123920
5.409882;0.005188;-1.098720;0.000000;-10.123920
5.415009;0.005127;-1.118340;-0.039240;-10.143540
5.420197;0.005188;-1.118340;-0.058860;-10.123920
5.425323;0.005127;-1.157580;-0.039240;-10.143540
5.430481;0.005157;-1.118340;-0.078480;-10.123920
5.435638;0.005157;-1.137960;-0.078480;-10.123920
5.440826;0.005188;-1.157580;-0.058860;-10.123920
5.445984;0.005157;-1.137960;-0.019620;-10.084680
5.451111;0.005127;-1.118340;-0.039240;-10.065060
5.456268;0.005157;-1.137960;0.019620;-10.143540
5.461426;0.005157;-1.059480;-0.019620;-10.222020
5.466583;0.005157;-1.059480;0.019620;-10.163160
5.471741;0.005157;-1.157580;0.039240;-10.182780
5.476898;0.005157;-1.118340;-0.039240;-10.202400
5.482056;0.005157;-1.020240;0.000000;-10.202400
5.487213;0.005157;-1.020240;0.019620;-10.261260
5.492371;0.005157;-1.098720;-0.019620;-10.222020
5.497528;0.005157;-1.118340;-0.039240;-10.241640
5.502686;0.005157;-1.118340;-0.058860;-10.261260
5.507843;0.005157;-1.118340;-0.019620;-10.202400
5.513000;0.005157;-1.059480;-0.019620;-10.182780
5.518158;0.005157;-1.059480;-0.019620;-10.182780
5.523315;0.005157;-1.020240;-0.058860;-10.222020
5.528473;0.005157;-1.039860;-0.039240;-9.986580
5.533630;0.005157;-1.039860;-0.019620;-10.045440
5.538788;0.005157;-1.000620;-0.019620;-10.045440
5.543945;0.005157;-1.020240;-0.058860;-10.045440
5.549103;0.005157;-1.039860;-0.039240;-10.104300
5.554230;0.005127;-1.118340;-0.078480;-10.143540
5.559387;0.005157;-1.118340;-0.039240;-10.163160
5.564545;0.005157;-1.079100;-0.039240;-10.123920
5.569702;0.005157;-1.098720;-0.019620;-10.202400
5.574860;0.005157;-1.157580;0.039240;-10.143540
5.580017;0.005157;-1.196820;-0.058860;-10.163160
5.585175;0.005157;-1.177200;-0.039240;-10.163160
5.590332;0.005157;-1.177200;-0.078480;-10.202400
5.595490;0.005157;-1.098720;-0.058860;-10.143540
5.600647;0.005157;-1.137960;-0.039240;-10.163160
5.605804;0.005157;-1.177200;-0.019620;-10.163160
5.610962;0.005157;-1.137960;-0.039240;-10.241640
5.616119;0.005157;-1.157580;-0.058860;-10.202400
5.621277;0.005157;-1.118340;-0.039240;-10.182780
5.626434;0.005157;-1.098720;-0.078480;-10.182780
5.631592;0.005157;-1.059480;-0.098100;-10.241640
5.636719;0.005127;-1.098720;-0.078480;-10.182780
5.641876;0.005157;-1.118340;-0.098100;-10.163160
5.647034;0.005157;-1.137960;-0.098100;-10.202400
5.652191;0.005157;-1.137960;-0.117720;-10.202400
5.657349;0.005157;-1.079100;-0.078480;-10.163160
5.662506;0.005157;-1.059480;-0.058860;-10.241640
5.667664;0.005157;-1.098720;-0.058860;-10.182780
5.672821;0.005157;-1.118340;-0.058860;-10.222020
5.677979;0.005157;-1.098720;-0.058860;-10.202400
5.683136;0.005157;-1.039860;-0.078480;-10.202400
5.688293;0.005157;-1.079100;-0.019620;-10.143540
5.693451;0.005157;-1.079100;-0.078480;-10.182780
5.698608;0.005157;-1.059480;-0.058860;-10.182780
5.703766;0.005157;-1.137960;-0.039240;-10.202400
5.708923;0.005157;-1.079100;-0.019620;-10.123920
5.714081;0.005157;-1.079100;-0.039240;-10.123920
5.719238;0.005157;-1.118340;-0.058860;-10.143540
5.724396;0.005157;-1.216440;-0.039240;-10.143540
5.729553;0.005157;-1.177200;-0.078480;-10.123920
5.734711;0.005157;-1.098720;-0.078480;-10.104300
5.739868;0.005157;-1.137960;0.000000;-10.123920
5.745026;0.005157;-1.137960;-0.078480;-10.143540
5.750183;0.005157;-1.118340;-0.058860;-10.163160
5.755341;0.005157;-1.098720;-0.058860;-10.163160
5.760498;0.005157;-1.118340;-0.098100;-10.222020
5.765656;0.005157;-1.059480;-0.078480;-10.222020
5.770813;0.005157;-1.079100;-0.039240;-10.202400
5.775970;0.005157;-1.059480;-0.117720;-10.222020
5.781128;0.005157;-1.137960;-0.098100;-10.123920
5.786285;0.005157;-1.157580;-0.078480;-10.084680
5.791443;0.005157;-1.137960;-0.078480;-10.143540
5.796600;0.005157;-1.157580;-0.039240;-10.104300
5.801758;0.005157;-1.177200;-0.039240;-10.104300
5.806915;0.005157;-1.137960;-0.019620;-10.123920
5.812042;0.005127;-1.157580;-0.019620;-10.104300
5.817200;0.005157;-1.098720;0.058860;-10.104300
5.822357;0.005157;-1.157580;0.019620;-10.143540
5.827515;0.005157;-1.079100;-0.039240;-10.084680
5.832672;0.005157;-1.118340;-0.039240;-10.163160
5.837830;0.005157;-1.118340;-0.078480;-10.222020
5.842987;0.005157;-1.079100;-0.039240;-10.202400
5.848145;0.005157;-1.079100;-0.039240;-10.202400
5.853302;0.005157;-1.059480;-0.078480;-10.143540
5.858459;0.005157;-1.059480;0.000000;-10.084680
5.863617;0.005157;-1.059480;-0.039240;-10.104300
5.868774;0.005157;-1.098720;-0.078480;-10.104300
5.873932;0.005157;-1.157580;-0.019620;-10.104300
5.879089;0.005157;-1.137960;-0.078480;-10.065060
5.884247;0.005157;-1.216440;0.019620;-10.084680
5.889404;0.005157;-1.098720;0.000000;-10.104300
5.894562;0.005157;-1.196820;-0.058860;-10.084680
5.899719;0.005157;-1.118340;0.019620;-10.104300
5.904877;0.005157;-1.137960;0.019620;-10.123920
5.910004;0.005127;-1.098720;-0.039240;-10.222020
5.915161;0.005157;-1.039860;-0.019620;-10.222020
5.920319;0.005157;-1.020240;-0.078480;-10.222020
5.925476;0.005157;-1.059480;-0.058860;-10.143540
5.930634;0.005157;-1.098720;-0.078480;-10.222020
5.935791;0.005157;-1.098720;-0.058860;-10.202400
5.940948;0.005157;-1.118340;-0.039240;-10.182780
5.946106;0.005157;-1.079100;-0.019620;-10.182780
5.951263;0.005157;-1.118340;-0.058860;-10.182780
5.956421;0.005157;-1.118340;-0.058860;-10.202400
5.961578;0.005157;-1.098720;-0.039240;-10.163160
5.966736;0.005157;-1.157580;0.000000;-10.163160
5.971893;0.005157;-1.177200;-0.078480;-10.182780
5.977051;0.005157;-1.098720;-0.098100;-10.202400
5.982208;0.005157;-1.118340;-0.058860;-10.222020
5.987366;0.005157;-1.118340;0.000000;-10.163160
5.992523;0.005157;-1.059480;-0.019620;-10.163160
5.997650;0.005127;-1.098720;-0.019620;-10.202400
6.002808;0.005157;-1.157580;0.019620;-10.163160
6.007965;0.005157;-1.137960;-0.058860;-10.104300
6.013123;0.005157;-1.098720;0.000000;-10.104300
6.018280;0.005157;-1.157580;0.019620;-10.104300
6.023438;0.005157;-1.137960;-0.039240;-10.104300
6.028595;0.005157;-1.079100;-0.137340;-10.143540
6.033752;0.005157;-1.098720;-0.019620;-10.123920
6.038910;0.005157;-1.137960;-0.078480;-10.143540
6.044067;0.005157;-1.118340;-0.058860;-10.143540
6.049225;0.005157;-1.098720;-0.078480;-10.182780
6.054382;0.005157;-1.157580;-0.058860;-10.163160
6.059540;0.005157;-1.118340;-0.039240;-10.143540
6.064697;0.005157;-1.137960;-0.058860;-10.182780
6.069855;0.005157;-1.079100;-0.058860;-10.182780
6.075012;0.005157;-1.059480;-0.058860;-10.241640
6.080170;0.005157;-1.098720;-0.078480;-10.123920
6.085327;0.005157;-1.059480;-0.098100;-10.143540
6.090485;0.005157;-1.020240;-0.019620;-10.163160
6.095642;0.005157;-1.039860;-0.039240;-10.084680
6.100800;0.005157;-1.059480;-0.039240;-10.065060
6.105957;0.005157;-1.079100;-0.039240;-10.104300
6.111115;0.005157;-1.059480;-0.058860;-10.202400
6.116272;0.005157;-1.157580;0.000000;-10.222020
6.121429;0.005157;-1.137960;0.000000;-10.222020
6.126587;0.005157;-1.079100;0.000000;-10.143540
6.131744;0.005157;-1.137960;0.000000;-10.104300
6.136902;0.005157;-1.118340;0.000000;-10.143540
6.142059;0.005157;-1.157580;-0.039240;-10.222020
6.147217;0.005157;-1.157580;-0.019620;-10.222020
6.152374;0.005157;-1.157580;-0.019620;-10.163160
6.157532;0.005157;-1.118340;-0.019620;-10.123920
6.162689;0.005157;-1.137960;-0.039240;-10.163160
6.167847;0.005157;-1.157580;-0.039240;-10.163160
6.173004;0.005157;-1.137960;-0.058860;-10.202400
6.178162;0.005157;-1.137960;-0.019620;-10.163160
6.183319;0.005157;-1.137960;-0.019620;-10.163160
6.188507;0.005188;-1.059480;-0.078480;-10.104300
6.193665;0.005157;-1.098720;0.000000;-10.123920
6.198822;0.005157;-1.059480;-0.039240;-10.202400
6.203979;0.005157;-1.098720;-0.078480;-10.182780
6.209137;0.005157;-1.039860;-0.078480;-10.163160
6.214294;0.005157;-1.079100;0.000000;-10.143540
6.219452;0.005157;-1.079100;-0.039240;-10.104300
6.224609;0.005157;-1.039860;-0.058860;-10.104300
6.229767;0.005157;-1.039860;-0.039240;-10.065060
6.234924;0.005157;-1.098720;-0.098100;-10.143540
6.240051;0.005127;-1.079100;-0.058860;-10.202400
6.245209;0.005157;-1.039860;0.000000;-10.182780
6.250366;0.005157;-1.059480;0.019620;-10.241640
6.255524;0.005157;-1.098720;-0.039240;-10.280880
6.260681;0.005157;-1.177200;-0.058860;-10.320120
6.265839;0.005157;-1.177200;-0.019620;-10.280880
6.270996;0.005157;-1.137960;-0.058860;-10.222020
6.276154;0.005157;-1.098720;0.000000;-10.182780
6.281311;0.005157;-1.137960;-0.058860;-10.104300
6.286469;0.005157;-1.118340;0.019620;-10.182780
6.291626;0.005157;-1.059480;-0.019620;-10.222020
6.296783;0.005157;-1.098720;0.039240;-10.065060
6.301941;0.005157;-1.157580;-0.058860;-10.163160
6.307098;0.005157;-1.157580;-0.078480;-10.202400
6.312256;0.005157;-1.098720;-0.039240;-10.280880
6.317413;0.005157;-1.137960;-0.039240;-10.202400
6.322571;0.005157;-1.118340;0.019620;-10.163160
6.327728;0.005157;-1.157580;0.000000;-10.163160
6.332886;0.005157;-1.059480;0.019620;-10.222020
6.338043;0.005157;-1.177200;-0.098100;-10.143540
6.343201;0.005157;-1.118340;-0.078480;-10.143540
6.348358;0.005157;-1.177200;-0.098100;-10.143540
6.353516;0.005157;-1.137960;-0.058860;-10.143540
6.358673;0.005157;-1.098720;-0.019620;-10.084680
6.363800;0.005127;-1.137960;-0.019620;-10.065060
6.368958;0.005157;-1.059480;-0.098100;-10.104300
6.374115;0.005157;-1.137960;-0.058860;-10.222020
6.379272;0.005157;-1.098720;-0.078480;-10.143540
6.384430;0.005157;-1.098720;-0.058860;-10.182780
6.389587;0.005157;-1.118340;-0.058860;-10.163160
6.394745;0.005157;-1.137960;0.019620;-10.123920
6.399902;0.005157;-1.098720;-0.019620;-10.182780
6.405060;0.005157;-1.118340;0.019620;-10.104300
6.410217;0.005157;-1.079100;0.000000;-10.065060
6.415375;0.005157;-1.059480;0.019620;-10.143540
6.420532;0.005157;-1.098720;0.019620;-10.084680
6.425690;0.005157;-1.157580;-0.019620;-10.143540
6.430847;0.005157;-1.118340;0.039240;-10.123920
6.436005;0.005157;-1.118340;0.019620;-10.163160
6.441162;0.005157;-1.059480;-0.019620;-10.163160
6.446320;0.005157;-1.118340;-0.078480;-10.065060
6.451477;0.005157;-1.059480;-0.098100;-10.045440
6.456635;0.005157;-1.118340;-0.058860;-10.065060
6.461792;0.005157;-1.098720;-0.078480;-10.104300
6.466949;0.005157;-1.059480;-0.078480;-10.163160
6.472107;0.005157;-1.118340;0.000000;-10.123920
6.477264;0.005157;-1.079100;0.019620;-10.143540
6.482422;0.005157;-1.039860;0.000000;-10.143540
6.487579;0.005157;-1.079100;0.019620;-10.182780
6.492737;0.005157;-1.079100;0.019620;-10.143540
6.497894;0.005157;-1.059480;-0.039240;-10.123920
6.503052;0.005157;-1.118340;-0.019620;-10.143540
6.508209;0.005157;-1.137960;0.000000;-10.104300
6.513367;0.005157;-1.118340;-0.078480;-10.163160
6.518524;0.005157;-1.098720;-0.078480;-10.241640
6.523682;0.005157;-1.079100;-0.039240;-10.222020
6.528839;0.005157;-1.039860;0.000000;-10.182780
6.533997;0.005157;-1.079100;-0.078480;-10.182780
6.539154;0.005157;-1.079100;-0.019620;-10.065060
6.544312;0.005157;-1.098720;-0.039240;-10.123920
6.549469;0.005157;-1.079100;-0.019620;-10.065060
6.554626;0.005157;-1.118340;-0.019620;-10.104300
6.559784;0.005157;-1.157580;-0.078480;-10.143540
6.564941;0.005157;-1.118340;-0.039240;-10.163160
6.570068;0.005127;-1.098720;-0.078480;-10.182780
6.575226;0.005157;-1.137960;-0.058860;-10.202400
6.580383;0.005157;-1.098720;-0.058860;-10.163160
6.585541;0.005157;-1.079100;-0.058860;-10.202400
6.590698;0.005157;-1.098720;-0.058860;-10.143540
6.595856;0.005157;-1.059480;-0.078480;-10.222020
6.601013;0.005157;-1.059480;-0.058860;-10.182780
6.606171;0.005157;-1.059480;-0.058860;-10.143540
6.611328;0.005157;-1.059480;-0.019620;-10.143540
6.616486;0.005157;-1.137960;-0.019620;-10.143540
6.621643;0.005157;-1.098720;-0.039240;-10.123920
6.626801;0.005157;-1.079100;-0.039240;-10.123920
6.631958;0.005157;-1.039860;-0.039240;-10.123920
6.637115;0.005157;-0.981000;-0.039240;-10.065060
6.642273;0.005157;-1.059480;-0.058860;-10.084680
6.647430;0.005157;-1.079100;-0.058860;-10.104300
6.652588;0.005157;-1.079100;-0.078480;-10.222020
6.657745;0.005157;-1.137960;-0.039240;-10.202400
6.662903;0.005157;-1.157580;-0.039240;-10.123920
6.668060;0.005157;-1.196820;-0.019620;-10.143540
6.673218;0.005157;-1.137960;-0.019620;-10.123920
6.678375;0.005157;-1.098720;-0.039240;-10.163160
6.683533;0.005157;-1.137960;-0.019620;-10.143540
6.688690;0.005157;-1.098720;-0.039240;-10.182780
6.693848;0.005157;-1.157580;-0.058860;-10.143540
6.699005;0.005157;-1.118340;-0.019620;-10.143540
6.704163;0.005157;-1.137960;0.000000;-10.123920
6.709320;0.005157;-1.157580;0.039240;-10.123920
6.714478;0.005157;-1.118340;0.019620;-10.084680
6.719635;0.005157;-1.118340;0.058860;-10.241640
6.724792;0.005157;-1.157580;-0.039240;-10.261260
6.729950;0.005157;-1.098720;-0.117720;-10.143540
6.735107;0.005157;-1.137960;-0.098100;-10.143540
6.740265;0.005157;-1.137960;-0.058860;-10.143540
6.745422;0.005157;-1.157580;-0.039240;-10.143540
6.750580;0.005157;-1.098720;-0.078480;-10.163160
6.755707;0.005127;-1.137960;-0.078480;-10.084680
6.760864;0.005157;-1.059480;-0.039240;-10.104300
6.766022;0.005157;-1.020240;0.000000;-10.104300
6.771179;0.005157;-1.020240;0.019620;-10.006200
6.776337;0.005157;-1.137960;0.039240;-10.084680
6.781494;0.005157;-1.157580;-0.019620;-10.123920
6.786652;0.005157;-1.157580;-0.078480;-10.182780
6.791809;0.005157;-1.137960;-0.078480;-10.222020
6.796967;0.005157;-1.098720;-0.058860;-10.123920
6.802124;0.005157;-1.118340;-0.078480;-10.123920
6.807281;0.005157;-1.137960;-0.098100;-10.045440
6.812439;0.005157;-1.118340;-0.039240;-10.123920
6.817596;0.005157;-1.177200;-0.058860;-10.084680
6.822754;0.005157;-1.216440;-0.019620;-10.084680
6.827911;0.005157;-1.177200;0.019620;-10.104300
6.833069;0.005157;-1.039860;0.000000;-10.123920
6.838226;0.005157;-1.059480;-0.058860;-10.084680
6.843384;0.005157;-1.157580;-0.019620;-10.182780
6.848541;0.005157;-1.157580;0.000000;-10.143540
6.853699;0.005157;-1.079100;-0.039240;-10.143540
6.858856;0.005157;-1.039860;-0.019620;-10.163160
6.864014;0.005157;-1.020240;0.000000;-10.123920
6.869171;0.005157;-1.059480;0.000000;-10.143540
6.874329;0.005157;-1.098720;-0.039240;-10.123920
6.879486;0.005157;-1.059480;-0.019620;-10.045440
6.884644;0.005157;-1.079100;-0.078480;-10.123920
6.889801;0.005157;-1.098720;-0.058860;-10.143540
6.894958;0.005157;-1.137960;0.000000;-10.104300
6.900116;0.005157;-1.118340;-0.019620;-10.143540
6.905273;0.005157;-1.098720;0.019620;-10.143540
6.910431;0.005157;-1.098720;0.019620;-10.202400
6.915588;0.005157;-1.079100;0.000000;-10.202400
6.920746;0.005157;-1.079100;-0.039240;-10.202400
6.925903;0.005157;-1.098720;-0.078480;-10.163160
6.931061;0.005157;-1.079100;-0.058860;-10.182780
6.936188;0.005127;-1.079100;-0.019620;-10.202400
6.941345;0.005157;-1.039860;-0.019620;-10.280880
6.946503;0.005157;-1.098720;-0.039240;-10.202400
6.951660;0.005157;-1.157580;-0.078480;-10.300500
6.956818;0.005157;-1.079100;-0.058860;-10.241640
6.961975;0.005157;-1.079100;-0.019620;-10.261260
6.967133;0.005157;-1.059480;0.019620;-10.182780
6.972290;0.005157;-1.079100;0.039240;-10.123920
6.977448;0.005157;-1.137960;0.000000;-10.241640
6.982605;0.005157;-1.118340;0.000000;-10.084680
6.987793;0.005188;-1.079100;-0.098100;-10.084680
6.992950;0.005157;-1.079100;0.000000;-10.123920
6.998108;0.005157;-1.059480;-0.039240;-10.084680
7.003235;0.005127;-1.039860;-0.039240;-10.123920
7.008392;0.005157;-1.098720;-0.098100;-10.202400
7.013550;0.005157;-1.118340;-0.098100;-10.182780
7.018707;0.005157;-1.137960;-0.058860;-10.104300
7.023865;0.005157;-1.157580;-0.078480;-10.104300
7.029022;0.005157;-1.137960;-0.078480;-10.084680
7.034180;0.005157;-1.157580;-0.098100;-10.104300
7.039337;0.005157;-1.177200;-0.117720;-10.084680
7.044495;0.005157;-1.177200;-0.039240;-10.104300
7.049652;0.005157;-1.177200;-0.058860;-10.143540
7.054810;0.005157;-1.137960;-0.039240;-10.163160
7.059967;0.005157;-1.118340;-0.058860;-10.143540
7.065125;0.005157;-1.059480;0.000000;-10.143540
7.070282;0.005157;-1.118340;-0.078480;-10.104300
7.075439;0.005157;-1.098720;-0.058860;-10.182780
7.080597;0.005157;-1.020240;-0.058860;-10.202400
7.085754;0.005157;-1.059480;-0.078480;-10.182780
7.090912;0.005157;-1.137960;-0.019620;-10.202400
7.096069;0.005157;-1.196820;0.000000;-10.182780
7.101227;0.005157;-1.098720;-0.019620;-10.143540
7.106384;0.005157;-1.098720;-0.019620;-10.182780
7.111542;0.005157;-1.157580;0.019620;-10.143540
7.116699;0.005157;-1.177200;-0.039240;-10.182780
7.121857;0.005157;-1.137960;-0.078480;-10.202400
7.127014;0.005157;-1.079100;-0.078480;-10.182780
7.132172;0.005157;-1.137960;-0.058860;-10.104300
7.137329;0.005157;-1.196820;0.019620;-10.143540
7.142456;0.005127;-1.118340;-0.019620;-10.123920
7.147614;0.005157;-1.079100;-0.039240;-10.202400
7.152771;0.005157;-1.079100;-0.058860;-10.222020
7.157959;0.005188;-1.079100;0.000000;-10.280880
7.163116;0.005157;-1.098720;-0.098100;-10.202400
7.168274;0.005157;-1.118340;-0.117720;-10.261260
7.173431;0.005157;-1.079100;-0.078480;-10.261260
7.178589;0.005157;-1.039860;-0.078480;-10.241640
7.183716;0.005127;-1.079100;-0.078480;-10.202400
7.188873;0.005157;-1.098720;-0.058860;-10.222020
7.194031;0.005157;-1.079100;-0.039240;-10.202400
7.199188;0.005157;-1.079100;-0.098100;-10.202400
7.204346;0.005157;-1.079100;-0.019620;-10.202400
7.209503;0.005157;-1.059480;-0.019620;-10.182780
7.214661;0.005157;-1.079100;-0.078480;-10.202400
7.219849;0.005188;-1.137960;-0.098100;-10.182780
7.224976;0.005127;-1.098720;-0.098100;-10.222020
7.230133;0.005157;-1.157580;-0.078480;-10.241640
7.235291;0.005157;-1.118340;-0.078480;-10.163160
7.240448;0.005157;-1.137960;-0.078480;-10.241640
7.245605;0.005157;-1.118340;-0.058860;-10.222020
7.250763;0.005157;-1.118340;0.000000;-10.182780
7.255920;0.005157;-1.098720;-0.039240;-10.104300
7.261078;0.005157;-1.059480;-0.039240;-10.065060
7.266235;0.005157;-1.098720;-0.039240;-10.065060
7.271393;0.005157;-1.118340;-0.117720;-10.163160
7.276550;0.005157;-1.137960;-0.078480;-10.163160
7.281708;0.005157;-1.098720;-0.098100;-10.163160
7.286865;0.005157;-1.098720;-0.078480;-10.202400
7.292023;0.005157;-1.216440;-0.137340;-10.241640
7.297180;0.005157;-1.196820;-0.019620;-10.163160
7.302338;0.005157;-1.118340;-0.039240;-10.222020
7.307495;0.005157;-1.079100;-0.039240;-10.202400
7.312653;0.005157;-1.039860;-0.039240;-10.163160
7.317810;0.005157;-1.098720;-0.078480;-10.084680
7.322968;0.005157;-1.137960;-0.117720;-10.084680
7.328125;0.005157;-1.137960;-0.078480;-10.084680
7.333282;0.005157;-1.157580;-0.137340;-10.123920
7.338440;0.005157;-1.098720;-0.098100;-10.163160
7.343597;0.005157;-1.137960;-0.078480;-10.182780
7.348755;0.005157;-1.157580;-0.098100;-10.222020
7.353912;0.005157;-1.137960;-0.098100;-10.163160
7.359070;0.005157;-1.118340;-0.058860;-10.222020
7.364227;0.005157;-1.079100;-0.058860;-10.241640
7.369385;0.005157;-1.098720;0.000000;-10.123920
7.374542;0.005157;-1.118340;-0.098100;-10.123920
7.379700;0.005157;-1.118340;-0.039240;-10.182780
7.384857;0.005157;-1.098720;-0.058860;-10.222020
7.390015;0.005157;-1.079100;-0.058860;-10.163160
7.395142;0.005127;-1.079100;-0.078480;-10.202400
7.400299;0.005157;-1.118340;0.019620;-10.104300
7.405457;0.005157;-1.059480;0.039240;-10.104300
7.410614;0.005157;-1.098720;0.019620;-10.143540
7.415771;0.005157;-1.079100;-0.039240;-10.222020
7.420929;0.005157;-1.098720;-0.058860;-10.202400
7.426086;0.005157;-1.157580;-0.019620;-10.222020
7.431244;0.005157;-1.098720;-0.039240;-10.182780
7.436401;0.005157;-1.118340;0.000000;-10.163160
7.441559;0.005157;-1.177200;0.000000;-10.182780
7.446716;0.005157;-1.137960;-0.058860;-10.182780
7.451874;0.005157;-1.118340;-0.039240;-10.104300
7.457031;0.005157;-1.098720;-0.058860;-10.182780
7.462189;0.005157;-1.137960;-0.078480;-10.202400
7.467346;0.005157;-1.098720;-0.058860;-10.182780
7.472504;0.005157;-1.039860;0.000000;-10.202400
7.477661;0.005157;-1.079100;-0.039240;-10.241640
7.482819;0.005157;-1.079100;0.019620;-10.163160
7.487976;0.005157;-1.079100;-0.039240;-10.143540
7.493134;0.005157;-1.118340;-0.058860;-10.104300
7.498291;0.005157;-1.079100;-0.196200;-9.947340
7.503448;0.005157;-1.118340;-0.039240;-9.986580
7.508606;0.005157;-0.294300;-0.039240;-9.986580
7.513763;0.005157;0.137340;-0.588600;-10.006200
7.518921;0.005157;0.431640;-1.000620;-9.437220
7.524078;0.005157;0.510120;-1.177200;-9.594180
7.529236;0.005157;0.510120;-1.196820;-10.280880
7.534393;0.005157;0.353160;-0.706320;-10.594800
7.539551;0.005157;-0.098100;0.039240;-10.634040
7.544708;0.005157;-0.863280;0.058860;-10.143540
7.549866;0.005157;-1.883520;0.176580;-10.104300
7.555023;0.005157;-2.452500;0.431640;-10.006200
7.560181;0.005157;-3.080340;0.529740;-9.849240
7.565338;0.005157;-3.276540;0.686700;-10.457460
7.570496;0.005157;-2.805660;0.490500;-10.123920
7.575653;0.005157;-1.844280;0.117720;-10.163160
7.580811;0.005157;-1.412640;-0.019620;-10.241640
7.585968;0.005157;-1.196820;-0.058860;-10.261260
7.591125;0.005157;-0.902520;0.078480;-10.339740
7.596283;0.005157;-0.804420;0.333540;-10.398600
7.601440;0.005157;-1.079100;0.196200;-10.359360
7.606598;0.005157;-1.196820;0.078480;-10.457460
7.611755;0.005157;-1.098720;-0.019620;-10.555560
7.616913;0.005157;-0.882900;-0.490500;-10.359360
7.622070;0.005157;-0.549360;-0.745560;-10.496700
7.627228;0.005157;-0.549360;-1.000620;-10.614420
7.632385;0.005157;-0.490500;-1.255680;-10.653660
7.637543;0.005157;-0.490500;-1.177200;-10.673280
7.642700;0.005157;-0.392400;-0.765180;-10.555560
7.647858;0.005157;-0.549360;-0.294300;-10.339740
7.653015;0.005157;-0.941760;0.039240;-10.045440
7.658173;0.005157;-1.432260;0.176580;-9.947340
7.663330;0.005157;-1.549980;0.353160;-9.947340
7.668488;0.005157;-1.157580;0.333540;-10.025820
7.673645;0.005157;-1.039860;0.333540;-9.927720
7.678802;0.005157;-0.725940;0.058860;-9.986580
7.683960;0.005157;-0.510120;-0.215820;-10.163160
7.689117;0.005157;-0.431640;-0.274680;-10.378980
7.694275;0.005157;-0.470880;-0.215820;-10.378980
7.699432;0.005157;-0.431640;-0.176580;-10.378980
7.704590;0.005157;-0.372780;-0.215820;-10.222020
7.709747;0.005157;-0.392400;-0.137340;-9.986580
7.714905;0.005157;-0.568980;0.019620;-9.868860
7.720062;0.005157;-0.667080;0.117720;-9.790380
7.725220;0.005157;-0.608220;0.156960;-9.692280
7.730377;0.005157;-0.608220;0.098100;-9.790380
7.735535;0.005157;-0.588600;-0.058860;-9.790380
7.740692;0.005157;-0.510120;-0.196200;-9.927720
7.745850;0.005157;-0.490500;-0.353160;-10.045440
7.751007;0.005157;-0.549360;-0.451260;-10.182780
7.756165;0.005157;-0.510120;-0.451260;-10.320120
7.761322;0.005157;-0.588600;-0.392400;-10.477080
7.766479;0.005157;-0.765180;-0.412020;-10.653660
7.771637;0.005157;-0.922140;-0.333540;-10.614420
7.776794;0.005157;-1.118340;-0.117720;-10.496700
7.781952;0.005157;-1.118340;0.039240;-10.339740
7.787109;0.005157;-0.981000;0.078480;-10.261260
7.792267;0.005157;-0.961380;-0.058860;-10.202400
7.797424;0.005157;-0.882900;-0.176580;-10.123920
7.802582;0.005157;-0.863280;-0.255060;-10.104300
7.807739;0.005157;-0.745560;-0.333540;-10.084680
7.812897;0.005157;-0.568980;-0.470880;-10.084680
7.818054;0.005157;-0.392400;-0.529740;-9.966960
7.823212;0.005157;-0.294300;-0.470880;-9.986580
7.828369;0.005157;-0.117720;-0.451260;-9.947340
7.833527;0.005157;-0.058860;-0.431640;-9.947340
7.838684;0.005157;-0.137340;-0.353160;-9.810000
7.843842;0.005157;-0.333540;-0.176580;-9.731520
7.848999;0.005157;-0.392400;0.039240;-9.849240
7.854156;0.005157;-0.451260;-0.078480;-10.084680
7.859314;0.005157;-0.451260;-0.294300;-10.182780
7.864471;0.005157;-0.510120;-0.667080;-10.359360
7.869629;0.005157;-0.627840;-0.765180;-10.516320
7.874786;0.005157;-0.647460;-0.882900;-10.496700
7.879944;0.005157;-0.627840;-0.804420;-10.378980
7.885101;0.005157;-0.706320;-0.451260;-10.339740
7.890259;0.005157;-0.765180;-0.156960;-10.104300
7.895416;0.005157;-0.725940;-0.039240;-9.927720
7.900574;0.005157;-0.627840;-0.117720;-9.927720
7.905731;0.005157;-0.470880;-0.313920;-9.966960
7.910889;0.005157;-0.313920;-0.412020;-10.104300
7.916046;0.005157;-0.137340;-0.568980;-10.241640
7.921204;0.005157;-0.196200;-0.667080;-10.280880
7.926361;0.005157;-0.215820;-0.608220;-10.300500
7.931519;0.005157;-0.431640;-0.392400;-10.300500
7.936676;0.005157;-0.568980;-0.098100;-10.006200
7.941833;0.005157;-0.588600;0.058860;-9.927720
7.946960;0.005127;-0.568980;-0.078480;-10.025820
7.952148;0.005188;-0.451260;-0.353160;-10.163160
7.957275;0.005127;-0.412020;-0.490500;-10.202400
7.962433;0.005157;-0.431640;-0.431640;-10.163160
7.967590;0.005157;-0.451260;-0.392400;-10.104300
7.972748;0.005157;-0.333540;-0.372780;-10.163160
7.977905;0.005157;-0.333540;-0.510120;-10.241640
7.983063;0.005157;-0.431640;-0.627840;-10.241640
7.988220;0.005157;-0.412020;-0.706320;-10.320120
7.993378;0.005157;-0.294300;-0.765180;-10.398600
7.998535;0.005157;-0.294300;-0.765180;-10.457460
8.003693;0.005157;-0.333540;-0.784800;-10.437840
8.008850;0.005157;-0.392400;-0.608220;-10.359360
8.014008;0.005157;-0.510120;-0.392400;-10.261260
8.019165;0.005157;-0.490500;-0.353160;-10.241640
8.024323;0.005157;-0.627840;-0.353160;-10.261260
8.029480;0.005157;-0.804420;-0.313920;-10.241640
8.034637;0.005157;-0.784800;-0.333540;-10.280880
8.039795;0.005157;-0.765180;-0.392400;-10.241640
8.044952;0.005157;-0.647460;-0.313920;-10.378980
8.050110;0.005157;-0.490500;-0.451260;-10.418220
8.055237;0.005127;-0.451260;-0.510120;-10.339740
8.060394;0.005157;-0.431640;-0.549360;-10.143540
8.065552;0.005157;-0.412020;-0.568980;-10.104300
8.070709;0.005157;-0.294300;-0.627840;-10.104300
8.075867;0.005157;-0.235440;-0.627840;-10.025820
8.081024;0.005157;-0.274680;-0.510120;-9.986580
8.086182;0.005157;-0.274680;-0.412020;-10.006200
8.091339;0.005157;-0.255060;-0.451260;-10.025820
8.096497;0.005157;-0.215820;-0.568980;-10.025820
8.101654;0.005157;-0.313920;-0.549360;-10.084680
8.106812;0.005157;-0.412020;-0.568980;-10.182780
8.111969;0.005157;-0.451260;-0.588600;-10.182780
8.117126;0.005157;-0.392400;-0.549360;-10.084680
8.122284;0.005157;-0.372780;-0.412020;-10.045440
8.127441;0.005157;-0.333540;-0.353160;-10.025820
8.132599;0.005157;-0.255060;-0.215820;-9.986580
8.137756;0.005157;-0.333540;-0.137340;-9.888480
8.142914;0.005157;-0.510120;-0.156960;-10.006200
8.148071;0.005157;-0.490500;-0.274680;-10.123920
8.153229;0.005157;-0.431640;-0.333540;-10.123920
8.158386;0.005157;-0.372780;-0.255060;-10.084680
8.163544;0.005157;-0.372780;-0.274680;-10.045440
8.168701;0.005157;-0.294300;-0.313920;-10.084680
8.173859;0.005157;-0.176580;-0.451260;-10.045440
8.179016;0.005157;-0.078480;-0.294300;-9.927720
8.184174;0.005157;-0.137340;-0.215820;-9.868860
8.189331;0.005157;-0.176580;-0.294300;-9.888480
8.194458;0.005127;-0.117720;-0.372780;-10.025820
8.199615;0.005157;0.039240;-0.451260;-10.104300
8.204773;0.005157;0.196200;-0.568980;-10.104300
8.209930;0.005157;0.294300;-0.882900;-10.222020
8.215088;0.005157;0.431640;-1.020240;-10.241640
8.220245;0.005157;0.647460;-0.981000;-10.320120
8.225403;0.005157;0.608220;-1.079100;-10.359360
8.230560;0.005157;0.510120;-1.334160;-10.418220
8.235718;0.005157;0.412020;-1.746180;-10.653660
8.240875;0.005157;0.255060;-2.001240;-11.006820
8.246033;0.005157;0.039240;-2.001240;-11.104920
8.251190;0.005157;-0.568980;-1.667700;-10.849860
8.256348;0.005157;-1.177200;-1.157580;-10.634040
8.261505;0.005157;-1.844280;-0.784800;-10.241640
8.266663;0.005157;-1.962000;-0.510120;-10.222020
8.271820;0.005157;-1.903140;-0.392400;-10.202400
8.276978;0.005157;-1.785420;-0.117720;-10.123920
8.282135;0.005157;-1.491120;0.078480;-10.457460
8.287292;0.005157;-1.451880;0.019620;-10.575180
8.292450;0.005157;-1.648080;0.039240;-10.849860
8.297607;0.005157;-1.746180;0.117720;-11.104920
8.302765;0.005157;-1.942380;0.333540;-11.379600
8.307922;0.005157;-1.863900;0.902520;-11.222640
8.313080;0.005157;-2.079720;1.549980;-10.418220
8.318237;0.005157;-2.570220;2.099340;-9.201780
8.323395;0.005157;-3.158820;2.295540;-7.749900
8.328552;0.005157;-3.256920;2.432880;-7.220160
8.333710;0.005157;-2.374020;2.334780;-7.377120
8.338837;0.005127;-1.079100;2.138580;-8.004960
8.343994;0.005157;-0.215820;1.314540;-8.652420
8.349182;0.005188;0.294300;1.255680;-9.103680
8.354340;0.005157;0.431640;1.157580;-8.103060
8.359497;0.005157;0.137340;1.432260;-7.671420
8.364655;0.005157;0.313920;1.137960;-4.159440
8.369812;0.005157;0.019620;0.902520;-2.020860
8.374939;0.005127;0.000000;0.470880;-0.568980
8.380096;0.005157;-0.294300;0.294300;-0.392400
8.385254;0.005157;1.216440;0.156960;4.453740
8.390411;0.005157;-0.882900;1.530360;-3.884760
8.395569;0.005157;-2.256300;2.001240;-7.965720
8.400726;0.005157;4.394880;-1.726560;16.029540
8.405884;0.005157;4.002480;1.687320;5.552460
8.411041;0.005157;0.667080;0.529740;-1.628460
8.416199;0.005157;-0.981000;1.373400;-9.731520
8.421356;0.005157;-2.275920;-1.039860;-12.439080
8.426514;0.005157;-2.177820;-1.805040;-10.084680
8.431671;0.005157;-0.451260;-1.314540;-4.767660
8.436829;0.005157;-0.882900;-0.843660;-12.772620
8.441986;0.005157;-1.530360;0.412020;-11.340360
8.447144;0.005157;0.510120;-1.314540;-3.610080
8.452301;0.005157;-0.313920;-1.746180;-8.770140
8.457458;0.005157;0.000000;-1.275300;-8.122680
8.462585;0.005127;-0.098100;-1.432260;-9.554940
8.467743;0.005157;-0.843660;-1.039860;-10.575180
8.472900;0.005157;-0.902520;-0.941760;-10.477080
8.478058;0.005157;-0.490500;-0.549360;-9.692280
8.483215;0.005157;-0.686700;-0.117720;-10.359360
8.488373;0.005157;-0.804420;-0.235440;-10.771380
8.493530;0.005157;-0.588600;-0.392400;-10.653660
8.498657;0.005127;-0.804420;-0.353160;-10.849860
8.503815;0.005157;-0.686700;-0.196200;-10.261260
8.508972;0.005157;-0.549360;-0.176580;-9.751140
8.514130;0.005157;-0.529740;-0.255060;-9.692280
8.519287;0.005157;-0.510120;-0.235440;-9.751140
8.524445;0.005157;-0.568980;-0.196200;-10.123920
8.529602;0.005157;-0.608220;-0.196200;-10.378980
8.534760;0.005157;-0.568980;-0.235440;-10.398600
8.539917;0.005157;-0.608220;-0.294300;-10.222020
8.545074;0.005157;-0.588600;-0.274680;-10.143540
8.550232;0.005157;-0.568980;-0.333540;-10.084680
8.555389;0.005157;-0.608220;-0.353160;-10.143540
8.560547;0.005157;-0.647460;-0.274680;-10.241640
8.565674;0.005127;-0.647460;-0.255060;-10.300500
8.570862;0.005188;-0.647460;-0.215820;-10.163160
8.575989;0.005127;-0.647460;-0.255060;-10.123920
8.581146;0.005157;-0.568980;-0.255060;-10.163160
8.586304;0.005157;-0.608220;-0.255060;-10.163160
8.591461;0.005157;-0.588600;-0.235440;-10.222020
8.596619;0.005157;-0.627840;-0.294300;-10.241640
8.601776;0.005157;-0.588600;-0.294300;-10.202400
8.606934;0.005157;-0.627840;-0.274680;-10.261260
8.612091;0.005157;-0.529740;-0.274680;-10.280880
8.617249;0.005157;-0.627840;-0.274680;-10.280880
8.622406;0.005157;-0.608220;-0.235440;-10.320120
8.627563;0.005157;-0.627840;-0.215820;-10.241640
8.632721;0.005157;-0.549360;-0.215820;-10.241640
8.637878;0.005157;-0.608220;-0.215820;-10.202400
8.643036;0.005157;-0.529740;-0.215820;-10.241640
8.648193;0.005157;-0.588600;-0.215820;-10.280880
8.653351;0.005157;-0.549360;-0.274680;-10.241640
8.658508;0.005157;-0.627840;-0.470880;-10.320120
8.663666;0.005157;1.549980;-0.706320;-11.752380
8.668823;0.005157;4.748040;0.451260;-8.985960
8.673981;0.005157;4.865760;2.079720;-10.261260
8.679138;0.005157;3.099960;1.275300;-8.181540
8.684296;0.005157;0.706320;-0.039240;-9.790380
8.689453;0.005157;-1.059480;-0.941760;-10.065060
8.694611;0.005157;-2.236680;-1.491120;-9.810000
8.699768;0.005157;-3.198060;-2.177820;-9.829620
8.704926;0.005157;-3.786660;-2.413260;-10.261260
8.710083;0.005157;-3.668940;-2.197440;-10.006200
8.715240;0.005157;-3.178440;-1.746180;-9.633420
8.720398;0.005157;-2.923380;-1.746180;-9.574560
8.725555;0.005157;-2.844900;-1.863900;-9.888480
8.730713;0.005157;-2.805660;-4.355640;-9.711900
8.735870;0.005157;-2.805660;-5.061960;-9.770760
8.741028;0.005157;-3.433500;-3.924000;-9.888480
8.746185;0.005157;-3.198060;-2.432880;-10.123920
8.751343;0.005157;-2.295540;-1.314540;-10.084680
8.756500;0.005157;-1.608840;-0.156960;-10.261260
8.761658;0.005157;-1.314540;0.941760;-10.535940
8.766815;0.005157;-1.118340;1.393020;-10.261260
8.771973;0.005157;-1.393020;1.020240;-9.966960
8.777130;0.005157;-1.805040;0.372780;-9.672660
8.782288;0.005157;-2.491740;-0.470880;-9.594180
8.787445;0.005157;-2.393640;-0.529740;-9.574560
8.792572;0.005127;-2.884140;-0.333540;-10.575180
8.797729;0.005157;-2.354400;0.294300;-10.241640
8.802887;0.005157;-2.079720;0.745560;-10.732140
8.808044;0.005157;-1.589220;0.941760;-10.084680
8.813202;0.005157;-1.491120;0.706320;-9.731520
8.818359;0.005157;-1.118340;0.902520;-10.065060
8.823517;0.005157;-0.902520;1.059480;-10.163160
8.828674;0.005157;-0.863280;0.843660;-10.222020
8.833832;0.005157;-0.824040;0.843660;-10.104300
8.838989;0.005157;-0.784800;0.941760;-10.339740
8.844147;0.005157;-0.647460;0.941760;-10.045440
8.849304;0.005157;-0.608220;0.981000;-10.084680
8.854462;0.005157;-0.510120;0.902520;-9.947340
8.859619;0.005157;-0.490500;0.981000;-10.163160
8.864777;0.005157;-0.333540;1.137960;-10.241640
8.869934;0.005157;-0.078480;1.373400;-10.378980
8.875092;0.005157;0.019620;1.569600;-10.359360
8.880249;0.005157;0.078480;1.608840;-10.163160
8.885406;0.005157;0.039240;1.746180;-10.025820
8.890564;0.005157;-0.156960;1.785420;-10.123920
8.895721;0.005157;-0.490500;1.393020;-10.045440
8.900879;0.005157;-0.608220;0.843660;-10.104300
8.906036;0.005157;-0.824040;0.490500;-10.300500
8.911194;0.005157;-0.863280;0.294300;-10.398600
8.916351;0.005157;-0.843660;0.294300;-10.320120
8.921509;0.005157;-0.725940;0.392400;-10.280880
8.926666;0.005157;-0.667080;0.137340;-10.261260
8.931824;0.005157;-0.588600;0.156960;-10.104300
8.936981;0.005157;-0.608220;0.215820;-10.065060
8.942139;0.005157;-0.627840;0.156960;-10.104300
8.947296;0.005157;-0.667080;0.078480;-10.182780
8.952454;0.005157;-0.647460;-0.098100;-10.222020
8.957611;0.005157;-0.647460;-0.137340;-10.320120
8.962738;0.005127;-0.667080;-0.098100;-10.339740
8.967896;0.005157;-0.608220;-0.019620;-10.202400
8.973053;0.005157;-0.608220;0.000000;-10.163160
8.978210;0.005157;-0.568980;0.019620;-10.182780
8.983368;0.005157;-0.529740;-0.039240;-10.182780
8.988525;0.005157;-0.627840;-0.039240;-10.222020
8.993683;0.005157;-0.686700;-0.078480;-10.182780
8.998840;0.005157;-0.686700;-0.137340;-10.163160
9.003998;0.005157;-0.647460;-0.098100;-10.202400
9.009155;0.005157;-0.608220;-0.039240;-10.182780
9.014313;0.005157;-0.588600;-0.019620;-10.084680
9.019470;0.005157;-0.588600;-0.019620;-10.104300
9.024628;0.005157;-0.627840;0.000000;-10.123920
9.029785;0.005157;-0.686700;0.000000;-10.163160
9.034943;0.005157;-0.686700;0.000000;-10.143540
9.040100;0.005157;-0.667080;-0.058860;-10.222020
9.045258;0.005157;-0.667080;-0.019620;-10.123920
9.050415;0.005157;-0.686700;-0.058860;-10.163160
9.055573;0.005157;-0.627840;-0.058860;-10.202400
9.060730;0.005157;-0.608220;-0.078480;-10.163160
9.065887;0.005157;-0.588600;-0.058860;-10.241640
9.071045;0.005157;-0.647460;-0.058860;-10.182780
9.076202;0.005157;-0.647460;-0.039240;-10.202400
9.081360;0.005157;-0.608220;-0.039240;-10.222020
9.086517;0.005157;-0.647460;-0.019620;-10.123920
9.091644;0.005127;-0.588600;-0.039240;-10.182780
9.096802;0.005157;-0.608220;-0.098100;-10.123920
9.101959;0.005157;-0.706320;-0.078480;-10.143540
9.107117;0.005157;-0.725940;-0.098100;-10.202400
9.112274;0.005157;-0.706320;-0.039240;-10.222020
9.117432;0.005157;-0.725940;-0.039240;-10.202400
9.122589;0.005157;-0.667080;0.000000;-10.202400
9.127747;0.005157;-0.647460;-0.058860;-10.182780
9.132904;0.005157;-0.627840;-0.039240;-10.202400
9.138062;0.005157;-0.608220;-0.019620;-10.163160
9.143219;0.005157;-0.568980;-0.058860;-10.123920
9.148376;0.005157;-0.608220;-0.039240;-10.182780
9.153534;0.005157;-0.608220;-0.078480;-10.163160
9.158691;0.005157;-0.608220;-0.078480;-10.182780
9.163849;0.005157;-0.608220;-0.058860;-10.065060
9.169006;0.005157;-0.647460;0.078480;-10.006200
9.174164;0.005157;-0.588600;0.039240;-9.966960
9.179321;0.005157;-0.490500;-0.039240;-10.104300
9.184479;0.005157;-0.627840;-0.019620;-10.496700
9.189636;0.005157;-0.725940;0.000000;-10.418220
9.194763;0.005127;-0.706320;-0.098100;-10.104300
9.199921;0.005157;-0.667080;-0.078480;-10.143540
9.205078;0.005157;-0.725940;-0.058860;-10.241640
9.210236;0.005157;-0.627840;0.058860;-10.025820
9.215393;0.005157;-0.627840;0.019620;-9.829620
9.220551;0.005157;-0.627840;0.039240;-9.829620
9.225708;0.005157;-0.647460;0.039240;-9.986580
9.230865;0.005157;-0.647460;-0.039240;-9.966960
9.236023;0.005157;-0.686700;-0.039240;-9.966960
9.241180;0.005157;-0.725940;-0.039240;-10.006200
9.246338;0.005157;-0.627840;-0.019620;-10.006200
9.251495;0.005157;-0.627840;-0.078480;-10.025820
9.256653;0.005157;-0.588600;-0.098100;-10.065060
9.261810;0.005157;-0.588600;-0.117720;-10.261260
9.266968;0.005157;-0.568980;-0.176580;-10.320120
9.272125;0.005157;-0.549360;-0.235440;-10.418220
9.277283;0.005157;-0.529740;-0.255060;-10.457460
9.282440;0.005157;-0.549360;-0.215820;-10.378980
9.287598;0.005157;-0.568980;-0.196200;-10.320120
9.292755;0.005157;-0.549360;-0.196200;-10.300500
9.297913;0.005157;-0.549360;-0.215820;-10.359360
9.303070;0.005157;-0.529740;-0.196200;-10.457460
9.308228;0.005157;-0.529740;-0.176580;-10.418220
9.313385;0.005157;-0.588600;-0.078480;-10.359360
9.318542;0.005157;-0.608220;-0.215820;-10.339740
9.323700;0.005157;-0.588600;-0.137340;-10.339740
9.328857;0.005157;-0.588600;-0.058860;-10.300500
9.334015;0.005157;-0.608220;-0.058860;-10.222020
9.339172;0.005157;-0.294300;-0.098100;-9.908100
9.344299;0.005127;-0.353160;-0.255060;-9.947340
9.349457;0.005157;-0.510120;-0.745560;-10.202400
9.354614;0.005157;-0.686700;-0.843660;-10.320120
9.359772;0.005157;-0.882900;-0.568980;-10.339740
9.364929;0.005157;-0.981000;-0.058860;-10.182780
9.370087;0.005157;-0.784800;0.235440;-10.025820
9.375244;0.005157;-0.451260;0.333540;-9.751140
9.380402;0.005157;-0.451260;0.294300;-9.692280
9.385559;0.005157;-0.686700;0.078480;-10.045440
9.390717;0.005157;-0.588600;-0.156960;-10.163160
9.395874;0.005157;-0.627840;-0.235440;-10.359360
9.401031;0.005157;-0.588600;-0.274680;-10.339740
9.406189;0.005157;-0.647460;-0.490500;-10.006200
9.411346;0.005157;-0.843660;-1.118340;-10.006200
9.416504;0.005157;-1.118340;-1.432260;-10.182780
9.421661;0.005157;-1.726560;-1.020240;-10.006200
9.426819;0.005157;-1.785420;-0.647460;-10.006200
9.431976;0.005157;-1.687320;-0.902520;-10.163160
9.437134;0.005157;-0.981000;-0.510120;-10.222020
9.442291;0.005157;-0.392400;0.176580;-9.790380
9.447449;0.005157;-0.019620;0.882900;-11.144160
9.452606;0.005157;0.608220;0.961380;-11.085300
9.457764;0.005157;0.215820;0.000000;-10.025820
9.462921;0.005157;-0.333540;-0.706320;-10.202400
9.468079;0.005157;-0.706320;-0.784800;-10.182780
9.473236;0.005157;-0.843660;-0.451260;-10.182780
9.478394;0.005157;-1.137960;-0.078480;-10.202400
9.483551;0.005157;-1.294920;-0.039240;-10.104300
9.488708;0.005157;-1.334160;0.117720;-9.966960
9.493866;0.005157;-1.549980;0.215820;-10.241640
9.499023;0.005157;-1.824660;0.019620;-10.614420
9.504181;0.005157;-1.491120;0.117720;-10.202400
9.509338;0.005157;-1.294920;0.137340;-10.359360
9.514496;0.005157;-1.020240;-0.176580;-10.791000
9.519653;0.005157;-0.941760;-0.588600;-10.928340
9.524811;0.005157;-0.981000;-1.059480;-10.555560
9.529968;0.005157;-0.863280;-0.784800;-10.771380
9.535126;0.005157;-1.020240;-0.647460;-10.889100
9.540283;0.005157;-0.981000;-0.568980;-11.065680
9.545441;0.005157;-1.059480;-0.765180;-10.849860
9.550598;0.005157;-1.118340;-0.824040;-10.692900
9.555756;0.005157;-1.236060;-0.549360;-10.928340
9.560913;0.005157;-1.373400;-0.176580;-11.104920
9.566071;0.005157;-1.275300;0.117720;-11.222640
9.571228;0.005157;-0.922140;0.235440;-11.418840
9.576385;0.005157;-0.451260;0.058860;-11.830860
9.581543;0.005157;-0.039240;-0.019620;-12.242880
9.586700;0.005157;0.372780;0.235440;-12.340980
9.591858;0.005157;0.490500;0.412020;-12.439080
9.597015;0.005157;0.294300;0.235440;-12.380220
9.602173;0.005157;-0.137340;-0.039240;-12.340980
9.607330;0.005157;-0.568980;-0.176580;-12.007440
9.612488;0.005157;-1.000620;-0.313920;-11.732760
9.617645;0.005157;-1.334160;-0.686700;-11.458080
9.622803;0.005157;-1.785420;-1.157580;-11.438460
9.627960;0.005157;-1.883520;-1.432260;-11.399220
9.633118;0.005157;-1.706940;-1.294920;-11.418840
9.638275;0.005157;-1.491120;-1.118340;-11.399220
9.643433;0.005157;-1.393020;-0.667080;-11.477700
9.648590;0.005157;-1.746180;-0.215820;-11.556180
9.653748;0.005157;-2.099340;-0.019620;-11.673900
9.658905;0.005157;-2.452500;-0.235440;-11.830860
9.664062;0.005157;-2.648700;-0.510120;-11.516940
9.669220;0.005157;-2.550600;-0.039240;-11.987820
9.674377;0.005157;-2.118960;-0.353160;-12.439080
9.679535;0.005157;-1.706940;-0.431640;-12.517560
9.684662;0.005127;-1.569600;-0.274680;-12.635280
9.689819;0.005157;-1.824660;-0.176580;-12.713760
9.694977;0.005157;-2.413260;-0.098100;-13.027680
9.700134;0.005157;-3.080340;-0.098100;-13.106160
9.705292;0.005157;-3.472740;-0.078480;-13.204260
9.710449;0.005157;-3.472740;0.058860;-13.361220
9.715607;0.005157;-2.982240;0.156960;-13.321980
9.720764;0.005157;-2.256300;0.098100;-13.459320
9.725922;0.005157;-1.628460;-0.196200;-13.518180
9.731079;0.005157;-1.314540;-0.372780;-13.890960
9.736237;0.005157;-1.079100;-0.235440;-14.185260
9.741394;0.005157;-1.157580;0.039240;-14.440320
9.746552;0.005157;-1.491120;0.078480;-14.793480
9.751709;0.005157;-2.040480;0.137340;-15.068160
9.756866;0.005157;-2.295540;0.176580;-15.185880
9.762024;0.005157;-2.158200;0.333540;-15.225120
9.767181;0.005157;-1.687320;0.667080;-15.166260
9.772339;0.005157;-1.491120;0.824040;-15.068160
9.777496;0.005157;-1.746180;0.725940;-14.754240
9.782654;0.005157;-2.236680;0.490500;-14.381460
9.787811;0.005157;-2.570220;0.412020;-13.734000
9.792969;0.005157;-2.668320;0.333540;-13.223880
9.798126;0.005157;-2.746800;0.313920;-12.792240
9.803284;0.005157;-3.080340;0.058860;-12.419460
9.808441;0.005157;-3.433500;-0.412020;-12.125160
9.813599;0.005157;-3.570840;-0.902520;-12.066300
9.818756;0.005157;-3.825900;-0.588600;-12.085920
9.823914;0.005157;-4.080960;-0.255060;-12.340980
9.829071;0.005157;-4.179060;0.117720;-12.615660
9.834229;0.005157;-4.041720;0.235440;-12.497940
9.839386;0.005157;-3.904380;0.235440;-12.399840
9.844543;0.005157;-3.688560;0.372780;-12.380220
9.849701;0.005157;-3.453120;0.490500;-12.262500
9.854858;0.005157;-3.649320;0.137340;-12.301740
9.860016;0.005157;-4.041720;0.000000;-12.262500
9.865173;0.005157;-4.414500;0.176580;-12.125160
9.870331;0.005157;-4.434120;0.686700;-12.203640
9.875458;0.005127;-4.100580;1.020240;-12.007440
9.880615;0.005157;-4.237920;0.981000;-11.536560
9.885773;0.005157;-4.473360;1.255680;-11.183400
9.890961;0.005188;-4.846140;1.255680;-10.771380
9.896118;0.005157;-5.081580;1.118340;-10.398600
9.901276;0.005157;-4.963860;0.843660;-9.868860
9.906433;0.005157;-4.846140;0.392400;-9.280260
9.911591;0.005157;-4.885380;0.333540;-9.123300
9.916748;0.005157;-4.963860;0.549360;-8.985960
9.921906;0.005157;-5.022720;0.588600;-8.829000
9.927063;0.005157;-5.140440;0.706320;-8.554320
9.932220;0.005157;-5.238540;0.882900;-8.397360
9.937378;0.005157;-5.356260;0.882900;-8.299260
9.942505;0.005127;-5.395500;0.804420;-8.318880
9.947662;0.005157;-5.022720;1.020240;-8.436600
9.952820;0.005157;-5.003100;0.647460;-8.887860
9.957977;0.005157;-4.767660;1.353780;-9.810000
9.963135;0.005157;-4.708800;1.353780;-10.516320
9.968292;0.005157;-4.532220;1.491120;-10.928340
9.973450;0.005157;-4.355640;1.667700;-11.418840
9.978607;0.005157;-4.120200;1.726560;-11.497320
9.983765;0.005157;-3.708180;1.451880;-11.418840
9.988922;0.005157;-3.747420;1.314540;-10.908720
9.994080;0.005157;-3.786660;1.157580;-10.241640
9.999237;0.005157;-4.061340;1.039860;-9.358740
10.004395;0.005157;-4.336020;1.039860;-8.515080
10.009552;0.005157;-4.296780;1.118340;-7.592940
10.014709;0.005157;-4.198680;1.216440;-6.788520
10.019867;0.005157;-4.080960;1.079100;-6.199920
10.024994;0.005127;-3.943620;0.961380;-5.866380
10.030151;0.005157;-3.767040;1.020240;-5.670180
10.035309;0.005157;-3.590460;0.922140;-5.513220
10.040466;0.005157;-3.335400;0.941760;-5.375880
10.045624;0.005157;-3.099960;1.000620;-5.375880
10.050781;0.005157;-3.060720;1.118340;-5.493600
10.055939;0.005157;-3.080340;1.255680;-5.729040
10.061096;0.005157;-3.119580;1.275300;-5.827140
10.066254;0.005157;-3.021480;1.275300;-6.121440
10.071411;0.005157;-2.825280;1.255680;-6.513840
10.076569;0.005157;-2.629080;1.236060;-6.945480
10.081726;0.005157;-2.472120;1.137960;-7.337880
10.086884;0.005157;-2.295540;1.118340;-7.455600
10.092041;0.005157;-2.177820;1.177200;-7.691040
10.097198;0.005157;-2.099340;1.314540;-8.044200
10.102356;0.005157;-1.922760;1.275300;-8.122680
10.107513;0.005157;-1.785420;1.196820;-8.103060
10.112671;0.005157;-1.687320;1.196820;-7.926480
10.117828;0.005157;-1.667700;1.196820;-7.828380
10.122986;0.005157;-1.608840;1.157580;-7.553700
10.128143;0.005157;-1.667700;1.079100;-7.416360
10.133301;0.005157;-1.667700;0.843660;-7.180920
10.138458;0.005157;-1.667700;0.784800;-7.063200
10.143585;0.005127;-1.471500;0.804420;-7.122060
10.148743;0.005157;-1.177200;0.882900;-7.141680
10.153900;0.005157;-1.039860;0.922140;-7.200540
10.159058;0.005157;-1.000620;0.961380;-7.279020
10.164215;0.005157;-1.118340;0.863280;-7.239780
10.169373;0.005157;-1.196820;0.765180;-7.161300
10.174530;0.005157;-1.236060;0.784800;-7.259400
10.179688;0.005157;-1.393020;0.902520;-7.416360
10.184845;0.005157;-1.491120;1.039860;-7.573320
10.190002;0.005157;-1.432260;1.000620;-7.651800
10.195160;0.005157;-1.314540;0.863280;-7.808760
10.200317;0.005157;-1.275300;0.647460;-7.828380
10.205475;0.005157;-1.098720;0.529740;-7.828380
10.210632;0.005157;-1.039860;0.549360;-7.867620
10.215790;0.005157;-0.981000;0.627840;-8.004960
10.220947;0.005157;-1.059480;0.706320;-8.260020
10.226105;0.005157;-1.177200;0.804420;-8.397360
10.231262;0.005157;-1.294920;0.843660;-8.534700
10.236420;0.005157;-1.451880;0.981000;-8.613180
10.241577;0.005157;-1.510740;0.902520;-8.495460
10.246735;0.005157;-1.569600;0.745560;-8.456220
10.251892;0.005157;-1.706940;0.608220;-8.358120
10.257050;0.005157;-1.687320;0.588600;-8.416980
10.262207;0.005157;-1.628460;0.765180;-8.456220
10.267365;0.005157;-1.491120;0.784800;-8.358120
10.272522;0.005157;-1.549980;0.686700;-8.338500
10.277679;0.005157;-1.530360;0.627840;-8.201160
10.282837;0.005157;-1.530360;0.588600;-8.142300
10.287994;0.005157;-1.510740;0.568980;-8.083440
10.293152;0.005157;-1.530360;0.470880;-8.083440
10.298309;0.005157;-1.510740;0.490500;-8.240400
10.303436;0.005127;-1.549980;0.510120;-8.397360
10.308594;0.005157;-1.510740;0.510120;-8.632800
10.313751;0.005157;-1.549980;0.451260;-8.868240
10.318909;0.005157;-1.491120;0.490500;-8.966340
10.324066;0.005157;-1.294920;0.568980;-9.201780
10.329224;0.005157;-1.098720;0.529740;-9.339120
10.334381;0.005157;-0.941760;0.568980;-9.496080
10.339539;0.005157;-0.843660;0.686700;-9.515700
10.344696;0.005157;-0.863280;0.706320;-9.594180
10.349854;0.005157;-1.137960;0.490500;-9.476460
10.355011;0.005157;-1.412640;0.176580;-9.280260
10.360168;0.005157;-1.922760;-0.058860;-8.985960
10.365326;0.005157;-2.315160;-0.039240;-8.829000
10.370483;0.005157;-2.452500;0.294300;-8.711280
10.375641;0.005157;-2.275920;0.667080;-8.809380
10.380798;0.005157;-1.922760;0.843660;-8.750520
10.385956;0.005157;-1.608840;1.000620;-8.770140
10.391113;0.005157;-1.549980;1.079100;-9.064440
10.396271;0.005157;-1.687320;1.157580;-9.358740
10.401428;0.005157;-1.648080;1.432260;-9.731520
10.406586;0.005157;-1.491120;1.549980;-10.045440
10.411743;0.005157;-1.432260;1.549980;-10.300500
10.416901;0.005157;-1.196820;1.137960;-10.359360
10.422058;0.005157;-0.961380;2.060100;-10.378980
10.427216;0.005157;-1.236060;1.393020;-10.673280
10.432373;0.005157;-1.451880;1.393020;-10.673280
10.437531;0.005157;-1.863900;1.471500;-10.477080
10.442688;0.005157;-2.177820;1.471500;-10.202400
10.447845;0.005157;-2.393640;1.334160;-10.222020
10.453003;0.005157;-2.374020;1.589220;-10.339740
10.458160;0.005157;-1.962000;1.863900;-10.516320
10.463318;0.005157;-1.412640;1.883520;-10.614420
10.468475;0.005157;-1.000620;1.648080;-10.751760
10.473633;0.005157;-0.784800;1.275300;-10.869480
10.478790;0.005157;-1.020240;1.098720;-11.183400
10.483917;0.005127;-1.236060;0.863280;-10.830240
10.489075;0.005157;-1.216440;0.784800;-10.418220
10.494232;0.005157;-1.373400;1.059480;-10.182780
10.499390;0.005157;-1.471500;1.039860;-9.653040
10.504547;0.005157;-1.726560;1.216440;-9.515700
10.509705;0.005157;-1.863900;1.039860;-9.103680
10.514862;0.005157;-1.432260;0.745560;-8.711280
10.520020;0.005157;-0.981000;0.451260;-8.829000
10.525177;0.005157;-0.568980;0.294300;-8.848620
10.530334;0.005157;-0.372780;0.667080;-9.005580
10.535492;0.005157;-0.490500;0.922140;-8.927100
10.540649;0.005157;-0.647460;1.079100;-8.887860
10.545807;0.005157;-0.824040;1.098720;-8.848620
10.550995;0.005188;-0.529740;0.588600;-8.829000
10.556152;0.005157;-0.098100;0.372780;-8.829000
10.561310;0.005157;0.451260;-0.137340;-9.201780
10.566467;0.005157;0.961380;0.353160;-9.986580
10.571625;0.005157;1.098720;0.843660;-10.477080
10.576782;0.005157;0.588600;0.843660;-10.104300
10.581940;0.005157;0.000000;0.804420;-9.653040
10.587097;0.005157;-0.294300;0.470880;-9.437220
10.592255;0.005157;-0.215820;0.235440;-9.594180
10.597412;0.005157;0.019620;0.215820;-9.849240
10.602570;0.005157;0.255060;0.353160;-9.986580
10.607727;0.005157;0.490500;0.784800;-10.104300
10.612885;0.005157;0.333540;0.608220;-9.849240
10.618042;0.005157;0.117720;0.372780;-9.947340
10.623199;0.005157;-0.117720;0.392400;-9.986580
10.628357;0.005157;-0.156960;0.490500;-9.927720
10.633514;0.005157;-0.313920;0.608220;-9.986580
10.638672;0.005157;-0.451260;0.667080;-9.966960
10.643829;0.005157;-0.294300;0.667080;-9.810000
10.648987;0.005157;-0.137340;0.412020;-9.751140
10.654144;0.005157;0.000000;0.019620;-9.731520
10.659302;0.005157;0.098100;-0.294300;-9.888480
10.664459;0.005157;-0.019620;-0.313920;-10.143540
10.669617;0.005157;-0.117720;-0.137340;-10.280880
10.674774;0.005157;-0.176580;0.000000;-10.378980
10.679901;0.005127;-0.215820;0.078480;-10.457460
10.685059;0.005157;-0.117720;0.078480;-10.634040
10.690216;0.005157;-0.078480;0.215820;-10.810620
10.695374;0.005157;0.176580;0.529740;-10.928340
10.700531;0.005157;0.255060;0.529740;-11.144160
10.705719;0.005188;0.274680;0.568980;-11.104920
10.710876;0.005157;0.117720;0.568980;-10.928340
10.716034;0.005157;-0.215820;0.470880;-10.594800
10.721191;0.005157;-0.568980;0.372780;-10.261260
10.726349;0.005157;-0.882900;0.274680;-9.947340
10.731506;0.005157;-0.981000;0.196200;-9.692280
10.736664;0.005157;-0.961380;0.058860;-9.554940
10.741821;0.005157;-0.961380;0.019620;-9.613800
10.746979;0.005157;-0.941760;0.078480;-9.653040
10.752136;0.005157;-0.902520;0.098100;-9.790380
10.757294;0.005157;-0.863280;0.058860;-9.849240
10.762451;0.005157;-0.804420;-0.078480;-9.829620
10.767609;0.005157;-0.725940;-0.176580;-9.731520
10.772766;0.005157;-0.686700;-0.196200;-9.653040
10.777924;0.005157;-0.745560;-0.098100;-9.574560
10.783081;0.005157;-0.843660;-0.039240;-9.456840
10.788239;0.005157;-0.765180;-0.098100;-9.456840
10.793396;0.005157;-0.725940;-0.117720;-9.378360
10.798553;0.005157;-0.725940;-0.215820;-9.476460
10.803711;0.005157;-0.608220;-0.078480;-9.692280
10.808868;0.005157;-0.627840;0.078480;-10.006200
10.814026;0.005157;-0.549360;0.196200;-10.261260
10.819183;0.005157;-0.372780;0.333540;-10.496700
10.824341;0.005157;-0.313920;0.353160;-10.614420
10.829498;0.005157;-0.255060;0.255060;-10.614420
10.834656;0.005157;-0.274680;0.215820;-10.575180
10.839813;0.005157;-0.372780;0.215820;-10.575180
10.844971;0.005157;-0.490500;0.255060;-10.496700
10.850128;0.005157;-0.510120;0.274680;-10.437840
10.855286;0.005157;-0.706320;0.137340;-10.378980
10.860443;0.005157;-0.824040;0.058860;-10.300500
10.865601;0.005157;-0.745560;0.098100;-10.065060
10.870758;0.005157;-0.804420;0.313920;-10.065060
10.875916;0.005157;-0.863280;0.019620;-9.829620
10.881073;0.005157;-1.039860;-0.098100;-9.829620
10.886230;0.005157;-0.961380;-0.117720;-9.770760
10.891388;0.005157;-0.804420;-0.098100;-9.868860
10.896545;0.005157;-0.765180;-0.058860;-9.868860
10.901703;0.005157;-0.745560;-0.058860;-9.790380
10.906860;0.005157;-0.902520;-0.156960;-9.770760
10.912018;0.005157;-1.157580;-0.294300;-9.554940
10.917175;0.005157;-1.216440;-0.215820;-9.515700
10.922333;0.005157;-1.059480;-0.039240;-9.496080
10.927490;0.005157;-0.961380;-0.039240;-9.515700
10.932648;0.005157;-0.922140;-0.137340;-9.613800
10.937805;0.005157;-0.882900;-0.196200;-9.751140
10.942963;0.005157;-0.824040;-0.255060;-9.966960
10.948120;0.005157;-0.765180;-0.058860;-10.261260
10.953278;0.005157;-0.725940;0.098100;-10.457460
10.958435;0.005157;-0.843660;0.137340;-10.418220
10.963593;0.005157;-0.843660;0.019620;-10.339740
10.968750;0.005157;-0.725940;-0.098100;-10.280880
10.973907;0.005157;-0.529740;-0.156960;-10.398600
10.979065;0.005157;-0.372780;-0.215820;-10.339740
10.984222;0.005157;-0.313920;-0.255060;-10.104300
10.989380;0.005157;-0.568980;-0.412020;-9.908100
10.994537;0.005157;-0.725940;-0.529740;-9.790380
10.999695;0.005157;-0.843660;-0.451260;-9.711900
11.004852;0.005157;-0.981000;-0.333540;-9.868860
11.010010;0.005157;-1.157580;-0.156960;-9.888480
11.015167;0.005157;-1.196820;-0.078480;-9.908100
11.020325;0.005157;-1.294920;-0.215820;-9.554940
11.025482;0.005157;-1.196820;-0.392400;-9.594180
11.030640;0.005157;-1.039860;-0.490500;-9.751140
11.035797;0.005157;-0.824040;-0.451260;-9.829620
11.040955;0.005157;-0.745560;-0.470880;-10.025820
11.046112;0.005157;-0.706320;-0.353160;-10.065060
11.051270;0.005157;-0.725940;-0.392400;-10.123920
11.056427;0.005157;-0.784800;-0.353160;-10.104300
11.061584;0.005157;-0.784800;-0.215820;-10.045440
11.066742;0.005157;-0.922140;-0.215820;-9.986580
11.071899;0.005157;-0.981000;-0.333540;-9.947340
11.077057;0.005157;-1.177200;-0.549360;-9.731520
11.082214;0.005157;-1.118340;-0.608220;-9.594180
11.087372;0.005157;-1.118340;-0.549360;-9.456840
11.092529;0.005157;-1.020240;-0.568980;-9.437220
11.097687;0.005157;-0.981000;-0.549360;-9.496080
11.102844;0.005157;-0.961380;-0.431640;-9.711900
11.108002;0.005157;-0.981000;-0.274680;-9.751140
11.113159;0.005157;-1.000620;-0.235440;-9.868860
11.118317;0.005157;-0.882900;-0.235440;-9.986580
11.123474;0.005157;-0.765180;-0.235440;-10.084680
11.128632;0.005157;-0.824040;-0.294300;-10.104300
11.133789;0.005157;-0.922140;-0.255060;-10.163160
11.138947;0.005157;-0.961380;-0.156960;-10.241640
11.144104;0.005157;-0.922140;-0.176580;-10.143540
11.149261;0.005157;-0.784800;-0.451260;-10.045440
11.154419;0.005157;-0.784800;-0.529740;-10.084680
11.159576;0.005157;-0.863280;-0.431640;-10.025820
11.164734;0.005157;-1.059480;-0.333540;-10.025820
11.169891;0.005157;-1.177200;-0.313920;-10.006200
11.175049;0.005157;-1.118340;-0.333540;-10.123920
11.180206;0.005157;-1.059480;-0.255060;-10.202400
11.185364;0.005157;-1.039860;-0.098100;-10.202400
11.190521;0.005157;-1.098720;-0.117720;-10.143540
11.195679;0.005157;-1.137960;-0.156960;-10.084680
11.200836;0.005157;-1.039860;-0.215820;-10.104300
11.205994;0.005157;-1.000620;-0.235440;-10.163160
11.211121;0.005127;-0.981000;-0.215820;-10.163160
11.216278;0.005157;-0.941760;-0.235440;-10.123920
11.221436;0.005157;-0.843660;-0.274680;-10.202400
11.226593;0.005157;-0.804420;-0.274680;-10.261260
11.231750;0.005157;-0.686700;-0.235440;-10.320120
11.236908;0.005157;-0.706320;-0.196200;-10.398600
11.242065;0.005157;-0.706320;-0.117720;-10.535940
11.247223;0.005157;-0.824040;0.039240;-10.555560
11.252380;0.005157;-0.804420;0.098100;-10.555560
11.257538;0.005157;-0.824040;0.058860;-10.457460
11.262695;0.005157;-0.765180;0.058860;-10.398600
11.267853;0.005157;-0.686700;-0.019620;-10.359360
11.273010;0.005157;-0.627840;-0.058860;-10.378980
11.278198;0.005188;-0.686700;-0.078480;-10.163160
11.283356;0.005157;-0.784800;-0.156960;-10.006200
11.288513;0.005157;-0.882900;-0.235440;-9.927720
11.293671;0.005157;-0.863280;-0.353160;-9.966960
11.298828;0.005157;-0.804420;-0.333540;-9.986580
11.303986;0.005157;-0.667080;-0.117720;-10.006200
11.309143;0.005157;-0.647460;-0.058860;-9.888480
11.314301;0.005157;-0.647460;-0.098100;-9.888480
11.319458;0.005157;-0.647460;-0.019620;-10.084680
11.324615;0.005157;-0.588600;0.058860;-10.104300
11.329773;0.005157;-0.451260;-0.039240;-10.025820
11.334930;0.005157;-0.313920;-0.137340;-9.927720
11.340088;0.005157;-0.255060;-0.255060;-9.829620
11.345245;0.005157;-0.333540;-0.274680;-9.868860
11.350403;0.005157;-0.353160;-0.176580;-9.966960
11.355560;0.005157;-0.470880;-0.156960;-10.025820
11.360718;0.005157;-0.588600;-0.058860;-9.986580
11.365875;0.005157;-0.667080;-0.058860;-10.025820
11.371033;0.005157;-0.706320;-0.058860;-10.104300
11.376190;0.005157;-0.745560;0.019620;-10.280880
11.381348;0.005157;-0.608220;0.019620;-10.398600
11.386505;0.005157;-0.490500;0.098100;-10.457460
11.391663;0.005157;-0.215820;0.156960;-10.320120
11.396820;0.005157;-0.058860;0.058860;-10.339740
11.401978;0.005157;-0.019620;-0.098100;-10.359360
11.407135;0.005157;-0.117720;-0.117720;-10.359360
11.412292;0.005157;-0.255060;-0.058860;-10.359360
11.417450;0.005157;-0.372780;-0.078480;-10.222020
11.422607;0.005157;-0.431640;-0.196200;-10.065060
11.427765;0.005157;-0.510120;-0.313920;-10.025820
11.432922;0.005157;-0.490500;-0.412020;-10.025820
11.438080;0.005157;-0.431640;-0.412020;-10.123920
11.443237;0.005157;-0.313920;-0.274680;-10.104300
11.448395;0.005157;-0.353160;-0.078480;-10.065060
11.453552;0.005157;-0.490500;-0.255060;-10.065060
11.458710;0.005157;-0.529740;-0.549360;-9.908100
11.463867;0.005157;-0.568980;-0.588600;-9.790380
11.469025;0.005157;-0.510120;-0.451260;-9.829620
11.474182;0.005157;-0.588600;-0.274680;-9.947340
11.479340;0.005157;-0.608220;-0.176580;-9.966960
11.484497;0.005157;-0.549360;-0.196200;-9.986580
11.489655;0.005157;-0.451260;-0.215820;-10.025820
11.494812;0.005157;-0.412020;-0.255060;-10.084680
11.499969;0.005157;-0.412020;-0.235440;-10.143540
11.505127;0.005157;-0.431640;-0.294300;-10.143540
11.510284;0.005157;-0.353160;-0.255060;-10.143540
11.515442;0.005157;-0.274680;-0.255060;-10.300500
11.520599;0.005157;-0.235440;-0.313920;-10.320120
11.525757;0.005157;-0.196200;-0.294300;-10.339740
11.530914;0.005157;-0.215820;-0.294300;-10.280880
11.536072;0.005157;-0.313920;-0.274680;-10.280880
11.541199;0.005127;-0.353160;-0.274680;-10.241640
11.546356;0.005157;-0.255060;-0.313920;-10.202400
11.551514;0.005157;-0.215820;-0.313920;-10.143540
11.556671;0.005157;-0.196200;-0.392400;-10.123920
11.561829;0.005157;-0.255060;-0.412020;-10.084680
11.566986;0.005157;-0.274680;-0.392400;-10.065060
11.572144;0.005157;-0.235440;-0.392400;-10.104300
11.577301;0.005157;-0.196200;-0.412020;-10.025820
11.582458;0.005157;-0.274680;-0.431640;-10.025820
11.587616;0.005157;-0.255060;-0.470880;-10.025820
11.592773;0.005157;-0.196200;-0.470880;-10.045440
11.597931;0.005157;-0.117720;-0.529740;-10.084680
11.603088;0.005157;-0.137340;-0.549360;-10.084680
11.608246;0.005157;-0.078480;-0.568980;-10.241640
11.613403;0.005157;-0.098100;-0.510120;-10.359360
11.618561;0.005157;-0.156960;-0.353160;-10.339740
11.623718;0.005157;-0.333540;-0.274680;-10.300500
11.628876;0.005157;-0.372780;-0.196200;-10.339740
11.634033;0.005157;-0.490500;-0.255060;-10.261260
11.639191;0.005157;-0.470880;-0.176580;-10.222020
11.644348;0.005157;-0.490500;-0.196200;-10.163160
11.649536;0.005188;-0.412020;-0.313920;-10.104300
11.654694;0.005157;-0.451260;-0.470880;-10.084680
11.659821;0.005127;-0.431640;-0.490500;-10.104300
11.664978;0.005157;-0.372780;-0.451260;-10.143540
11.670135;0.005157;-0.333540;-0.490500;-10.241640
11.675323;0.005188;-0.353160;-0.490500;-10.241640
11.680450;0.005127;-0.294300;-0.588600;-10.261260
11.685608;0.005157;-0.274680;-0.529740;-10.320120
11.690765;0.005157;-0.372780;-0.529740;-10.418220
11.695923;0.005157;-0.470880;-0.412020;-10.496700
11.701080;0.005157;-0.470880;-0.372780;-10.477080
11.706238;0.005157;-0.353160;-0.274680;-10.516320
11.711395;0.005157;-0.333540;-0.235440;-10.496700
11.716583;0.005188;-0.470880;-0.274680;-10.496700
11.721710;0.005127;-0.549360;-0.333540;-10.418220
11.726868;0.005157;-0.549360;-0.372780;-10.378980
11.732025;0.005157;-0.510120;-0.333540;-10.339740
11.737183;0.005157;-0.490500;-0.353160;-10.398600
11.742340;0.005157;-0.549360;-0.353160;-10.418220
11.747498;0.005157;-0.568980;-0.412020;-10.418220
11.752655;0.005157;-0.627840;-0.372780;-10.339740
11.757812;0.005157;-0.588600;-0.333540;-10.418220
11.762970;0.005157;-0.470880;-0.294300;-10.437840
11.768127;0.005157;-0.451260;-0.333540;-10.398600
11.773285;0.005157;-0.451260;-0.333540;-10.339740
11.778442;0.005157;-0.510120;-0.333540;-10.339740
11.783600;0.005157;-0.431640;-0.412020;-10.300500
11.788757;0.005157;-0.372780;-0.392400;-10.359360
11.793915;0.005157;-0.510120;-0.372780;-10.359360
11.799072;0.005157;-0.529740;-0.353160;-10.280880
11.804230;0.005157;-0.490500;-0.470880;-10.182780
11.809387;0.005157;-0.431640;-0.490500;-10.202400
11.814545;0.005157;-0.431640;-0.412020;-10.280880
11.819702;0.005157;-0.470880;-0.392400;-10.320120
11.824860;0.005157;-0.529740;-0.274680;-10.320120
11.830017;0.005157;-0.529740;-0.313920;-10.300500
11.835175;0.005157;-0.412020;-0.294300;-10.339740
11.840332;0.005157;-0.294300;-0.274680;-10.280880
11.845490;0.005157;-0.215820;-0.255060;-10.320120
11.850647;0.005157;-0.196200;-0.353160;-10.280880
11.855804;0.005157;-0.215820;-0.353160;-10.300500
11.860962;0.005157;-0.176580;-0.353160;-10.320120
11.866119;0.005157;-0.215820;-0.313920;-10.339740
11.871277;0.005157;-0.353160;-0.294300;-10.359360
11.876434;0.005157;-0.392400;-0.274680;-10.437840
11.881592;0.005157;-0.470880;-0.294300;-10.359360
11.886749;0.005157;-0.451260;-0.353160;-10.339740
11.891907;0.005157;-0.392400;-0.294300;-10.378980
11.897064;0.005157;-0.235440;-0.255060;-10.398600
11.902222;0.005157;-0.235440;-0.215820;-10.516320
11.907379;0.005157;-0.235440;-0.255060;-10.575180
11.912537;0.005157;-0.176580;-0.235440;-10.594800
11.917694;0.005157;-0.137340;-0.255060;-10.575180
11.922852;0.005157;-0.117720;-0.255060;-10.575180
11.928009;0.005157;-0.196200;-0.255060;-10.477080
11.933167;0.005157;-0.372780;-0.274680;-10.418220
11.938324;0.005157;-0.353160;-0.333540;-10.300500
11.943481;0.005157;-0.372780;-0.392400;-10.300500
11.948639;0.005157;-0.333540;-0.412020;-10.320120
11.953796;0.005157;-0.353160;-0.353160;-10.339740
11.958954;0.005157;-0.353160;-0.333540;-10.261260
11.964111;0.005157;-0.431640;-0.313920;-10.280880
11.969269;0.005157;-0.451260;-0.313920;-10.261260
11.974426;0.005157;-0.392400;-0.313920;-10.241640
11.979584;0.005157;-0.333540;-0.274680;-10.163160
11.984741;0.005157;-0.313920;-0.294300;-10.202400
11.989899;0.005157;-0.255060;-0.294300;-10.320120
11.995056;0.005157;-0.215820;-0.255060;-10.320120
12.000214;0.005157;-0.235440;-0.235440;-10.359360
12.005371;0.005157;-0.333540;-0.176580;-10.378980
12.010529;0.005157;-0.392400;-0.235440;-10.359360
12.015686;0.005157;-0.372780;-0.294300;-10.300500
12.020844;0.005157;-0.353160;-0.353160;-10.300500
12.026001;0.005157;-0.255060;-0.372780;-10.280880
12.031158;0.005157;-0.078480;-0.372780;-10.300500
12.036316;0.005157;-0.058860;-0.372780;-10.300500
12.041473;0.005157;-0.117720;-0.313920;-10.359360
12.046631;0.005157;-0.255060;-0.294300;-10.261260
12.051788;0.005157;-0.215820;-0.215820;-10.320120
12.056946;0.005157;-0.117720;-0.117720;-10.241640
12.062103;0.005157;-0.078480;-0.235440;-10.123920
12.067261;0.005157;-0.117720;-0.412020;-10.182780
12.072418;0.005157;-0.176580;-0.412020;-10.045440
12.077576;0.005157;-0.255060;-0.353160;-9.966960
12.082733;0.005157;-0.294300;-0.255060;-10.006200
12.087891;0.005157;-0.255060;-0.255060;-9.986580
12.093048;0.005157;-0.215820;-0.255060;-10.045440
12.098206;0.005157;-0.235440;-0.215820;-10.084680
12.103363;0.005157;-0.294300;-0.215820;-10.123920
12.108521;0.005157;-0.255060;-0.215820;-10.163160
12.113678;0.005157;-0.196200;-0.235440;-10.222020
12.118866;0.005188;-0.176580;-0.313920;-10.222020
12.124023;0.005157;-0.176580;-0.294300;-10.241640
12.129181;0.005157;-0.137340;-0.176580;-10.202400
12.134338;0.005157;-0.039240;-0.215820;-10.123920
12.139496;0.005157;-0.019620;-0.274680;-10.065060
12.144653;0.005157;-0.098100;-0.294300;-9.986580
12.149811;0.005157;-0.196200;-0.313920;-9.966960
12.154968;0.005157;-0.235440;-0.353160;-10.025820
12.160126;0.005157;-0.274680;-0.333540;-10.143540
12.165283;0.005157;-0.313920;-0.255060;-10.104300
12.170441;0.005157;-0.235440;-0.196200;-10.006200
12.175598;0.005157;-0.235440;-0.274680;-10.104300
12.180756;0.005157;-0.215820;-0.294300;-10.163160
12.185913;0.005157;-0.215820;-0.255060;-10.182780
12.191071;0.005157;-0.255060;-0.274680;-10.084680
12.196228;0.005157;-0.235440;-0.294300;-10.025820
12.201385;0.005157;-0.235440;-0.294300;-9.986580
12.206543;0.005157;-0.235440;-0.235440;-9.966960
12.211700;0.005157;-0.215820;-0.255060;-10.123920
12.216858;0.005157;-0.313920;-0.235440;-10.202400
12.222015;0.005157;-0.412020;-0.255060;-10.163160
12.227173;0.005157;-0.392400;-0.255060;-10.084680
12.232330;0.005157;-0.333540;-0.255060;-10.065060
12.237488;0.005157;-0.235440;-0.235440;-10.065060
12.242645;0.005157;-0.274680;-0.235440;-10.025820
12.247803;0.005157;-0.333540;-0.235440;-10.065060
12.252960;0.005157;-0.392400;-0.215820;-10.045440
12.258118;0.005157;-0.333540;-0.176580;-9.966960
12.263275;0.005157;-0.333540;-0.196200;-9.849240
12.268433;0.005157;-0.255060;-0.353160;-9.790380
12.273590;0.005157;-0.156960;-0.392400;-9.849240
12.278748;0.005157;-0.156960;-0.255060;-9.927720
12.283905;0.005157;-0.137340;-0.176580;-9.888480
12.289062;0.005157;-0.176580;-0.235440;-10.006200
12.294220;0.005157;-0.255060;-0.255060;-10.025820
12.299377;0.005157;-0.274680;-0.255060;-10.045440
12.304535;0.005157;-0.255060;-0.235440;-10.104300
12.309692;0.005157;-0.176580;-0.235440;-10.182780
12.314850;0.005157;-0.196200;-0.196200;-10.222020
12.320007;0.005157;-0.294300;-0.196200;-10.182780
12.325165;0.005157;-0.255060;-0.117720;-10.222020
12.330322;0.005157;-0.196200;-0.196200;-10.182780
12.335480;0.005157;-0.196200;-0.255060;-10.182780
12.340637;0.005157;-0.098100;-0.255060;-10.143540
12.345795;0.005157;-0.156960;-0.313920;-10.222020
12.350952;0.005157;-0.235440;-0.235440;-10.300500
12.356110;0.005157;-0.274680;-0.255060;-10.300500
12.361267;0.005157;-0.235440;-0.255060;-10.320120
12.366425;0.005157;-0.274680;-0.235440;-10.320120
12.371582;0.005157;-0.333540;-0.215820;-10.320120
12.376740;0.005157;-0.294300;-0.137340;-10.261260
12.381897;0.005157;-0.058860;-0.117720;-10.261260
12.387054;0.005157;-0.039240;-0.196200;-10.280880
12.392212;0.005157;-0.058860;-0.294300;-10.241640
12.397369;0.005157;-0.137340;-0.274680;-10.123920
12.402527;0.005157;-0.215820;-0.313920;-9.927720
12.407684;0.005157;-0.176580;-0.392400;-10.006200
12.412842;0.005157;-0.313920;-0.353160;-10.084680
12.417999;0.005157;-0.353160;-0.235440;-10.182780
12.423157;0.005157;-0.313920;-0.235440;-10.182780
12.428314;0.005157;-0.255060;-0.235440;-10.300500
12.433472;0.005157;-0.392400;-0.196200;-10.261260
12.438629;0.005157;-0.470880;-0.274680;-10.261260
12.443787;0.005157;-0.470880;-0.274680;-10.241640
12.448944;0.005157;-0.451260;-0.313920;-10.261260
12.454102;0.005157;-0.372780;-0.313920;-10.300500
12.459259;0.005157;-0.313920;-0.274680;-10.182780
