# FOX Logger (IMU file)
# (c) INRIA 2011-2013
#
# File created from file /media/pissard/78DA-C21B/HKB0_01.RAW
#
# File format:
# t;dt;ax;ay;az
#
# Units:
#	Time: s
#	Acceleration: m.s^-2
#
0.002960;0.002960;2.118960;1.294920;-8.711280
0.007965;0.005005;2.118960;1.530360;-8.711280
0.012939;0.004974;2.236680;1.765800;-9.064440
0.017944;0.005005;2.354400;1.765800;-8.829000
0.022919;0.004974;2.236680;1.765800;-8.829000
0.027924;0.005005;2.236680;1.765800;-8.711280
0.032898;0.004974;2.236680;1.648080;-8.711280
0.037903;0.005005;2.236680;1.412640;-8.829000
0.042877;0.004974;2.118960;1.648080;-8.593560
0.047882;0.005005;2.118960;1.648080;-8.711280
0.052856;0.004974;2.001240;1.530360;-8.829000
0.057831;0.004974;2.001240;1.412640;-8.593560
0.062836;0.005005;2.001240;1.530360;-8.829000
0.067810;0.004974;2.001240;1.530360;-8.711280
0.072815;0.005005;2.001240;1.412640;-8.829000
0.077789;0.004974;1.883520;1.530360;-8.711280
0.082794;0.005005;1.883520;1.530360;-8.946720
0.087769;0.004974;1.883520;1.294920;-9.064440
0.092743;0.004974;1.883520;1.177200;-8.829000
0.097748;0.005005;1.883520;1.177200;-8.829000
0.102722;0.004974;1.883520;1.177200;-8.593560
0.107727;0.005005;1.883520;1.177200;-8.593560
0.112701;0.004974;1.883520;1.294920;-8.711280
0.117676;0.004974;2.001240;1.177200;-8.711280
0.122681;0.005005;2.236680;1.294920;-8.946720
0.127686;0.005005;2.236680;1.412640;-8.829000
0.132660;0.004974;2.236680;1.412640;-8.829000
0.137634;0.004974;2.472120;1.412640;-8.711280
0.142639;0.005005;2.589840;1.294920;-8.829000
0.147614;0.004974;2.472120;1.177200;-8.829000
0.152618;0.005005;2.236680;1.294920;-8.829000
0.157593;0.004974;2.118960;1.412640;-8.711280
0.162598;0.005005;2.001240;1.412640;-8.711280
0.167572;0.004974;2.236680;1.530360;-8.593560
0.172546;0.004974;2.236680;1.412640;-8.593560
0.177551;0.005005;2.118960;1.530360;-8.475840
0.182526;0.004974;2.001240;1.530360;-8.475840
0.187531;0.005005;2.001240;1.765800;-8.829000
0.192505;0.004974;2.001240;1.765800;-8.711280
0.197510;0.005005;2.001240;1.648080;-8.711280
0.202484;0.004974;1.883520;1.530360;-8.593560
0.207489;0.005005;1.883520;1.530360;-8.711280
0.212463;0.004974;1.883520;1.530360;-8.711280
0.217438;0.004974;1.883520;1.530360;-8.829000
0.222443;0.005005;1.883520;1.648080;-9.064440
0.227417;0.004974;1.883520;1.412640;-8.829000
0.232422;0.005005;1.883520;1.294920;-8.946720
0.237396;0.004974;2.118960;1.294920;-9.299880
0.242401;0.005005;2.001240;1.412640;-9.182160
0.247375;0.004974;2.118960;1.530360;-9.535320
0.252350;0.004974;2.001240;1.412640;-9.182160
0.257355;0.005005;2.001240;1.530360;-9.299880
0.262329;0.004974;1.883520;1.412640;-9.064440
0.267303;0.004974;2.001240;1.648080;-8.946720
0.272308;0.005005;2.118960;1.412640;-8.829000
0.277283;0.004974;2.001240;1.294920;-8.946720
0.282257;0.004974;2.001240;1.412640;-9.064440
0.287262;0.005005;2.001240;1.412640;-8.946720
0.292236;0.004974;2.001240;1.294920;-8.711280
0.297241;0.005005;2.001240;1.412640;-8.829000
0.302216;0.004974;2.118960;1.294920;-8.711280
0.307220;0.005005;2.001240;1.412640;-8.946720
0.312195;0.004974;2.001240;1.412640;-8.946720
0.317200;0.005005;2.118960;1.530360;-9.064440
0.322174;0.004974;2.001240;1.648080;-9.299880
0.327148;0.004974;2.118960;1.530360;-9.299880
0.332153;0.005005;2.001240;1.294920;-9.182160
0.337128;0.004974;2.001240;1.294920;-9.064440
0.342133;0.005005;2.001240;1.177200;-9.299880
0.347107;0.004974;2.001240;1.059480;-9.535320
0.352112;0.005005;1.883520;1.177200;-9.299880
0.357086;0.004974;1.765800;0.941760;-7.887240
0.362091;0.005005;1.883520;1.177200;-8.946720
0.367065;0.004974;1.883520;0.824040;-9.770760
0.372070;0.005005;1.765800;0.941760;-10.006200
0.377045;0.004974;1.765800;0.824040;-8.946720
0.382050;0.005005;1.412640;0.941760;-8.829000
0.387024;0.004974;1.648080;0.470880;-11.065680
0.391998;0.004974;2.118960;0.941760;-11.418840
0.397003;0.005005;2.236680;0.588600;-11.301120
0.401978;0.004974;2.118960;0.470880;-11.301120
0.406982;0.005005;5.768280;0.941760;13.184640
0.411957;0.004974;0.235440;-1.412640;4.120200
0.416931;0.004974;0.470880;0.941760;1.883520
0.421936;0.005005;1.177200;0.470880;-2.354400
0.426910;0.004974;0.824040;0.235440;-6.356880
0.431915;0.005005;0.824040;0.117720;-7.769520
0.436890;0.004974;1.059480;0.117720;-8.358120
0.441895;0.005005;1.648080;0.353160;-8.711280
0.446869;0.004974;1.530360;0.235440;-8.711280
0.451843;0.004974;1.177200;0.117720;-8.593560
0.456848;0.005005;0.824040;0.117720;-8.829000
0.461823;0.004974;0.824040;0.117720;-8.711280
0.466797;0.004974;0.941760;0.000000;-8.593560
0.471802;0.005005;0.941760;0.117720;-8.711280
0.476776;0.004974;1.059480;0.235440;-8.829000
0.481781;0.005005;0.824040;0.117720;-9.182160
0.486755;0.004974;1.059480;0.117720;-9.417600
0.491760;0.005005;1.294920;0.117720;-9.535320
0.496735;0.004974;1.177200;0.117720;-9.417600
0.501740;0.005005;1.059480;0.235440;-9.417600
0.506714;0.004974;0.588600;0.235440;-9.653040
0.511719;0.005005;1.177200;0.117720;-9.417600
0.516693;0.004974;1.059480;0.117720;-9.535320
0.521698;0.005005;0.941760;0.000000;-9.417600
0.526672;0.004974;0.706320;0.000000;-9.182160
0.531647;0.004974;0.824040;0.000000;-8.946720
0.536652;0.005005;0.941760;-0.117720;-9.182160
0.541626;0.004974;0.941760;-0.117720;-8.829000
0.546631;0.005005;1.177200;-0.235440;-8.593560
0.551605;0.004974;1.294920;-0.353160;-8.711280
0.556610;0.005005;1.177200;-0.353160;-8.593560
0.561584;0.004974;1.059480;-0.117720;-8.711280
0.566589;0.005005;1.294920;0.000000;-8.946720
0.571564;0.004974;1.294920;-0.117720;-9.182160
0.576538;0.004974;1.412640;-0.235440;-9.417600
0.581543;0.005005;1.294920;-0.235440;-9.299880
0.586517;0.004974;0.824040;-0.235440;-9.182160
0.591492;0.004974;1.294920;-0.117720;-9.182160
0.596497;0.005005;1.530360;0.000000;-9.299880
0.601471;0.004974;1.648080;0.000000;-9.653040
0.606476;0.005005;1.294920;0.117720;-9.417600
0.611450;0.004974;1.294920;0.235440;-9.653040
0.616455;0.005005;1.412640;0.000000;-9.417600
0.621429;0.004974;1.177200;-0.117720;-9.182160
0.626434;0.005005;1.294920;0.000000;-9.182160
0.631409;0.004974;0.941760;-0.235440;-9.182160
0.636383;0.004974;1.059480;-0.235440;-9.182160
0.641388;0.005005;0.941760;-0.117720;-9.182160
0.646362;0.004974;1.177200;0.000000;-8.946720
0.651367;0.005005;1.530360;-0.117720;-8.946720
0.656342;0.004974;1.648080;0.117720;-9.299880
0.661346;0.005005;1.530360;0.235440;-9.182160
0.666321;0.004974;1.412640;0.235440;-9.299880
0.671326;0.005005;1.294920;0.117720;-9.299880
0.676300;0.004974;1.177200;0.117720;-9.299880
0.681305;0.005005;0.824040;0.235440;-9.535320
0.686310;0.005005;1.177200;0.117720;-9.770760
0.691284;0.004974;1.294920;0.117720;-9.770760
0.696289;0.005005;1.177200;0.235440;-9.888480
0.701263;0.004974;1.177200;0.235440;-9.770760
0.706268;0.005005;1.177200;0.117720;-9.182160
0.711243;0.004974;0.941760;0.235440;-9.064440
0.716248;0.005005;1.177200;0.235440;-9.064440
0.721222;0.004974;1.059480;0.117720;-9.064440
0.726196;0.004974;0.941760;0.117720;-8.946720
0.731201;0.005005;1.059480;0.117720;-8.946720
0.736176;0.004974;1.177200;0.235440;-8.946720
0.741180;0.005005;1.059480;0.117720;-9.182160
0.746155;0.004974;1.059480;0.235440;-9.417600
0.751160;0.005005;0.824040;0.117720;-9.417600
0.756134;0.004974;1.177200;0.000000;-9.535320
0.761139;0.005005;0.824040;0.000000;-9.535320
0.766113;0.004974;0.941760;0.117720;-9.535320
0.771088;0.004974;0.941760;0.117720;-9.653040
0.776093;0.005005;1.059480;0.117720;-9.182160
0.781067;0.004974;0.824040;0.117720;-9.417600
0.786072;0.005005;0.824040;0.235440;-9.535320
0.791046;0.004974;0.824040;0.000000;-9.182160
0.796021;0.004974;0.824040;-0.117720;-9.535320
0.801025;0.005005;0.824040;-0.117720;-9.417600
0.806000;0.004974;0.941760;0.000000;-9.770760
0.811005;0.005005;1.059480;0.000000;-9.888480
0.815979;0.004974;1.059480;-0.235440;-9.535320
0.820984;0.005005;0.824040;-0.235440;-9.653040
0.825958;0.004974;0.941760;-0.117720;-9.417600
0.830963;0.005005;0.706320;0.000000;-9.653040
0.835938;0.004974;0.824040;-0.353160;-9.770760
0.840942;0.005005;0.824040;-0.353160;-9.417600
0.845917;0.004974;0.588600;-0.588600;-9.653040
0.850922;0.005005;0.353160;-0.470880;-9.535320
0.855896;0.004974;0.235440;-0.470880;-8.946720
0.860901;0.005005;0.470880;-0.706320;-8.946720
0.865875;0.004974;0.353160;-0.706320;-8.711280
0.870850;0.004974;0.235440;-1.059480;-8.593560
0.875854;0.005005;0.353160;-1.177200;-8.004960
0.880829;0.004974;0.235440;-1.294920;-8.240400
0.885834;0.005005;-0.470880;-1.294920;-8.358120
0.890808;0.004974;-0.706320;-1.412640;-8.593560
0.895782;0.004974;-0.588600;-1.412640;-8.593560
0.900787;0.005005;-0.235440;-1.530360;-8.946720
0.905762;0.004974;-0.235440;-1.412640;-9.182160
0.910767;0.005005;-0.588600;-1.412640;-9.182160
0.915741;0.004974;-0.588600;-1.648080;-8.829000
0.920746;0.005005;-0.824040;-1.648080;-8.593560
0.925720;0.004974;-0.941760;-1.648080;-8.829000
0.930725;0.005005;-0.117720;-1.648080;-8.711280
0.935699;0.004974;0.941760;-1.530360;-8.946720
0.940704;0.005005;1.177200;-1.294920;-9.182160
0.945679;0.004974;0.588600;-1.294920;-9.064440
0.950653;0.004974;0.353160;-1.412640;-8.593560
0.955658;0.005005;0.235440;-1.648080;-8.593560
0.960632;0.004974;0.117720;-1.530360;-8.593560
0.965637;0.005005;0.353160;-1.530360;-8.475840
0.970612;0.004974;0.470880;-1.412640;-8.358120
0.975616;0.005005;0.941760;-1.530360;-8.240400
0.980591;0.004974;0.588600;-1.530360;-8.475840
0.985596;0.005005;0.470880;-1.177200;-8.593560
0.990570;0.004974;0.353160;-1.530360;-8.711280
0.995575;0.005005;0.353160;-1.530360;-9.299880
1.000549;0.004974;0.353160;-1.177200;-9.770760
1.005554;0.005005;0.235440;-1.059480;-9.888480
1.010529;0.004974;0.117720;-1.294920;-10.123920
1.015533;0.005005;0.353160;-1.294920;-9.770760
1.020508;0.004974;0.235440;-1.412640;-9.417600
1.025513;0.005005;0.117720;-1.765800;-9.182160
1.030487;0.004974;0.353160;-1.765800;-9.182160
1.035461;0.004974;0.235440;-1.765800;-9.064440
1.040466;0.005005;0.470880;-1.648080;-8.475840
1.045441;0.004974;0.353160;-1.530360;-8.829000
1.050446;0.005005;0.470880;-0.706320;-9.417600
1.055420;0.004974;2.118960;-1.648080;-10.006200
1.060425;0.005005;-1.294920;-0.235440;-8.593560
1.065399;0.004974;-1.648080;-0.706320;-7.651800
1.070404;0.005005;-0.824040;-2.001240;-8.358120
1.075378;0.004974;-0.353160;-1.883520;-8.475840
1.080383;0.005005;-0.117720;-1.765800;-8.711280
1.085358;0.004974;1.059480;-1.765800;-9.535320
1.090363;0.005005;1.530360;-2.001240;-9.064440
1.095337;0.004974;1.412640;-1.765800;-9.182160
1.100342;0.005005;1.412640;-1.648080;-9.299880
1.105347;0.005005;1.412640;-1.412640;-8.829000
1.110321;0.004974;1.177200;-1.294920;-8.593560
1.115326;0.005005;0.824040;-1.059480;-8.593560
1.120300;0.004974;0.470880;-1.059480;-8.946720
1.125305;0.005005;0.000000;-1.059480;-8.829000
1.130280;0.004974;-0.470880;-1.059480;-8.829000
1.135284;0.005005;-0.941760;-1.294920;-8.946720
1.140259;0.004974;-0.588600;-1.294920;-9.182160
1.145264;0.005005;-0.941760;-1.412640;-9.299880
1.150238;0.004974;-1.059480;-1.177200;-9.182160
1.155243;0.005005;-0.824040;-0.941760;-8.946720
1.160217;0.004974;-0.824040;-0.941760;-8.475840
1.165222;0.005005;-0.706320;-0.706320;-8.475840
1.170197;0.004974;-0.588600;-0.824040;-8.711280
1.175201;0.005005;-0.235440;-0.588600;-8.946720
1.180176;0.004974;-0.706320;-0.470880;-9.182160
1.185150;0.004974;-1.059480;-0.353160;-9.653040
1.190155;0.005005;-1.059480;-0.117720;-9.653040
1.195160;0.005005;-1.412640;-0.235440;-9.535320
1.200134;0.004974;-1.294920;-0.353160;-9.182160
1.205139;0.005005;-1.177200;-0.353160;-9.182160
1.210114;0.004974;-1.059480;-0.353160;-9.064440
1.215118;0.005005;-0.706320;-0.706320;-9.064440
1.220093;0.004974;-0.470880;-0.824040;-8.829000
1.225067;0.004974;-0.353160;-0.706320;-8.829000
1.230072;0.005005;-0.235440;-0.941760;-8.946720
1.235046;0.004974;-0.470880;-0.588600;-8.946720
1.240021;0.004974;-0.470880;-0.470880;-9.299880
1.245026;0.005005;-0.235440;-0.588600;-9.299880
1.250000;0.004974;-0.706320;-0.824040;-9.064440
1.255005;0.005005;-0.470880;-0.824040;-9.182160
1.259979;0.004974;-0.470880;-0.706320;-9.064440
1.264984;0.005005;-0.353160;-0.706320;-8.946720
1.269958;0.004974;-0.235440;-0.824040;-8.593560
1.274963;0.005005;-0.235440;-0.824040;-8.711280
1.279938;0.004974;-0.117720;-0.941760;-8.593560
1.284943;0.005005;0.000000;-1.177200;-8.475840
1.289917;0.004974;-0.235440;-1.294920;-8.593560
1.294922;0.005005;-0.824040;-1.294920;-8.711280
1.299896;0.004974;-0.941760;-0.941760;-9.299880
1.304901;0.005005;-1.177200;-0.824040;-9.653040
1.309875;0.004974;-0.824040;-0.941760;-9.653040
1.314880;0.005005;-0.706320;-0.706320;-9.535320
1.319855;0.004974;-0.588600;-0.706320;-9.182160
1.324860;0.005005;-0.353160;-0.941760;-8.829000
1.329834;0.004974;-0.353160;-1.059480;-8.593560
1.334839;0.005005;-0.235440;-0.941760;-8.593560
1.339813;0.004974;-0.588600;-1.294920;-8.475840
1.344818;0.005005;-0.824040;-1.294920;-9.182160
1.349792;0.004974;-1.177200;-1.177200;-9.535320
1.354767;0.004974;-1.177200;-1.294920;-9.653040
1.359772;0.005005;-0.706320;-1.059480;-9.888480
1.364746;0.004974;-0.470880;-0.941760;-9.888480
1.369751;0.005005;-0.824040;-1.059480;-9.770760
1.374725;0.004974;-0.706320;-1.294920;-9.299880
1.379730;0.005005;-0.588600;-1.059480;-8.946720
1.384705;0.004974;-0.353160;-1.177200;-8.946720
1.389709;0.005005;-0.235440;-1.294920;-8.946720
1.394684;0.004974;-0.353160;-0.941760;-8.711280
1.399689;0.005005;-0.117720;-1.059480;-9.064440
1.404663;0.004974;-0.353160;-1.294920;-8.711280
1.409668;0.005005;-0.235440;-1.530360;-9.535320
1.414642;0.004974;-0.470880;-1.412640;-9.535320
1.419647;0.005005;-0.470880;-1.648080;-9.535320
1.424622;0.004974;-0.353160;-1.765800;-9.535320
1.429626;0.005005;-0.588600;-1.412640;-9.535320
1.434601;0.004974;-0.117720;-1.177200;-9.417600
1.439606;0.005005;0.117720;-1.412640;-9.299880
1.444580;0.004974;0.117720;-1.530360;-9.182160
1.449554;0.004974;0.470880;-1.530360;-9.182160
1.454559;0.005005;0.235440;-1.648080;-8.946720
1.459534;0.004974;0.117720;-1.648080;-8.711280
1.464539;0.005005;0.117720;-1.765800;-8.711280
1.469513;0.004974;0.000000;-1.765800;-8.829000
1.474518;0.005005;-0.117720;-1.765800;-9.064440
1.479492;0.004974;-0.235440;-1.648080;-9.417600
1.484497;0.005005;-0.353160;-1.765800;-9.535320
1.489471;0.004974;-0.117720;-1.765800;-9.299880
1.494476;0.005005;0.117720;-1.765800;-9.535320
1.499451;0.004974;0.235440;-1.765800;-9.535320
1.504425;0.004974;0.470880;-1.765800;-9.888480
1.509430;0.005005;0.353160;-1.765800;-10.006200
1.514404;0.004974;0.353160;-1.765800;-9.653040
1.519409;0.005005;0.353160;-1.765800;-9.417600
1.524384;0.004974;0.470880;-1.765800;-9.417600
1.529358;0.004974;0.588600;-1.765800;-9.182160
1.534363;0.005005;0.706320;-1.765800;-9.064440
1.539337;0.004974;0.470880;-1.765800;-8.946720
1.544342;0.005005;0.353160;-1.765800;-8.711280
1.549316;0.004974;0.470880;-1.765800;-8.593560
1.554291;0.004974;0.588600;-1.765800;-8.475840
1.559296;0.005005;0.353160;-1.765800;-8.593560
1.564270;0.004974;0.353160;-1.765800;-8.475840
1.569275;0.005005;0.353160;-1.648080;-8.358120
1.574249;0.004974;0.235440;-1.765800;-8.358120
1.579254;0.005005;-0.117720;-1.765800;-8.593560
1.584229;0.004974;-0.117720;-1.648080;-8.475840
1.589233;0.005005;-0.117720;-1.648080;-8.946720
1.594208;0.004974;-0.235440;-1.530360;-8.946720
1.599213;0.005005;-0.470880;-1.530360;-8.829000
1.604187;0.004974;-0.353160;-1.530360;-8.829000
1.609192;0.005005;-0.353160;-1.648080;-8.711280
1.614166;0.004974;-0.353160;-1.765800;-8.946720
1.619141;0.004974;-0.117720;-1.765800;-9.299880
1.624146;0.005005;0.117720;-1.765800;-8.946720
1.629120;0.004974;0.117720;-1.765800;-9.182160
1.634125;0.005005;0.117720;-1.765800;-9.064440
1.639099;0.004974;0.117720;-1.530360;-9.299880
1.644104;0.005005;0.353160;-1.648080;-9.182160
1.649078;0.004974;0.235440;-1.765800;-8.946720
1.654053;0.004974;0.235440;-1.765800;-8.829000
1.659058;0.005005;0.235440;-1.765800;-8.711280
1.664032;0.004974;0.353160;-1.765800;-8.946720
1.669037;0.005005;0.470880;-1.765800;-9.417600
1.674042;0.005005;0.706320;-1.765800;-9.182160
1.679016;0.004974;0.588600;-1.765800;-9.299880
1.683990;0.004974;0.470880;-1.765800;-9.182160
1.688995;0.005005;0.588600;-1.765800;-8.829000
1.693970;0.004974;0.706320;-1.765800;-8.711280
1.698975;0.005005;0.706320;-1.765800;-8.593560
1.703949;0.004974;0.824040;-1.765800;-8.711280
1.708923;0.004974;0.588600;-1.765800;-8.711280
1.713928;0.005005;0.941760;-1.765800;-8.829000
1.718903;0.004974;1.177200;-1.765800;-8.711280
1.723907;0.005005;1.294920;-1.883520;-9.064440
1.728882;0.004974;1.177200;-1.883520;-8.829000
1.733887;0.005005;1.177200;-1.883520;-8.711280
1.738861;0.004974;1.177200;-1.883520;-9.182160
1.743866;0.005005;1.059480;-2.001240;-9.299880
1.748840;0.004974;0.706320;-1.883520;-9.299880
1.753815;0.004974;0.824040;-2.001240;-8.829000
1.758820;0.005005;0.706320;-2.118960;-8.711280
1.763794;0.004974;0.706320;-2.001240;-9.064440
1.768799;0.005005;0.588600;-1.883520;-8.711280
1.773773;0.004974;0.706320;-1.883520;-8.593560
1.778778;0.005005;0.588600;-1.883520;-8.829000
1.783752;0.004974;0.588600;-1.883520;-9.182160
1.788757;0.005005;0.470880;-1.883520;-9.182160
1.793732;0.004974;0.470880;-2.001240;-9.417600
1.798706;0.004974;0.235440;-2.001240;-9.299880
1.803711;0.005005;0.000000;-2.001240;-9.535320
1.808685;0.004974;0.117720;-1.883520;-9.417600
1.813690;0.005005;0.235440;-2.001240;-9.535320
1.818665;0.004974;0.235440;-1.883520;-9.182160
1.823669;0.005005;0.470880;-1.883520;-8.829000
1.828644;0.004974;0.706320;-1.883520;-8.475840
1.833649;0.005005;0.824040;-2.001240;-8.593560
1.838623;0.004974;1.059480;-2.001240;-8.475840
1.843628;0.005005;1.059480;-1.883520;-8.475840
1.848602;0.004974;1.177200;-1.883520;-8.475840
1.853577;0.004974;1.294920;-2.001240;-8.475840
1.858582;0.005005;1.530360;-1.883520;-8.240400
1.863556;0.004974;1.294920;-2.001240;-8.240400
1.868561;0.005005;1.648080;-1.883520;-8.240400
1.873535;0.004974;1.294920;-1.883520;-8.240400
1.878540;0.005005;1.412640;-1.883520;-8.004960
1.883514;0.004974;1.412640;-1.883520;-8.122680
1.888519;0.005005;1.294920;-1.883520;-8.122680
1.893494;0.004974;1.412640;-1.883520;-8.240400
1.898499;0.005005;1.412640;-2.001240;-8.358120
1.903473;0.004974;1.530360;-2.236680;-8.475840
1.908478;0.005005;1.765800;-2.001240;-8.593560
1.913452;0.004974;1.883520;-2.118960;-8.475840
1.918457;0.005005;1.765800;-2.472120;-8.711280
1.923431;0.004974;2.001240;-2.707560;-8.593560
1.928436;0.005005;2.001240;-2.707560;-8.475840
1.933411;0.004974;2.118960;-2.472120;-8.711280
1.938416;0.005005;2.001240;-2.589840;-8.829000
1.943390;0.004974;2.118960;-2.354400;-8.593560
1.948395;0.005005;2.001240;-2.236680;-8.711280
1.953369;0.004974;1.883520;-2.236680;-8.711280
1.958374;0.005005;2.001240;-2.118960;-8.475840
1.963348;0.004974;2.001240;-2.118960;-8.122680
1.968353;0.005005;2.001240;-2.118960;-7.887240
1.973328;0.004974;2.001240;-2.001240;-7.887240
1.978302;0.004974;1.883520;-2.118960;-7.769520
1.983307;0.005005;1.883520;-2.354400;-7.887240
1.988281;0.004974;1.765800;-2.472120;-8.004960
1.993286;0.005005;1.883520;-2.472120;-8.122680
1.998260;0.004974;1.648080;-2.236680;-8.240400
2.003265;0.005005;1.648080;-2.589840;-8.593560
2.008240;0.004974;1.648080;-2.825280;-8.593560
2.013245;0.005005;1.765800;-2.943000;-8.711280
2.018219;0.004974;1.883520;-2.707560;-8.829000
2.023224;0.005005;1.883520;-3.060720;-8.711280
2.028198;0.004974;1.765800;-3.060720;-8.711280
2.033173;0.004974;1.883520;-3.413880;-9.064440
2.038177;0.005005;1.883520;-3.413880;-8.946720
2.043152;0.004974;1.883520;-3.178440;-8.711280
2.048157;0.005005;2.118960;-3.060720;-8.475840
2.053131;0.004974;2.001240;-2.943000;-8.475840
2.058105;0.004974;2.001240;-2.943000;-8.240400
2.063110;0.005005;2.236680;-2.825280;-7.887240
2.068085;0.004974;2.118960;-2.825280;-8.004960
2.073090;0.005005;2.118960;-3.060720;-8.358120
2.078064;0.004974;1.883520;-2.943000;-8.358120
2.083069;0.005005;1.765800;-2.707560;-8.358120
2.088043;0.004974;1.883520;-2.589840;-8.358120
2.093018;0.004974;1.883520;-2.707560;-8.358120
2.098022;0.005005;1.883520;-2.589840;-8.358120
2.102997;0.004974;1.883520;-2.707560;-8.358120
2.108002;0.005005;1.648080;-2.825280;-8.358120
2.112976;0.004974;1.530360;-2.943000;-8.358120
2.117950;0.004974;1.648080;-2.589840;-8.240400
2.122955;0.005005;1.765800;-2.707560;-8.240400
2.127930;0.004974;1.765800;-2.707560;-8.240400
2.132935;0.005005;1.765800;-2.825280;-8.240400
2.137909;0.004974;1.883520;-2.707560;-8.475840
2.142883;0.004974;1.883520;-2.707560;-8.475840
2.147888;0.005005;1.765800;-2.707560;-8.475840
2.152893;0.005005;1.648080;-2.589840;-8.475840
2.157867;0.004974;1.648080;-2.707560;-8.593560
2.162842;0.004974;1.648080;-2.589840;-8.475840
2.167847;0.005005;1.530360;-2.589840;-8.711280
2.172821;0.004974;1.765800;-2.825280;-8.829000
2.177826;0.005005;1.883520;-2.707560;-8.593560
2.182800;0.004974;1.765800;-2.825280;-8.475840
2.187805;0.005005;1.765800;-2.825280;-8.711280
2.192780;0.004974;1.883520;-2.943000;-8.711280
2.197784;0.005005;1.765800;-2.943000;-8.711280
2.202759;0.004974;1.883520;-2.589840;-8.593560
2.207764;0.005005;1.883520;-2.589840;-8.475840
2.212738;0.004974;1.765800;-2.589840;-8.593560
2.217712;0.004974;1.765800;-2.589840;-8.475840
2.222717;0.005005;1.883520;-2.589840;-8.593560
2.227692;0.004974;1.883520;-2.472120;-8.593560
2.232697;0.005005;1.883520;-2.589840;-8.358120
2.237671;0.004974;1.883520;-2.589840;-8.358120
2.242676;0.005005;2.001240;-2.236680;-7.887240
2.247650;0.004974;2.001240;-2.236680;-8.122680
2.252625;0.004974;1.765800;-2.118960;-8.004960
2.257629;0.005005;1.883520;-2.354400;-8.122680
2.262604;0.004974;1.883520;-2.589840;-8.240400
2.267609;0.005005;1.883520;-2.707560;-8.358120
2.272583;0.004974;1.883520;-2.943000;-8.358120
2.277588;0.005005;1.883520;-3.060720;-8.358120
2.282562;0.004974;2.001240;-3.060720;-8.358120
2.287537;0.004974;2.001240;-3.413880;-8.475840
2.292542;0.005005;2.001240;-3.413880;-8.358120
2.297516;0.004974;1.883520;-3.060720;-8.358120
2.302521;0.005005;1.883520;-3.060720;-8.358120
2.307495;0.004974;1.648080;-3.060720;-8.475840
2.312469;0.004974;1.648080;-3.178440;-8.475840
2.317474;0.005005;1.648080;-3.178440;-8.593560
2.322479;0.005005;1.648080;-2.825280;-8.358120
2.327454;0.004974;1.648080;-3.060720;-8.358120
2.332458;0.005005;1.648080;-3.060720;-8.358120
2.337433;0.004974;1.765800;-3.060720;-8.475840
2.342438;0.005005;1.648080;-3.296160;-8.475840
2.347412;0.004974;1.883520;-3.413880;-8.475840
2.352417;0.005005;1.883520;-3.296160;-8.358120
2.357391;0.004974;1.883520;-3.649320;-8.358120
2.362396;0.005005;2.001240;-3.531600;-8.358120
2.367371;0.004974;2.001240;-3.296160;-8.240400
2.372375;0.005005;2.001240;-3.413880;-8.358120
2.377350;0.004974;1.883520;-3.413880;-8.358120
2.382355;0.005005;2.001240;-3.296160;-8.475840
2.387329;0.004974;2.001240;-3.178440;-8.004960
2.392303;0.004974;1.648080;-2.943000;-8.240400
2.397308;0.005005;1.177200;-2.589840;-8.122680
2.402283;0.004974;1.530360;-2.472120;-8.004960
2.407288;0.005005;0.706320;-3.531600;-9.299880
2.412262;0.004974;1.412640;-2.825280;-8.711280
2.417236;0.004974;1.648080;-2.825280;-8.593560
2.422241;0.005005;1.530360;-4.002480;-8.593560
2.427216;0.004974;1.883520;-3.178440;-8.711280
2.432220;0.005005;1.883520;-3.296160;-8.475840
2.437195;0.004974;2.236680;-3.649320;-8.475840
2.442200;0.005005;2.472120;-3.767040;-8.240400
2.447174;0.004974;2.472120;-3.531600;-8.475840
2.452148;0.004974;2.472120;-3.413880;-8.358120
2.457153;0.005005;2.589840;-2.943000;-8.358120
2.462128;0.004974;2.589840;-2.825280;-8.240400
2.467133;0.005005;2.589840;-2.707560;-8.004960
2.472107;0.004974;2.354400;-2.472120;-7.887240
2.477112;0.005005;2.236680;-2.472120;-7.651800
2.482086;0.004974;2.118960;-2.354400;-8.004960
2.487061;0.004974;2.118960;-2.236680;-8.122680
2.492065;0.005005;2.118960;-2.236680;-7.887240
2.497040;0.004974;2.472120;-2.001240;-7.887240
2.502045;0.005005;2.354400;-2.118960;-8.122680
2.507019;0.004974;2.118960;-2.707560;-8.475840
2.512024;0.005005;2.001240;-3.296160;-10.123920
2.516998;0.004974;1.648080;-3.060720;-7.180920
2.522003;0.005005;1.883520;-3.178440;-8.358120
2.526978;0.004974;1.883520;-3.178440;-8.358120
2.531952;0.004974;2.001240;-2.707560;-8.593560
2.536957;0.005005;2.001240;-2.472120;-8.593560
2.541931;0.004974;2.001240;-2.354400;-8.475840
2.546936;0.005005;2.354400;-2.354400;-8.711280
2.551910;0.004974;2.118960;-2.589840;-9.182160
2.556915;0.005005;2.118960;-2.472120;-8.829000
2.561890;0.004974;2.001240;-2.354400;-8.829000
2.566895;0.005005;2.001240;-2.236680;-9.535320
2.571869;0.004974;1.883520;-2.118960;-8.946720
2.576874;0.005005;2.236680;-2.001240;-8.122680
2.581848;0.004974;2.354400;-2.001240;-8.829000
2.586853;0.005005;2.118960;-2.118960;-9.182160
2.591827;0.004974;2.001240;-2.001240;-9.064440
2.596832;0.005005;2.001240;-1.883520;-9.182160
2.601807;0.004974;2.001240;-1.883520;-9.064440
2.606812;0.005005;-0.235440;-4.002480;-2.943000
2.611786;0.004974;1.177200;-2.472120;-4.591080
2.616791;0.005005;2.001240;-2.589840;-7.063200
2.621765;0.004974;2.589840;-2.354400;-10.712520
2.626770;0.005005;2.589840;-2.472120;-7.063200
2.631744;0.004974;1.648080;-1.294920;-10.006200
2.636749;0.005005;0.824040;-1.059480;-14.597280
2.641724;0.004974;0.470880;-4.002480;-23.426280
2.646729;0.005005;3.649320;-4.708800;-18.364320
2.651703;0.004974;3.531600;-4.944240;-14.479560
2.656708;0.005005;3.767040;-4.944240;-10.830240
2.661682;0.004974;3.413880;-3.767040;-8.593560
2.666687;0.005005;3.296160;-2.825280;-7.534080
2.671661;0.004974;3.413880;-2.707560;-7.180920
2.676666;0.005005;3.413880;-2.707560;-6.592320
2.681641;0.004974;3.413880;-2.354400;-6.592320
2.686646;0.005005;3.060720;-2.118960;-6.592320
2.691620;0.004974;2.472120;-2.001240;-7.063200
2.696625;0.005005;2.354400;-1.765800;-7.298640
2.701599;0.004974;2.236680;-1.765800;-7.180920
2.706604;0.005005;-1.765800;-3.178440;-8.711280
2.711578;0.004974;0.117720;-2.589840;-8.475840
2.716583;0.005005;1.059480;-2.236680;-8.475840
2.721558;0.004974;1.530360;-2.001240;-8.475840
2.726562;0.005005;1.765800;-2.001240;-8.593560
2.731537;0.004974;1.883520;-2.589840;-8.593560
2.736542;0.005005;1.883520;-2.236680;-8.593560
2.741516;0.004974;2.001240;-3.413880;-8.358120
2.746521;0.005005;2.001240;-2.825280;-8.829000
2.751495;0.004974;2.001240;-2.825280;-8.593560
2.756500;0.005005;2.354400;-2.825280;-8.475840
2.761475;0.004974;2.118960;-1.412640;-8.122680
2.766479;0.005005;1.412640;-1.294920;-8.358120
2.771454;0.004974;0.706320;-3.178440;-8.122680
2.776459;0.005005;0.706320;-3.178440;-8.358120
2.781433;0.004974;1.059480;-1.648080;-8.122680
2.786407;0.004974;1.177200;-1.648080;-7.651800
2.791412;0.005005;1.059480;-1.648080;-7.298640
2.796387;0.004974;0.824040;-1.648080;-7.180920
2.801392;0.005005;0.941760;-2.118960;-7.416360
2.806366;0.004974;1.412640;-2.354400;-7.651800
2.811371;0.005005;1.294920;-2.589840;-8.358120
2.816345;0.004974;1.177200;-2.707560;-8.358120
2.821350;0.005005;1.530360;-2.825280;-8.593560
2.826324;0.004974;1.883520;-2.707560;-8.475840
2.831329;0.005005;1.883520;-2.354400;-8.475840
2.836304;0.004974;1.883520;-2.118960;-8.358120
2.841309;0.005005;1.883520;-2.472120;-8.593560
2.846283;0.004974;0.941760;-2.825280;-8.475840
2.851257;0.004974;1.177200;-3.296160;-8.358120
2.856262;0.005005;2.001240;-2.707560;-8.358120
2.861237;0.004974;2.236680;-2.236680;-8.240400
2.866241;0.005005;2.236680;-2.001240;-7.887240
2.871216;0.004974;1.765800;-1.648080;-7.180920
2.876221;0.005005;1.883520;-1.530360;-7.180920
2.881195;0.004974;1.530360;-1.765800;-7.298640
2.886200;0.005005;1.883520;-1.765800;-8.004960
2.891205;0.005005;1.883520;-2.001240;-8.593560
2.896179;0.004974;1.294920;-3.531600;-7.651800
2.901184;0.005005;1.412640;-3.060720;-7.298640
2.906158;0.004974;1.412640;-2.707560;-8.240400
2.911133;0.004974;1.412640;-2.707560;-8.358120
2.916138;0.005005;1.765800;-2.825280;-10.006200
2.921112;0.004974;1.765800;-2.472120;-9.535320
2.926086;0.004974;1.883520;-2.236680;-9.182160
2.931091;0.005005;1.765800;-2.118960;-7.887240
2.936066;0.004974;1.530360;-3.060720;-7.651800
2.941071;0.005005;0.000000;-1.530360;-8.946720
2.946045;0.004974;-0.353160;-1.765800;-8.358120
2.951050;0.005005;0.000000;-2.472120;-10.006200
2.956024;0.004974;0.941760;-1.765800;-8.946720
2.961029;0.005005;1.765800;-1.765800;-8.829000
2.966003;0.004974;1.883520;-1.883520;-9.299880
2.971008;0.005005;1.765800;-2.001240;-9.535320
2.975983;0.004974;1.059480;-1.883520;-10.594800
2.980988;0.005005;0.235440;-2.001240;-10.712520
2.985962;0.004974;-1.412640;-3.649320;-10.359360
2.990967;0.005005;-0.588600;-2.118960;-12.242880
2.995941;0.004974;-0.470880;-2.707560;-11.772000
3.000946;0.005005;-0.824040;-2.354400;-12.007440
3.005951;0.005005;-3.767040;-5.415120;-10.123920
3.010925;0.004974;-0.941760;-1.883520;-10.712520
3.015900;0.004974;-0.824040;-1.059480;-12.713760
3.020905;0.005005;-2.707560;-6.003720;-6.945480
3.025879;0.004974;5.886000;-2.589840;8.358120
3.030884;0.005005;9.417600;-2.118960;3.060720
3.035858;0.004974;5.415120;-2.354400;-2.589840
3.040863;0.005005;2.707560;-2.001240;-4.591080
3.045837;0.004974;2.001240;-2.707560;-6.474600
3.050842;0.005005;1.177200;-3.178440;-8.004960
3.055847;0.005005;0.588600;-4.237920;-9.888480
3.060822;0.004974;1.530360;-3.767040;-8.122680
3.065796;0.004974;1.883520;-3.060720;-8.122680
3.070801;0.005005;1.883520;-3.413880;-8.358120
3.075775;0.004974;1.883520;-2.943000;-9.417600
3.080780;0.005005;2.354400;-2.589840;-9.770760
3.085754;0.004974;2.354400;-2.589840;-10.594800
3.090759;0.005005;2.118960;-2.472120;-8.122680
3.095734;0.004974;4.355640;-0.470880;-2.589840
3.100708;0.004974;3.296160;-1.177200;-5.886000
3.105713;0.005005;2.118960;-1.648080;-7.651800
3.110687;0.004974;1.648080;-1.883520;-7.651800
3.115692;0.005005;1.765800;-1.883520;-7.769520
3.120667;0.004974;1.765800;-1.883520;-7.887240
3.125671;0.005005;1.530360;-2.118960;-7.769520
3.130646;0.004974;0.941760;-2.001240;-7.298640
3.135651;0.005005;0.824040;-2.001240;-7.298640
3.140625;0.004974;0.470880;-1.883520;-7.063200
3.145599;0.004974;1.177200;-1.883520;-7.651800
3.150604;0.005005;1.765800;-1.883520;-8.122680
3.155579;0.004974;2.354400;-1.765800;-8.829000
3.160583;0.005005;2.472120;-1.765800;-9.064440
3.165558;0.004974;2.472120;-1.648080;-9.182160
3.170563;0.005005;2.472120;-1.765800;-8.946720
3.175537;0.004974;2.589840;-1.294920;-8.946720
3.180511;0.004974;3.060720;-1.177200;-9.653040
3.185516;0.005005;4.591080;-0.117720;-10.123920
3.190491;0.004974;4.002480;-0.235440;-7.769520
3.195496;0.005005;2.943000;0.824040;-6.827760
3.200470;0.004974;2.943000;0.706320;-7.298640
3.205444;0.004974;3.060720;0.235440;-7.534080
3.210449;0.005005;2.472120;-0.588600;-7.887240
3.215424;0.004974;2.825280;-0.235440;-7.769520
3.220428;0.005005;2.472120;-0.824040;-8.122680
3.225433;0.005005;2.825280;-1.059480;-8.240400
3.230408;0.004974;2.472120;-0.588600;-9.064440
3.235382;0.004974;2.943000;-0.588600;-8.593560
3.240387;0.005005;2.825280;-0.706320;-9.064440
3.245392;0.005005;3.060720;-0.353160;-8.946720
3.250366;0.004974;3.296160;-0.117720;-8.946720
3.255341;0.004974;3.413880;0.000000;-9.064440
3.260345;0.005005;3.413880;0.000000;-9.064440
3.265320;0.004974;3.178440;0.000000;-8.946720
3.270325;0.005005;3.296160;-0.235440;-8.946720
3.275299;0.004974;3.767040;-0.117720;-9.182160
3.280304;0.005005;3.767040;-0.117720;-8.829000
3.285278;0.004974;3.884760;-1.059480;-9.535320
3.290283;0.005005;3.767040;-0.470880;-9.182160
3.295258;0.004974;4.826520;-1.177200;-8.946720
3.300232;0.004974;4.944240;-2.001240;-8.122680
3.305237;0.005005;4.708800;-1.883520;-8.122680
3.310211;0.004974;4.002480;-1.765800;-7.887240
3.315216;0.005005;3.413880;-1.059480;-7.651800
3.320190;0.004974;3.413880;0.235440;-7.887240
3.325165;0.004974;2.825280;0.941760;-7.063200
3.330170;0.005005;2.589840;0.470880;-7.063200
3.335144;0.004974;2.354400;-0.470880;-7.534080
3.340149;0.005005;2.825280;-1.177200;-8.004960
3.345123;0.004974;3.531600;-1.530360;-7.887240
3.350098;0.004974;3.767040;-1.412640;-7.180920
3.355103;0.005005;2.943000;-1.059480;-9.064440
3.360107;0.005005;1.648080;-1.294920;-10.241640
3.365082;0.004974;2.118960;-0.588600;-8.946720
3.370056;0.004974;2.589840;-0.235440;-7.534080
3.375061;0.005005;3.413880;-0.235440;-7.063200
3.380035;0.004974;4.355640;-0.706320;-7.416360
3.385040;0.005005;4.944240;-0.353160;-7.651800
3.390015;0.004974;5.297400;-0.235440;-8.122680
3.394989;0.004974;5.532840;-0.353160;-8.240400
3.399994;0.005005;5.768280;-0.235440;-8.475840
3.404968;0.004974;5.768280;-0.353160;-8.475840
3.409973;0.005005;5.415120;-0.117720;-8.240400
3.414948;0.004974;5.415120;-0.117720;-8.240400
3.419952;0.005005;5.415120;-0.235440;-8.122680
3.424927;0.004974;5.061960;-0.235440;-8.240400
3.429932;0.005005;4.944240;-0.117720;-8.358120
3.434906;0.004974;4.944240;-0.235440;-8.004960
3.439911;0.005005;5.415120;-0.588600;-7.298640
3.444885;0.004974;5.768280;-0.588600;-7.298640
3.449860;0.004974;6.121440;-0.470880;-7.063200
3.454865;0.005005;6.356880;-0.941760;-7.063200
3.459869;0.005005;6.239160;-0.706320;-7.063200
3.464844;0.004974;6.474600;-0.941760;-7.180920
3.469849;0.005005;6.121440;-1.177200;-7.298640
3.474823;0.004974;5.650560;-1.059480;-7.651800
3.479828;0.005005;5.415120;-0.824040;-7.534080
3.484802;0.004974;5.061960;-0.706320;-7.180920
3.489807;0.005005;5.532840;-0.470880;-7.534080
3.494781;0.004974;5.768280;-0.353160;-7.769520
3.499786;0.005005;6.003720;-0.470880;-7.769520
3.504761;0.004974;6.356880;-0.706320;-7.416360
3.509766;0.005005;6.592320;-0.824040;-7.180920
3.514740;0.004974;6.474600;-0.588600;-6.827760
3.519714;0.004974;6.710040;-0.941760;-7.416360
3.524719;0.005005;6.710040;-0.941760;-7.063200
3.529724;0.005005;6.474600;-1.059480;-6.827760
3.534698;0.004974;6.592320;-0.706320;-6.710040
3.539673;0.004974;6.710040;-0.353160;-6.945480
3.544678;0.005005;7.063200;-0.588600;-7.063200
3.549652;0.004974;7.063200;-0.470880;-7.180920
3.554657;0.005005;7.298640;-0.353160;-6.945480
3.559662;0.005005;7.769520;-0.353160;-6.592320
3.564636;0.004974;7.534080;-0.235440;-6.710040
3.569611;0.004974;7.298640;-0.235440;-6.592320
3.574615;0.005005;7.534080;-0.353160;-6.474600
3.579590;0.004974;7.180920;-0.235440;-6.003720
3.584595;0.005005;6.945480;-0.588600;-6.239160
3.589569;0.004974;6.945480;-0.706320;-6.239160
3.594574;0.005005;6.945480;-0.941760;-6.121440
3.599548;0.004974;6.945480;-1.059480;-6.356880
3.604553;0.005005;6.710040;-1.177200;-6.356880
3.609528;0.004974;6.710040;-0.941760;-6.239160
3.614502;0.004974;6.592320;-1.294920;-6.239160
3.619507;0.005005;6.592320;-1.059480;-6.239160
3.624481;0.004974;6.945480;-0.824040;-6.239160
3.629456;0.004974;6.827760;-0.824040;-6.239160
3.634460;0.005005;6.710040;-0.824040;-6.356880
3.639435;0.004974;6.827760;-0.941760;-6.356880
3.644440;0.005005;6.710040;-0.941760;-6.474600
3.649414;0.004974;6.474600;-1.177200;-6.592320
3.654388;0.004974;6.592320;-1.059480;-6.474600
3.659393;0.005005;6.474600;-1.059480;-6.474600
3.664368;0.004974;6.239160;-1.177200;-6.239160
3.669373;0.005005;6.121440;-1.177200;-6.239160
3.674347;0.004974;6.474600;-1.412640;-6.003720
3.679321;0.004974;6.474600;-1.412640;-5.768280
3.684326;0.005005;6.474600;-1.412640;-5.415120
3.689301;0.004974;6.827760;-1.294920;-5.061960
3.694305;0.005005;6.592320;-1.177200;-4.944240
3.699280;0.004974;6.592320;-1.530360;-4.826520
3.704285;0.005005;6.356880;-1.177200;-4.826520
3.709259;0.004974;6.474600;-1.177200;-4.708800
3.714264;0.005005;6.121440;-1.412640;-4.591080
3.719238;0.004974;6.121440;-1.530360;-4.473360
3.724213;0.004974;6.592320;-1.412640;-4.355640
3.729218;0.005005;6.474600;-1.059480;-4.002480
3.734222;0.005005;6.945480;-0.941760;-4.237920
3.739197;0.004974;7.534080;-1.177200;-4.120200
3.744202;0.005005;7.651800;-1.177200;-4.120200
3.749176;0.004974;8.004960;-1.294920;-4.355640
3.754181;0.005005;8.240400;-1.177200;-4.473360
3.759155;0.004974;8.122680;-1.177200;-4.708800
3.764160;0.005005;7.887240;-1.177200;-4.708800
3.769135;0.004974;8.004960;-1.059480;-4.826520
3.774139;0.005005;8.004960;-0.941760;-4.708800
3.779114;0.004974;8.122680;-0.824040;-4.708800
3.784119;0.005005;7.769520;-0.941760;-4.473360
3.789093;0.004974;7.887240;-0.706320;-4.237920
3.794067;0.004974;7.887240;-0.941760;-4.120200
3.799072;0.005005;7.887240;-1.177200;-4.002480
3.804077;0.005005;8.004960;-0.706320;-3.767040
3.809052;0.004974;8.004960;-1.177200;-3.413880
3.814026;0.004974;8.004960;-1.294920;-3.060720
3.819031;0.005005;7.180920;-0.824040;-3.178440
3.824005;0.004974;6.945480;-0.470880;-3.413880
3.829010;0.005005;7.416360;-1.177200;-3.531600
3.833984;0.004974;7.298640;-1.530360;-4.002480
3.838989;0.005005;6.827760;-1.648080;-4.473360
3.843964;0.004974;7.298640;-2.707560;-4.708800
3.848938;0.004974;8.358120;-2.943000;-5.061960
3.853943;0.005005;8.946720;-3.413880;-5.061960
3.858917;0.004974;9.535320;-2.589840;-4.591080
3.863922;0.005005;9.064440;-2.236680;-4.120200
3.868896;0.004974;9.299880;-1.883520;-3.531600
3.873901;0.005005;9.182160;-1.883520;-3.296160
3.878876;0.004974;8.946720;-2.118960;-3.060720
3.883850;0.004974;8.829000;-2.001240;-2.825280
3.888855;0.005005;8.829000;-1.883520;-2.707560
3.893829;0.004974;8.829000;-2.001240;-2.589840
3.898804;0.004974;8.711280;-1.883520;-2.707560
3.903809;0.005005;8.240400;-1.883520;-2.707560
3.908783;0.004974;7.769520;-2.118960;-2.707560
3.913788;0.005005;8.004960;-2.236680;-2.589840
3.918762;0.004974;8.593560;-2.589840;-2.707560
3.923767;0.005005;9.417600;-2.825280;-2.589840
3.928741;0.004974;9.535320;-3.060720;-2.589840
3.933746;0.005005;9.417600;-3.060720;-2.589840
3.938721;0.004974;8.829000;-2.707560;-2.472120
3.943695;0.004974;8.829000;-2.472120;-2.118960
3.948700;0.005005;9.064440;-2.707560;-2.118960
3.953674;0.004974;9.182160;-2.707560;-2.118960
3.958679;0.005005;9.064440;-2.825280;-2.236680
3.963654;0.004974;8.711280;-2.943000;-2.001240
3.968658;0.005005;8.711280;-2.825280;-1.883520
3.973663;0.005005;8.475840;-2.825280;-1.883520
3.978638;0.004974;8.593560;-3.060720;-1.648080
3.983643;0.005005;8.946720;-2.825280;-1.412640
3.988617;0.004974;8.946720;-3.060720;-1.059480
3.993591;0.004974;8.946720;-3.178440;-1.294920
3.998596;0.005005;8.593560;-3.060720;-1.530360
4.003571;0.004974;8.240400;-3.060720;-1.530360
4.008575;0.005005;8.358120;-3.178440;-1.530360
4.013550;0.004974;8.475840;-3.296160;-1.648080
4.018555;0.005005;8.122680;-3.178440;-1.765800
4.023529;0.004974;8.004960;-3.060720;-2.118960
4.028534;0.005005;8.004960;-3.413880;-2.236680
4.033508;0.004974;8.358120;-3.531600;-2.236680
4.038483;0.004974;8.593560;-4.120200;-2.236680
4.043488;0.005005;8.829000;-4.120200;-2.472120
4.048462;0.004974;8.358120;-4.002480;-2.589840
4.053467;0.005005;8.122680;-3.413880;-2.236680
4.058441;0.004974;8.475840;-2.589840;-1.412640
4.063446;0.005005;8.475840;-2.354400;-0.588600
4.068420;0.004974;8.122680;-2.236680;0.000000
4.073395;0.004974;7.887240;-2.118960;0.000000
4.078400;0.005005;7.887240;-2.236680;0.000000
4.083405;0.005005;7.769520;-2.354400;-0.353160
4.088379;0.004974;7.534080;-2.472120;-0.588600
4.093384;0.005005;7.887240;-2.943000;-0.706320
4.098358;0.004974;8.358120;-3.060720;-0.941760
4.103363;0.005005;8.475840;-3.413880;-1.177200
4.108337;0.004974;8.475840;-3.178440;-1.177200
4.113342;0.005005;8.004960;-3.296160;-1.059480
4.118317;0.004974;8.004960;-3.413880;-0.941760
4.123291;0.004974;7.887240;-3.296160;-0.941760
4.128296;0.005005;8.122680;-3.060720;-1.177200
4.133270;0.004974;8.358120;-3.060720;-1.059480
4.138275;0.005005;8.711280;-3.178440;-0.824040
4.143250;0.004974;8.829000;-3.178440;-0.470880
4.148224;0.004974;8.946720;-3.296160;-0.470880
4.153229;0.005005;8.946720;-3.649320;-0.706320
4.158203;0.004974;9.064440;-3.413880;-0.824040
4.163208;0.005005;9.064440;-3.649320;-0.588600
4.168182;0.004974;9.182160;-3.531600;-0.588600
4.173187;0.005005;8.829000;-3.649320;-0.824040
4.178162;0.004974;8.475840;-3.649320;-1.059480
4.183167;0.005005;8.122680;-3.649320;-1.177200
4.188141;0.004974;8.004960;-3.531600;-0.941760
4.193115;0.004974;7.887240;-3.767040;-1.294920
4.198120;0.005005;7.887240;-3.884760;-1.530360
4.203125;0.005005;7.769520;-4.120200;-1.530360
4.208099;0.004974;7.534080;-3.884760;-1.648080
4.213074;0.004974;6.945480;-4.237920;-1.883520
4.218079;0.005005;7.416360;-4.120200;-2.118960
4.223053;0.004974;7.651800;-4.120200;-2.001240
4.228058;0.005005;8.004960;-4.355640;-1.530360
4.233032;0.004974;8.475840;-4.120200;-1.059480
4.238037;0.005005;8.829000;-4.120200;-1.059480
4.243011;0.004974;9.064440;-4.002480;-1.059480
4.248016;0.005005;9.299880;-3.884760;-1.059480
4.252991;0.004974;9.770760;-3.884760;-0.941760
4.257965;0.004974;9.653040;-3.884760;-0.706320
4.262970;0.005005;9.535320;-3.767040;-0.824040
4.267944;0.004974;9.535320;-3.767040;-0.353160
4.272949;0.005005;9.182160;-3.767040;-0.117720
4.277924;0.004974;8.593560;-4.002480;0.235440
4.282928;0.005005;8.240400;-4.355640;-0.470880
4.287933;0.005005;8.240400;-4.708800;-0.824040
4.292908;0.004974;8.122680;-4.826520;-0.941760
4.297882;0.004974;7.887240;-4.708800;-0.824040
4.302887;0.005005;7.298640;-4.355640;-0.706320
4.307861;0.004974;6.945480;-4.237920;-0.588600
4.312836;0.004974;6.827760;-4.120200;-0.588600
4.317841;0.005005;6.827760;-4.002480;-0.235440
4.322815;0.004974;6.827760;-4.002480;-0.588600
4.327820;0.005005;7.180920;-4.120200;-0.706320
4.332794;0.004974;7.298640;-4.002480;-0.588600
4.337799;0.005005;7.298640;-4.120200;-0.706320
4.342773;0.004974;7.416360;-4.002480;-0.941760
4.347748;0.004974;7.416360;-4.002480;-0.941760
4.352753;0.005005;7.416360;-4.237920;-0.470880
4.357727;0.004974;7.298640;-4.002480;-0.470880
4.362732;0.005005;7.180920;-3.884760;-0.470880
4.367706;0.004974;7.298640;-4.002480;-0.588600
4.372711;0.005005;6.945480;-4.002480;-0.706320
4.377686;0.004974;5.650560;-4.120200;-0.235440
4.382690;0.005005;7.534080;-3.296160;2.001240
4.387665;0.004974;7.651800;-3.649320;1.765800
4.392670;0.005005;7.534080;-3.649320;1.412640
4.397644;0.004974;7.416360;-3.413880;1.059480
4.402649;0.005005;7.063200;-3.178440;0.824040
4.407623;0.004974;6.239160;-3.413880;0.470880
4.412598;0.004974;6.239160;-3.649320;0.353160
4.417603;0.005005;6.239160;-3.767040;0.353160
4.422577;0.004974;6.239160;-4.002480;0.235440
4.427582;0.005005;6.945480;-3.884760;0.353160
4.432556;0.004974;6.945480;-3.767040;0.588600
4.437561;0.005005;7.298640;-3.649320;1.059480
4.442535;0.004974;7.298640;-3.413880;0.706320
4.447510;0.004974;8.004960;-4.002480;0.117720
4.452515;0.005005;7.651800;-3.767040;0.706320
4.457520;0.005005;8.004960;-3.884760;0.824040
4.462494;0.004974;7.769520;-3.884760;0.824040
4.467499;0.005005;7.416360;-4.002480;1.177200
4.472473;0.004974;7.416360;-3.884760;1.177200
4.477478;0.005005;7.180920;-4.002480;1.059480
4.482452;0.004974;7.416360;-4.002480;0.824040
4.487457;0.005005;7.651800;-4.002480;0.706320
4.492432;0.004974;7.651800;-4.002480;0.588600
4.497437;0.005005;7.651800;-4.355640;0.588600
4.502411;0.004974;7.651800;-4.237920;0.706320
4.507416;0.005005;7.769520;-4.120200;0.706320
4.512421;0.005005;7.651800;-3.767040;0.706320
4.517395;0.004974;7.769520;-3.767040;0.588600
4.522400;0.005005;7.651800;-3.884760;0.941760
4.527374;0.004974;7.651800;-3.884760;0.706320
4.532379;0.005005;7.063200;-4.237920;0.941760
4.537354;0.004974;7.416360;-4.002480;0.353160
4.542328;0.004974;7.063200;-2.943000;1.059480
4.547333;0.005005;6.356880;-2.354400;1.294920
4.552307;0.004974;6.121440;-2.118960;1.294920
4.557312;0.005005;6.356880;-2.472120;1.883520
4.562286;0.004974;6.827760;-2.943000;1.883520
4.567291;0.005005;6.710040;-3.178440;2.001240
4.572266;0.004974;7.298640;-3.413880;2.236680
4.577271;0.005005;7.298640;-3.413880;2.589840
4.582245;0.004974;7.298640;-3.413880;3.060720
4.587250;0.005005;6.945480;-3.060720;2.472120
4.592224;0.004974;6.945480;-2.943000;2.707560
4.597229;0.005005;7.063200;-3.060720;2.589840
4.602203;0.004974;7.651800;-6.003720;1.530360
4.607208;0.005005;8.358120;-5.179680;2.118960
4.612183;0.004974;8.711280;-4.591080;2.001240
4.617188;0.005005;8.829000;-4.826520;1.883520
4.622162;0.004974;8.829000;-4.826520;2.001240
4.627167;0.005005;8.829000;-5.061960;2.118960
4.632141;0.004974;9.064440;-5.297400;2.236680
4.637115;0.004974;8.593560;-4.826520;2.236680
4.642120;0.005005;8.004960;-4.002480;2.118960
4.647095;0.004974;7.651800;-3.767040;2.118960
4.652100;0.005005;7.063200;-3.531600;1.765800
4.657104;0.005005;7.063200;-3.413880;1.648080
4.662079;0.004974;7.180920;-3.178440;1.177200
4.667084;0.005005;7.063200;-3.413880;1.177200
4.672058;0.004974;7.063200;-3.884760;1.530360
4.677063;0.005005;7.180920;-4.120200;2.118960
4.682037;0.004974;6.827760;-4.120200;2.472120
4.687042;0.005005;6.239160;-3.531600;2.472120
4.692017;0.004974;6.003720;-2.943000;2.472120
4.697021;0.005005;5.650560;-3.060720;2.354400
4.701996;0.004974;5.415120;-2.943000;2.472120
4.707001;0.005005;5.532840;-3.060720;2.707560
4.711975;0.004974;5.650560;-3.531600;2.943000
4.716949;0.004974;6.121440;-3.884760;2.943000
4.721954;0.005005;6.003720;-4.002480;3.413880
4.726929;0.004974;5.886000;-4.002480;3.767040
4.731934;0.005005;5.650560;-3.649320;3.296160
4.736908;0.004974;5.061960;-3.178440;3.531600
4.741913;0.005005;4.944240;-2.825280;4.120200
4.746887;0.004974;4.591080;-2.707560;4.120200
4.751892;0.005005;4.120200;-2.236680;3.767040
4.756866;0.004974;3.884760;-2.236680;3.296160
4.761871;0.005005;3.884760;-2.825280;3.178440
4.766846;0.004974;3.767040;-3.178440;3.649320
4.771820;0.004974;4.002480;-3.649320;4.591080
4.776825;0.005005;9.888480;-6.356880;9.535320
4.781799;0.004974;8.004960;-9.182160;7.887240
4.786804;0.005005;5.297400;-10.123920;5.768280
4.791779;0.004974;3.649320;-7.651800;5.650560
4.796753;0.004974;2.589840;-4.826520;4.473360
4.801758;0.005005;0.706320;-2.943000;0.824040
4.806732;0.004974;1.177200;-0.470880;0.353160
4.811737;0.005005;3.060720;-1.177200;5.650560
4.816711;0.004974;3.060720;-2.472120;8.004960
4.821716;0.005005;3.296160;-3.767040;8.593560
4.826691;0.004974;3.649320;-4.708800;8.711280
4.831696;0.005005;3.531600;-5.768280;8.711280
4.836670;0.004974;3.531600;-6.592320;9.299880
4.841675;0.005005;3.060720;-7.651800;10.006200
4.846649;0.004974;2.825280;-8.240400;10.241640
4.851654;0.005005;2.707560;-8.358120;10.123920
4.856628;0.004974;2.943000;-8.593560;9.770760
4.861633;0.005005;2.589840;-7.298640;7.651800
4.866608;0.004974;0.706320;-1.294920;11.065680
4.871613;0.005005;-2.236680;0.000000;11.654280
4.876587;0.004974;-2.472120;0.941760;11.301120
4.881561;0.004974;-1.883520;0.941760;10.123920
4.886566;0.005005;-1.294920;0.353160;9.770760
4.891541;0.004974;-1.883520;-2.707560;6.592320
4.896545;0.005005;-1.765800;-5.061960;5.768280
4.901520;0.004974;-1.177200;-6.003720;6.121440
4.906525;0.005005;-0.588600;-5.886000;7.298640
4.911499;0.004974;0.353160;-5.297400;8.004960
4.916504;0.005005;1.412640;-4.591080;8.829000
4.921478;0.004974;1.765800;-4.591080;9.535320
4.926453;0.004974;1.765800;-4.355640;8.946720
4.931458;0.005005;0.941760;-4.002480;8.829000
4.936432;0.004974;0.353160;-3.884760;9.064440
4.941406;0.004974;0.117720;-3.767040;9.535320
4.946411;0.005005;-0.235440;-4.002480;10.006200
4.951385;0.004974;-0.235440;-3.884760;10.359360
4.956390;0.005005;-0.353160;-3.649320;9.770760
4.961365;0.004974;-0.117720;-3.178440;9.417600
4.966370;0.005005;0.470880;-2.589840;9.064440
4.971344;0.004974;0.824040;-2.354400;8.711280
4.976349;0.005005;1.294920;-2.118960;8.240400
4.981323;0.004974;1.648080;-2.118960;7.416360
4.986298;0.004974;1.765800;-2.001240;7.416360
4.991302;0.005005;1.883520;-1.883520;7.063200
4.996277;0.004974;2.001240;-1.883520;6.710040
5.001282;0.005005;2.825280;-2.001240;5.768280
5.006256;0.004974;2.825280;-1.883520;6.239160
5.011261;0.005005;2.825280;-1.883520;6.592320
5.016235;0.004974;2.707560;-1.883520;7.298640
5.021240;0.005005;2.472120;-1.883520;7.887240
5.026215;0.004974;2.472120;-1.883520;8.593560
5.031189;0.004974;2.472120;-1.648080;8.829000
5.036194;0.005005;2.472120;-1.530360;8.829000
5.041168;0.004974;2.354400;-1.530360;9.299880
5.046173;0.005005;1.648080;-1.530360;8.946720
5.051147;0.004974;0.941760;-1.648080;8.829000
5.056152;0.005005;0.588600;-2.001240;8.946720
5.061127;0.004974;0.824040;-2.589840;8.829000
5.066132;0.005005;1.059480;-3.531600;8.240400
5.071106;0.004974;1.412640;-4.473360;7.651800
5.076080;0.004974;1.530360;-4.237920;8.004960
5.081085;0.005005;1.648080;-3.531600;8.358120
5.086060;0.004974;1.765800;-2.943000;9.299880
5.091064;0.005005;1.883520;-2.589840;9.653040
5.096039;0.004974;1.883520;-2.118960;9.888480
5.101044;0.005005;1.765800;-1.412640;10.359360
5.106018;0.004974;1.177200;-0.941760;10.477080
5.111023;0.005005;1.530360;-0.470880;10.594800
5.115997;0.004974;2.236680;0.706320;10.123920
5.121002;0.005005;2.707560;0.824040;9.770760
5.125977;0.004974;2.943000;0.588600;10.241640
5.130981;0.005005;2.707560;0.235440;11.183400
5.135956;0.004974;2.354400;-0.353160;11.889720
5.140961;0.005005;1.765800;-0.470880;12.713760
5.145935;0.004974;1.059480;0.000000;13.420080
5.150940;0.005005;0.706320;0.000000;13.773240
5.155914;0.004974;0.588600;0.117720;13.655520
5.160919;0.005005;0.588600;0.117720;13.184640
5.165894;0.004974;1.294920;-0.117720;12.949200
5.170898;0.005005;1.648080;-0.470880;12.713760
5.175873;0.004974;1.765800;-0.353160;12.478320
5.180878;0.005005;1.883520;-0.235440;12.478320
5.185852;0.004974;2.118960;-0.353160;12.478320
5.190857;0.005005;2.118960;-0.117720;12.949200
5.195831;0.004974;2.001240;0.000000;13.184640
5.200806;0.004974;2.001240;0.235440;13.537800
5.205811;0.005005;2.001240;0.941760;14.008680
5.210815;0.005005;2.001240;1.530360;14.361840
5.215790;0.004974;2.001240;1.765800;14.244120
5.220795;0.005005;2.001240;2.118960;13.890960
5.225769;0.004974;2.118960;2.001240;13.655520
5.230774;0.005005;2.001240;2.001240;13.184640
5.235748;0.004974;2.118960;2.236680;12.713760
5.240753;0.005005;2.118960;2.707560;12.478320
5.245728;0.004974;2.472120;3.178440;12.242880
5.250702;0.004974;2.707560;3.178440;12.125160
5.255707;0.005005;2.707560;3.531600;12.125160
5.260681;0.004974;3.531600;3.296160;11.654280
5.265686;0.005005;3.531600;3.296160;11.065680
5.270660;0.004974;3.413880;3.649320;10.712520
5.275665;0.005005;3.884760;3.649320;10.594800
5.280640;0.004974;4.473360;3.413880;10.359360
5.285645;0.005005;4.591080;3.296160;10.123920
5.290619;0.004974;4.826520;3.884760;9.888480
5.295624;0.005005;4.591080;3.649320;10.006200
5.300598;0.004974;4.473360;2.825280;9.299880
5.305603;0.005005;4.002480;2.354400;9.299880
5.310577;0.004974;3.767040;2.001240;9.770760
5.315582;0.005005;3.884760;2.001240;10.006200
5.320557;0.004974;3.649320;2.001240;9.888480
5.325562;0.005005;3.531600;2.236680;10.006200
5.330536;0.004974;3.413880;2.354400;10.241640
5.335510;0.004974;2.943000;2.118960;10.359360
5.340515;0.005005;2.943000;2.354400;10.594800
5.345520;0.005005;2.825280;2.354400;10.712520
5.350494;0.004974;3.178440;2.118960;10.359360
5.355469;0.004974;3.178440;2.001240;9.770760
5.360474;0.005005;3.296160;2.001240;9.417600
5.365448;0.004974;0.353160;-3.767040;11.772000
5.370453;0.005005;1.530360;0.000000;11.889720
5.375427;0.004974;5.179680;6.121440;8.946720
5.380432;0.005005;5.768280;4.002480;7.063200
5.385437;0.005005;4.591080;1.059480;6.945480
5.390411;0.004974;3.649320;0.117720;8.122680
5.395416;0.005005;3.060720;0.824040;8.829000
5.400391;0.004974;3.060720;1.294920;8.946720
5.405396;0.005005;3.296160;1.059480;9.417600
5.410370;0.004974;3.649320;1.177200;9.182160
5.415375;0.005005;3.531600;1.294920;9.417600
5.420349;0.004974;3.767040;1.530360;9.299880
5.425354;0.005005;3.413880;1.177200;9.770760
5.430328;0.004974;3.178440;0.588600;10.359360
5.435333;0.005005;2.589840;0.588600;10.712520
5.440308;0.004974;2.236680;0.588600;11.536560
5.445312;0.005005;2.001240;0.470880;11.889720
5.450287;0.004974;1.883520;0.353160;12.125160
5.455261;0.004974;1.294920;0.470880;12.242880
5.460266;0.005005;1.059480;0.353160;12.242880
5.465240;0.004974;0.706320;0.706320;12.242880
5.470245;0.005005;0.588600;0.706320;12.007440
5.475220;0.004974;0.824040;0.706320;11.183400
5.480225;0.005005;0.824040;0.588600;10.594800
5.485199;0.004974;1.412640;0.353160;9.888480
5.490204;0.005005;1.412640;0.117720;9.417600
5.495178;0.004974;1.648080;0.117720;8.946720
5.500183;0.005005;1.883520;0.000000;8.593560
5.505157;0.004974;1.883520;-0.117720;8.240400
5.510162;0.005005;2.001240;-0.353160;7.769520
5.515137;0.004974;2.118960;-0.824040;7.416360
5.520111;0.004974;2.118960;-1.294920;7.180920
5.525116;0.005005;2.589840;-1.530360;6.945480
5.530090;0.004974;2.943000;-1.648080;6.710040
5.535095;0.005005;3.649320;-1.883520;6.003720
5.540070;0.004974;4.002480;-1.765800;5.415120
5.545074;0.005005;4.237920;-1.765800;5.179680
5.550049;0.004974;4.473360;-1.412640;5.061960
5.555054;0.005005;4.591080;-1.412640;5.415120
5.560028;0.004974;4.473360;-1.177200;5.650560
5.565033;0.005005;4.237920;-1.412640;6.003720
5.570007;0.004974;4.237920;-1.412640;6.356880
5.575012;0.005005;4.473360;-1.412640;6.474600
5.579987;0.004974;4.473360;-1.177200;6.710040
5.584961;0.004974;4.473360;-1.412640;6.710040
5.589966;0.005005;4.473360;-1.648080;6.239160
5.594940;0.004974;4.591080;-1.765800;6.356880
5.599945;0.005005;4.591080;-2.118960;6.356880
5.604919;0.004974;5.297400;-2.001240;6.356880
5.609924;0.005005;5.061960;-2.825280;6.474600
5.614899;0.004974;5.061960;-3.531600;6.356880
5.619904;0.005005;4.944240;-4.002480;6.356880
5.624878;0.004974;4.944240;-4.120200;6.356880
5.629883;0.005005;4.708800;-4.473360;6.474600
5.634857;0.004974;4.591080;-4.120200;6.592320
5.639862;0.005005;4.591080;-4.708800;6.474600
5.644836;0.004974;4.237920;-5.415120;6.945480
5.649841;0.005005;3.884760;-5.532840;6.827760
5.654816;0.004974;3.884760;-5.532840;6.710040
5.659790;0.004974;3.884760;-5.532840;7.180920
5.664795;0.005005;4.237920;-5.650560;7.769520
5.669769;0.004974;4.237920;-5.532840;8.122680
5.674774;0.005005;4.237920;-5.179680;8.122680
5.679749;0.004974;4.473360;-5.297400;7.534080
5.684723;0.004974;4.591080;-5.297400;7.180920
5.689728;0.005005;4.355640;-5.061960;7.887240
5.694702;0.004974;4.002480;-4.473360;8.358120
5.699707;0.005005;3.767040;-4.591080;8.829000
5.704681;0.004974;3.884760;-4.355640;8.711280
5.709656;0.004974;3.531600;-3.767040;8.711280
5.714661;0.005005;3.413880;-4.002480;8.946720
5.719635;0.004974;3.296160;-4.826520;9.299880
5.724640;0.005005;2.943000;-5.179680;9.182160
5.729645;0.005005;2.707560;-4.826520;8.829000
5.734619;0.004974;2.472120;-4.237920;8.004960
5.739594;0.004974;2.589840;-4.708800;7.298640
5.744568;0.004974;2.589840;-4.826520;7.180920
5.749573;0.005005;2.354400;-5.179680;6.945480
5.754547;0.004974;2.707560;-5.768280;7.298640
5.759552;0.005005;3.178440;-6.592320;7.416360
5.764526;0.004974;3.531600;-7.063200;7.887240
5.769531;0.005005;3.413880;-7.651800;9.182160
5.774506;0.004974;3.178440;-7.298640;8.829000
5.779480;0.004974;3.413880;-6.474600;6.710040
5.784485;0.005005;4.002480;-7.180920;6.945480
5.789459;0.004974;3.413880;-8.475840;7.416360
5.794464;0.005005;3.767040;-8.711280;7.651800
5.799438;0.004974;3.649320;-8.122680;7.416360
5.804443;0.005005;3.884760;-7.416360;7.769520
5.809418;0.004974;4.237920;-6.474600;7.769520
5.814392;0.004974;3.767040;-5.768280;7.887240
5.819397;0.005005;3.178440;-5.179680;8.122680
5.824371;0.004974;3.060720;-4.944240;8.475840
5.829376;0.005005;2.707560;-4.120200;9.299880
5.834351;0.004974;2.707560;-3.884760;10.006200
5.839355;0.005005;2.825280;-2.825280;9.770760
5.844330;0.004974;2.589840;-2.589840;9.182160
5.849335;0.005005;2.707560;-2.354400;8.593560
5.854309;0.004974;3.296160;-2.118960;7.887240
5.859314;0.005005;3.649320;-2.001240;7.298640
5.864288;0.004974;4.120200;-2.001240;7.063200
5.869293;0.005005;4.355640;-2.589840;6.827760
5.874268;0.004974;5.179680;-2.943000;6.827760
5.879272;0.005005;5.415120;-2.354400;6.710040
5.884247;0.004974;7.180920;0.117720;5.179680
5.889252;0.005005;6.121440;-2.589840;5.768280
5.894226;0.004974;4.355640;-3.767040;7.063200
5.899231;0.005005;4.002480;-3.296160;8.004960
5.904205;0.004974;4.473360;-3.767040;8.946720
5.909210;0.005005;4.708800;-4.237920;9.417600
5.914185;0.004974;4.944240;-3.767040;9.535320
5.919189;0.005005;5.179680;-2.943000;9.182160
5.924164;0.004974;5.415120;-2.472120;8.475840
5.929169;0.005005;5.532840;-2.472120;7.769520
5.934143;0.004974;5.768280;-2.354400;7.180920
5.939148;0.005005;6.356880;-2.354400;6.945480
5.944122;0.004974;6.827760;-2.354400;6.827760
5.949097;0.004974;7.180920;-2.354400;5.886000
5.954102;0.005005;7.298640;-2.354400;5.179680
5.959076;0.004974;7.063200;-2.236680;4.591080
5.964081;0.005005;6.945480;-2.236680;3.767040
5.969055;0.004974;7.416360;-2.354400;3.413880
5.974060;0.005005;8.004960;-2.589840;3.178440
5.979034;0.004974;8.004960;-3.178440;3.060720
5.984039;0.005005;7.651800;-3.531600;4.120200
5.989014;0.004974;6.827760;-3.413880;4.591080
5.994019;0.005005;6.710040;-2.943000;4.708800
5.998993;0.004974;7.063200;-3.178440;4.708800
6.003967;0.004974;6.827760;-3.531600;4.708800
6.008972;0.005005;6.710040;-3.296160;5.297400
6.013947;0.004974;5.886000;-3.178440;5.650560
6.018951;0.005005;5.297400;-3.178440;5.886000
6.023926;0.004974;6.003720;-2.472120;5.179680
6.028931;0.005005;6.827760;-1.883520;4.002480
6.033905;0.004974;7.769520;-1.294920;3.060720
6.038910;0.005005;8.946720;-1.294920;2.118960
6.043884;0.004974;9.417600;-1.294920;1.177200
6.048889;0.005005;9.417600;-1.530360;0.588600
6.053864;0.004974;9.417600;-1.648080;0.235440
6.058868;0.005005;9.653040;-2.236680;-0.117720
6.063843;0.004974;18.128880;-1.177200;-2.825280
6.068848;0.005005;12.360600;-2.472120;-2.707560
6.073822;0.004974;11.654280;-3.178440;-2.354400
6.078827;0.005005;9.770760;-4.002480;-2.001240
6.083801;0.004974;8.358120;-5.415120;-0.824040
6.088776;0.004974;7.534080;-6.592320;0.470880
6.093781;0.005005;7.769520;-7.887240;1.294920
6.098755;0.004974;7.534080;-8.829000;2.001240
6.103760;0.005005;7.534080;-9.535320;2.118960
6.108734;0.004974;7.769520;-10.712520;2.472120
6.113708;0.004974;5.532840;-12.242880;2.707560
6.118713;0.005005;5.297400;-8.240400;3.178440
6.123718;0.005005;4.826520;-7.887240;3.767040
6.128693;0.004974;4.002480;-6.945480;4.237920
6.133698;0.005005;4.708800;-6.827760;4.473360
6.138672;0.004974;5.061960;-6.945480;4.120200
6.143677;0.005005;4.473360;-7.180920;3.649320
6.148651;0.004974;4.708800;-7.887240;3.531600
6.153656;0.005005;4.708800;-8.475840;4.120200
6.158630;0.004974;5.061960;-8.711280;4.473360
6.163605;0.004974;2.118960;-9.653040;6.121440
6.168610;0.005005;2.118960;-7.887240;7.769520
6.173584;0.004974;2.943000;-8.711280;8.004960
6.178589;0.005005;4.591080;-9.888480;7.416360
6.183563;0.004974;3.413880;-9.417600;6.356880
6.188568;0.005005;7.063200;-13.890960;9.417600
6.193542;0.004974;6.003720;-10.947960;3.413880
6.198547;0.005005;5.650560;-10.359360;0.353160
6.203522;0.004974;6.003720;-9.888480;-0.470880
6.208527;0.005005;6.239160;-8.711280;-0.470880
6.213501;0.004974;5.061960;-7.180920;-0.117720
6.218475;0.004974;4.237920;-6.239160;1.059480
6.223480;0.005005;3.413880;-5.061960;2.118960
6.228455;0.004974;3.060720;-4.708800;2.707560
6.233429;0.004974;3.178440;-4.826520;2.707560
6.238434;0.005005;3.178440;-4.826520;2.589840
6.243408;0.004974;2.589840;-4.708800;2.707560
6.248413;0.005005;2.825280;-4.591080;4.237920
6.253418;0.005005;1.648080;-3.060720;3.296160
6.258392;0.004974;2.001240;-3.060720;2.118960
6.263367;0.004974;3.178440;-4.355640;1.177200
6.268372;0.005005;4.237920;-5.061960;0.470880
6.273346;0.004974;3.649320;-5.415120;0.706320
6.278351;0.005005;3.413880;-6.474600;1.294920
6.283325;0.004974;3.413880;-7.651800;1.648080
6.288330;0.005005;3.767040;-8.829000;2.118960
6.293335;0.005005;3.060720;-9.182160;0.353160
6.298309;0.004974;2.001240;-7.887240;3.884760
6.303314;0.005005;2.472120;-8.946720;4.355640
6.308289;0.004974;2.354400;-10.712520;3.649320
6.313293;0.005005;-0.588600;-8.122680;7.180920
6.318268;0.004974;0.824040;-7.534080;8.122680
6.323273;0.005005;2.001240;-8.358120;6.710040
6.328247;0.004974;2.472120;-8.004960;4.708800
6.333252;0.005005;2.236680;-8.004960;3.413880
6.338226;0.004974;2.825280;-8.711280;2.001240
6.343231;0.005005;2.943000;-9.064440;1.883520
6.348206;0.004974;2.589840;-9.299880;2.118960
6.353180;0.004974;2.472120;-9.535320;2.236680
6.358185;0.005005;2.589840;-9.535320;2.707560
6.363159;0.004974;2.472120;-9.653040;3.060720
6.368164;0.005005;2.472120;-9.417600;3.413880
6.373138;0.004974;2.472120;-9.417600;3.531600
6.378143;0.005005;2.354400;-8.593560;3.649320
6.383118;0.004974;2.118960;-7.769520;3.413880
6.388123;0.005005;2.236680;-6.710040;3.296160
6.393097;0.004974;2.472120;-5.650560;2.943000
6.398102;0.005005;2.354400;-4.708800;2.825280
6.403076;0.004974;2.589840;-4.355640;2.825280
6.408081;0.005005;2.589840;-4.120200;2.707560
6.413055;0.004974;2.589840;-4.473360;2.707560
6.418030;0.004974;2.354400;-4.944240;2.825280
6.423035;0.005005;2.236680;-5.415120;2.943000
6.428009;0.004974;2.472120;-5.768280;2.943000
6.433014;0.005005;2.354400;-6.356880;2.825280
6.437988;0.004974;2.589840;-6.710040;2.825280
6.442993;0.005005;2.472120;-6.827760;2.825280
6.447968;0.004974;2.354400;-6.827760;2.825280
6.452972;0.005005;2.118960;-6.592320;2.825280
6.457947;0.004974;2.118960;-6.474600;2.707560
6.462921;0.004974;2.118960;-6.827760;2.825280
6.467926;0.005005;1.883520;-6.945480;2.825280
6.472900;0.004974;1.883520;-7.298640;2.943000
6.477905;0.005005;1.765800;-7.416360;3.060720
6.482880;0.004974;1.883520;-8.004960;3.060720
6.487885;0.005005;2.001240;-8.240400;3.178440
6.492859;0.004974;2.001240;-8.240400;3.178440
6.497864;0.005005;2.001240;-8.240400;3.178440
6.502838;0.004974;2.001240;-8.004960;3.649320
6.507843;0.005005;2.001240;-7.769520;3.884760
6.512817;0.004974;2.354400;-8.240400;4.002480
6.517822;0.005005;2.589840;-8.122680;4.120200
6.522827;0.005005;2.118960;-8.593560;4.473360
6.527802;0.004974;2.236680;-8.240400;4.237920
6.532776;0.004974;2.236680;-8.358120;4.473360
6.537781;0.005005;3.178440;-8.475840;4.473360
6.542755;0.004974;3.060720;-8.475840;4.237920
6.547760;0.005005;3.178440;-8.475840;3.767040
6.552734;0.004974;3.060720;-8.122680;3.413880
6.557739;0.005005;3.531600;-7.887240;3.413880
6.562714;0.004974;3.531600;-7.534080;3.649320
6.567719;0.005005;3.531600;-7.534080;3.178440
6.572693;0.004974;3.531600;-7.416360;2.943000
6.577698;0.005005;3.767040;-7.416360;2.707560
6.582672;0.004974;4.237920;-6.945480;2.707560
6.587677;0.005005;4.591080;-6.474600;2.707560
6.592651;0.004974;4.002480;-6.710040;2.589840
6.597626;0.004974;4.826520;-6.827760;2.472120
6.602631;0.005005;4.473360;-6.474600;2.236680
6.607605;0.004974;5.061960;-6.239160;2.236680
6.612610;0.005005;4.944240;-6.710040;2.118960
6.617584;0.004974;4.944240;-6.239160;2.118960
6.622589;0.005005;4.591080;-6.592320;2.118960
6.627594;0.005005;4.944240;-6.827760;2.236680
6.632568;0.004974;4.591080;-7.063200;2.354400
6.637543;0.004974;4.944240;-7.534080;2.589840
6.642548;0.005005;4.944240;-7.534080;2.472120
6.647522;0.004974;4.237920;-7.534080;2.472120
6.652527;0.005005;4.473360;-7.651800;2.472120
6.657501;0.004974;4.708800;-7.298640;2.707560
6.662506;0.005005;5.061960;-7.416360;2.472120
6.667480;0.004974;5.297400;-7.534080;2.707560
6.672485;0.005005;5.650560;-7.298640;2.825280
6.677460;0.004974;5.297400;-7.298640;3.767040
6.682465;0.005005;5.179680;-7.416360;4.237920
6.687439;0.004974;5.415120;-7.416360;4.591080
6.692444;0.005005;5.179680;-7.180920;5.886000
6.697418;0.004974;4.708800;-6.592320;6.356880
6.702423;0.005005;4.826520;-6.356880;6.356880
6.707397;0.004974;4.944240;-6.356880;6.356880
6.712402;0.005005;5.297400;-6.827760;5.886000
6.717377;0.004974;5.650560;-7.063200;5.650560
6.722382;0.005005;5.297400;-6.710040;5.532840
6.727356;0.004974;5.297400;-6.121440;5.415120
6.732361;0.005005;5.179680;-5.886000;5.297400
6.737335;0.004974;5.061960;-5.650560;5.179680
6.742340;0.005005;4.944240;-5.532840;5.061960
6.747314;0.004974;4.826520;-5.179680;4.944240
6.752319;0.005005;4.944240;-5.061960;4.826520
6.757324;0.005005;5.061960;-5.061960;4.826520
6.762299;0.004974;5.768280;-5.179680;4.355640
6.767273;0.004974;5.886000;-5.179680;3.649320
6.772278;0.005005;6.003720;-5.179680;3.178440
6.777252;0.004974;6.239160;-5.061960;2.707560
6.782257;0.005005;6.592320;-4.944240;2.354400
6.787231;0.004974;6.356880;-4.826520;2.354400
6.792236;0.005005;6.003720;-4.591080;2.589840
6.797211;0.004974;5.768280;-4.708800;2.354400
6.802216;0.005005;5.179680;-4.591080;2.589840
6.807190;0.004974;4.591080;-4.708800;2.707560
6.812195;0.005005;4.708800;-4.708800;2.825280
6.817169;0.004974;4.355640;-5.061960;3.060720
6.822174;0.005005;4.591080;-5.415120;2.943000
6.827148;0.004974;4.708800;-6.239160;2.707560
6.832153;0.005005;5.061960;-6.945480;2.472120
6.837128;0.004974;5.415120;-8.004960;2.236680
6.842133;0.005005;6.474600;-6.239160;2.236680
6.847107;0.004974;7.651800;-7.063200;1.177200
6.852081;0.004974;7.769520;-7.534080;0.235440
6.857086;0.005005;7.769520;-8.004960;0.117720
6.862061;0.004974;7.416360;-8.358120;0.235440
6.867065;0.005005;7.180920;-7.887240;0.824040
6.872040;0.004974;5.650560;-8.358120;1.648080
6.877045;0.005005;5.415120;-8.711280;2.118960
6.882019;0.004974;4.826520;-8.122680;2.943000
6.886993;0.004974;4.944240;-8.475840;3.884760
6.891998;0.005005;4.120200;-8.946720;4.708800
6.896973;0.004974;3.884760;-9.299880;5.061960
6.901978;0.005005;4.237920;-9.770760;5.768280
6.906952;0.004974;4.473360;-10.477080;5.650560
6.911957;0.005005;4.944240;-10.712520;5.179680
6.916931;0.004974;5.061960;-10.712520;4.591080
6.921936;0.005005;5.650560;-10.830240;3.767040
6.926910;0.004974;6.356880;-10.123920;2.472120
6.931915;0.005005;6.945480;-9.770760;1.294920
6.936890;0.004974;6.710040;-8.593560;0.588600
6.941895;0.005005;5.886000;-7.180920;0.470880
6.946869;0.004974;5.179680;-6.121440;0.353160
6.951874;0.005005;4.237920;-6.003720;1.412640
6.956848;0.004974;3.531600;-6.827760;2.472120
6.961853;0.005005;3.884760;-7.769520;2.589840
6.966827;0.004974;4.237920;-8.122680;2.354400
6.971832;0.005005;4.826520;-8.593560;2.001240
6.976807;0.004974;4.826520;-8.593560;1.765800
6.981812;0.005005;4.826520;-8.240400;1.294920
6.986786;0.004974;5.297400;-8.004960;1.177200
6.991760;0.004974;5.061960;-7.416360;0.588600
6.996765;0.005005;4.944240;-6.474600;0.353160
7.001740;0.004974;4.355640;-5.768280;1.059480
7.006744;0.005005;3.649320;-4.708800;0.000000
7.011719;0.004974;4.708800;-4.237920;-1.059480
7.016693;0.004974;5.650560;-3.531600;-1.530360
7.021698;0.005005;5.415120;-3.413880;-1.177200
7.026672;0.004974;5.415120;-3.296160;0.235440
7.031677;0.005005;4.944240;-3.767040;0.588600
7.036652;0.004974;4.944240;-4.002480;1.294920
7.041656;0.005005;5.297400;-4.120200;1.412640
7.046631;0.004974;5.415120;-4.708800;1.294920
7.051636;0.005005;5.768280;-4.944240;1.177200
7.056610;0.004974;5.415120;-5.061960;1.059480
7.061615;0.005005;5.179680;-4.473360;1.059480
7.066589;0.004974;5.297400;-4.002480;0.824040
7.071594;0.005005;5.415120;-3.884760;0.470880
7.076569;0.004974;5.061960;-3.178440;0.706320
7.081573;0.005005;5.179680;-3.531600;0.470880
7.086548;0.004974;5.061960;-4.355640;0.353160
7.091553;0.005005;4.944240;-5.886000;0.588600
7.096527;0.004974;5.179680;-7.063200;0.470880
7.101532;0.005005;5.532840;-8.240400;0.235440
7.106506;0.004974;5.768280;-9.064440;0.353160
7.111511;0.005005;5.297400;-9.888480;0.941760
7.116486;0.004974;5.179680;-9.888480;1.059480
7.121490;0.005005;5.061960;-9.653040;1.294920
7.126465;0.004974;4.708800;-9.299880;1.530360
7.131470;0.005005;3.178440;-9.182160;1.177200
7.136444;0.004974;3.649320;-8.004960;1.294920
7.141449;0.005005;4.120200;-7.416360;0.824040
7.146423;0.004974;4.237920;-7.416360;0.588600
7.151428;0.005005;4.473360;-7.298640;0.000000
7.156403;0.004974;5.415120;-7.298640;-0.706320
7.161407;0.005005;5.886000;-7.416360;-1.059480
7.166382;0.004974;7.769520;-7.887240;-1.294920
7.171387;0.005005;7.769520;-8.593560;-1.530360
7.176361;0.004974;7.298640;-8.004960;-1.648080
7.181366;0.005005;6.710040;-8.358120;-1.412640
7.186340;0.004974;4.826520;-5.061960;-0.824040
7.191345;0.005005;6.592320;-5.297400;-1.059480
7.196320;0.004974;6.474600;-4.826520;-1.294920
7.201324;0.005005;5.886000;-3.531600;-1.883520
7.206299;0.004974;5.297400;-3.767040;-1.294920
7.211304;0.005005;5.532840;-3.060720;-0.824040
7.216278;0.004974;6.121440;-3.649320;-0.117720
7.221252;0.004974;7.180920;-4.237920;0.000000
7.226257;0.005005;6.239160;-7.651800;0.000000
7.231232;0.004974;5.061960;-5.768280;0.470880
7.236237;0.005005;5.532840;-5.179680;0.353160
7.241211;0.004974;6.003720;-5.415120;0.235440
7.246216;0.005005;6.121440;-5.532840;-0.353160
7.251190;0.004974;6.710040;-6.239160;-0.235440
7.256195;0.005005;6.827760;-6.474600;-0.353160
7.261169;0.004974;7.298640;-7.180920;-0.117720
7.266174;0.005005;7.298640;-7.298640;-0.117720
7.271149;0.004974;6.710040;-8.122680;0.000000
7.276154;0.005005;6.945480;-7.534080;0.000000
7.281128;0.004974;6.121440;-6.710040;-0.235440
7.286133;0.005005;5.768280;-5.886000;-0.117720
7.291107;0.004974;5.532840;-4.944240;-0.353160
7.296112;0.005005;5.532840;-3.767040;0.117720
7.301086;0.004974;5.768280;-2.943000;0.000000
7.306091;0.005005;6.003720;-3.531600;-0.353160
7.311066;0.004974;6.592320;-4.120200;-0.588600
7.316071;0.005005;7.180920;-5.179680;0.353160
7.321045;0.004974;7.769520;-6.356880;0.470880
7.326050;0.005005;7.769520;-6.710040;0.706320
7.331024;0.004974;8.004960;-6.710040;0.588600
7.336029;0.005005;7.887240;-6.592320;0.117720
7.341003;0.004974;8.122680;-6.121440;-0.588600
7.346008;0.005005;7.887240;-5.297400;-0.353160
7.350983;0.004974;7.298640;-4.355640;-0.235440
7.355988;0.005005;6.710040;-4.120200;0.235440
7.360962;0.004974;6.474600;-3.884760;0.470880
7.365967;0.005005;5.768280;-3.296160;0.941760
7.370941;0.004974;6.592320;-4.591080;1.294920
7.375946;0.005005;6.474600;-5.061960;0.706320
7.380920;0.004974;6.474600;-5.297400;0.824040
7.385925;0.005005;7.534080;-5.532840;0.235440
7.390900;0.004974;8.004960;-6.474600;0.117720
7.395905;0.005005;7.769520;-6.356880;0.117720
7.400879;0.004974;7.651800;-6.239160;0.235440
7.405853;0.004974;7.887240;-5.886000;0.353160
7.410858;0.005005;6.474600;-5.297400;0.353160
7.415833;0.004974;6.710040;-4.591080;0.824040
7.420837;0.005005;6.827760;-4.591080;0.824040
7.425812;0.004974;6.121440;-4.944240;0.706320
7.430786;0.004974;6.003720;-5.179680;0.588600
7.435791;0.005005;10.594800;-7.298640;1.648080
7.440765;0.004974;9.064440;-7.180920;0.353160
7.445740;0.004974;8.358120;-6.356880;0.353160
7.450745;0.005005;5.768280;-8.004960;0.353160
7.455719;0.004974;6.474600;-6.003720;0.706320
7.460724;0.005005;6.592320;-5.650560;0.824040
7.465698;0.004974;7.534080;-4.473360;0.588600
7.470673;0.004974;7.534080;-3.531600;1.059480
7.475677;0.005005;8.004960;-5.297400;1.883520
7.480652;0.004974;7.769520;-4.473360;2.001240
7.485657;0.005005;7.180920;-4.473360;1.530360
7.490631;0.004974;7.887240;-4.120200;0.824040
7.495636;0.005005;7.180920;-4.120200;0.235440
7.500610;0.004974;7.180920;-4.237920;0.588600
7.505615;0.005005;8.240400;-3.649320;0.941760
7.510590;0.004974;7.887240;-2.001240;0.470880
7.515594;0.005005;8.004960;-3.296160;1.412640
7.520569;0.004974;7.416360;-4.237920;1.648080
7.525574;0.005005;7.534080;-4.826520;1.883520
7.530548;0.004974;7.887240;-5.061960;3.060720
7.535522;0.004974;7.651800;-5.297400;3.413880
7.540527;0.005005;7.063200;-5.532840;3.296160
7.545502;0.004974;7.651800;-5.297400;3.296160
7.550507;0.005005;7.769520;-5.415120;2.943000
7.555481;0.004974;9.064440;-5.415120;3.178440
7.560486;0.005005;9.064440;-5.415120;3.060720
7.565460;0.004974;8.711280;-5.650560;2.943000
7.570435;0.004974;8.122680;-5.768280;2.707560
7.575439;0.005005;8.946720;-4.944240;2.472120
7.580414;0.004974;8.122680;-5.179680;2.001240
7.585419;0.005005;8.122680;-5.179680;0.824040
7.590393;0.004974;8.004960;-4.708800;0.353160
7.595398;0.005005;8.240400;-4.473360;-0.235440
7.600372;0.004974;8.829000;-4.237920;-0.588600
7.605377;0.005005;9.653040;-3.296160;-0.470880
7.610352;0.004974;10.477080;-3.531600;0.000000
7.615356;0.005005;12.125160;-2.707560;0.235440
7.620331;0.004974;10.123920;-4.473360;-0.235440
7.625336;0.005005;11.654280;-3.767040;1.059480
7.630310;0.004974;11.654280;-2.825280;1.648080
7.635315;0.005005;11.183400;-2.943000;1.412640
7.640289;0.004974;11.654280;-3.178440;1.648080
7.645294;0.005005;11.889720;-3.413880;2.001240
7.650269;0.004974;11.301120;-4.002480;2.118960
7.655273;0.005005;10.830240;-4.237920;2.118960
7.660248;0.004974;10.477080;-4.237920;2.001240
7.665253;0.005005;10.006200;-2.118960;0.706320
7.670227;0.004974;9.770760;-1.648080;0.941760
7.675232;0.005005;8.122680;-2.943000;1.412640
7.680206;0.004974;8.122680;-6.945480;2.589840
7.685211;0.005005;8.240400;-5.768280;2.589840
7.690186;0.004974;7.887240;-8.829000;2.354400
7.695190;0.005005;8.240400;-6.474600;2.236680
7.700165;0.004974;8.593560;-5.061960;1.765800
7.705170;0.005005;8.593560;-4.708800;1.177200
7.710144;0.004974;8.358120;-5.179680;1.412640
7.715149;0.005005;8.593560;-4.355640;1.059480
7.720123;0.004974;8.711280;-4.120200;1.530360
7.725128;0.005005;7.651800;-4.237920;1.412640
7.730103;0.004974;7.651800;-4.120200;1.177200
7.735107;0.005005;8.829000;-4.355640;1.177200
7.740082;0.004974;9.417600;-3.767040;0.706320
7.745087;0.005005;9.299880;-2.825280;0.824040
7.750061;0.004974;9.888480;-2.236680;0.824040
7.755066;0.005005;20.012400;-4.708800;12.360600
7.760040;0.004974;15.774480;-3.296160;6.592320
7.765045;0.005005;11.418840;-3.413880;3.178440
7.770020;0.004974;9.653040;-3.296160;2.589840
7.775024;0.005005;8.711280;-2.943000;2.118960
7.779999;0.004974;8.240400;-2.354400;2.001240
7.785004;0.005005;7.887240;-2.236680;2.001240
7.789978;0.004974;8.122680;-2.001240;1.883520
7.794983;0.005005;7.887240;-2.001240;1.648080
7.799957;0.004974;7.534080;-2.354400;1.765800
7.804962;0.005005;6.945480;-2.472120;1.883520
7.809937;0.004974;6.827760;-2.472120;2.001240
7.814911;0.004974;7.298640;-2.589840;2.001240
7.819916;0.005005;7.769520;-2.825280;2.118960
7.824890;0.004974;7.769520;-2.707560;2.001240
7.829895;0.005005;8.004960;-2.825280;1.883520
7.834869;0.004974;8.004960;-2.472120;1.883520
7.839874;0.005005;8.004960;-2.236680;1.883520
7.844849;0.004974;7.651800;-2.943000;0.470880
7.849854;0.005005;8.358120;-2.354400;1.530360
7.854828;0.004974;8.593560;-2.472120;1.648080
7.859833;0.005005;8.946720;-2.236680;1.765800
7.864807;0.004974;8.711280;-2.354400;1.648080
7.869781;0.004974;9.417600;-2.472120;1.412640
7.874786;0.005005;9.299880;-2.825280;1.648080
7.879761;0.004974;8.829000;-3.296160;1.765800
7.884766;0.005005;8.711280;-3.531600;1.765800
7.889740;0.004974;8.475840;-3.649320;1.765800
7.894745;0.005005;8.475840;-3.413880;2.001240
7.899719;0.004974;8.240400;-3.060720;1.883520
7.904724;0.005005;8.004960;-3.649320;1.765800
7.909698;0.004974;8.240400;-4.120200;2.118960
7.914703;0.005005;8.122680;-3.649320;1.765800
7.919678;0.004974;8.358120;-3.649320;2.118960
7.924683;0.005005;8.240400;-4.002480;1.648080
7.929657;0.004974;8.475840;-4.237920;1.648080
7.934662;0.005005;8.358120;-4.237920;1.648080
7.939636;0.004974;8.475840;-4.237920;1.765800
7.944641;0.005005;10.123920;-4.120200;2.236680
7.949615;0.004974;11.772000;-3.767040;2.354400
7.954590;0.004974;9.299880;-3.767040;1.883520
7.959595;0.005005;7.534080;-3.531600;1.765800
7.964600;0.005005;8.240400;-3.767040;2.001240
7.969574;0.004974;8.946720;-4.120200;2.472120
7.974548;0.004974;8.711280;-3.767040;2.118960
7.979553;0.005005;8.593560;-3.649320;2.001240
7.984528;0.004974;8.593560;-3.413880;2.001240
7.989532;0.005005;8.946720;-3.413880;2.118960
7.994537;0.005005;8.829000;-3.413880;2.118960
7.999512;0.004974;8.593560;-3.413880;1.765800
8.004517;0.005005;8.475840;-3.413880;1.883520
8.009491;0.004974;8.240400;-2.707560;1.883520
8.014496;0.005005;8.358120;-2.472120;1.765800
8.019470;0.004974;8.829000;-3.060720;1.883520
8.024475;0.005005;8.593560;-2.707560;1.765800
8.029449;0.004974;8.475840;-2.236680;1.883520
8.034454;0.005005;8.004960;-2.236680;1.883520
8.039429;0.004974;7.769520;-2.354400;1.883520
8.044434;0.005005;8.004960;-2.472120;1.765800
8.049438;0.005005;8.122680;-2.589840;1.765800
8.054413;0.004974;8.240400;-2.589840;1.530360
8.059418;0.005005;8.829000;-2.236680;1.294920
8.064392;0.004974;9.182160;-2.001240;2.236680
8.069397;0.005005;8.711280;-2.118960;2.001240
8.074371;0.004974;8.475840;-2.472120;2.236680
8.079376;0.005005;8.711280;-2.943000;2.118960
8.084351;0.004974;9.064440;-2.472120;2.118960
8.089355;0.005005;9.182160;-3.296160;1.883520
8.094330;0.004974;9.535320;-3.060720;2.118960
8.099335;0.005005;8.829000;-3.413880;2.236680
8.104309;0.004974;8.240400;-3.531600;2.354400
8.109314;0.005005;7.534080;-3.767040;1.294920
8.114288;0.004974;6.827760;-3.413880;1.177200
8.119293;0.005005;6.121440;-3.767040;1.530360
8.124268;0.004974;6.239160;-4.002480;0.824040
8.129272;0.005005;5.886000;-3.767040;1.648080
8.134247;0.004974;7.298640;-3.884760;1.765800
8.139221;0.004974;7.887240;-3.767040;1.648080
8.144226;0.005005;7.534080;-3.767040;1.765800
8.149231;0.005005;8.240400;-3.884760;1.530360
8.154205;0.004974;7.534080;-3.649320;1.765800
8.159210;0.005005;7.298640;-3.649320;1.648080
8.164185;0.004974;7.063200;-3.531600;1.648080
8.169159;0.004974;6.592320;-3.413880;1.648080
8.174164;0.005005;6.710040;-2.707560;1.412640
8.179138;0.004974;7.180920;-2.589840;1.177200
8.184143;0.005005;7.063200;-2.943000;1.294920
8.189117;0.004974;7.063200;-2.943000;0.941760
8.194122;0.005005;7.180920;-2.943000;0.353160
8.199127;0.005005;7.180920;-3.178440;0.470880
8.204102;0.004974;7.651800;-3.296160;0.235440
8.209106;0.005005;8.240400;-3.884760;0.117720
8.214081;0.004974;7.769520;-4.120200;0.117720
8.219086;0.005005;7.769520;-4.355640;0.235440
8.224060;0.004974;7.887240;-4.237920;0.000000
8.229065;0.005005;7.887240;-4.237920;0.000000
8.234039;0.004974;7.887240;-4.591080;0.353160
8.239044;0.005005;7.887240;-4.708800;0.470880
8.244019;0.004974;8.004960;-4.591080;0.706320
8.249023;0.005005;8.122680;-4.355640;0.588600
8.253998;0.004974;8.593560;-4.237920;0.941760
8.259003;0.005005;8.711280;-3.767040;0.824040
8.263977;0.004974;8.946720;-4.002480;1.059480
8.268982;0.005005;22.955400;-2.001240;1.765800
8.273956;0.004974;14.950440;-3.649320;0.588600
8.278961;0.005005;12.831480;-2.943000;-0.824040
8.283936;0.004974;10.359360;-3.649320;-0.470880
8.288940;0.005005;10.477080;-4.473360;-0.117720
8.293915;0.004974;11.065680;-5.886000;0.588600
8.298920;0.005005;10.830240;-4.944240;0.353160
8.303894;0.004974;9.888480;-4.120200;-1.059480
8.308899;0.005005;10.006200;-4.120200;-1.294920
8.313873;0.004974;10.359360;-4.944240;-1.412640
8.318878;0.005005;9.653040;-5.061960;-2.001240
8.323853;0.004974;9.770760;-5.179680;-2.001240
8.328827;0.004974;9.417600;-5.179680;-2.001240
8.333832;0.005005;3.296160;0.470880;-7.298640
8.338837;0.005005;11.654280;-5.061960;-2.472120
8.343811;0.004974;10.241640;-5.532840;-2.707560
8.348816;0.005005;9.535320;-5.532840;-2.589840
8.353790;0.004974;9.888480;-6.356880;-2.354400
8.358795;0.005005;18.482040;-7.298640;-0.588600
8.363770;0.004974;16.009920;-6.239160;-2.001240
8.368774;0.005005;12.596040;-5.768280;0.000000
8.373749;0.004974;11.772000;-7.180920;-2.236680
8.378754;0.005005;10.947960;-5.532840;-2.236680
8.383728;0.004974;11.065680;-6.121440;-1.765800
8.388733;0.005005;10.830240;-5.532840;-1.530360
8.393707;0.004974;10.712520;-5.179680;-1.294920
8.398682;0.004974;10.594800;-4.944240;-1.177200
8.403687;0.005005;10.477080;-4.708800;-1.412640
8.408661;0.004974;10.830240;-4.355640;-1.530360
8.413666;0.005005;10.947960;-3.649320;-1.648080
8.418640;0.004974;10.594800;-3.649320;-1.883520
8.423645;0.005005;9.417600;-3.178440;-1.765800
8.428619;0.004974;8.829000;-2.943000;-1.765800
8.433594;0.004974;8.122680;-2.943000;-1.765800
8.438599;0.005005;7.534080;-3.178440;-1.530360
8.443573;0.004974;6.239160;-3.178440;-1.412640
8.448578;0.005005;5.768280;-3.531600;-1.412640
8.453583;0.005005;5.532840;-3.767040;-1.883520
8.458557;0.004974;4.826520;-4.002480;-1.412640
8.463531;0.004974;3.767040;-4.002480;-1.883520
8.468536;0.005005;4.002480;-4.708800;-2.236680
8.473511;0.004974;4.002480;-4.826520;-1.294920
8.478516;0.005005;4.120200;-4.826520;-1.059480
8.483490;0.004974;4.002480;-5.061960;-0.824040
8.488495;0.005005;4.473360;-4.708800;-0.706320
8.493469;0.004974;3.649320;-5.061960;-0.235440
8.498474;0.005005;4.473360;-5.061960;-0.824040
8.503448;0.004974;6.121440;-5.297400;4.944240
8.508453;0.005005;7.063200;-6.356880;-1.530360
8.513428;0.004974;7.416360;-5.886000;-0.353160
8.518433;0.005005;6.827760;-4.944240;0.941760
8.523407;0.004974;7.298640;-3.649320;2.001240
8.528412;0.005005;8.358120;-3.060720;2.354400
8.533386;0.004974;11.183400;-4.355640;0.588600
8.538391;0.005005;8.475840;-8.711280;-7.063200
8.543365;0.004974;6.827760;-9.770760;-8.829000
8.548340;0.004974;7.887240;-6.474600;-6.003720
8.553345;0.005005;7.887240;-5.768280;-4.237920
8.558319;0.004974;7.769520;-6.239160;-3.649320
8.563324;0.005005;7.063200;-6.239160;-2.825280
8.568298;0.004974;6.710040;-6.356880;-2.472120
8.573303;0.005005;6.121440;-6.239160;-2.472120
8.578308;0.005005;5.768280;-6.003720;-2.354400
8.583282;0.004974;5.886000;-6.121440;-2.354400
8.588287;0.005005;6.121440;-6.121440;-2.472120
8.593262;0.004974;6.121440;-6.121440;-2.354400
8.598236;0.004974;6.356880;-6.121440;-2.118960
8.603241;0.005005;6.356880;-5.768280;-2.001240
8.608215;0.004974;6.239160;-5.650560;-2.001240
8.613220;0.005005;6.121440;-5.650560;-1.883520
8.618195;0.004974;5.768280;-5.650560;-1.883520
8.623199;0.005005;5.768280;-5.415120;-1.883520
8.628174;0.004974;6.003720;-5.650560;-1.648080
8.633179;0.005005;7.063200;-5.650560;-1.412640
8.638153;0.004974;7.534080;-4.944240;-1.059480
8.643158;0.005005;7.769520;-4.826520;-1.412640
8.648132;0.004974;7.887240;-4.591080;-1.530360
8.653137;0.005005;7.887240;-4.120200;-1.648080
8.658112;0.004974;8.122680;-3.767040;-2.001240
8.663116;0.005005;8.004960;-3.531600;-1.648080
8.668091;0.004974;7.651800;-3.767040;-1.883520
8.673096;0.005005;9.417600;-2.118960;-1.059480
8.678070;0.004974;7.651800;-2.118960;-1.765800
8.683044;0.004974;7.534080;-2.589840;-1.059480
8.688049;0.005005;6.710040;-3.531600;-1.412640
8.693024;0.004974;8.004960;-0.824040;-0.353160
8.698029;0.005005;7.887240;-2.118960;-0.824040
8.703003;0.004974;7.534080;-2.943000;-1.177200
8.707977;0.004974;7.651800;-3.413880;-1.177200
8.712982;0.005005;7.651800;-3.649320;-1.294920
8.717957;0.004974;7.887240;-3.884760;-1.294920
8.722961;0.005005;7.651800;-4.002480;-1.059480
8.727966;0.005005;7.887240;-3.884760;-0.824040
8.732941;0.004974;7.769520;-4.002480;-0.470880
8.737946;0.005005;7.180920;-3.884760;-0.117720
8.742920;0.004974;7.180920;-4.237920;-0.941760
8.747894;0.004974;7.063200;-4.708800;-0.941760
8.752899;0.005005;6.827760;-4.944240;-1.177200
8.757874;0.004974;6.710040;-4.708800;-1.059480
8.762878;0.005005;6.827760;-4.826520;-1.059480
8.767853;0.004974;6.474600;-4.591080;-1.059480
8.772858;0.005005;6.592320;-4.473360;-1.294920
8.777832;0.004974;6.356880;-4.708800;-1.412640
8.782837;0.005005;4.355640;-8.240400;-1.294920
8.787811;0.004974;5.768280;-6.003720;-1.059480
8.792816;0.005005;6.356880;-5.179680;-1.059480
8.797791;0.004974;7.063200;-4.591080;-0.353160
8.802795;0.005005;7.534080;-4.826520;0.000000
8.807770;0.004974;7.534080;-4.826520;-0.117720
8.812775;0.005005;7.651800;-4.826520;-0.824040
8.817749;0.004974;7.887240;-4.826520;-0.588600
8.822754;0.005005;8.240400;-4.591080;-0.117720
8.827728;0.004974;8.122680;-4.355640;0.117720
8.832733;0.005005;8.122680;-4.826520;0.235440
8.837708;0.004974;7.887240;-4.944240;0.117720
8.842682;0.004974;7.651800;-4.591080;0.235440
8.847687;0.005005;8.004960;-4.237920;0.470880
8.852661;0.004974;8.711280;-4.826520;1.294920
8.857666;0.005005;7.534080;-4.002480;0.000000
8.862640;0.004974;7.769520;-4.120200;0.941760
8.867645;0.005005;7.416360;-3.531600;-0.588600
8.872620;0.004974;7.651800;-3.413880;0.000000
8.877625;0.005005;7.416360;-3.649320;0.000000
8.882629;0.005005;7.887240;-3.649320;0.470880
8.887604;0.004974;7.416360;-3.649320;-0.235440
8.892609;0.005005;7.063200;-3.531600;-0.353160
8.897583;0.004974;7.180920;-3.649320;-0.588600
8.902557;0.004974;7.534080;-3.649320;-0.941760
8.907562;0.005005;7.651800;-3.649320;-0.588600
8.912567;0.005005;7.651800;-3.767040;-0.470880
8.917542;0.004974;7.298640;-3.413880;-0.353160
8.922546;0.005005;6.945480;-3.296160;0.000000
8.927521;0.004974;7.416360;-3.531600;0.353160
8.932495;0.004974;7.180920;-3.531600;0.588600
8.937500;0.005005;7.769520;-3.413880;1.059480
8.942505;0.005005;8.593560;-3.767040;1.530360
8.947479;0.004974;8.358120;-3.767040;1.648080
8.952454;0.004974;8.475840;-3.884760;1.648080
8.957458;0.005005;8.358120;-4.120200;1.765800
8.962433;0.004974;8.475840;-4.120200;1.412640
8.967438;0.005005;8.004960;-4.002480;0.706320
8.972412;0.004974;7.887240;-4.355640;0.588600
8.977417;0.005005;8.475840;-4.237920;-0.117720
8.982391;0.004974;8.593560;-4.120200;-0.706320
8.987396;0.005005;9.182160;-4.237920;-1.294920
8.992371;0.004974;9.299880;-4.120200;-1.765800
8.997375;0.005005;9.770760;-4.120200;-2.001240
9.002380;0.005005;10.712520;-4.355640;-1.883520
9.007355;0.004974;11.065680;-4.355640;-2.001240
9.012360;0.005005;11.418840;-4.237920;-1.883520
9.017334;0.004974;11.772000;-4.355640;-1.883520
9.022339;0.005005;12.242880;-4.002480;-1.648080
9.027313;0.004974;12.360600;-4.002480;-1.294920
9.032288;0.004974;12.831480;-4.002480;-1.059480
9.037292;0.005005;12.949200;-3.884760;-0.706320
9.042297;0.005005;12.949200;-3.649320;-0.824040
9.047272;0.004974;12.949200;-3.649320;-0.470880
9.052246;0.004974;12.478320;-3.884760;-0.235440
9.057251;0.005005;12.242880;-4.002480;0.117720
9.062225;0.004974;11.889720;-4.237920;0.353160
9.067230;0.005005;11.654280;-4.355640;0.235440
9.072205;0.004974;9.653040;-6.474600;-0.117720
9.077209;0.005005;10.006200;-5.532840;-0.470880
9.082184;0.004974;10.123920;-5.061960;-0.824040
9.087189;0.005005;9.888480;-4.473360;-1.059480
9.092163;0.004974;9.299880;-3.884760;-1.648080
9.097168;0.005005;8.593560;-3.531600;-2.001240
9.102142;0.004974;8.240400;-3.060720;-2.236680
9.107147;0.005005;8.240400;-2.707560;-2.118960
9.112122;0.004974;5.297400;-2.354400;-2.472120
9.117126;0.005005;5.768280;-2.236680;-2.354400
9.122101;0.004974;6.003720;-2.118960;-2.707560
9.127106;0.005005;6.356880;-2.001240;-2.707560
9.132080;0.004974;5.297400;-1.883520;-2.354400
9.137085;0.005005;6.356880;-1.883520;-2.001240
9.142090;0.005005;4.355640;-0.235440;-2.001240
9.147064;0.004974;5.297400;-1.883520;-2.472120
9.152039;0.004974;5.768280;0.117720;-1.765800
9.157043;0.005005;7.063200;-0.235440;-1.412640
9.162018;0.004974;8.475840;-0.470880;-1.294920
9.167023;0.005005;8.122680;-1.177200;-1.294920
9.172028;0.005005;7.651800;-2.001240;-1.294920
9.177002;0.004974;8.122680;-2.001240;-1.765800
9.182007;0.005005;8.593560;-2.354400;-1.648080
9.186981;0.004974;9.064440;-2.236680;-1.765800
9.191986;0.005005;9.182160;-2.707560;-1.648080
9.196960;0.004974;9.417600;5.297400;-1.765800
9.201965;0.005005;9.064440;1.530360;-2.118960
9.206940;0.004974;9.299880;-0.353160;-2.118960
9.211914;0.004974;9.888480;-1.059480;-2.354400
9.216919;0.005005;10.006200;5.061960;-2.707560
9.221893;0.004974;9.770760;1.412640;-2.472120
9.226898;0.005005;9.888480;-0.353160;-2.001240
9.231873;0.004974;9.770760;-1.294920;-2.001240
9.236877;0.005005;9.535320;-1.883520;-1.883520
9.241852;0.004974;9.417600;-2.236680;-1.648080
9.246857;0.005005;9.299880;-2.354400;-1.648080
9.251831;0.004974;10.594800;-7.180920;-0.588600
9.256836;0.005005;15.185880;-17.422560;0.235440
9.261810;0.004974;11.536560;-9.653040;-1.177200
9.266785;0.004974;10.006200;-6.003720;-1.412640
9.271790;0.005005;9.299880;-4.473360;-1.648080
9.276764;0.004974;8.946720;-3.767040;-1.765800
9.281769;0.005005;8.711280;-3.531600;-1.883520
9.286743;0.004974;8.593560;-3.649320;-1.883520
9.291748;0.005005;7.769520;-2.707560;-2.001240
9.296722;0.004974;8.711280;-2.825280;-1.765800
9.301727;0.005005;8.593560;-2.589840;-1.294920
9.306702;0.004974;7.887240;-2.707560;-2.825280
9.311707;0.005005;7.298640;-2.236680;-2.589840
9.316681;0.004974;7.180920;-2.472120;-2.236680
9.321655;0.004974;7.534080;-2.589840;-2.236680
9.326660;0.005005;8.358120;0.706320;-2.472120
9.331635;0.004974;8.004960;-0.706320;-1.765800
9.336639;0.005005;8.004960;-1.059480;-1.883520
9.341614;0.004974;8.358120;-1.412640;-2.354400
9.346619;0.005005;7.769520;-2.118960;-2.118960
9.351593;0.004974;8.240400;-0.824040;-2.001240
9.356567;0.004974;8.240400;-1.059480;-1.765800
9.361572;0.005005;8.004960;-1.530360;-1.412640
9.366547;0.004974;8.004960;-1.648080;-1.648080
9.371552;0.005005;7.651800;-1.765800;-1.765800
9.376526;0.004974;7.416360;-1.059480;-1.765800
9.381531;0.005005;7.180920;-1.530360;-1.648080
9.386505;0.004974;7.534080;-1.648080;-1.648080
9.391510;0.005005;6.710040;-1.412640;-1.530360
9.396484;0.004974;7.180920;-1.648080;-1.530360
9.401489;0.005005;7.769520;-1.765800;-1.412640
9.406464;0.004974;7.887240;-1.648080;-1.294920
9.411469;0.005005;7.769520;-1.765800;-1.294920
9.416443;0.004974;8.122680;-1.765800;-1.177200
9.421417;0.004974;8.122680;-1.648080;-1.059480
9.426422;0.005005;8.358120;-1.765800;-0.706320
9.431427;0.005005;8.358120;-1.765800;-0.941760
9.436401;0.004974;8.358120;-1.648080;-0.706320
9.441376;0.004974;8.004960;-1.648080;-0.824040
9.446381;0.005005;7.651800;-1.765800;-1.177200
9.451355;0.004974;7.534080;-1.765800;-1.177200
9.456329;0.004974;7.416360;-1.765800;-1.059480
9.461334;0.005005;7.887240;-1.765800;-0.941760
9.466309;0.004974;8.240400;-1.765800;-1.059480
9.471313;0.005005;8.240400;-1.765800;-1.059480
9.476288;0.004974;8.593560;-1.883520;-0.706320
9.481293;0.005005;8.711280;-1.883520;-0.706320
9.486267;0.004974;8.711280;-1.883520;-0.706320
9.491241;0.004974;8.829000;-1.883520;-0.470880
9.496246;0.005005;8.358120;-1.883520;-0.235440
9.501221;0.004974;8.004960;-1.412640;-0.588600
9.506226;0.005005;8.240400;-1.530360;-0.117720
9.511200;0.004974;8.358120;-1.648080;-0.235440
9.516205;0.005005;8.004960;-1.765800;-0.353160
9.521179;0.004974;8.593560;-1.765800;-0.117720
9.526184;0.005005;8.711280;-1.765800;-0.117720
9.531158;0.004974;8.593560;-2.001240;-0.235440
9.536133;0.004974;8.946720;-1.883520;-0.117720
9.541138;0.005005;8.946720;-2.118960;0.117720
9.546112;0.004974;8.711280;-2.472120;0.235440
9.551117;0.005005;8.946720;-2.472120;0.353160
9.556091;0.004974;9.064440;-2.472120;0.706320
9.561096;0.005005;9.064440;-2.472120;0.941760
9.566071;0.004974;9.182160;-2.118960;0.941760
9.571075;0.005005;8.829000;-2.354400;1.059480
9.576050;0.004974;9.417600;-2.472120;1.530360
9.581055;0.005005;9.535320;-2.354400;1.530360
9.586060;0.005005;9.653040;-2.472120;1.530360
9.591034;0.004974;9.888480;-2.236680;1.530360
9.596039;0.005005;9.653040;-2.472120;1.883520
9.601013;0.004974;9.770760;-2.472120;1.294920
9.605988;0.004974;9.653040;-2.707560;1.294920
9.610992;0.005005;9.653040;-2.472120;1.059480
9.615967;0.004974;9.417600;-2.236680;0.588600
9.620972;0.005005;9.182160;-2.118960;0.117720
9.625946;0.004974;9.064440;-2.001240;-0.824040
9.630951;0.005005;9.064440;-2.001240;-1.294920
9.635925;0.004974;9.299880;-2.354400;-1.765800
9.640930;0.005005;10.123920;-2.825280;-1.530360
9.645905;0.004974;10.359360;-2.354400;-2.118960
9.650909;0.005005;10.830240;-3.296160;-2.118960
9.655884;0.004974;11.301120;-3.413880;-2.472120
9.660889;0.005005;11.418840;-3.649320;-2.943000
9.665863;0.004974;12.596040;-3.413880;-3.296160
9.670868;0.005005;12.949200;-4.355640;-3.060720
9.675842;0.004974;12.831480;-3.884760;-3.060720
9.680847;0.005005;14.126400;-3.296160;-3.767040
9.685822;0.004974;13.537800;-3.649320;-2.589840
9.690826;0.005005;13.537800;-4.237920;-2.943000
9.695801;0.004974;13.302360;-3.767040;-2.472120
9.700806;0.005005;13.420080;-3.767040;-2.354400
9.705780;0.004974;13.066920;-3.178440;-2.118960
9.710785;0.005005;12.949200;-2.825280;-2.118960
9.715759;0.004974;12.478320;-2.354400;-2.001240
9.720764;0.005005;12.007440;-2.118960;-2.001240
9.725739;0.004974;11.418840;-2.001240;-1.883520
9.730743;0.005005;10.947960;-1.765800;-2.001240
9.735718;0.004974;10.477080;-1.765800;-1.883520
9.740723;0.005005;10.241640;-2.118960;-2.001240
9.745697;0.004974;10.006200;-2.118960;-1.648080
9.750702;0.005005;9.770760;-2.354400;-1.765800
9.755707;0.005005;9.535320;-2.707560;-1.883520
9.760681;0.004974;9.064440;-2.589840;-1.765800
9.765686;0.005005;8.829000;-3.060720;-1.883520
9.770660;0.004974;8.475840;-3.413880;-2.001240
9.775665;0.005005;8.004960;-3.531600;-1.883520
9.780640;0.004974;7.534080;-3.649320;-1.765800
9.785645;0.005005;7.063200;-3.531600;-2.118960
9.790619;0.004974;6.356880;-3.767040;-2.001240
9.795593;0.004974;6.239160;-3.884760;-2.001240
9.800598;0.005005;6.356880;-4.237920;-2.118960
9.805573;0.004974;6.710040;-4.473360;-2.001240
9.810577;0.005005;6.945480;-4.355640;-2.001240
9.815582;0.005005;7.534080;-4.355640;-1.648080
9.820557;0.004974;7.298640;-4.120200;-1.648080
9.825562;0.005005;7.063200;-4.002480;-1.648080
9.830536;0.004974;6.945480;-3.884760;-1.765800
9.835510;0.004974;6.945480;-3.767040;-1.648080
9.840515;0.005005;7.298640;-3.531600;-1.765800
9.845490;0.004974;10.947960;-5.179680;-0.706320
9.850494;0.005005;9.770760;-4.355640;-1.294920
9.855469;0.004974;8.829000;-3.767040;-1.294920
9.860474;0.005005;9.182160;-3.649320;-1.412640
9.865448;0.004974;8.946720;-3.649320;-1.530360
9.870422;0.004974;4.120200;6.003720;-4.826520
9.875427;0.005005;6.356880;1.294920;-3.060720
9.880402;0.004974;7.063200;-1.177200;-2.236680
9.885406;0.005005;7.180920;-2.001240;-2.001240
9.890381;0.004974;7.063200;-2.707560;-1.530360
9.895386;0.005005;8.593560;12.478320;0.470880
9.900360;0.004974;8.122680;4.826520;-0.706320
9.905365;0.005005;7.416360;0.706320;-0.941760
9.910339;0.004974;6.710040;-1.059480;-1.530360
9.915314;0.004974;6.592320;-2.118960;-1.648080
9.920319;0.005005;6.710040;-1.883520;-2.001240
9.925293;0.004974;6.356880;-4.120200;-2.236680
9.930267;0.004974;5.768280;-3.178440;-1.648080
9.935272;0.005005;4.002480;-8.711280;-1.765800
9.940277;0.005005;4.708800;-5.886000;-1.883520
9.945251;0.004974;4.944240;-4.002480;-1.883520
9.950256;0.005005;5.532840;-3.296160;-1.765800
9.955231;0.004974;5.886000;-2.825280;-1.177200
9.960236;0.005005;6.003720;-2.825280;-1.294920
9.965210;0.004974;6.239160;-2.825280;-1.059480
9.970215;0.005005;9.064440;1.648080;0.353160
9.975189;0.004974;7.063200;-0.353160;-0.824040
9.980194;0.005005;7.298640;-1.412640;-0.941760
9.985168;0.004974;6.710040;-1.883520;-1.294920
9.990173;0.005005;7.180920;-2.354400;-0.824040
9.995148;0.004974;7.298640;-2.589840;-0.824040
10.000122;0.004974;6.945480;-2.707560;-1.059480
10.005127;0.005005;6.945480;-3.060720;-0.941760
10.010101;0.004974;7.298640;-3.413880;-0.941760
10.015106;0.005005;7.534080;-3.531600;-0.824040
10.020081;0.004974;7.887240;-3.296160;-0.470880
10.025055;0.004974;6.710040;-4.120200;-1.294920
10.030060;0.005005;8.004960;-3.884760;-0.470880
10.035065;0.005005;8.358120;-3.767040;-0.353160
10.040039;0.004974;8.593560;-3.767040;-0.235440
10.045013;0.004974;8.829000;-3.884760;-0.235440
10.050018;0.005005;8.946720;-3.884760;0.000000
10.054993;0.004974;5.886000;-6.474600;-1.294920
10.059998;0.005005;7.063200;-4.944240;-0.706320
10.064972;0.004974;7.298640;-4.708800;-0.470880
10.069977;0.005005;7.298640;-4.120200;-0.588600
10.074951;0.004974;6.003720;-5.415120;-1.294920
10.079956;0.005005;6.710040;-5.650560;-1.059480
10.084930;0.004974;7.298640;-5.297400;-0.470880
10.089935;0.005005;7.416360;-4.944240;0.000000
10.094910;0.004974;7.651800;-4.944240;0.235440
10.099884;0.004974;7.769520;-5.061960;0.353160
10.104889;0.005005;7.887240;-5.179680;0.588600
10.109863;0.004974;8.004960;-5.297400;0.470880
10.114868;0.005005;7.769520;-5.061960;0.470880
10.119843;0.004974;7.651800;-4.944240;0.353160
10.124847;0.005005;7.887240;-4.708800;0.588600
10.129822;0.004974;7.887240;-4.708800;0.588600
10.134827;0.005005;7.769520;-4.708800;0.235440
10.139801;0.004974;7.534080;-4.473360;0.000000
10.144806;0.005005;7.416360;-4.237920;0.235440
10.149780;0.004974;7.298640;-3.884760;-0.117720
10.154785;0.005005;6.945480;-3.649320;-0.470880
10.159760;0.004974;7.651800;-2.707560;0.235440
10.164764;0.005005;7.651800;-2.354400;-0.470880
10.169739;0.004974;7.298640;-3.296160;-0.353160
10.174744;0.005005;7.534080;-2.589840;-0.353160
10.179718;0.004974;6.945480;-3.060720;-0.117720
10.184723;0.005005;7.180920;-2.825280;0.353160
10.189697;0.004974;7.180920;-2.825280;0.235440
10.194672;0.004974;7.416360;-2.825280;0.353160
10.199677;0.005005;8.240400;-3.178440;1.059480
10.204651;0.004974;8.004960;-3.531600;1.412640
10.209656;0.005005;8.240400;-3.531600;1.648080
10.214630;0.004974;8.004960;-3.178440;1.412640
10.219635;0.005005;8.593560;-3.649320;1.530360
10.224609;0.004974;9.417600;-3.884760;1.765800
10.229614;0.005005;10.594800;-6.121440;2.472120
10.234589;0.004974;9.653040;-4.591080;2.472120
10.239563;0.004974;9.770760;-4.708800;2.001240
10.244568;0.005005;10.006200;-6.003720;1.765800
10.249542;0.004974;11.065680;-5.415120;1.412640
10.254547;0.005005;9.770760;-6.474600;0.235440
10.259552;0.005005;10.006200;-4.944240;0.000000
10.264526;0.004974;9.064440;-5.061960;-0.824040
10.269501;0.004974;9.535320;-5.061960;-1.177200
10.274506;0.005005;10.712520;-4.355640;-1.530360
10.279480;0.004974;12.007440;-4.002480;-1.648080
10.284454;0.004974;10.712520;-3.413880;-2.001240
10.289459;0.005005;10.359360;-2.943000;-2.001240
10.294434;0.004974;10.477080;-3.178440;-1.530360
10.299438;0.005005;10.477080;-2.707560;-1.530360
10.304443;0.005005;10.712520;-2.472120;-1.765800
10.309418;0.004974;11.301120;-2.825280;-1.883520
10.314392;0.004974;12.007440;-3.178440;-1.883520
10.319397;0.005005;12.478320;-3.296160;-1.648080
10.324402;0.005005;12.478320;-3.649320;-1.294920
10.329376;0.004974;12.596040;-3.767040;-1.177200
10.334381;0.005005;11.654280;-3.296160;-1.883520
10.339355;0.004974;11.418840;-3.767040;-1.883520
10.344360;0.005005;11.654280;-4.355640;-1.648080
10.349335;0.004974;11.772000;-4.002480;-1.294920
10.354309;0.004974;11.301120;-3.178440;-1.765800
10.359283;0.004974;11.183400;-2.825280;-1.883520
10.364288;0.005005;10.830240;-2.354400;-2.707560
10.369263;0.004974;10.241640;-2.118960;-2.707560
10.374268;0.005005;10.241640;-2.589840;-2.472120
10.379242;0.004974;9.535320;-2.236680;-3.178440
10.384247;0.005005;9.299880;-1.765800;-2.943000
10.389221;0.004974;8.711280;-1.530360;-2.707560
10.394196;0.004974;7.887240;-1.294920;-2.825280
10.399200;0.005005;9.182160;-2.589840;0.117720
10.404175;0.004974;8.475840;-2.236680;-1.294920
10.409180;0.005005;7.534080;-1.530360;-2.472120
10.414154;0.004974;7.534080;-1.648080;-2.472120
10.419159;0.005005;7.651800;-2.118960;-2.236680
10.424133;0.004974;7.769520;-2.354400;-2.236680
10.429108;0.004974;8.004960;-2.354400;-2.001240
10.434113;0.005005;7.416360;-3.178440;-2.236680
10.439087;0.004974;9.417600;-3.296160;-2.236680
10.444092;0.005005;6.003720;-4.473360;-3.178440
10.449066;0.004974;7.063200;-4.355640;-2.354400
10.454071;0.005005;7.769520;-4.120200;-2.236680
10.459045;0.004974;8.358120;-3.767040;-2.236680
10.464050;0.005005;8.711280;-3.767040;-2.118960
10.469025;0.004974;8.240400;-4.591080;-2.001240
10.474030;0.005005;8.122680;-3.767040;-1.765800
10.479004;0.004974;8.004960;-4.120200;-2.001240
10.483978;0.004974;8.122680;-3.296160;-1.765800
10.488983;0.005005;8.358120;-3.178440;-1.765800
10.493958;0.004974;8.829000;-2.943000;-1.765800
10.498962;0.005005;9.064440;-2.825280;-1.648080
10.503937;0.004974;9.299880;-2.825280;-1.883520
10.508942;0.005005;8.946720;-2.825280;-1.530360
10.513916;0.004974;8.829000;-2.825280;-1.294920
10.518921;0.005005;6.356880;-7.887240;-1.530360
10.523895;0.004974;7.651800;-5.297400;-1.765800
10.528900;0.005005;8.004960;-4.120200;-1.883520
10.533875;0.004974;8.240400;-4.002480;-1.883520
10.538879;0.005005;8.240400;-3.649320;-1.765800
10.543854;0.004974;8.240400;-3.413880;-1.059480
10.548859;0.005005;3.178440;-8.711280;-1.883520
10.553833;0.004974;5.415120;-6.003720;-1.883520
10.558807;0.004974;6.003720;-4.237920;-2.001240
10.563812;0.005005;6.592320;-3.767040;-1.883520
10.568787;0.004974;6.710040;-3.413880;-1.765800
10.573792;0.005005;6.827760;-2.825280;-1.648080
10.578766;0.004974;2.589840;-7.063200;-2.943000
10.583740;0.004974;3.884760;-5.297400;-2.589840
10.588745;0.005005;6.474600;-2.001240;-1.883520
10.593719;0.004974;6.356880;-2.707560;-2.001240
10.598724;0.005005;7.180920;-2.589840;-1.883520
10.603729;0.005005;6.710040;-3.413880;-1.412640
10.608704;0.004974;6.710040;-3.413880;-1.765800
10.613678;0.004974;6.710040;-3.060720;-1.412640
10.618683;0.005005;6.474600;-3.531600;-1.294920
10.623657;0.004974;6.239160;-4.120200;-0.706320
10.628662;0.005005;5.650560;-3.531600;-1.648080
10.633636;0.004974;6.003720;-3.649320;-1.530360
10.638611;0.004974;5.886000;-2.825280;-1.648080
10.643616;0.005005;6.121440;-2.589840;-1.530360
10.648590;0.004974;6.592320;-2.001240;-2.001240
10.653595;0.005005;6.592320;-2.943000;-0.117720
10.658569;0.004974;6.474600;-2.825280;-0.941760
10.663574;0.005005;6.356880;-3.413880;-1.177200
10.668549;0.004974;5.650560;-3.060720;-1.530360
10.673553;0.005005;5.650560;-3.531600;-1.294920
10.678528;0.004974;6.592320;-3.296160;-1.294920
10.683502;0.004974;9.770760;-1.059480;0.706320
10.688507;0.005005;8.475840;-1.530360;-0.588600
10.693481;0.004974;8.475840;-1.883520;-0.470880
10.698486;0.005005;8.122680;-2.354400;-0.470880
10.703461;0.004974;8.122680;-2.354400;-0.588600
10.708435;0.004974;8.358120;-2.001240;-0.706320
10.713440;0.005005;8.358120;-1.765800;-0.470880
10.718445;0.005005;8.711280;-1.648080;-0.941760
10.723419;0.004974;8.475840;-1.648080;-0.941760
10.728394;0.004974;8.122680;-2.118960;-0.470880
10.733398;0.005005;8.004960;-2.001240;-1.177200
10.738373;0.004974;8.240400;-1.883520;-0.941760
10.743378;0.005005;8.004960;-2.825280;-0.353160
10.748352;0.004974;8.358120;-2.589840;0.117720
10.753357;0.005005;8.593560;-2.472120;0.000000
10.758331;0.004974;9.299880;-2.236680;-0.117720
10.763336;0.005005;9.770760;-2.825280;0.588600
10.768311;0.004974;10.006200;-3.178440;0.470880
10.773315;0.005005;10.594800;-2.472120;0.353160
10.778290;0.004974;11.418840;-2.472120;0.000000
10.783295;0.005005;11.654280;-2.118960;-0.235440
10.788269;0.004974;8.946720;-3.060720;-0.353160
10.793274;0.005005;6.356880;-2.472120;-0.117720
10.798248;0.004974;6.239160;-2.001240;0.000000
10.803253;0.005005;6.945480;-1.765800;0.117720
10.808228;0.004974;7.416360;-1.530360;0.235440
10.813232;0.005005;7.887240;-1.412640;0.588600
10.818207;0.004974;8.711280;-1.648080;0.353160
10.823181;0.004974;8.946720;-1.765800;0.117720
10.828186;0.005005;9.653040;-1.765800;0.353160
10.833160;0.004974;10.359360;-1.765800;0.824040
10.838165;0.005005;10.712520;-1.765800;1.177200
10.843140;0.004974;10.947960;-1.648080;1.530360
10.848145;0.005005;10.947960;-1.059480;2.236680
10.853119;0.004974;10.830240;-0.706320;2.354400
10.858093;0.004974;11.065680;-0.353160;2.236680
10.863098;0.005005;10.594800;-0.353160;2.001240
10.868073;0.004974;10.712520;-0.470880;1.059480
10.873077;0.005005;11.065680;-0.588600;0.470880
10.878052;0.004974;10.830240;-0.941760;-0.588600
10.883057;0.005005;10.712520;-0.824040;-1.059480
10.888031;0.004974;11.301120;0.941760;-1.530360
10.893036;0.005005;11.065680;-0.235440;-2.118960
10.898010;0.004974;10.712520;-0.706320;-2.354400
10.903015;0.005005;10.947960;-1.059480;-2.589840
10.907990;0.004974;10.830240;-1.294920;-2.825280
10.912964;0.004974;11.183400;-1.530360;-3.296160
10.917969;0.005005;11.418840;-1.765800;-3.413880
10.922943;0.004974;11.889720;-1.883520;-3.413880
10.927948;0.005005;12.360600;-2.001240;-3.178440
10.932922;0.004974;12.831480;-1.883520;-2.943000
10.937927;0.005005;13.184640;-1.883520;-2.707560
10.942902;0.004974;13.066920;-1.883520;-2.825280
10.947876;0.004974;13.066920;-1.883520;-2.707560
10.952881;0.005005;12.596040;-1.883520;-2.236680
10.957855;0.004974;12.360600;-1.765800;-1.530360
10.962860;0.005005;12.360600;-0.941760;-1.648080
10.967834;0.004974;11.654280;-0.706320;-1.530360
10.972839;0.005005;11.418840;-1.059480;-1.294920
10.977814;0.004974;10.947960;-0.706320;-1.059480
10.982819;0.005005;10.712520;-0.470880;-1.059480
10.987793;0.004974;10.594800;-0.588600;-1.294920
10.992798;0.005005;9.888480;-0.470880;-1.530360
10.997772;0.004974;9.770760;-0.353160;-1.883520
11.002777;0.005005;9.653040;-0.235440;-2.001240
11.007751;0.004974;7.298640;-4.473360;-2.236680
11.012726;0.004974;8.593560;-1.412640;-2.472120
11.017731;0.005005;11.536560;5.297400;-1.530360
11.022705;0.004974;10.594800;2.118960;-1.648080
11.027710;0.005005;9.888480;0.117720;-2.118960
11.032684;0.004974;9.535320;-0.824040;-2.118960
11.037659;0.004974;9.299880;-1.177200;-2.354400
11.042664;0.005005;9.299880;-1.530360;-2.236680
11.047638;0.004974;9.299880;-1.648080;-2.001240
11.052643;0.005005;9.535320;-1.883520;-1.765800
11.057617;0.004974;9.535320;-2.001240;-1.530360
11.062622;0.005005;9.535320;-1.883520;-1.530360
11.067596;0.004974;10.359360;-2.707560;-1.059480
11.072601;0.005005;10.006200;-1.648080;-1.530360
11.077576;0.004974;9.770760;-1.765800;-1.294920
11.082550;0.004974;10.123920;-1.765800;-1.059480
11.087555;0.005005;10.006200;-1.765800;-0.824040
11.092529;0.004974;9.653040;-1.530360;-0.824040
11.097534;0.005005;8.711280;-1.765800;-0.941760
11.102509;0.004974;8.475840;-1.765800;-1.059480
11.107513;0.005005;8.475840;-1.765800;-0.941760
11.112488;0.004974;8.475840;-1.765800;-0.824040
11.117493;0.005005;8.593560;-1.412640;-1.059480
11.122467;0.004974;8.711280;-1.648080;-1.294920
11.127472;0.005005;8.358120;-1.530360;-1.530360
11.132446;0.004974;8.358120;-1.765800;-1.530360
11.137451;0.005005;7.887240;-1.412640;-1.294920
11.142426;0.004974;8.004960;-1.530360;-1.294920
11.147430;0.005005;8.004960;-1.412640;-1.412640
11.152405;0.004974;8.122680;-1.530360;-1.412640
11.157410;0.005005;7.887240;-1.530360;-1.765800
11.162384;0.004974;8.004960;-0.824040;-1.412640
11.167389;0.005005;7.534080;-1.059480;-1.059480
11.172363;0.004974;6.945480;-1.412640;-0.824040
11.177368;0.005005;6.827760;-1.294920;-0.706320
11.182343;0.004974;6.474600;-0.470880;-0.824040
11.187347;0.005005;7.063200;-1.177200;-0.706320
11.192322;0.004974;6.945480;-2.118960;0.000000
11.197327;0.005005;6.710040;-2.001240;-0.470880
11.202301;0.004974;6.827760;-1.883520;-0.824040
11.207306;0.005005;7.180920;-1.883520;-0.824040
11.212280;0.004974;7.534080;-1.883520;-0.706320
11.217285;0.005005;7.887240;-1.765800;-0.824040
11.222260;0.004974;8.475840;-1.765800;-0.588600
11.227264;0.005005;8.475840;-1.648080;-0.588600
11.232239;0.004974;8.946720;-1.765800;-0.353160
11.237244;0.005005;8.711280;-1.765800;-0.235440
11.242218;0.004974;8.946720;-1.294920;-0.235440
11.247223;0.005005;8.475840;-1.412640;0.000000
11.252197;0.004974;8.240400;-1.648080;0.000000
11.257202;0.005005;8.358120;-1.648080;-0.470880
11.262177;0.004974;8.593560;-1.530360;-0.470880
11.267151;0.004974;7.887240;-1.177200;-0.353160
11.272156;0.005005;7.769520;-1.177200;-0.235440
11.277130;0.004974;7.769520;-0.941760;-0.353160
11.282135;0.005005;7.769520;-0.941760;-0.235440
11.287109;0.004974;7.651800;-1.177200;-0.235440
11.292114;0.005005;7.651800;-1.294920;-0.235440
11.297089;0.004974;7.651800;-1.294920;-0.117720
11.302094;0.005005;8.004960;-1.177200;-0.353160
11.307068;0.004974;8.122680;-1.530360;-0.117720
11.312073;0.005005;8.240400;-1.648080;0.000000
11.317047;0.004974;8.358120;-1.765800;-0.117720
11.322052;0.005005;8.593560;-1.648080;-0.235440
11.327026;0.004974;8.475840;-1.765800;-0.117720
11.332001;0.004974;8.358120;-1.765800;0.000000
11.337006;0.005005;8.358120;-1.765800;0.235440
11.341980;0.004974;8.593560;-1.765800;0.117720
11.346985;0.005005;8.593560;-1.883520;0.235440
11.351959;0.004974;8.593560;-1.883520;0.235440
11.356964;0.005005;8.711280;-1.883520;0.353160
11.361938;0.004974;8.593560;-2.001240;0.353160
11.366913;0.004974;8.475840;-1.883520;0.353160
11.371918;0.005005;9.653040;-2.001240;0.000000
11.376892;0.004974;9.770760;-1.883520;0.353160
11.381897;0.005005;8.122680;-1.883520;0.706320
11.386871;0.004974;7.416360;-1.883520;0.235440
11.391876;0.005005;7.651800;-2.001240;0.117720
11.396851;0.004974;8.122680;-1.883520;0.353160
11.401825;0.004974;8.358120;-1.883520;0.470880
11.406830;0.005005;8.593560;-1.883520;0.588600
11.411804;0.004974;8.358120;-1.883520;0.353160
11.416809;0.005005;8.593560;-1.883520;0.353160
11.421814;0.005005;8.475840;-1.765800;0.235440
11.426788;0.004974;8.475840;-1.765800;0.470880
11.431763;0.004974;8.475840;-1.765800;0.470880
11.436768;0.005005;9.299880;-2.236680;0.353160
11.441742;0.004974;8.593560;-2.001240;1.059480
11.446716;0.004974;8.711280;-1.883520;1.530360
11.451721;0.005005;9.535320;-1.883520;1.648080
11.456696;0.004974;9.888480;-1.883520;1.883520
11.461700;0.005005;10.123920;-1.883520;1.883520
11.466675;0.004974;10.241640;-1.883520;2.001240
11.471680;0.005005;10.594800;-1.883520;2.236680
11.476654;0.004974;10.477080;-1.883520;2.589840
11.481659;0.005005;11.301120;-2.001240;2.472120
11.486633;0.004974;11.301120;-2.118960;2.707560
11.491638;0.005005;11.418840;-2.118960;2.707560
11.496613;0.004974;12.125160;-2.236680;2.589840
11.501617;0.005005;11.654280;-2.118960;1.765800
11.506592;0.004974;11.065680;-3.178440;0.588600
11.511566;0.004974;10.712520;-3.296160;-0.941760
11.516571;0.005005;10.947960;-3.060720;-1.883520
11.521545;0.004974;12.007440;-2.707560;-2.236680
11.526550;0.005005;12.596040;-2.118960;-2.825280
11.531525;0.004974;13.537800;-1.412640;-2.943000
11.536530;0.005005;14.126400;-0.117720;-2.472120
11.541504;0.004974;13.890960;0.235440;-2.118960
11.546509;0.005005;13.655520;0.235440;-2.001240
11.551483;0.004974;13.420080;0.353160;-2.354400
11.556458;0.004974;13.537800;0.117720;-2.118960
11.561462;0.005005;13.184640;-0.470880;-2.001240
11.566437;0.004974;12.125160;-1.177200;-2.001240
11.571442;0.005005;10.947960;-1.177200;-1.883520
11.576416;0.004974;10.359360;-1.530360;-2.118960
11.581390;0.004974;9.770760;-1.883520;-2.001240
11.586395;0.005005;9.182160;-2.001240;-1.765800
11.591370;0.004974;8.829000;-2.001240;-2.001240
11.596375;0.005005;8.711280;-1.883520;-1.530360
11.601349;0.004974;8.358120;-1.883520;-1.765800
11.606354;0.005005;8.122680;-1.883520;-2.001240
11.611328;0.004974;7.651800;-1.883520;-2.001240
11.616333;0.005005;7.416360;-1.883520;-2.236680
11.621307;0.004974;7.180920;-1.883520;-2.354400
11.626312;0.005005;7.298640;-2.001240;-2.472120
11.631287;0.004974;7.180920;-2.001240;-2.589840
11.636261;0.004974;7.416360;-1.883520;-2.589840
11.641266;0.005005;7.416360;-1.883520;-2.589840
11.646240;0.004974;7.769520;-2.118960;-2.589840
11.651245;0.005005;8.240400;-2.001240;-2.472120
11.656219;0.004974;8.946720;-1.883520;-2.236680
11.661224;0.005005;9.535320;-1.883520;-2.001240
11.666199;0.004974;10.123920;-1.883520;-1.883520
11.671204;0.005005;10.359360;-1.883520;-1.883520
11.676178;0.004974;10.947960;-2.001240;-1.765800
11.681183;0.005005;10.947960;-1.883520;-1.294920
11.686157;0.004974;10.947960;-1.883520;-1.059480
11.691162;0.005005;10.830240;-2.001240;-1.059480
11.696136;0.004974;10.477080;-2.001240;-0.941760
11.701141;0.005005;10.477080;-2.354400;-1.177200
11.706116;0.004974;10.359360;-2.236680;-1.412640
11.711121;0.005005;10.006200;-2.001240;-1.883520
11.716095;0.004974;10.006200;-1.883520;-1.883520
11.721100;0.005005;9.770760;-1.883520;-1.765800
11.726074;0.004974;9.417600;-1.883520;-1.648080
11.731079;0.005005;9.064440;-1.765800;-1.765800
11.736053;0.004974;8.829000;-1.059480;-1.883520
11.741028;0.004974;8.711280;-0.824040;-2.001240
11.746033;0.005005;8.475840;-0.470880;-1.765800
11.751007;0.004974;8.829000;-0.470880;-1.765800
11.756012;0.005005;8.475840;-0.706320;-1.765800
11.760986;0.004974;8.240400;-0.941760;-1.765800
11.765991;0.005005;8.240400;-1.059480;-1.883520
11.770966;0.004974;8.122680;-0.941760;-2.001240
11.775970;0.005005;8.122680;-1.294920;-1.883520
11.780945;0.004974;8.004960;-1.177200;-2.001240
11.785950;0.005005;7.769520;-1.294920;-1.765800
11.790924;0.004974;7.534080;-1.530360;-1.765800
11.795929;0.005005;7.416360;-1.765800;-1.765800
11.800903;0.004974;7.180920;-1.765800;-1.765800
11.805908;0.005005;7.534080;-1.883520;-1.530360
11.810883;0.004974;7.063200;-1.883520;-1.648080
11.815887;0.005005;6.945480;-1.765800;-1.648080
11.820862;0.004974;6.710040;-1.530360;-1.765800
11.825867;0.005005;6.827760;-1.412640;-1.530360
11.830841;0.004974;6.945480;-1.530360;-1.412640
11.835846;0.005005;6.827760;-1.412640;-1.765800
11.840820;0.004974;6.592320;-1.412640;-1.765800
11.845795;0.004974;6.592320;-1.412640;-1.765800
11.850800;0.005005;6.827760;-1.530360;-1.530360
11.855774;0.004974;6.945480;-1.530360;-1.412640
11.860748;0.004974;6.945480;-1.530360;-1.530360
11.865753;0.005005;6.710040;-1.412640;-1.059480
11.870728;0.004974;6.945480;-1.648080;-1.294920
11.875732;0.005005;7.063200;-1.765800;-1.294920
11.880707;0.004974;7.416360;-1.883520;-0.706320
11.885712;0.005005;7.416360;-1.883520;-0.941760
11.890686;0.004974;7.769520;-1.883520;-0.941760
11.895691;0.005005;8.122680;-1.883520;-0.706320
11.900665;0.004974;8.475840;-2.001240;-0.824040
11.905670;0.005005;8.122680;-1.883520;-0.706320
11.910645;0.004974;8.240400;-1.883520;-0.824040
11.915619;0.004974;8.004960;-1.883520;-0.588600
11.920624;0.005005;7.887240;-2.001240;-0.470880
11.925598;0.004974;7.887240;-1.883520;-0.588600
11.930603;0.005005;8.122680;-1.883520;-0.470880
11.935577;0.004974;8.358120;-1.883520;-0.470880
11.940582;0.005005;8.358120;-1.883520;-0.353160
11.945557;0.004974;8.240400;-1.883520;-0.353160
11.950562;0.005005;8.358120;-1.883520;0.000000
11.955566;0.005005;8.358120;-1.883520;-0.117720
11.960541;0.004974;8.475840;-1.883520;0.000000
11.965515;0.004974;8.829000;-1.765800;0.000000
11.970520;0.005005;8.829000;-1.765800;-0.117720
11.975494;0.004974;9.182160;-1.765800;0.117720
11.980499;0.005005;9.182160;-1.648080;0.000000
11.985474;0.004974;9.064440;-1.765800;0.235440
11.990479;0.005005;9.064440;-1.648080;0.353160
11.995453;0.004974;9.535320;-1.648080;0.353160
12.000427;0.004974;9.299880;-1.530360;0.588600
12.005432;0.005005;9.299880;-1.648080;0.470880
12.010406;0.004974;9.299880;-1.765800;0.588600
12.015411;0.005005;9.299880;-1.648080;0.824040
12.020386;0.004974;9.182160;-1.765800;0.824040
12.025360;0.004974;8.946720;-1.765800;0.470880
12.030334;0.004974;9.182160;-1.765800;0.353160
12.035339;0.005005;9.064440;-1.765800;0.588600
12.040314;0.004974;9.299880;-1.765800;0.470880
12.045319;0.005005;9.182160;-1.765800;0.588600
12.050293;0.004974;9.299880;-1.765800;0.706320
12.055298;0.005005;9.417600;-1.765800;0.470880
12.060272;0.004974;9.535320;-1.765800;0.824040
12.065277;0.005005;9.653040;-1.765800;1.177200
12.070251;0.004974;9.770760;-1.765800;1.412640
12.075256;0.005005;10.123920;-1.765800;1.530360
12.080231;0.004974;10.359360;-1.883520;1.765800
12.085236;0.005005;10.123920;-2.001240;1.883520
12.090210;0.004974;10.594800;-2.118960;1.883520
12.095184;0.004974;10.594800;-2.001240;1.883520
12.100189;0.005005;11.065680;-1.883520;2.001240
12.105164;0.004974;11.301120;-1.883520;2.001240
12.110168;0.005005;11.654280;-1.883520;1.059480
12.115143;0.004974;12.007440;-1.883520;0.470880
12.120148;0.005005;12.125160;-2.001240;0.000000
12.125122;0.004974;12.478320;-2.118960;-0.470880
12.130127;0.005005;12.596040;-2.707560;-0.588600
12.135101;0.004974;12.478320;-3.178440;-0.941760
12.140076;0.004974;12.596040;-3.413880;-1.530360
12.145081;0.005005;12.596040;-4.002480;-1.883520
12.150055;0.004974;12.478320;-4.591080;-2.354400
12.155060;0.005005;12.242880;-4.944240;-2.472120
12.160034;0.004974;12.125160;-5.061960;-2.589840
12.165039;0.005005;12.125160;-4.708800;-2.707560
12.170013;0.004974;11.772000;-3.767040;-2.825280
12.174988;0.004974;11.301120;-2.825280;-2.825280
12.179993;0.005005;11.065680;-2.236680;-2.943000
12.184967;0.004974;11.065680;-1.765800;-3.060720
12.189972;0.005005;10.712520;-1.648080;-3.060720
12.194946;0.004974;10.477080;-1.530360;-2.943000
12.199951;0.005005;10.241640;-1.412640;-2.707560
12.204926;0.004974;10.006200;-0.824040;-2.472120
12.209930;0.005005;10.123920;-0.706320;-2.472120
12.214905;0.004974;10.123920;-0.470880;-2.354400
12.219910;0.005005;10.359360;-0.353160;-2.001240
12.224884;0.004974;10.477080;-0.353160;-1.883520
12.229889;0.005005;10.594800;-0.706320;-2.001240
12.234863;0.004974;10.830240;-0.706320;-1.883520
12.239838;0.004974;10.830240;-1.177200;-1.883520
12.244843;0.005005;10.830240;-1.530360;-1.883520
12.249817;0.004974;10.594800;-1.648080;-1.648080
12.254822;0.005005;10.241640;-1.765800;-1.765800
12.259796;0.004974;10.123920;-2.118960;-2.001240
12.264771;0.004974;9.417600;-2.589840;-1.765800
12.269775;0.005005;8.946720;-2.707560;-1.765800
12.274750;0.004974;8.711280;-2.825280;-1.883520
12.279755;0.005005;8.593560;-3.060720;-1.765800
12.284729;0.004974;8.358120;-2.825280;-1.648080
12.289734;0.005005;8.240400;-2.589840;-1.765800
12.294708;0.004974;8.593560;-2.236680;-1.412640
12.299713;0.005005;8.946720;-2.001240;-1.412640
12.304688;0.004974;8.946720;-1.883520;-1.412640
12.309662;0.004974;9.182160;-1.883520;-1.412640
12.314667;0.005005;9.182160;-2.001240;-1.412640
12.319641;0.004974;9.182160;-1.883520;-1.294920
12.324646;0.005005;9.064440;-1.883520;-1.177200
12.329620;0.004974;9.182160;-1.883520;-1.059480
12.334625;0.005005;9.299880;-1.883520;-1.177200
12.339600;0.004974;8.593560;-1.883520;-1.294920
12.344574;0.004974;8.593560;-2.001240;-1.177200
12.349579;0.005005;8.593560;-2.001240;-1.412640
12.354553;0.004974;8.711280;-1.883520;-1.294920
12.359558;0.005005;8.475840;-2.118960;-1.412640
12.364532;0.004974;8.240400;-2.354400;-1.294920
12.369537;0.005005;7.887240;-2.589840;-1.530360
12.374512;0.004974;7.769520;-2.707560;-1.294920
12.379517;0.005005;7.651800;-2.354400;-1.294920
12.384491;0.004974;7.416360;-2.118960;-1.177200
12.389496;0.005005;7.180920;-2.118960;-1.059480
12.394470;0.004974;8.004960;-1.059480;-1.883520
12.399445;0.004974;7.180920;-1.294920;-1.765800
12.404449;0.005005;6.827760;-1.412640;-1.412640
12.409424;0.004974;6.592320;-1.294920;-1.059480
12.414429;0.005005;6.710040;-1.412640;-1.059480
12.419403;0.004974;6.945480;-1.412640;-0.941760
12.424408;0.005005;6.945480;-1.412640;-0.706320
12.429382;0.004974;6.945480;-0.941760;-0.588600
12.434357;0.004974;7.063200;-1.412640;-0.588600
12.439362;0.005005;6.945480;-1.294920;-0.706320
12.444336;0.004974;6.945480;-1.530360;-0.588600
12.449310;0.004974;6.827760;-1.530360;-0.353160
12.454315;0.005005;6.827760;-1.648080;-0.235440
12.459290;0.004974;6.827760;-1.765800;-0.235440
12.464294;0.005005;6.945480;-1.765800;-0.353160
12.469269;0.004974;9.535320;-1.765800;0.941760
