# FOX Logger (IMU file)
# (c) INRIA 2011-2013
#
# File created from file HKB0_01.RAW
#
# File format:
# t;dt;ax;ay;az
#
# Units:
#	Time: s
#	Acceleration: m.s^-2
#
0.000031;0.000031;-0.706320;-0.941760;-10.123920
0.005005;0.004974;-1.412640;-1.648080;-8.004960
0.009979;0.004974;-1.765800;-1.648080;-8.240400
0.014984;0.005005;-1.765800;-1.294920;-8.593560
0.019958;0.004974;-1.765800;-1.530360;-8.711280
0.024963;0.005005;-1.765800;-1.412640;-8.946720
0.029938;0.004974;-1.765800;-1.530360;-9.182160
0.034943;0.005005;-1.883520;-1.765800;-9.064440
0.039917;0.004974;-2.001240;-1.765800;-8.829000
0.044922;0.005005;-1.883520;-1.765800;-8.946720
0.049896;0.004974;-1.883520;-1.765800;-9.535320
0.054901;0.005005;-1.883520;-1.765800;-9.417600
0.059906;0.005005;-2.001240;-1.765800;-9.182160
0.064880;0.004974;-1.883520;-1.648080;-8.829000
0.069885;0.005005;-1.883520;-1.648080;-8.829000
0.074860;0.004974;-2.001240;-1.765800;-9.182160
0.079865;0.005005;-1.883520;-1.765800;-8.829000
0.084839;0.004974;-2.001240;-1.765800;-8.593560
0.089844;0.005005;-1.883520;-1.648080;-8.475840
0.094818;0.004974;-2.118960;-1.294920;-8.711280
0.099823;0.005005;-2.001240;-1.412640;-8.829000
0.104797;0.004974;-2.001240;-1.177200;-8.711280
0.109802;0.005005;-2.001240;-1.294920;-9.182160
0.114777;0.004974;-1.883520;-1.530360;-9.535320
0.119781;0.005005;-1.883520;-1.530360;-9.417600
0.124756;0.004974;-2.001240;-1.648080;-9.299880
0.129761;0.005005;-1.883520;-1.765800;-8.946720
0.134766;0.005005;-1.883520;-1.648080;-8.593560
0.139740;0.004974;-2.001240;-1.294920;-8.711280
0.144745;0.005005;-1.883520;-1.412640;-8.946720
0.149719;0.004974;-1.883520;-1.530360;-8.829000
0.154724;0.005005;-1.883520;-1.412640;-8.829000
0.159698;0.004974;-2.118960;-1.294920;-8.829000
0.164703;0.005005;-2.118960;-0.588600;-8.593560
0.169678;0.004974;-2.236680;-0.235440;-8.593560
0.174683;0.005005;-2.001240;-0.117720;-8.475840
0.179688;0.005005;-2.354400;-0.235440;-8.593560
0.184662;0.004974;-2.118960;-0.706320;-8.475840
0.189667;0.005005;-2.001240;-1.177200;-8.711280
0.194641;0.004974;-1.883520;-1.530360;-8.829000
0.199646;0.005005;-2.001240;-1.648080;-8.593560
0.204620;0.004974;-2.118960;-1.765800;-9.182160
0.209625;0.005005;-2.236680;-1.765800;-8.946720
0.214630;0.005005;-2.001240;-1.765800;-8.946720
0.219604;0.004974;-1.883520;-1.765800;-9.182160
0.224609;0.005005;-1.883520;-1.648080;-9.417600
0.229584;0.004974;-1.883520;-1.530360;-9.535320
0.234589;0.005005;-2.001240;-1.177200;-9.064440
0.239563;0.004974;-2.001240;-0.706320;-8.711280
0.244568;0.005005;-2.001240;0.000000;-8.829000
0.249573;0.005005;-2.001240;0.235440;-8.711280
0.254547;0.004974;-2.001240;0.235440;-8.711280
0.259552;0.005005;-2.001240;0.235440;-8.593560
0.264526;0.004974;-1.883520;-0.235440;-8.475840
0.269531;0.005005;-1.883520;-0.353160;-8.711280
0.274506;0.004974;-2.001240;-0.941760;-9.182160
0.279510;0.005005;-1.883520;-1.412640;-9.182160
0.284485;0.004974;-2.001240;-1.648080;-8.946720
0.289490;0.005005;-1.883520;-1.765800;-8.711280
0.294495;0.005005;-1.883520;-1.765800;-8.829000
0.299469;0.004974;-1.883520;-1.648080;-8.829000
0.304474;0.005005;-2.001240;-1.765800;-9.182160
0.309448;0.004974;-1.883520;-1.765800;-8.829000
0.314453;0.005005;-1.883520;-1.765800;-9.299880
0.319427;0.004974;-2.001240;-1.765800;-9.888480
0.324432;0.005005;-1.883520;-1.765800;-10.947960
0.329407;0.004974;-2.001240;-1.765800;-12.242880
0.334412;0.005005;-2.001240;-1.765800;-13.184640
0.339417;0.005005;-1.883520;-2.236680;-14.008680
0.344391;0.004974;-2.001240;-2.118960;-15.303600
0.349396;0.005005;-0.706320;-1.530360;-11.772000
0.354370;0.004974;-2.707560;-1.765800;-11.772000
0.359375;0.005005;-2.001240;-1.177200;-8.240400
0.364349;0.004974;-1.177200;-0.235440;-6.121440
0.369354;0.005005;-1.648080;-0.235440;-8.240400
0.374359;0.005005;-1.177200;-1.059480;-8.004960
0.379333;0.004974;-1.530360;-1.412640;-9.182160
0.384338;0.005005;-1.648080;-1.648080;-9.888480
0.389313;0.004974;-1.648080;-1.765800;-10.123920
0.394318;0.005005;-1.765800;-1.059480;-10.006200
0.399323;0.005005;-1.765800;-0.824040;-9.653040
0.404297;0.004974;-1.883520;-0.353160;-9.417600
0.409302;0.005005;-2.001240;-0.235440;-9.182160
0.414276;0.004974;-1.765800;-0.353160;-8.829000
0.419281;0.005005;-1.765800;-0.706320;-8.122680
0.424255;0.004974;-1.765800;-0.706320;-7.534080
0.429260;0.005005;-1.883520;-1.059480;-7.063200
0.434235;0.004974;-1.883520;-1.059480;-7.416360
0.439240;0.005005;-1.883520;-1.294920;-7.534080
0.444244;0.005005;-2.001240;-1.294920;-7.534080
0.449219;0.004974;-1.883520;-1.059480;-7.769520
0.454224;0.005005;-1.883520;-1.059480;-8.122680
0.459198;0.004974;-1.883520;-0.824040;-8.004960
0.464203;0.005005;-1.883520;-1.059480;-8.358120
0.469177;0.004974;-1.883520;-1.177200;-8.358120
0.474182;0.005005;-1.883520;-1.059480;-8.829000
0.479187;0.005005;-1.883520;-1.177200;-9.299880
0.484161;0.004974;-1.765800;-1.530360;-9.417600
0.489166;0.005005;-1.648080;-1.648080;-9.770760
0.494141;0.004974;-1.765800;-1.765800;-9.770760
0.499146;0.005005;-1.648080;-1.530360;-10.006200
0.504120;0.004974;-1.648080;-1.412640;-10.123920
0.509125;0.005005;-1.648080;-1.648080;-10.241640
0.514099;0.004974;-1.648080;-1.530360;-10.241640
0.519104;0.005005;-1.765800;-1.412640;-10.123920
0.524109;0.005005;-1.765800;-0.941760;-9.888480
0.529083;0.004974;-1.765800;-0.824040;-9.417600
0.534088;0.005005;-1.765800;-1.059480;-9.064440
0.539093;0.005005;-1.648080;-1.294920;-9.299880
0.544067;0.004974;-1.765800;-1.530360;-9.417600
0.549072;0.005005;-1.412640;-1.765800;-9.653040
0.554047;0.004974;-1.294920;-1.765800;-9.535320
0.559052;0.005005;-1.412640;-1.765800;-9.535320
0.564026;0.004974;-1.648080;-1.648080;-9.417600
0.569031;0.005005;-1.530360;-1.648080;-9.182160
0.574005;0.004974;-1.530360;-1.177200;-9.182160
0.579010;0.005005;-1.412640;-1.412640;-9.182160
0.584015;0.005005;-1.648080;-1.530360;-9.064440
0.588989;0.004974;-1.530360;-1.412640;-8.829000
0.593994;0.005005;-1.530360;-1.530360;-8.829000
0.598969;0.004974;-1.530360;-1.530360;-8.946720
0.603973;0.005005;-1.412640;-1.412640;-8.711280
0.608948;0.004974;-1.412640;-1.530360;-8.711280
0.613953;0.005005;-1.530360;-1.648080;-9.064440
0.618927;0.004974;-1.530360;-1.648080;-9.182160
0.623932;0.005005;-1.530360;-1.648080;-9.535320
0.628906;0.004974;-1.530360;-1.530360;-9.653040
0.633911;0.005005;-1.648080;-1.294920;-9.888480
0.638885;0.004974;-1.648080;-0.824040;-10.123920
0.643890;0.005005;-1.765800;-0.824040;-10.123920
0.648895;0.005005;-1.648080;-0.706320;-9.888480
0.653870;0.004974;-1.412640;-0.588600;-10.006200
0.658875;0.005005;-1.177200;-0.353160;-10.006200
0.663849;0.004974;-1.294920;-0.588600;-9.535320
0.668854;0.005005;-1.294920;-0.470880;-9.182160
0.673828;0.004974;-1.294920;-0.470880;-9.299880
0.678833;0.005005;-1.412640;-0.470880;-9.182160
0.683807;0.004974;-1.294920;-0.470880;-9.417600
0.688812;0.005005;-1.177200;-0.706320;-9.770760
0.693817;0.005005;-1.059480;-1.059480;-9.888480
0.698792;0.004974;-0.941760;-1.177200;-9.535320
0.703796;0.005005;-1.177200;-1.059480;-9.299880
0.708771;0.004974;-1.294920;-1.059480;-9.299880
0.713776;0.005005;-1.059480;-0.588600;-9.299880
0.718750;0.004974;-0.706320;-0.470880;-9.770760
0.723755;0.005005;-0.824040;-0.588600;-9.535320
0.728729;0.004974;-0.824040;-0.470880;-9.535320
0.733734;0.005005;-0.941760;-0.353160;-9.770760
0.738708;0.004974;-1.059480;0.000000;-10.006200
0.743713;0.005005;-0.824040;0.000000;-10.123920
0.748688;0.004974;-0.588600;0.000000;-10.241640
0.753693;0.005005;-0.941760;-0.117720;-9.888480
0.758698;0.005005;-1.059480;0.000000;-10.241640
0.763672;0.004974;-1.059480;-0.117720;-9.653040
0.768677;0.005005;-0.706320;-0.235440;-9.535320
0.773651;0.004974;-0.824040;-0.235440;-9.299880
0.778656;0.005005;-0.706320;-0.235440;-8.593560
0.783630;0.004974;-0.941760;-0.117720;-8.122680
0.788635;0.005005;-1.059480;0.117720;-8.004960
0.793610;0.004974;-0.588600;0.000000;-8.358120
0.798615;0.005005;-0.824040;-0.235440;-8.593560
0.803589;0.004974;-0.706320;-0.824040;-8.593560
0.808594;0.005005;-1.177200;-0.470880;-8.711280
0.813568;0.004974;-0.706320;-0.588600;-9.064440
0.818573;0.005005;-0.706320;-0.706320;-8.946720
0.823547;0.004974;-0.706320;-0.706320;-8.829000
0.828552;0.005005;-0.824040;-0.588600;-8.711280
0.833527;0.004974;-0.824040;-0.117720;-8.711280
0.838531;0.005005;-0.706320;0.235440;-9.064440
0.843506;0.004974;-0.470880;0.235440;-9.182160
0.848511;0.005005;-0.353160;0.235440;-9.182160
0.853485;0.004974;-0.117720;0.000000;-9.535320
0.858490;0.005005;-0.117720;0.117720;-9.770760
0.863464;0.004974;-0.588600;0.353160;-9.653040
0.868469;0.005005;-0.353160;0.353160;-9.770760
0.873444;0.004974;-0.470880;0.235440;-9.417600
0.878448;0.005005;-0.470880;0.117720;-9.064440
0.883423;0.004974;-0.235440;-0.117720;-9.182160
0.888428;0.005005;-0.117720;0.000000;-9.064440
0.893402;0.004974;0.000000;0.000000;-9.064440
0.898407;0.005005;0.000000;-0.470880;-8.711280
0.903381;0.004974;0.000000;-0.588600;-8.711280
0.908386;0.005005;0.000000;-0.353160;-8.358120
0.913361;0.004974;-0.117720;-0.353160;-8.240400
0.918365;0.005005;-0.117720;-0.117720;-8.240400
0.923340;0.004974;-0.117720;0.000000;-8.122680
0.928345;0.005005;-0.117720;0.117720;-8.122680
0.933319;0.004974;-0.353160;0.588600;-8.475840
0.938324;0.005005;-0.117720;1.294920;-8.475840
0.943298;0.004974;-0.117720;1.059480;-8.475840
0.948303;0.005005;0.000000;0.706320;-8.593560
0.953278;0.004974;0.000000;0.588600;-8.829000
0.958282;0.005005;-0.470880;0.470880;-9.299880
0.963257;0.004974;-0.353160;0.235440;-9.417600
0.968262;0.005005;-0.117720;-0.117720;-9.653040
0.973236;0.004974;0.000000;-0.941760;-9.888480
0.978241;0.005005;-0.117720;-1.294920;-10.123920
0.983215;0.004974;-0.235440;-1.530360;-9.888480
0.988220;0.005005;-0.235440;-1.412640;-10.006200
0.993195;0.004974;-0.353160;-1.412640;-9.535320
0.998199;0.005005;-0.588600;-1.530360;-8.946720
1.003174;0.004974;-0.235440;-1.530360;-8.829000
1.008179;0.005005;-0.470880;-0.941760;-8.711280
1.013153;0.004974;-1.177200;1.530360;-5.768280
1.018158;0.005005;-1.412640;0.117720;-5.768280
1.023132;0.004974;-0.824040;0.824040;-7.180920
1.028137;0.005005;-1.059480;0.470880;-9.064440
1.033142;0.005005;-1.177200;0.000000;-9.653040
1.038116;0.004974;-0.941760;-0.588600;-8.711280
1.043121;0.005005;-0.470880;-0.941760;-9.064440
1.048096;0.004974;-0.470880;-1.412640;-9.535320
1.053101;0.005005;-0.470880;-1.648080;-9.299880
1.058075;0.004974;-0.470880;-1.765800;-9.535320
1.063049;0.004974;-0.706320;-1.765800;-9.653040
1.068054;0.005005;-0.235440;-1.530360;-9.064440
1.073029;0.004974;-0.353160;-1.648080;-10.477080
1.078033;0.005005;-0.588600;-1.765800;-10.947960
1.083008;0.004974;-1.177200;-2.354400;-10.712520
1.088013;0.005005;-1.294920;-1.883520;-11.418840
1.092987;0.004974;-1.177200;-1.177200;-10.712520
1.097992;0.005005;-0.588600;-0.470880;-9.888480
1.102966;0.004974;-0.706320;-0.117720;-9.299880
1.107971;0.005005;-0.824040;0.117720;-10.006200
1.112946;0.004974;-0.470880;0.117720;-9.535320
1.117950;0.005005;0.000000;-0.588600;-8.004960
1.122955;0.005005;0.000000;-1.648080;-5.297400
1.127930;0.004974;8.593560;-4.708800;19.306080
1.132904;0.004974;2.943000;-2.354400;0.824040
1.137909;0.005005;-0.941760;-0.117720;-8.711280
1.142883;0.004974;0.235440;0.117720;-8.358120
1.147888;0.005005;0.353160;-0.706320;-9.182160
1.152893;0.005005;0.235440;0.000000;-10.712520
1.157867;0.004974;0.000000;-0.235440;-10.594800
1.162872;0.005005;0.117720;-1.059480;-10.712520
1.167847;0.004974;0.117720;-1.412640;-10.477080
1.172852;0.005005;0.117720;-1.648080;-9.888480
1.177826;0.004974;0.117720;-1.765800;-10.123920
1.182800;0.004974;0.235440;-1.412640;-10.123920
1.187805;0.005005;0.235440;-1.059480;-9.535320
1.192780;0.004974;1.177200;0.588600;-9.064440
1.197784;0.005005;-1.412640;-0.353160;-10.006200
1.202759;0.004974;-1.412640;-1.294920;-10.712520
1.207764;0.005005;-0.588600;-1.177200;-10.830240
1.212738;0.004974;-1.059480;-1.648080;-8.711280
1.217743;0.005005;-1.412640;-1.765800;-5.886000
1.222717;0.004974;-1.648080;-1.765800;-6.945480
1.227722;0.005005;-1.648080;-1.059480;-8.475840
1.232697;0.004974;-1.530360;-1.412640;-8.593560
1.237701;0.005005;-0.941760;-1.648080;-8.475840
1.242676;0.004974;-1.059480;-1.883520;-8.829000
1.247681;0.005005;-1.059480;-1.883520;-8.240400
1.252655;0.004974;-0.470880;-1.883520;-8.475840
1.257660;0.005005;-0.353160;-1.765800;-9.182160
1.262634;0.004974;-0.588600;-1.765800;-9.888480
1.267639;0.005005;-0.235440;-1.765800;-10.123920
1.272614;0.004974;-0.235440;-1.530360;-10.594800
1.277618;0.005005;-0.353160;-1.530360;-11.065680
1.282593;0.004974;-0.706320;-0.941760;-10.947960
1.287598;0.005005;-0.470880;-0.706320;-10.477080
1.292572;0.004974;-1.059480;-0.941760;-10.123920
1.297577;0.005005;-0.941760;-0.470880;-10.241640
1.302551;0.004974;-0.824040;-0.353160;-9.653040
1.307556;0.005005;-0.470880;-0.353160;-9.182160
1.312531;0.004974;-0.353160;-0.941760;-8.711280
1.317535;0.005005;-0.235440;-1.412640;-8.004960
1.322510;0.004974;0.000000;-1.648080;-8.358120
1.327515;0.005005;-0.117720;-1.883520;-8.829000
1.332489;0.004974;0.000000;-2.118960;-8.829000
1.337494;0.005005;0.000000;-2.118960;-8.475840
1.342468;0.004974;0.000000;-2.001240;-8.475840
1.347473;0.005005;0.117720;-1.765800;-8.240400
1.352448;0.004974;0.000000;-1.530360;-8.240400
1.357452;0.005005;0.000000;-1.648080;-8.475840
1.362427;0.004974;-0.470880;-1.765800;-8.593560
1.367432;0.005005;-0.353160;-1.648080;-8.946720
1.372406;0.004974;-0.588600;-1.765800;-9.299880
1.377411;0.005005;-0.470880;-1.648080;-9.535320
1.382385;0.004974;-0.235440;-1.530360;-9.417600
1.387390;0.005005;-0.117720;-1.294920;-9.653040
1.392365;0.004974;-0.117720;-1.530360;-10.006200
1.397369;0.005005;0.000000;-1.648080;-9.888480
1.402374;0.005005;0.000000;-1.765800;-10.006200
1.407349;0.004974;0.000000;-1.765800;-10.006200
1.412354;0.005005;0.235440;-2.001240;-9.299880
1.417328;0.004974;0.117720;-2.001240;-8.946720
1.422333;0.005005;0.117720;-1.883520;-8.829000
1.427307;0.004974;0.117720;-1.883520;-8.711280
1.432312;0.005005;0.353160;-1.883520;-8.475840
1.437286;0.004974;0.353160;-2.001240;-8.475840
1.442291;0.005005;0.353160;-1.765800;-8.593560
1.447296;0.005005;0.235440;-1.765800;-9.182160
1.452271;0.004974;-0.353160;-1.294920;-9.653040
1.457275;0.005005;0.000000;-0.941760;-9.299880
1.462250;0.004974;-0.941760;-0.941760;-10.006200
1.467255;0.005005;-1.059480;-1.177200;-10.241640
1.472229;0.004974;-0.941760;-1.412640;-10.241640
1.477234;0.005005;-0.941760;-1.530360;-10.241640
1.482208;0.004974;-0.470880;-1.648080;-10.359360
1.487213;0.005005;-0.353160;-1.765800;-10.359360
1.492218;0.005005;-0.235440;-1.765800;-10.006200
1.497192;0.004974;-0.235440;-1.765800;-10.123920
1.502197;0.005005;-0.117720;-1.648080;-10.123920
1.507172;0.004974;0.000000;-1.765800;-9.535320
1.512177;0.005005;0.000000;-1.530360;-9.299880
1.517151;0.004974;0.000000;-1.530360;-9.064440
1.522156;0.005005;0.000000;-1.648080;-9.299880
1.527130;0.004974;0.000000;-1.177200;-8.711280
1.532135;0.005005;0.000000;-1.530360;-8.829000
1.537109;0.004974;-0.941760;-1.648080;-8.829000
1.542114;0.005005;-0.235440;-1.412640;-8.593560
1.547089;0.004974;0.000000;-1.530360;-8.711280
1.552094;0.005005;0.117720;-0.824040;-8.358120
1.557068;0.004974;0.235440;-0.353160;-7.887240
1.562073;0.005005;0.000000;-0.470880;-8.240400
1.567078;0.005005;0.000000;-0.706320;-8.475840
1.572052;0.004974;-0.235440;-1.059480;-8.593560
1.577057;0.005005;-0.353160;-1.059480;-8.475840
1.582031;0.004974;-0.706320;-1.059480;-8.358120
1.587036;0.005005;-0.824040;-1.412640;-8.240400
1.592041;0.005005;-0.706320;-1.648080;-8.358120
1.597015;0.004974;-0.706320;-2.236680;-8.240400
1.602020;0.005005;-0.235440;-2.943000;-8.358120
1.606995;0.004974;-0.353160;-3.296160;-8.358120
1.612000;0.005005;-0.235440;-3.767040;-9.064440
1.616974;0.004974;-0.117720;-3.767040;-9.653040
1.621979;0.005005;-0.117720;-2.825280;-9.299880
1.626953;0.004974;-0.470880;-2.472120;-9.064440
1.631958;0.005005;-1.059480;-2.001240;-8.946720
1.636963;0.005005;-1.412640;-1.883520;-9.535320
1.641937;0.004974;-1.530360;-2.001240;-9.770760
1.646942;0.005005;-1.530360;-2.001240;-9.417600
1.651917;0.004974;-1.059480;-2.236680;-9.299880
1.656921;0.005005;-0.706320;-2.472120;-8.829000
1.661896;0.004974;-0.235440;-3.531600;-8.829000
1.666901;0.005005;0.235440;-2.943000;-8.358120
1.671906;0.005005;-0.941760;-3.884760;-8.593560
1.676880;0.004974;-0.235440;-4.473360;-8.475840
1.681885;0.005005;-0.117720;-4.237920;-8.358120
1.686859;0.004974;-0.588600;-4.591080;-8.358120
1.691864;0.005005;-0.941760;-4.473360;-8.358120
1.696838;0.004974;-0.706320;-3.884760;-9.299880
1.701843;0.005005;-1.177200;-3.884760;-9.888480
1.706848;0.005005;-1.530360;-4.002480;-9.888480
1.711823;0.004974;-0.706320;-3.767040;-9.653040
1.716827;0.005005;-0.706320;-4.002480;-9.770760
1.721802;0.004974;-0.588600;-4.002480;-9.653040
1.726807;0.005005;-0.824040;-4.120200;-9.770760
1.731781;0.004974;-0.824040;-4.002480;-9.653040
1.736786;0.005005;-1.059480;-3.767040;-9.299880
1.741760;0.004974;-1.412640;-3.649320;-8.829000
1.746765;0.005005;-1.530360;-3.531600;-8.593560
1.751740;0.004974;-1.294920;-3.178440;-8.711280
1.756744;0.005005;-1.294920;-2.589840;-9.064440
1.761719;0.004974;-1.177200;-2.354400;-8.946720
1.766724;0.005005;-1.294920;-2.472120;-8.946720
1.771698;0.004974;-1.059480;-2.943000;-8.711280
1.776703;0.005005;-1.177200;-3.413880;-8.475840
1.781677;0.004974;-0.588600;-3.296160;-8.475840
1.786682;0.005005;-0.824040;-3.767040;-8.358120
1.791687;0.005005;-0.588600;-4.002480;-8.122680
1.796661;0.004974;-0.235440;-4.120200;-7.769520
1.801666;0.005005;-0.353160;-4.002480;-7.651800
1.806641;0.004974;-0.588600;-4.002480;-7.534080
1.811646;0.005005;-1.177200;-4.473360;-8.004960
1.816620;0.004974;-1.530360;-4.708800;-8.240400
1.821625;0.005005;-1.530360;-4.708800;-8.240400
1.826599;0.004974;-1.530360;-4.826520;-8.004960
1.831604;0.005005;-1.648080;-4.473360;-7.887240
1.836578;0.004974;-1.883520;-4.237920;-8.240400
1.841583;0.005005;-2.236680;-4.120200;-8.358120
1.846558;0.004974;-2.236680;-3.884760;-8.946720
1.851562;0.005005;-2.236680;-2.943000;-8.711280
1.856567;0.005005;-2.001240;-2.472120;-8.358120
1.861542;0.004974;-1.883520;-2.472120;-7.416360
1.866547;0.005005;-1.883520;-2.707560;-7.063200
1.871521;0.004974;-1.883520;-3.296160;-7.298640
1.876526;0.005005;-1.883520;-3.884760;-7.769520
1.881531;0.005005;-1.883520;-4.237920;-7.769520
1.886505;0.004974;-1.765800;-4.120200;-7.887240
1.891510;0.005005;-1.059480;-3.296160;-7.651800
1.896484;0.004974;-1.530360;-3.413880;-7.887240
1.901489;0.005005;-1.648080;-3.178440;-8.122680
1.906464;0.004974;-2.001240;-3.060720;-8.711280
1.911469;0.005005;-2.118960;-3.178440;-8.829000
1.916443;0.004974;-2.589840;-3.060720;-8.946720
1.921448;0.005005;-2.589840;-3.296160;-9.064440
1.926422;0.004974;-2.825280;-3.531600;-9.064440
1.931427;0.005005;-2.707560;-3.884760;-8.711280
1.936432;0.005005;-2.472120;-3.531600;-8.593560
1.941406;0.004974;-2.589840;-3.296160;-8.711280
1.946381;0.004974;-2.707560;-3.178440;-8.475840
1.951385;0.005005;-2.589840;-3.178440;-8.475840
1.956360;0.004974;-2.472120;-3.060720;-8.004960
1.961365;0.005005;-2.472120;-3.296160;-7.887240
1.966339;0.004974;-2.589840;-3.413880;-8.004960
1.971344;0.005005;-2.825280;-3.060720;-8.004960
1.976318;0.004974;-2.472120;-3.060720;-7.534080
1.981323;0.005005;-2.825280;-3.060720;-7.769520
1.986298;0.004974;-2.825280;-3.178440;-7.769520
1.991302;0.005005;-3.178440;-3.413880;-8.122680
1.996277;0.004974;-3.413880;-3.178440;-8.475840
2.001282;0.005005;-3.296160;-3.649320;-8.711280
2.006287;0.005005;-4.002480;-3.178440;-8.711280
2.011261;0.004974;-4.355640;-3.060720;-8.593560
2.016266;0.005005;-3.884760;-2.825280;-8.475840
2.021240;0.004974;-4.002480;-2.472120;-8.593560
2.026245;0.005005;-3.413880;-2.236680;-8.358120
2.031219;0.004974;-3.178440;-2.354400;-7.416360
2.036224;0.005005;-2.943000;-2.943000;-6.945480
2.041229;0.005005;-2.707560;-3.060720;-6.592320
2.046204;0.004974;-2.707560;-3.413880;-6.239160
2.051208;0.005005;-2.589840;-3.531600;-6.003720
2.056183;0.004974;-2.472120;-2.707560;-5.179680
2.061188;0.005005;-2.589840;-2.707560;-4.826520
2.066193;0.005005;-2.707560;-2.707560;-4.826520
2.071167;0.004974;-3.060720;-2.943000;-4.473360
2.076172;0.005005;-3.060720;-2.943000;-4.002480
2.081146;0.004974;-3.178440;-3.178440;-4.237920
2.086151;0.005005;-3.178440;-2.825280;-4.591080
2.091156;0.005005;-3.060720;-3.296160;-4.591080
2.096130;0.004974;-3.178440;-3.884760;-4.826520
2.101135;0.005005;-3.296160;-4.002480;-5.061960
2.106140;0.005005;-3.767040;-4.120200;-5.297400
2.111115;0.004974;-4.237920;-4.237920;-5.179680
2.116119;0.005005;-4.944240;-4.237920;-5.768280
2.121094;0.004974;-5.415120;-4.237920;-5.768280
2.126099;0.005005;-8.004960;-4.120200;-5.297400
2.131073;0.004974;-6.710040;-4.708800;-4.002480
2.136078;0.005005;-6.474600;-4.708800;-3.413880
2.141052;0.004974;-5.650560;-3.413880;-3.413880
2.146057;0.005005;-5.415120;-2.707560;-3.531600
2.151031;0.004974;-4.708800;-3.178440;-3.296160
2.156036;0.005005;-4.591080;-2.943000;-3.649320
2.161011;0.004974;-4.355640;-3.060720;-3.649320
2.166016;0.005005;-5.179680;-3.884760;-3.531600
2.171021;0.005005;-6.003720;-4.120200;-3.296160
2.175995;0.004974;-6.003720;-4.708800;-2.943000
2.181000;0.005005;-6.121440;-5.415120;-2.118960
2.186005;0.005005;-7.063200;-5.532840;-2.118960
2.190979;0.004974;-7.416360;-5.650560;-2.354400
2.195984;0.005005;-7.063200;-5.650560;-2.825280
2.200958;0.004974;-7.651800;-5.886000;-2.472120
2.205963;0.005005;-8.004960;-6.239160;-2.589840
2.210968;0.005005;-7.651800;-6.592320;-2.707560
2.215942;0.004974;-7.651800;-6.710040;-2.118960
2.220947;0.005005;-7.063200;-6.474600;-2.236680
2.225922;0.004974;-7.298640;-6.945480;-2.001240
2.230927;0.005005;-7.534080;-5.179680;-1.765800
2.235901;0.004974;-7.180920;-4.002480;-1.765800
2.240906;0.005005;-6.710040;-3.884760;-1.294920
2.245911;0.005005;-6.592320;-4.826520;-0.353160
2.250885;0.004974;-7.534080;-5.179680;0.588600
2.255890;0.005005;-8.475840;-3.649320;1.412640
2.260864;0.004974;-9.299880;-3.413880;1.648080
2.265869;0.005005;-9.417600;-4.473360;1.883520
2.270844;0.004974;-9.064440;-6.945480;1.294920
2.275848;0.005005;-10.123920;-6.474600;1.530360
2.280853;0.005005;-10.477080;-5.415120;0.941760
2.285828;0.004974;-10.006200;-6.827760;0.235440
2.290833;0.005005;-10.006200;-8.122680;0.353160
2.295807;0.004974;-10.123920;-6.592320;1.177200
2.300812;0.005005;-10.594800;-5.179680;0.706320
2.305786;0.004974;-9.770760;-4.708800;-0.941760
2.310791;0.005005;-9.653040;-1.530360;-0.706320
2.315796;0.005005;-11.772000;-4.473360;2.943000
2.320770;0.004974;-9.653040;-4.355640;6.356880
2.325775;0.005005;-9.535320;-0.353160;6.592320
2.330780;0.005005;-9.770760;-1.648080;4.708800
2.335754;0.004974;-9.417600;-2.354400;4.355640
2.340759;0.005005;-9.299880;-2.472120;4.120200
2.345734;0.004974;-9.299880;-2.472120;3.296160
2.350739;0.005005;-8.829000;-5.179680;2.707560
2.355743;0.005005;-11.418840;-4.473360;4.355640
2.360718;0.004974;-10.594800;-4.473360;6.003720
2.365723;0.005005;-9.653040;-4.002480;5.179680
2.370697;0.004974;-10.006200;-4.708800;6.592320
2.375702;0.005005;-11.065680;-4.591080;6.945480
2.380676;0.004974;-11.065680;-4.237920;6.356880
2.385681;0.005005;-10.712520;-3.060720;6.474600
2.390686;0.005005;-9.653040;-2.472120;4.826520
2.395660;0.004974;-8.946720;-2.236680;3.884760
2.400665;0.005005;-8.829000;-3.060720;3.296160
2.405640;0.004974;-9.417600;-3.767040;3.884760
2.410645;0.005005;-9.770760;-3.296160;3.413880
2.415619;0.004974;-9.299880;-3.178440;2.707560
2.420624;0.005005;-9.064440;-2.472120;2.825280
2.425598;0.004974;-8.711280;-1.648080;3.531600
2.430603;0.005005;-8.475840;-0.824040;4.002480
2.435577;0.004974;-8.593560;-0.235440;3.531600
2.440582;0.005005;-8.829000;-0.824040;3.296160
2.445557;0.004974;-9.064440;-0.353160;3.413880
2.450562;0.005005;-8.829000;-0.353160;4.120200
2.455536;0.004974;-8.475840;-1.059480;4.591080
2.460541;0.005005;-8.593560;-1.412640;4.826520
2.465546;0.005005;-9.064440;-1.648080;4.826520
2.470520;0.004974;-9.417600;-1.883520;4.826520
2.475525;0.005005;-10.006200;-2.707560;5.179680
2.480499;0.004974;-8.829000;-2.118960;4.826520
2.485504;0.005005;-10.241640;-3.060720;5.532840
2.490509;0.005005;-11.183400;-5.297400;6.474600
2.495483;0.004974;-10.712520;-4.591080;5.768280
2.500488;0.005005;-9.888480;-2.943000;4.473360
2.505463;0.004974;-8.240400;-0.706320;3.413880
2.510468;0.005005;-6.592320;0.470880;4.355640
2.515442;0.004974;-6.710040;0.235440;3.767040
2.520447;0.005005;-6.356880;0.588600;3.413880
2.525421;0.004974;-6.710040;0.353160;4.355640
2.530426;0.005005;-6.945480;-0.117720;5.179680
2.535431;0.005005;-8.004960;-0.941760;5.415120
2.540405;0.004974;-8.475840;-0.941760;6.827760
2.545410;0.005005;-9.770760;-1.294920;6.710040
2.550385;0.004974;-10.006200;-1.059480;6.710040
2.555389;0.005005;-10.123920;-0.117720;6.945480
2.560364;0.004974;-9.417600;1.059480;7.180920
2.565369;0.005005;-9.064440;1.648080;6.356880
2.570374;0.005005;-8.004960;2.001240;6.827760
2.575348;0.004974;-7.769520;1.059480;7.416360
2.580353;0.005005;-8.829000;0.588600;7.534080
2.585327;0.004974;-8.475840;0.117720;7.180920
2.590332;0.005005;-9.064440;-0.235440;6.710040
2.595306;0.004974;-8.946720;-0.353160;6.121440
2.600311;0.005005;-8.240400;-0.117720;6.474600
2.605316;0.005005;-7.887240;0.235440;6.239160
2.610291;0.004974;-7.887240;-0.117720;6.827760
2.615295;0.005005;-7.769520;0.000000;6.710040
2.620270;0.004974;-7.887240;0.000000;7.416360
2.625275;0.005005;-7.180920;-1.765800;8.946720
2.630249;0.004974;-7.180920;-0.706320;9.064440
2.635254;0.005005;-6.239160;-1.294920;10.006200
2.640259;0.005005;-6.827760;-1.294920;9.299880
2.645233;0.004974;-7.063200;-1.177200;9.064440
2.650238;0.005005;-7.180920;-0.824040;8.240400
2.655212;0.004974;-7.180920;-0.588600;7.298640
2.660217;0.005005;-6.592320;-0.117720;7.887240
2.665192;0.004974;-5.650560;-0.941760;7.887240
2.670197;0.005005;-5.650560;-0.588600;7.887240
2.675171;0.004974;-5.532840;-0.941760;6.710040
2.680176;0.005005;-5.061960;0.706320;6.239160
2.685150;0.004974;-5.532840;0.235440;6.592320
2.690155;0.005005;-5.297400;0.353160;7.534080
2.695160;0.005005;-4.826520;0.353160;7.534080
2.700134;0.004974;-4.473360;0.588600;7.298640
2.705139;0.005005;-4.826520;1.059480;7.887240
2.710114;0.004974;-5.532840;1.177200;8.358120
2.715118;0.005005;-6.592320;1.059480;8.475840
2.720093;0.004974;-5.061960;0.588600;9.888480
2.725098;0.005005;-3.178440;-0.588600;7.298640
2.730103;0.005005;-2.943000;-1.530360;7.180920
2.735077;0.004974;-2.825280;-2.001240;7.651800
2.740082;0.005005;-2.589840;-1.883520;7.298640
2.745056;0.004974;-2.354400;-2.118960;7.769520
2.750061;0.005005;-2.472120;-2.118960;8.122680
2.755066;0.005005;-2.707560;-2.001240;8.358120
2.760040;0.004974;-3.531600;-1.412640;8.122680
2.765045;0.005005;-3.649320;-1.648080;8.122680
2.770020;0.004974;-3.884760;-1.530360;8.358120
2.775024;0.005005;-4.002480;-1.177200;8.475840
2.779999;0.004974;-4.355640;-1.530360;8.358120
2.785004;0.005005;-4.002480;-1.648080;8.240400
2.790009;0.005005;-4.120200;-1.648080;7.651800
2.794983;0.004974;-4.002480;-1.648080;7.298640
2.799988;0.005005;-3.884760;-1.765800;7.063200
2.804962;0.004974;-3.767040;-1.765800;6.945480
2.809967;0.005005;-3.884760;-1.765800;6.710040
2.814972;0.005005;-4.002480;-1.648080;6.356880
2.819946;0.004974;-4.120200;-1.177200;6.474600
2.824951;0.005005;-4.355640;-0.588600;6.945480
2.829926;0.004974;-4.120200;-0.470880;6.827760
2.834930;0.005005;-4.002480;-1.294920;6.239160
2.839935;0.005005;-4.237920;-1.530360;6.121440
2.844910;0.004974;-4.355640;-1.648080;5.886000
2.849884;0.004974;-4.237920;-1.883520;5.532840
2.854889;0.005005;-4.237920;-1.883520;5.415120
2.859863;0.004974;-4.591080;-2.118960;5.179680
2.864868;0.005005;-4.708800;-2.118960;4.944240
2.869873;0.005005;-4.708800;-2.001240;4.944240
2.874847;0.004974;-5.061960;-1.883520;5.061960
2.879852;0.005005;-5.415120;-1.765800;5.061960
2.884827;0.004974;-5.650560;-1.530360;5.297400
2.889832;0.005005;-5.768280;-1.530360;5.179680
2.894806;0.004974;-5.886000;-1.530360;5.061960
2.899811;0.005005;-6.239160;-1.412640;4.944240
2.904785;0.004974;-6.474600;-1.177200;4.944240
2.909790;0.005005;-6.592320;-0.941760;4.826520
2.914764;0.004974;-6.474600;-0.353160;4.708800
2.919769;0.005005;-6.710040;-0.353160;4.591080
2.924774;0.005005;-7.298640;-0.588600;4.708800
2.929749;0.004974;-7.651800;-0.706320;4.708800
2.934753;0.005005;-7.534080;-0.353160;4.826520
2.939728;0.004974;-7.180920;-0.706320;5.650560
2.944733;0.005005;-7.298640;-1.294920;5.532840
2.949738;0.005005;-7.298640;-2.354400;6.003720
2.954712;0.004974;-6.592320;-2.001240;6.474600
2.959717;0.005005;-7.063200;-1.530360;7.416360
2.964722;0.005005;-7.651800;-1.059480;7.180920
2.969696;0.004974;-8.004960;-0.470880;7.063200
2.974701;0.005005;-8.004960;0.470880;7.063200
2.979675;0.004974;-8.593560;2.001240;5.768280
2.984680;0.005005;-9.299880;2.001240;6.827760
2.989685;0.005005;-8.240400;1.883520;6.945480
2.994659;0.004974;-8.122680;1.883520;7.180920
2.999664;0.005005;-8.475840;1.412640;7.298640
3.004639;0.004974;-8.358120;1.648080;7.887240
3.009644;0.005005;-7.769520;1.530360;8.829000
3.014618;0.004974;-8.122680;2.001240;8.711280
3.019623;0.005005;-8.240400;2.472120;8.829000
3.024628;0.005005;-8.358120;2.236680;8.946720
3.029602;0.004974;-8.004960;2.001240;8.711280
3.034607;0.005005;-8.004960;1.765800;8.946720
3.039581;0.004974;-8.004960;1.294920;9.182160
3.044586;0.005005;-7.887240;1.294920;8.946720
3.049561;0.004974;-8.122680;1.177200;8.946720
3.054565;0.005005;-8.829000;1.412640;9.182160
3.059540;0.004974;-9.182160;1.294920;9.417600
3.064545;0.005005;-9.535320;1.648080;9.653040
3.069550;0.005005;-9.653040;1.765800;10.123920
3.074524;0.004974;-9.535320;2.118960;10.241640
3.079529;0.005005;-9.653040;2.707560;10.830240
3.084503;0.004974;-9.653040;3.178440;10.830240
3.089508;0.005005;-9.182160;3.413880;11.065680
3.094482;0.004974;-9.064440;3.767040;11.183400
3.099487;0.005005;-9.299880;3.531600;10.947960
3.104492;0.005005;-9.299880;3.649320;10.947960
3.109467;0.004974;-8.358120;5.650560;10.241640
3.114471;0.005005;-9.182160;4.237920;11.418840
3.119476;0.005005;-8.004960;4.708800;12.007440
3.124451;0.004974;-8.593560;4.237920;11.065680
3.129456;0.005005;-8.358120;3.767040;10.712520
3.134430;0.004974;-7.534080;2.943000;11.536560
3.139435;0.005005;-7.651800;2.472120;11.536560
3.144409;0.004974;-7.180920;2.354400;11.536560
3.149414;0.005005;-7.063200;2.354400;11.301120
3.154388;0.004974;-7.534080;2.236680;10.947960
3.159393;0.005005;-7.887240;2.118960;10.712520
3.164368;0.004974;-8.122680;2.001240;10.359360
3.169373;0.005005;-8.122680;2.001240;9.770760
3.174347;0.004974;-7.887240;2.001240;9.417600
3.179352;0.005005;-7.887240;1.765800;9.064440
3.184357;0.005005;-7.416360;1.883520;9.064440
3.189331;0.004974;-7.534080;1.765800;9.299880
3.194336;0.005005;-7.534080;2.001240;9.064440
3.199310;0.004974;-7.298640;2.001240;8.829000
3.204315;0.005005;-7.769520;2.472120;8.829000
3.209290;0.004974;-7.769520;3.178440;8.829000
3.214294;0.005005;-7.769520;3.413880;8.711280
3.219269;0.004974;-7.769520;4.120200;8.358120
3.224274;0.005005;-8.475840;4.591080;8.946720
3.229248;0.004974;-9.182160;4.826520;9.182160
3.234253;0.005005;-8.711280;5.179680;8.946720
3.239258;0.005005;-8.711280;5.179680;8.829000
3.244232;0.004974;-8.946720;5.179680;8.593560
3.249237;0.005005;-8.829000;5.061960;8.358120
3.254211;0.004974;-8.946720;5.179680;8.004960
3.259216;0.005005;-9.299880;4.944240;8.004960
3.264191;0.004974;-8.946720;4.355640;8.004960
3.269196;0.005005;-9.064440;3.649320;8.240400
3.274170;0.004974;-8.946720;2.825280;8.240400
3.279175;0.005005;-8.829000;1.530360;8.240400
3.284180;0.005005;-8.829000;0.824040;8.711280
3.289154;0.004974;-8.711280;0.470880;8.593560
3.294159;0.005005;-8.593560;0.117720;8.829000
3.299133;0.004974;-8.358120;0.235440;8.711280
3.304138;0.005005;-8.240400;0.824040;8.593560
3.309113;0.004974;-8.475840;1.765800;8.004960
3.314117;0.005005;-8.946720;1.883520;8.240400
3.319122;0.005005;-8.358120;2.589840;8.122680
3.324097;0.004974;-8.358120;2.943000;8.004960
3.329102;0.005005;-8.593560;3.178440;7.651800
3.334076;0.004974;-9.064440;2.707560;7.298640
3.339081;0.005005;-9.653040;2.707560;6.710040
3.344055;0.004974;-9.888480;2.472120;6.121440
3.349060;0.005005;-10.123920;2.236680;5.650560
3.354034;0.004974;-10.359360;2.118960;5.179680
3.359039;0.005005;-10.123920;2.001240;5.179680
3.364014;0.004974;-10.123920;2.472120;5.297400
3.369019;0.005005;-10.241640;3.060720;5.532840
3.373993;0.004974;-10.123920;3.296160;5.886000
3.378998;0.005005;-10.477080;3.767040;6.003720
3.383972;0.004974;-10.594800;4.355640;5.886000
3.388977;0.005005;-10.594800;4.473360;5.532840
3.393982;0.005005;-10.594800;4.826520;5.179680
3.398956;0.004974;-10.477080;4.826520;5.061960
3.403961;0.005005;-10.477080;4.826520;4.826520
3.408936;0.004974;-10.006200;4.473360;4.473360
3.413940;0.005005;-11.183400;4.944240;3.060720
3.418915;0.004974;-10.712520;4.120200;3.884760
3.423920;0.005005;-10.359360;3.178440;4.237920
3.428894;0.004974;-9.888480;3.531600;4.591080
3.433899;0.005005;-10.477080;3.413880;4.002480
3.438904;0.005005;-10.241640;2.943000;4.355640
3.443878;0.004974;-9.653040;3.413880;4.826520
3.448883;0.005005;-9.535320;3.178440;5.532840
3.453857;0.004974;-9.417600;2.943000;5.415120
3.458862;0.005005;-9.417600;2.472120;5.415120
3.463837;0.004974;-9.535320;2.236680;5.415120
3.468842;0.005005;-9.417600;2.118960;5.415120
3.473816;0.004974;-9.182160;1.059480;5.768280
3.478821;0.005005;-8.829000;0.235440;5.532840
3.483826;0.005005;-8.829000;0.588600;5.650560
3.488800;0.004974;-8.829000;1.765800;5.768280
3.493805;0.005005;-9.064440;2.825280;6.356880
3.498779;0.004974;-8.829000;3.413880;6.827760
3.503784;0.005005;-8.711280;4.473360;6.592320
3.508759;0.004974;-8.946720;5.061960;6.121440
3.513763;0.005005;-8.711280;5.532840;5.415120
3.518738;0.004974;-9.770760;5.415120;3.767040
3.523743;0.005005;-10.006200;5.532840;2.589840
3.528748;0.005005;-9.888480;4.826520;2.001240
3.533722;0.004974;-9.888480;4.944240;1.883520
3.538727;0.005005;-10.123920;4.355640;1.294920
3.543701;0.004974;-10.123920;4.355640;1.294920
3.548706;0.005005;-9.535320;4.944240;1.648080
3.553680;0.004974;-8.711280;6.474600;2.001240
3.558685;0.005005;-9.064440;5.061960;2.472120
3.563690;0.005005;-8.593560;4.708800;3.413880
3.568665;0.004974;-8.475840;5.179680;4.002480
3.573669;0.005005;-8.122680;5.650560;5.297400
3.578644;0.004974;-7.887240;6.121440;6.356880
3.583649;0.005005;-8.711280;5.297400;7.180920
3.588623;0.004974;-8.711280;5.532840;5.768280
3.593628;0.005005;-8.475840;5.532840;5.415120
3.598633;0.005005;-8.593560;5.650560;5.061960
3.603607;0.004974;-8.475840;5.650560;4.944240
3.608612;0.005005;-9.535320;4.944240;3.649320
3.613617;0.005005;-9.064440;4.355640;2.943000
3.618591;0.004974;-8.593560;4.355640;2.589840
3.623596;0.005005;-8.358120;3.884760;2.354400
3.628571;0.004974;-8.004960;3.060720;1.530360
3.633575;0.005005;-7.887240;2.589840;1.294920
3.638580;0.005005;-8.004960;2.354400;1.412640
3.643555;0.004974;-8.240400;2.943000;1.412640
3.648560;0.005005;-7.769520;2.825280;1.412640
3.653564;0.005005;-7.534080;2.354400;1.765800
3.658539;0.004974;-7.416360;3.649320;2.236680
3.663544;0.005005;-7.534080;4.002480;2.118960
3.668518;0.004974;-7.534080;4.944240;2.118960
3.673523;0.005005;-8.004960;4.237920;2.001240
3.678528;0.005005;-8.829000;2.943000;-3.178440
3.683502;0.004974;-8.711280;5.061960;-2.589840
3.688507;0.005005;-8.711280;4.355640;-1.883520
3.693481;0.004974;-7.887240;1.177200;-3.884760
3.698486;0.005005;-8.475840;0.353160;-3.060720
3.703491;0.005005;-9.417600;3.767040;-0.941760
3.708466;0.004974;-9.417600;6.239160;-0.824040
3.713470;0.005005;-8.829000;4.002480;-0.235440
3.718475;0.005005;-8.240400;3.296160;-0.824040
3.723450;0.004974;-8.240400;6.827760;0.117720
3.728455;0.005005;-8.358120;6.121440;0.588600
3.733429;0.004974;-8.004960;6.592320;0.470880
3.738434;0.005005;-6.592320;4.355640;-1.059480
3.743439;0.005005;-6.356880;2.236680;-0.706320
3.748413;0.004974;-6.592320;0.470880;-1.648080
3.753418;0.005005;-7.769520;4.826520;2.118960
3.758423;0.005005;-7.063200;3.531600;1.648080
3.763397;0.004974;-8.004960;7.298640;1.883520
3.768402;0.005005;-9.064440;11.536560;2.589840
3.773376;0.004974;-6.239160;2.118960;-3.767040
3.778381;0.005005;-4.473360;6.003720;3.296160
3.783386;0.005005;-6.356880;4.708800;1.294920
3.788361;0.004974;-6.710040;3.767040;0.470880
3.793365;0.005005;-6.239160;3.060720;-0.941760
3.798370;0.005005;-6.239160;2.354400;-1.294920
3.803345;0.004974;-6.474600;3.060720;-1.648080
3.808350;0.005005;-6.356880;3.767040;-1.765800
3.813324;0.004974;-7.063200;4.708800;-1.765800
3.818329;0.005005;-7.298640;5.532840;-1.765800
3.823303;0.004974;-7.651800;6.356880;-1.765800
3.828308;0.005005;-8.240400;6.592320;-1.765800
3.833313;0.005005;-8.358120;6.356880;-1.294920
3.838287;0.004974;-8.593560;6.356880;-1.177200
3.843292;0.005005;-8.593560;6.003720;-0.706320
3.848267;0.004974;-8.475840;5.650560;-0.588600
3.853271;0.005005;-8.475840;4.708800;-0.353160
3.858276;0.005005;-7.887240;4.355640;-0.117720
3.863251;0.004974;-7.534080;3.767040;0.353160
3.868256;0.005005;-7.416360;3.531600;0.941760
3.873230;0.004974;-7.180920;3.531600;1.412640
3.878235;0.005005;-6.945480;4.473360;1.765800
3.883240;0.005005;-6.945480;5.061960;1.883520
3.888214;0.004974;-6.945480;5.415120;2.001240
3.893219;0.005005;-7.769520;7.416360;2.001240
3.898193;0.004974;-8.358120;8.358120;0.941760
3.903198;0.005005;-8.004960;8.004960;0.353160
3.908203;0.005005;-7.534080;6.239160;-0.117720
3.913177;0.004974;-8.240400;7.769520;0.824040
3.918182;0.005005;-7.651800;7.063200;0.117720
3.923187;0.005005;-6.710040;6.356880;0.235440
3.928162;0.004974;-7.298640;6.003720;0.117720
3.933167;0.005005;-7.769520;5.650560;0.588600
3.938171;0.005005;-7.651800;5.532840;0.941760
3.943146;0.004974;-7.416360;5.886000;1.530360
3.948151;0.005005;-7.298640;6.356880;1.530360
3.953125;0.004974;-7.416360;5.415120;0.941760
3.958130;0.005005;-6.945480;4.591080;1.294920
3.963104;0.004974;-7.769520;7.063200;0.470880
3.968109;0.005005;-8.122680;7.063200;0.470880
3.973083;0.004974;-8.593560;7.651800;0.824040
3.978088;0.005005;-8.593560;8.358120;0.941760
3.983093;0.005005;-8.593560;7.416360;1.177200
3.988068;0.004974;-8.475840;7.416360;1.530360
3.993073;0.005005;-8.829000;7.416360;1.412640
3.998047;0.004974;-8.829000;6.710040;1.412640
4.003052;0.005005;-8.829000;6.239160;1.294920
4.008057;0.005005;-8.593560;5.886000;1.412640
4.013031;0.004974;-8.358120;5.532840;1.648080
4.018036;0.005005;-8.240400;5.886000;1.648080
4.023010;0.004974;-8.240400;5.768280;1.059480
4.028015;0.005005;-8.240400;5.768280;0.706320
4.033020;0.005005;-8.004960;6.474600;0.941760
4.037994;0.004974;-8.122680;5.650560;0.941760
4.042999;0.005005;-8.240400;5.532840;0.588600
4.047974;0.004974;-8.358120;5.768280;0.353160
4.052979;0.005005;-8.711280;5.768280;0.588600
4.057953;0.004974;-8.711280;4.120200;1.294920
4.062958;0.005005;-7.534080;-6.003720;2.001240
4.067963;0.005005;-8.946720;4.237920;-2.354400
4.072937;0.004974;-10.830240;5.179680;-1.059480
4.077942;0.005005;-9.770760;4.826520;-0.353160
4.082947;0.005005;-9.653040;5.297400;0.824040
4.087921;0.004974;-9.182160;6.121440;0.470880
4.092926;0.005005;-8.829000;4.826520;1.177200
4.097900;0.004974;-8.829000;4.355640;0.588600
4.102905;0.005005;-8.946720;5.297400;0.000000
4.107910;0.005005;-8.711280;6.003720;-0.470880
4.112885;0.004974;-9.535320;4.355640;0.706320
4.117889;0.005005;-8.946720;4.944240;0.706320
4.122864;0.004974;-9.299880;5.297400;0.706320
4.127869;0.005005;-9.417600;5.179680;1.177200
4.132843;0.004974;-8.593560;5.768280;0.941760
4.137848;0.005005;-8.475840;6.003720;1.059480
4.142853;0.005005;-9.064440;8.004960;1.648080
4.147827;0.004974;-8.711280;7.298640;1.530360
4.152832;0.005005;-8.240400;7.887240;1.648080
4.157837;0.005005;-8.122680;6.945480;2.001240
4.162811;0.004974;-8.004960;6.592320;2.001240
4.167816;0.005005;-8.004960;7.416360;2.001240
4.172791;0.004974;-8.004960;6.592320;2.001240
4.177795;0.005005;-7.651800;5.532840;2.472120
4.182770;0.004974;-7.769520;4.473360;2.118960
4.187775;0.005005;-8.240400;4.473360;2.001240
4.192749;0.004974;-8.358120;4.826520;2.118960
4.197754;0.005005;-8.358120;5.179680;2.354400
4.202728;0.004974;-8.240400;5.532840;1.883520
4.207733;0.005005;-7.887240;6.356880;1.294920
4.212738;0.005005;-8.004960;7.063200;0.824040
4.217712;0.004974;-8.004960;4.826520;5.061960
4.222717;0.005005;-8.593560;7.063200;2.236680
4.227692;0.004974;-8.711280;5.886000;2.472120
4.232697;0.005005;-8.829000;4.944240;2.354400
4.237701;0.005005;-7.887240;4.002480;4.826520
4.242676;0.004974;-8.475840;5.061960;2.825280
4.247681;0.005005;-8.711280;5.179680;1.530360
4.252686;0.005005;-8.711280;4.826520;1.177200
4.257660;0.004974;-8.829000;4.355640;0.588600
4.262665;0.005005;-8.946720;4.120200;0.470880
4.267639;0.004974;-9.299880;4.355640;0.117720
4.272644;0.005005;-9.299880;4.237920;-0.117720
4.277649;0.005005;-8.711280;4.002480;0.117720
4.282623;0.004974;-8.946720;4.708800;0.235440
4.287628;0.005005;-9.182160;5.061960;0.588600
4.292603;0.004974;-9.064440;5.297400;2.001240
4.297607;0.005005;-8.946720;6.003720;2.354400
4.302582;0.004974;-8.829000;6.239160;2.236680
4.307587;0.005005;-9.064440;6.592320;2.236680
4.312561;0.004974;-9.182160;6.356880;1.059480
4.317566;0.005005;-9.299880;6.003720;0.117720
4.322540;0.004974;-8.946720;5.650560;-0.941760
4.327545;0.005005;-9.299880;6.003720;-1.412640
4.332520;0.004974;-9.064440;5.532840;-1.412640
4.337494;0.004974;-8.946720;4.944240;-0.706320
4.342499;0.005005;-8.475840;4.473360;-0.235440
4.347504;0.005005;-8.593560;4.002480;0.000000
4.352478;0.004974;-8.358120;4.120200;0.235440
4.357483;0.005005;-8.593560;4.826520;0.353160
4.362457;0.004974;-8.475840;5.179680;0.706320
4.367462;0.005005;-8.946720;5.297400;0.824040
4.372437;0.004974;-8.946720;5.532840;1.059480
4.377441;0.005005;-9.064440;5.532840;1.059480
4.382416;0.004974;-9.064440;5.650560;0.588600
4.387421;0.005005;-8.829000;5.650560;1.177200
4.392395;0.004974;-8.946720;5.650560;1.177200
4.397400;0.005005;-9.064440;5.650560;1.294920
4.402374;0.004974;-9.417600;5.532840;0.941760
4.407349;0.004974;-9.535320;5.297400;1.177200
4.412354;0.005005;-9.653040;4.591080;1.530360
4.417328;0.004974;-9.653040;4.237920;1.294920
4.422333;0.005005;-9.417600;4.120200;0.941760
4.427307;0.004974;-9.417600;3.884760;0.941760
4.432312;0.005005;-9.535320;4.002480;1.059480
4.437286;0.004974;-9.535320;4.002480;1.177200
4.442291;0.005005;-9.417600;4.237920;1.412640
4.447266;0.004974;-9.417600;4.708800;1.530360
4.452271;0.005005;-9.417600;5.179680;1.412640
4.457275;0.005005;-9.299880;5.415120;1.294920
4.462250;0.004974;-9.182160;5.297400;1.059480
4.467255;0.005005;-9.299880;5.297400;1.059480
4.472229;0.004974;-9.182160;5.061960;1.412640
4.477234;0.005005;-8.946720;4.944240;1.412640
4.482239;0.005005;-8.711280;4.708800;1.648080
4.487213;0.004974;-9.064440;5.415120;1.530360
4.492218;0.005005;-8.593560;4.002480;0.588600
4.497192;0.004974;-8.829000;4.826520;-0.117720
4.502197;0.005005;-8.946720;5.179680;0.353160
4.507172;0.004974;-8.593560;5.886000;-0.706320
4.512177;0.005005;-8.711280;5.532840;-0.353160
4.517151;0.004974;-8.475840;4.944240;0.588600
4.522156;0.005005;-8.475840;4.355640;0.941760
4.527130;0.004974;-8.593560;4.473360;0.706320
4.532135;0.005005;-8.593560;4.473360;0.706320
4.537109;0.004974;-8.475840;4.591080;0.470880
4.542114;0.005005;-8.475840;4.826520;0.588600
4.547089;0.004974;-8.475840;5.179680;1.059480
4.552094;0.005005;-8.475840;5.415120;1.294920
4.557068;0.004974;-8.593560;5.532840;1.530360
4.562073;0.005005;-8.593560;5.650560;1.765800
4.567047;0.004974;-8.358120;5.768280;1.765800
4.572052;0.005005;-8.358120;6.239160;1.765800
4.577026;0.004974;-8.475840;6.356880;1.883520
4.582031;0.005005;-8.593560;6.474600;1.883520
4.587036;0.005005;-8.004960;6.003720;3.413880
4.592010;0.004974;-6.945480;2.943000;5.768280
4.597015;0.005005;-7.651800;2.589840;2.825280
4.601990;0.004974;-8.358120;2.707560;0.470880
4.606995;0.005005;-9.182160;3.531600;-1.412640
4.611969;0.004974;-9.417600;3.649320;-2.589840
4.616974;0.005005;-9.770760;4.237920;-2.472120
4.621948;0.004974;-9.653040;5.886000;-2.001240
4.626953;0.005005;-9.299880;6.474600;-1.412640
4.631927;0.004974;-8.946720;6.592320;-0.706320
4.636932;0.005005;-8.475840;5.768280;0.706320
4.641907;0.004974;-8.122680;5.415120;1.294920
4.646912;0.005005;-8.358120;5.415120;1.412640
4.651886;0.004974;-8.593560;5.532840;1.648080
4.656891;0.005005;-8.475840;5.650560;1.765800
4.661865;0.004974;-8.475840;5.650560;1.412640
4.666870;0.005005;-8.711280;5.415120;1.294920
4.671844;0.004974;-8.711280;4.591080;1.412640
4.676849;0.005005;-8.711280;4.120200;1.530360
4.681824;0.004974;-8.829000;3.767040;1.648080
4.686829;0.005005;-8.593560;3.649320;1.530360
4.691803;0.004974;-8.946720;4.120200;1.765800
4.696808;0.005005;-9.417600;4.826520;1.765800
4.701782;0.004974;-9.417600;5.532840;1.765800
4.706787;0.005005;-9.299880;5.886000;2.118960
4.711761;0.004974;-9.535320;6.121440;1.412640
4.716766;0.005005;-9.770760;6.003720;1.294920
4.721741;0.004974;-9.417600;5.768280;1.294920
4.726746;0.005005;-9.888480;5.886000;1.530360
4.731720;0.004974;-9.653040;5.179680;1.294920
4.736725;0.005005;-9.064440;5.415120;1.412640
4.741699;0.004974;-9.182160;5.532840;1.177200
4.746704;0.005005;-9.299880;5.415120;0.706320
4.751678;0.004974;-8.946720;4.708800;1.177200
4.756683;0.005005;-9.064440;4.355640;0.706320
4.761658;0.004974;-9.064440;4.473360;0.588600
4.766663;0.005005;-8.711280;4.708800;1.059480
4.771637;0.004974;-8.946720;4.944240;1.059480
4.776642;0.005005;-9.182160;5.297400;1.294920
4.781616;0.004974;-9.064440;5.415120;1.177200
4.786591;0.004974;-8.829000;5.297400;1.059480
4.791595;0.005005;-8.946720;5.415120;1.294920
4.796570;0.004974;-9.182160;6.239160;1.765800
4.801575;0.005005;-8.711280;5.886000;2.236680
4.806580;0.005005;-8.829000;5.768280;1.412640
4.811554;0.004974;-8.946720;5.532840;1.765800
4.816559;0.005005;-8.829000;5.415120;1.294920
4.821533;0.004974;-8.711280;4.708800;1.059480
4.826538;0.005005;-8.593560;4.944240;0.588600
4.831543;0.005005;-8.711280;5.061960;0.353160
4.836517;0.004974;-8.829000;5.061960;0.470880
4.841522;0.005005;-8.593560;5.297400;0.588600
4.846497;0.004974;-8.475840;5.297400;0.117720
4.851501;0.005005;-8.946720;5.179680;-0.235440
4.856476;0.004974;-8.829000;5.179680;-0.470880
4.861481;0.005005;-9.064440;5.061960;-0.353160
4.866486;0.005005;-9.182160;4.473360;0.117720
4.871460;0.004974;-8.946720;4.237920;0.235440
4.876465;0.005005;-8.946720;4.120200;0.000000
4.881439;0.004974;-8.946720;4.120200;0.470880
4.886444;0.005005;-8.946720;4.237920;1.059480
4.891418;0.004974;-8.946720;4.708800;1.059480
4.896423;0.005005;-9.182160;4.708800;1.059480
4.901398;0.004974;-9.417600;5.061960;1.059480
4.906403;0.005005;-9.417600;5.297400;0.941760
4.911377;0.004974;-9.064440;5.297400;1.177200
4.916382;0.005005;-9.064440;5.415120;0.706320
4.921356;0.004974;-9.417600;5.532840;0.470880
4.926361;0.005005;-9.064440;4.944240;0.117720
4.931366;0.005005;-9.064440;5.179680;0.235440
4.936340;0.004974;-8.711280;5.297400;0.117720
4.941345;0.005005;-8.829000;5.415120;0.353160
4.946320;0.004974;-8.946720;5.650560;0.235440
4.951324;0.005005;-9.182160;5.650560;0.000000
4.956299;0.004974;-9.299880;5.650560;0.117720
4.961304;0.005005;-9.182160;5.532840;0.235440
4.966278;0.004974;-9.064440;5.650560;-0.235440
4.971283;0.005005;-8.829000;5.179680;-0.706320
4.976257;0.004974;-8.711280;4.826520;-0.824040
4.981262;0.005005;-8.829000;4.237920;-0.235440
4.986267;0.005005;-6.003720;3.884760;-3.178440
4.991241;0.004974;-8.711280;4.237920;-1.294920
4.996246;0.005005;-8.829000;5.532840;0.706320
5.001221;0.004974;-9.417600;8.358120;0.353160
5.006195;0.004974;-9.770760;9.535320;0.706320
5.011200;0.005005;-9.535320;6.945480;0.941760
5.016174;0.004974;-8.593560;5.061960;0.353160
5.021179;0.005005;-7.769520;4.355640;0.235440
5.026184;0.005005;-7.887240;4.355640;-0.117720
5.031158;0.004974;-8.004960;4.002480;-0.470880
5.036163;0.005005;-8.122680;3.413880;-0.353160
5.041138;0.004974;-8.122680;3.649320;-0.588600
5.046143;0.005005;-8.358120;3.531600;-0.470880
5.051117;0.004974;-8.358120;4.002480;-0.588600
5.056122;0.005005;-8.475840;3.178440;-0.235440
5.061096;0.004974;-8.593560;4.237920;-0.941760
5.066101;0.005005;-8.593560;4.355640;-0.588600
5.071075;0.004974;-8.711280;5.179680;-3.413880
5.076080;0.005005;-8.593560;5.415120;-1.412640
5.081055;0.004974;-8.593560;5.179680;-1.412640
5.086060;0.005005;-8.711280;5.297400;-1.648080
5.091064;0.005005;-8.711280;5.532840;-2.001240
5.096039;0.004974;-8.593560;5.179680;-3.884760
5.101044;0.005005;-6.239160;4.708800;1.530360
5.106018;0.004974;-7.063200;4.826520;2.472120
5.111023;0.005005;-7.887240;5.650560;2.118960
5.115997;0.004974;-7.887240;5.886000;1.412640
5.121002;0.005005;-8.358120;5.768280;1.530360
5.125977;0.004974;-9.535320;6.592320;-0.117720
5.130981;0.005005;-9.064440;6.239160;0.824040
5.135956;0.004974;-7.769520;5.179680;1.648080
5.140961;0.005005;-8.122680;4.826520;1.059480
5.145935;0.004974;-9.653040;5.179680;-0.588600
5.150940;0.005005;-9.417600;4.591080;0.117720
5.155914;0.004974;-9.770760;4.591080;-0.588600
5.160919;0.005005;-9.770760;4.944240;-0.706320
5.165894;0.004974;-9.888480;5.179680;-0.235440
5.170898;0.005005;-10.594800;5.768280;-0.235440
5.175873;0.004974;-10.359360;5.886000;0.470880
5.180878;0.005005;-10.006200;5.768280;1.177200
5.185852;0.004974;-10.006200;5.650560;1.648080
5.190857;0.005005;-10.006200;5.650560;1.530360
5.195831;0.004974;-10.006200;4.708800;1.883520
5.200836;0.005005;-8.711280;3.767040;2.354400
5.205841;0.005005;-9.653040;4.944240;1.059480
5.210815;0.004974;-9.299880;2.825280;1.530360
5.215820;0.005005;-9.182160;2.707560;1.059480
5.220825;0.005005;-9.653040;2.943000;-0.588600
5.225800;0.004974;-9.888480;3.531600;-2.354400
5.230804;0.005005;-9.182160;2.472120;-1.883520
5.235779;0.004974;-9.770760;2.236680;-0.706320
5.240784;0.005005;-8.829000;1.765800;0.824040
5.245789;0.005005;-9.064440;4.002480;0.470880
5.250763;0.004974;-10.359360;7.180920;0.706320
5.255768;0.005005;-10.712520;8.122680;-0.353160
5.260742;0.004974;-10.241640;7.769520;-1.059480
5.265747;0.005005;-10.123920;7.416360;-0.353160
5.270721;0.004974;-10.477080;4.355640;2.118960
5.275726;0.005005;-12.007440;5.886000;0.470880
5.280731;0.005005;-10.712520;5.415120;-0.470880
5.285706;0.004974;-10.594800;4.944240;-1.177200
5.290710;0.005005;-9.653040;4.002480;-1.177200
5.295685;0.004974;-9.535320;3.178440;-1.530360
5.300690;0.005005;-10.830240;4.120200;-1.648080
5.305695;0.005005;-9.064440;6.121440;-3.178440
5.310669;0.004974;-9.064440;4.944240;-2.589840
5.315643;0.004974;-8.475840;3.884760;-2.472120
5.320648;0.005005;-8.593560;4.591080;-2.589840
5.325623;0.004974;-9.182160;4.473360;-2.001240
5.330627;0.005005;-8.240400;3.649320;-0.941760
5.335602;0.004974;-8.358120;2.943000;-1.059480
5.340607;0.005005;-9.299880;6.474600;-1.883520
5.345581;0.004974;-8.593560;7.063200;-1.883520
5.350586;0.005005;-8.004960;6.710040;-1.648080
5.355560;0.004974;-8.004960;5.886000;-1.294920
5.360565;0.005005;-7.534080;6.356880;-1.412640
5.365540;0.004974;-7.180920;4.473360;-1.294920
5.370544;0.005005;-6.592320;3.413880;-1.412640
5.375519;0.004974;-9.770760;5.061960;-1.059480
5.380524;0.005005;-8.358120;5.179680;-1.059480
5.385498;0.004974;-8.593560;4.591080;-1.294920
5.390503;0.005005;-8.829000;4.355640;-1.648080
5.395477;0.004974;-8.946720;4.237920;-1.765800
5.400482;0.005005;-10.006200;6.003720;-0.235440
5.405457;0.004974;-8.946720;4.237920;-0.706320
5.410461;0.005005;-9.299880;4.944240;-0.706320
5.415466;0.005005;-9.299880;5.297400;-0.470880
5.420441;0.004974;-9.770760;5.415120;0.353160
5.425415;0.004974;-9.653040;3.531600;0.941760
5.430420;0.005005;-9.182160;3.884760;1.648080
5.435394;0.004974;-9.299880;3.413880;1.765800
5.440399;0.005005;-9.770760;3.767040;1.883520
5.445374;0.004974;-9.770760;3.060720;1.883520
5.450378;0.005005;-10.594800;2.589840;1.412640
5.455383;0.005005;-10.712520;2.707560;0.706320
5.460358;0.004974;-10.830240;2.707560;0.235440
5.465363;0.005005;-11.418840;2.943000;0.353160
5.470337;0.004974;-11.772000;2.943000;0.117720
5.475342;0.005005;-11.889720;3.178440;-0.117720
5.480316;0.004974;-12.125160;3.178440;0.235440
5.485321;0.005005;-12.242880;3.649320;0.353160
5.490295;0.004974;-11.889720;4.002480;1.177200
5.495300;0.005005;-11.418840;3.296160;1.530360
5.500305;0.005005;-11.301120;3.413880;1.294920
5.505280;0.004974;-6.710040;6.827760;4.120200
5.510284;0.005005;-7.416360;4.355640;2.943000
5.515259;0.004974;-8.593560;3.767040;1.530360
5.520264;0.005005;-9.770760;3.060720;0.706320
5.525238;0.004974;-8.122680;3.178440;0.470880
5.530243;0.005005;-8.358120;3.178440;0.353160
5.535248;0.005005;3.296160;-5.768280;2.589840
5.540222;0.004974;-5.061960;-0.824040;0.941760
5.545227;0.005005;-7.534080;0.824040;0.000000
5.550201;0.004974;-8.946720;2.354400;0.353160
5.555206;0.005005;-9.888480;3.060720;0.706320
5.560181;0.004974;-10.477080;3.649320;0.941760
5.565186;0.005005;-10.712520;3.767040;1.412640
5.570160;0.004974;-10.830240;4.002480;1.530360
5.575165;0.005005;-10.594800;3.767040;1.177200
5.580139;0.004974;-9.888480;3.413880;0.706320
5.585175;0.005035;-9.182160;3.060720;0.353160
5.590149;0.004974;-8.829000;3.060720;-0.117720
5.595123;0.004974;-8.711280;2.707560;-0.353160
5.600128;0.005005;-8.593560;2.472120;-0.588600
5.605103;0.004974;-8.711280;2.943000;-0.588600
5.610107;0.005005;-8.711280;2.472120;-1.765800
5.615082;0.004974;-3.296160;0.117720;6.474600
5.620087;0.005005;-9.417600;2.589840;1.648080
5.625061;0.004974;-10.241640;2.943000;0.588600
5.630035;0.004974;-10.123920;3.060720;-1.883520
5.635040;0.005005;-10.712520;3.649320;-1.412640
5.640015;0.004974;-14.361840;3.767040;6.710040
5.645020;0.005005;-13.184640;5.650560;4.944240
5.649994;0.004974;-11.654280;3.884760;0.588600
5.654999;0.005005;-12.125160;5.415120;1.883520
5.659973;0.004974;-11.536560;2.825280;-2.118960
5.664978;0.005005;-10.594800;3.413880;-0.117720
5.669952;0.004974;-9.888480;4.120200;1.059480
5.674957;0.005005;-9.770760;3.178440;0.588600
5.679932;0.004974;-8.829000;3.178440;-2.472120
5.684937;0.005005;-8.711280;3.531600;-0.941760
5.689911;0.004974;-8.946720;2.707560;-0.353160
5.694916;0.005005;-8.829000;2.354400;-0.353160
5.699890;0.004974;-9.064440;2.707560;-0.235440
5.704895;0.005005;-9.299880;2.943000;-0.353160
5.709869;0.004974;-9.770760;3.296160;-0.588600
5.714874;0.005005;-10.006200;3.649320;-0.824040
5.719849;0.004974;-12.360600;1.059480;-3.767040
5.724854;0.005005;-11.889720;2.825280;-1.648080
5.729828;0.004974;-11.418840;3.649320;-0.470880
5.734833;0.005005;-10.006200;4.708800;-0.235440
5.739807;0.004974;-11.536560;4.237920;2.707560
5.744812;0.005005;-10.123920;3.296160;1.530360
5.749817;0.005005;-9.770760;3.060720;0.706320
5.754791;0.004974;-10.947960;2.472120;-0.941760
5.759766;0.004974;-10.712520;2.472120;-0.941760
5.764771;0.005005;-10.241640;2.589840;-0.706320
5.769775;0.005005;-11.183400;2.589840;-0.588600
5.774750;0.004974;-10.712520;2.825280;-0.353160
5.779755;0.005005;-10.947960;3.413880;-0.470880
5.784729;0.004974;0.824040;8.946720;1.177200
5.789734;0.005005;-7.416360;6.592320;0.235440
5.794708;0.004974;-9.299880;4.708800;-0.588600
5.799713;0.005005;-9.299880;4.120200;-0.353160
5.804688;0.004974;-11.536560;3.649320;2.001240
5.809692;0.005005;-10.712520;4.002480;2.118960
5.814667;0.004974;-10.006200;3.531600;0.941760
5.819672;0.005005;-8.829000;2.472120;0.706320
5.824677;0.005005;-10.594800;1.648080;-0.824040
5.829651;0.004974;-10.123920;1.412640;0.117720
5.834656;0.005005;-11.301120;2.825280;1.412640
5.839630;0.004974;-9.064440;2.354400;0.117720
5.844635;0.005005;-8.475840;2.589840;0.235440
5.849609;0.004974;-23.661720;6.945480;5.768280
5.854614;0.005005;-14.126400;4.591080;1.530360
5.859619;0.005005;-10.477080;3.767040;0.117720
5.864594;0.004974;-10.359360;4.473360;0.235440
5.869598;0.005005;-12.478320;4.708800;0.117720
5.874573;0.004974;-13.890960;4.120200;1.059480
5.879578;0.005005;-13.420080;3.413880;1.530360
5.884552;0.004974;-13.066920;3.296160;0.941760
5.889557;0.005005;-11.654280;8.593560;0.000000
5.894531;0.004974;-10.712520;6.945480;-0.235440
5.899536;0.005005;-10.830240;4.473360;0.824040
5.904510;0.004974;-22.013640;-6.474600;10.947960
5.909515;0.005005;-12.007440;-0.588600;4.002480
5.914520;0.005005;-9.417600;1.765800;1.530360
5.919495;0.004974;-9.770760;5.415120;0.824040
5.924469;0.004974;-9.653040;1.765800;0.706320
5.929474;0.005005;-9.770760;-0.470880;0.353160
5.934448;0.004974;-9.417600;-1.530360;1.412640
5.939453;0.005005;-10.359360;-0.470880;0.470880
5.944427;0.004974;-10.241640;0.000000;0.706320
5.949432;0.005005;-10.477080;1.177200;0.941760
5.954437;0.005005;-10.359360;1.648080;1.412640
5.959412;0.004974;-10.712520;2.589840;1.648080
5.964417;0.005005;-10.594800;3.178440;1.530360
5.969391;0.004974;-10.241640;2.825280;1.765800
5.974396;0.005005;-9.888480;3.413880;0.941760
5.979370;0.004974;-9.888480;2.472120;1.883520
5.984375;0.005005;-10.359360;2.472120;1.177200
5.989349;0.004974;-9.770760;2.707560;0.470880
5.994354;0.005005;-9.182160;3.296160;-0.470880
5.999329;0.004974;-9.064440;2.707560;-0.235440
6.004333;0.005005;-10.359360;4.355640;-1.648080
6.009308;0.004974;-11.301120;3.649320;-3.531600
6.014313;0.005005;-10.006200;2.943000;-0.824040
6.019287;0.004974;-10.123920;2.825280;0.353160
6.024292;0.005005;-9.535320;2.707560;-0.353160
6.029266;0.004974;-9.064440;3.296160;-0.824040
6.034271;0.005005;-9.182160;3.178440;-0.588600
6.039246;0.004974;-10.594800;2.943000;1.765800
6.044250;0.005005;-10.359360;2.589840;1.883520
6.049255;0.005005;-10.359360;2.472120;1.177200
6.054230;0.004974;-10.241640;2.589840;0.353160
6.059235;0.005005;-9.653040;2.354400;0.941760
6.064209;0.004974;-9.653040;2.943000;0.588600
6.069214;0.005005;-10.712520;2.589840;1.412640
6.074188;0.004974;-11.301120;4.120200;-1.177200
6.079193;0.005005;-6.827760;1.530360;-1.059480
6.084167;0.004974;-7.416360;2.472120;-1.412640
6.089172;0.005005;-8.946720;2.236680;-1.294920
6.094177;0.005005;-9.299880;3.178440;-1.765800
6.099152;0.004974;-10.123920;3.649320;-1.294920
6.104156;0.005005;-11.772000;4.708800;-0.706320
6.109131;0.004974;-12.596040;5.532840;-0.353160
6.114136;0.005005;-12.125160;3.296160;1.530360
6.119110;0.004974;-13.184640;3.296160;1.177200
6.124115;0.005005;-14.244120;4.944240;0.353160
6.129089;0.004974;-13.420080;4.355640;0.706320
6.134064;0.004974;-12.007440;4.120200;0.588600
6.139069;0.005005;-10.477080;2.118960;2.001240
6.144043;0.004974;-10.006200;2.118960;1.294920
6.149048;0.005005;-7.887240;0.470880;0.941760
6.154022;0.004974;-8.946720;2.707560;-0.470880
6.159027;0.005005;-7.651800;1.059480;0.000000
6.164001;0.004974;-8.593560;5.179680;-1.412640
6.169006;0.005005;-7.769520;3.413880;-0.117720
6.173981;0.004974;-10.477080;6.474600;-2.118960
6.178986;0.005005;-9.770760;4.237920;-1.059480
6.183960;0.004974;-9.299880;4.355640;-0.353160
6.188965;0.005005;-9.182160;4.002480;-0.824040
6.193939;0.004974;-9.417600;3.649320;-1.059480
6.198944;0.005005;-11.183400;4.591080;-1.412640
6.203918;0.004974;-12.125160;5.768280;-2.589840
6.208923;0.005005;-15.774480;2.943000;-19.423800
6.213928;0.005005;-11.418840;1.059480;-8.593560
6.218903;0.004974;-8.475840;1.177200;-3.884760
6.223907;0.005005;-8.946720;2.825280;-1.883520
6.228882;0.004974;-8.829000;3.060720;-1.648080
6.233887;0.005005;-7.063200;2.472120;-1.883520
6.238861;0.004974;-7.887240;3.060720;-1.883520
6.243866;0.005005;-8.358120;3.296160;-1.648080
6.248840;0.004974;-8.593560;4.120200;-1.765800
6.253845;0.005005;-9.299880;4.355640;-2.236680
6.258820;0.004974;-9.535320;4.708800;-2.472120
6.263824;0.005005;-9.653040;5.415120;-2.354400
6.268799;0.004974;-9.064440;4.944240;-2.236680
6.273804;0.005005;-8.593560;4.002480;-1.883520
6.278778;0.004974;-9.299880;4.473360;-1.294920
6.283783;0.005005;-9.064440;4.708800;-1.059480
6.288757;0.004974;-9.770760;4.708800;-0.470880
6.293762;0.005005;-9.770760;4.473360;-0.353160
6.298737;0.004974;-9.535320;4.120200;-0.824040
6.303741;0.005005;-10.123920;4.002480;-1.177200
6.308716;0.004974;-8.122680;3.178440;-1.294920
6.313721;0.005005;-8.711280;4.002480;-1.883520
6.318695;0.004974;-8.358120;-33.079320;34.138800
6.323700;0.005005;-7.298640;-16.245360;18.482040
6.328674;0.004974;-7.887240;-5.532840;9.653040
6.333679;0.005005;-8.240400;-0.824040;3.767040
6.338654;0.004974;-9.064440;2.472120;0.588600
6.343658;0.005005;-9.535320;4.120200;-0.706320
6.348633;0.004974;-9.888480;4.944240;-1.177200
6.353638;0.005005;-10.123920;5.297400;-1.412640
6.358612;0.004974;-9.888480;5.768280;-1.412640
6.363617;0.005005;-9.888480;6.003720;-0.941760
6.368591;0.004974;-11.654280;5.768280;-3.531600
6.373596;0.005005;-10.241640;5.768280;-2.472120
6.378601;0.005005;-9.888480;5.415120;-2.001240
6.383575;0.004974;-10.123920;5.297400;-2.236680
6.388550;0.004974;-8.946720;4.473360;-2.472120
6.393555;0.005005;-6.710040;4.237920;3.178440
6.398529;0.004974;-6.710040;3.531600;0.941760
6.403534;0.005005;-6.592320;3.531600;-0.117720
6.408508;0.004974;-4.708800;3.296160;-4.708800
6.413513;0.005005;-1.059480;-0.235440;-4.591080
6.418488;0.004974;-7.180920;3.649320;-2.236680
6.423492;0.005005;-12.007440;4.708800;0.470880
6.428467;0.004974;-11.065680;5.061960;-1.177200
6.433472;0.005005;-10.594800;5.415120;-2.001240
6.438477;0.005005;-10.241640;5.886000;-1.883520
6.443451;0.004974;-9.653040;5.886000;-2.001240
6.448456;0.005005;-10.241640;6.003720;-2.236680
6.453430;0.004974;-10.477080;5.886000;-1.412640
6.458435;0.005005;-10.477080;6.121440;0.235440
6.463409;0.004974;-10.123920;5.886000;1.177200
6.468414;0.005005;-9.888480;5.297400;2.118960
6.473389;0.004974;-9.182160;4.002480;0.706320
6.478394;0.005005;-8.711280;3.531600;-0.235440
6.483368;0.004974;-8.711280;3.178440;-0.235440
6.488373;0.005005;-8.004960;3.296160;-1.294920
6.493347;0.004974;-7.416360;3.178440;-1.648080
6.498352;0.005005;-7.416360;3.531600;-1.648080
6.503357;0.005005;-7.298640;4.473360;-1.765800
6.508331;0.004974;-7.887240;5.061960;-0.941760
6.513336;0.005005;-7.769520;5.532840;-1.059480
6.518311;0.004974;-7.534080;5.650560;-3.413880
6.523315;0.005005;-8.122680;6.003720;-2.001240
6.528320;0.005005;-9.182160;6.592320;-1.530360
6.533295;0.004974;-9.535320;6.945480;-1.294920
6.538300;0.005005;-9.182160;6.474600;-1.294920
6.543274;0.004974;-9.299880;6.121440;-1.530360
6.548279;0.005005;-9.417600;5.886000;-1.530360
6.553253;0.004974;-9.417600;5.650560;-1.648080
6.558258;0.005005;-9.417600;5.061960;-1.294920
6.563232;0.004974;-9.064440;4.708800;-1.059480
6.568237;0.005005;-8.711280;4.473360;-0.470880
6.573212;0.004974;-8.593560;4.826520;-0.824040
6.578217;0.005005;-8.475840;4.708800;-0.588600
6.583191;0.004974;-8.475840;4.237920;-0.706320
6.588196;0.005005;-8.358120;4.002480;-0.941760
6.593170;0.004974;-8.240400;3.649320;-0.824040
6.598175;0.005005;-9.182160;5.415120;-1.883520
6.603149;0.004974;-8.711280;4.944240;-1.648080
6.608154;0.005005;-8.829000;4.826520;-1.530360
6.613129;0.004974;-9.064440;4.944240;-1.765800
6.618134;0.005005;-8.711280;4.944240;-1.412640
6.623138;0.005005;-8.946720;5.179680;-0.941760
6.628113;0.004974;-9.182160;5.415120;-0.353160
6.633087;0.004974;-9.417600;5.532840;-0.117720
6.638092;0.005005;-8.946720;5.768280;0.353160
6.643066;0.004974;-8.711280;5.768280;0.235440
6.648071;0.005005;-8.475840;5.179680;0.235440
6.653076;0.005005;-8.240400;4.591080;-0.117720
6.658051;0.004974;-7.298640;3.884760;0.235440
6.663025;0.004974;-8.004960;3.296160;-0.117720
6.668030;0.005005;-7.769520;2.825280;-0.941760
6.673004;0.004974;-8.004960;2.943000;-1.294920
6.678009;0.005005;-8.240400;3.531600;-0.470880
6.682983;0.004974;-9.299880;4.708800;-0.353160
6.687988;0.005005;-10.712520;6.121440;1.177200
6.692993;0.005005;-9.299880;5.179680;-0.470880
6.697968;0.004974;-9.299880;5.297400;-0.941760
6.702972;0.005005;-9.417600;5.297400;-0.941760
6.707947;0.004974;-9.653040;5.061960;-0.941760
6.712952;0.005005;-10.006200;5.061960;-1.294920
6.717926;0.004974;-9.770760;4.826520;-1.294920
6.722931;0.005005;-9.888480;4.120200;-1.412640
6.727905;0.004974;-9.299880;3.649320;-1.765800
6.732910;0.005005;-9.299880;3.178440;-1.530360
6.737885;0.004974;-9.182160;2.707560;-1.412640
6.742889;0.005005;-9.653040;3.884760;-1.412640
6.747864;0.004974;-10.712520;4.237920;-1.294920
6.752869;0.005005;-11.301120;5.179680;-0.588600
6.757843;0.004974;-14.597280;6.474600;-1.530360
6.762848;0.005005;-8.593560;7.063200;1.177200
6.767822;0.004974;-10.712520;6.356880;-0.824040
6.772827;0.005005;-9.653040;5.886000;-0.706320
6.777802;0.004974;-10.830240;5.415120;-1.294920
6.782806;0.005005;-11.418840;5.179680;-1.883520
6.787781;0.004974;-11.183400;4.944240;-2.472120
6.792786;0.005005;-10.359360;5.297400;-2.589840
6.797791;0.005005;-11.418840;4.944240;-3.296160
6.802765;0.004974;-14.244120;1.883520;-7.887240
6.807770;0.005005;-11.654280;2.825280;-5.415120
6.812744;0.004974;-10.123920;3.060720;-4.355640
6.817749;0.005005;-9.417600;3.296160;-3.531600
6.822723;0.004974;-8.946720;3.178440;-2.943000
6.827728;0.005005;-8.593560;3.060720;-2.236680
6.832703;0.004974;-8.593560;3.178440;-2.118960
6.837677;0.004974;-7.887240;3.060720;-2.001240
6.842682;0.005005;-8.004960;3.296160;-1.883520
6.847656;0.004974;-7.534080;3.413880;-1.883520
6.852661;0.005005;-8.475840;3.649320;-1.530360
6.857635;0.004974;-8.593560;4.002480;-1.765800
6.862640;0.005005;-8.711280;3.767040;-2.118960
6.867615;0.004974;-13.420080;6.121440;-5.061960
6.872620;0.005005;-11.889720;5.532840;-3.649320
6.877594;0.004974;-10.477080;4.591080;-2.707560
6.882599;0.005005;-10.123920;4.473360;-2.001240
6.887604;0.005005;-10.241640;4.591080;-1.648080
6.892578;0.004974;-16.480800;6.710040;-4.708800
6.897583;0.005005;-14.597280;6.121440;-3.178440
6.902557;0.004974;-12.478320;4.826520;-2.001240
6.907562;0.005005;-11.301120;4.591080;-1.177200
6.912537;0.004974;-9.888480;4.237920;-1.530360
6.917542;0.005005;-19.659240;6.827760;-0.353160
6.922516;0.004974;-11.418840;7.063200;0.470880
6.927521;0.005005;-8.946720;4.944240;-0.941760
6.932495;0.004974;-7.887240;3.413880;-2.825280
6.937500;0.005005;-7.416360;5.061960;-2.118960
6.942474;0.004974;-7.651800;4.944240;-1.765800
6.947479;0.005005;-10.359360;3.884760;-2.001240
6.952454;0.004974;-12.242880;0.706320;-3.060720
6.957458;0.005005;-8.946720;2.589840;3.767040
6.962463;0.005005;-10.123920;3.060720;3.531600
6.967438;0.004974;-10.947960;3.060720;2.354400
6.972443;0.005005;-10.477080;3.178440;1.177200
6.977417;0.004974;-10.947960;3.178440;1.412640
6.982422;0.005005;-11.301120;2.589840;1.059480
6.987396;0.004974;-11.183400;2.472120;0.588600
6.992401;0.005005;-10.594800;2.472120;1.059480
6.997375;0.004974;-10.947960;2.354400;0.706320
7.002380;0.005005;-11.418840;2.589840;0.353160
7.007355;0.004974;-12.125160;2.354400;-0.117720
7.012360;0.005005;-12.007440;2.472120;0.000000
7.017334;0.004974;-12.007440;2.825280;0.000000
7.022339;0.005005;-12.007440;2.825280;0.353160
7.027313;0.004974;-11.889720;3.060720;0.470880
7.032318;0.005005;-11.654280;2.707560;0.353160
7.037292;0.004974;-11.654280;3.060720;0.353160
7.042297;0.005005;-11.654280;3.296160;1.412640
7.047272;0.004974;-11.772000;3.178440;0.706320
7.052277;0.005005;-11.536560;2.825280;0.588600
7.057251;0.004974;-11.418840;2.589840;0.235440
7.062256;0.005005;-10.830240;2.354400;-0.235440
7.067230;0.004974;-10.594800;2.354400;-0.235440
7.072235;0.005005;-10.359360;2.707560;-0.588600
7.077209;0.004974;-10.006200;3.060720;-1.059480
7.082214;0.005005;-9.888480;3.060720;-1.177200
7.087189;0.004974;-9.417600;2.825280;-1.294920
7.092194;0.005005;-9.417600;2.472120;-0.824040
7.097168;0.004974;-9.299880;2.472120;-1.059480
7.102173;0.005005;-9.299880;2.354400;-1.177200
7.107147;0.004974;-9.417600;2.118960;-1.177200
7.112152;0.005005;-8.946720;2.354400;-1.059480
7.117126;0.004974;-7.769520;1.648080;-1.765800
7.122131;0.005005;-8.004960;2.118960;-1.294920
7.127106;0.004974;-8.358120;2.472120;-0.588600
7.132111;0.005005;-8.829000;2.001240;-0.588600
7.137085;0.004974;-3.767040;6.710040;1.765800
7.142090;0.005005;-7.416360;4.355640;1.294920
7.147064;0.004974;-9.064440;3.296160;0.824040
7.152069;0.005005;-10.359360;1.883520;0.235440
7.157043;0.004974;-11.536560;1.883520;-0.470880
7.162048;0.005005;-12.242880;0.588600;-1.648080
7.167023;0.004974;-11.183400;1.765800;-1.294920
7.172028;0.005005;-10.006200;2.707560;-0.941760
7.177002;0.004974;-11.301120;2.236680;-0.941760
7.181976;0.004974;-10.477080;3.060720;-0.706320
7.186981;0.005005;-11.065680;2.472120;-0.941760
7.191986;0.005005;-10.594800;2.825280;-0.706320
7.196960;0.004974;-10.241640;2.825280;-0.706320
7.201965;0.005005;-10.241640;2.825280;-0.706320
7.206940;0.004974;-10.123920;2.825280;-0.353160
7.211945;0.005005;-10.359360;2.707560;-0.353160
7.216919;0.004974;-10.594800;2.354400;-0.235440
7.221924;0.005005;-10.947960;1.883520;-0.470880
7.226898;0.004974;-10.947960;1.765800;-0.470880
7.231903;0.005005;-11.418840;1.883520;-0.470880
7.236908;0.005005;-10.830240;2.118960;-0.235440
7.241882;0.004974;-10.359360;2.118960;0.353160
7.246887;0.005005;-8.593560;1.530360;1.177200
7.251862;0.004974;-9.299880;1.059480;0.117720
7.256866;0.005005;-9.417600;0.706320;0.117720
7.261841;0.004974;-9.535320;0.470880;0.353160
7.266846;0.005005;-9.535320;1.059480;0.117720
7.271820;0.004974;-10.241640;1.530360;-0.117720
7.276825;0.005005;-12.125160;2.001240;-0.706320
7.281799;0.004974;-12.125160;2.236680;-0.353160
7.286804;0.005005;-11.889720;2.118960;0.000000
7.291779;0.004974;-11.418840;2.236680;0.353160
7.296783;0.005005;-13.890960;0.706320;-0.824040
7.301758;0.004974;-14.008680;1.412640;-0.235440
7.306763;0.005005;-12.478320;2.236680;0.117720
7.311768;0.005005;-13.655520;2.118960;0.706320
7.316742;0.004974;-13.890960;2.236680;0.000000
7.321747;0.005005;-13.302360;2.118960;-0.235440
7.326721;0.004974;-12.478320;2.001240;-0.117720
7.331726;0.005005;-13.537800;2.472120;0.235440
7.336700;0.004974;-12.831480;2.236680;-0.235440
7.341705;0.005005;-12.360600;2.118960;-0.235440
7.346680;0.004974;-12.007440;1.648080;-0.706320
7.351685;0.005005;-11.654280;1.765800;-0.824040
7.356659;0.004974;-11.183400;1.648080;-1.294920
7.361664;0.005005;-10.477080;1.177200;-1.294920
7.366638;0.004974;-10.477080;1.294920;-0.941760
7.371643;0.005005;-9.653040;1.530360;-1.294920
7.376617;0.004974;-9.417600;1.883520;-0.824040
7.381622;0.005005;-9.064440;1.177200;-1.059480
7.386627;0.005005;-9.299880;1.177200;-1.177200
7.391602;0.004974;-7.298640;1.648080;-1.883520
7.396576;0.004974;-8.004960;3.884760;-0.117720
7.401581;0.005005;-7.298640;2.943000;-0.706320
7.406586;0.005005;-7.298640;2.472120;-0.824040
7.411560;0.004974;-5.886000;1.294920;-0.941760
7.416565;0.005005;-5.768280;1.177200;-1.177200
7.421539;0.004974;-6.239160;1.530360;-2.118960
7.426544;0.005005;-5.768280;2.118960;-2.001240
7.431519;0.004974;-6.710040;2.001240;-1.765800
7.436523;0.005005;-5.650560;2.472120;-2.236680
7.441528;0.005005;-9.064440;1.648080;-1.765800
7.446503;0.004974;-7.180920;0.824040;-2.354400
7.451508;0.005005;-6.945480;0.588600;-3.767040
7.456482;0.004974;-9.182160;0.235440;-3.413880
7.461487;0.005005;-12.478320;1.412640;-3.060720
7.466461;0.004974;-12.949200;0.470880;-3.178440
7.471466;0.005005;-12.949200;0.706320;-2.943000
7.476440;0.004974;-13.537800;0.117720;-2.943000
7.481445;0.005005;-13.773240;0.470880;-3.296160
7.486450;0.005005;-15.656760;0.353160;-2.825280
7.491425;0.004974;-15.303600;0.470880;-2.589840
7.496429;0.005005;-13.890960;0.235440;-2.118960
7.501404;0.004974;-13.066920;-0.117720;-1.530360
7.506409;0.005005;-12.713760;0.000000;-1.059480
7.511383;0.004974;-11.772000;0.000000;-0.470880
7.516388;0.005005;-11.301120;0.117720;-0.941760
7.521362;0.004974;-10.830240;0.588600;-1.059480
7.526367;0.005005;-10.477080;1.059480;-0.941760
7.531372;0.005005;-9.770760;1.177200;-1.530360
7.536346;0.004974;-9.653040;1.530360;-1.883520
7.541351;0.005005;-9.182160;1.765800;-2.001240
7.546326;0.004974;-7.887240;2.001240;-2.354400
7.551331;0.005005;-6.710040;3.178440;-2.589840
7.556305;0.004974;-6.239160;3.531600;-2.707560
7.561310;0.005005;-6.592320;3.178440;-2.707560
7.566315;0.005005;-7.769520;1.883520;-3.413880
7.571289;0.004974;-8.358120;1.177200;-4.002480
7.576294;0.005005;-9.182160;0.235440;-4.355640
7.581268;0.004974;-9.888480;-0.353160;-4.355640
7.586273;0.005005;-10.712520;-0.235440;-3.884760
7.591248;0.004974;-10.830240;-0.235440;-3.413880
7.596252;0.005005;-11.418840;0.000000;-3.178440
7.601227;0.004974;-11.536560;-0.117720;-2.943000
7.606232;0.005005;-11.418840;0.000000;-2.825280
7.611206;0.004974;-11.418840;0.000000;-2.825280
7.616211;0.005005;-11.418840;0.000000;-2.589840
7.621185;0.004974;-11.183400;0.000000;-2.354400
7.626190;0.005005;-10.712520;0.000000;-2.472120
7.631165;0.004974;-10.123920;0.353160;-2.589840
7.636169;0.005005;-10.123920;0.588600;-2.707560
7.641144;0.004974;-9.888480;0.353160;-2.589840
7.646149;0.005005;-10.123920;0.470880;-2.825280
7.651123;0.004974;-9.888480;0.824040;-2.825280
7.656128;0.005005;-9.888480;1.294920;-2.589840
7.661133;0.005005;-10.241640;0.706320;-2.707560
7.666107;0.004974;-10.123920;1.059480;-2.707560
7.671112;0.005005;-6.121440;6.239160;-1.412640
7.676086;0.004974;-10.477080;4.237920;-2.118960
7.681061;0.004974;-11.418840;2.236680;-2.589840
7.686066;0.005005;-10.712520;2.118960;-2.589840
7.691040;0.004974;-10.477080;1.883520;-2.472120
7.696045;0.005005;-10.359360;1.648080;-2.589840
7.701019;0.004974;-10.947960;1.765800;-2.354400
7.706024;0.005005;-10.594800;1.648080;-2.354400
7.710999;0.004974;-11.536560;1.765800;-2.118960
7.716003;0.005005;-11.654280;1.412640;-2.472120
7.720978;0.004974;-15.656760;0.353160;-2.825280
7.725983;0.005005;-13.773240;0.588600;-2.589840
7.730957;0.004974;-11.654280;0.588600;-2.354400
7.735962;0.005005;-7.769520;0.000000;-2.354400
7.740936;0.004974;-10.477080;0.824040;-2.943000
7.745941;0.005005;-10.241640;0.470880;-2.825280
7.750916;0.004974;-11.536560;0.824040;-2.589840
7.755920;0.005005;-10.830240;0.470880;-2.707560
7.760925;0.005005;-11.654280;1.177200;-2.589840
7.765900;0.004974;-11.301120;0.824040;-2.707560
7.770905;0.005005;-10.947960;0.588600;-2.707560
7.775879;0.004974;-10.830240;0.706320;-2.472120
7.780884;0.005005;-10.947960;0.941760;-2.589840
7.785858;0.004974;-10.594800;0.588600;-2.707560
7.790863;0.005005;-10.477080;0.706320;-2.707560
7.795868;0.005005;-10.477080;1.177200;-2.472120
7.800842;0.004974;-10.006200;0.824040;-2.707560
7.805847;0.005005;-8.946720;-0.824040;-2.472120
7.810822;0.004974;-9.535320;-0.941760;-2.589840
7.815826;0.005005;-11.301120;-0.588600;-3.178440
7.820801;0.004974;-10.712520;-0.117720;-3.413880
7.825806;0.005005;-10.006200;0.235440;-3.767040
7.830780;0.004974;-8.946720;0.824040;-3.767040
7.835785;0.005005;-9.182160;0.941760;-3.531600
7.840790;0.005005;-9.182160;0.706320;-3.296160
7.845764;0.004974;-8.946720;0.588600;-3.060720
7.850769;0.005005;-8.946720;0.588600;-2.825280
7.855743;0.004974;-9.535320;0.941760;-3.413880
7.860748;0.005005;-9.535320;0.470880;-3.296160
7.865753;0.005005;-9.770760;0.824040;-3.413880
7.870728;0.004974;-9.888480;0.706320;-3.178440
7.875732;0.005005;-10.006200;0.824040;-2.943000
7.880707;0.004974;-9.770760;0.706320;-2.825280
7.885712;0.005005;-9.653040;0.470880;-2.825280
7.890717;0.005005;-9.535320;0.588600;-3.296160
7.895691;0.004974;-9.888480;0.470880;-3.178440
7.900696;0.005005;-9.770760;0.824040;-2.943000
7.905670;0.004974;-10.477080;1.648080;-4.708800
7.910675;0.005005;-10.123920;0.941760;-4.237920
7.915649;0.004974;-10.241640;0.706320;-4.002480
7.920654;0.005005;-10.123920;0.588600;-3.649320
7.925629;0.004974;-10.006200;0.353160;-3.296160
7.930634;0.005005;-9.770760;0.470880;-3.178440
7.935638;0.005005;-9.417600;0.470880;-2.825280
7.940613;0.004974;-9.182160;0.235440;-2.825280
7.945618;0.005005;-9.064440;0.235440;-2.707560
7.950592;0.004974;-8.475840;0.000000;-2.589840
7.955597;0.005005;-8.475840;-0.470880;-2.707560
7.960571;0.004974;-9.888480;-0.117720;-2.943000
7.965546;0.004974;-10.241640;0.000000;-2.825280
7.970551;0.005005;-10.477080;0.117720;-3.060720
7.975555;0.005005;-11.065680;0.353160;-2.943000
7.980530;0.004974;-11.065680;0.941760;-2.825280
7.985535;0.005005;-10.947960;0.824040;-2.943000
7.990509;0.004974;-10.477080;0.824040;-2.943000
7.995514;0.005005;-10.359360;1.294920;-2.589840
8.000488;0.004974;-10.241640;1.059480;-2.825280
8.005493;0.005005;-10.006200;1.412640;-2.943000
8.010468;0.004974;-10.006200;1.059480;-2.825280
8.015472;0.005005;-9.770760;1.177200;-2.943000
8.020477;0.005005;-10.123920;1.294920;-2.825280
8.025452;0.004974;-5.768280;-3.649320;-2.589840
8.030457;0.005005;-12.478320;-1.530360;-4.237920
8.035431;0.004974;-11.183400;0.235440;-3.531600
8.040436;0.005005;-10.359360;0.941760;-3.178440
8.045410;0.004974;-10.006200;0.706320;-2.943000
8.050415;0.005005;-10.241640;0.706320;-2.707560
8.055420;0.005005;-10.359360;0.470880;-2.589840
8.060394;0.004974;-10.594800;0.235440;-2.707560
8.065399;0.005005;-10.712520;0.117720;-2.707560
8.070374;0.004974;-10.594800;0.470880;-2.707560
8.075378;0.005005;-10.477080;0.117720;-2.707560
8.080353;0.004974;-10.359360;0.117720;-2.589840
8.085358;0.005005;-10.830240;0.117720;-2.707560
8.090332;0.004974;-10.712520;0.117720;-2.707560
8.095306;0.004974;-10.477080;0.000000;-2.943000
8.100311;0.005005;-10.241640;-0.235440;-2.943000
8.105286;0.004974;-9.888480;-0.235440;-3.060720
8.110291;0.005005;-9.770760;-0.353160;-2.943000
8.115295;0.005005;-9.888480;-0.235440;-2.825280
8.120270;0.004974;-9.888480;0.000000;-2.825280
8.125275;0.005005;-10.006200;-0.117720;-2.589840
8.130249;0.004974;-10.712520;0.824040;-2.589840
8.135254;0.005005;-10.477080;0.470880;-2.707560
8.140228;0.004974;-10.006200;-0.235440;-2.707560
8.145233;0.005005;-10.241640;0.235440;-2.707560
8.150208;0.004974;-10.477080;0.470880;-2.707560
8.155212;0.005005;-10.477080;0.235440;-2.707560
8.160217;0.005005;-10.123920;0.235440;-2.001240
8.165192;0.004974;-10.123920;0.235440;-2.472120
8.170166;0.004974;-10.123920;0.588600;-2.589840
8.175171;0.005005;-10.006200;0.706320;-2.589840
8.180145;0.004974;-9.535320;0.353160;-2.825280
8.185150;0.005005;-9.653040;0.353160;-2.825280
8.190125;0.004974;-9.653040;0.235440;-3.060720
8.195129;0.005005;-9.535320;0.353160;-2.943000
8.200104;0.004974;-9.299880;0.470880;-2.825280
8.205109;0.005005;-9.064440;0.470880;-2.825280
8.210083;0.004974;-8.946720;0.470880;-2.943000
8.215088;0.005005;-8.711280;0.824040;-2.472120
8.220062;0.004974;-9.888480;1.294920;-2.589840
8.225067;0.005005;-6.710040;2.236680;3.767040
8.230042;0.004974;-10.241640;2.001240;0.470880
8.235046;0.005005;-9.888480;1.059480;-1.412640
8.240021;0.004974;-10.006200;0.588600;-2.118960
8.245026;0.005005;-9.888480;0.470880;-2.472120
8.250000;0.004974;-11.654280;1.294920;-2.354400
8.255005;0.005005;-11.536560;0.824040;-2.472120
8.259979;0.004974;-11.654280;1.059480;-2.589840
8.264984;0.005005;-11.536560;0.824040;-2.707560
8.269958;0.004974;-11.418840;0.824040;-2.943000
8.274963;0.005005;-10.947960;0.941760;-2.943000
8.279938;0.004974;-10.947960;0.706320;-3.296160
8.284943;0.005005;-10.712520;0.470880;-3.060720
8.289917;0.004974;-10.830240;0.353160;-3.178440
8.294922;0.005005;-10.830240;0.470880;-2.943000
8.299896;0.004974;-10.830240;0.706320;-2.825280
8.304901;0.005005;-10.712520;0.941760;-3.060720
8.309875;0.004974;-10.477080;0.824040;-2.943000
8.314880;0.005005;-10.477080;0.588600;-3.060720
8.319885;0.005005;-10.359360;0.824040;-3.060720
8.324860;0.004974;-9.888480;0.824040;-2.943000
8.329865;0.005005;-10.123920;0.941760;-2.825280
8.334839;0.004974;-10.123920;0.824040;-2.943000
8.339844;0.005005;-10.123920;0.706320;-2.825280
8.344818;0.004974;-10.359360;0.588600;-2.707560
8.349823;0.005005;-10.359360;0.588600;-2.825280
8.354797;0.004974;-10.123920;0.706320;-2.943000
8.359802;0.005005;-10.123920;0.706320;-2.825280
8.364777;0.004974;-9.888480;0.706320;-2.943000
8.369781;0.005005;-10.006200;0.588600;-2.943000
8.374756;0.004974;-10.123920;0.706320;-2.825280
8.379761;0.005005;-10.241640;0.353160;-2.825280
8.384735;0.004974;-10.830240;0.588600;-2.825280
8.389740;0.005005;-10.477080;0.588600;-2.825280
8.394714;0.004974;-10.359360;0.588600;-2.825280
8.399719;0.005005;-10.006200;0.353160;-2.825280
8.404694;0.004974;-9.770760;0.588600;-2.943000
8.409698;0.005005;-9.535320;0.588600;-2.825280
8.414673;0.004974;-9.653040;0.706320;-2.825280
8.419678;0.005005;-9.888480;0.588600;-2.825280
8.424683;0.005005;-9.770760;0.588600;-2.825280
8.429657;0.004974;-9.653040;0.706320;-2.943000
8.434662;0.005005;-10.006200;0.706320;-2.943000
8.439636;0.004974;-9.653040;0.824040;-2.825280
8.444641;0.005005;-9.653040;1.059480;-2.707560
8.449615;0.004974;-9.535320;1.177200;-2.707560
8.454620;0.005005;-9.535320;0.824040;-2.707560
8.459625;0.005005;-9.770760;1.059480;-2.707560
8.464600;0.004974;-8.946720;1.412640;-3.060720
8.469604;0.005005;-9.299880;0.235440;-3.060720
8.474579;0.004974;-9.535320;0.588600;-2.943000
8.479584;0.005005;-9.770760;0.588600;-2.589840
8.484558;0.004974;-10.594800;0.353160;-3.178440
8.489563;0.005005;-10.123920;0.824040;-2.707560
8.494537;0.004974;-10.241640;1.059480;-2.707560
8.499542;0.005005;-10.241640;1.059480;-2.589840
8.504517;0.004974;-10.712520;1.294920;-2.707560
8.509521;0.005005;-10.712520;1.294920;-2.589840
8.514496;0.004974;-10.712520;1.177200;-2.589840
8.519501;0.005005;-10.712520;1.294920;-2.354400
8.524475;0.004974;-11.183400;1.294920;-1.530360
8.529480;0.005005;-10.594800;1.530360;-2.472120
8.534454;0.004974;-10.477080;1.294920;-2.589840
8.539459;0.005005;-10.477080;1.294920;-2.589840
8.544464;0.005005;-10.947960;1.412640;-2.472120
8.549438;0.004974;-10.712520;1.530360;-2.236680
8.554443;0.005005;-10.594800;1.648080;-2.118960
8.559418;0.004974;-10.477080;1.294920;-2.236680
8.564423;0.005005;-13.890960;0.706320;-0.588600
8.569397;0.004974;-10.830240;0.824040;-1.765800
8.574402;0.005005;-9.535320;1.412640;-2.118960
8.579376;0.004974;-10.241640;1.177200;-2.354400
8.584381;0.005005;-10.712520;1.059480;-2.354400
8.589355;0.004974;-10.477080;0.941760;-2.236680
8.594360;0.005005;-10.359360;0.941760;-2.001240
8.599335;0.004974;-10.359360;1.177200;-1.883520
8.604340;0.005005;-10.241640;0.824040;-2.001240
8.609314;0.004974;-10.241640;0.706320;-2.118960
8.614319;0.005005;-10.123920;0.588600;-2.236680
8.619293;0.004974;-10.006200;0.353160;-2.118960
8.624298;0.005005;-10.241640;0.588600;-2.354400
8.629272;0.004974;-10.241640;0.588600;-2.354400
8.634277;0.005005;-10.006200;0.470880;-2.472120
8.639252;0.004974;-10.359360;0.470880;-2.472120
8.644257;0.005005;-10.477080;0.235440;-2.354400
8.649231;0.004974;-10.594800;0.235440;-2.589840
8.654236;0.005005;-10.359360;0.117720;-2.472120
8.659210;0.004974;-10.241640;0.117720;-2.354400
8.664215;0.005005;-10.241640;0.353160;-2.236680
8.669189;0.004974;-10.241640;0.470880;-2.236680
8.674194;0.005005;-9.888480;0.235440;-2.472120
8.679169;0.004974;-10.241640;0.117720;-2.354400
8.684174;0.005005;-9.888480;0.235440;-2.354400
8.689148;0.004974;-10.006200;0.353160;-2.354400
8.694122;0.004974;-9.770760;0.117720;-2.472120
8.699127;0.005005;-9.888480;0.117720;-2.589840
8.704102;0.004974;-9.888480;0.353160;-2.589840
8.709106;0.005005;-10.006200;0.235440;-2.472120
8.714081;0.004974;-10.006200;0.117720;-2.472120
8.719086;0.005005;-9.888480;0.117720;-2.354400
8.724091;0.005005;-10.123920;0.353160;-2.472120
8.729065;0.004974;-10.123920;0.470880;-2.472120
8.734070;0.005005;-10.006200;0.470880;-2.472120
8.739044;0.004974;-9.888480;0.470880;-2.354400
8.744049;0.005005;-9.888480;0.353160;-2.589840
8.749023;0.004974;-9.653040;0.235440;-2.354400
8.754028;0.005005;-9.535320;0.117720;-2.589840
8.759003;0.004974;-9.535320;0.353160;-2.707560
8.764008;0.005005;-9.535320;0.353160;-2.589840
8.768982;0.004974;-9.417600;0.588600;-2.472120
8.773956;0.004974;-9.535320;0.706320;-2.236680
8.778961;0.005005;-9.535320;0.941760;-2.236680
8.783936;0.004974;-9.535320;0.941760;-2.118960
8.788940;0.005005;-9.417600;0.941760;-2.118960
8.793915;0.004974;-9.535320;1.294920;-2.354400
8.798920;0.005005;-9.653040;1.059480;-2.354400
8.803894;0.004974;-10.006200;1.294920;-2.589840
8.808899;0.005005;-10.123920;1.177200;-2.589840
8.813873;0.004974;-10.359360;1.059480;-2.472120
8.818878;0.005005;-10.359360;1.177200;-2.236680
8.823853;0.004974;-10.712520;1.177200;-2.118960
8.828857;0.005005;-10.712520;0.824040;-2.472120
8.833832;0.004974;-10.477080;0.941760;-2.472120
8.838837;0.005005;-10.477080;0.941760;-2.589840
8.843811;0.004974;-10.359360;1.059480;-2.472120
8.848816;0.005005;-10.241640;1.294920;-2.472120
8.853790;0.004974;-10.006200;1.177200;-2.354400
8.858795;0.005005;-10.123920;0.941760;-2.472120
8.863770;0.004974;-10.123920;1.177200;-2.589840
8.868774;0.005005;-10.006200;0.941760;-2.472120
8.873749;0.004974;-10.241640;0.588600;-2.589840
8.878754;0.005005;-10.123920;0.470880;-2.472120
8.883759;0.005005;-10.006200;0.470880;-2.589840
8.888733;0.004974;-9.888480;0.588600;-2.707560
8.893738;0.005005;-10.006200;0.824040;-2.472120
8.898712;0.004974;-10.241640;0.470880;-2.589840
8.903717;0.005005;-10.123920;0.117720;-2.589840
8.908691;0.004974;-10.241640;0.117720;-2.472120
8.913696;0.005005;-10.241640;0.353160;-2.472120
8.918671;0.004974;-10.006200;0.941760;-2.354400
8.923676;0.005005;-9.770760;0.824040;-2.472120
8.928650;0.004974;-10.006200;0.353160;-2.589840
8.933655;0.005005;-10.123920;0.353160;-2.707560
8.938629;0.004974;-10.006200;0.117720;-2.825280
8.943634;0.005005;-9.888480;0.353160;-2.825280
8.948608;0.004974;-10.241640;0.235440;-2.825280
8.953613;0.005005;-10.123920;0.235440;-2.589840
8.958588;0.004974;-10.241640;0.235440;-2.707560
8.963593;0.005005;-10.241640;0.235440;-2.589840
8.968567;0.004974;-9.888480;0.235440;-2.707560
8.973572;0.005005;-10.006200;0.235440;-2.589840
8.978546;0.004974;-10.006200;0.117720;-2.472120
8.983551;0.005005;-9.888480;0.117720;-2.589840
8.988556;0.005005;-9.888480;0.235440;-2.589840
8.993530;0.004974;-9.770760;0.235440;-2.589840
8.998535;0.005005;-9.770760;0.470880;-2.472120
9.003510;0.004974;-10.006200;0.235440;-2.236680
9.008514;0.005005;-9.888480;0.117720;-2.236680
9.013519;0.005005;-9.888480;0.235440;-2.472120
9.018494;0.004974;-9.888480;0.235440;-2.354400
9.023499;0.005005;-9.888480;0.353160;-2.589840
9.028473;0.004974;-9.770760;0.235440;-2.589840
9.033478;0.005005;-9.888480;0.235440;-2.589840
9.038452;0.004974;-10.123920;0.117720;-2.472120
9.043457;0.005005;-10.123920;0.117720;-2.354400
9.048431;0.004974;-10.359360;0.235440;-2.589840
9.053436;0.005005;-10.359360;-0.353160;-2.707560
9.058411;0.004974;-10.359360;-0.117720;-2.589840
9.063385;0.004974;-10.477080;0.000000;-2.589840
9.068390;0.005005;-10.477080;0.117720;-2.472120
9.073364;0.004974;-10.241640;0.117720;-2.472120
9.078369;0.005005;-10.477080;0.235440;-2.589840
9.083344;0.004974;-10.594800;0.117720;-2.589840
9.088348;0.005005;-10.359360;0.117720;-2.707560
9.093323;0.004974;-10.359360;0.000000;-2.707560
9.098297;0.004974;-10.477080;-0.235440;-2.589840
9.103302;0.005005;-10.359360;-0.117720;-2.472120
9.108307;0.005005;-10.477080;-0.117720;-2.589840
9.113281;0.004974;-10.359360;-0.235440;-2.589840
9.118286;0.005005;-10.123920;-0.117720;-2.589840
9.123260;0.004974;-10.123920;-0.117720;-2.707560
9.128265;0.005005;-10.477080;-0.235440;-2.707560
9.133240;0.004974;-10.359360;-0.353160;-2.707560
9.138245;0.005005;-10.359360;-0.353160;-2.589840
9.143219;0.004974;-10.241640;0.000000;-2.707560
9.148224;0.005005;-10.123920;0.000000;-2.589840
9.153198;0.004974;-9.770760;0.000000;-2.589840
9.158203;0.005005;-9.770760;-0.235440;-2.707560
9.163177;0.004974;-9.888480;0.000000;-2.589840
9.168182;0.005005;-10.006200;0.000000;-2.707560
9.173157;0.004974;-10.123920;0.117720;-2.707560
9.178162;0.005005;-10.123920;0.235440;-2.707560
9.183136;0.004974;-10.123920;0.000000;-2.825280
9.188141;0.005005;-10.006200;-0.235440;-2.825280
9.193115;0.004974;-10.123920;0.117720;-2.825280
9.198120;0.005005;-10.006200;0.235440;-2.825280
9.203094;0.004974;-10.241640;0.235440;-2.707560
9.208099;0.005005;-10.123920;0.117720;-2.707560
9.213074;0.004974;-10.123920;0.353160;-2.707560
9.218079;0.005005;-10.123920;0.235440;-2.589840
9.223053;0.004974;-10.241640;0.000000;-2.825280
9.228058;0.005005;-10.241640;0.000000;-2.707560
9.233032;0.004974;-9.888480;0.117720;-2.707560
9.238037;0.005005;-10.006200;0.117720;-2.589840
9.243011;0.004974;-10.241640;0.117720;-2.589840
9.248016;0.005005;-10.123920;0.235440;-2.707560
9.253021;0.005005;-10.123920;0.000000;-2.589840
9.257996;0.004974;-10.006200;0.117720;-2.707560
9.263000;0.005005;-10.241640;0.235440;-2.707560
9.267975;0.004974;-10.123920;0.117720;-2.707560
9.272980;0.005005;-10.359360;0.235440;-2.589840
9.277954;0.004974;-10.477080;0.235440;-2.707560
9.282959;0.005005;-10.241640;0.117720;-2.707560
9.287933;0.004974;-10.006200;0.353160;-2.707560
9.292938;0.005005;-10.241640;0.235440;-2.707560
9.297913;0.004974;-10.359360;0.235440;-2.589840
9.302917;0.005005;-10.477080;0.235440;-2.472120
9.307892;0.004974;-10.359360;0.117720;-2.472120
9.312897;0.005005;-10.477080;0.117720;-2.589840
9.317902;0.005005;-10.594800;0.353160;-2.589840
9.322876;0.004974;-10.712520;0.470880;-2.589840
9.327881;0.005005;-10.359360;0.235440;-2.589840
9.332855;0.004974;-10.241640;0.235440;-2.472120
9.337860;0.005005;-10.123920;0.117720;-2.589840
9.342865;0.005005;-10.477080;0.353160;-2.707560
9.347839;0.004974;-10.477080;0.235440;-2.825280
9.352844;0.005005;-10.477080;0.000000;-2.707560
9.357819;0.004974;-10.359360;0.000000;-2.589840
9.362823;0.005005;-12.125160;-0.470880;-2.118960
9.367798;0.004974;-10.006200;-0.235440;-2.472120
9.372803;0.005005;-9.770760;0.000000;-2.589840
9.377777;0.004974;-9.888480;0.000000;-2.589840
9.382782;0.005005;-10.947960;-0.588600;-2.236680
9.387787;0.005005;-10.123920;-0.235440;-2.236680
9.392761;0.004974;-9.888480;-0.353160;-2.354400
9.397766;0.005005;-10.006200;-0.706320;-2.589840
9.402740;0.004974;-10.123920;-0.941760;-2.472120
9.407745;0.005005;-10.006200;-0.706320;-2.354400
9.412720;0.004974;-10.241640;-0.588600;-2.589840
9.417725;0.005005;-9.770760;-0.353160;-2.707560
9.422699;0.004974;-10.006200;-0.117720;-2.707560
9.427704;0.005005;-10.123920;-0.117720;-2.707560
9.432678;0.004974;-10.006200;0.117720;-2.707560
9.437683;0.005005;-10.123920;0.235440;-2.589840
9.442657;0.004974;-11.536560;-0.117720;-2.589840
9.447662;0.005005;-10.123920;0.117720;-2.825280
9.452637;0.004974;-9.888480;0.117720;-2.825280
9.457642;0.005005;-10.006200;0.000000;-2.825280
9.462646;0.005005;-9.888480;0.000000;-2.707560
9.467621;0.004974;-9.888480;-0.117720;-2.472120
9.472626;0.005005;-10.006200;-0.117720;-2.354400
9.477600;0.004974;-10.006200;0.000000;-2.472120
9.482605;0.005005;-10.123920;0.117720;-2.354400
9.487579;0.004974;-10.123920;0.000000;-2.354400
9.492584;0.005005;-10.359360;0.000000;-2.472120
9.497559;0.004974;-10.359360;0.235440;-2.472120
9.502563;0.005005;-10.477080;0.117720;-2.472120
9.507538;0.004974;-10.477080;0.235440;-2.472120
9.512543;0.005005;-10.359360;0.000000;-2.354400
9.517548;0.005005;-10.359360;0.117720;-2.589840
9.522522;0.004974;-10.594800;0.000000;-2.589840
9.527527;0.005005;-10.359360;-0.117720;-2.472120
9.532501;0.004974;-10.477080;-0.117720;-2.589840
9.537506;0.005005;-10.123920;0.235440;-2.589840
9.542511;0.005005;-10.123920;0.117720;-2.589840
9.547485;0.004974;-10.006200;0.235440;-2.589840
9.552490;0.005005;-10.006200;0.235440;-2.589840
9.557465;0.004974;-9.770760;0.235440;-2.589840
9.562469;0.005005;-9.653040;0.235440;-2.589840
9.567474;0.005005;-9.770760;0.353160;-2.589840
9.572449;0.004974;-9.770760;0.470880;-2.707560
9.577454;0.005005;-9.770760;0.353160;-2.472120
9.582428;0.004974;-9.535320;0.353160;-2.354400
9.587433;0.005005;-9.417600;0.235440;-2.589840
9.592407;0.004974;-9.535320;0.235440;-2.707560
9.597412;0.005005;-9.535320;0.000000;-2.472120
9.602417;0.005005;-9.770760;0.117720;-2.589840
9.607391;0.004974;-9.888480;0.353160;-2.707560
9.612396;0.005005;-9.888480;0.353160;-2.707560
9.617371;0.004974;-10.006200;0.235440;-2.707560
9.622375;0.005005;-10.123920;0.117720;-2.472120
9.627380;0.005005;-10.123920;0.117720;-2.589840
9.632355;0.004974;-10.241640;0.117720;-2.472120
9.637360;0.005005;-10.123920;0.235440;-2.589840
9.642334;0.004974;-10.241640;0.117720;-2.707560
9.647339;0.005005;-10.123920;0.117720;-2.472120
9.652313;0.004974;-10.241640;0.117720;-2.472120
9.657318;0.005005;-10.359360;0.235440;-2.472120
9.662292;0.004974;-10.477080;0.117720;-2.472120
9.667297;0.005005;-10.241640;0.000000;-2.472120
9.672302;0.005005;-10.241640;-0.117720;-2.236680
9.677277;0.004974;-10.359360;0.000000;-2.472120
9.682281;0.005005;-10.477080;0.000000;-2.354400
9.687256;0.004974;-10.359360;-0.117720;-2.354400
9.692261;0.005005;-10.359360;-0.117720;-2.472120
9.697235;0.004974;-10.241640;-0.235440;-2.354400
9.702240;0.005005;-10.359360;-0.470880;-2.589840
9.707245;0.005005;-10.123920;-0.470880;-2.354400
9.712219;0.004974;-10.123920;-0.470880;-2.354400
9.717224;0.005005;-10.359360;-0.235440;-2.589840
9.722198;0.004974;-10.359360;0.000000;-2.589840
9.727203;0.005005;-10.359360;-0.235440;-2.354400
9.732178;0.004974;-10.241640;0.000000;-2.236680
9.737183;0.005005;-10.241640;-0.117720;-2.236680
9.742188;0.005005;-10.241640;0.000000;-2.354400
9.747162;0.004974;-10.477080;-0.235440;-2.472120
9.752167;0.005005;-10.359360;-0.588600;-2.472120
9.757141;0.004974;-10.594800;-0.470880;-2.589840
9.762146;0.005005;-10.477080;-0.470880;-2.589840
9.767120;0.004974;-10.123920;-0.470880;-2.589840
9.772125;0.005005;-10.477080;-0.470880;-2.707560
9.777130;0.005005;-10.241640;-0.353160;-2.589840
9.782104;0.004974;-10.241640;-0.353160;-2.354400
9.787109;0.005005;-10.006200;-0.353160;-2.472120
9.792084;0.004974;-10.006200;-0.117720;-2.472120
9.797089;0.005005;-10.006200;0.000000;-2.472120
9.802063;0.004974;-9.888480;-0.235440;-2.472120
9.807068;0.005005;-10.123920;-0.235440;-2.472120
9.812042;0.004974;-9.888480;-0.353160;-2.472120
9.817047;0.005005;-9.888480;-0.353160;-2.472120
9.822052;0.005005;-10.123920;-0.235440;-2.589840
9.827026;0.004974;-10.359360;-0.117720;-2.707560
9.832031;0.005005;-10.359360;-0.117720;-2.707560
9.837006;0.004974;-10.241640;-0.235440;-2.589840
9.842010;0.005005;-10.006200;-0.117720;-2.589840
9.847015;0.005005;-10.241640;0.117720;-2.707560
9.851990;0.004974;-10.594800;0.117720;-2.589840
9.856995;0.005005;-10.241640;0.117720;-2.707560
9.861969;0.004974;-10.006200;0.117720;-2.707560
9.866974;0.005005;-9.888480;0.117720;-2.707560
9.871948;0.004974;-10.123920;0.000000;-2.589840
9.876953;0.005005;-10.123920;-0.117720;-2.589840
9.881958;0.005005;-10.241640;0.000000;-2.707560
9.886932;0.004974;-9.770760;-0.235440;-2.589840
9.891907;0.004974;-9.417600;-0.353160;-2.472120
9.896912;0.005005;-9.299880;-0.117720;-2.236680
9.901917;0.005005;-8.946720;0.000000;-1.883520
9.906891;0.004974;-9.417600;0.117720;-2.118960
9.911896;0.005005;-10.123920;-0.117720;-2.943000
9.916870;0.004974;-10.241640;-0.235440;-2.943000
9.921875;0.005005;-10.241640;-0.117720;-2.825280
9.926849;0.004974;-10.123920;0.000000;-2.707560
9.931854;0.005005;-10.006200;-0.117720;-2.589840
9.936829;0.004974;-10.359360;0.117720;-2.589840
9.941833;0.005005;-10.947960;0.000000;-2.707560
9.946808;0.004974;-10.712520;0.470880;-2.707560
9.951813;0.005005;-10.830240;0.000000;-2.472120
9.956787;0.004974;-10.830240;-0.117720;-2.472120
9.961792;0.005005;-10.477080;-0.235440;-2.236680
9.966766;0.004974;-10.477080;-0.117720;-2.001240
9.971771;0.005005;-10.477080;0.117720;-2.118960
9.976776;0.005005;-10.359360;0.235440;-2.354400
9.981750;0.004974;-10.241640;0.117720;-2.472120
9.986755;0.005005;-10.123920;0.117720;-2.589840
9.991730;0.004974;-10.241640;0.353160;-2.589840
9.996735;0.005005;-10.123920;0.235440;-2.707560
10.001740;0.005005;-10.123920;0.235440;-2.707560
10.006714;0.004974;-10.359360;0.000000;-2.589840
10.011719;0.005005;-10.477080;0.000000;-2.707560
10.016693;0.004974;-10.123920;0.000000;-2.707560
10.021698;0.005005;-10.241640;-0.117720;-2.707560
10.026703;0.005005;-10.123920;0.000000;-2.707560
10.031677;0.004974;-10.241640;0.000000;-2.707560
10.036682;0.005005;-10.123920;-0.117720;-2.707560
10.041656;0.004974;-10.006200;0.000000;-2.589840
10.046661;0.005005;-10.006200;-0.235440;-2.472120
10.051636;0.004974;-9.888480;-0.353160;-2.589840
10.056641;0.005005;-10.006200;-0.470880;-2.707560
10.061615;0.004974;-9.888480;-0.353160;-2.707560
10.066620;0.005005;-9.888480;-0.117720;-2.589840
10.071594;0.004974;-9.653040;-0.117720;-2.589840
10.076599;0.005005;-9.535320;0.000000;-2.589840
10.081573;0.004974;-9.182160;0.000000;-2.472120
10.086578;0.005005;-9.064440;0.000000;-2.589840
10.091583;0.005005;-9.182160;0.117720;-2.707560
10.096588;0.005005;-9.417600;0.117720;-2.589840
10.101562;0.004974;-9.770760;0.117720;-2.589840
10.106567;0.005005;-10.006200;0.235440;-2.825280
10.111542;0.004974;-10.123920;0.000000;-2.707560
10.116547;0.005005;-10.241640;-0.117720;-2.707560
10.121521;0.004974;-10.241640;0.000000;-2.707560
10.126526;0.005005;-10.359360;0.000000;-2.472120
10.131500;0.004974;-10.712520;-0.117720;-2.589840
10.136505;0.005005;-10.594800;0.117720;-2.354400
10.141479;0.004974;-10.594800;0.000000;-2.589840
10.146484;0.005005;-10.830240;0.000000;-2.589840
10.151459;0.004974;-10.712520;0.000000;-2.707560
10.156464;0.005005;-10.123920;-0.117720;-2.707560
10.161438;0.004974;-9.888480;0.235440;-2.589840
10.166443;0.005005;-9.770760;0.235440;-2.707560
10.171417;0.004974;-9.653040;0.235440;-2.472120
10.176422;0.005005;-9.535320;0.235440;-2.236680
10.181427;0.005005;-9.535320;0.117720;-2.236680
10.186401;0.004974;-9.770760;0.000000;-2.472120
10.191406;0.005005;-9.770760;-0.117720;-2.354400
10.196381;0.004974;-9.653040;0.117720;-2.472120
10.201385;0.005005;-9.888480;0.117720;-2.589840
10.206360;0.004974;-10.241640;0.117720;-2.707560
10.211365;0.005005;-10.594800;0.117720;-2.707560
10.216339;0.004974;-10.830240;-0.117720;-2.707560
10.221344;0.005005;-11.536560;0.000000;-2.589840
10.226318;0.004974;-11.654280;0.117720;-2.825280
10.231323;0.005005;-11.536560;0.235440;-2.707560
10.236328;0.005005;-11.065680;-0.235440;-2.589840
10.241302;0.004974;-9.653040;-0.117720;-2.354400
10.246277;0.004974;-9.770760;-0.117720;-2.589840
10.251282;0.005005;-10.006200;0.117720;-2.707560
10.256256;0.004974;-9.653040;0.117720;-2.707560
10.261261;0.005005;-9.653040;0.117720;-2.707560
10.266235;0.004974;-9.535320;0.000000;-2.472120
10.271240;0.005005;-9.535320;-0.470880;-2.589840
10.276215;0.004974;-9.770760;-0.353160;-2.589840
10.281219;0.005005;-9.888480;-0.353160;-2.707560
10.286194;0.004974;-9.770760;-0.235440;-2.707560
10.291199;0.005005;-10.006200;-0.235440;-2.707560
10.296173;0.004974;-10.006200;-0.117720;-2.707560
10.301178;0.005005;-10.006200;0.000000;-2.472120
10.306152;0.004974;-9.888480;0.000000;-2.236680
10.311157;0.005005;-10.006200;0.117720;-2.118960
10.316132;0.004974;-10.006200;0.117720;-2.472120
10.321136;0.005005;-10.359360;0.117720;-2.354400
10.326111;0.004974;-10.594800;0.117720;-2.589840
10.331116;0.005005;-10.712520;-0.117720;-2.707560
10.336090;0.004974;-11.065680;0.000000;-2.707560
10.341095;0.005005;-10.712520;0.000000;-2.472120
10.346069;0.004974;-10.477080;-0.117720;-2.472120
10.351074;0.005005;-10.594800;-0.117720;-2.472120
10.356049;0.004974;-10.594800;0.000000;-2.472120
10.361053;0.005005;-10.477080;-0.117720;-2.589840
10.366028;0.004974;-10.359360;0.000000;-2.589840
10.371033;0.005005;-10.359360;0.117720;-2.707560
10.376007;0.004974;-10.123920;0.117720;-2.589840
10.381012;0.005005;-10.123920;-0.117720;-2.354400
10.386017;0.005005;-10.123920;0.000000;-2.354400
10.390991;0.004974;-10.712520;0.000000;-2.589840
10.395996;0.005005;-10.477080;0.000000;-2.354400
10.401001;0.005005;-10.241640;0.000000;-2.589840
10.405975;0.004974;-10.006200;-0.235440;-2.589840
10.410950;0.004974;-9.888480;-0.117720;-2.589840
10.415955;0.005005;-10.006200;0.000000;-2.472120
10.420929;0.004974;-9.653040;-0.117720;-2.472120
10.425934;0.005005;-9.888480;0.000000;-2.589840
10.430908;0.004974;-9.888480;-0.117720;-2.589840
10.435913;0.005005;-9.653040;-0.117720;-2.825280
10.440887;0.004974;-9.888480;0.000000;-2.825280
10.445892;0.005005;-10.123920;0.117720;-2.825280
10.450867;0.004974;-10.359360;0.117720;-2.825280
10.455872;0.005005;-10.594800;0.000000;-2.825280
10.460846;0.004974;-10.712520;0.000000;-2.707560
10.465851;0.005005;-10.359360;0.117720;-2.707560
10.470825;0.004974;-10.830240;0.117720;-2.236680
10.475830;0.005005;-10.477080;0.117720;-2.354400
10.480804;0.004974;-10.477080;-0.117720;-2.354400
10.485809;0.005005;-10.241640;-0.117720;-2.236680
10.490784;0.004974;-10.123920;-0.117720;-2.001240
10.495789;0.005005;-10.241640;-0.235440;-2.236680
10.500763;0.004974;-10.241640;-0.353160;-2.472120
10.505768;0.005005;-10.123920;-0.235440;-2.472120
10.510742;0.004974;-10.241640;-0.117720;-2.236680
10.515747;0.005005;-10.241640;-0.235440;-2.354400
10.520721;0.004974;-10.006200;-0.235440;-2.354400
10.525726;0.005005;-9.888480;-0.235440;-2.589840
10.530731;0.005005;-10.006200;-0.235440;-2.707560
10.535706;0.004974;-9.888480;-0.235440;-2.707560
10.540710;0.005005;-10.006200;-0.470880;-2.707560
10.545685;0.004974;-9.770760;-0.235440;-2.589840
10.550690;0.005005;-9.653040;-0.353160;-2.589840
10.555664;0.004974;-10.006200;-0.117720;-2.354400
10.560669;0.005005;-10.123920;-0.117720;-2.472120
10.565643;0.004974;-10.241640;0.235440;-2.472120
10.570648;0.005005;-10.241640;0.117720;-2.472120
10.575623;0.004974;-10.241640;0.117720;-2.472120
10.580627;0.005005;-10.241640;0.117720;-2.472120
10.585602;0.004974;-10.006200;0.117720;-2.472120
10.590607;0.005005;-10.241640;0.117720;-2.236680
10.595581;0.004974;-10.359360;0.117720;-2.472120
10.600586;0.005005;-9.770760;0.235440;-2.118960
10.605560;0.004974;-10.006200;0.117720;-2.472120
10.610565;0.005005;-10.006200;0.117720;-2.589840
10.615540;0.004974;-10.477080;0.235440;-2.472120
10.620544;0.005005;-10.477080;0.235440;-2.354400
10.625519;0.004974;-10.123920;0.117720;-2.472120
10.630524;0.005005;-10.359360;0.235440;-2.472120
10.635498;0.004974;-10.477080;0.235440;-2.472120
10.640503;0.005005;-10.241640;0.117720;-2.472120
10.645477;0.004974;-10.123920;0.117720;-2.589840
10.650482;0.005005;-9.888480;0.000000;-2.589840
10.655457;0.004974;-9.535320;-0.470880;-2.472120
10.660461;0.005005;-9.535320;-0.353160;-2.589840
10.665436;0.004974;-9.417600;-0.353160;-2.472120
10.670441;0.005005;-9.653040;-0.235440;-2.472120
10.675446;0.005005;-9.653040;-0.235440;-2.589840
10.680420;0.004974;-9.770760;-0.235440;-2.589840
10.685425;0.005005;-9.888480;-0.117720;-2.707560
10.690399;0.004974;-10.006200;-0.117720;-2.707560
10.695404;0.005005;-10.123920;-0.353160;-2.589840
10.700378;0.004974;-10.594800;-0.235440;-2.707560
10.705383;0.005005;-10.359360;-0.353160;-2.472120
10.710358;0.004974;-10.123920;-0.117720;-2.354400
10.715363;0.005005;-10.477080;-0.235440;-2.589840
10.720337;0.004974;-10.123920;-0.235440;-2.354400
10.725342;0.005005;-10.359360;-0.353160;-2.589840
10.730347;0.005005;-10.359360;-0.353160;-2.707560
10.735321;0.004974;-10.359360;-0.117720;-2.707560
10.740326;0.005005;-10.477080;-0.235440;-2.589840
10.745300;0.004974;-10.241640;-0.353160;-2.589840
10.750305;0.005005;-10.123920;-0.117720;-2.589840
10.755310;0.005005;-10.241640;-0.353160;-2.354400
10.760284;0.004974;-10.477080;-0.588600;-2.707560
10.765289;0.005005;-10.006200;-0.588600;-2.354400
10.770264;0.004974;-9.653040;-0.235440;-2.354400
10.775269;0.005005;-10.006200;-0.117720;-2.472120
10.780243;0.004974;-10.123920;0.000000;-2.472120
10.785248;0.005005;-10.359360;-0.117720;-2.707560
10.790222;0.004974;-10.241640;0.000000;-2.589840
10.795227;0.005005;-10.241640;0.000000;-2.707560
10.800232;0.005005;-10.359360;-0.117720;-2.707560
10.805206;0.004974;-10.241640;-0.117720;-2.707560
10.810211;0.005005;-10.359360;0.353160;-2.707560
10.815186;0.004974;-10.123920;0.235440;-2.707560
10.820190;0.005005;-10.359360;0.117720;-2.825280
10.825195;0.005005;-10.830240;0.117720;-2.707560
10.830170;0.004974;-11.065680;0.235440;-2.472120
10.835175;0.005005;-10.594800;0.117720;-2.236680
10.840179;0.005005;-10.241640;0.235440;-2.118960
10.845154;0.004974;-10.006200;0.353160;-2.236680
10.850128;0.004974;-9.888480;0.235440;-2.236680
10.855133;0.005005;-10.241640;0.117720;-2.472120
10.860138;0.005005;-10.241640;0.117720;-2.236680
10.865112;0.004974;-9.770760;0.117720;-2.118960
10.870117;0.005005;-10.123920;0.117720;-2.354400
10.875092;0.004974;-10.241640;0.235440;-2.354400
10.880096;0.005005;-10.006200;0.235440;-2.589840
10.885101;0.005005;-10.006200;0.117720;-2.589840
10.890076;0.004974;-10.006200;0.000000;-2.707560
10.895050;0.004974;-9.888480;0.117720;-2.707560
10.900055;0.005005;-10.359360;0.000000;-2.707560
10.905029;0.004974;-10.712520;0.000000;-2.472120
10.910034;0.005005;-10.830240;0.000000;-2.472120
10.915039;0.005005;-10.594800;-0.235440;-2.589840
10.920013;0.004974;-10.594800;-0.117720;-2.589840
10.925018;0.005005;-10.477080;-0.117720;-2.472120
10.929993;0.004974;-10.241640;0.000000;-2.236680
10.934998;0.005005;-10.241640;0.000000;-2.236680
10.939972;0.004974;-10.359360;0.235440;-2.118960
10.944977;0.005005;-10.359360;0.235440;-2.354400
10.949951;0.004974;-10.477080;0.235440;-2.354400
10.954956;0.005005;-10.123920;0.000000;-2.589840
10.959930;0.004974;-11.301120;0.941760;-2.354400
10.964935;0.005005;-10.594800;0.470880;-2.354400
10.969910;0.004974;-10.594800;0.235440;-2.589840
10.974915;0.005005;-10.477080;0.117720;-2.589840
10.979889;0.004974;-10.241640;-0.117720;-2.707560
10.984894;0.005005;-10.006200;-0.117720;-2.707560
10.989868;0.004974;-10.123920;0.000000;-2.589840
10.994873;0.005005;-10.123920;0.000000;-2.354400
10.999847;0.004974;-10.241640;-0.117720;-2.354400
11.004852;0.005005;-9.888480;0.000000;-2.354400
11.009827;0.004974;-10.123920;-0.588600;-2.236680
11.014832;0.005005;-10.241640;-0.117720;-2.118960
11.019806;0.004974;-11.183400;0.353160;-1.883520
11.024811;0.005005;-10.947960;0.235440;-2.118960
11.029785;0.004974;-10.712520;-0.117720;-2.354400
11.034790;0.005005;-10.594800;0.000000;-2.472120
11.039795;0.005005;-10.594800;-0.235440;-2.472120
11.044769;0.004974;-10.594800;-0.235440;-2.589840
11.049774;0.005005;-10.477080;-0.117720;-2.472120
11.054749;0.004974;-10.477080;-0.470880;-2.236680
11.059753;0.005005;-10.594800;-0.235440;-2.354400
11.064728;0.004974;-10.123920;-0.235440;-2.236680
11.069733;0.005005;-10.830240;-0.117720;-2.118960
11.074707;0.004974;-10.594800;-0.353160;-2.354400
11.079712;0.005005;-10.594800;-0.353160;-2.118960
11.084686;0.004974;-10.594800;-0.117720;-2.236680
11.089691;0.005005;-10.712520;-0.353160;-2.118960
11.094666;0.004974;-10.241640;-0.353160;-2.118960
11.099670;0.005005;-10.241640;-0.470880;-2.354400
11.104645;0.004974;-10.123920;-0.706320;-2.118960
11.109650;0.005005;-10.241640;-0.588600;-2.236680
11.114624;0.004974;-10.123920;-0.588600;-2.589840
11.119629;0.005005;-10.123920;-0.470880;-2.354400
11.124634;0.005005;-10.241640;-0.588600;-2.236680
11.129608;0.004974;-10.123920;-0.235440;-2.236680
11.134613;0.005005;-10.359360;-0.588600;-2.354400
11.139587;0.004974;-10.477080;-0.706320;-2.472120
11.144592;0.005005;-10.477080;-0.941760;-2.236680
11.149567;0.004974;-10.241640;-1.059480;-1.883520
11.154572;0.005005;-10.006200;-0.941760;-2.118960
11.159576;0.005005;-10.241640;-0.470880;-2.001240
11.164551;0.004974;-10.241640;-0.706320;-2.001240
11.169556;0.005005;-10.006200;-0.824040;-2.354400
11.174530;0.004974;-9.888480;-0.706320;-2.236680
11.179535;0.005005;-10.123920;-0.470880;-2.118960
11.184509;0.004974;-10.359360;-0.470880;-2.589840
11.189514;0.005005;-10.241640;-0.470880;-2.707560
11.194489;0.004974;-10.241640;-0.353160;-2.707560
11.199493;0.005005;-10.123920;-0.353160;-2.472120
11.204498;0.005005;-10.123920;-0.235440;-2.589840
11.209473;0.004974;-10.241640;-0.470880;-2.354400
11.214478;0.005005;-10.123920;-0.235440;-2.472120
11.219452;0.004974;-10.006200;-0.588600;-2.354400
11.224457;0.005005;-10.006200;-0.117720;-2.354400
11.229431;0.004974;-10.006200;-0.353160;-2.589840
11.234436;0.005005;-10.006200;-0.941760;-3.060720
11.239410;0.004974;-8.122680;-0.706320;-0.941760
11.244415;0.005005;-9.064440;-0.353160;-2.118960
11.249390;0.004974;-9.653040;-0.235440;-2.354400
11.254395;0.005005;-10.241640;-0.470880;-2.472120
11.259369;0.004974;-10.123920;-0.470880;-2.589840
11.264374;0.005005;-10.359360;-0.353160;-2.472120
11.269348;0.004974;-10.241640;-0.235440;-2.472120
11.274353;0.005005;-10.123920;-0.353160;-2.354400
11.279358;0.005005;-10.123920;-0.353160;-2.589840
11.284332;0.004974;-9.888480;0.000000;-2.589840
11.289337;0.005005;-10.006200;-0.235440;-2.589840
11.294312;0.004974;-10.123920;-0.470880;-2.589840
11.299316;0.005005;-10.123920;-0.824040;-2.589840
11.304291;0.004974;-10.006200;-0.824040;-2.707560
11.309296;0.005005;-10.123920;-0.706320;-2.707560
11.314270;0.004974;-10.006200;-0.588600;-2.707560
11.319275;0.005005;-10.006200;-0.353160;-2.589840
11.324249;0.004974;-9.888480;-0.117720;-2.707560
11.329254;0.005005;-10.123920;-0.235440;-2.707560
11.334259;0.005005;-10.359360;-0.353160;-2.707560
11.339233;0.004974;-10.241640;-0.235440;-2.354400
11.344238;0.005005;-10.241640;-0.353160;-2.589840
11.349243;0.005005;-10.241640;-0.470880;-2.589840
11.354218;0.004974;-10.241640;-0.470880;-2.825280
11.359222;0.005005;-10.123920;-0.353160;-2.589840
11.364197;0.004974;-10.241640;-0.235440;-2.707560
11.369202;0.005005;-10.006200;-0.588600;-2.472120
11.374176;0.004974;-10.006200;-0.470880;-2.472120
11.379181;0.005005;-10.006200;-0.235440;-2.589840
11.384186;0.005005;-9.888480;-0.353160;-2.707560
11.389160;0.004974;-10.006200;-0.353160;-2.707560
11.394165;0.005005;-10.006200;-0.353160;-2.707560
11.399139;0.004974;-10.006200;-0.353160;-2.707560
11.404144;0.005005;-10.359360;-0.353160;-2.707560
11.409119;0.004974;-10.123920;-0.353160;-2.589840
11.414124;0.005005;-10.006200;-0.353160;-2.707560
11.419128;0.005005;-9.888480;-0.353160;-2.589840
11.424103;0.004974;-10.359360;-0.235440;-2.707560
11.429108;0.005005;-10.477080;-0.588600;-2.707560
11.434082;0.004974;-10.359360;-0.353160;-2.589840
11.439087;0.005005;-10.123920;-0.470880;-2.707560
11.444061;0.004974;-10.359360;-0.353160;-2.707560
11.449066;0.005005;-10.477080;-0.117720;-2.707560
11.454071;0.005005;-10.712520;-0.117720;-2.707560
11.459045;0.004974;-10.712520;-0.117720;-2.707560
11.464050;0.005005;-10.359360;-0.235440;-2.707560
11.469025;0.004974;-10.241640;-0.117720;-2.589840
11.474030;0.005005;-10.123920;0.117720;-2.707560
11.479004;0.004974;-9.888480;0.117720;-2.354400
11.484009;0.005005;-9.888480;0.117720;-2.236680
11.488983;0.004974;-10.006200;0.117720;-2.354400
11.493988;0.005005;-9.888480;0.000000;-2.707560
11.498962;0.004974;-9.888480;0.000000;-2.354400
11.503967;0.005005;-10.594800;0.117720;-2.589840
11.508942;0.004974;-10.241640;0.000000;-2.707560
11.513947;0.005005;-10.241640;0.000000;-2.707560
11.518921;0.004974;-10.241640;-0.235440;-2.589840
11.523895;0.004974;-10.712520;-0.235440;-2.943000
11.528900;0.005005;-10.359360;0.000000;-2.707560
11.533905;0.005005;-9.417600;0.353160;-2.001240
11.538879;0.004974;-10.241640;0.117720;-2.236680
11.543854;0.004974;-10.594800;-0.117720;-2.707560
11.548859;0.005005;-10.594800;-0.353160;-2.707560
11.553833;0.004974;-10.241640;-0.470880;-2.472120
11.558838;0.005005;-10.241640;-0.235440;-2.472120
11.563812;0.004974;-10.123920;-0.117720;-2.472120
11.568817;0.005005;-10.359360;-0.117720;-2.589840
11.573822;0.005005;-10.477080;-0.235440;-2.825280
11.578796;0.004974;-10.123920;-0.588600;-2.825280
11.583801;0.005005;-10.123920;-0.706320;-2.707560
11.588776;0.004974;-10.006200;-0.588600;-2.589840
11.593781;0.005005;-10.241640;-0.706320;-2.707560
11.598755;0.004974;-10.241640;-0.706320;-2.589840
11.603760;0.005005;-10.241640;-0.706320;-2.589840
11.608765;0.005005;-10.241640;-0.470880;-2.589840
11.613739;0.004974;-10.359360;-0.588600;-2.707560
11.618744;0.005005;-10.006200;-0.470880;-2.707560
11.623718;0.004974;-9.888480;-0.353160;-2.472120
11.628723;0.005005;-9.888480;-0.117720;-2.589840
11.633698;0.004974;-9.770760;-0.235440;-2.707560
11.638702;0.005005;-9.888480;-0.235440;-2.589840
11.643707;0.005005;-9.888480;-0.353160;-2.589840
11.648682;0.004974;-10.123920;-0.117720;-2.707560
11.653687;0.005005;-10.006200;-0.117720;-2.707560
11.658661;0.004974;-10.123920;-0.117720;-2.943000
11.663666;0.005005;-10.241640;-0.235440;-2.825280
11.668640;0.004974;-10.006200;-0.117720;-2.589840
11.673645;0.005005;-9.888480;-0.353160;-2.707560
11.678619;0.004974;-10.006200;-0.117720;-2.707560
11.683624;0.005005;-10.006200;-0.235440;-2.943000
11.688599;0.004974;-10.006200;-0.470880;-2.707560
11.693604;0.005005;-10.006200;-0.235440;-2.707560
11.698578;0.004974;-10.006200;-0.117720;-2.707560
11.703583;0.005005;-10.123920;-0.235440;-2.707560
11.708557;0.004974;-10.241640;-0.470880;-2.589840
11.713562;0.005005;-10.006200;-0.824040;-2.589840
11.718536;0.004974;-10.241640;-0.824040;-2.707560
11.723541;0.005005;-10.123920;-0.353160;-2.589840
11.728516;0.004974;-10.006200;-0.353160;-2.589840
11.733521;0.005005;-10.123920;-0.470880;-2.589840
11.738495;0.004974;-9.888480;-0.470880;-2.589840
11.743500;0.005005;-9.888480;-0.353160;-2.707560
11.748474;0.004974;-9.888480;-0.588600;-2.354400
11.753479;0.005005;-9.888480;-0.706320;-2.472120
11.758484;0.005005;-10.006200;-0.706320;-2.589840
11.763458;0.004974;-9.888480;-0.588600;-2.707560
11.768463;0.005005;-9.770760;-0.824040;-2.707560
11.773438;0.004974;-9.888480;-0.588600;-2.707560
11.778442;0.005005;-10.123920;-0.588600;-2.707560
11.783417;0.004974;-10.123920;-0.470880;-2.589840
11.788422;0.005005;-10.006200;-0.470880;-2.707560
11.793396;0.004974;-9.653040;-0.470880;-2.707560
11.798401;0.005005;-9.535320;-0.353160;-2.707560
11.803375;0.004974;-9.535320;-0.470880;-2.707560
11.808380;0.005005;-9.653040;-0.470880;-2.825280
11.813354;0.004974;-9.770760;-0.706320;-2.943000
11.818359;0.005005;-9.535320;-0.470880;-2.825280
11.823364;0.005005;-9.653040;-0.588600;-2.825280
11.828339;0.004974;-9.770760;-0.470880;-2.707560
11.833344;0.005005;-9.888480;-0.470880;-2.707560
11.838348;0.005005;-9.888480;-0.470880;-2.589840
11.843323;0.004974;-9.888480;-0.706320;-2.707560
11.848328;0.005005;-10.006200;-0.824040;-2.825280
11.853302;0.004974;-10.123920;-0.706320;-2.825280
11.858307;0.005005;-9.888480;-0.470880;-2.943000
11.863312;0.005005;-9.888480;-0.470880;-2.825280
11.868286;0.004974;-10.006200;-0.353160;-2.825280
11.873291;0.005005;-9.770760;-0.117720;-2.825280
11.878265;0.004974;-10.006200;0.000000;-2.825280
11.883270;0.005005;-9.888480;0.000000;-2.825280
11.888245;0.004974;-10.006200;-0.117720;-2.825280
11.893250;0.005005;-10.006200;-0.117720;-2.707560
11.898224;0.004974;-10.123920;0.000000;-2.825280
11.903229;0.005005;-10.241640;-0.117720;-2.825280
11.908203;0.004974;-10.006200;0.000000;-2.825280
11.913208;0.005005;-9.888480;0.000000;-2.825280
11.918182;0.004974;-9.888480;-0.117720;-2.825280
11.923187;0.005005;-10.006200;0.117720;-2.943000
11.928192;0.005005;-9.888480;-0.117720;-2.943000
11.933167;0.004974;-9.770760;0.000000;-2.825280
11.938171;0.005005;-9.888480;-0.235440;-2.825280
11.943146;0.004974;-10.123920;-0.353160;-2.943000
11.948151;0.005005;-10.123920;-0.588600;-2.825280
11.953156;0.005005;-10.006200;-0.470880;-2.825280
11.958130;0.004974;-9.888480;-0.588600;-2.825280
11.963135;0.005005;-10.006200;-0.235440;-2.825280
11.968109;0.004974;-10.123920;-0.117720;-2.707560
11.973114;0.005005;-10.241640;-0.353160;-2.825280
11.978119;0.005005;-10.359360;-0.235440;-2.825280
11.983093;0.004974;-10.477080;-0.235440;-2.707560
11.988098;0.005005;-10.477080;-0.235440;-2.707560
11.993073;0.004974;-10.123920;-0.117720;-2.589840
11.998077;0.005005;-10.006200;0.000000;-2.707560
12.003052;0.004974;-10.123920;0.000000;-2.707560
12.008057;0.005005;-10.123920;0.000000;-2.825280
12.013062;0.005005;-10.241640;-0.235440;-2.943000
12.018036;0.004974;-10.241640;-0.117720;-2.943000
12.023041;0.005005;-10.006200;-0.117720;-2.707560
12.028015;0.004974;-10.006200;0.000000;-2.707560
12.033020;0.005005;-10.123920;0.000000;-2.707560
12.038025;0.005005;-10.123920;-0.117720;-2.707560
12.042999;0.004974;-10.241640;-0.235440;-2.943000
12.048004;0.005005;-10.241640;-0.117720;-2.825280
12.052979;0.004974;-10.123920;0.000000;-2.825280
12.057983;0.005005;-10.241640;-0.117720;-2.825280
12.062958;0.004974;-10.359360;0.000000;-2.825280
12.067963;0.005005;-10.359360;0.000000;-2.825280
12.072968;0.005005;-10.359360;-0.117720;-2.825280
12.077942;0.004974;-10.359360;0.000000;-2.825280
12.082947;0.005005;-10.241640;-0.117720;-2.825280
12.087921;0.004974;-10.123920;-0.117720;-2.825280
12.092926;0.005005;-10.123920;-0.117720;-2.825280
12.097931;0.005005;-10.123920;-0.235440;-2.825280
12.102905;0.004974;-10.123920;-0.117720;-2.825280
12.107910;0.005005;-10.006200;-0.117720;-2.825280
12.112885;0.004974;-9.888480;0.000000;-2.825280
12.117889;0.005005;-9.770760;-0.235440;-2.825280
12.122864;0.004974;-9.770760;-0.235440;-2.825280
12.127869;0.005005;-9.770760;-0.235440;-2.707560
12.132843;0.004974;-9.653040;-0.117720;-2.707560
12.137848;0.005005;-9.888480;-0.470880;-2.707560
12.142822;0.004974;-9.770760;-0.353160;-2.589840
12.147827;0.005005;-10.006200;-0.235440;-2.707560
12.152802;0.004974;-10.006200;-0.235440;-2.707560
12.157806;0.005005;-10.006200;-0.235440;-2.825280
12.162781;0.004974;-10.123920;-0.235440;-2.825280
12.167786;0.005005;-10.241640;-0.117720;-2.943000
12.172760;0.004974;-10.241640;0.117720;-2.825280
12.177765;0.005005;-10.359360;0.353160;-2.825280
12.182739;0.004974;-10.241640;0.235440;-2.825280
12.187744;0.005005;-10.477080;-0.117720;-2.825280
12.192719;0.004974;-10.359360;0.000000;-2.825280
12.197723;0.005005;-10.241640;0.000000;-2.825280
12.202698;0.004974;-10.123920;-0.117720;-2.825280
12.207703;0.005005;-10.241640;-0.117720;-2.825280
12.212708;0.005005;-10.359360;-0.117720;-2.589840
12.217682;0.004974;-10.241640;0.000000;-2.707560
12.222687;0.005005;-10.359360;0.000000;-2.589840
12.227661;0.004974;-10.359360;0.000000;-2.589840
12.232666;0.005005;-10.359360;-0.235440;-2.707560
12.237671;0.005005;-10.006200;-0.235440;-2.589840
12.242645;0.004974;-10.123920;-0.235440;-2.589840
12.247650;0.005005;-10.359360;-0.235440;-2.589840
12.252625;0.004974;-10.241640;0.000000;-2.707560
12.257629;0.005005;-10.123920;-0.117720;-2.354400
12.262634;0.005005;-10.241640;-0.117720;-2.472120
12.267609;0.004974;-10.241640;-0.117720;-2.472120
12.272614;0.005005;-10.359360;-0.235440;-2.589840
