# FOX Logger (IMU file)
# (c) INRIA 2011-2013
#
# File created from file HKB0_02.RAW
#
# File format:
# t;dt;ax;ay;az
#
# Units:
#	Time: s
#	Acceleration: m.s^-2
#
0.000031;0.000031;-6.827760;0.000000;-6.592320
0.005035;0.005005;-6.945480;0.000000;-6.710040
0.010010;0.004974;-6.592320;0.235440;-7.063200
0.015015;0.005005;-6.592320;0.117720;-6.945480
0.019989;0.004974;-6.592320;0.470880;-7.180920
0.024994;0.005005;-6.592320;0.588600;-7.769520
0.029999;0.005005;-6.474600;0.353160;-8.122680
0.035004;0.005005;-6.474600;0.353160;-8.122680
0.039978;0.004974;-6.592320;0.117720;-8.240400
0.044983;0.005005;-6.474600;0.353160;-8.240400
0.049957;0.004974;-6.592320;0.117720;-8.475840
0.054962;0.005005;-6.474600;0.117720;-8.711280
0.059937;0.004974;-6.474600;0.117720;-8.829000
0.064941;0.005005;-6.356880;0.353160;-9.064440
0.069946;0.005005;-6.356880;0.235440;-9.535320
0.074921;0.004974;-6.356880;0.117720;-9.770760
0.079926;0.005005;-6.356880;0.000000;-9.653040
0.084930;0.005005;-6.592320;0.117720;-9.535320
0.089905;0.004974;-6.356880;0.117720;-9.417600
0.094910;0.005005;-6.474600;0.117720;-9.653040
0.099884;0.004974;-6.592320;0.235440;-9.770760
0.104889;0.005005;-6.592320;0.117720;-9.535320
0.109863;0.004974;-6.710040;0.117720;-9.888480
0.114868;0.005005;-6.710040;0.235440;-10.006200
0.119843;0.004974;-6.592320;0.235440;-10.123920
0.124847;0.005005;-6.710040;0.353160;-10.123920
0.129822;0.004974;-6.827760;0.588600;-10.241640
0.134827;0.005005;-6.592320;0.470880;-10.241640
0.139801;0.004974;-6.356880;0.353160;-10.123920
0.144806;0.005005;-6.121440;0.235440;-10.006200
0.149780;0.004974;-6.003720;0.353160;-9.888480
0.154785;0.005005;-5.650560;0.470880;-10.006200
0.159760;0.004974;-5.886000;0.117720;-10.123920
0.164764;0.005005;-6.003720;0.117720;-10.006200
0.169739;0.004974;-5.886000;0.117720;-9.770760
0.174744;0.005005;-5.886000;0.000000;-9.417600
0.179749;0.005005;-5.768280;0.000000;-9.417600
0.184723;0.004974;-5.650560;-0.117720;-9.299880
0.189728;0.005005;-5.650560;0.117720;-9.182160
0.194702;0.004974;-5.415120;0.117720;-8.829000
0.199707;0.005005;-5.297400;0.235440;-8.593560
0.204712;0.005005;-4.944240;-0.117720;-8.475840
0.209686;0.004974;-4.944240;-0.353160;-8.240400
0.214691;0.005005;-4.944240;-0.235440;-8.240400
0.219666;0.004974;-4.944240;-0.353160;-8.358120
0.224670;0.005005;-4.826520;-0.353160;-8.475840
0.229645;0.004974;-4.591080;-0.353160;-8.358120
0.234650;0.005005;-4.944240;-0.235440;-8.240400
0.239655;0.005005;-4.944240;-0.117720;-8.004960
0.244629;0.004974;-4.944240;0.000000;-8.004960
0.249634;0.005005;-4.944240;0.000000;-7.887240
0.254608;0.004974;-5.061960;0.117720;-7.769520
0.259613;0.005005;-5.179680;0.117720;-8.475840
0.264618;0.005005;-4.944240;0.235440;-8.711280
0.269592;0.004974;-5.532840;0.353160;-8.711280
0.274597;0.005005;-5.297400;0.353160;-9.417600
0.279572;0.004974;-5.415120;0.470880;-9.653040
0.284576;0.005005;-5.650560;0.353160;-10.006200
0.289551;0.004974;-5.886000;0.470880;-10.006200
0.294556;0.005005;-5.650560;0.235440;-9.535320
0.299530;0.004974;-5.415120;0.117720;-8.829000
0.304535;0.005005;-5.297400;-0.117720;-8.358120
0.309509;0.004974;-5.179680;-0.235440;-7.769520
0.314514;0.005005;-4.944240;-0.117720;-7.298640
0.319489;0.004974;-5.061960;0.000000;-6.945480
0.324493;0.005005;-4.826520;0.000000;-6.710040
0.329498;0.005005;-4.944240;0.235440;-6.592320
0.334473;0.004974;-4.944240;0.235440;-6.592320
0.339478;0.005005;-5.061960;0.353160;-7.534080
0.344452;0.004974;-5.768280;0.470880;-8.004960
0.349457;0.005005;-6.003720;0.588600;-8.122680
0.354462;0.005005;-6.003720;0.706320;-8.240400
0.359436;0.004974;-5.886000;0.706320;-8.122680
0.364441;0.005005;-6.003720;0.353160;-7.416360
0.369415;0.004974;-5.768280;0.588600;-6.945480
0.374420;0.005005;-5.650560;0.235440;-6.710040
0.379395;0.004974;-5.415120;0.117720;-6.474600
0.384399;0.005005;-5.297400;0.117720;-6.356880
0.389404;0.005005;-5.179680;0.000000;-6.239160
0.394379;0.004974;-5.179680;0.117720;-6.239160
0.399384;0.005005;-5.179680;0.117720;-6.474600
0.404388;0.005005;-5.415120;0.117720;-6.474600
0.409363;0.004974;-5.415120;0.000000;-6.474600
0.414368;0.005005;-5.297400;-0.117720;-6.239160
0.419373;0.005005;-4.944240;-0.117720;-6.239160
0.424347;0.004974;-5.179680;-0.588600;-6.003720
0.429352;0.005005;-5.061960;-0.588600;-6.121440
0.434326;0.004974;-4.944240;-0.235440;-6.356880
0.439331;0.005005;-4.944240;-0.353160;-6.474600
0.444305;0.004974;-5.061960;-0.353160;-6.239160
0.449310;0.005005;-4.944240;-0.706320;-6.356880
0.454315;0.005005;-5.061960;-0.941760;-6.239160
0.459290;0.004974;-5.179680;-0.941760;-6.356880
0.464294;0.005005;-5.297400;-0.706320;-6.592320
0.469269;0.004974;-5.061960;-0.941760;-6.710040
0.474274;0.005005;-5.061960;-0.941760;-6.710040
0.479279;0.005005;-5.415120;-0.588600;-6.592320
0.484253;0.004974;-5.650560;-0.353160;-6.710040
0.489258;0.005005;-5.768280;-0.353160;-6.827760
0.494232;0.004974;-5.768280;-0.117720;-6.710040
0.499237;0.005005;-5.650560;-0.117720;-6.710040
0.504211;0.004974;-5.297400;-0.353160;-6.592320
0.509216;0.005005;-5.415120;-0.353160;-6.592320
0.514221;0.005005;-5.532840;-0.353160;-6.827760
0.519196;0.004974;-5.650560;-0.588600;-6.827760
0.524200;0.005005;-5.886000;-0.824040;-6.710040
0.529205;0.005005;-5.768280;-0.824040;-6.592320
0.534180;0.004974;-5.650560;-1.294920;-6.710040
0.539185;0.005005;-5.886000;-0.941760;-6.827760
0.544159;0.004974;-6.474600;-1.059480;-7.651800
0.549164;0.005005;-6.945480;-1.294920;-8.593560
0.554169;0.005005;-7.298640;-1.530360;-9.535320
0.559143;0.004974;-7.769520;-1.648080;-10.594800
0.564148;0.005005;-7.769520;-1.765800;-11.418840
0.569122;0.004974;-7.769520;-1.765800;-12.125160
0.574127;0.005005;-8.004960;-1.765800;-12.478320
0.579102;0.004974;-7.416360;-1.648080;-12.478320
0.584106;0.005005;-10.477080;-2.001240;-12.242880
0.589081;0.004974;-9.888480;-3.413880;-12.360600
0.594086;0.005005;-7.651800;-2.001240;-9.299880
0.599060;0.004974;-9.182160;-1.883520;-8.122680
0.604065;0.005005;-3.884760;0.117720;-6.003720
0.609039;0.004974;-5.886000;-0.824040;-6.121440
0.614044;0.005005;-6.474600;-1.294920;-6.356880
0.619019;0.004974;-6.239160;-1.530360;-6.239160
0.624023;0.005005;-5.886000;-1.648080;-6.356880
0.628998;0.004974;-5.768280;-1.530360;-6.474600
0.634003;0.005005;-5.886000;-1.648080;-6.592320
0.639008;0.005005;-5.886000;-1.530360;-6.592320
0.643982;0.004974;-6.003720;-1.648080;-6.592320
0.648987;0.005005;-6.121440;-1.412640;-6.474600
0.653961;0.004974;-6.121440;-1.059480;-6.356880
0.658966;0.005005;-5.768280;-0.706320;-6.121440
0.663971;0.005005;-5.532840;-0.941760;-6.356880
0.668945;0.004974;-5.415120;-0.824040;-6.356880
0.673950;0.005005;-5.650560;-0.588600;-6.710040
0.678925;0.004974;-6.121440;-0.470880;-6.827760
0.683929;0.005005;-6.121440;-0.470880;-7.534080
0.688934;0.005005;-6.474600;-0.941760;-8.004960
0.693909;0.004974;-6.592320;-1.059480;-8.475840
0.698914;0.005005;-6.592320;-0.588600;-9.299880
0.703888;0.004974;-6.592320;-0.353160;-9.888480
0.708893;0.005005;-6.121440;-0.117720;-10.359360
0.713867;0.004974;-5.768280;-0.117720;-10.594800
0.718872;0.005005;-5.768280;-0.353160;-11.065680
0.723846;0.004974;-5.650560;-0.353160;-11.301120
0.728851;0.005005;-5.415120;-0.353160;-11.301120
0.733826;0.004974;-5.061960;-0.470880;-11.889720
0.738831;0.005005;-4.591080;-0.353160;-11.889720
0.743835;0.005005;-3.884760;-0.117720;-11.772000
0.748810;0.004974;-3.296160;0.235440;-11.772000
0.753815;0.005005;-3.178440;0.000000;-11.772000
0.758789;0.004974;-2.943000;-0.588600;-12.125160
0.763794;0.005005;-3.060720;-0.824040;-12.007440
0.768799;0.005005;-3.178440;-0.941760;-11.418840
0.773773;0.004974;-3.178440;-1.294920;-10.947960
0.778778;0.005005;-3.060720;-1.412640;-10.594800
0.783752;0.004974;-3.060720;-1.648080;-10.123920
0.788757;0.005005;-2.589840;-1.648080;-9.888480
0.793732;0.004974;-2.589840;-1.177200;-10.006200
0.798737;0.005005;-2.472120;-1.059480;-10.006200
0.803711;0.004974;-2.236680;-1.412640;-9.653040
0.808716;0.005005;-2.001240;-1.648080;-9.417600
0.813690;0.004974;-1.883520;-1.177200;-9.535320
0.818695;0.005005;-1.883520;-1.177200;-9.535320
0.823700;0.005005;-2.118960;-2.001240;-9.888480
0.828674;0.004974;-2.236680;-2.589840;-10.006200
0.833679;0.005005;-2.589840;-2.472120;-9.770760
0.838654;0.004974;-2.707560;-2.354400;-10.006200
0.843658;0.005005;-2.825280;-2.354400;-10.123920
0.848633;0.004974;-3.060720;-2.589840;-10.006200
0.853638;0.005005;-3.178440;-2.943000;-9.888480
0.858643;0.005005;-2.943000;-2.589840;-10.123920
0.863617;0.004974;-2.825280;-2.354400;-10.123920
0.868622;0.005005;-2.472120;-2.118960;-10.123920
0.873596;0.004974;-2.118960;-2.118960;-9.888480
0.878601;0.005005;-2.001240;-2.001240;-9.653040
0.883575;0.004974;-1.883520;-1.883520;-9.299880
0.888580;0.005005;-1.059480;-1.883520;-8.946720
0.893585;0.005005;-0.588600;-1.883520;-8.829000
0.898560;0.004974;-0.235440;-2.001240;-8.593560
0.903564;0.005005;0.000000;-1.883520;-8.593560
0.908539;0.004974;0.000000;-1.883520;-8.711280
0.913544;0.005005;0.117720;-1.883520;-8.711280
0.918518;0.004974;-0.117720;-1.883520;-8.829000
0.923523;0.005005;0.000000;-2.001240;-8.711280
0.928528;0.005005;0.000000;-2.001240;-8.593560
0.933502;0.004974;-0.824040;-2.354400;-8.358120
0.938507;0.005005;-1.294920;-3.060720;-8.122680
0.943481;0.004974;-1.294920;-3.649320;-7.298640
0.948486;0.005005;-0.706320;-2.825280;-6.827760
0.953461;0.004974;-0.470880;-2.589840;-6.710040
0.958466;0.005005;-0.706320;-2.707560;-6.827760
0.963470;0.005005;-0.824040;-2.825280;-6.710040
0.968445;0.004974;-0.470880;-2.589840;-6.474600
0.973450;0.005005;-0.470880;-2.589840;-6.474600
0.978424;0.004974;-0.706320;-2.472120;-6.474600
0.983429;0.005005;-1.059480;-2.707560;-6.356880
0.988403;0.004974;-1.294920;-3.178440;-6.239160
0.993408;0.005005;-1.059480;-3.178440;-6.003720
0.998383;0.004974;-1.177200;-3.413880;-5.768280
1.003387;0.005005;-0.824040;-3.413880;-5.886000
1.008392;0.005005;-0.353160;-3.413880;-6.003720
1.013367;0.004974;0.000000;-2.943000;-6.121440
1.018372;0.005005;0.000000;-2.354400;-6.239160
1.023346;0.004974;0.000000;-2.118960;-6.356880
1.028351;0.005005;0.000000;-1.059480;-6.239160
1.033325;0.004974;0.000000;0.000000;-5.415120
1.038330;0.005005;-0.117720;-0.235440;-5.179680
1.043304;0.004974;-0.470880;-1.059480;-4.944240
1.048309;0.005005;-0.824040;-1.412640;-4.826520
1.053284;0.004974;-1.177200;-1.648080;-4.591080
1.058289;0.005005;-1.530360;-1.648080;-4.708800
1.063293;0.005005;-1.765800;-2.118960;-4.944240
1.068268;0.004974;-2.118960;-2.354400;-5.061960
1.073273;0.005005;-2.236680;-2.001240;-5.650560
1.078247;0.004974;-2.943000;-2.001240;-6.239160
1.083252;0.005005;-3.060720;-2.236680;-7.063200
1.088226;0.004974;-4.120200;-1.412640;-7.887240
1.093231;0.005005;-4.473360;-1.648080;-8.240400
1.098236;0.005005;-5.061960;-2.236680;-9.064440
1.103210;0.004974;-5.179680;-2.236680;-9.299880
1.108215;0.005005;-5.415120;-2.472120;-9.770760
1.113190;0.004974;-5.886000;-2.472120;-9.770760
1.118195;0.005005;-6.239160;-2.354400;-9.064440
1.123199;0.005005;-6.592320;-3.060720;-8.711280
1.128174;0.004974;-7.063200;-3.531600;-8.240400
1.133179;0.005005;-6.827760;-2.707560;-7.298640
1.138153;0.004974;-6.710040;-2.118960;-5.415120
1.143158;0.005005;-6.474600;-2.001240;-4.120200
1.148132;0.004974;-6.592320;-1.883520;-3.296160
1.153137;0.005005;-6.121440;-2.001240;-2.943000
1.158142;0.005005;-5.886000;-1.765800;-2.354400
1.163116;0.004974;-5.532840;-1.765800;-2.472120
1.168121;0.005005;-5.061960;-1.883520;-2.589840
1.173096;0.004974;-5.179680;-2.001240;-2.707560
1.178101;0.005005;-5.297400;-2.001240;-2.707560
1.183075;0.004974;-5.415120;-1.883520;-2.707560
1.188080;0.005005;-5.768280;-2.236680;-2.589840
1.193054;0.004974;-6.003720;-2.707560;-2.589840
1.198059;0.005005;-6.710040;-3.531600;-2.825280
1.203064;0.005005;-7.769520;-4.002480;-2.825280
1.208038;0.004974;-8.240400;-4.708800;-2.707560
1.213043;0.005005;-8.122680;-4.944240;-2.589840
1.218018;0.004974;-7.887240;-4.237920;-2.118960
1.223022;0.005005;-8.358120;-3.767040;-1.177200
1.228027;0.005005;-8.829000;-4.355640;-0.824040
1.233002;0.004974;-8.711280;-5.768280;-0.941760
1.238007;0.005005;-8.004960;-6.356880;-1.530360
1.242981;0.004974;-7.769520;-5.886000;-2.236680
1.247986;0.005005;-8.358120;-4.708800;-3.296160
1.252991;0.005005;-8.946720;-3.296160;-4.120200
1.257965;0.004974;-9.888480;-2.001240;-4.944240
1.262970;0.005005;-10.712520;-0.941760;-4.944240
1.267944;0.004974;-10.477080;-0.706320;-3.884760
1.272949;0.005005;-10.359360;-1.294920;-2.236680
1.277924;0.004974;-8.240400;4.944240;0.000000
1.282928;0.005005;-10.712520;0.117720;4.708800
1.287903;0.004974;-12.242880;-4.355640;6.356880
1.292908;0.005005;-14.950440;-5.179680;6.003720
1.297882;0.004974;-15.303600;-1.530360;11.772000
1.302887;0.005005;-12.596040;-0.117720;16.009920
1.307861;0.004974;-13.184640;-0.470880;10.359360
1.312866;0.005005;-12.949200;-1.765800;9.299880
1.317871;0.005005;-12.242880;-2.236680;6.710040
1.322845;0.004974;-11.065680;-2.589840;4.708800
1.327850;0.005005;-10.830240;-2.236680;4.591080
1.332825;0.004974;-9.770760;-1.412640;3.884760
1.337830;0.005005;-9.535320;-1.294920;3.767040
1.342804;0.004974;-9.535320;-1.883520;4.120200
1.347809;0.005005;-10.594800;-4.237920;3.060720
1.352814;0.005005;-11.418840;-4.355640;4.826520
1.357788;0.004974;-10.947960;-3.767040;6.710040
1.362793;0.005005;-10.712520;-1.412640;8.122680
1.367767;0.004974;-8.711280;0.588600;10.123920
1.372772;0.005005;-8.829000;1.883520;10.241640
1.377777;0.005005;-8.593560;1.883520;8.475840
1.382751;0.004974;-8.122680;0.706320;6.827760
1.387756;0.005005;-7.416360;-0.588600;4.826520
1.392731;0.004974;-7.063200;-1.177200;5.297400
1.397736;0.005005;-6.592320;-0.824040;5.886000
1.402710;0.004974;-6.474600;-1.059480;5.768280
1.407715;0.005005;-6.592320;-1.412640;5.415120
1.412720;0.005005;-6.356880;-1.648080;5.179680
1.417694;0.004974;-6.827760;-1.765800;5.179680
1.422699;0.005005;-5.886000;0.824040;6.827760
1.427673;0.004974;-1.765800;17.540280;14.715000
1.432678;0.005005;-3.178440;8.593560;11.654280
1.437683;0.005005;-3.413880;4.708800;11.418840
1.442657;0.004974;-5.179680;2.825280;11.301120
1.447662;0.005005;-5.886000;1.177200;10.947960
1.452667;0.005005;-6.239160;0.588600;10.830240
1.457642;0.004974;-6.121440;0.235440;10.830240
1.462646;0.005005;-6.003720;-0.117720;10.712520
1.467621;0.004974;-5.415120;0.000000;11.183400
1.472626;0.005005;-5.061960;-0.353160;11.772000
1.477600;0.004974;-4.826520;-0.706320;12.007440
1.482605;0.005005;-4.708800;-1.294920;12.242880
1.487579;0.004974;-5.061960;-2.354400;12.007440
1.492584;0.005005;-5.532840;-1.883520;11.065680
1.497559;0.004974;-5.415120;-1.177200;11.065680
1.502563;0.005005;-5.297400;-1.059480;11.536560
1.507568;0.005005;-4.944240;-0.353160;11.772000
1.512573;0.005005;-5.297400;-0.117720;11.654280
1.517548;0.004974;-5.650560;0.235440;11.536560
1.522552;0.005005;-5.886000;-0.235440;11.889720
1.527527;0.004974;-5.886000;-0.353160;11.654280
1.532532;0.005005;-5.415120;0.470880;12.007440
1.537506;0.004974;-4.944240;0.470880;12.125160
1.542511;0.005005;-5.179680;-0.353160;11.065680
1.547485;0.004974;-5.415120;-1.059480;9.888480
1.552490;0.005005;-6.121440;-2.707560;9.299880
1.557495;0.005005;-5.650560;-4.002480;9.653040
1.562469;0.004974;-3.649320;-2.943000;5.650560
1.567474;0.005005;-0.470880;1.177200;4.355640
1.572449;0.004974;0.353160;2.825280;5.415120
1.577454;0.005005;-0.588600;2.001240;5.886000
1.582458;0.005005;-1.059480;1.059480;5.886000
1.587433;0.004974;-0.706320;1.412640;6.356880
1.592438;0.005005;-1.294920;0.824040;6.474600
1.597412;0.004974;-1.412640;0.470880;6.474600
1.602417;0.005005;-1.412640;0.706320;6.710040
1.607391;0.004974;-1.294920;1.059480;6.592320
1.612396;0.005005;-1.412640;1.294920;6.827760
1.617401;0.005005;-1.530360;0.235440;7.063200
1.622375;0.004974;-2.589840;-1.059480;6.827760
1.627380;0.005005;-3.649320;-1.648080;7.180920
1.632355;0.004974;-6.121440;-1.883520;4.826520
1.637360;0.005005;-6.710040;-1.648080;7.180920
1.642365;0.005005;-2.118960;0.117720;17.422560
1.647339;0.004974;2.118960;1.648080;19.188360
1.652344;0.005005;1.412640;2.001240;13.655520
1.657318;0.004974;-1.059480;-0.824040;11.183400
1.662323;0.005005;-2.707560;-1.294920;10.594800
1.667328;0.005005;-3.531600;-0.588600;8.240400
1.672302;0.004974;-3.767040;0.470880;6.945480
1.677307;0.005005;-3.413880;0.470880;7.651800
1.682281;0.004974;-2.707560;-0.470880;7.180920
1.687286;0.005005;-2.236680;-1.059480;7.887240
1.692291;0.005005;-2.001240;-1.412640;8.122680
1.697266;0.004974;-2.001240;-1.648080;8.475840
1.702271;0.005005;-1.883520;-1.883520;8.475840
1.707245;0.004974;-2.118960;-1.883520;8.475840
1.712250;0.005005;-2.001240;-1.765800;9.417600
1.717255;0.005005;-1.648080;-1.765800;8.240400
1.722229;0.004974;-2.001240;-1.765800;8.593560
1.727234;0.005005;-2.118960;-0.824040;9.770760
1.732208;0.004974;-1.059480;-2.236680;8.004960
1.737213;0.005005;-0.941760;-2.236680;8.122680
1.742188;0.004974;-0.117720;-2.354400;7.769520
1.747192;0.005005;0.000000;-2.236680;8.122680
1.752167;0.004974;-1.059480;-2.001240;9.182160
1.757172;0.005005;-1.412640;-1.883520;8.004960
1.762146;0.004974;-2.589840;-2.236680;6.356880
1.767151;0.005005;-2.236680;-0.941760;7.651800
1.772156;0.005005;-2.236680;0.117720;8.240400
1.777130;0.004974;-2.236680;0.470880;8.358120
1.782135;0.005005;-2.354400;0.000000;8.004960
1.787109;0.004974;-1.530360;0.470880;7.063200
1.792114;0.005005;-2.118960;1.648080;6.356880
1.797119;0.005005;-0.353160;1.883520;9.535320
1.802094;0.004974;-0.117720;0.470880;8.475840
1.807098;0.005005;-0.235440;0.588600;8.122680
1.812073;0.004974;-0.353160;1.294920;9.299880
1.817078;0.005005;-0.941760;3.296160;10.594800
1.822083;0.005005;-2.236680;1.530360;9.064440
1.827057;0.004974;-2.118960;0.000000;7.534080
1.832031;0.004974;-1.059480;-0.235440;7.298640
1.837036;0.005005;-0.588600;-0.353160;7.063200
1.842010;0.004974;-0.588600;-0.235440;6.945480
1.847015;0.005005;-0.470880;-0.941760;6.827760
1.851990;0.004974;-0.235440;-1.294920;6.710040
1.856995;0.005005;0.000000;-1.294920;6.710040
1.862000;0.005005;-0.353160;-1.294920;6.710040
1.866974;0.004974;-0.588600;-1.294920;6.710040
1.871979;0.005005;-0.824040;-0.941760;6.710040
1.876984;0.005005;-1.294920;-0.941760;6.827760
1.881958;0.004974;-1.530360;-0.470880;6.827760
1.886963;0.005005;-1.883520;-0.824040;6.827760
1.891937;0.004974;-2.118960;-1.294920;6.592320
1.896942;0.005005;-2.118960;-1.530360;6.592320
1.901947;0.005005;-2.236680;-1.648080;6.592320
1.906921;0.004974;-2.354400;-1.765800;6.710040
1.911926;0.005005;-2.472120;-1.765800;6.710040
1.916901;0.004974;-2.707560;-1.765800;6.710040
1.921906;0.005005;-2.589840;-1.883520;6.121440
1.926910;0.005005;-2.236680;-2.118960;5.886000
1.931885;0.004974;-2.236680;-2.472120;6.121440
1.936890;0.005005;-2.236680;-2.472120;6.239160
1.941895;0.005005;-2.354400;-2.118960;5.768280
1.946869;0.004974;-3.178440;-1.648080;5.415120
1.951874;0.005005;-4.002480;-0.706320;5.768280
1.956848;0.004974;-4.355640;0.353160;6.121440
1.961853;0.005005;-4.473360;0.824040;6.003720
1.966827;0.004974;-4.708800;0.706320;6.121440
1.971832;0.005005;-4.826520;0.588600;6.592320
1.976807;0.004974;-4.355640;0.588600;6.474600
1.981812;0.005005;-4.002480;0.235440;6.827760
1.986786;0.004974;-4.002480;0.117720;6.945480
1.991791;0.005005;-4.120200;0.117720;7.298640
1.996796;0.005005;-4.473360;0.000000;7.180920
2.001770;0.004974;-5.297400;0.117720;7.298640
2.006775;0.005005;-5.650560;0.353160;6.945480
2.011749;0.004974;-6.003720;0.353160;7.063200
2.016754;0.005005;-6.356880;0.470880;6.710040
2.021759;0.005005;-6.239160;0.235440;6.710040
2.026733;0.004974;-6.003720;0.117720;7.063200
2.031738;0.005005;-6.592320;0.353160;6.710040
2.036713;0.004974;-6.710040;0.706320;7.180920
2.041718;0.005005;-7.416360;1.059480;6.592320
2.046722;0.005005;-7.651800;1.177200;6.945480
2.051697;0.004974;-7.769520;1.412640;7.298640
2.056702;0.005005;-8.004960;1.765800;7.298640
2.061676;0.004974;-8.358120;2.001240;7.651800
2.066681;0.005005;-8.593560;2.118960;8.358120
2.071655;0.004974;-8.240400;2.354400;8.946720
2.076660;0.005005;-8.122680;2.236680;9.653040
2.081635;0.004974;-7.887240;2.707560;9.888480
2.086639;0.005005;-8.240400;3.413880;10.006200
2.091644;0.005005;-8.593560;4.355640;10.947960
2.096619;0.004974;-8.946720;4.826520;11.065680
2.101624;0.005005;-8.593560;5.179680;11.889720
2.106598;0.004974;-8.358120;4.473360;12.242880
2.111603;0.005005;-8.004960;4.237920;12.831480
2.116577;0.004974;-7.651800;3.649320;13.420080
2.121582;0.005005;-7.887240;3.767040;13.066920
2.126556;0.004974;-8.004960;3.296160;12.831480
2.131561;0.005005;-8.711280;4.473360;12.596040
2.136566;0.005005;-9.653040;3.884760;12.478320
2.141541;0.004974;-9.653040;4.002480;12.596040
2.146545;0.005005;-9.653040;4.944240;12.478320
2.151520;0.004974;-10.006200;4.708800;12.478320
2.156525;0.005005;-10.123920;6.239160;12.007440
2.161499;0.004974;-10.241640;6.121440;12.007440
2.166504;0.005005;-10.123920;5.886000;12.242880
2.171509;0.005005;-10.123920;4.708800;12.596040
2.176483;0.004974;-9.888480;3.531600;13.420080
2.181488;0.005005;-9.653040;2.707560;14.479560
2.186493;0.005005;-9.888480;2.354400;15.303600
2.191467;0.004974;-9.182160;2.825280;15.539040
2.196472;0.005005;-8.475840;3.767040;15.892200
2.201477;0.005005;-8.593560;4.120200;15.303600
2.206451;0.004974;-9.299880;4.944240;14.361840
2.211456;0.005005;-9.417600;5.297400;14.008680
2.216431;0.004974;-9.770760;6.474600;13.184640
2.221436;0.005005;-9.770760;7.887240;12.713760
2.226410;0.004974;-9.653040;8.240400;12.596040
2.231415;0.005005;-10.123920;8.711280;12.831480
2.236420;0.005005;-10.477080;9.653040;12.596040
2.241394;0.004974;-10.359360;9.182160;13.302360
2.246399;0.005005;-10.006200;8.475840;14.597280
2.251373;0.004974;-9.770760;9.299880;14.479560
2.256378;0.005005;-9.770760;9.888480;13.655520
2.261383;0.005005;-9.888480;10.359360;13.184640
2.266388;0.005005;-9.770760;9.770760;13.302360
2.271362;0.004974;-9.535320;8.829000;13.537800
2.276367;0.005005;-9.535320;8.122680;12.949200
2.281342;0.004974;-10.241640;8.946720;12.596040
2.286346;0.005005;-10.241640;9.535320;11.654280
2.291351;0.005005;-9.888480;8.240400;11.772000
2.296326;0.004974;-9.535320;6.945480;11.889720
2.301331;0.005005;-9.182160;5.650560;12.125160
2.306305;0.004974;-9.064440;3.767040;12.360600
2.311310;0.005005;-8.593560;4.120200;12.478320
2.316315;0.005005;-8.711280;5.768280;11.772000
2.321289;0.004974;-8.711280;6.356880;11.301120
2.326294;0.005005;-8.593560;6.003720;11.301120
2.331268;0.004974;-8.829000;6.474600;10.947960
2.336273;0.005005;-8.240400;6.121440;10.477080
2.341278;0.005005;-8.829000;4.944240;10.359360
2.346252;0.004974;-8.004960;4.708800;10.830240
2.351257;0.005005;-7.887240;5.179680;10.477080
2.356232;0.004974;-8.004960;5.532840;10.123920
2.361237;0.005005;-7.887240;5.768280;9.888480
2.366241;0.005005;-7.769520;5.179680;10.241640
2.371216;0.004974;-7.651800;4.355640;10.947960
2.376221;0.005005;-7.534080;4.355640;10.712520
2.381226;0.005005;-7.887240;4.708800;9.653040
2.386200;0.004974;-8.122680;5.061960;8.829000
2.391205;0.005005;-8.004960;4.944240;8.004960
2.396210;0.005005;-8.358120;4.355640;7.769520
2.401184;0.004974;-8.358120;3.767040;7.769520
2.406189;0.005005;-8.240400;3.884760;7.534080
2.411163;0.004974;-8.240400;4.002480;7.063200
2.416168;0.005005;-8.358120;3.767040;6.945480
2.421143;0.004974;-8.122680;3.884760;7.063200
2.426147;0.005005;-8.122680;3.884760;7.180920
2.431122;0.004974;-7.887240;3.413880;7.063200
2.436127;0.005005;-7.887240;3.178440;6.710040
2.441132;0.005005;-7.769520;3.296160;6.356880
2.446106;0.004974;-7.769520;2.707560;5.532840
2.451111;0.005005;-7.651800;2.354400;5.061960
2.456085;0.004974;-7.769520;2.118960;4.355640
2.461090;0.005005;-8.122680;2.118960;3.649320
2.466064;0.004974;-8.240400;2.118960;3.531600
2.471069;0.005005;-8.240400;1.883520;3.884760
2.476044;0.004974;-8.240400;2.001240;3.649320
2.481049;0.005005;-8.358120;2.001240;3.296160
2.486023;0.004974;-8.358120;2.236680;3.060720
2.491028;0.005005;-7.887240;4.473360;2.354400
2.496033;0.005005;-8.475840;4.591080;2.707560
2.501007;0.004974;-8.829000;4.120200;2.825280
2.506012;0.005005;-8.711280;3.767040;2.589840
2.510986;0.004974;-8.593560;3.531600;2.707560
2.515991;0.005005;-8.358120;3.531600;2.825280
2.520996;0.005005;-8.358120;4.002480;2.707560
2.525970;0.004974;-8.358120;4.473360;2.589840
2.530975;0.005005;-8.475840;5.297400;2.472120
2.535950;0.004974;-8.711280;5.532840;2.472120
2.540955;0.005005;-8.593560;5.650560;2.354400
2.545929;0.004974;-8.711280;5.650560;2.118960
2.550934;0.005005;-8.593560;5.650560;2.118960
2.555908;0.004974;-8.711280;5.650560;2.236680
2.560913;0.005005;-8.593560;5.415120;2.236680
2.565918;0.005005;-8.946720;4.591080;2.118960
2.570892;0.004974;-9.299880;4.120200;1.883520
2.575897;0.005005;-9.417600;4.826520;1.294920
2.580872;0.004974;-9.182160;4.826520;1.530360
2.585876;0.005005;-9.299880;4.944240;1.883520
2.590881;0.005005;-9.299880;4.708800;1.883520
2.595856;0.004974;-8.711280;5.061960;1.765800
2.600861;0.005005;-8.475840;5.532840;2.354400
2.605865;0.005005;-8.475840;5.650560;2.825280
2.610840;0.004974;-8.475840;5.650560;3.060720
2.615845;0.005005;-8.475840;5.532840;2.707560
2.620850;0.005005;-8.711280;5.297400;2.825280
2.625824;0.004974;-8.946720;5.415120;2.472120
2.630829;0.005005;-8.946720;5.532840;2.589840
2.635803;0.004974;-9.182160;5.179680;2.236680
2.640808;0.005005;-9.299880;4.473360;2.354400
2.645813;0.005005;-9.653040;3.884760;2.354400
2.650787;0.004974;-9.653040;3.884760;1.648080
2.655792;0.005005;-9.299880;4.826520;1.765800
2.660797;0.005005;-8.829000;6.121440;2.001240
2.665771;0.004974;-8.593560;6.945480;2.354400
2.670776;0.005005;-8.358120;7.298640;2.001240
2.675751;0.004974;-7.534080;8.004960;2.001240
2.680756;0.005005;-7.887240;7.298640;2.118960
2.685760;0.005005;-8.475840;6.474600;2.001240
2.690735;0.004974;-8.358120;6.003720;1.294920
2.695740;0.005005;-8.004960;5.650560;1.294920
2.700714;0.004974;-8.240400;5.061960;1.530360
2.705719;0.005005;-8.240400;4.120200;1.648080
2.710724;0.005005;-8.240400;3.649320;1.412640
2.715698;0.004974;-8.004960;3.767040;2.001240
2.720703;0.005005;-8.004960;3.884760;2.825280
2.725677;0.004974;-7.887240;3.178440;3.531600
2.730682;0.005005;-7.298640;3.767040;3.767040
2.735687;0.005005;-6.827760;3.884760;3.884760
2.740662;0.004974;-6.710040;4.944240;4.002480
2.745667;0.005005;-6.945480;4.826520;3.649320
2.750641;0.004974;-7.063200;5.297400;2.589840
2.755646;0.005005;-6.827760;6.121440;0.117720
2.760620;0.004974;-7.416360;6.827760;-2.001240
2.765625;0.005005;-8.240400;8.122680;-3.178440
2.770599;0.004974;-9.653040;7.887240;-3.884760
2.775604;0.005005;-9.182160;7.534080;-3.296160
2.780609;0.005005;-8.711280;7.180920;-2.825280
2.785583;0.004974;-8.358120;7.180920;-2.118960
2.790588;0.005005;-8.122680;7.769520;-1.412640
2.795563;0.004974;-8.122680;8.358120;-1.177200
2.800568;0.005005;-8.240400;8.593560;-5.415120
2.805542;0.004974;-7.769520;8.358120;-2.825280
2.810547;0.005005;-5.415120;0.235440;-4.237920
2.815521;0.004974;-7.180920;4.355640;-0.588600
2.820526;0.005005;-7.534080;5.061960;-0.235440
2.825500;0.004974;-6.592320;5.650560;-0.353160
2.830505;0.005005;-7.651800;7.769520;-0.470880
2.835510;0.005005;-10.712520;9.535320;5.415120
2.840485;0.004974;-9.182160;10.712520;7.534080
2.845490;0.005005;-3.296160;5.179680;-6.121440
2.850464;0.004974;-2.943000;4.826520;-3.767040
2.855469;0.005005;-5.415120;6.710040;0.000000
2.860443;0.004974;-7.651800;11.772000;2.354400
2.865448;0.005005;-7.651800;11.536560;2.943000
2.870422;0.004974;-7.651800;8.358120;0.353160
2.875427;0.005005;-7.180920;6.356880;0.117720
2.880402;0.004974;-7.063200;5.415120;-0.824040
2.885406;0.005005;-7.180920;6.003720;0.117720
2.890411;0.005005;-6.827760;6.592320;0.824040
2.895386;0.004974;-6.239160;6.121440;0.470880
2.900391;0.005005;-5.886000;5.886000;1.294920
2.905365;0.004974;-6.239160;6.474600;0.941760
2.910370;0.005005;-6.474600;6.121440;0.588600
2.915344;0.004974;-6.827760;6.827760;0.000000
2.920349;0.005005;-6.827760;8.240400;0.588600
2.925323;0.004974;-6.710040;7.769520;0.824040
2.930328;0.005005;-6.356880;6.710040;-0.117720
2.935303;0.004974;-6.592320;6.474600;-0.470880
2.940308;0.005005;-6.356880;6.710040;-0.824040
2.945282;0.004974;-6.121440;6.592320;0.000000
2.950287;0.005005;-6.239160;7.416360;0.470880
2.955292;0.005005;-6.945480;9.299880;0.941760
2.960266;0.004974;-6.945480;8.122680;0.824040
2.965271;0.005005;-7.534080;8.593560;1.294920
2.970245;0.004974;-7.534080;9.417600;2.354400
2.975250;0.005005;-7.063200;8.004960;1.648080
2.980255;0.005005;-6.710040;6.945480;1.177200
2.985229;0.004974;-6.710040;6.356880;1.059480
2.990234;0.005005;-8.004960;2.118960;-1.648080
2.995209;0.004974;-8.358120;-2.472120;0.353160
3.000214;0.005005;-6.710040;-0.353160;-1.294920
3.005219;0.005005;-8.593560;0.000000;-1.059480
3.010193;0.004974;-8.946720;1.765800;0.000000
3.015198;0.005005;-8.240400;3.884760;-0.235440
3.020172;0.004974;-8.829000;6.827760;1.059480
3.025177;0.005005;-8.122680;10.594800;0.117720
3.030182;0.005005;-7.180920;10.594800;0.117720
3.035156;0.004974;-5.886000;8.946720;0.824040
3.040161;0.005005;-5.886000;9.182160;0.470880
3.045135;0.004974;-7.063200;10.123920;0.117720
3.050140;0.005005;-7.298640;6.239160;0.470880
3.055145;0.005005;-6.356880;6.474600;-1.177200
3.060120;0.004974;-7.063200;5.061960;0.000000
3.065125;0.005005;-7.416360;6.003720;1.294920
3.070099;0.004974;-7.298640;6.356880;3.649320
3.075104;0.005005;-5.886000;7.063200;2.589840
3.080109;0.005005;-5.415120;7.534080;2.943000
3.085083;0.004974;-5.179680;7.887240;3.296160
3.090088;0.005005;-4.591080;7.769520;0.706320
3.095062;0.004974;-5.179680;8.475840;-0.941760
3.100067;0.005005;-5.768280;8.593560;-1.765800
3.105042;0.004974;-5.768280;8.122680;-2.118960
3.110046;0.005005;-5.768280;7.416360;-1.648080
3.115021;0.004974;-6.003720;6.239160;-2.236680
3.120026;0.005005;-6.003720;6.239160;-1.883520
3.125031;0.005005;-5.650560;6.003720;-0.588600
3.130005;0.004974;-5.532840;6.239160;-0.353160
3.135010;0.005005;-5.061960;6.827760;0.235440
3.139984;0.004974;-5.061960;7.416360;0.941760
3.144989;0.005005;-5.061960;7.651800;0.941760
3.149994;0.005005;-5.179680;8.358120;0.588600
3.154968;0.004974;-5.886000;7.063200;0.588600
3.159973;0.005005;-5.886000;7.298640;0.000000
3.164948;0.004974;-5.768280;7.063200;-0.235440
3.169922;0.004974;-5.768280;6.474600;-0.470880
3.174927;0.005005;-5.650560;6.121440;-0.235440
3.179932;0.005005;-5.532840;5.532840;-0.353160
3.184906;0.004974;-4.944240;4.237920;0.588600
3.189911;0.005005;-5.297400;4.473360;-0.235440
3.194885;0.004974;-5.768280;7.063200;0.470880
3.199890;0.005005;-6.827760;6.474600;0.706320
3.204895;0.005005;-7.534080;8.829000;0.235440
3.209869;0.004974;-7.416360;10.712520;1.294920
3.214874;0.005005;-8.004960;7.769520;0.353160
3.219849;0.004974;-8.240400;7.887240;0.941760
3.224854;0.005005;-8.122680;8.475840;1.412640
3.229828;0.004974;-7.769520;8.240400;1.648080
3.234833;0.005005;-7.298640;9.182160;1.648080
3.239807;0.004974;-7.063200;9.182160;1.530360
3.244812;0.005005;-7.180920;8.593560;1.177200
3.249817;0.005005;-7.534080;8.122680;0.706320
3.254791;0.004974;-7.769520;7.180920;0.470880
3.259796;0.005005;-8.004960;6.827760;0.470880
3.264771;0.004974;-8.122680;6.121440;0.353160
3.269775;0.005005;-8.122680;5.650560;0.588600
3.274780;0.005005;-7.769520;5.532840;0.588600
3.279785;0.005005;-7.534080;5.886000;0.235440
3.284760;0.004974;-7.769520;5.650560;0.470880
3.289764;0.005005;-7.887240;5.532840;0.235440
3.294739;0.004974;-7.769520;5.650560;0.353160
3.299744;0.005005;-8.122680;6.592320;0.588600
3.304718;0.004974;-8.358120;7.180920;0.588600
3.309723;0.005005;-8.475840;6.945480;0.706320
3.314728;0.005005;-8.358120;8.122680;0.353160
3.319702;0.004974;-8.475840;8.240400;1.059480
3.324707;0.005005;-8.593560;8.358120;1.530360
3.329681;0.004974;-8.122680;7.769520;1.883520
3.334686;0.005005;-7.887240;7.180920;1.883520
3.339661;0.004974;-7.534080;6.710040;2.236680
3.344666;0.005005;-7.298640;6.356880;1.883520
3.349670;0.005005;-7.180920;6.003720;2.118960
3.354645;0.004974;-7.063200;5.768280;1.412640
3.359650;0.005005;-7.416360;5.532840;1.059480
3.364624;0.004974;-7.651800;6.121440;-0.235440
3.369629;0.005005;-7.769520;6.710040;-0.470880
3.374603;0.004974;-7.887240;7.180920;-0.353160
3.379608;0.005005;-8.004960;7.063200;1.765800
3.384583;0.004974;-7.769520;7.298640;-0.235440
3.389587;0.005005;-7.416360;8.711280;-0.824040
3.394562;0.004974;-7.180920;8.946720;0.000000
3.399567;0.005005;-6.945480;8.593560;-0.235440
3.404541;0.004974;-7.298640;8.358120;-0.117720
3.409546;0.005005;-7.769520;7.887240;0.000000
3.414520;0.004974;-7.534080;7.651800;0.353160
3.419525;0.005005;-7.298640;7.180920;0.353160
3.424530;0.005005;-7.063200;6.710040;0.235440
3.429504;0.004974;-6.827760;6.474600;0.588600
3.434509;0.005005;-6.710040;6.945480;0.117720
3.439484;0.004974;-6.827760;7.180920;0.117720
3.444489;0.005005;-7.298640;7.298640;0.000000
3.449493;0.005005;-7.534080;6.945480;-0.353160
3.454468;0.004974;-7.651800;6.710040;0.000000
3.459473;0.005005;-7.887240;7.063200;0.000000
3.464478;0.005005;-8.358120;6.356880;0.000000
3.469452;0.004974;-8.122680;6.003720;0.235440
3.474457;0.005005;-8.240400;4.944240;0.000000
3.479462;0.005005;-8.240400;4.473360;-0.470880
3.484436;0.004974;-8.475840;4.120200;-0.235440
3.489441;0.005005;-8.711280;4.002480;-0.588600
3.494415;0.004974;-8.829000;4.355640;-0.588600
3.499420;0.005005;-8.593560;4.944240;-0.706320
3.504395;0.004974;-8.475840;4.826520;-0.706320
3.509399;0.005005;-8.358120;4.944240;-0.353160
3.514404;0.005005;-8.004960;5.179680;-0.353160
3.519379;0.004974;-8.004960;5.297400;0.117720
3.524384;0.005005;-8.004960;5.532840;-0.235440
3.529358;0.004974;-8.122680;5.886000;-0.117720
3.534363;0.005005;-7.769520;5.886000;-0.117720
3.539337;0.004974;-7.651800;6.121440;-0.588600
3.544342;0.005005;-7.769520;6.239160;-0.470880
3.549347;0.005005;-7.769520;6.239160;-0.235440
3.554321;0.004974;-7.887240;6.003720;-0.117720
3.559326;0.005005;-8.004960;5.886000;0.706320
3.564301;0.004974;-8.004960;5.650560;0.824040
3.569305;0.005005;-7.769520;4.826520;0.824040
3.574280;0.004974;-8.122680;4.944240;0.941760
3.579285;0.005005;-8.004960;5.297400;1.412640
3.584259;0.004974;-8.240400;5.297400;1.412640
3.589264;0.005005;-8.240400;5.532840;1.294920
3.594238;0.004974;-8.358120;5.886000;1.765800
3.599243;0.005005;-8.358120;6.356880;2.001240
3.604248;0.005005;-8.240400;6.592320;1.648080
3.609222;0.004974;-8.122680;6.356880;1.412640
3.614227;0.005005;-8.240400;6.121440;0.706320
3.619202;0.004974;-8.711280;6.474600;0.235440
3.624207;0.005005;-9.417600;6.003720;-0.353160
3.629211;0.005005;-9.770760;5.886000;0.117720
3.634186;0.004974;-9.888480;6.239160;0.470880
3.639191;0.005005;-10.006200;6.121440;0.235440
3.644165;0.004974;-9.535320;6.710040;1.177200
3.649170;0.005005;-9.888480;6.945480;0.470880
3.654175;0.005005;-10.006200;7.063200;0.235440
3.659149;0.004974;-13.066920;9.770760;1.883520
3.664154;0.005005;-10.241640;6.827760;0.470880
3.669128;0.004974;-9.064440;4.237920;0.000000
3.674133;0.005005;-8.829000;4.355640;-0.706320
3.679108;0.004974;-9.064440;3.767040;-0.941760
3.684113;0.005005;-8.593560;3.296160;-1.530360
3.689117;0.005005;-8.946720;3.884760;-1.177200
3.694092;0.004974;-9.064440;4.826520;-0.470880
3.699097;0.005005;-8.946720;5.297400;-0.470880
3.704071;0.004974;-8.711280;5.532840;0.000000
3.709076;0.005005;-9.535320;4.826520;-0.941760
3.714050;0.004974;-9.182160;5.061960;-0.706320
3.719055;0.005005;-8.829000;5.415120;-0.353160
3.724060;0.005005;-8.475840;5.532840;0.235440
3.729034;0.004974;-8.593560;5.650560;0.470880
3.734039;0.005005;-8.475840;5.768280;0.353160
3.739014;0.004974;-8.711280;5.532840;0.000000
3.744019;0.005005;-8.475840;6.710040;-0.824040
3.748993;0.004974;-8.475840;5.532840;0.353160
3.753998;0.005005;-8.122680;5.650560;0.000000
3.758972;0.004974;-7.887240;6.592320;0.470880
3.763977;0.005005;-7.063200;5.768280;0.470880
3.768951;0.004974;-7.180920;5.179680;-0.706320
3.773956;0.005005;-7.416360;4.944240;-0.824040
3.778961;0.005005;-7.887240;4.473360;-0.824040
3.783936;0.004974;-8.358120;4.355640;-1.294920
3.788940;0.005005;-8.711280;4.591080;-1.412640
3.793915;0.004974;-8.829000;4.826520;-0.941760
3.798920;0.005005;-8.475840;5.297400;-0.588600
3.803894;0.004974;-7.298640;5.297400;0.235440
3.808899;0.005005;-7.651800;5.768280;0.117720
3.813873;0.004974;-9.299880;6.356880;0.000000
3.818878;0.005005;-8.122680;4.355640;0.353160
3.823853;0.004974;-11.065680;6.121440;-0.706320
3.828857;0.005005;-10.006200;6.003720;-2.001240
3.833862;0.005005;-10.359360;5.886000;-2.707560
3.838837;0.004974;-8.711280;5.768280;-2.354400
3.843842;0.005005;-7.887240;4.826520;-1.294920
3.848816;0.004974;-8.240400;6.121440;-0.824040
3.853821;0.005005;-8.475840;6.239160;0.588600
3.858826;0.005005;-8.475840;5.532840;1.412640
3.863800;0.004974;-8.829000;5.297400;2.001240
3.868805;0.005005;-9.182160;4.826520;2.354400
3.873779;0.004974;-9.182160;4.944240;1.883520
3.878784;0.005005;-9.182160;4.944240;1.883520
3.883789;0.005005;-8.946720;5.297400;1.177200
3.888763;0.004974;-9.064440;5.532840;1.177200
3.893768;0.005005;-8.829000;5.532840;0.470880
3.898743;0.004974;-8.829000;5.415120;0.470880
3.903748;0.005005;-9.182160;5.768280;0.235440
3.908722;0.004974;-9.535320;5.768280;-0.588600
3.913727;0.005005;-9.653040;5.297400;-0.470880
3.918701;0.004974;-9.653040;4.355640;-0.824040
3.923706;0.005005;-6.827760;4.120200;-0.824040
3.928680;0.004974;-10.947960;4.944240;-0.117720
3.933685;0.005005;-10.712520;5.532840;-0.235440
3.938690;0.005005;-9.417600;5.886000;0.117720
3.943665;0.004974;-9.653040;5.768280;-0.353160
3.948669;0.005005;-8.829000;5.061960;-0.117720
3.953644;0.004974;-6.592320;4.002480;0.824040
3.958649;0.005005;-6.710040;2.825280;1.412640
3.963623;0.004974;-7.298640;1.765800;1.177200
3.968628;0.005005;-5.650560;1.765800;-0.117720
3.973602;0.004974;-10.241640;5.768280;-2.589840
3.978607;0.005005;-11.889720;7.651800;-2.236680
3.983582;0.004974;-10.594800;5.415120;0.000000
3.988586;0.005005;-9.182160;4.708800;0.235440
3.993591;0.005005;-10.241640;6.003720;-0.117720
3.998566;0.004974;-10.947960;9.064440;-1.294920
4.003571;0.005005;-9.653040;12.713760;-3.178440
4.008545;0.004974;-9.535320;11.065680;-2.707560
4.013550;0.005005;-9.535320;7.298640;-1.765800
4.018524;0.004974;-9.535320;6.945480;-1.883520
4.023529;0.005005;-9.417600;6.710040;-1.765800
4.028503;0.004974;-9.535320;4.944240;-2.001240
4.033508;0.005005;-9.535320;4.355640;-2.472120
4.038483;0.004974;-9.888480;2.943000;-2.472120
4.043488;0.005005;-9.064440;3.767040;-2.118960
4.048462;0.004974;-8.475840;3.060720;-2.354400
4.053467;0.005005;-8.240400;3.060720;-2.589840
4.058441;0.004974;-8.240400;3.531600;-2.236680
4.063446;0.005005;-7.298640;5.179680;-2.472120
4.068420;0.004974;-7.180920;6.356880;-1.294920
4.073425;0.005005;-6.945480;5.650560;-0.117720
4.078400;0.004974;-5.650560;5.297400;1.530360
4.083405;0.005005;-6.121440;5.886000;1.059480
4.088379;0.004974;-6.239160;4.473360;0.353160
4.093384;0.005005;-6.356880;4.002480;0.235440
4.098358;0.004974;-7.298640;4.002480;0.000000
4.103363;0.005005;-11.183400;8.946720;2.943000
4.108337;0.004974;-8.122680;7.180920;0.824040
4.113342;0.005005;-7.180920;1.765800;-0.706320
4.118347;0.005005;-10.712520;3.767040;-1.177200
4.123322;0.004974;-10.712520;5.532840;-1.648080
4.128326;0.005005;-9.417600;5.415120;-1.648080
4.133301;0.004974;-9.535320;4.944240;-1.648080
4.138306;0.005005;-9.535320;4.355640;-1.648080
4.143280;0.004974;-9.299880;3.767040;-0.941760
4.148285;0.005005;-10.712520;3.060720;-0.235440
4.153259;0.004974;-10.006200;3.060720;-0.117720
4.158264;0.005005;-9.535320;2.707560;-0.117720
4.163269;0.005005;-3.178440;-12.478320;-15.892200
4.168243;0.004974;-12.713760;-3.884760;-7.651800
4.173248;0.005005;-11.183400;0.117720;-4.473360
4.178223;0.004974;-9.417600;1.177200;-2.001240
4.183228;0.005005;-9.417600;2.001240;-0.588600
4.188232;0.005005;0.470880;-2.589840;-14.715000
4.193207;0.004974;-6.592320;-1.059480;-7.416360
4.198212;0.005005;-6.827760;-1.765800;-3.884760
4.203217;0.005005;-2.001240;-4.591080;-8.475840
4.208191;0.004974;-14.244120;2.236680;-6.945480
4.213196;0.005005;-9.770760;1.648080;-2.472120
4.218201;0.005005;-10.477080;2.589840;0.353160
4.223175;0.004974;-12.949200;1.059480;10.123920
4.228180;0.005005;-15.185880;3.178440;6.827760
4.233154;0.004974;-13.773240;3.649320;3.649320
4.238159;0.005005;-14.244120;4.591080;3.060720
4.243164;0.005005;-14.244120;4.355640;1.765800
4.248138;0.004974;-14.126400;4.826520;1.883520
4.253143;0.005005;-13.890960;4.591080;1.648080
4.258118;0.004974;-12.360600;4.120200;0.824040
4.263123;0.005005;-11.418840;4.473360;0.470880
4.268097;0.004974;-10.123920;3.531600;-0.235440
4.273102;0.005005;-9.299880;3.413880;-0.706320
4.278076;0.004974;-8.829000;3.178440;-0.706320
4.283081;0.005005;-8.475840;2.589840;-0.353160
4.288055;0.004974;7.416360;8.358120;10.359360
4.293060;0.005005;-2.589840;6.945480;5.415120
4.298035;0.004974;-5.061960;4.591080;3.884760
4.303040;0.005005;-6.003720;3.531600;2.707560
4.308044;0.005005;-5.886000;3.884760;2.589840
4.313019;0.004974;-7.651800;3.178440;2.001240
4.318024;0.005005;-8.711280;3.296160;1.059480
4.322998;0.004974;-8.358120;3.296160;1.294920
4.328003;0.005005;-9.417600;2.943000;-0.588600
4.333008;0.005005;-9.770760;3.296160;0.235440
4.337982;0.004974;-10.830240;3.413880;1.177200
4.342987;0.005005;-9.182160;4.944240;1.765800
4.347961;0.004974;-9.064440;4.473360;0.470880
4.352966;0.005005;-11.772000;3.296160;0.470880
4.357971;0.005005;-10.123920;3.649320;0.706320
4.362946;0.004974;-12.007440;1.648080;0.353160
4.367950;0.005005;-11.418840;1.059480;-0.353160
4.372925;0.004974;-14.008680;-0.235440;-0.470880
4.377930;0.005005;-12.596040;-0.117720;-2.472120
4.382904;0.004974;-10.712520;0.706320;-3.178440
4.387909;0.005005;-10.477080;0.941760;-0.353160
4.392883;0.004974;-11.301120;0.353160;0.824040
4.397888;0.005005;-11.418840;2.001240;0.353160
4.402863;0.004974;-10.712520;2.354400;1.059480
4.407867;0.005005;-11.889720;1.765800;0.941760
4.412842;0.004974;-11.065680;1.177200;-0.470880
4.417847;0.005005;-6.827760;3.413880;4.591080
4.422821;0.004974;-10.241640;2.589840;1.530360
4.427826;0.005005;-11.065680;2.236680;1.883520
4.432831;0.005005;-10.477080;2.589840;1.059480
4.437805;0.004974;-11.536560;0.470880;0.588600
4.442810;0.005005;-9.653040;0.588600;-1.648080
4.447784;0.004974;-9.888480;1.883520;-0.470880
4.452789;0.005005;-11.418840;2.472120;0.706320
4.457794;0.005005;-14.008680;0.470880;1.883520
4.462769;0.004974;-12.713760;1.765800;-0.470880
4.467773;0.005005;-11.654280;1.765800;0.588600
4.472778;0.005005;-10.830240;1.883520;1.294920
4.477753;0.004974;-11.889720;0.941760;1.765800
4.482758;0.005005;-11.772000;0.706320;1.648080
4.487732;0.004974;-11.065680;0.235440;1.294920
4.492737;0.005005;-10.477080;0.000000;1.059480
4.497742;0.005005;-10.241640;0.117720;0.588600
4.502716;0.004974;-10.359360;0.000000;0.117720
4.507721;0.005005;-10.123920;0.117720;0.000000
4.512695;0.004974;-10.241640;0.353160;0.117720
4.517700;0.005005;-10.359360;0.470880;0.235440
4.522675;0.004974;-10.359360;0.824040;0.470880
4.527679;0.005005;-9.182160;-0.588600;0.235440
4.532684;0.005005;-10.123920;0.706320;0.941760
4.537659;0.004974;-11.065680;0.824040;0.824040
4.542664;0.005005;-11.183400;1.530360;0.470880
4.547668;0.005005;-10.594800;1.765800;1.177200
4.552643;0.004974;-10.123920;0.824040;0.588600
4.557648;0.005005;-10.123920;0.706320;0.235440
4.562653;0.005005;-11.536560;3.531600;1.412640
4.567627;0.004974;-13.537800;1.883520;3.178440
4.572632;0.005005;-10.594800;0.941760;0.235440
4.577606;0.004974;-9.417600;3.178440;1.294920
4.582611;0.005005;-9.653040;2.236680;0.941760
4.587585;0.004974;-10.241640;1.765800;0.353160
4.592590;0.005005;-9.535320;1.412640;0.588600
4.597595;0.005005;-10.594800;1.059480;1.765800
4.602570;0.004974;-13.184640;-2.472120;1.412640
4.607574;0.005005;-12.478320;-0.824040;1.412640
4.612579;0.005005;-11.889720;-0.117720;1.177200
4.617554;0.004974;-11.889720;0.235440;1.294920
4.622559;0.005005;-12.007440;0.588600;1.059480
4.627563;0.005005;-12.007440;0.235440;-0.235440
4.632538;0.004974;-12.831480;-6.356880;19.894680
4.637543;0.005005;-17.304840;-11.654280;16.951680
4.642517;0.004974;-13.184640;-6.592320;8.122680
4.647522;0.005005;-11.772000;-4.355640;4.708800
4.652496;0.004974;-10.947960;-2.943000;1.883520
4.657501;0.005005;-10.359360;-1.883520;0.824040
4.662476;0.004974;-10.712520;-1.530360;-0.588600
4.667480;0.005005;-9.770760;-0.706320;0.117720
4.672455;0.004974;-9.888480;0.941760;1.530360
4.677460;0.005005;-9.299880;0.941760;1.059480
4.682434;0.004974;-9.535320;1.530360;1.294920
4.687439;0.005005;-10.477080;1.177200;0.824040
4.692444;0.005005;-11.772000;2.354400;0.470880
4.697418;0.004974;-12.007440;1.412640;-0.117720
4.702423;0.005005;-12.007440;1.059480;0.353160
4.707397;0.004974;-12.713760;1.412640;0.588600
4.712402;0.005005;-12.125160;1.530360;0.470880
4.717377;0.004974;-12.007440;1.294920;0.588600
4.722382;0.005005;-10.947960;0.706320;0.588600
4.727356;0.004974;-9.653040;6.710040;-1.294920
4.732361;0.005005;-7.180920;-3.531600;-1.530360
4.737335;0.004974;-6.945480;-0.470880;-1.177200
4.742340;0.005005;-7.063200;-0.706320;-0.824040
4.747345;0.005005;-6.945480;-1.294920;-0.117720
4.752319;0.004974;-7.769520;-0.588600;-0.117720
4.757324;0.005005;-7.180920;-3.531600;1.648080
4.762329;0.005005;-7.063200;-3.884760;0.706320
4.767303;0.004974;-9.182160;-3.060720;-0.706320
4.772308;0.005005;-12.478320;-5.061960;-1.883520
4.777283;0.004974;-14.126400;-1.765800;-0.941760
4.782288;0.005005;-11.654280;-1.059480;-0.941760
4.787262;0.004974;-11.183400;-0.588600;-0.588600
4.792267;0.005005;-10.006200;-0.117720;-0.235440
4.797241;0.004974;-10.830240;0.588600;0.000000
4.802246;0.005005;-10.123920;-0.117720;-0.941760
4.807220;0.004974;-11.065680;1.059480;-0.353160
4.812225;0.005005;-10.594800;1.765800;-1.059480
4.817200;0.004974;-10.359360;1.883520;-0.588600
4.822205;0.005005;-10.712520;2.001240;-0.353160
4.827209;0.005005;-13.773240;-9.770760;0.824040
4.832184;0.004974;-12.242880;-4.708800;-0.824040
4.837189;0.005005;-10.947960;-1.177200;-1.177200
4.842194;0.005005;-10.477080;0.470880;-0.941760
4.847168;0.004974;-9.888480;0.588600;-0.706320
4.852173;0.005005;-9.888480;0.824040;-0.235440
4.857147;0.004974;-10.947960;-0.117720;0.470880
4.862152;0.005005;-13.420080;-0.588600;0.706320
4.867157;0.005005;-12.125160;-0.941760;-0.470880
4.872131;0.004974;-12.360600;0.117720;0.588600
4.877136;0.005005;-12.007440;0.117720;0.235440
4.882111;0.004974;-10.947960;0.353160;-0.235440
4.887115;0.005005;-9.888480;0.470880;-1.059480
4.892120;0.005005;-10.830240;0.235440;-1.648080
4.897095;0.004974;-11.418840;0.470880;-1.648080
4.902100;0.005005;-10.947960;0.117720;-0.824040
4.907104;0.005005;-10.712520;0.117720;-0.470880
4.912079;0.004974;-10.830240;0.117720;-0.353160
4.917084;0.005005;-10.594800;0.000000;0.000000
4.922058;0.004974;-11.536560;-0.117720;0.000000
4.927063;0.005005;-12.949200;0.117720;-0.353160
4.932037;0.004974;-10.594800;0.470880;0.000000
4.937042;0.005005;-9.770760;0.706320;0.235440
4.942047;0.005005;-9.888480;1.412640;-0.235440
4.947021;0.004974;-9.770760;1.059480;-0.235440
4.952026;0.005005;-10.006200;1.177200;0.117720
4.957001;0.004974;-9.535320;1.530360;0.117720
4.962006;0.005005;-10.241640;0.588600;0.353160
4.966980;0.004974;-10.947960;0.353160;0.470880
4.972015;0.005035;-11.536560;0.235440;0.706320
4.976990;0.004974;-12.242880;0.706320;-0.470880
4.981964;0.004974;-7.063200;-2.472120;-0.235440
4.986969;0.005005;-13.655520;-0.588600;-0.235440
4.991974;0.005005;-12.360600;-0.353160;1.294920
4.996948;0.004974;-12.125160;0.000000;1.648080
5.001953;0.005005;-11.654280;-0.353160;1.883520
5.006927;0.004974;-12.125160;-0.353160;1.294920
5.011932;0.005005;-12.360600;-0.235440;1.294920
5.016937;0.005005;-12.242880;-0.235440;1.648080
5.021912;0.004974;-9.417600;4.473360;2.118960
5.026917;0.005005;-10.594800;2.118960;1.765800
5.031891;0.004974;-11.301120;0.941760;1.530360
5.036896;0.005005;-12.360600;-1.059480;1.294920
5.041870;0.004974;-11.654280;0.117720;0.706320
5.046875;0.005005;-11.889720;-0.235440;-0.588600
5.051849;0.004974;-11.418840;1.059480;-1.177200
5.056854;0.005005;-10.006200;-0.470880;-0.941760
5.061859;0.005005;-10.006200;0.000000;-0.588600
5.066833;0.004974;-10.594800;0.235440;-0.470880
5.071838;0.005005;-10.947960;0.117720;-0.117720
5.076813;0.004974;-11.183400;0.470880;0.235440
5.081818;0.005005;-11.301120;0.588600;0.235440
5.086792;0.004974;-11.183400;0.941760;0.117720
5.091797;0.005005;-10.712520;0.588600;0.117720
5.096802;0.005005;-10.477080;0.470880;-0.117720
5.101776;0.004974;-10.241640;0.353160;-0.353160
5.106781;0.005005;-10.477080;0.824040;-0.235440
5.111786;0.005005;-9.770760;1.059480;0.000000
5.116760;0.004974;-9.417600;0.824040;-0.117720
5.121765;0.005005;-9.299880;1.059480;-0.117720
5.126740;0.004974;-8.711280;1.294920;0.235440
5.131744;0.005005;-8.829000;1.530360;0.000000
5.136749;0.005005;-8.358120;1.765800;0.000000
5.141724;0.004974;-8.475840;1.883520;-0.353160
5.146729;0.005005;-8.475840;1.648080;-0.470880
5.151703;0.004974;-9.182160;1.765800;-0.588600
5.156708;0.005005;-9.535320;1.177200;-0.353160
5.161713;0.005005;-9.535320;1.412640;0.000000
5.166687;0.004974;-10.712520;1.648080;-0.353160
5.171692;0.005005;-9.064440;1.765800;-0.824040
5.176666;0.004974;-10.359360;1.765800;-0.941760
5.181671;0.005005;-11.183400;1.530360;-1.059480
5.186676;0.005005;-11.418840;1.177200;-1.294920
5.191650;0.004974;-10.712520;0.824040;-0.470880
5.196655;0.005005;-9.888480;0.353160;-0.353160
5.201630;0.004974;-11.065680;0.353160;-0.706320
5.206635;0.005005;-11.301120;0.706320;-1.177200
5.211609;0.004974;-8.946720;1.294920;-1.412640
5.216614;0.005005;-9.888480;1.412640;-1.059480
5.221619;0.005005;-10.830240;0.235440;-0.824040
5.226593;0.004974;-10.594800;0.000000;-1.059480
5.231598;0.005005;-10.359360;-0.117720;-1.294920
5.236572;0.004974;-10.359360;0.117720;-1.765800
5.241577;0.005005;-10.123920;0.117720;-1.883520
5.246582;0.005005;-10.241640;0.235440;-2.001240
5.251556;0.004974;-10.594800;-0.117720;-2.001240
5.256561;0.005005;-10.594800;0.117720;-2.001240
5.261536;0.004974;-10.594800;0.706320;-2.236680
5.266541;0.005005;-9.770760;-0.353160;-2.118960
5.271545;0.005005;-9.535320;0.235440;-2.354400
5.276520;0.004974;-9.299880;0.706320;-2.589840
5.281525;0.005005;-9.064440;1.177200;-2.589840
5.286530;0.005005;-8.475840;1.530360;-2.354400
5.291504;0.004974;-8.593560;1.530360;-2.472120
5.296509;0.005005;-8.593560;1.530360;-2.472120
5.301514;0.005005;-8.240400;1.294920;-2.354400
5.306488;0.004974;-9.182160;0.824040;-1.883520
5.311493;0.005005;-9.888480;1.059480;-1.883520
5.316467;0.004974;-10.712520;0.706320;-1.648080
5.321472;0.005005;-10.947960;0.470880;-2.118960
5.326477;0.005005;-10.830240;0.588600;-2.001240
5.331451;0.004974;-10.830240;0.353160;-2.118960
5.336456;0.005005;-10.359360;0.000000;-2.472120
5.341431;0.004974;-10.359360;-0.117720;-2.589840
5.346436;0.005005;-10.241640;-0.353160;-2.707560
5.351410;0.004974;-10.123920;-0.235440;-2.707560
5.356415;0.005005;-10.241640;-0.235440;-2.707560
5.361420;0.005005;-10.006200;-0.353160;-2.825280
5.366394;0.004974;-9.770760;-0.353160;-2.825280
5.371399;0.005005;-9.770760;-0.235440;-2.943000
5.376404;0.005005;-10.594800;-0.353160;-2.472120
5.381378;0.004974;-10.006200;-0.824040;-2.589840
5.386383;0.005005;-9.653040;-1.177200;-4.120200
5.391357;0.004974;-10.006200;-1.059480;-3.178440
5.396362;0.005005;-9.182160;-0.824040;-2.001240
5.401367;0.005005;-10.830240;-1.294920;-2.118960
5.406342;0.004974;-11.301120;-1.059480;-2.236680
5.411346;0.005005;-10.712520;-0.706320;-2.472120
5.416351;0.005005;-11.183400;-1.412640;-2.118960
5.421326;0.004974;0.824040;-1.648080;-15.774480
5.426331;0.005005;-12.596040;-1.883520;-9.064440
5.431305;0.004974;-10.947960;-0.117720;-5.650560
5.436310;0.005005;-9.770760;-0.470880;-3.884760
5.441315;0.005005;-9.064440;1.177200;-3.413880
5.446289;0.004974;-8.946720;0.706320;-3.767040
5.451294;0.005005;-8.946720;0.706320;-3.413880
5.456268;0.004974;-9.770760;-0.235440;-4.473360
5.461273;0.005005;-9.653040;0.706320;-3.767040
5.466278;0.005005;-8.240400;0.824040;-3.649320
5.471252;0.004974;-8.946720;0.235440;-2.825280
5.476257;0.005005;-9.299880;-1.294920;-2.236680
5.481262;0.005005;-11.301120;-1.765800;-2.118960
5.486237;0.004974;-9.299880;-2.118960;-1.059480
5.491241;0.005005;-7.180920;-4.944240;-0.470880
5.496216;0.004974;-14.597280;-3.413880;-4.355640
5.501221;0.005005;-15.185880;-2.472120;-2.354400
5.506195;0.004974;-14.126400;-2.001240;-2.001240
5.511200;0.005005;-15.185880;-1.883520;-2.589840
5.516205;0.005005;-13.773240;-1.883520;-2.589840
5.521179;0.004974;-12.949200;-1.883520;-2.707560
5.526184;0.005005;-12.478320;-1.765800;-2.943000
5.531189;0.005005;-12.125160;-1.648080;-2.943000
5.536163;0.004974;-11.889720;-1.765800;-3.060720
5.541168;0.005005;-11.418840;-1.765800;-3.413880
5.546143;0.004974;-11.065680;-1.765800;-3.060720
5.551147;0.005005;-10.947960;-1.530360;-2.943000
5.556152;0.005005;-10.712520;-1.530360;-2.825280
5.561127;0.004974;-10.477080;-1.412640;-2.943000
5.566101;0.004974;-10.006200;-1.412640;-2.825280
5.571106;0.005005;-10.006200;-1.177200;-3.178440
5.576111;0.005005;-9.888480;-1.059480;-2.943000
5.581085;0.004974;-9.535320;-0.588600;-2.825280
5.586090;0.005005;-9.299880;-0.235440;-2.825280
5.591064;0.004974;-9.535320;-0.117720;-2.825280
5.596069;0.005005;-9.299880;-0.117720;-2.825280
5.601044;0.004974;-9.535320;0.117720;-2.825280
5.606049;0.005005;-9.299880;0.353160;-3.060720
5.611053;0.005005;-9.299880;0.235440;-2.943000
5.616028;0.004974;-9.299880;0.000000;-2.825280
5.621033;0.005005;-9.417600;0.000000;-2.943000
5.626007;0.004974;-9.064440;0.235440;-2.943000
5.631012;0.005005;-9.299880;-0.353160;-3.296160
5.636017;0.005005;-9.417600;-0.470880;-3.060720
5.640991;0.004974;-9.888480;-0.353160;-3.767040
5.645996;0.005005;-10.359360;-0.117720;-3.296160
5.650970;0.004974;-10.594800;0.000000;-2.943000
5.655975;0.005005;-10.712520;-0.235440;-2.589840
5.660980;0.005005;-10.712520;-0.588600;-2.707560
5.665955;0.004974;-11.772000;0.470880;-2.354400
5.670959;0.005005;-13.302360;0.000000;-3.413880
5.675934;0.004974;-11.654280;0.000000;-2.707560
5.680939;0.005005;-10.477080;-0.824040;-2.707560
5.685913;0.004974;-11.065680;-1.059480;-2.825280
5.690918;0.005005;-10.830240;-0.588600;-2.589840
5.695923;0.005005;-10.477080;-0.941760;-3.060720
5.700928;0.005005;-12.831480;21.425040;-10.241640
5.705902;0.004974;-12.007440;9.064440;-5.415120
5.710907;0.005005;-7.887240;2.589840;-1.883520
5.715881;0.004974;-8.593560;0.706320;-2.118960
5.720886;0.005005;-9.535320;0.588600;-2.354400
5.725861;0.004974;-9.182160;-0.588600;-2.472120
5.730865;0.005005;-9.182160;-0.353160;-2.472120
5.735870;0.005005;-9.417600;-0.470880;-2.472120
5.740845;0.004974;-9.417600;-0.117720;-2.472120
5.745850;0.005005;-9.417600;-0.353160;-2.707560
5.750824;0.004974;-8.829000;-0.470880;-2.589840
5.755829;0.005005;-8.122680;-0.824040;-2.472120
5.760803;0.004974;-8.358120;-0.588600;-2.707560
5.765808;0.005005;-8.593560;-0.588600;-2.943000
5.770813;0.005005;-8.593560;-0.470880;-2.825280
5.775787;0.004974;-8.711280;-0.353160;-3.178440
5.780792;0.005005;-8.829000;-0.235440;-2.943000
5.785767;0.004974;-9.182160;-0.117720;-2.707560
5.790771;0.005005;-9.299880;-0.235440;-2.707560
5.795746;0.004974;-9.888480;-0.235440;-2.707560
5.800751;0.005005;-10.123920;-0.235440;-2.707560
5.805725;0.004974;-10.006200;-0.117720;-2.825280
5.810730;0.005005;-10.006200;0.117720;-2.825280
5.815735;0.005005;-10.006200;0.117720;-2.943000
5.820709;0.004974;-10.006200;0.117720;-3.296160
5.825714;0.005005;-10.006200;0.000000;-3.413880
5.830688;0.004974;-10.006200;-0.117720;-3.413880
5.835693;0.005005;-10.006200;-0.117720;-3.296160
5.840698;0.005005;-10.241640;-0.353160;-3.178440
5.845673;0.004974;-10.123920;-0.117720;-3.178440
5.850677;0.005005;-10.241640;0.000000;-2.943000
5.855682;0.005005;-10.241640;-0.117720;-2.707560
5.860657;0.004974;-10.006200;-0.117720;-2.707560
5.865662;0.005005;-10.123920;0.000000;-2.472120
5.870636;0.004974;-10.477080;0.000000;-2.589840
5.875641;0.005005;-10.947960;0.000000;-2.472120
5.880646;0.005005;-11.183400;-0.235440;-2.707560
5.885620;0.004974;-10.477080;-0.706320;-2.589840
5.890625;0.005005;-12.007440;-0.117720;-2.825280
5.895599;0.004974;-9.299880;-0.588600;-1.412640
5.900604;0.005005;-10.241640;-1.059480;-2.118960
5.905609;0.005005;-10.241640;-0.588600;-3.178440
5.910583;0.004974;-11.183400;-0.117720;-3.060720
5.915588;0.005005;-11.183400;0.235440;-2.943000
5.920563;0.004974;-10.241640;-0.941760;-2.589840
5.925568;0.005005;-9.888480;-0.706320;-2.825280
5.930573;0.005005;-9.064440;-1.059480;-3.060720
5.935547;0.004974;-9.417600;-0.941760;-2.943000
5.940552;0.005005;-7.887240;-1.294920;-2.472120
5.945526;0.004974;-7.416360;-0.941760;-2.589840
5.950531;0.005005;-6.827760;-1.059480;-2.589840
5.955536;0.005005;-6.945480;-0.706320;-2.236680
5.960510;0.004974;-7.769520;-1.059480;-2.354400
5.965515;0.005005;-7.416360;-0.941760;-2.589840
5.970490;0.004974;-7.887240;-0.941760;-2.589840
5.975494;0.005005;-8.004960;-1.177200;-2.472120
5.980469;0.004974;-8.240400;-0.706320;-2.589840
5.985474;0.005005;-8.475840;-0.588600;-2.472120
5.990479;0.005005;-8.829000;-0.706320;-2.472120
5.995453;0.004974;-8.946720;-0.470880;-2.354400
6.000458;0.005005;-9.182160;-0.588600;-2.472120
6.005432;0.004974;-9.182160;-0.470880;-2.236680
6.010437;0.005005;-9.182160;-0.353160;-2.236680
6.015411;0.004974;-9.182160;-0.117720;-2.118960
6.020416;0.005005;-9.299880;-0.235440;-2.354400
6.025421;0.005005;-9.182160;-0.117720;-2.472120
6.030396;0.004974;-9.299880;0.117720;-2.472120
6.035400;0.005005;-9.417600;0.117720;-2.589840
6.040405;0.005005;-9.888480;0.588600;-2.589840
6.045380;0.004974;-10.123920;0.353160;-2.707560
6.050385;0.005005;-10.123920;0.706320;-2.472120
6.055359;0.004974;-10.123920;0.588600;-2.472120
6.060364;0.005005;-10.477080;0.706320;-2.472120
6.065338;0.004974;-10.359360;0.588600;-2.472120
6.070343;0.005005;-10.477080;0.588600;-2.589840
6.075317;0.004974;-10.594800;0.353160;-2.707560
6.080322;0.005005;-10.477080;0.941760;-2.825280
6.085327;0.005005;-10.241640;0.470880;-2.825280
6.090302;0.004974;-10.006200;0.706320;-2.943000
6.095306;0.005005;-10.006200;1.059480;-2.825280
6.100281;0.004974;-8.475840;2.001240;-0.470880
6.105286;0.005005;-9.299880;2.118960;-1.530360
6.110260;0.004974;-9.417600;1.883520;-2.472120
6.115265;0.005005;-9.653040;1.883520;-2.589840
6.120270;0.005005;-10.712520;1.765800;-2.943000
6.125244;0.004974;-10.830240;1.883520;-2.943000
6.130249;0.005005;-11.183400;1.883520;-2.825280
6.135223;0.004974;-11.772000;1.883520;-3.060720
6.140228;0.005005;-12.596040;1.648080;-3.413880
6.145233;0.005005;-14.126400;1.530360;-3.531600
6.150208;0.004974;-13.184640;1.059480;-3.060720
6.155212;0.005005;-12.360600;0.824040;-2.943000
6.160187;0.004974;-12.007440;0.824040;-2.707560
6.165192;0.005005;-11.654280;0.824040;-2.707560
6.170197;0.005005;-11.418840;0.588600;-2.707560
6.175171;0.004974;-11.301120;0.235440;-2.707560
6.180176;0.005005;-11.301120;0.117720;-2.589840
6.185150;0.004974;-11.536560;0.117720;-2.707560
6.190155;0.005005;-10.947960;-0.235440;-2.472120
6.195129;0.004974;-10.594800;-0.353160;-2.236680
6.200134;0.005005;-10.359360;-0.824040;-2.236680
6.205109;0.004974;-10.123920;-0.706320;-2.236680
6.210114;0.005005;-9.888480;-0.706320;-2.236680
6.215118;0.005005;-10.006200;-0.470880;-2.354400
6.220093;0.004974;-9.770760;-0.470880;-2.472120
6.225098;0.005005;-9.770760;-0.235440;-2.354400
6.230072;0.004974;-9.535320;-0.353160;-2.354400
6.235077;0.005005;-9.535320;-0.235440;-2.472120
6.240051;0.004974;-9.417600;-0.235440;-2.589840
6.245056;0.005005;-9.535320;-0.117720;-2.472120
6.250031;0.004974;-9.770760;0.000000;-2.589840
6.255035;0.005005;-9.770760;0.000000;-2.472120
6.260040;0.005005;-9.770760;0.000000;-2.589840
6.265015;0.004974;-9.653040;0.000000;-2.707560
6.270020;0.005005;-9.770760;0.000000;-2.707560
6.274994;0.004974;-9.770760;0.117720;-2.707560
6.279999;0.005005;-9.770760;0.235440;-2.589840
6.284973;0.004974;-9.653040;0.117720;-2.707560
6.289978;0.005005;-9.770760;0.353160;-2.707560
6.294983;0.005005;-9.770760;0.470880;-2.472120
6.299957;0.004974;-9.770760;0.470880;-2.589840
6.304962;0.005005;-9.653040;0.353160;-2.707560
6.309967;0.005005;-9.770760;0.235440;-2.707560
6.314941;0.004974;-9.770760;0.470880;-2.707560
6.319946;0.005005;-9.653040;0.470880;-2.589840
6.324921;0.004974;-9.888480;0.588600;-2.707560
6.329926;0.005005;-10.006200;0.588600;-2.825280
6.334930;0.005005;-9.888480;0.470880;-2.707560
6.339905;0.004974;-10.123920;0.470880;-2.589840
6.344910;0.005005;-10.123920;0.470880;-2.589840
6.349884;0.004974;-10.123920;0.588600;-2.707560
6.354889;0.005005;-10.241640;0.470880;-2.589840
6.359894;0.005005;-10.359360;0.588600;-2.707560
6.364868;0.004974;-10.594800;0.588600;-2.589840
6.369873;0.005005;-10.477080;0.706320;-2.707560
6.374847;0.004974;-10.477080;0.824040;-2.472120
6.379852;0.005005;-10.477080;0.941760;-2.589840
6.384827;0.004974;-10.712520;0.588600;-2.707560
6.389832;0.005005;-10.594800;1.059480;-2.236680
6.394836;0.005005;-10.712520;1.530360;-2.118960
6.399811;0.004974;-10.359360;1.530360;-2.354400
6.404816;0.005005;-10.359360;0.941760;-2.472120
6.409790;0.004974;-10.947960;1.412640;-2.589840
6.414795;0.005005;-10.594800;1.648080;-2.472120
6.419800;0.005005;-10.947960;1.412640;-2.589840
6.424774;0.004974;-10.947960;0.824040;-2.707560
6.429779;0.005005;-10.712520;0.470880;-2.589840
6.434753;0.004974;-10.947960;0.353160;-2.707560
6.439758;0.005005;-10.830240;0.000000;-2.707560
6.444733;0.004974;-10.359360;-0.470880;-2.825280
6.449738;0.005005;-8.829000;0.000000;-2.825280
6.454742;0.005005;-8.475840;0.941760;-2.354400
6.459717;0.004974;-9.653040;1.177200;-2.236680
6.464722;0.005005;-10.712520;1.177200;-2.354400
6.469696;0.004974;-10.477080;1.059480;-2.589840
6.474701;0.005005;-10.712520;1.059480;-2.589840
6.479706;0.005005;-10.594800;1.530360;-2.707560
6.484680;0.004974;-10.123920;1.765800;-2.707560
6.489685;0.005005;-10.123920;1.883520;-2.707560
6.494659;0.004974;-10.241640;1.412640;-2.707560
6.499664;0.005005;-10.123920;0.824040;-2.354400
6.504639;0.004974;-10.241640;0.941760;-2.354400
6.509644;0.005005;-10.241640;0.470880;-2.118960
6.514618;0.004974;-10.123920;0.588600;-2.001240
6.519623;0.005005;-10.359360;0.706320;-1.883520
6.524628;0.005005;-10.359360;0.706320;-2.001240
6.529602;0.004974;-10.359360;0.588600;-2.001240
6.534607;0.005005;-10.123920;0.824040;-2.118960
6.539581;0.004974;-10.123920;0.470880;-2.236680
6.544586;0.005005;-10.123920;0.470880;-2.236680
6.549561;0.004974;-10.241640;0.470880;-2.236680
6.554565;0.005005;-10.123920;0.824040;-2.354400
6.559540;0.004974;-10.006200;1.177200;-2.472120
6.564545;0.005005;-10.123920;0.941760;-2.472120
6.569519;0.004974;-10.006200;1.059480;-2.589840
6.574524;0.005005;-10.006200;1.059480;-2.472120
6.579529;0.005005;-10.123920;1.177200;-2.472120
6.584534;0.005005;-10.006200;1.412640;-2.472120
6.589508;0.004974;-10.241640;1.177200;-2.354400
6.594482;0.004974;-10.594800;1.412640;-2.354400
6.599487;0.005005;-10.006200;1.059480;-2.472120
6.604462;0.004974;-10.241640;0.824040;-2.472120
6.609467;0.005005;-10.241640;0.941760;-2.472120
6.614441;0.004974;-10.712520;1.059480;-2.354400
6.619446;0.005005;-10.594800;0.824040;-2.236680
6.624420;0.004974;-10.477080;0.588600;-2.118960
6.629425;0.005005;-10.712520;0.353160;-2.354400
6.634399;0.004974;-10.712520;0.235440;-2.354400
6.639404;0.005005;-10.712520;0.353160;-2.472120
6.644379;0.004974;-10.594800;0.588600;-2.589840
6.649384;0.005005;-10.359360;0.706320;-2.707560
6.654388;0.005005;-10.477080;0.588600;-2.589840
6.659363;0.004974;-10.594800;0.588600;-2.589840
6.664368;0.005005;-10.477080;0.470880;-2.472120
6.669342;0.004974;-10.359360;0.470880;-2.354400
6.674347;0.005005;-10.359360;0.353160;-2.589840
6.679321;0.004974;-10.006200;0.470880;-2.589840
6.684326;0.005005;-10.123920;0.235440;-2.589840
6.689301;0.004974;-10.241640;0.235440;-2.589840
6.694305;0.005005;-10.241640;0.117720;-2.236680
6.699310;0.005005;-10.123920;0.353160;-2.236680
6.704285;0.004974;-10.123920;0.706320;-2.472120
6.709290;0.005005;-10.241640;1.177200;-2.354400
6.714264;0.004974;-10.123920;0.824040;-2.001240
6.719269;0.005005;-9.888480;1.059480;-2.118960
6.724243;0.004974;-10.006200;1.412640;-2.118960
6.729248;0.005005;-10.359360;1.177200;-2.118960
6.734253;0.005005;-10.477080;0.941760;-2.118960
6.739227;0.004974;-10.477080;0.941760;-2.118960
6.744232;0.005005;-10.359360;1.059480;-2.354400
6.749207;0.004974;-10.477080;1.177200;-2.236680
6.754211;0.005005;-10.477080;1.294920;-2.472120
6.759216;0.005005;-10.477080;1.059480;-2.236680
6.764191;0.004974;-10.594800;1.294920;-2.236680
6.769196;0.005005;-10.712520;1.294920;-2.354400
6.774170;0.004974;-10.830240;1.294920;-2.472120
6.779175;0.005005;-10.830240;1.294920;-2.472120
6.784180;0.005005;-10.594800;1.294920;-2.354400
6.789154;0.004974;-10.477080;1.294920;-2.354400
6.794159;0.005005;-10.594800;1.294920;-2.354400
6.799164;0.005005;-10.477080;1.177200;-2.354400
6.804138;0.004974;-10.477080;1.059480;-2.236680
6.809143;0.005005;-10.359360;0.824040;-2.001240
6.814117;0.004974;-10.359360;1.059480;-2.236680
6.819122;0.005005;-10.359360;1.177200;-2.236680
6.824127;0.005005;-10.594800;0.941760;-2.472120
6.829102;0.004974;-10.477080;0.824040;-2.236680
6.834076;0.004974;-10.477080;1.177200;-2.236680
6.839081;0.005005;-10.359360;1.177200;-2.236680
6.844086;0.005005;-10.241640;0.824040;-2.118960
6.849060;0.004974;-10.477080;0.706320;-2.472120
6.854065;0.005005;-10.359360;1.059480;-2.354400
6.859039;0.004974;-10.477080;1.059480;-2.472120
6.864044;0.005005;-10.359360;1.294920;-2.472120
6.869019;0.004974;-10.241640;1.059480;-2.589840
6.874023;0.005005;-10.123920;0.824040;-2.472120
6.879028;0.005005;-10.241640;1.177200;-2.354400
6.884003;0.004974;-10.006200;1.177200;-2.589840
6.889008;0.005005;-10.006200;1.294920;-2.589840
6.893982;0.004974;-9.770760;1.294920;-2.589840
6.898987;0.005005;-9.653040;1.294920;-2.472120
6.903992;0.005005;-9.770760;1.177200;-2.354400
6.908966;0.004974;-10.006200;1.059480;-2.236680
6.913971;0.005005;-9.888480;0.941760;-2.236680
6.918945;0.004974;-9.888480;1.059480;-2.118960
6.923920;0.004974;-10.006200;1.177200;-2.001240
6.928925;0.005005;-9.888480;1.177200;-2.118960
6.933899;0.004974;-10.006200;1.059480;-2.236680
6.938904;0.005005;-9.888480;1.177200;-2.472120
6.943878;0.004974;-10.006200;1.530360;-2.354400
6.948883;0.005005;-9.653040;1.294920;-2.354400
6.953888;0.005005;-9.770760;1.177200;-2.236680
6.958862;0.004974;-9.888480;1.177200;-2.354400
6.963867;0.005005;-10.241640;1.177200;-2.589840
6.968842;0.004974;-10.123920;0.941760;-2.236680
6.973846;0.005005;-10.241640;0.706320;-2.118960
6.978821;0.004974;-10.006200;0.941760;-2.472120
6.983826;0.005005;-9.888480;0.824040;-2.354400
6.988800;0.004974;-10.359360;0.941760;-2.589840
6.993805;0.005005;-10.241640;1.177200;-2.236680
6.998810;0.005005;-10.241640;1.059480;-2.118960
7.003784;0.004974;-10.241640;0.824040;-2.118960
7.008789;0.005005;-10.241640;0.941760;-2.001240
7.013763;0.004974;-10.123920;0.824040;-2.001240
7.018768;0.005005;-10.241640;0.941760;-2.118960
7.023743;0.004974;-10.241640;0.941760;-2.236680
7.028748;0.005005;-10.123920;0.706320;-2.236680
7.033752;0.005005;-10.006200;0.824040;-2.001240
7.038727;0.004974;-9.888480;0.706320;-2.118960
7.043732;0.005005;-10.006200;0.941760;-2.001240
7.048706;0.004974;-9.888480;0.588600;-2.118960
7.053711;0.005005;-9.770760;0.588600;-2.236680
7.058685;0.004974;-9.770760;0.824040;-2.236680
7.063690;0.005005;-9.888480;0.941760;-2.001240
7.068665;0.004974;-10.006200;0.824040;-2.001240
7.073669;0.005005;-9.888480;0.824040;-2.236680
7.078674;0.005005;-9.770760;0.941760;-2.236680
7.083649;0.004974;-9.888480;1.177200;-2.236680
7.088654;0.005005;-9.888480;1.177200;-2.118960
7.093628;0.004974;-10.123920;1.177200;-2.236680
7.098633;0.005005;-10.241640;1.294920;-2.354400
7.103607;0.004974;-10.123920;0.941760;-2.354400
7.108612;0.005005;-10.123920;0.941760;-2.236680
7.113586;0.004974;-10.123920;0.824040;-1.765800
7.118591;0.005005;-10.241640;0.941760;-1.765800
7.123566;0.004974;-10.123920;1.294920;-2.001240
7.128571;0.005005;-10.477080;1.294920;-2.118960
7.133545;0.004974;-10.477080;1.412640;-2.118960
7.138550;0.005005;-10.359360;1.177200;-2.236680
7.143555;0.005005;-10.359360;1.177200;-2.236680
7.148529;0.004974;-10.712520;0.824040;-2.118960
7.153534;0.005005;-10.712520;0.824040;-2.118960
7.158508;0.004974;-10.830240;0.470880;-2.118960
7.163513;0.005005;-10.830240;0.588600;-2.118960
7.168518;0.005005;-11.183400;0.588600;-2.001240
7.173492;0.004974;-11.183400;0.470880;-2.001240
7.178497;0.005005;-10.830240;0.470880;-2.236680
7.183472;0.004974;-11.183400;0.353160;-2.472120
7.188477;0.005005;-11.065680;0.470880;-2.236680
7.193451;0.004974;-11.301120;0.706320;-2.236680
7.198456;0.005005;-11.065680;0.706320;-2.236680
7.203461;0.005005;-11.065680;0.588600;-2.236680
7.208435;0.004974;-11.183400;0.470880;-2.236680
7.213440;0.005005;-11.301120;0.470880;-2.472120
7.218414;0.004974;-11.065680;0.353160;-2.236680
7.223419;0.005005;-10.947960;0.470880;-2.236680
7.228394;0.004974;-10.830240;0.588600;-2.001240
7.233398;0.005005;-10.594800;0.706320;-2.001240
7.238373;0.004974;-10.712520;0.470880;-2.001240
7.243378;0.005005;-10.477080;0.588600;-2.118960
7.248383;0.005005;-10.477080;0.353160;-2.354400
7.253357;0.004974;-10.477080;0.353160;-2.236680
7.258362;0.005005;-10.359360;0.470880;-2.236680
7.263336;0.004974;-10.006200;0.353160;-2.118960
7.268341;0.005005;-10.006200;0.353160;-2.118960
7.273346;0.005005;-9.888480;0.353160;-2.118960
7.278320;0.004974;-10.006200;0.470880;-2.001240
7.283325;0.005005;-9.653040;0.706320;-2.001240
7.288300;0.004974;-9.770760;0.824040;-2.236680
7.293304;0.005005;-10.006200;0.824040;-2.236680
7.298279;0.004974;-10.006200;0.941760;-2.354400
7.303284;0.005005;-9.888480;0.941760;-2.236680
7.308258;0.004974;-10.006200;0.824040;-2.236680
7.313263;0.005005;-10.123920;0.824040;-2.236680
7.318268;0.005005;-10.241640;0.706320;-2.236680
7.323242;0.004974;-10.241640;0.941760;-2.236680
7.328247;0.005005;-10.241640;0.706320;-2.118960
7.333252;0.005005;-10.359360;0.706320;-2.236680
7.338226;0.004974;-10.712520;1.059480;-2.354400
7.343231;0.005005;-10.712520;0.824040;-2.236680
7.348236;0.005005;-10.712520;1.059480;-2.118960
7.353210;0.004974;-10.947960;1.177200;-2.236680
7.358215;0.005005;-10.594800;1.412640;-2.001240
7.363190;0.004974;-10.594800;1.648080;-2.001240
7.368195;0.005005;-10.947960;1.530360;-2.118960
7.373199;0.005005;-10.712520;1.530360;-2.118960
7.378174;0.004974;-10.712520;1.412640;-2.236680
7.383148;0.004974;-11.065680;1.177200;-2.354400
7.388153;0.005005;-10.830240;1.059480;-2.472120
7.393127;0.004974;-10.594800;0.941760;-2.236680
7.398132;0.005005;-10.477080;1.177200;-2.236680
7.403137;0.005005;-10.359360;1.059480;-2.354400
7.408142;0.005005;-10.241640;0.824040;-2.236680
7.413116;0.004974;-10.241640;0.941760;-2.001240
7.418091;0.004974;-10.123920;0.941760;-2.118960
7.423096;0.005005;-10.241640;0.941760;-2.118960
7.428070;0.004974;-10.477080;0.941760;-2.001240
7.433075;0.005005;-10.123920;1.059480;-2.001240
7.438049;0.004974;-10.359360;1.059480;-2.236680
7.443054;0.005005;-10.477080;0.706320;-2.236680
7.448029;0.004974;-10.241640;0.941760;-2.236680
7.453033;0.005005;-10.241640;0.706320;-2.236680
7.458038;0.005005;-10.359360;1.177200;-2.236680
7.463013;0.004974;-10.477080;1.059480;-2.236680
7.468018;0.005005;-10.359360;1.177200;-2.118960
7.472992;0.004974;-10.241640;0.941760;-2.118960
7.477997;0.005005;-10.006200;0.824040;-2.354400
7.482971;0.004974;-10.123920;1.059480;-2.118960
7.487976;0.005005;-10.359360;0.941760;-2.354400
7.492950;0.004974;-10.241640;0.588600;-2.589840
7.497925;0.004974;-10.123920;0.706320;-2.472120
7.502930;0.005005;-10.123920;0.588600;-2.589840
7.507904;0.004974;-10.123920;0.824040;-2.707560
7.512909;0.005005;-10.006200;1.059480;-2.707560
7.517883;0.004974;-10.006200;1.059480;-2.589840
7.522888;0.005005;-10.006200;0.941760;-2.472120
7.527863;0.004974;-10.006200;1.059480;-2.472120
7.532867;0.005005;-9.888480;1.059480;-2.472120
7.537872;0.005005;-9.888480;0.941760;-2.472120
7.542847;0.004974;-10.006200;0.941760;-2.472120
7.547852;0.005005;-9.770760;0.824040;-2.472120
7.552826;0.004974;-9.888480;0.824040;-2.589840
7.557831;0.005005;-10.123920;0.941760;-2.707560
7.562805;0.004974;-10.123920;0.941760;-2.589840
7.567810;0.005005;-10.123920;0.941760;-2.707560
7.572784;0.004974;-9.888480;0.706320;-2.707560
7.577789;0.005005;-9.770760;0.706320;-2.472120
7.582794;0.005005;-9.653040;0.824040;-2.472120
7.587769;0.004974;-10.006200;0.706320;-2.589840
7.592773;0.005005;-9.888480;0.353160;-2.707560
7.597748;0.004974;-10.123920;0.235440;-2.589840
7.602753;0.005005;-10.006200;0.235440;-2.707560
7.607727;0.004974;-10.006200;0.588600;-2.472120
7.612732;0.005005;-10.123920;0.941760;-2.589840
7.617737;0.005005;-10.241640;0.824040;-2.707560
7.622711;0.004974;-10.123920;0.824040;-2.707560
7.627716;0.005005;-10.123920;0.824040;-2.472120
7.632690;0.004974;-9.888480;0.824040;-2.354400
7.637695;0.005005;-10.241640;0.824040;-2.472120
7.642670;0.004974;-10.241640;0.824040;-2.472120
7.647675;0.005005;-10.241640;0.706320;-2.472120
7.652649;0.004974;-10.006200;0.588600;-2.354400
7.657654;0.005005;-10.123920;0.706320;-2.472120
7.662628;0.004974;-10.241640;0.706320;-2.354400
7.667633;0.005005;-10.123920;0.470880;-2.472120
7.672638;0.005005;-10.241640;0.470880;-2.472120
7.677612;0.004974;-10.241640;0.588600;-2.236680
7.682617;0.005005;-10.123920;0.470880;-2.118960
7.687592;0.004974;-10.123920;0.470880;-2.354400
7.692596;0.005005;-10.241640;0.824040;-2.472120
7.697571;0.004974;-10.241640;0.706320;-2.354400
7.702576;0.005005;-10.241640;0.824040;-2.354400
7.707581;0.005005;-10.123920;0.706320;-2.589840
7.712555;0.004974;-10.241640;0.824040;-2.472120
7.717560;0.005005;-10.359360;1.059480;-2.354400
7.722534;0.004974;-10.594800;0.824040;-2.472120
7.727539;0.005005;-10.594800;0.824040;-2.354400
7.732513;0.004974;-10.359360;0.706320;-2.589840
7.737518;0.005005;-10.359360;0.588600;-2.589840
7.742493;0.004974;-10.477080;0.824040;-2.589840
7.747498;0.005005;-10.359360;0.824040;-2.589840
7.752472;0.004974;-10.241640;0.588600;-2.472120
7.757477;0.005005;-10.241640;0.470880;-2.589840
7.762451;0.004974;-10.241640;0.588600;-2.589840
7.767426;0.004974;-10.359360;0.824040;-2.707560
7.772430;0.005005;-10.241640;0.941760;-2.472120
7.777405;0.004974;-10.241640;0.824040;-2.354400
7.782410;0.005005;-10.123920;0.706320;-2.589840
7.787415;0.005005;-10.241640;0.588600;-2.354400
7.792389;0.004974;-10.123920;0.470880;-2.472120
7.797394;0.005005;-10.241640;0.706320;-2.354400
7.802368;0.004974;-10.241640;0.470880;-2.354400
7.807373;0.005005;-10.123920;0.706320;-2.472120
7.812347;0.004974;-10.241640;0.706320;-2.236680
7.817352;0.005005;-10.123920;0.353160;-2.472120
7.822357;0.005005;-10.123920;0.706320;-2.472120
7.827332;0.004974;-10.477080;0.706320;-2.472120
7.832336;0.005005;-10.123920;0.941760;-2.354400
7.837311;0.004974;-10.006200;0.824040;-2.472120
7.842316;0.005005;-10.006200;0.588600;-2.589840
7.847290;0.004974;-10.006200;0.588600;-2.472120
7.852295;0.005005;-10.006200;0.706320;-2.472120
7.857300;0.005005;-10.123920;0.588600;-2.589840
7.862274;0.004974;-10.123920;0.824040;-2.472120
7.867279;0.005005;-10.241640;0.941760;-2.472120
7.872253;0.004974;-9.888480;0.941760;-2.589840
7.877258;0.005005;-10.123920;0.706320;-2.589840
7.882263;0.005005;-10.006200;0.941760;-2.707560
7.887238;0.004974;-10.123920;0.706320;-2.707560
7.892242;0.005005;-10.006200;0.706320;-2.707560
7.897217;0.004974;-9.888480;0.470880;-2.589840
7.902222;0.005005;-10.006200;0.470880;-2.589840
7.907196;0.004974;-10.123920;0.824040;-2.707560
7.912201;0.005005;-10.006200;0.941760;-2.589840
7.917175;0.004974;-10.123920;0.824040;-2.589840
7.922180;0.005005;-10.123920;0.941760;-2.589840
7.927155;0.004974;-10.359360;0.941760;-2.354400
7.932159;0.005005;-10.359360;0.588600;-2.589840
7.937134;0.004974;-10.359360;0.824040;-2.589840
7.942139;0.005005;-10.241640;0.941760;-2.589840
7.947113;0.004974;-10.359360;0.941760;-2.589840
7.952118;0.005005;-10.123920;0.941760;-2.354400
7.957092;0.004974;-10.359360;1.059480;-2.589840
7.962097;0.005005;-10.477080;0.824040;-2.825280
7.967102;0.005005;-10.241640;1.177200;-2.825280
7.972076;0.004974;-10.006200;0.706320;-2.707560
7.977081;0.005005;-10.006200;0.824040;-2.589840
7.982056;0.004974;-10.123920;0.824040;-2.472120
7.987030;0.004974;-10.006200;0.824040;-2.589840
7.992035;0.005005;-9.888480;0.941760;-2.707560
7.997009;0.004974;-10.241640;1.059480;-2.472120
8.002014;0.005005;-10.123920;0.941760;-2.354400
8.007019;0.005005;-10.123920;0.941760;-2.589840
8.011993;0.004974;-10.123920;1.059480;-2.589840
8.016998;0.005005;-10.006200;1.530360;-2.589840
8.021973;0.004974;-10.241640;1.059480;-2.589840
8.026978;0.005005;-10.241640;1.294920;-2.707560
8.031952;0.004974;-10.241640;1.412640;-2.707560
8.036957;0.005005;-10.359360;1.294920;-2.707560
8.041962;0.005005;-10.359360;1.059480;-2.707560
8.046936;0.004974;-10.359360;1.177200;-2.707560
8.051941;0.005005;-10.477080;0.941760;-2.589840
8.056915;0.004974;-10.477080;0.941760;-2.589840
8.061920;0.005005;-10.477080;0.824040;-2.707560
8.066895;0.004974;-10.123920;0.941760;-2.589840
8.071869;0.004974;-10.241640;0.706320;-2.707560
8.076874;0.005005;-10.006200;0.706320;-2.589840
8.081879;0.005005;-9.770760;0.706320;-2.589840
8.086853;0.004974;-10.006200;0.706320;-2.589840
8.091858;0.005005;-10.006200;0.588600;-2.472120
8.096832;0.004974;-10.006200;0.588600;-2.589840
8.101837;0.005005;-10.006200;1.059480;-2.472120
8.106812;0.004974;-9.888480;0.941760;-2.472120
8.111816;0.005005;-9.888480;0.588600;-2.354400
8.116791;0.004974;-9.888480;0.588600;-2.589840
8.121796;0.005005;-10.006200;0.706320;-2.589840
8.126770;0.004974;-10.123920;0.824040;-2.472120
8.131775;0.005005;-10.006200;0.706320;-2.589840
8.136749;0.004974;-10.123920;0.588600;-2.707560
8.141754;0.005005;-10.359360;0.941760;-2.589840
8.146759;0.005005;-10.477080;1.059480;-2.707560
8.151733;0.004974;-10.594800;1.059480;-2.589840
8.156738;0.005005;-10.359360;0.941760;-2.589840
8.161713;0.004974;-10.359360;0.706320;-2.472120
8.166718;0.005005;-10.241640;0.824040;-2.354400
8.171692;0.004974;-10.123920;0.941760;-2.472120
8.176697;0.005005;-10.123920;0.941760;-2.472120
8.181702;0.005005;-10.123920;0.824040;-2.354400
8.186676;0.004974;-10.123920;0.941760;-2.589840
8.191681;0.005005;-10.123920;1.059480;-2.472120
8.196655;0.004974;-10.359360;0.941760;-2.472120
8.201660;0.005005;-10.359360;0.941760;-2.472120
8.206635;0.004974;-10.241640;0.824040;-2.354400
8.211639;0.005005;-10.241640;0.941760;-2.354400
8.216644;0.005005;-10.241640;0.941760;-2.472120
8.221619;0.004974;-10.006200;1.059480;-2.589840
8.226624;0.005005;-10.241640;0.941760;-2.472120
8.231598;0.004974;-10.241640;0.706320;-2.589840
8.236603;0.005005;-10.241640;1.059480;-2.707560
8.241577;0.004974;-10.359360;0.941760;-2.707560
8.246582;0.005005;-10.359360;1.059480;-2.589840
8.251556;0.004974;-10.241640;1.177200;-2.707560
8.256561;0.005005;-10.241640;1.059480;-2.589840
8.261536;0.004974;-9.888480;0.941760;-2.707560
8.266541;0.005005;-10.241640;0.941760;-2.589840
8.271515;0.004974;-10.241640;0.824040;-2.589840
8.276520;0.005005;-10.359360;1.059480;-2.354400
8.281494;0.004974;-10.359360;1.059480;-2.354400
8.286499;0.005005;-10.241640;1.177200;-2.472120
8.291473;0.004974;-10.241640;0.824040;-2.354400
8.296478;0.005005;-10.241640;0.941760;-2.472120
8.301453;0.004974;-10.241640;1.177200;-2.354400
8.306458;0.005005;-10.006200;0.941760;-2.354400
8.311432;0.004974;-10.359360;0.824040;-2.472120
8.316437;0.005005;-10.241640;0.824040;-2.354400
8.321442;0.005005;-10.241640;1.059480;-2.589840
8.326416;0.004974;-10.241640;1.059480;-2.589840
8.331421;0.005005;-10.241640;0.706320;-2.354400
8.336395;0.004974;-10.241640;1.059480;-2.589840
8.341400;0.005005;-9.888480;0.941760;-2.707560
8.346375;0.004974;-10.006200;0.706320;-2.472120
8.351379;0.005005;-9.888480;0.588600;-2.472120
8.356354;0.004974;-10.123920;0.588600;-2.354400
8.361359;0.005005;-10.006200;0.706320;-2.589840
8.366364;0.005005;-10.123920;0.706320;-2.472120
8.371338;0.004974;-10.123920;0.588600;-2.354400
8.376343;0.005005;-10.241640;0.706320;-2.472120
8.381317;0.004974;-10.241640;0.588600;-2.472120
8.386322;0.005005;-10.241640;0.706320;-2.472120
8.391327;0.005005;-10.123920;0.824040;-2.472120
8.396301;0.004974;-10.241640;0.588600;-2.354400
8.401306;0.005005;-10.241640;0.470880;-2.354400
8.406281;0.004974;-10.359360;0.470880;-2.472120
8.411285;0.005005;-10.241640;0.706320;-2.236680
8.416260;0.004974;-10.123920;0.353160;-2.472120
8.421265;0.005005;-10.123920;0.235440;-2.354400
8.426270;0.005005;-10.123920;0.117720;-2.236680
8.431244;0.004974;-9.888480;0.353160;-2.236680
8.436249;0.005005;-10.006200;0.470880;-2.354400
8.441223;0.004974;-9.888480;0.353160;-2.354400
8.446228;0.005005;-10.006200;0.235440;-2.589840
8.451202;0.004974;-9.770760;0.235440;-2.589840
8.456207;0.005005;-9.770760;0.117720;-2.589840
8.461182;0.004974;-9.888480;0.117720;-2.707560
8.466187;0.005005;-10.006200;0.235440;-2.589840
8.471191;0.005005;-9.888480;0.235440;-2.707560
8.476166;0.004974;-10.006200;0.353160;-2.472120
8.481171;0.005005;-10.006200;0.235440;-2.589840
8.486145;0.004974;-10.123920;0.235440;-2.472120
8.491150;0.005005;-10.241640;0.235440;-2.236680
8.496124;0.004974;-10.241640;0.470880;-2.236680
8.501129;0.005005;-10.359360;0.470880;-2.354400
8.506134;0.005005;-10.359360;0.470880;-2.472120
8.511108;0.004974;-10.241640;0.706320;-2.118960
8.516083;0.004974;-10.123920;0.470880;-2.354400
8.521088;0.005005;-10.123920;0.588600;-2.354400
8.526093;0.005005;-10.359360;0.470880;-2.472120
8.531067;0.004974;-10.123920;0.353160;-2.354400
8.536041;0.004974;-10.006200;0.588600;-2.354400
8.541046;0.005005;-10.006200;0.470880;-2.589840
8.546051;0.005005;-10.006200;0.470880;-2.354400
8.551025;0.004974;-10.006200;0.470880;-2.472120
8.556030;0.005005;-9.888480;0.588600;-2.236680
8.561035;0.005005;-9.888480;0.588600;-2.236680
8.566010;0.004974;-9.653040;0.588600;-2.118960
8.571014;0.005005;-9.535320;0.706320;-2.001240
8.575989;0.004974;-9.417600;0.706320;-2.118960
8.580994;0.005005;-9.535320;0.470880;-2.236680
8.585968;0.004974;-9.299880;0.353160;-1.883520
8.590973;0.005005;-9.417600;0.353160;-2.001240
8.595947;0.004974;-9.535320;0.470880;-1.883520
8.600952;0.005005;-9.535320;0.353160;-2.001240
8.605927;0.004974;-9.653040;0.706320;-2.001240
8.610931;0.005005;-9.888480;0.588600;-2.118960
8.615906;0.004974;-9.770760;0.588600;-2.118960
8.620911;0.005005;-9.888480;0.470880;-2.001240
8.625916;0.005005;-10.241640;0.235440;-2.001240
8.630890;0.004974;-10.241640;0.470880;-2.236680
8.635895;0.005005;-10.241640;0.470880;-2.236680
8.640869;0.004974;-10.241640;0.470880;-2.472120
8.645874;0.005005;-10.359360;0.235440;-2.354400
8.650848;0.004974;-10.477080;0.588600;-2.472120
8.655853;0.005005;-10.477080;0.470880;-2.472120
8.660858;0.005005;-10.830240;0.470880;-2.354400
8.665833;0.004974;-10.830240;0.470880;-2.589840
8.670837;0.005005;-10.830240;0.353160;-2.589840
8.675812;0.004974;-10.477080;0.588600;-2.589840
8.680817;0.005005;-10.594800;0.470880;-2.589840
8.685791;0.004974;-10.477080;0.353160;-2.354400
8.690796;0.005005;-10.241640;0.470880;-2.118960
8.695770;0.004974;-10.241640;0.353160;-2.118960
8.700775;0.005005;-10.477080;0.353160;-2.001240
8.705750;0.004974;-10.359360;0.353160;-1.765800
8.710754;0.005005;-10.359360;0.235440;-1.648080
8.715729;0.004974;-10.006200;0.117720;-1.765800
8.720734;0.005005;-10.006200;0.117720;-1.530360
8.725708;0.004974;-10.006200;0.000000;-1.294920
8.730713;0.005005;-10.006200;-0.117720;-1.294920
8.735687;0.004974;-9.888480;0.000000;-1.412640
8.740692;0.005005;-10.123920;0.000000;-1.530360
8.745667;0.004974;-10.241640;0.000000;-1.412640
8.750671;0.005005;-10.594800;-0.117720;-1.530360
8.755646;0.004974;-10.830240;-0.117720;-1.294920
8.760620;0.004974;-10.947960;0.117720;-1.530360
8.765625;0.005005;-11.065680;0.000000;-1.530360
8.770599;0.004974;-11.301120;0.000000;-1.412640
8.775604;0.005005;-11.183400;0.000000;-1.530360
8.780579;0.004974;-11.418840;0.235440;-1.530360
8.785583;0.005005;-11.418840;0.235440;-1.294920
8.790588;0.005005;-11.654280;0.353160;-1.530360
8.795563;0.004974;-11.772000;0.588600;-1.530360
8.800568;0.005005;-11.772000;0.353160;-1.412640
8.805542;0.004974;-11.654280;0.588600;-1.294920
8.810547;0.005005;-11.654280;0.470880;-1.530360
8.815521;0.004974;-11.418840;0.470880;-1.530360
8.820526;0.005005;-11.183400;0.235440;-1.648080
8.825500;0.004974;-10.947960;0.235440;-1.765800
8.830505;0.005005;-10.830240;0.235440;-1.412640
8.835480;0.004974;-10.712520;0.588600;-1.412640
8.840485;0.005005;-10.594800;0.353160;-1.530360
8.845459;0.004974;-10.477080;0.353160;-1.294920
8.850464;0.005005;-10.123920;0.235440;-1.059480
8.855469;0.005005;-9.888480;0.117720;-1.059480
8.860443;0.004974;-10.123920;0.353160;-1.294920
8.865448;0.005005;-10.241640;0.235440;-1.294920
8.870422;0.004974;-10.123920;0.117720;-1.412640
8.875427;0.005005;-10.123920;0.000000;-1.530360
8.880402;0.004974;-9.888480;-0.117720;-1.294920
8.885406;0.005005;-10.006200;0.117720;-0.941760
8.890381;0.004974;-9.653040;0.353160;-1.177200
8.895386;0.005005;-9.770760;0.235440;-1.294920
8.900360;0.004974;-9.653040;0.235440;-1.294920
8.905365;0.005005;-10.006200;0.117720;-1.177200
8.910339;0.004974;-10.123920;0.353160;-1.177200
8.915344;0.005005;-10.241640;0.353160;-1.294920
8.920319;0.004974;-10.006200;0.353160;-1.294920
8.925323;0.005005;-9.770760;0.470880;-1.177200
8.930298;0.004974;-9.888480;0.470880;-1.059480
8.935303;0.005005;-10.006200;0.235440;-1.059480
8.940277;0.004974;-9.888480;0.117720;-0.941760
8.945282;0.005005;-10.006200;0.117720;-1.059480
8.950256;0.004974;-10.123920;0.117720;-0.941760
8.955261;0.005005;-10.123920;0.235440;-0.706320
8.960236;0.004974;-10.123920;0.353160;-1.059480
8.965240;0.005005;-10.006200;0.235440;-1.059480
8.970215;0.004974;-10.006200;0.353160;-1.177200
8.975220;0.005005;-9.888480;0.353160;-0.824040
8.980225;0.005005;-9.653040;0.235440;-0.941760
8.985199;0.004974;-9.770760;0.235440;-0.941760
8.990204;0.005005;-10.006200;0.117720;-0.941760
8.995178;0.004974;-10.006200;0.117720;-0.941760
9.000183;0.005005;-10.006200;0.235440;-0.824040
9.005157;0.004974;-10.006200;0.117720;-0.941760
9.010162;0.005005;-10.241640;0.235440;-0.824040
9.015167;0.005005;-10.123920;-0.117720;-0.824040
9.020142;0.004974;-10.241640;-0.117720;-0.824040
9.025146;0.005005;-10.241640;0.000000;-0.588600
9.030121;0.004974;-10.359360;-0.117720;-0.706320
9.035126;0.005005;-10.359360;0.000000;-0.941760
9.040131;0.005005;-10.594800;-0.353160;-0.824040
9.045105;0.004974;-10.830240;-0.117720;-0.470880
9.050110;0.005005;-10.712520;-0.117720;-0.470880
9.055084;0.004974;-10.594800;0.000000;-0.824040
9.060089;0.005005;-10.594800;-0.117720;-0.824040
9.065094;0.005005;-11.065680;-0.353160;-0.824040
9.070068;0.004974;-10.947960;-0.470880;-1.059480
9.075073;0.005005;-10.947960;-0.588600;-0.941760
9.080048;0.004974;-11.065680;-0.588600;-0.824040
9.085052;0.005005;-11.301120;-0.706320;-1.059480
9.090027;0.004974;-11.772000;-0.824040;-1.177200
9.095032;0.005005;-11.889720;-0.588600;-1.177200
9.100006;0.004974;-11.889720;-0.353160;-1.294920
9.105011;0.005005;-11.889720;-0.353160;-1.412640
9.110016;0.005005;-11.772000;-0.117720;-1.059480
9.114990;0.004974;-12.007440;-0.117720;-0.824040
9.119995;0.005005;-12.007440;-0.235440;-0.706320
9.124969;0.004974;-12.007440;-0.235440;-0.470880
9.129974;0.005005;-12.125160;-0.235440;-0.353160
9.134979;0.005005;-12.007440;-0.117720;-0.353160
9.139954;0.004974;-11.889720;-0.235440;-0.470880
9.144958;0.005005;-12.007440;-0.470880;-0.353160
9.149933;0.004974;-11.889720;-0.235440;0.000000
9.154938;0.005005;-12.125160;-0.117720;-0.470880
9.159912;0.004974;-12.360600;0.117720;-0.470880
9.164917;0.005005;-12.360600;0.117720;-0.353160
9.169922;0.005005;-12.478320;0.235440;-0.941760
9.174896;0.004974;-13.066920;0.706320;-1.059480
9.179901;0.005005;-13.302360;0.824040;-1.177200
9.184906;0.005005;-13.655520;1.059480;-1.177200
9.189880;0.004974;-13.890960;1.412640;-1.530360
9.194885;0.005005;-13.890960;1.648080;-1.648080
9.199860;0.004974;-13.773240;1.648080;-1.883520
9.204865;0.005005;-13.537800;1.765800;-1.883520
9.209839;0.004974;-13.184640;1.883520;-2.001240
9.214844;0.005005;-12.949200;2.001240;-2.118960
9.219818;0.004974;-12.713760;2.001240;-2.236680
9.224823;0.005005;-12.596040;2.001240;-2.236680
9.229828;0.005005;-12.360600;2.001240;-2.354400
9.234802;0.004974;-12.125160;1.883520;-2.354400
9.239807;0.005005;-12.125160;1.648080;-2.589840
9.244781;0.004974;-11.889720;1.648080;-2.707560
9.249786;0.005005;-11.772000;1.765800;-2.707560
9.254761;0.004974;-11.418840;1.883520;-2.707560
9.259735;0.004974;-11.301120;1.883520;-2.707560
9.264740;0.005005;-11.183400;1.648080;-2.589840
9.269745;0.005005;-11.183400;1.648080;-2.707560
9.274719;0.004974;-11.183400;1.294920;-2.707560
9.279724;0.005005;-10.830240;0.706320;-2.707560
9.284698;0.004974;-10.830240;0.706320;-2.825280
9.289703;0.005005;-10.359360;0.470880;-3.060720
9.294678;0.004974;-10.123920;0.353160;-2.943000
9.299683;0.005005;-10.123920;0.235440;-2.943000
9.304657;0.004974;-9.770760;0.353160;-2.943000
9.309662;0.005005;-9.417600;0.353160;-2.943000
9.314667;0.005005;-9.417600;0.235440;-3.178440
9.319641;0.004974;-9.417600;0.235440;-3.296160
9.324646;0.005005;-9.182160;-0.117720;-3.060720
9.329620;0.004974;-9.182160;0.000000;-3.178440
9.334625;0.005005;-9.182160;0.000000;-3.296160
9.339600;0.004974;-9.182160;0.117720;-3.296160
9.344604;0.005005;-9.299880;0.235440;-3.178440
9.349579;0.004974;-9.417600;0.706320;-3.060720
9.354584;0.005005;-9.653040;0.941760;-2.943000
9.359589;0.005005;-9.888480;0.824040;-2.825280
9.364563;0.004974;-10.241640;1.412640;-2.825280
9.369568;0.005005;-10.123920;1.648080;-2.825280
9.374542;0.004974;-9.888480;1.648080;-2.825280
9.379547;0.005005;-10.006200;1.765800;-2.825280
9.384521;0.004974;-10.006200;1.883520;-2.825280
9.389526;0.005005;-10.006200;1.883520;-2.825280
9.394531;0.005005;-10.123920;1.648080;-2.825280
9.399506;0.004974;-10.241640;1.765800;-2.825280
9.404541;0.005035;-9.888480;1.765800;-2.825280
9.409485;0.004944;-10.006200;1.765800;-2.589840
9.414490;0.005005;-10.123920;1.648080;-2.707560
9.419464;0.004974;-10.123920;1.765800;-2.707560
9.424469;0.005005;-10.006200;1.883520;-2.707560
9.429443;0.004974;-9.888480;1.765800;-2.707560
9.434448;0.005005;-9.653040;1.648080;-2.707560
9.439453;0.005005;-9.653040;1.648080;-2.707560
9.444427;0.004974;-9.535320;1.177200;-2.472120
9.449432;0.005005;-9.417600;0.824040;-2.589840
9.454407;0.004974;-9.417600;1.059480;-2.589840
9.459412;0.005005;-9.535320;1.177200;-2.472120
9.464386;0.004974;-9.064440;0.824040;-2.472120
9.469391;0.005005;-8.829000;0.706320;-2.236680
9.474365;0.004974;-8.946720;0.470880;-2.001240
9.479370;0.005005;-9.182160;0.588600;-1.883520
9.484344;0.004974;-9.182160;0.470880;-2.236680
9.489349;0.005005;-8.946720;0.353160;-2.001240
9.494324;0.004974;-8.946720;0.353160;-2.118960
9.499329;0.005005;-8.946720;0.235440;-2.236680
9.504303;0.004974;-9.064440;0.117720;-2.354400
9.509308;0.005005;-9.064440;0.117720;-2.472120
9.514282;0.004974;-8.946720;0.235440;-2.354400
9.519287;0.005005;-8.593560;0.353160;-2.354400
9.524261;0.004974;-8.711280;0.117720;-2.354400
9.529266;0.005005;-8.711280;0.117720;-2.354400
9.534241;0.004974;-8.475840;0.353160;-2.354400
9.539246;0.005005;-8.829000;0.470880;-2.472120
9.544220;0.004974;-8.593560;0.588600;-2.354400
9.549225;0.005005;-8.593560;0.588600;-2.354400
9.554230;0.005005;-8.593560;0.470880;-2.472120
9.559204;0.004974;-9.064440;0.588600;-2.472120
9.564209;0.005005;-8.946720;0.941760;-2.472120
9.569183;0.004974;-9.064440;0.706320;-2.236680
9.574188;0.005005;-9.299880;0.824040;-2.236680
9.579193;0.005005;-9.299880;0.470880;-2.236680
9.584167;0.004974;-9.299880;0.470880;-2.118960
9.589172;0.005005;-9.299880;0.353160;-2.236680
9.594147;0.004974;-9.182160;0.470880;-2.001240
9.599152;0.005005;-9.417600;0.588600;-2.001240
9.604126;0.004974;-9.417600;0.353160;-2.118960
9.609131;0.005005;-9.182160;0.353160;-2.118960
9.614136;0.005005;-9.535320;0.235440;-2.118960
9.619110;0.004974;-9.417600;0.117720;-2.118960
9.624115;0.005005;-9.299880;0.000000;-1.883520
9.629089;0.004974;-9.299880;0.235440;-1.765800
9.634094;0.005005;-9.299880;0.117720;-1.883520
9.639099;0.005005;-9.182160;0.117720;-1.883520
9.644073;0.004974;-9.299880;0.235440;-2.001240
9.649078;0.005005;-9.417600;0.235440;-1.883520
9.654053;0.004974;-9.535320;0.235440;-1.765800
9.659058;0.005005;-9.653040;0.235440;-1.765800
9.664032;0.004974;-9.653040;0.353160;-1.648080
9.669037;0.005005;-9.653040;0.588600;-1.530360
9.674011;0.004974;-9.770760;0.588600;-1.648080
9.679016;0.005005;-9.888480;0.706320;-1.648080
9.683990;0.004974;-9.770760;0.470880;-1.883520
9.688995;0.005005;-9.653040;0.353160;-1.765800
9.693970;0.004974;-9.653040;0.588600;-1.648080
9.698975;0.005005;-9.770760;0.470880;-1.530360
9.703979;0.005005;-9.888480;0.588600;-1.177200
9.708954;0.004974;-9.770760;0.588600;-1.412640
9.713959;0.005005;-9.770760;0.824040;-1.530360
9.718933;0.004974;-9.888480;1.294920;-1.530360
9.723938;0.005005;-10.241640;1.059480;-1.765800
9.728912;0.004974;-10.123920;1.294920;-1.648080
9.733917;0.005005;-10.006200;1.648080;-1.648080
9.738892;0.004974;-10.006200;1.648080;-1.648080
9.743896;0.005005;-10.241640;1.412640;-1.765800
9.748871;0.004974;-10.359360;1.648080;-1.765800
9.753876;0.005005;-10.594800;1.765800;-1.765800
9.758850;0.004974;-10.947960;1.765800;-1.883520
9.763855;0.005005;-10.947960;1.648080;-2.001240
9.768829;0.004974;-11.183400;1.412640;-1.883520
9.773834;0.005005;-11.183400;1.059480;-1.765800
9.778839;0.005005;-11.183400;0.588600;-1.765800
9.783813;0.004974;-11.418840;0.235440;-1.765800
9.788818;0.005005;-11.772000;-0.117720;-1.412640
9.793793;0.004974;-12.007440;0.000000;-1.177200
9.798798;0.005005;-12.125160;-0.117720;-0.941760
9.803772;0.004974;-12.125160;0.117720;-0.588600
9.808777;0.005005;-11.889720;0.588600;-0.117720
9.813782;0.005005;-11.536560;1.177200;0.470880
9.818756;0.004974;-11.536560;1.412640;0.588600
9.823761;0.005005;-11.536560;1.648080;0.353160
9.828735;0.004974;-11.654280;1.648080;0.117720
9.833740;0.005005;-11.889720;1.294920;-0.117720
9.838715;0.004974;-11.654280;0.824040;-0.235440
9.843719;0.005005;-11.889720;0.470880;-0.706320
9.848694;0.004974;-12.007440;0.117720;-1.177200
9.853699;0.005005;-12.360600;-0.235440;-1.883520
9.858673;0.004974;-12.360600;-0.117720;-2.354400
9.863678;0.005005;-12.242880;-0.117720;-2.707560
9.868652;0.004974;-12.242880;-0.706320;-3.178440
9.873657;0.005005;-12.242880;-0.824040;-3.884760
9.878662;0.005005;-12.596040;-1.294920;-4.355640
9.883636;0.004974;-12.478320;-1.412640;-4.591080
9.888641;0.005005;-12.360600;-1.412640;-4.591080
9.893616;0.004974;-11.772000;-1.294920;-4.826520
9.898621;0.005005;-11.536560;-1.177200;-4.826520
9.903595;0.004974;-11.065680;-1.294920;-5.061960
9.908600;0.005005;-10.712520;-0.824040;-4.826520
9.913574;0.004974;-10.712520;-0.706320;-4.708800
9.918579;0.005005;-10.477080;-0.117720;-4.591080
9.923584;0.005005;-10.123920;0.235440;-4.120200
9.928558;0.004974;-10.123920;0.706320;-4.002480
9.933563;0.005005;-10.123920;1.177200;-3.531600
9.938538;0.004974;-10.594800;1.530360;-3.178440
9.943542;0.005005;-10.830240;1.648080;-2.943000
9.948547;0.005005;-11.183400;1.648080;-2.825280
9.953522;0.004974;-11.654280;1.765800;-2.943000
9.958527;0.005005;-12.007440;1.765800;-2.825280
9.963501;0.004974;-12.360600;1.765800;-2.825280
9.968506;0.005005;-12.713760;1.530360;-2.707560
9.973480;0.004974;-13.184640;1.177200;-2.707560
9.978485;0.005005;-13.302360;0.588600;-2.707560
9.983459;0.004974;-13.302360;0.470880;-2.825280
9.988464;0.005005;-12.949200;0.470880;-2.825280
9.993439;0.004974;-12.596040;0.117720;-2.825280
9.998444;0.005005;-12.007440;0.117720;-2.825280
10.003418;0.004974;-11.654280;0.117720;-2.707560
10.008423;0.005005;-11.301120;0.000000;-2.707560
10.013428;0.005005;-11.065680;0.117720;-2.707560
10.018402;0.004974;-10.947960;0.117720;-2.707560
10.023407;0.005005;-10.830240;0.117720;-2.589840
10.028381;0.004974;-10.594800;0.235440;-2.589840
10.033386;0.005005;-10.241640;0.235440;-2.472120
10.038361;0.004974;-10.006200;0.235440;-2.472120
10.043365;0.005005;-9.888480;0.000000;-2.589840
10.048340;0.004974;-9.770760;-0.117720;-2.589840
10.053345;0.005005;-9.417600;0.000000;-2.472120
10.058319;0.004974;-9.182160;0.000000;-2.472120
10.063324;0.005005;-9.299880;0.235440;-2.589840
10.068298;0.004974;-9.182160;0.470880;-2.589840
10.073303;0.005005;-8.829000;0.824040;-2.354400
10.078308;0.005005;-8.593560;0.941760;-2.236680
10.083282;0.004974;-8.475840;1.059480;-2.354400
10.088287;0.005005;-8.358120;1.059480;-2.354400
10.093262;0.004974;-8.475840;1.177200;-2.118960
10.098267;0.005005;-8.358120;1.059480;-2.118960
10.103241;0.004974;-8.358120;1.177200;-2.118960
10.108246;0.005005;-8.358120;1.412640;-2.001240
10.113251;0.005005;-7.887240;1.294920;-2.236680
10.118225;0.004974;-7.769520;1.177200;-1.883520
10.123230;0.005005;-7.887240;1.294920;-1.883520
10.128204;0.004974;-7.534080;1.294920;-1.648080
10.133209;0.005005;-7.651800;1.294920;-1.765800
10.138184;0.004974;-7.534080;1.412640;-1.765800
10.143188;0.005005;-7.769520;1.059480;-1.765800
10.148163;0.004974;-7.887240;0.824040;-1.765800
10.153168;0.005005;-7.769520;0.706320;-1.883520
10.158173;0.005005;-8.004960;0.824040;-1.765800
10.163147;0.004974;-8.004960;0.941760;-1.765800
10.168152;0.005005;-7.887240;1.177200;-1.765800
10.173126;0.004974;-8.004960;1.059480;-1.648080
10.178131;0.005005;-8.122680;1.177200;-1.648080
10.183105;0.004974;-8.122680;1.177200;-1.883520
10.188110;0.005005;-8.240400;1.177200;-1.765800
10.193085;0.004974;-8.358120;1.177200;-1.648080
10.198090;0.005005;-8.358120;1.294920;-1.530360
10.203064;0.004974;-8.475840;1.530360;-1.412640
10.208069;0.005005;-8.711280;1.648080;-1.530360
10.213043;0.004974;-8.829000;1.530360;-1.177200
10.218048;0.005005;-8.711280;1.530360;-1.412640
10.223022;0.004974;-8.829000;1.648080;-1.177200
10.228027;0.005005;-9.064440;1.648080;-1.177200
10.233002;0.004974;-9.064440;1.530360;-1.177200
10.238007;0.005005;-9.064440;1.530360;-1.294920
10.243011;0.005005;-8.946720;1.412640;-1.294920
10.247986;0.004974;-9.299880;1.294920;-1.177200
10.252991;0.005005;-9.417600;1.294920;-1.177200
10.257965;0.004974;-9.653040;1.059480;-1.177200
10.262970;0.005005;-9.770760;0.470880;-1.059480
10.267944;0.004974;-10.006200;0.353160;-0.824040
10.272949;0.005005;-10.241640;0.235440;-0.588600
10.277954;0.005005;-10.241640;0.235440;-0.470880
10.282928;0.004974;-10.477080;0.117720;-0.470880
10.287933;0.005005;-10.359360;0.000000;-0.235440
10.292908;0.004974;-10.241640;-0.235440;-0.235440
10.297913;0.005005;-10.359360;-0.470880;-0.117720
10.302887;0.004974;-10.594800;-0.706320;0.000000
10.307892;0.005005;-10.947960;-0.941760;-0.235440
10.312866;0.004974;-10.830240;-0.588600;0.117720
10.317841;0.004974;-10.594800;-0.470880;0.000000
10.322845;0.005005;-10.594800;-0.706320;-0.353160
10.327850;0.005005;-10.712520;-0.588600;-0.353160
10.332825;0.004974;-10.830240;-0.824040;-0.706320
10.337830;0.005005;-10.947960;-0.824040;-0.824040
10.342804;0.004974;-11.065680;-0.588600;-0.941760
10.347809;0.005005;-11.301120;-0.588600;-0.941760
10.352783;0.004974;-11.536560;-0.353160;-0.353160
10.357788;0.005005;-11.889720;0.000000;-0.353160
10.362793;0.005005;-12.007440;0.353160;-0.117720
10.367767;0.004974;-12.125160;0.706320;0.235440
10.372772;0.005005;-12.360600;0.824040;0.470880
10.377747;0.004974;-12.596040;1.177200;0.706320
10.382751;0.005005;-13.066920;1.059480;0.824040
10.387726;0.004974;-13.302360;0.941760;0.706320
10.392731;0.005005;-13.655520;0.706320;0.588600
10.397705;0.004974;-13.890960;0.824040;0.706320
10.402710;0.005005;-14.008680;0.824040;0.706320
10.407684;0.004974;-13.890960;0.824040;0.117720
10.412689;0.005005;-13.773240;1.412640;-0.824040
10.417664;0.004974;-13.655520;1.530360;-1.412640
10.422668;0.005005;-13.420080;1.883520;-2.118960
10.427643;0.004974;-13.302360;2.236680;-2.472120
10.432648;0.005005;-13.537800;2.825280;-2.707560
10.437653;0.005005;-13.537800;3.178440;-2.825280
10.442627;0.004974;-13.184640;3.649320;-3.531600
10.447601;0.004974;-13.066920;4.002480;-4.237920
10.452606;0.005005;-12.831480;4.355640;-5.297400
10.457581;0.004974;-12.478320;4.708800;-5.650560
10.462585;0.005005;-12.360600;4.708800;-5.297400
10.467560;0.004974;-12.242880;4.355640;-5.179680
10.472565;0.005005;-12.242880;3.884760;-5.886000
10.477539;0.004974;-12.125160;3.531600;-6.003720
10.482544;0.005005;-12.360600;3.060720;-5.650560
10.487549;0.005005;-12.007440;2.707560;-5.061960
10.492554;0.005005;-11.889720;2.354400;-4.473360
10.497528;0.004974;-11.654280;2.118960;-3.767040
10.502502;0.004974;-11.301120;1.648080;-3.413880
10.507507;0.005005;-11.065680;0.824040;-3.296160
10.512512;0.005005;-11.183400;0.235440;-3.178440
10.517487;0.004974;-10.830240;-0.353160;-3.060720
10.522491;0.005005;-10.830240;-0.941760;-3.296160
10.527466;0.004974;-10.830240;-1.177200;-3.296160
10.532471;0.005005;-10.947960;-1.059480;-3.767040
10.537445;0.004974;-11.065680;-0.824040;-3.649320
10.542450;0.005005;-11.183400;-0.353160;-3.531600
10.547424;0.004974;-11.065680;-0.117720;-3.531600
10.552429;0.005005;-11.301120;0.588600;-3.296160
10.557404;0.004974;-11.301120;1.177200;-3.178440
10.562408;0.005005;-11.536560;1.648080;-2.943000
10.567413;0.005005;-11.654280;1.765800;-2.825280
10.572388;0.004974;-11.418840;2.118960;-2.825280
10.577393;0.005005;-11.418840;2.236680;-2.943000
10.582367;0.004974;-11.183400;2.118960;-2.825280
10.587372;0.005005;-11.065680;2.001240;-2.707560
10.592377;0.005005;-10.830240;2.001240;-2.707560
10.597351;0.004974;-10.477080;2.001240;-2.472120
10.602356;0.005005;-10.123920;2.118960;-2.589840
10.607330;0.004974;-9.888480;2.001240;-2.707560
10.612335;0.005005;-9.653040;2.001240;-2.707560
10.617310;0.004974;-9.182160;2.001240;-2.354400
10.622314;0.005005;-9.182160;2.001240;-2.354400
10.627289;0.004974;-8.829000;1.883520;-2.354400
10.632294;0.005005;-8.475840;1.648080;-2.472120
10.637299;0.005005;-8.358120;1.530360;-2.354400
10.642273;0.004974;-8.122680;1.648080;-2.472120
10.647278;0.005005;-7.887240;1.648080;-2.118960
10.652283;0.005005;-7.416360;1.765800;-2.118960
10.657257;0.004974;-7.298640;1.765800;-2.354400
10.662262;0.005005;-7.416360;1.883520;-2.236680
10.667236;0.004974;-7.180920;1.883520;-2.236680
10.672241;0.005005;-7.416360;1.883520;-2.472120
10.677246;0.005005;-7.063200;1.765800;-2.472120
10.682220;0.004974;-7.298640;1.530360;-2.589840
10.687225;0.005005;-7.180920;1.765800;-2.589840
10.692200;0.004974;-7.416360;1.412640;-2.354400
10.697205;0.005005;-7.651800;1.412640;-2.001240
10.702179;0.004974;-7.769520;0.941760;-1.883520
10.707184;0.005005;-8.004960;0.824040;-2.118960
10.712189;0.005005;-7.769520;0.824040;-2.001240
10.717163;0.004974;-7.769520;0.941760;-1.883520
10.722168;0.005005;-7.887240;0.824040;-2.118960
10.727142;0.004974;-8.122680;0.470880;-2.001240
10.732147;0.005005;-8.122680;0.235440;-2.118960
10.737122;0.004974;-8.240400;0.235440;-2.236680
10.742126;0.005005;-8.358120;0.235440;-2.001240
10.747101;0.004974;-8.475840;0.000000;-1.765800
10.752106;0.005005;-8.475840;-0.117720;-1.765800
10.757111;0.005005;-8.946720;-0.470880;-2.001240
10.762085;0.004974;-9.182160;-0.588600;-1.883520
10.767090;0.005005;-9.299880;-0.470880;-2.001240
10.772064;0.004974;-9.299880;-0.353160;-2.001240
10.777069;0.005005;-9.417600;-0.235440;-1.648080
10.782074;0.005005;-9.653040;-0.235440;-1.765800
10.787048;0.004974;-9.888480;-0.117720;-1.530360
10.792053;0.005005;-10.006200;0.000000;-1.765800
10.797028;0.004974;-9.888480;-0.117720;-1.765800
10.802032;0.005005;-10.123920;0.000000;-1.648080
10.807007;0.004974;-10.359360;0.000000;-1.765800
10.812012;0.005005;-10.241640;0.117720;-1.765800
10.816986;0.004974;-10.123920;0.353160;-2.001240
10.821991;0.005005;-10.006200;0.470880;-2.001240
10.826965;0.004974;-10.006200;0.235440;-2.118960
10.831970;0.005005;-9.888480;0.117720;-2.001240
10.836945;0.004974;-10.123920;0.588600;-1.765800
10.841949;0.005005;-9.888480;0.824040;-1.648080
10.846954;0.005005;-10.006200;1.059480;-1.648080
10.851929;0.004974;-9.888480;1.177200;-1.648080
10.856934;0.005005;-10.123920;1.294920;-1.412640
10.861908;0.004974;-10.359360;1.530360;-1.412640
10.866913;0.005005;-10.477080;1.648080;-1.412640
10.871887;0.004974;-10.477080;1.765800;-1.412640
10.876892;0.005005;-10.594800;1.765800;-1.177200
10.881897;0.005005;-10.712520;1.765800;-1.177200
10.886871;0.004974;-10.477080;1.765800;-1.059480
10.891846;0.004974;-10.477080;1.883520;-0.824040
10.896851;0.005005;-10.241640;1.883520;-0.824040
10.901855;0.005005;-10.241640;1.883520;-0.824040
10.906830;0.004974;-10.123920;1.765800;-0.470880
10.911835;0.005005;-10.123920;1.765800;-0.941760
10.916809;0.004974;-9.770760;1.530360;-0.824040
10.921814;0.005005;-9.888480;0.941760;-0.941760
10.926788;0.004974;-9.770760;0.353160;-0.706320
10.931793;0.005005;-9.653040;0.235440;-0.588600
10.936798;0.005005;-9.770760;0.117720;-0.470880
10.941772;0.004974;-9.888480;-0.117720;-0.470880
10.946777;0.005005;-9.888480;-0.117720;-0.470880
10.951752;0.004974;-10.359360;-0.470880;-0.235440
10.956757;0.005005;-10.830240;-0.470880;0.000000
10.961731;0.004974;-11.183400;-0.117720;0.235440
10.966736;0.005005;-10.947960;0.588600;0.470880
10.971741;0.005005;-11.065680;1.294920;0.353160
10.976715;0.004974;-10.947960;1.648080;0.353160
10.981720;0.005005;-10.947960;1.765800;-0.353160
10.986694;0.004974;-10.830240;1.883520;-0.824040
10.991699;0.005005;-10.712520;1.883520;-0.941760
10.996704;0.005005;-10.947960;1.530360;-1.412640
11.001678;0.004974;-11.065680;1.294920;-1.765800
11.006683;0.005005;-11.536560;0.706320;-2.472120
11.011658;0.004974;-12.007440;0.235440;-3.649320
11.016663;0.005005;-12.596040;-0.470880;-4.708800
11.021637;0.004974;-12.949200;-1.177200;-5.650560
11.026642;0.005005;-13.537800;-1.648080;-5.886000
11.031647;0.005005;-13.890960;-2.236680;-6.003720
11.036621;0.004974;-13.655520;-2.707560;-6.239160
11.041626;0.005005;-13.066920;-2.472120;-5.886000
11.046600;0.004974;-12.478320;-2.118960;-5.650560
11.051605;0.005005;-11.772000;-2.001240;-5.179680
11.056580;0.004974;-11.418840;-1.412640;-5.061960
11.061584;0.005005;-11.301120;-0.706320;-4.826520
11.066559;0.004974;-11.418840;-0.235440;-4.708800
11.071564;0.005005;-11.418840;0.000000;-4.591080
11.076538;0.004974;-11.654280;0.470880;-4.237920
11.081543;0.005005;-11.772000;0.824040;-4.002480
11.086517;0.004974;-12.360600;1.059480;-3.531600
11.091522;0.005005;-12.949200;1.530360;-3.413880
11.096497;0.004974;-13.537800;1.530360;-3.060720
11.101501;0.005005;-14.244120;1.412640;-2.943000
11.106476;0.004974;-14.715000;0.824040;-2.825280
11.111481;0.005005;-15.068160;0.470880;-2.707560
11.116455;0.004974;-15.421320;0.235440;-2.707560
11.121460;0.005005;-15.185880;-0.117720;-2.707560
11.126434;0.004974;-14.597280;-0.117720;-2.707560
11.131439;0.005005;-14.361840;-0.117720;-2.707560
11.136414;0.004974;-13.655520;-0.235440;-2.707560
11.141418;0.005005;-12.949200;-0.706320;-2.472120
11.146393;0.004974;-12.596040;-0.470880;-2.589840
11.151398;0.005005;-12.242880;-0.235440;-2.589840
11.156372;0.004974;-11.772000;-0.353160;-2.354400
11.161377;0.005005;-11.065680;-0.235440;-2.354400
11.166382;0.005005;-10.594800;-0.353160;-2.236680
11.171356;0.004974;-10.241640;-0.235440;-2.236680
11.176361;0.005005;-10.123920;-0.117720;-2.118960
11.181335;0.004974;-9.888480;-0.117720;-2.118960
11.186340;0.005005;-9.653040;0.000000;-2.001240
11.191315;0.004974;-9.770760;0.000000;-1.883520
11.196320;0.005005;-9.417600;0.117720;-2.001240
11.201294;0.004974;-9.064440;0.117720;-2.001240
11.206299;0.005005;-8.711280;0.353160;-1.883520
11.211304;0.005005;-8.358120;0.470880;-2.118960
11.216278;0.004974;-7.887240;0.588600;-2.118960
11.221283;0.005005;-7.769520;1.059480;-1.883520
11.226257;0.004974;-7.887240;1.294920;-1.765800
11.231262;0.005005;-7.887240;1.648080;-1.765800
11.236237;0.004974;-7.769520;1.765800;-1.530360
11.241241;0.005005;-7.651800;1.883520;-1.412640
11.246216;0.004974;-7.651800;1.883520;-1.530360
11.251221;0.005005;-7.534080;1.883520;-1.294920
11.256195;0.004974;-7.651800;1.883520;-1.294920
11.261200;0.005005;-7.416360;1.765800;-1.177200
11.266174;0.004974;-7.063200;1.883520;-1.294920
11.271179;0.005005;-6.945480;1.765800;-1.294920
11.276154;0.004974;-6.945480;1.883520;-1.059480
11.281158;0.005005;-7.063200;1.883520;-1.294920
11.286133;0.004974;-7.180920;1.883520;-1.177200
11.291138;0.005005;-6.945480;1.765800;-1.177200
11.296112;0.004974;-7.063200;1.883520;-1.412640
11.301117;0.005005;-7.534080;1.883520;-1.294920
11.306122;0.005005;-7.769520;1.765800;-1.412640
11.311096;0.004974;-8.240400;1.648080;-1.530360
11.316101;0.005005;-8.475840;1.412640;-1.530360
11.321075;0.004974;-8.711280;1.648080;-1.530360
11.326080;0.005005;-8.946720;1.530360;-1.648080
11.331055;0.004974;-9.182160;1.412640;-1.765800
11.336060;0.005005;-8.946720;1.530360;-1.530360
11.341034;0.004974;-9.182160;1.648080;-1.294920
11.346039;0.005005;-9.299880;1.530360;-1.412640
11.351044;0.005005;-9.182160;1.648080;-1.412640
11.356018;0.004974;-9.064440;1.412640;-1.530360
11.361023;0.005005;-9.299880;1.648080;-1.294920
11.365997;0.004974;-9.182160;1.530360;-1.177200
11.371002;0.005005;-9.299880;1.648080;-1.059480
11.375977;0.004974;-9.299880;1.648080;-0.941760
11.380951;0.004974;-9.417600;1.765800;-1.059480
11.385956;0.005005;-9.417600;1.883520;-0.941760
11.390930;0.004974;-9.535320;1.765800;-0.824040
11.395935;0.005005;-9.653040;1.883520;-0.588600
11.400909;0.004974;-9.653040;1.530360;-0.470880
11.405914;0.005005;-9.888480;1.765800;-0.470880
11.410919;0.005005;-9.653040;1.765800;-0.470880
11.415894;0.004974;-9.653040;1.883520;-0.353160
11.420898;0.005005;-9.653040;1.294920;-0.235440
11.425873;0.004974;-9.653040;0.824040;-0.353160
11.430878;0.005005;-9.770760;0.588600;-0.588600
11.435852;0.004974;-9.770760;0.353160;-0.588600
11.440857;0.005005;-9.653040;0.353160;-0.470880
11.445831;0.004974;-9.653040;0.117720;-0.706320
11.450836;0.005005;-10.006200;0.117720;-0.353160
11.455811;0.004974;-9.888480;-0.353160;-0.117720
11.460815;0.005005;-10.241640;-0.117720;-0.117720
11.465820;0.005005;-10.359360;0.000000;-0.353160
11.470795;0.004974;-10.712520;0.235440;-0.470880
11.475769;0.004974;-10.712520;0.235440;-0.588600
11.480774;0.005005;-10.830240;0.588600;-0.353160
11.485779;0.005005;-11.418840;0.706320;-0.235440
11.490753;0.004974;-11.301120;0.824040;-0.588600
11.495758;0.005005;-11.654280;0.941760;-0.470880
11.500732;0.004974;-11.889720;1.294920;-0.235440
11.505737;0.005005;-12.125160;1.412640;0.117720
11.510742;0.005005;-12.596040;1.648080;-0.117720
11.515717;0.004974;-12.713760;1.765800;-0.353160
11.520721;0.005005;-13.184640;1.883520;-0.353160
11.525696;0.004974;-13.420080;1.883520;-0.235440
11.530701;0.005005;-13.655520;1.883520;-0.117720
11.535675;0.004974;-14.126400;1.765800;-0.353160
11.540680;0.005005;-14.361840;1.883520;-0.353160
11.545654;0.004974;-14.597280;1.883520;-0.470880
11.550659;0.005005;-14.361840;1.883520;-0.824040
11.555634;0.004974;-14.597280;1.765800;-1.530360
11.560638;0.005005;-14.479560;1.883520;-2.118960
11.565613;0.004974;-14.361840;1.883520;-3.413880
11.570618;0.005005;-14.244120;1.883520;-4.355640
11.575623;0.005005;-14.008680;1.883520;-4.473360
11.580597;0.004974;-13.890960;2.707560;-3.884760
11.585602;0.005005;-13.655520;3.178440;-3.649320
11.590576;0.004974;-13.655520;3.884760;-4.120200
11.595581;0.005005;-13.773240;4.120200;-4.473360
11.600555;0.004974;-13.302360;3.884760;-4.355640
11.605560;0.005005;-12.831480;3.178440;-4.473360
11.610535;0.004974;-12.478320;2.707560;-4.473360
11.615540;0.005005;-12.478320;2.354400;-4.473360
11.620514;0.004974;-12.007440;2.118960;-4.120200
11.625519;0.005005;-11.418840;1.765800;-3.884760
11.630524;0.005005;-11.065680;1.412640;-3.767040
11.635498;0.004974;-10.477080;0.941760;-4.002480
11.640503;0.005005;-9.888480;0.706320;-3.767040
11.645477;0.004974;-9.770760;0.588600;-3.884760
11.650482;0.005005;-9.535320;0.470880;-3.884760
11.655487;0.005005;-9.535320;0.470880;-4.237920
11.660461;0.004974;-9.653040;0.353160;-3.767040
11.665466;0.005005;-10.006200;0.470880;-3.531600
11.670441;0.004974;-10.477080;0.588600;-3.178440
11.675446;0.005005;-10.594800;1.059480;-2.943000
11.680450;0.005005;-11.065680;1.294920;-2.943000
11.685425;0.004974;-10.947960;1.294920;-2.825280
11.690430;0.005005;-11.183400;1.648080;-2.943000
11.695404;0.004974;-11.536560;1.648080;-2.707560
11.700409;0.005005;-11.654280;1.883520;-2.707560
11.705414;0.005005;-11.654280;1.883520;-2.707560
11.710388;0.004974;-11.536560;1.765800;-2.707560
11.715393;0.005005;-11.301120;1.883520;-2.589840
11.720367;0.004974;-10.712520;1.883520;-2.825280
11.725372;0.005005;-10.477080;2.001240;-2.825280
11.730347;0.004974;-10.123920;2.001240;-2.825280
11.735352;0.005005;-9.888480;1.883520;-2.707560
11.740356;0.005005;-9.653040;1.883520;-2.707560
11.745331;0.004974;-9.535320;1.765800;-2.472120
11.750336;0.005005;-9.299880;1.883520;-2.472120
11.755310;0.004974;-9.064440;1.883520;-2.589840
11.760315;0.005005;-8.829000;1.883520;-2.707560
11.765320;0.005005;-8.475840;1.883520;-2.354400
11.770294;0.004974;-8.711280;1.883520;-2.472120
11.775299;0.005005;-8.475840;2.001240;-2.354400
11.780273;0.004974;-8.240400;2.118960;-2.472120
11.785278;0.005005;-8.240400;2.001240;-2.354400
11.790253;0.004974;-8.358120;2.001240;-2.589840
11.795258;0.005005;-8.240400;2.001240;-2.472120
11.800232;0.004974;-8.004960;2.236680;-2.354400
11.805237;0.005005;-8.122680;2.236680;-2.236680
11.810211;0.004974;-7.887240;2.236680;-2.236680
11.815216;0.005005;-7.887240;2.118960;-2.354400
11.820221;0.005005;-7.887240;2.001240;-2.118960
11.825195;0.004974;-7.769520;1.883520;-2.001240
11.830200;0.005005;-8.004960;1.883520;-1.883520
11.835175;0.004974;-7.887240;1.765800;-2.001240
11.840179;0.005005;-8.004960;1.765800;-1.765800
11.845154;0.004974;-8.122680;1.648080;-1.765800
11.850159;0.005005;-7.887240;1.648080;-1.765800
11.855164;0.005005;-7.887240;1.648080;-1.530360
11.860138;0.004974;-8.004960;1.294920;-1.648080
11.865143;0.005005;-8.122680;1.294920;-1.648080
11.870117;0.004974;-8.122680;1.177200;-1.765800
11.875122;0.005005;-8.122680;0.706320;-1.530360
11.880096;0.004974;-8.240400;0.470880;-1.530360
11.885101;0.005005;-8.358120;0.353160;-1.412640
11.890076;0.004974;-8.475840;0.353160;-1.648080
11.895081;0.005005;-8.593560;0.470880;-1.648080
11.900055;0.004974;-8.946720;0.117720;-1.530360
11.905060;0.005005;-8.946720;0.235440;-1.530360
11.910034;0.004974;-9.417600;0.000000;-1.530360
11.915039;0.005005;-9.770760;0.000000;-1.294920
11.920013;0.004974;-9.535320;-0.117720;-1.177200
11.924988;0.004974;-9.535320;0.117720;-1.412640
11.929993;0.005005;-9.653040;0.117720;-1.412640
11.934967;0.004974;-9.653040;0.235440;-1.412640
11.939972;0.005005;-9.888480;0.117720;-1.530360
11.944977;0.005005;-10.123920;0.235440;-1.412640
11.949982;0.005005;-10.006200;0.235440;-1.530360
11.954956;0.004974;-10.123920;0.117720;-1.530360
11.959930;0.004974;-10.006200;0.117720;-1.177200
11.964935;0.005005;-10.123920;0.235440;-0.941760
11.969910;0.004974;-10.241640;0.235440;-0.941760
11.974915;0.005005;-10.006200;0.353160;-0.706320
11.979889;0.004974;-10.006200;0.470880;-0.824040
11.984894;0.005005;-10.123920;0.706320;-0.941760
11.989868;0.004974;-10.241640;0.941760;-1.059480
11.994873;0.005005;-9.888480;0.941760;-1.059480
11.999847;0.004974;-10.123920;0.941760;-0.941760
12.004852;0.005005;-10.241640;0.824040;-1.059480
12.009827;0.004974;-10.477080;1.294920;-1.177200
12.014832;0.005005;-10.359360;1.648080;-1.294920
12.019836;0.005005;-10.241640;1.765800;-1.177200
12.024811;0.004974;-10.123920;1.883520;-1.412640
12.029785;0.004974;-10.123920;2.001240;-1.412640
12.034790;0.005005;-10.241640;2.118960;-0.941760
12.039795;0.005005;-10.241640;2.001240;-1.059480
12.044769;0.004974;-10.006200;2.118960;-0.941760
12.049774;0.005005;-9.888480;2.118960;-0.824040
12.054749;0.004974;-10.006200;2.001240;-0.588600
12.059753;0.005005;-9.770760;2.001240;-0.470880
12.064728;0.004974;-9.888480;2.001240;-0.588600
12.069733;0.005005;-10.123920;1.765800;-0.588600
12.074707;0.004974;-10.477080;1.883520;-0.470880
12.079712;0.005005;-10.830240;1.412640;-0.353160
12.084686;0.004974;-10.947960;0.824040;-0.353160
12.089691;0.005005;-11.183400;0.588600;-0.235440
12.094666;0.004974;-11.418840;0.706320;-0.235440
12.099670;0.005005;-11.654280;0.706320;0.235440
12.104645;0.004974;-11.889720;1.177200;0.235440
12.109619;0.004974;-11.889720;1.177200;0.117720
12.114624;0.005005;-11.772000;1.412640;0.353160
12.119598;0.004974;-11.536560;1.059480;0.235440
12.124603;0.005005;-11.301120;1.059480;0.117720
12.129578;0.004974;-10.947960;0.941760;0.000000
12.134583;0.005005;-10.712520;0.470880;-0.353160
12.139557;0.004974;-10.712520;0.117720;-0.470880
12.144562;0.005005;-11.065680;-0.470880;-0.941760
12.149536;0.004974;-11.065680;-0.706320;-1.765800
12.154541;0.005005;-11.183400;-1.059480;-2.236680
12.159515;0.004974;-11.418840;-1.294920;-2.589840
12.164520;0.005005;-11.418840;-1.412640;-2.825280
12.169495;0.004974;-12.007440;-1.648080;-3.884760
12.174500;0.005005;-12.478320;-1.765800;-4.355640
12.179474;0.004974;-13.066920;-1.765800;-4.826520
12.184479;0.005005;-13.420080;-1.765800;-5.532840
12.189453;0.004974;-13.302360;-1.059480;-5.768280
12.194458;0.005005;-13.302360;-0.588600;-5.886000
12.199432;0.004974;-13.184640;-0.117720;-6.003720
12.204437;0.005005;-13.184640;0.235440;-6.121440
12.209412;0.004974;-13.066920;0.353160;-6.239160
12.214417;0.005005;-12.831480;0.470880;-6.239160
12.219391;0.004974;-12.949200;0.941760;-6.239160
12.224396;0.005005;-13.066920;1.294920;-5.768280
12.229370;0.004974;-13.420080;1.648080;-5.297400
12.234375;0.005005;-14.126400;1.883520;-4.944240
12.239349;0.004974;-14.244120;1.765800;-4.826520
12.244354;0.005005;-14.597280;1.883520;-4.355640
12.249329;0.004974;-15.303600;1.530360;-4.002480
12.254303;0.004974;-15.539040;1.530360;-3.649320
12.259308;0.005005;-15.892200;1.177200;-3.178440
12.264282;0.004974;-15.892200;0.470880;-2.707560
12.269287;0.005005;-15.656760;0.000000;-2.589840
12.274261;0.004974;-15.068160;-0.706320;-2.589840
