# FOX Logger (IMU file)
# (c) INRIA 2011-2013
#
# File created from file HKB0_03.RAW
#
# File format:
# t;dt;ax;ay;az
#
# Units:
#	Time: s
#	Acceleration: m.s^-2
#
0.003754;0.003754;2.354400;-3.413880;-8.122680
0.008759;0.005005;2.236680;-3.531600;-8.122680
0.013733;0.004974;2.118960;-3.413880;-8.122680
0.018738;0.005005;2.001240;-2.943000;-8.240400
0.023712;0.004974;2.001240;-3.178440;-8.358120
0.028717;0.005005;2.354400;-3.060720;-8.358120
0.033722;0.005005;1.530360;-2.707560;-8.946720
0.038696;0.004974;1.765800;-2.354400;-8.240400
0.043701;0.005005;1.883520;-2.236680;-8.358120
0.048676;0.004974;1.883520;-2.001240;-8.358120
0.053680;0.005005;2.001240;-2.001240;-8.358120
0.058685;0.005005;2.001240;-2.472120;-8.240400
0.063660;0.004974;2.236680;-2.589840;-8.004960
0.068665;0.005005;2.118960;-2.707560;-7.769520
0.073669;0.005005;2.001240;-2.589840;-7.416360
0.078644;0.004974;1.765800;-3.178440;-7.298640
0.083649;0.005005;1.883520;-2.825280;-7.180920
0.088623;0.004974;1.294920;-2.589840;-6.945480
0.093628;0.005005;1.648080;-2.825280;-6.945480
0.098602;0.004974;1.765800;-3.060720;-6.827760
0.103607;0.005005;2.001240;-2.943000;-7.534080
0.108612;0.005005;2.001240;-2.472120;-7.534080
0.113586;0.004974;2.118960;-2.354400;-7.534080
0.118591;0.005005;2.001240;-2.354400;-7.416360
0.123566;0.004974;2.001240;-2.118960;-7.651800
0.128571;0.005005;2.001240;-2.118960;-7.534080
0.133545;0.004974;2.118960;-2.236680;-7.416360
0.138550;0.005005;2.236680;-2.472120;-7.651800
0.143524;0.004974;2.118960;-2.943000;-7.887240
0.148529;0.005005;2.118960;-2.943000;-8.004960
0.153534;0.005005;2.118960;-2.943000;-8.358120
0.158508;0.004974;2.236680;-3.060720;-8.358120
0.163513;0.005005;2.236680;-2.943000;-8.122680
0.168488;0.004974;2.236680;-2.825280;-8.004960
0.173492;0.005005;2.236680;-2.472120;-7.769520
0.178467;0.004974;2.118960;-2.589840;-7.534080
0.183472;0.005005;2.001240;-2.825280;-7.298640
0.188477;0.005005;2.001240;-3.060720;-7.651800
0.193451;0.004974;2.354400;-2.825280;-8.004960
0.198456;0.005005;2.589840;-2.825280;-8.358120
0.203461;0.005005;2.589840;-3.060720;-8.122680
0.208435;0.004974;2.707560;-2.825280;-8.358120
0.213440;0.005005;2.707560;-3.060720;-8.593560
0.218414;0.004974;2.825280;-2.707560;-8.711280
0.223419;0.005005;2.589840;-2.707560;-9.182160
0.228394;0.004974;2.825280;-2.354400;-9.299880
0.233398;0.005005;2.589840;-2.472120;-9.417600
0.238403;0.005005;2.589840;-2.236680;-9.182160
0.243378;0.004974;2.589840;-2.472120;-8.946720
0.248383;0.005005;2.707560;-2.354400;-8.711280
0.253357;0.004974;2.825280;-2.589840;-8.711280
0.258362;0.005005;2.825280;-2.707560;-8.475840
0.263336;0.004974;2.825280;-2.825280;-8.475840
0.268341;0.005005;2.825280;-2.825280;-8.475840
0.273315;0.004974;2.707560;-2.825280;-8.593560
0.278320;0.005005;2.825280;-2.825280;-8.593560
0.283295;0.004974;2.354400;-2.472120;-8.829000
0.288300;0.005005;2.354400;-2.707560;-7.887240
0.293274;0.004974;2.354400;-2.472120;-8.711280
0.298279;0.005005;2.354400;-2.707560;-8.829000
0.303284;0.005005;2.472120;-2.707560;-8.711280
0.308289;0.005005;3.060720;-3.296160;-8.829000
0.313263;0.004974;2.589840;-3.649320;-8.593560
0.318268;0.005005;2.707560;-3.531600;-8.358120
0.323242;0.004974;2.707560;-3.884760;-8.358120
0.328247;0.005005;2.001240;-7.769520;-10.947960
0.333221;0.004974;1.648080;-5.179680;-8.829000
0.338226;0.005005;8.240400;-4.826520;-9.064440
0.343201;0.004974;5.061960;-5.886000;-7.769520
0.348206;0.005005;3.413880;-5.415120;-6.827760
0.353210;0.005005;2.825280;-3.649320;-6.827760
0.358185;0.004974;2.354400;-3.060720;-6.710040
0.363190;0.005005;2.472120;-2.472120;-6.945480
0.368164;0.004974;2.707560;-2.472120;-7.298640
0.373169;0.005005;2.825280;-2.354400;-7.298640
0.378143;0.004974;3.060720;-2.472120;-7.298640
0.383148;0.005005;3.060720;-2.118960;-7.534080
0.388153;0.005005;3.060720;-2.354400;-7.534080
0.393127;0.004974;3.178440;-2.472120;-8.004960
0.398132;0.005005;3.413880;-2.589840;-8.004960
0.403107;0.004974;3.413880;-2.825280;-8.004960
0.408112;0.005005;3.178440;-3.060720;-7.769520
0.413116;0.005005;3.060720;-3.178440;-8.004960
0.418091;0.004974;2.943000;-2.825280;-8.122680
0.423096;0.005005;2.589840;-2.943000;-8.122680
0.428070;0.004974;2.589840;-3.178440;-8.240400
0.433075;0.005005;2.707560;-3.413880;-8.475840
0.438080;0.005005;2.825280;-3.413880;-8.358120
0.443054;0.004974;2.825280;-3.296160;-8.240400
0.448059;0.005005;2.589840;-3.296160;-8.122680
0.453064;0.005005;2.472120;-3.060720;-7.769520
0.458038;0.004974;2.472120;-3.178440;-7.534080
0.463043;0.005005;2.354400;-3.296160;-7.180920
0.468018;0.004974;2.236680;-3.531600;-6.827760
0.473022;0.005005;2.354400;-3.649320;-6.945480
0.477997;0.004974;2.354400;-3.649320;-6.592320
0.483002;0.005005;2.354400;-3.531600;-6.710040
0.488007;0.005005;2.707560;-3.413880;-7.063200
0.492981;0.004974;2.825280;-3.296160;-7.534080
0.497986;0.005005;3.060720;-3.060720;-7.769520
0.502960;0.004974;3.649320;-3.060720;-8.122680
0.507965;0.005005;4.120200;-3.060720;-8.593560
0.512939;0.004974;4.355640;-2.943000;-9.417600
0.517944;0.005005;4.826520;-3.296160;-8.946720
0.522949;0.005005;3.531600;-3.531600;-9.888480
0.527924;0.004974;3.413880;-3.767040;-10.123920
0.532928;0.005005;2.707560;-4.591080;-10.477080
0.537903;0.004974;2.825280;-4.708800;-10.594800
0.542908;0.005005;2.236680;-5.061960;-10.359360
0.547913;0.005005;0.235440;-5.297400;-8.475840
0.552887;0.004974;-0.353160;-4.355640;-7.887240
0.557892;0.005005;0.000000;-4.120200;-7.180920
0.562897;0.005005;0.235440;-4.826520;-6.710040
0.567871;0.004974;1.059480;-5.179680;-6.827760
0.572876;0.005005;1.412640;-5.061960;-7.534080
0.577881;0.005005;1.648080;-5.061960;-7.887240
0.582855;0.004974;1.648080;-4.826520;-7.769520
0.587860;0.005005;1.648080;-4.473360;-7.769520
0.592834;0.004974;1.530360;-4.120200;-7.298640
0.597809;0.004974;1.059480;-4.002480;-6.945480
0.602814;0.005005;0.824040;-3.767040;-6.710040
0.607819;0.005005;0.588600;-3.884760;-6.710040
0.612793;0.004974;0.353160;-3.884760;-6.592320
0.617798;0.005005;0.353160;-3.767040;-6.592320
0.622772;0.004974;0.353160;-3.767040;-6.592320
0.627777;0.005005;0.117720;-3.767040;-6.592320
0.632751;0.004974;0.235440;-3.884760;-6.474600
0.637756;0.005005;0.353160;-3.884760;-6.356880
0.642761;0.005005;0.235440;-4.002480;-6.474600
0.647736;0.004974;0.235440;-4.473360;-6.710040
0.652740;0.005005;0.117720;-4.355640;-6.827760
0.657745;0.005005;0.235440;-4.237920;-7.180920
0.662720;0.004974;0.235440;-4.591080;-7.416360
0.667725;0.005005;0.824040;-4.355640;-8.004960
0.672699;0.004974;1.412640;-4.591080;-8.240400
0.677704;0.005005;1.648080;-4.826520;-8.358120
0.682678;0.004974;1.765800;-4.708800;-8.358120
0.687683;0.005005;1.648080;-4.826520;-8.358120
0.692688;0.005005;1.412640;-4.826520;-8.358120
0.697662;0.004974;1.177200;-4.591080;-8.358120
0.702667;0.005005;0.706320;-4.708800;-8.240400
0.707672;0.005005;0.353160;-4.355640;-8.122680
0.712646;0.004974;0.470880;-4.002480;-8.004960
0.717651;0.005005;0.235440;-4.002480;-7.651800
0.722626;0.004974;0.117720;-4.237920;-7.651800
0.727631;0.005005;0.235440;-4.237920;-7.534080
0.732635;0.005005;0.117720;-4.120200;-7.416360
0.737610;0.004974;0.117720;-4.002480;-6.827760
0.742615;0.005005;0.117720;-3.884760;-6.827760
0.747620;0.005005;0.117720;-3.884760;-6.827760
0.752594;0.004974;0.235440;-4.002480;-6.827760
0.757568;0.004974;0.235440;-3.767040;-6.710040
0.762573;0.005005;0.235440;-3.884760;-6.592320
0.767548;0.004974;0.588600;-4.120200;-6.827760
0.772552;0.005005;1.059480;-4.826520;-7.063200
0.777557;0.005005;1.530360;-5.532840;-7.534080
0.782532;0.004974;2.236680;-5.650560;-7.887240
0.787537;0.005005;2.589840;-5.768280;-8.240400
0.792511;0.004974;2.707560;-5.650560;-8.358120
0.797516;0.005005;2.707560;-5.886000;-8.711280
0.802521;0.005005;2.472120;-5.650560;-8.829000
0.807495;0.004974;2.354400;-5.532840;-8.711280
0.812500;0.005005;2.118960;-5.179680;-8.475840
0.817505;0.005005;2.001240;-5.179680;-8.475840
0.822479;0.004974;2.001240;-5.179680;-8.358120
0.827484;0.005005;1.883520;-5.415120;-8.122680
0.832458;0.004974;1.765800;-5.886000;-8.122680
0.837463;0.005005;1.765800;-5.886000;-8.240400
0.842438;0.004974;1.883520;-6.003720;-8.122680
0.847443;0.005005;1.765800;-6.356880;-7.769520
0.852448;0.005005;1.648080;-6.239160;-8.004960
0.857422;0.004974;1.765800;-6.239160;-8.240400
0.862427;0.005005;1.883520;-6.356880;-8.593560
0.867401;0.004974;2.236680;-6.239160;-8.475840
0.872406;0.005005;1.883520;-6.356880;-8.358120
0.877380;0.004974;1.294920;-6.356880;-8.358120
0.882385;0.005005;0.706320;-6.003720;-8.004960
0.887360;0.004974;0.470880;-5.650560;-7.534080
0.892365;0.005005;0.000000;-4.944240;-7.416360
0.897369;0.005005;-0.706320;-4.591080;-6.827760
0.902344;0.004974;-0.941760;-3.884760;-6.356880
0.907349;0.005005;-1.294920;-4.708800;-6.474600
0.912323;0.004974;-1.294920;-4.473360;-6.356880
0.917328;0.005005;-1.648080;-4.237920;-6.356880
0.922333;0.005005;-1.765800;-3.531600;-6.239160
0.927307;0.004974;-2.118960;-3.531600;-6.592320
0.932312;0.005005;-7.416360;-2.001240;-8.829000
0.937286;0.004974;-4.826520;-5.061960;-4.237920
0.942291;0.005005;-3.178440;-4.002480;-5.179680
0.947266;0.004974;-0.117720;-3.649320;-4.120200
0.952271;0.005005;1.883520;-2.825280;-4.473360
0.957245;0.004974;1.883520;-3.296160;-5.768280
0.962250;0.005005;0.470880;-3.884760;-7.063200
0.967255;0.005005;0.000000;-4.708800;-7.769520
0.972229;0.004974;-0.117720;-5.650560;-7.887240
0.977234;0.005005;0.235440;-4.002480;-7.180920
0.982208;0.004974;0.941760;-3.178440;-6.474600
0.987213;0.005005;0.470880;-3.649320;-6.827760
0.992218;0.005005;0.000000;-4.002480;-6.592320
0.997192;0.004974;-0.706320;-4.591080;-6.003720
1.002197;0.005005;-1.294920;-5.061960;-5.768280
1.007172;0.004974;-1.530360;-4.708800;-5.768280
1.012177;0.005005;-1.648080;-4.591080;-6.003720
1.017151;0.004974;-1.177200;-4.355640;-5.886000
1.022156;0.005005;-1.412640;-4.591080;-5.532840
1.027161;0.005005;-1.412640;-5.061960;-5.179680
1.032135;0.004974;-0.941760;-5.297400;-4.944240
1.037140;0.005005;-0.588600;-6.003720;-5.179680
1.042114;0.004974;-0.235440;-6.474600;-5.415120
1.047119;0.005005;0.235440;-6.710040;-5.532840
1.052124;0.005005;0.353160;-7.063200;-5.650560
1.057098;0.004974;0.941760;-7.534080;-6.121440
1.062103;0.005005;0.588600;-8.004960;-6.121440
1.067108;0.005005;0.235440;-8.593560;-6.121440
1.072083;0.004974;0.235440;-8.475840;-5.650560
1.077087;0.005005;0.117720;-8.829000;-5.532840
1.082062;0.004974;0.000000;-8.829000;-5.532840
1.087067;0.005005;0.000000;-8.711280;-5.297400
1.092041;0.004974;-0.117720;-8.122680;-5.886000
1.097046;0.005005;-0.117720;-7.887240;-6.239160
1.102020;0.004974;-1.530360;-8.122680;-4.944240
1.107025;0.005005;-1.648080;-7.534080;1.412640
1.112000;0.004974;-1.765800;-5.886000;2.001240
1.117004;0.005005;-1.412640;-5.768280;-0.941760
1.121979;0.004974;-0.706320;-5.886000;-2.118960
1.126984;0.005005;-0.588600;-6.827760;-2.001240
1.131989;0.005005;0.353160;-6.121440;-2.943000
1.136963;0.004974;4.591080;-3.296160;-8.358120
1.141937;0.004974;2.825280;-6.121440;-8.122680
1.146942;0.005005;2.118960;-7.769520;-4.237920
1.151947;0.005005;2.001240;-8.358120;-1.648080
1.156921;0.004974;0.588600;-9.535320;-1.530360
1.161926;0.005005;0.353160;-9.653040;-1.883520
1.166931;0.005005;0.235440;-9.535320;-1.412640
1.171906;0.004974;0.117720;-9.064440;-0.706320
1.176910;0.005005;0.000000;-8.475840;-0.588600
1.181885;0.004974;-1.177200;-9.064440;0.000000
1.186890;0.005005;-1.059480;-8.122680;0.000000
1.191895;0.005005;-0.470880;-6.827760;-0.235440
1.196869;0.004974;-0.941760;-5.297400;-1.177200
1.201874;0.005005;-1.412640;-6.827760;0.353160
1.206879;0.005005;-0.470880;-5.179680;1.177200
1.211884;0.005005;-1.059480;-5.532840;0.941760
1.216858;0.004974;-0.470880;-5.650560;1.412640
1.221863;0.005005;-0.706320;-6.121440;1.765800
1.226868;0.005005;-1.294920;-6.710040;1.765800
1.231842;0.004974;-1.648080;-7.416360;1.059480
1.236847;0.005005;-1.765800;-7.651800;1.412640
1.241852;0.005005;-2.001240;-8.593560;1.294920
1.246826;0.004974;-1.294920;-9.535320;0.588600
1.251801;0.004974;-15.656760;-4.002480;-16.716240
1.256805;0.005005;-10.947960;-2.825280;-6.239160
1.261780;0.004974;-7.063200;-5.768280;-3.531600
1.266785;0.005005;-5.532840;-6.003720;-0.824040
1.271759;0.004974;-5.886000;-5.415120;1.294920
1.276764;0.005005;-5.768280;-4.237920;1.412640
1.281769;0.005005;-5.415120;-3.296160;1.412640
1.286743;0.004974;-5.297400;-2.589840;1.648080
1.291748;0.005005;-5.297400;-2.236680;1.883520
1.296722;0.004974;-5.532840;-2.118960;1.530360
1.301727;0.005005;-5.768280;-2.001240;1.765800
1.306702;0.004974;-6.003720;-1.530360;1.294920
1.311707;0.005005;-6.474600;-1.530360;1.059480
1.316711;0.005005;-6.827760;-1.648080;1.177200
1.321686;0.004974;-7.887240;-1.530360;1.530360
1.326691;0.005005;-8.122680;-1.177200;1.412640
1.331696;0.005005;-8.004960;-0.706320;1.177200
1.336670;0.004974;-8.004960;-0.941760;1.177200
1.341675;0.005005;-8.004960;-1.177200;1.294920
1.346649;0.004974;-7.887240;-1.177200;2.118960
1.351654;0.005005;-7.769520;-1.294920;3.296160
1.356628;0.004974;-7.416360;-1.412640;4.826520
1.361633;0.005005;-6.827760;-1.648080;6.827760
1.366608;0.004974;-5.886000;-1.765800;8.004960
1.371613;0.005005;-4.826520;-2.707560;9.299880
1.376617;0.005005;-5.179680;-2.943000;9.417600
1.381592;0.004974;-4.826520;-2.825280;10.241640
1.386597;0.005005;-4.473360;-2.825280;11.065680
1.391571;0.004974;-4.591080;-2.354400;10.359360
1.396576;0.005005;-4.826520;-2.236680;9.417600
1.401581;0.005005;-5.415120;-2.354400;8.711280
1.406555;0.004974;-5.768280;-2.825280;8.593560
1.411560;0.005005;-6.239160;-3.649320;8.593560
1.416534;0.004974;-6.474600;-3.767040;8.358120
1.421539;0.005005;-6.474600;-3.767040;8.593560
1.426514;0.004974;-6.710040;-3.767040;8.711280
1.431519;0.005005;-6.592320;-3.413880;9.535320
1.436523;0.005005;-6.827760;-3.413880;10.241640
1.441498;0.004974;-7.180920;-2.589840;11.065680
1.446503;0.005005;-7.063200;-2.236680;11.536560
1.451477;0.004974;-7.416360;-2.001240;11.301120
1.456482;0.005005;-7.651800;-1.883520;10.947960
1.461487;0.005005;-7.298640;-1.883520;11.654280
1.466461;0.004974;-7.063200;-1.765800;12.713760
1.471466;0.005005;-6.827760;-1.765800;13.302360
1.476440;0.004974;-6.121440;-1.765800;14.361840
1.481445;0.005005;-5.768280;-1.765800;15.068160
1.486420;0.004974;-5.532840;-1.765800;15.303600
1.491425;0.005005;-5.768280;-1.530360;15.421320
1.496429;0.005005;-5.532840;-1.648080;15.892200
1.501404;0.004974;-5.179680;-2.236680;16.127640
1.506409;0.005005;-4.944240;-3.060720;16.009920
1.511383;0.004974;-4.944240;-3.649320;15.068160
1.516388;0.005005;-5.061960;-4.120200;14.479560
1.521393;0.005005;-5.179680;-3.767040;14.126400
1.526367;0.004974;-5.061960;-3.767040;14.008680
1.531372;0.005005;-4.826520;-3.649320;14.597280
1.536346;0.004974;-5.179680;-2.825280;15.303600
1.541351;0.005005;-6.121440;-2.118960;15.656760
1.546326;0.004974;-6.710040;-1.412640;15.303600
1.551331;0.005005;-6.710040;-1.294920;14.479560
1.556305;0.004974;-6.710040;-1.412640;13.890960
1.561310;0.005005;-6.356880;-1.294920;13.655520
1.566315;0.005005;-6.592320;-1.294920;13.655520
1.571289;0.004974;-6.710040;-0.588600;13.773240
1.576294;0.005005;-6.945480;-0.235440;14.008680
1.581268;0.004974;-7.063200;-0.117720;14.361840
1.586273;0.005005;-7.063200;0.235440;14.244120
1.591278;0.005005;-6.827760;0.117720;14.244120
1.596252;0.004974;-6.592320;0.000000;14.479560
1.601257;0.005005;-6.003720;0.117720;15.303600
1.606232;0.004974;-5.768280;-0.117720;15.656760
1.611237;0.005005;-6.003720;-0.117720;16.009920
1.616241;0.005005;-5.415120;0.000000;16.009920
1.621216;0.004974;-5.061960;-0.353160;16.009920
1.626221;0.005005;-5.061960;-0.588600;15.303600
1.631226;0.005005;-5.061960;-0.941760;13.890960
1.636200;0.004974;-5.768280;-0.824040;13.184640
1.641205;0.005005;-6.239160;-0.470880;12.949200
1.646179;0.004974;-6.239160;-0.353160;12.596040
1.651184;0.005005;-6.356880;-0.117720;12.478320
1.656158;0.004974;-6.356880;0.353160;12.478320
1.661163;0.005005;-6.827760;0.470880;12.478320
1.666138;0.004974;-6.945480;0.824040;12.360600
1.671143;0.005005;-6.827760;1.059480;12.360600
1.676147;0.005005;-6.945480;1.530360;12.360600
1.681122;0.004974;-6.945480;1.648080;12.242880
1.686127;0.005005;-6.827760;1.765800;12.125160
1.691132;0.005005;-7.180920;1.883520;12.007440
1.696106;0.004974;-6.827760;1.883520;11.654280
1.701111;0.005005;-6.827760;1.883520;11.418840
1.706116;0.005005;-6.827760;1.883520;10.947960
1.711090;0.004974;-7.063200;1.883520;10.712520
1.716064;0.004974;-7.180920;1.883520;10.594800
1.721069;0.005005;-7.063200;1.883520;10.359360
1.726074;0.005005;-7.416360;2.001240;10.359360
1.731049;0.004974;-7.769520;2.236680;10.241640
1.736053;0.005005;-8.004960;2.943000;9.653040
1.741028;0.004974;-8.004960;3.060720;9.064440
1.746033;0.005005;-8.240400;2.943000;8.593560
1.751038;0.005005;-7.887240;2.472120;8.240400
1.756012;0.004974;-7.887240;2.472120;8.358120
1.761017;0.005005;-7.769520;2.589840;8.475840
1.765991;0.004974;-7.651800;2.354400;8.593560
1.770996;0.005005;-7.534080;2.472120;8.358120
1.775970;0.004974;-7.651800;2.118960;8.240400
1.780975;0.005005;-7.534080;2.001240;8.358120
1.785980;0.005005;-7.416360;2.001240;7.887240
1.790955;0.004974;-7.769520;2.118960;7.887240
1.795959;0.005005;-8.004960;2.001240;7.298640
1.800934;0.004974;-8.711280;1.177200;5.297400
1.805939;0.005005;-8.711280;0.470880;4.826520
1.810944;0.005005;-10.006200;-2.001240;1.059480
1.815918;0.004974;-10.241640;-1.177200;1.883520
1.820923;0.005005;-8.593560;2.472120;4.120200
1.825928;0.005005;-7.887240;6.239160;5.415120
1.830902;0.004974;-9.182160;6.003720;4.826520
1.835907;0.005005;-9.888480;-0.824040;6.356880
1.840881;0.004974;-8.711280;-0.588600;5.061960
1.845886;0.005005;-9.535320;0.353160;3.884760
1.850891;0.005005;-5.768280;6.474600;3.413880
1.855865;0.004974;-8.475840;3.531600;3.649320
1.860870;0.005005;-5.886000;5.886000;10.947960
1.865875;0.005005;-8.711280;3.531600;8.358120
1.870850;0.004974;-8.240400;3.884760;5.886000
1.875854;0.005005;-7.769520;4.944240;3.767040
1.880829;0.004974;-8.711280;5.297400;3.060720
1.885834;0.005005;-9.064440;5.415120;4.826520
1.890808;0.004974;-9.888480;5.768280;4.120200
1.895813;0.005005;-9.888480;7.063200;3.767040
1.900818;0.005005;-9.535320;5.768280;2.472120
1.905792;0.004974;-9.182160;3.884760;2.354400
1.910797;0.005005;-8.829000;3.178440;2.354400
1.915802;0.005005;-8.829000;3.649320;2.236680
1.920776;0.004974;-8.711280;4.120200;2.001240
1.925781;0.005005;-8.475840;4.120200;1.765800
1.930786;0.005005;-8.593560;3.767040;1.883520
1.935760;0.004974;-8.240400;3.531600;1.530360
1.940765;0.005005;-7.769520;4.002480;1.765800
1.945740;0.004974;-7.651800;4.826520;2.118960
1.950745;0.005005;-7.416360;6.003720;2.589840
1.955719;0.004974;-7.651800;6.945480;3.884760
1.960724;0.005005;-8.122680;7.651800;5.297400
1.965729;0.005005;-8.122680;8.004960;6.003720
1.970703;0.004974;-7.887240;7.769520;6.121440
1.975708;0.005005;-7.416360;7.534080;5.768280
1.980682;0.004974;-7.180920;7.534080;5.297400
1.985687;0.005005;-7.534080;7.534080;4.708800
1.990662;0.004974;-7.416360;7.298640;4.237920
1.995667;0.005005;-7.180920;7.180920;3.767040
2.000641;0.004974;-7.063200;6.474600;3.413880
2.005646;0.005005;-6.827760;6.003720;3.413880
2.010620;0.004974;-6.827760;6.003720;3.060720
2.015625;0.005005;-6.945480;5.886000;3.060720
2.020599;0.004974;-7.298640;5.650560;2.943000
2.025604;0.005005;-7.651800;5.768280;3.060720
2.030609;0.005005;-7.651800;5.886000;2.825280
2.035583;0.004974;-8.004960;5.886000;2.354400
2.040588;0.005005;-8.004960;6.474600;2.001240
2.045563;0.004974;-8.004960;6.945480;2.001240
2.050568;0.005005;-7.769520;6.945480;2.118960
2.055573;0.005005;-7.416360;6.945480;2.001240
2.060547;0.004974;-7.298640;6.945480;2.354400
2.065552;0.005005;-7.416360;6.827760;2.354400
2.070526;0.004974;-7.063200;6.592320;2.589840
2.075531;0.005005;-6.945480;6.474600;2.589840
2.080505;0.004974;-6.945480;6.592320;2.589840
2.085510;0.005005;-7.180920;6.827760;2.707560
2.090485;0.004974;-7.651800;7.063200;2.472120
2.095490;0.005005;-7.769520;7.298640;2.236680
2.100494;0.005005;-8.122680;7.651800;1.648080
2.105469;0.004974;-8.122680;8.240400;1.177200
2.110474;0.005005;-8.240400;8.004960;0.824040
2.115479;0.005005;-8.122680;7.769520;1.059480
2.120453;0.004974;-7.887240;7.651800;1.059480
2.125458;0.005005;-7.651800;7.769520;1.412640
2.130432;0.004974;-7.298640;7.534080;1.648080
2.135437;0.005005;-6.945480;7.063200;1.883520
2.140442;0.005005;-6.827760;6.945480;2.118960
2.145416;0.004974;-6.710040;7.416360;2.472120
2.150421;0.005005;-6.827760;7.534080;2.118960
2.155426;0.005005;-6.945480;7.534080;1.883520
2.160400;0.004974;-7.063200;7.769520;1.765800
2.165405;0.005005;-7.298640;7.887240;1.530360
2.170380;0.004974;-7.769520;8.122680;1.294920
2.175385;0.005005;-7.769520;8.004960;1.294920
2.180389;0.005005;-7.534080;7.534080;1.294920
2.185364;0.004974;-7.534080;6.827760;1.648080
2.190369;0.005005;-7.180920;6.239160;1.883520
2.195343;0.004974;-6.827760;5.532840;2.001240
2.200348;0.005005;-6.710040;4.708800;2.354400
2.205322;0.004974;-6.474600;4.002480;2.472120
2.210327;0.005005;-8.004960;1.059480;-7.063200
2.215332;0.005005;-5.061960;3.296160;-5.532840
2.220306;0.004974;-8.240400;2.707560;-2.354400
2.225311;0.005005;-8.475840;1.765800;-2.118960
2.230286;0.004974;-7.887240;1.883520;-0.941760
2.235291;0.005005;-7.887240;2.943000;-1.177200
2.240295;0.005005;-7.887240;4.355640;-1.059480
2.245270;0.004974;-8.358120;5.886000;-0.706320
2.250275;0.005005;-8.829000;6.827760;-0.470880
2.255280;0.005005;-8.829000;7.298640;-0.588600
2.260254;0.004974;-9.064440;6.945480;-0.824040
2.265259;0.005005;-8.711280;6.474600;-0.706320
2.270264;0.005005;-8.946720;6.121440;-0.353160
2.275238;0.004974;-8.829000;6.356880;-0.470880
2.280243;0.005005;-8.593560;6.003720;-0.470880
2.285217;0.004974;-8.946720;6.945480;-0.353160
2.290222;0.005005;-8.593560;8.475840;-0.353160
2.295197;0.004974;-9.417600;2.943000;5.886000
2.300201;0.005005;-7.887240;7.180920;1.294920
2.305206;0.005005;-8.358120;6.239160;-0.470880
2.310181;0.004974;-8.122680;5.650560;-0.117720
2.315186;0.005005;-7.416360;6.121440;0.117720
2.320190;0.005005;-7.651800;6.710040;0.588600
2.325165;0.004974;-7.298640;6.474600;1.177200
2.330170;0.005005;-7.298640;7.651800;0.588600
2.335144;0.004974;-7.298640;7.651800;1.059480
2.340149;0.005005;-7.298640;9.535320;1.059480
2.345154;0.005005;-7.298640;9.182160;0.706320
2.350128;0.004974;-7.180920;9.417600;0.235440
2.355133;0.005005;-7.180920;9.417600;0.000000
2.360138;0.005005;-7.298640;9.770760;0.706320
2.365112;0.004974;-7.769520;9.064440;0.706320
2.370117;0.005005;-7.180920;8.240400;0.824040
2.375092;0.004974;-7.180920;8.358120;1.294920
2.380096;0.005005;-6.710040;7.769520;1.294920
2.385071;0.004974;-6.474600;7.180920;1.883520
2.390076;0.005005;-6.239160;6.945480;2.118960
2.395081;0.005005;-5.768280;6.356880;2.354400
2.400055;0.004974;-5.650560;6.356880;2.589840
2.405060;0.005005;-4.826520;-1.294920;-8.358120
2.410065;0.005005;-6.592320;8.358120;-0.353160
2.415039;0.004974;-6.710040;6.003720;-1.294920
2.420044;0.005005;-8.358120;12.007440;0.470880
2.425018;0.004974;-8.829000;11.418840;4.237920
2.430023;0.005005;-8.122680;2.589840;-10.359360
2.435028;0.005005;-6.474600;7.534080;-0.470880
2.440002;0.004974;-5.886000;2.354400;9.770760
2.445007;0.005005;-5.179680;4.473360;-4.237920
2.449982;0.004974;-5.886000;6.710040;-4.944240
2.454987;0.005005;-7.180920;5.768280;-2.118960
2.459961;0.004974;-7.063200;6.121440;-2.707560
2.464966;0.005005;-7.416360;5.768280;-3.060720
2.469940;0.004974;-7.063200;5.532840;-3.060720
2.474945;0.005005;-7.180920;5.415120;-2.943000
2.479919;0.004974;-6.827760;5.297400;-2.943000
2.484924;0.005005;-6.474600;4.944240;-2.472120
2.489899;0.004974;-6.474600;4.826520;-1.648080
2.494904;0.005005;-6.710040;6.003720;-0.824040
2.499908;0.005005;-6.710040;6.356880;-0.470880
2.504883;0.004974;-6.356880;5.886000;-1.059480
2.509888;0.005005;-6.239160;5.415120;-1.294920
2.514862;0.004974;-6.239160;4.944240;-1.294920
2.519867;0.005005;-6.239160;4.473360;-1.177200
2.524841;0.004974;-6.474600;3.884760;-1.177200
2.529846;0.005005;-6.356880;3.060720;-0.824040
2.534851;0.005005;-6.356880;3.649320;-0.706320
2.539825;0.004974;-7.180920;4.591080;-0.941760
2.544830;0.005005;-7.651800;3.531600;-0.353160
2.549805;0.004974;-7.534080;6.003720;0.117720
2.554810;0.005005;-7.651800;6.592320;1.059480
2.559784;0.004974;-7.769520;8.004960;2.001240
2.564789;0.005005;-7.769520;8.711280;2.354400
2.569794;0.005005;-7.651800;9.064440;2.472120
2.574768;0.004974;-7.534080;9.299880;2.707560
2.579773;0.005005;-7.651800;9.182160;2.472120
2.584747;0.004974;-8.004960;8.240400;2.001240
2.589752;0.005005;-8.475840;7.416360;1.177200
2.594727;0.004974;-8.475840;6.474600;0.588600
2.599731;0.005005;-8.240400;6.121440;0.941760
2.604706;0.004974;-8.829000;6.121440;1.177200
2.609711;0.005005;-9.182160;6.003720;1.530360
2.614685;0.004974;-9.299880;5.886000;1.177200
2.619690;0.005005;-9.417600;5.768280;1.294920
2.624695;0.005005;-9.770760;5.886000;1.294920
2.629669;0.004974;-9.299880;5.886000;1.648080
2.634674;0.005005;-9.299880;5.768280;1.883520
2.639648;0.004974;-9.299880;5.886000;1.883520
2.644653;0.005005;-9.182160;5.532840;1.530360
2.649628;0.004974;-9.182160;5.179680;0.824040
2.654633;0.005005;-9.299880;4.591080;0.706320
2.659607;0.004974;-9.064440;4.591080;0.588600
2.664612;0.005005;-9.182160;4.708800;0.706320
2.669586;0.004974;-9.182160;5.061960;0.588600
2.674591;0.005005;-8.829000;6.121440;0.824040
2.679596;0.005005;-9.182160;6.003720;0.706320
2.684570;0.004974;-9.064440;6.003720;0.588600
2.689575;0.005005;-8.711280;6.003720;0.824040
2.694550;0.004974;-8.475840;5.297400;1.294920
2.699554;0.005005;-8.475840;4.944240;1.765800
2.704529;0.004974;-8.240400;4.944240;1.648080
2.709534;0.005005;-8.240400;4.473360;1.294920
2.714539;0.005005;-8.240400;4.473360;1.177200
2.719513;0.004974;-8.004960;5.179680;1.177200
2.724518;0.005005;-8.593560;5.650560;0.353160
2.729523;0.005005;-8.358120;5.061960;-0.235440
2.734497;0.004974;-8.240400;5.415120;0.588600
2.739502;0.005005;-8.475840;5.886000;1.177200
2.744476;0.004974;-8.475840;7.651800;0.941760
2.749481;0.005005;-8.475840;8.122680;1.294920
2.754456;0.004974;-9.182160;7.298640;0.824040
2.759460;0.005005;-8.829000;6.474600;0.470880
2.764435;0.004974;-8.711280;6.592320;0.470880
2.769440;0.005005;-8.711280;6.121440;0.000000
2.774414;0.004974;-8.711280;5.886000;0.353160
2.779419;0.005005;-10.830240;8.593560;0.235440
2.784424;0.005005;-9.299880;7.298640;-0.470880
2.789398;0.004974;-8.829000;8.122680;-0.235440
2.794403;0.005005;-8.593560;7.534080;-0.588600
2.799408;0.005005;-8.004960;4.708800;0.470880
2.804382;0.004974;-7.769520;5.179680;0.824040
2.809387;0.005005;-7.769520;4.944240;0.706320
2.814392;0.005005;-8.004960;4.120200;0.824040
2.819366;0.004974;-7.769520;3.884760;0.706320
2.824371;0.005005;-7.887240;4.591080;0.941760
2.829376;0.005005;-7.887240;5.179680;0.470880
2.834351;0.004974;-7.769520;5.532840;0.117720
2.839355;0.005005;-8.593560;5.297400;-0.706320
2.844330;0.004974;-8.358120;5.415120;-1.530360
2.849335;0.005005;-8.475840;5.297400;-0.470880
2.854340;0.005005;-7.769520;6.003720;0.470880
2.859314;0.004974;-7.887240;8.122680;1.177200
2.864319;0.005005;-7.651800;6.239160;1.883520
2.869324;0.005005;-8.829000;4.708800;-0.353160
2.874298;0.004974;-8.122680;4.120200;-0.941760
2.879303;0.005005;-9.064440;3.884760;-1.177200
2.884277;0.004974;-9.182160;4.355640;-0.706320
2.889282;0.005005;-8.946720;4.473360;-1.059480
2.894287;0.005005;-8.829000;4.591080;-0.824040
2.899292;0.005005;-8.829000;4.473360;-0.353160
2.904266;0.004974;-8.711280;4.120200;0.000000
2.909271;0.005005;-9.417600;3.884760;0.588600
2.914246;0.004974;-8.593560;2.118960;-0.470880
2.919250;0.005005;-10.477080;5.650560;-0.941760
2.924225;0.004974;-10.477080;6.003720;-1.883520
2.929230;0.005005;-10.359360;5.886000;-2.001240
2.934235;0.005005;-10.359360;6.239160;-1.177200
2.939209;0.004974;-10.123920;6.710040;-0.235440
2.944214;0.005005;-9.653040;6.827760;0.588600
2.949188;0.004974;-9.182160;7.180920;1.294920
2.954193;0.005005;-8.711280;6.827760;1.648080
2.959167;0.004974;-8.711280;5.415120;1.648080
2.964172;0.005005;-8.475840;4.002480;1.530360
2.969177;0.005005;-8.475840;4.473360;1.765800
2.974152;0.004974;-8.240400;5.415120;2.001240
2.979156;0.005005;-7.298640;5.532840;2.118960
2.984131;0.004974;-8.122680;5.650560;1.765800
2.989136;0.005005;-8.475840;5.886000;0.824040
2.994110;0.004974;-8.358120;5.650560;-0.235440
2.999115;0.005005;-8.475840;5.415120;-0.941760
3.004089;0.004974;-9.653040;4.591080;-1.883520
3.009094;0.005005;-9.299880;4.355640;-1.294920
3.014099;0.005005;-8.946720;4.944240;0.117720
3.019073;0.004974;-8.593560;5.297400;1.412640
3.024078;0.005005;-7.416360;5.650560;1.412640
3.029053;0.004974;-6.945480;5.768280;1.765800
3.034058;0.005005;-7.416360;6.356880;2.001240
3.039032;0.004974;-7.769520;6.356880;1.883520
3.044037;0.005005;-8.358120;6.239160;1.883520
3.049042;0.005005;-8.593560;6.003720;1.412640
3.054016;0.004974;-8.593560;6.003720;1.294920
3.058990;0.004974;-9.182160;6.121440;0.588600
3.063995;0.005005;-9.299880;6.121440;0.941760
3.068970;0.004974;-10.241640;6.356880;0.588600
3.073975;0.005005;-10.712520;6.121440;0.235440
3.078979;0.005005;-10.123920;5.650560;0.000000
3.083954;0.004974;-12.007440;6.474600;0.824040
3.088959;0.005005;-10.830240;6.121440;0.706320
3.093933;0.004974;-11.065680;6.003720;1.294920
3.098938;0.005005;-9.888480;5.886000;1.648080
3.103912;0.004974;-9.299880;5.179680;0.824040
3.108917;0.005005;-8.240400;5.415120;1.177200
3.113892;0.004974;-9.182160;4.708800;0.470880
3.118896;0.005005;-8.475840;4.237920;0.824040
3.123901;0.005005;-8.475840;4.591080;0.235440
3.128876;0.004974;-8.593560;4.591080;-0.353160
3.133881;0.005005;-8.475840;5.650560;-0.117720
3.138855;0.004974;-7.769520;3.178440;1.648080
3.143860;0.005005;-7.534080;4.708800;0.941760
3.148834;0.004974;-7.769520;5.886000;-0.117720
3.153839;0.005005;-8.593560;10.123920;-2.354400
3.158813;0.004974;-8.711280;7.063200;-1.294920
3.163818;0.005005;-8.004960;3.884760;0.824040
3.168823;0.005005;-8.358120;4.237920;-0.588600
3.173798;0.004974;-8.358120;8.358120;-1.294920
3.178802;0.005005;-7.769520;5.415120;-0.470880
3.183777;0.004974;-7.887240;5.179680;-0.117720
3.188782;0.005005;-8.475840;4.708800;0.824040
3.193756;0.004974;-8.593560;6.356880;-0.470880
3.198761;0.005005;-9.064440;6.474600;-1.177200
3.203735;0.004974;-8.829000;7.416360;-1.177200
3.208740;0.005005;-8.593560;5.415120;0.117720
3.213745;0.005005;-8.358120;6.356880;0.000000
3.218719;0.004974;-8.593560;5.532840;-0.117720
3.223724;0.005005;-8.593560;4.826520;-0.235440
3.228729;0.005005;-8.593560;4.708800;-0.117720
3.233704;0.004974;-8.240400;5.297400;0.117720
3.238708;0.005005;-7.769520;4.944240;0.470880
3.243683;0.004974;-7.180920;4.473360;0.235440
3.248688;0.005005;-7.887240;5.768280;-1.177200
3.253662;0.004974;-8.122680;6.592320;-1.765800
3.258667;0.005005;-7.651800;6.121440;-1.765800
3.263641;0.004974;-7.416360;6.239160;-0.588600
3.268646;0.005005;-7.887240;6.239160;-0.588600
3.273651;0.005005;-8.475840;6.003720;-1.412640
3.278625;0.004974;-8.711280;6.003720;-1.530360
3.283630;0.005005;-8.122680;5.886000;-0.117720
3.288635;0.005005;-8.240400;6.003720;0.117720
3.293610;0.004974;-10.359360;4.355640;-1.294920
3.298615;0.005005;-10.947960;5.061960;0.235440
3.303589;0.004974;-9.770760;4.944240;-0.235440
3.308594;0.005005;-9.653040;2.943000;0.353160
3.313599;0.005005;-9.770760;5.532840;-1.530360
3.318573;0.004974;-8.593560;6.239160;0.824040
3.323578;0.005005;-7.063200;4.708800;0.353160
3.328552;0.004974;-6.592320;4.002480;0.353160
3.333557;0.005005;-7.887240;3.767040;-0.117720
3.338562;0.005005;-8.004960;-1.765800;-15.068160
3.343536;0.004974;-9.299880;2.589840;-8.122680
3.348541;0.005005;-9.064440;4.944240;-2.001240
3.353546;0.005005;-8.475840;5.650560;-2.236680
3.358521;0.004974;-9.182160;5.297400;-1.294920
3.363525;0.005005;-10.359360;4.708800;-0.235440
3.368530;0.005005;-8.122680;3.649320;-3.767040
3.373505;0.004974;-9.770760;5.886000;0.000000
3.378510;0.005005;-9.182160;5.886000;0.941760
3.383484;0.004974;-8.829000;4.591080;3.060720
3.388489;0.005005;-8.122680;4.826520;1.059480
3.393494;0.005005;-6.945480;5.415120;2.589840
3.398468;0.004974;-8.122680;4.473360;2.001240
3.403473;0.005005;-7.534080;4.002480;0.706320
3.408447;0.004974;-10.359360;3.413880;2.589840
3.413452;0.005005;-12.007440;3.884760;3.767040
3.418457;0.005005;-10.947960;4.120200;1.530360
3.423431;0.004974;-10.123920;5.650560;0.706320
3.428436;0.005005;-9.888480;4.708800;-0.706320
3.433411;0.004974;-9.888480;3.884760;-2.118960
3.438416;0.005005;-8.946720;0.588600;-6.945480
3.443420;0.005005;-8.593560;1.883520;-4.944240
3.448395;0.004974;-8.593560;2.943000;-2.825280
3.453400;0.005005;-5.650560;4.826520;1.059480
3.458405;0.005005;-6.474600;5.179680;-0.235440
3.463379;0.004974;-7.534080;3.178440;-1.765800
3.468384;0.005005;-8.240400;1.883520;-1.177200
3.473358;0.004974;-5.650560;5.650560;-1.059480
3.478363;0.005005;-10.477080;5.650560;2.589840
3.483337;0.004974;-11.654280;4.355640;3.178440
3.488342;0.005005;-11.065680;-0.117720;0.000000
3.493347;0.005005;-2.589840;-1.177200;1.059480
3.498322;0.004974;-11.183400;5.297400;-0.353160
3.503326;0.005005;-12.125160;6.592320;-0.824040
3.508301;0.004974;-12.242880;3.767040;-0.706320
3.513275;0.004974;-13.066920;3.884760;-0.470880
3.518280;0.005005;-12.596040;2.001240;-0.588600
3.523254;0.004974;-13.066920;1.412640;-0.706320
3.528259;0.005005;-13.066920;1.883520;-0.353160
3.533264;0.005005;-14.244120;2.118960;0.706320
3.538239;0.004974;-14.008680;2.707560;0.941760
3.543243;0.005005;-12.360600;2.118960;0.353160
3.548248;0.005005;-12.360600;2.354400;0.470880
3.553223;0.004974;-12.125160;2.354400;0.353160
3.558228;0.005005;-12.360600;2.118960;0.235440
3.563202;0.004974;-12.007440;2.001240;0.000000
3.568207;0.005005;-11.418840;1.765800;-0.235440
3.573212;0.005005;-11.183400;1.883520;-0.353160
3.578186;0.004974;-10.830240;2.001240;-0.235440
3.583191;0.005005;-10.359360;2.001240;-0.588600
3.588165;0.004974;-10.241640;2.001240;-0.588600
3.593170;0.005005;-10.123920;1.883520;-0.941760
3.598145;0.004974;-10.947960;1.765800;-1.294920
3.603149;0.005005;-10.359360;1.883520;-0.941760
3.608124;0.004974;-10.123920;1.883520;-1.059480
3.613129;0.005005;-10.477080;2.354400;-1.177200
3.618134;0.005005;-10.947960;2.118960;-1.765800
3.623108;0.004974;-9.535320;2.001240;-0.824040
3.628113;0.005005;-9.299880;2.472120;-0.470880
3.633118;0.005005;-9.299880;2.001240;-0.588600
3.638092;0.004974;-9.653040;2.001240;-0.588600
3.643097;0.005005;-10.359360;1.530360;-0.353160
3.648071;0.004974;-10.594800;1.648080;-0.588600
3.653076;0.005005;-11.065680;1.765800;-0.706320
3.658081;0.005005;-10.830240;1.883520;-0.470880
3.663055;0.004974;-11.772000;2.354400;-0.117720
3.668060;0.005005;-10.830240;2.001240;-0.117720
3.673065;0.005005;-11.418840;1.883520;-0.235440
3.678040;0.004974;-10.947960;1.765800;-0.235440
3.683044;0.005005;-1.765800;-4.591080;2.825280
3.688019;0.004974;-6.239160;-1.294920;1.530360
3.693024;0.005005;-7.416360;-0.470880;1.530360
3.697998;0.004974;-9.299880;1.177200;1.294920
3.703003;0.005005;-10.359360;1.530360;1.177200
3.707977;0.004974;-10.594800;1.765800;0.706320
3.712982;0.005005;-10.123920;1.765800;0.353160
3.717987;0.005005;-9.888480;1.883520;-0.588600
3.722961;0.004974;-36.964080;-1.648080;-0.588600
3.727966;0.005005;-19.423800;0.000000;-1.177200
3.732971;0.005005;-13.890960;0.706320;-0.824040
3.737946;0.004974;-12.125160;0.470880;-0.353160
3.742950;0.005005;-15.774480;0.470880;-1.765800
3.747955;0.005005;-14.008680;1.177200;-2.707560
3.752930;0.004974;-16.833960;-1.059480;-6.710040
3.757935;0.005005;-9.182160;2.354400;-3.178440
3.762909;0.004974;-7.180920;2.589840;-0.235440
3.767914;0.005005;-8.475840;1.883520;-0.941760
3.772919;0.005005;-9.417600;1.530360;-0.588600
3.777893;0.004974;-10.241640;1.648080;0.000000
3.782898;0.005005;-14.479560;-2.472120;0.000000
3.787903;0.005005;-12.242880;-0.235440;0.000000
3.792877;0.004974;-12.125160;0.824040;0.235440
3.797882;0.005005;-10.477080;1.294920;-1.059480
3.802856;0.004974;-10.712520;1.765800;-1.412640
3.807861;0.005005;-10.947960;0.117720;-2.001240
3.812866;0.005005;-9.182160;0.706320;-2.472120
3.817841;0.004974;-8.593560;1.177200;-2.236680
3.822845;0.005005;-9.653040;1.177200;-1.530360
3.827820;0.004974;-9.770760;0.941760;-1.883520
3.832825;0.005005;-10.006200;1.294920;-2.118960
3.837799;0.004974;-10.006200;1.530360;-2.118960
3.842804;0.005005;-9.770760;1.294920;-1.883520
3.847809;0.005005;-9.770760;1.059480;-1.883520
3.852783;0.004974;-9.417600;0.941760;-1.765800
3.857788;0.005005;-9.299880;1.177200;-1.648080
3.862762;0.004974;-9.417600;0.824040;-1.765800
3.867767;0.005005;-9.299880;1.177200;-1.530360
3.872742;0.004974;-8.711280;0.941760;-1.530360
3.877747;0.005005;-9.417600;1.177200;-1.412640
3.882751;0.005005;-10.006200;1.530360;-1.648080
3.887726;0.004974;-10.359360;1.765800;-1.177200
3.892731;0.005005;-11.183400;1.883520;-1.294920
3.897705;0.004974;-10.947960;1.883520;-0.824040
3.902710;0.005005;-12.949200;-0.117720;-4.120200
3.907684;0.004974;-8.946720;3.178440;-4.002480
3.912689;0.005005;-9.653040;2.472120;-2.943000
3.917694;0.005005;-9.770760;2.001240;-2.589840
3.922668;0.004974;-9.770760;1.530360;-2.354400
3.927673;0.005005;-10.241640;0.824040;-2.589840
3.932648;0.004974;-9.770760;0.941760;-2.589840
3.937653;0.005005;-9.888480;0.941760;-2.118960
3.942627;0.004974;-10.123920;0.470880;-2.001240
3.947632;0.005005;-11.065680;0.470880;-2.236680
3.952606;0.004974;-9.653040;0.470880;-2.118960
3.957611;0.005005;-10.123920;0.000000;-2.001240
3.962585;0.004974;-11.418840;0.000000;-2.236680
3.967590;0.005005;-11.065680;0.941760;-0.706320
3.972595;0.005005;-10.006200;0.000000;-1.059480
3.977570;0.004974;-10.241640;0.353160;-1.530360
3.982574;0.005005;-10.241640;1.177200;-1.765800
3.987549;0.004974;-10.241640;0.588600;-2.118960
3.992554;0.005005;-10.241640;0.941760;-2.001240
3.997559;0.005005;-10.477080;0.824040;-2.118960
4.002533;0.004974;-10.712520;0.824040;-2.354400
4.007538;0.005005;-10.477080;0.470880;-2.472120
4.012543;0.005005;-10.830240;0.706320;-2.354400
4.017517;0.004974;-10.594800;0.470880;-2.472120
4.022522;0.005005;-10.477080;0.706320;-2.589840
4.027527;0.005005;-10.241640;0.353160;-2.707560
4.032501;0.004974;-10.594800;0.353160;-2.589840
4.037506;0.005005;-8.593560;-0.235440;-2.707560
4.042480;0.004974;-8.829000;0.000000;-2.472120
4.047485;0.005005;-9.182160;0.117720;-2.472120
4.052490;0.005005;-10.006200;0.235440;-2.236680
4.057495;0.005005;-10.006200;0.470880;-2.236680
4.062469;0.004974;-10.006200;0.235440;-2.118960
4.067444;0.004974;-10.006200;0.235440;-2.472120
4.072449;0.005005;-10.241640;0.235440;-2.354400
4.077454;0.005005;-10.359360;0.235440;-2.354400
4.082428;0.004974;-9.888480;0.000000;-2.354400
4.087433;0.005005;-10.594800;0.353160;-2.589840
4.092438;0.005005;-10.359360;0.117720;-2.589840
4.097412;0.004974;-10.712520;0.353160;-2.707560
4.102417;0.005005;-9.888480;0.235440;-2.707560
4.107391;0.004974;-9.770760;0.353160;-2.472120
4.112396;0.005005;-9.535320;-0.706320;-2.589840
4.117401;0.005005;-9.888480;-0.353160;-2.825280
4.122375;0.004974;-9.888480;-0.941760;-2.707560
4.127380;0.005005;-9.653040;-1.294920;-2.589840
4.132385;0.005005;-9.653040;-0.588600;-2.472120
4.137360;0.004974;-9.770760;-0.117720;-2.354400
4.142365;0.005005;-9.888480;-0.353160;-2.472120
4.147339;0.004974;-10.006200;-0.117720;-2.354400
4.152344;0.005005;-9.888480;0.000000;-2.589840
4.157349;0.005005;-9.888480;0.117720;-2.472120
4.162323;0.004974;-10.123920;-0.117720;-2.472120
4.167328;0.005005;-10.477080;-0.824040;-2.354400
4.172333;0.005005;-10.594800;-0.941760;-2.472120
4.177307;0.004974;-10.477080;-0.470880;-2.589840
4.182312;0.005005;-10.359360;-0.588600;-2.472120
4.187286;0.004974;-10.123920;-0.588600;-2.472120
4.192291;0.005005;-10.241640;-1.177200;-2.589840
4.197296;0.005005;-10.006200;-1.059480;-2.589840
4.202271;0.004974;-10.123920;-1.412640;-2.589840
4.207275;0.005005;-10.241640;-1.530360;-2.236680
4.212280;0.005005;-10.359360;-1.648080;-2.236680
4.217255;0.004974;-10.241640;-1.294920;-2.472120
4.222260;0.005005;-10.477080;-1.294920;-2.472120
4.227264;0.005005;-10.123920;-0.706320;-2.589840
4.232239;0.004974;-10.594800;-1.059480;-2.472120
4.237244;0.005005;-10.594800;-1.177200;-2.707560
4.242249;0.005005;-10.477080;-0.824040;-2.707560
4.247223;0.004974;-10.359360;-0.470880;-2.707560
4.252228;0.005005;-10.594800;-0.353160;-2.589840
4.257233;0.005005;-10.830240;-0.588600;-2.707560
4.262207;0.004974;-10.594800;-0.941760;-2.589840
4.267212;0.005005;-10.359360;-0.824040;-2.589840
4.272186;0.004974;-10.241640;-0.941760;-2.707560
4.277191;0.005005;-10.123920;-1.059480;-2.707560
4.282196;0.005005;-9.653040;-0.941760;-2.472120
4.287170;0.004974;-9.653040;-1.059480;-2.589840
4.292175;0.005005;-9.770760;-0.941760;-2.472120
4.297180;0.005005;-9.888480;-0.706320;-2.472120
4.302155;0.004974;-9.653040;-0.353160;-2.472120
4.307159;0.005005;-9.653040;-0.706320;-2.354400
4.312134;0.004974;-9.770760;-0.824040;-2.589840
4.317139;0.005005;-9.653040;-0.588600;-2.707560
4.322144;0.005005;-10.006200;-0.353160;-2.589840
4.327118;0.004974;-9.888480;-0.235440;-2.707560
4.332123;0.005005;-10.241640;-0.824040;-2.589840
4.337097;0.004974;-10.359360;-0.706320;-2.354400
4.342102;0.005005;-10.006200;-1.059480;-2.589840
4.347076;0.004974;-9.888480;-0.706320;-2.589840
4.352081;0.005005;-10.006200;-0.706320;-2.707560
4.357086;0.005005;-10.006200;-0.706320;-2.707560
4.362061;0.004974;-9.535320;0.117720;-2.707560
4.367065;0.005005;-9.535320;0.470880;-2.707560
4.372040;0.004974;-9.770760;0.117720;-2.589840
4.377045;0.005005;-9.888480;-0.117720;-2.707560
4.382050;0.005005;-10.947960;-1.412640;-2.472120
4.387024;0.004974;-10.241640;-1.059480;-2.354400
4.392029;0.005005;-10.123920;-0.588600;-2.472120
4.397003;0.004974;-11.183400;-3.060720;-3.413880
4.402008;0.005005;-15.421320;-6.592320;-2.354400
4.407013;0.005005;-12.478320;-3.296160;-2.589840
4.411987;0.004974;-11.065680;-1.765800;-2.589840
4.416992;0.005005;-10.712520;-1.177200;-2.589840
4.421997;0.005005;-10.712520;-1.059480;-2.707560
4.426971;0.004974;-10.359360;-1.059480;-2.472120
4.431976;0.005005;-10.712520;-1.412640;-2.118960
4.436951;0.004974;-10.712520;-1.294920;-2.354400
4.441956;0.005005;1.059480;14.008680;-0.117720
4.446960;0.005005;-6.827760;6.710040;-1.059480
4.451965;0.005005;-9.535320;2.001240;-1.648080
4.456940;0.004974;-9.770760;0.706320;-2.001240
4.461945;0.005005;-10.006200;0.353160;-2.118960
4.466919;0.004974;-10.712520;-0.235440;-2.472120
4.471924;0.005005;-10.594800;-0.588600;-2.589840
4.476929;0.005005;-10.477080;-0.470880;-2.825280
4.481903;0.004974;-10.359360;-0.588600;-2.707560
4.486908;0.005005;-10.830240;-0.353160;-2.707560
4.491913;0.005005;-10.712520;-0.588600;-2.472120
4.496887;0.004974;-10.594800;-0.353160;-2.589840
4.501892;0.005005;-10.594800;-0.353160;-2.707560
4.506866;0.004974;-10.830240;-0.353160;-2.589840
4.511871;0.005005;-10.830240;-0.353160;-2.589840
4.516876;0.005005;-10.712520;-0.470880;-2.707560
4.521851;0.004974;-10.594800;-0.470880;-2.472120
4.526855;0.005005;-10.594800;-0.588600;-2.236680
4.531830;0.004974;-9.888480;-0.706320;-2.118960
4.536835;0.005005;-10.123920;-0.470880;-2.354400
4.541840;0.005005;-10.477080;-0.235440;-2.236680
4.546814;0.004974;-10.477080;-0.235440;-2.354400
4.551819;0.005005;-10.712520;-1.177200;-2.707560
4.556824;0.005005;-10.241640;-0.353160;-2.472120
4.561798;0.004974;-9.770760;0.117720;-2.589840
4.566803;0.005005;-9.535320;0.000000;-2.354400
4.571808;0.005005;-10.477080;0.000000;-2.354400
4.576782;0.004974;-10.123920;-0.117720;-2.589840
4.581787;0.005005;-10.006200;-0.117720;-2.707560
4.586792;0.005005;-9.417600;-0.824040;-2.825280
4.591766;0.004974;-9.417600;-0.824040;-2.825280
4.596771;0.005005;-9.299880;-0.235440;-2.707560
4.601776;0.005005;-8.829000;-0.117720;-2.707560
4.606750;0.004974;-8.946720;-0.470880;-2.707560
4.611755;0.005005;-9.182160;-0.235440;-2.707560
4.616730;0.004974;-9.770760;-0.235440;-2.707560
4.621735;0.005005;-9.770760;-0.588600;-2.118960
4.626740;0.005005;-9.417600;-0.235440;-2.472120
4.631714;0.004974;-9.535320;0.117720;-2.589840
4.636719;0.005005;-9.770760;0.000000;-2.707560
4.641693;0.004974;-10.123920;-0.235440;-2.589840
4.646698;0.005005;-10.359360;-0.117720;-2.354400
4.651703;0.005005;-10.359360;-0.117720;-2.354400
4.656677;0.004974;-10.241640;0.000000;-2.118960
4.661682;0.005005;-10.241640;-0.117720;-2.236680
4.666687;0.005005;-10.241640;-0.117720;-2.001240
4.671661;0.004974;-10.241640;0.117720;-2.001240
4.676666;0.005005;-10.241640;0.235440;-2.118960
4.681671;0.005005;-10.241640;0.117720;-2.236680
4.686646;0.004974;-10.123920;-0.117720;-2.236680
4.691650;0.005005;-10.241640;-0.117720;-2.354400
4.696625;0.004974;-9.888480;-0.117720;-2.118960
4.701630;0.005005;-10.006200;-0.353160;-2.001240
4.706635;0.005005;-10.006200;-0.353160;-2.236680
4.711609;0.004974;-10.123920;-0.353160;-2.354400
4.716614;0.005005;-10.123920;-0.353160;-2.472120
4.721619;0.005005;-10.359360;-0.824040;-2.354400
4.726593;0.004974;-10.241640;-0.824040;-2.472120
4.731598;0.005005;-10.477080;-0.824040;-2.589840
4.736603;0.005005;-10.477080;-0.824040;-2.472120
4.741577;0.004974;-10.241640;-1.059480;-2.589840
4.746582;0.005005;-10.241640;-1.177200;-2.472120
4.751587;0.005005;-10.359360;-1.412640;-2.354400
4.756561;0.004974;-10.594800;-1.412640;-2.472120
4.761566;0.005005;-10.359360;-1.059480;-2.472120
4.766571;0.005005;-10.359360;-0.706320;-2.354400
4.771545;0.004974;-10.359360;-0.353160;-2.472120
4.776550;0.005005;-10.359360;-0.353160;-2.236680
4.781555;0.005005;-10.594800;-0.353160;-2.236680
4.786530;0.004974;-10.241640;-0.353160;-2.001240
4.791534;0.005005;-10.123920;-0.353160;-2.236680
4.796509;0.004974;-10.241640;-0.470880;-2.472120
4.801514;0.005005;-10.123920;-0.470880;-2.354400
4.806519;0.005005;-10.241640;-0.470880;-2.472120
4.811493;0.004974;-10.006200;-0.470880;-2.354400
4.816498;0.005005;-10.123920;-0.235440;-2.472120
4.821503;0.005005;-10.006200;-0.235440;-2.236680
4.826477;0.004974;-10.006200;-0.353160;-2.472120
4.831482;0.005005;-10.006200;-0.235440;-2.354400
4.836456;0.004974;-10.241640;-0.353160;-2.354400
4.841461;0.005005;-10.241640;-0.470880;-2.589840
4.846466;0.005005;-10.241640;-0.824040;-2.589840
4.851440;0.004974;-10.123920;-0.824040;-2.707560
4.856445;0.005005;-10.241640;-0.824040;-2.472120
4.861450;0.005005;-10.359360;-0.588600;-2.118960
4.866425;0.004974;-10.594800;-0.353160;-2.354400
4.871429;0.005005;-10.477080;-0.941760;-2.472120
4.876404;0.004974;-10.359360;-0.941760;-2.354400
4.881409;0.005005;-10.359360;-1.059480;-2.236680
4.886414;0.005005;-10.359360;-1.059480;-2.236680
4.891418;0.005005;-10.712520;-0.824040;-2.118960
4.896393;0.004974;-10.359360;-0.706320;-2.472120
4.901398;0.005005;-10.359360;-0.706320;-2.354400
4.906403;0.005005;-10.359360;-0.941760;-2.589840
4.911407;0.005005;-10.006200;-1.177200;-2.707560
4.916382;0.004974;-10.006200;-0.941760;-2.472120
4.921387;0.005005;-9.653040;-0.824040;-2.354400
4.926361;0.004974;-9.653040;-0.706320;-2.589840
4.931366;0.005005;-9.653040;-0.470880;-2.472120
4.936371;0.005005;-9.417600;-0.353160;-2.472120
4.941345;0.004974;-9.417600;-0.235440;-2.354400
4.946350;0.005005;-9.535320;-0.353160;-2.472120
4.951324;0.004974;-9.653040;-0.235440;-2.236680
4.956329;0.005005;-9.888480;-0.117720;-2.118960
4.961334;0.005005;-10.006200;0.000000;-2.472120
4.966309;0.004974;-9.888480;0.000000;-2.118960
4.971313;0.005005;-9.888480;0.000000;-2.001240
4.976288;0.004974;-9.888480;-0.235440;-2.118960
4.981293;0.005005;-9.888480;-0.353160;-2.118960
4.986298;0.005005;-10.006200;-0.117720;-2.236680
4.991272;0.004974;-10.123920;0.117720;-2.236680
4.996277;0.005005;-9.888480;-0.117720;-2.001240
5.001282;0.005005;-10.006200;0.000000;-1.765800
5.006256;0.004974;-10.006200;-0.117720;-1.765800
5.011261;0.005005;-9.770760;-0.117720;-1.883520
5.016235;0.004974;-9.770760;-0.117720;-1.883520
5.021240;0.005005;-9.888480;-0.235440;-1.883520
5.026245;0.005005;-9.888480;-0.353160;-2.118960
5.031250;0.005005;-9.888480;-0.353160;-2.236680
5.036224;0.004974;-9.770760;-0.470880;-1.883520
5.041229;0.005005;-9.770760;-0.470880;-2.001240
5.046234;0.005005;-10.006200;-0.117720;-1.883520
5.051208;0.004974;-10.006200;-0.470880;-2.001240
5.056213;0.005005;-10.006200;-0.235440;-1.765800
5.061218;0.005005;-10.006200;-0.470880;-1.765800
5.066193;0.004974;-10.241640;-0.353160;-1.648080
5.071198;0.005005;-10.477080;-0.235440;-1.648080
5.076202;0.005005;-10.359360;0.000000;-1.648080
5.081177;0.004974;-10.830240;-0.235440;-1.765800
5.086182;0.005005;-10.477080;-0.117720;-1.530360
5.091156;0.004974;-10.123920;-0.117720;-1.530360
5.096161;0.005005;-10.241640;-0.235440;-1.765800
5.101135;0.004974;-10.006200;-0.235440;-1.530360
5.106140;0.005005;-10.006200;-0.353160;-1.765800
5.111115;0.004974;-10.006200;-0.117720;-1.883520
5.116119;0.005005;-10.123920;-0.353160;-1.765800
5.121124;0.005005;-10.241640;-0.353160;-1.765800
5.126099;0.004974;-10.123920;-0.353160;-1.648080
5.131104;0.005005;-10.359360;-0.470880;-1.530360
5.136108;0.005005;-10.241640;-0.353160;-1.412640
5.141083;0.004974;-10.241640;-0.353160;-1.412640
5.146088;0.005005;-10.359360;-0.235440;-1.294920
5.151093;0.005005;-10.359360;-0.588600;-1.294920
5.156067;0.004974;-10.594800;-0.235440;-1.294920
5.161072;0.005005;-10.947960;-0.470880;-1.294920
5.166077;0.005005;-10.712520;-0.588600;-1.294920
5.171051;0.004974;-10.947960;-0.706320;-1.177200
5.176056;0.005005;-10.947960;-0.588600;-1.412640
5.181061;0.005005;-10.830240;-0.353160;-1.530360
5.186035;0.004974;-10.712520;-0.706320;-1.412640
5.191040;0.005005;-10.712520;-0.706320;-1.648080
5.196045;0.005005;-10.712520;-0.706320;-1.765800
5.201019;0.004974;-10.594800;-0.941760;-1.530360
5.206024;0.005005;-10.594800;-0.941760;-1.530360
5.210999;0.004974;-10.712520;-1.059480;-1.530360
5.216003;0.005005;-10.830240;-0.824040;-1.412640
5.221008;0.005005;-10.594800;-0.824040;-1.530360
5.225983;0.004974;-10.712520;-0.588600;-1.648080
5.230988;0.005005;-10.830240;-0.353160;-1.412640
5.235992;0.005005;-10.712520;-0.235440;-1.530360
5.240967;0.004974;-10.830240;-0.470880;-1.530360
5.245972;0.005005;-10.947960;-0.706320;-1.412640
5.250946;0.004974;-11.065680;-0.824040;-1.648080
5.255951;0.005005;-11.065680;-0.588600;-1.648080
5.260956;0.005005;-11.301120;-0.824040;-1.648080
5.265930;0.004974;-11.536560;-0.470880;-1.648080
5.270935;0.005005;-11.536560;-0.706320;-1.883520
5.275909;0.004974;-11.654280;-0.824040;-1.883520
5.280914;0.005005;-11.301120;-0.588600;-1.765800
5.285919;0.005005;-11.183400;-0.470880;-1.530360
5.290924;0.005005;-11.418840;-0.824040;-1.530360
5.295898;0.004974;-11.418840;-0.824040;-1.648080
5.300903;0.005005;-11.418840;-1.059480;-1.883520
5.305878;0.004974;-11.536560;-1.294920;-1.765800
5.310883;0.005005;-11.889720;-0.824040;-2.001240
5.315887;0.005005;-11.772000;-0.824040;-1.765800
5.320862;0.004974;-11.772000;-0.941760;-1.883520
5.325867;0.005005;-12.125160;-0.824040;-2.118960
5.330872;0.005005;-12.242880;-0.941760;-2.236680
5.335846;0.004974;-12.596040;-0.706320;-2.001240
5.340851;0.005005;-12.478320;-0.470880;-2.001240
5.345856;0.005005;-12.831480;-0.588600;-2.001240
5.350830;0.004974;-12.949200;-0.706320;-2.354400
5.355835;0.005005;-13.302360;-0.706320;-2.707560
5.360809;0.004974;-13.184640;-0.706320;-2.707560
5.365814;0.005005;-12.831480;-0.353160;-2.589840
5.370819;0.005005;-12.713760;-0.353160;-2.354400
5.375793;0.004974;-12.831480;-0.117720;-2.354400
5.380798;0.005005;-12.831480;0.117720;-2.118960
5.385803;0.005005;-12.713760;0.353160;-2.118960
5.390778;0.004974;-12.478320;0.353160;-2.354400
5.395782;0.005005;-12.360600;0.588600;-2.589840
5.400757;0.004974;-12.242880;0.470880;-2.472120
5.405762;0.005005;-12.125160;0.353160;-2.589840
5.410736;0.004974;-11.772000;0.353160;-2.354400
5.415741;0.005005;-11.654280;0.470880;-2.118960
5.420715;0.004974;-11.654280;0.235440;-2.001240
5.425720;0.005005;-11.301120;0.117720;-1.883520
5.430725;0.005005;-10.712520;0.353160;-2.001240
5.435699;0.004974;-10.477080;0.353160;-2.118960
5.440704;0.005005;-10.241640;0.470880;-2.354400
5.445679;0.004974;-10.123920;0.588600;-2.472120
5.450684;0.005005;-10.006200;0.353160;-2.589840
5.455688;0.005005;-10.006200;0.353160;-2.707560
5.460663;0.004974;-9.888480;0.235440;-2.707560
5.465668;0.005005;-9.888480;0.353160;-2.707560
5.470673;0.005005;-9.653040;0.588600;-2.707560
5.475647;0.004974;-9.770760;0.470880;-2.825280
5.480652;0.005005;-9.535320;0.588600;-2.825280
5.485626;0.004974;-9.535320;0.706320;-3.060720
5.490631;0.005005;-9.299880;0.941760;-2.943000
5.495636;0.005005;-9.182160;1.177200;-2.825280
5.500610;0.004974;-9.182160;1.059480;-2.825280
5.505615;0.005005;-8.946720;1.177200;-2.825280
5.510590;0.004974;-8.946720;1.059480;-3.060720
5.515594;0.005005;-8.711280;0.941760;-2.943000
5.520569;0.004974;-8.829000;0.824040;-2.943000
5.525574;0.005005;-8.711280;0.824040;-2.825280
5.530579;0.005005;-8.829000;0.706320;-2.825280
5.535553;0.004974;-8.593560;0.470880;-2.707560
5.540558;0.005005;-8.593560;0.470880;-2.707560
5.545563;0.005005;-8.475840;0.470880;-2.589840
5.550537;0.004974;-8.358120;0.588600;-2.707560
5.555542;0.005005;-8.475840;0.588600;-2.707560
5.560516;0.004974;-8.475840;0.824040;-2.707560
5.565521;0.005005;-8.711280;0.824040;-2.589840
5.570526;0.005005;-8.829000;0.941760;-2.707560
5.575500;0.004974;-9.064440;1.177200;-2.707560
5.580505;0.005005;-9.064440;1.059480;-2.707560
5.585480;0.004974;-9.182160;1.294920;-2.707560
5.590485;0.005005;-9.417600;1.530360;-2.825280
5.595490;0.005005;-9.770760;1.765800;-2.943000
5.600464;0.004974;-9.653040;1.765800;-2.943000
5.605469;0.005005;-9.770760;2.001240;-2.943000
5.610443;0.004974;-9.888480;1.883520;-2.825280
5.615448;0.005005;-10.006200;1.765800;-2.943000
5.620453;0.005005;-9.888480;1.765800;-2.943000
5.625427;0.004974;-10.006200;1.765800;-2.943000
5.630432;0.005005;-9.888480;1.765800;-2.707560
5.635437;0.005005;-10.006200;1.883520;-2.707560
5.640411;0.004974;-9.770760;1.648080;-2.825280
5.645416;0.005005;-9.888480;1.648080;-2.825280
5.650391;0.004974;-10.006200;1.530360;-2.589840
5.655396;0.005005;-10.006200;1.530360;-2.707560
5.660400;0.005005;-10.006200;1.412640;-2.707560
5.665375;0.004974;-9.770760;1.412640;-2.707560
5.670380;0.005005;-9.770760;1.412640;-2.707560
5.675385;0.005005;-9.653040;1.294920;-2.707560
5.680359;0.004974;-9.535320;1.177200;-2.707560
5.685364;0.005005;-9.535320;0.941760;-2.707560
5.690338;0.004974;-9.535320;0.824040;-2.707560
5.695343;0.005005;-9.535320;0.824040;-2.707560
5.700317;0.004974;-9.653040;0.588600;-2.589840
5.705322;0.005005;-9.653040;0.824040;-2.589840
5.710327;0.005005;-9.770760;0.824040;-2.707560
5.715302;0.004974;-9.417600;0.824040;-2.589840
5.720306;0.005005;-9.535320;0.824040;-2.707560
5.725281;0.004974;-9.417600;0.824040;-2.589840
5.730286;0.005005;-9.653040;0.941760;-2.707560
5.735260;0.004974;-9.770760;0.824040;-2.472120
5.740265;0.005005;-9.770760;0.941760;-2.354400
5.745270;0.005005;-9.770760;0.706320;-2.354400
5.750244;0.004974;-9.653040;0.824040;-2.589840
5.755249;0.005005;-9.535320;0.824040;-2.589840
5.760223;0.004974;-9.535320;0.824040;-2.472120
5.765228;0.005005;-9.417600;0.706320;-2.472120
5.770203;0.004974;-9.653040;0.706320;-2.589840
5.775208;0.005005;-9.535320;0.353160;-2.589840
5.780212;0.005005;-9.535320;0.470880;-2.707560
5.785187;0.004974;-9.535320;0.235440;-2.472120
5.790192;0.005005;-9.299880;0.117720;-2.472120
5.795197;0.005005;-9.535320;0.117720;-2.472120
5.800171;0.004974;-9.417600;0.000000;-2.236680
5.805176;0.005005;-9.653040;0.000000;-2.354400
5.810150;0.004974;-9.653040;0.000000;-2.354400
5.815155;0.005005;-9.535320;0.000000;-2.354400
5.820129;0.004974;-9.299880;0.117720;-2.472120
5.825134;0.005005;-9.299880;0.235440;-2.472120
5.830139;0.005005;-9.182160;0.353160;-2.354400
5.835114;0.004974;-9.064440;0.117720;-2.236680
5.840118;0.005005;-9.064440;0.235440;-2.118960
5.845123;0.005005;-9.064440;0.353160;-2.118960
5.850098;0.004974;-9.299880;0.470880;-2.236680
5.855103;0.005005;-9.299880;0.235440;-2.001240
5.860077;0.004974;-9.182160;0.353160;-2.001240
5.865082;0.005005;-9.653040;0.235440;-2.118960
5.870056;0.004974;-9.653040;0.470880;-2.118960
5.875061;0.005005;-9.888480;0.353160;-2.118960
5.880066;0.005005;-9.653040;0.353160;-2.118960
5.885040;0.004974;-9.888480;0.470880;-2.001240
5.890045;0.005005;-9.770760;0.353160;-2.001240
5.895020;0.004974;-10.006200;0.353160;-1.765800
5.900024;0.005005;-10.123920;0.470880;-1.765800
5.904999;0.004974;-10.359360;0.353160;-2.001240
5.910004;0.005005;-10.594800;0.470880;-1.883520
5.915009;0.005005;-10.830240;0.706320;-2.118960
5.919983;0.004974;-10.830240;0.706320;-2.236680
5.924988;0.005005;-11.065680;0.588600;-2.354400
5.929962;0.004974;-10.830240;0.588600;-2.354400
5.934967;0.005005;-10.947960;0.588600;-2.472120
5.939972;0.005005;-10.947960;0.353160;-2.589840
5.944946;0.004974;-10.830240;0.470880;-2.589840
5.949951;0.005005;-10.594800;0.470880;-2.707560
5.954926;0.004974;-10.477080;0.706320;-2.472120
5.959930;0.005005;-10.477080;0.706320;-2.354400
5.964905;0.004974;-10.594800;0.706320;-2.589840
5.969910;0.005005;-10.359360;0.706320;-2.472120
5.974915;0.005005;-10.359360;0.470880;-2.354400
5.979889;0.004974;-10.123920;0.588600;-2.354400
5.984894;0.005005;-10.006200;0.588600;-2.354400
5.989899;0.005005;-9.770760;0.588600;-2.354400
5.994873;0.004974;-9.770760;0.706320;-2.001240
5.999878;0.005005;-9.653040;0.470880;-1.883520
6.004883;0.005005;-10.006200;0.470880;-1.883520
6.009857;0.004974;-9.888480;0.353160;-1.530360
6.014862;0.005005;-10.359360;0.235440;-0.941760
6.019867;0.005005;-10.477080;0.470880;-0.824040
6.024841;0.004974;-10.712520;0.470880;-0.470880
6.029846;0.005005;-11.536560;0.706320;-0.706320
6.034851;0.005005;-11.536560;0.824040;-0.824040
6.039825;0.004974;-11.772000;0.706320;-0.706320
6.044830;0.005005;-12.007440;0.588600;-0.588600
6.049805;0.004974;-12.125160;0.588600;-0.706320
6.054810;0.005005;-12.242880;0.588600;-1.177200
6.059784;0.004974;-12.242880;0.470880;-1.648080
6.064789;0.005005;-12.242880;0.117720;-2.001240
6.069794;0.005005;-12.360600;-0.117720;-2.001240
6.074768;0.004974;-12.242880;-0.353160;-2.354400
6.079773;0.005005;-12.360600;-0.824040;-2.589840
6.084778;0.005005;-12.242880;-1.294920;-2.943000
6.089752;0.004974;-12.360600;-1.412640;-3.413880
6.094757;0.005005;-12.478320;-1.648080;-3.884760
6.099731;0.004974;-12.713760;-1.765800;-4.237920
6.104736;0.005005;-12.360600;-1.765800;-4.355640
6.109741;0.005005;-12.242880;-1.765800;-4.826520
6.114716;0.004974;-12.125160;-1.765800;-4.944240
6.119720;0.005005;-12.007440;-1.765800;-5.061960
6.124695;0.004974;-11.772000;-1.530360;-5.179680
6.129700;0.005005;-11.301120;-1.177200;-5.179680
6.134674;0.004974;-10.947960;-0.824040;-5.297400
6.139679;0.005005;-10.477080;-0.235440;-5.532840
6.144684;0.005005;-10.241640;-0.117720;-5.179680
6.149689;0.005005;-9.770760;0.353160;-5.297400
6.154663;0.004974;-9.535320;0.588600;-5.061960
6.159637;0.004974;-9.653040;0.941760;-4.826520
6.164642;0.005005;-9.888480;1.059480;-4.591080
6.169617;0.004974;-9.770760;1.059480;-4.473360
6.174622;0.005005;-9.888480;1.294920;-4.708800
6.179626;0.005005;-10.006200;1.530360;-4.591080
6.184601;0.004974;-9.888480;1.412640;-4.355640
6.189606;0.005005;-10.241640;1.177200;-4.355640
6.194611;0.005005;-10.359360;1.059480;-4.355640
6.199585;0.004974;-10.830240;1.177200;-4.002480
6.204590;0.005005;-11.183400;0.588600;-3.884760
6.209564;0.004974;-11.536560;0.353160;-3.531600
6.214569;0.005005;-11.772000;0.353160;-3.296160
6.219574;0.005005;-12.242880;0.235440;-3.060720
6.224548;0.004974;-12.242880;0.000000;-3.060720
6.229553;0.005005;-12.125160;-0.235440;-2.943000
6.234528;0.004974;-12.125160;-0.353160;-2.825280
6.239532;0.005005;-12.007440;-0.353160;-2.825280
6.244537;0.005005;-11.889720;-0.588600;-2.825280
6.249512;0.004974;-11.301120;-0.824040;-2.707560
6.254517;0.005005;-11.065680;-0.470880;-2.825280
6.259491;0.004974;-11.065680;-0.588600;-2.943000
6.264496;0.005005;-10.712520;-0.706320;-2.825280
6.269470;0.004974;-10.477080;-0.706320;-2.707560
6.274475;0.005005;-10.241640;-0.706320;-2.707560
6.279480;0.005005;-9.888480;-0.588600;-2.589840
6.284454;0.004974;-9.888480;-0.824040;-2.589840
6.289459;0.005005;-9.653040;-0.706320;-2.707560
6.294434;0.004974;-9.182160;-1.177200;-2.707560
6.299438;0.005005;-9.299880;-1.412640;-2.707560
6.304413;0.004974;-8.946720;-1.177200;-2.589840
6.309418;0.005005;-8.829000;-0.824040;-2.589840
6.314423;0.005005;-8.946720;-0.588600;-2.589840
6.319397;0.004974;-8.946720;-0.470880;-2.707560
6.324402;0.005005;-8.711280;-0.588600;-2.589840
6.329376;0.004974;-8.829000;-0.235440;-2.707560
6.334381;0.005005;-8.946720;0.000000;-2.707560
6.339386;0.005005;-8.829000;0.117720;-2.825280
6.344360;0.004974;-8.711280;0.117720;-2.825280
6.349365;0.005005;-8.829000;0.353160;-2.589840
6.354340;0.004974;-8.829000;0.824040;-2.589840
6.359344;0.005005;-8.946720;0.824040;-2.707560
6.364349;0.005005;-8.829000;1.059480;-2.472120
6.369324;0.004974;-8.593560;1.294920;-2.589840
6.374329;0.005005;-8.475840;1.412640;-2.589840
6.379303;0.004974;-8.122680;1.177200;-2.707560
6.384308;0.005005;-8.004960;0.941760;-2.707560
6.389313;0.005005;-8.240400;0.824040;-2.472120
6.394287;0.004974;-8.475840;0.470880;-2.472120
6.399323;0.005035;-8.475840;0.470880;-2.354400
6.404266;0.004944;-8.358120;0.588600;-2.354400
6.409271;0.005005;-8.358120;0.470880;-2.472120
6.414276;0.005005;-8.358120;0.353160;-2.472120
6.419250;0.004974;-8.475840;0.588600;-2.589840
6.424255;0.005005;-8.593560;0.706320;-2.472120
6.429230;0.004974;-8.946720;0.706320;-2.354400
6.434235;0.005005;-9.064440;1.177200;-2.354400
6.439240;0.005005;-8.829000;0.941760;-2.354400
6.444214;0.004974;-8.829000;0.706320;-2.472120
6.449219;0.005005;-8.711280;0.941760;-2.354400
6.454193;0.004974;-8.946720;0.824040;-2.589840
6.459198;0.005005;-9.064440;0.824040;-2.472120
6.464203;0.005005;-8.946720;0.941760;-2.354400
6.469177;0.004974;-8.829000;0.941760;-2.236680
6.474182;0.005005;-8.829000;1.059480;-2.236680
6.479156;0.004974;-8.829000;1.177200;-2.236680
6.484161;0.005005;-8.829000;1.177200;-2.118960
6.489136;0.004974;-8.946720;1.059480;-2.118960
6.494141;0.005005;-8.946720;0.824040;-2.236680
6.499115;0.004974;-8.829000;0.824040;-2.001240
6.504120;0.005005;-8.829000;0.824040;-1.883520
6.509094;0.004974;-8.946720;0.941760;-2.118960
6.514099;0.005005;-8.946720;0.706320;-1.883520
6.519104;0.005005;-9.299880;0.588600;-2.001240
6.524078;0.004974;-9.299880;0.588600;-1.883520
6.529083;0.005005;-9.299880;0.706320;-1.883520
6.534088;0.005005;-9.417600;0.235440;-1.883520
6.539062;0.004974;-9.653040;0.235440;-1.883520
6.544067;0.005005;-9.653040;0.235440;-1.883520
6.549042;0.004974;-9.653040;0.235440;-1.765800
6.554047;0.005005;-9.770760;0.353160;-2.001240
6.559052;0.005005;-10.006200;0.470880;-1.883520
6.564026;0.004974;-10.006200;0.353160;-1.648080
6.569031;0.005005;-10.006200;0.353160;-1.412640
6.574005;0.004974;-9.770760;0.235440;-1.648080
6.579010;0.005005;-10.006200;0.000000;-1.530360
6.584015;0.005005;-10.006200;-0.117720;-1.530360
6.588989;0.004974;-10.241640;-0.235440;-1.412640
6.593994;0.005005;-10.359360;-0.353160;-1.294920
6.598999;0.005005;-10.359360;-0.588600;-1.177200
6.603973;0.004974;-10.359360;-0.824040;-1.177200
6.608948;0.004974;-10.594800;-0.706320;-1.294920
6.613953;0.005005;-10.947960;-1.059480;-1.177200
6.618958;0.005005;-10.830240;-1.294920;-1.412640
6.623932;0.004974;-10.830240;-1.412640;-1.177200
6.628937;0.005005;-10.947960;-1.412640;-1.412640
6.633911;0.004974;-11.065680;-1.294920;-1.294920
6.638916;0.005005;-10.947960;-1.294920;-1.412640
6.643890;0.004974;-10.712520;-1.059480;-1.530360
6.648895;0.005005;-10.594800;-0.824040;-1.412640
6.653870;0.004974;-10.712520;-0.470880;-1.412640
6.658875;0.005005;-10.712520;-0.353160;-1.412640
6.663879;0.005005;-10.947960;0.000000;-1.294920
6.668854;0.004974;-10.947960;0.235440;-0.941760
6.673859;0.005005;-10.947960;0.000000;-0.941760
6.678833;0.004974;-11.301120;0.117720;-0.824040
6.683838;0.005005;-11.772000;0.117720;-0.824040
6.688843;0.005005;-11.772000;0.353160;-0.706320
6.693817;0.004974;-12.125160;0.353160;-0.470880
6.698822;0.005005;-12.360600;0.235440;-0.706320
6.703796;0.004974;-12.478320;0.117720;-1.177200
6.708801;0.005005;-13.066920;-0.235440;-1.530360
6.713806;0.005005;-13.302360;-0.588600;-1.765800
6.718781;0.004974;-13.773240;-0.353160;-2.236680
6.723785;0.005005;-14.244120;0.117720;-2.472120
6.728790;0.005005;-14.832720;0.824040;-2.589840
6.733765;0.004974;-15.421320;1.648080;-3.531600
6.738770;0.005005;-15.303600;2.472120;-4.473360
6.743744;0.004974;-15.539040;3.178440;-5.061960
6.748749;0.005005;-15.185880;3.531600;-5.532840
6.753754;0.005005;-14.950440;3.767040;-4.944240
6.758728;0.004974;-14.479560;3.649320;-4.002480
6.763733;0.005005;-13.773240;3.413880;-3.413880
6.768707;0.004974;-12.949200;2.943000;-3.296160
6.773712;0.005005;-11.654280;2.472120;-3.413880
6.778687;0.004974;-10.712520;2.001240;-3.413880
6.783691;0.005005;-10.006200;1.530360;-3.060720
6.788666;0.004974;-9.653040;0.824040;-2.943000
6.793671;0.005005;-9.535320;0.353160;-3.531600
6.798676;0.005005;-9.299880;-0.235440;-4.237920
6.803650;0.004974;-9.182160;-0.588600;-4.473360
6.808655;0.005005;-9.417600;-0.235440;-4.473360
6.813629;0.004974;-9.535320;0.117720;-4.237920
6.818634;0.005005;-9.770760;0.588600;-4.120200
6.823639;0.005005;-10.123920;0.706320;-4.120200
6.828613;0.004974;-10.477080;0.824040;-3.884760
6.833618;0.005005;-10.477080;0.824040;-3.649320
6.838623;0.005005;-10.594800;0.824040;-3.884760
6.843597;0.004974;-10.830240;1.059480;-3.767040
6.848602;0.005005;-11.065680;1.059480;-3.531600
6.853607;0.005005;-10.947960;0.824040;-3.413880
6.858582;0.004974;-10.830240;1.059480;-3.178440
6.863586;0.005005;-10.947960;1.530360;-2.943000
6.868561;0.004974;-10.712520;1.765800;-2.825280
6.873566;0.005005;-10.712520;1.883520;-2.707560
6.878540;0.004974;-10.477080;1.883520;-2.589840
6.883545;0.005005;-10.241640;2.001240;-2.589840
6.888550;0.005005;-10.359360;2.001240;-2.707560
6.893524;0.004974;-10.594800;2.001240;-2.707560
6.898529;0.005005;-10.359360;2.001240;-2.707560
6.903534;0.005005;-10.359360;2.001240;-2.589840
6.908508;0.004974;-10.123920;2.001240;-2.589840
6.913513;0.005005;-10.006200;1.530360;-2.707560
6.918518;0.005005;-9.888480;1.412640;-2.589840
6.923492;0.004974;-9.653040;1.294920;-2.589840
6.928497;0.005005;-9.653040;1.530360;-2.707560
6.933472;0.004974;-9.653040;1.412640;-2.354400
6.938477;0.005005;-9.535320;1.412640;-2.589840
6.943481;0.005005;-9.417600;1.530360;-2.589840
6.948456;0.004974;-8.946720;1.530360;-2.236680
6.953461;0.005005;-8.829000;1.530360;-2.354400
6.958466;0.005005;-8.829000;1.294920;-2.472120
6.963440;0.004974;-8.711280;1.177200;-2.472120
6.968445;0.005005;-8.593560;1.059480;-2.354400
6.973419;0.004974;-8.593560;0.941760;-2.236680
6.978424;0.005005;-8.475840;0.941760;-2.118960
6.983429;0.005005;-8.475840;0.941760;-2.236680
6.988403;0.004974;-8.475840;0.941760;-2.118960
6.993408;0.005005;-8.475840;0.941760;-2.236680
6.998383;0.004974;-8.475840;0.941760;-2.236680
7.003387;0.005005;-8.475840;0.706320;-2.472120
7.008392;0.005005;-8.475840;0.824040;-2.236680
7.013367;0.004974;-8.593560;0.706320;-2.354400
7.018372;0.005005;-8.358120;0.470880;-2.236680
7.023376;0.005005;-8.240400;0.235440;-2.354400
7.028351;0.004974;-8.122680;0.235440;-2.236680
7.033356;0.005005;-8.240400;0.117720;-2.236680
7.038330;0.004974;-8.240400;0.117720;-2.001240
7.043335;0.005005;-8.122680;0.235440;-2.118960
7.048340;0.005005;-7.887240;0.235440;-2.118960
7.053314;0.004974;-8.004960;0.235440;-2.001240
7.058319;0.005005;-8.240400;0.235440;-1.883520
7.063324;0.005005;-8.122680;0.117720;-2.001240
7.068298;0.004974;-8.358120;0.117720;-1.883520
7.073303;0.005005;-8.475840;0.000000;-2.001240
7.078278;0.004974;-9.064440;0.000000;-2.118960
7.083282;0.005005;-9.064440;0.117720;-2.354400
7.088287;0.005005;-9.182160;0.117720;-2.589840
7.093262;0.004974;-9.535320;0.117720;-2.354400
7.098267;0.005005;-9.417600;0.235440;-2.236680
7.103241;0.004974;-9.417600;0.235440;-2.236680
7.108246;0.005005;-9.535320;0.117720;-2.236680
7.113251;0.005005;-9.299880;0.117720;-2.118960
7.118225;0.004974;-9.182160;0.000000;-2.118960
7.123230;0.005005;-9.182160;0.000000;-2.236680
7.128204;0.004974;-9.182160;0.117720;-2.472120
7.133209;0.005005;-9.064440;0.235440;-2.472120
7.138214;0.005005;-9.182160;0.235440;-2.354400
7.143188;0.004974;-9.417600;0.353160;-2.472120
7.148193;0.005005;-9.417600;0.353160;-2.472120
7.153168;0.004974;-9.299880;0.470880;-2.472120
7.158173;0.005005;-9.535320;0.706320;-2.236680
7.163177;0.005005;-9.653040;0.706320;-2.354400
7.168152;0.004974;-9.770760;0.706320;-2.236680
7.173157;0.005005;-9.770760;0.706320;-2.236680
7.178162;0.005005;-10.006200;0.824040;-2.354400
7.183136;0.004974;-10.241640;0.706320;-2.472120
7.188141;0.005005;-10.241640;0.588600;-2.236680
7.193146;0.005005;-10.594800;0.706320;-2.236680
7.198120;0.004974;-10.477080;1.177200;-2.236680
7.203125;0.005005;-10.477080;1.294920;-2.118960
7.208099;0.004974;-10.830240;1.530360;-2.118960
7.213104;0.005005;-10.947960;1.530360;-2.001240
7.218079;0.004974;-10.712520;1.530360;-1.883520
7.223083;0.005005;-10.830240;1.530360;-1.883520
7.228088;0.005005;-11.065680;1.765800;-1.648080
7.233063;0.004974;-10.830240;1.412640;-1.765800
7.238068;0.005005;-10.712520;1.648080;-1.648080
7.243073;0.005005;-10.477080;1.412640;-1.883520
7.248047;0.004974;-10.359360;1.530360;-1.883520
7.253052;0.005005;-10.123920;1.412640;-1.648080
7.258026;0.004974;-10.241640;1.530360;-1.765800
7.263031;0.005005;-9.888480;1.765800;-1.530360
7.268036;0.005005;-9.770760;1.648080;-1.294920
7.273010;0.004974;-9.888480;1.530360;-1.177200
7.278015;0.005005;-9.653040;1.648080;-1.294920
7.282990;0.004974;-9.535320;1.177200;-1.177200
7.287994;0.005005;-9.653040;0.706320;-0.824040
7.292969;0.004974;-9.653040;0.235440;-0.706320
7.297974;0.005005;-10.123920;0.117720;-0.706320
7.302979;0.005005;-10.359360;0.000000;-0.824040
7.307953;0.004974;-10.594800;-0.470880;-1.059480
7.312958;0.005005;-11.065680;-0.235440;-1.294920
7.317963;0.005005;-11.536560;-0.117720;-1.412640
7.322937;0.004974;-11.889720;0.470880;-1.530360
7.327942;0.005005;-12.007440;0.824040;-1.530360
7.332916;0.004974;-12.125160;0.941760;-1.412640
7.337921;0.005005;-12.007440;0.470880;-1.530360
7.342926;0.005005;-12.007440;-0.117720;-1.412640
7.347931;0.005005;-12.242880;-0.470880;-1.765800
7.352905;0.004974;-12.360600;-0.824040;-1.883520
7.357910;0.005005;-12.007440;-0.588600;-2.236680
7.362885;0.004974;-12.242880;-0.353160;-2.825280
7.367889;0.005005;-12.125160;-0.824040;-3.767040
7.372894;0.005005;-11.889720;-1.294920;-4.473360
7.377869;0.004974;-11.772000;-1.530360;-4.708800
7.382874;0.005005;-11.889720;-1.648080;-5.415120
7.387878;0.005005;-12.007440;-1.765800;-5.768280
7.392853;0.004974;-12.125160;-1.765800;-5.886000
7.397858;0.005005;-11.889720;-1.765800;-5.768280
7.402832;0.004974;-12.007440;-1.648080;-5.768280
7.407837;0.005005;-11.889720;-1.530360;-5.768280
7.412842;0.005005;-11.654280;-0.824040;-5.297400
7.417816;0.004974;-11.301120;-0.117720;-5.179680
7.422821;0.005005;-11.418840;0.470880;-4.944240
7.427826;0.005005;-11.536560;0.941760;-4.826520
7.432800;0.004974;-11.536560;1.177200;-4.826520
7.437805;0.005005;-11.772000;1.412640;-4.708800
7.442810;0.005005;-12.007440;1.648080;-4.473360
7.447784;0.004974;-12.478320;1.765800;-4.473360
7.452789;0.005005;-12.713760;1.765800;-4.708800
7.457764;0.004974;-13.184640;1.883520;-4.473360
7.462769;0.005005;-13.302360;1.765800;-4.120200
7.467773;0.005005;-13.655520;1.765800;-3.884760
7.472748;0.004974;-14.008680;1.648080;-3.884760
7.477753;0.005005;-13.890960;0.824040;-3.413880
7.482727;0.004974;-13.773240;0.824040;-3.413880
7.487732;0.005005;-13.537800;0.588600;-3.413880
7.492737;0.005005;-13.302360;0.470880;-3.060720
7.497711;0.004974;-12.831480;0.235440;-3.060720
7.502716;0.005005;-12.478320;0.000000;-2.943000
7.507690;0.004974;-12.007440;-0.353160;-2.825280
7.512695;0.005005;-11.536560;-0.353160;-2.825280
7.517700;0.005005;-11.183400;-0.353160;-2.825280
7.522675;0.004974;-10.594800;-0.706320;-2.707560
7.527679;0.005005;-10.359360;-0.470880;-2.472120
7.532654;0.004974;-9.888480;-0.353160;-2.472120
7.537659;0.005005;-9.417600;-0.117720;-2.472120
7.542664;0.005005;-9.064440;-0.470880;-2.354400
7.547638;0.004974;-8.946720;-0.588600;-2.472120
7.552643;0.005005;-8.946720;-0.235440;-2.118960
7.557617;0.004974;-8.711280;-0.353160;-2.354400
7.562622;0.005005;-8.711280;-0.588600;-2.589840
7.567627;0.005005;-8.475840;-0.235440;-2.589840
7.572601;0.004974;-8.358120;-0.117720;-2.589840
7.577606;0.005005;-8.240400;0.000000;-2.589840
7.582581;0.004974;-8.240400;0.000000;-2.472120
7.587585;0.005005;-8.240400;0.000000;-2.589840
7.592560;0.004974;-8.358120;0.117720;-2.589840
7.597565;0.005005;-8.122680;0.470880;-2.472120
7.602570;0.005005;-8.004960;0.470880;-2.354400
7.607544;0.004974;-8.358120;0.588600;-2.354400
7.612549;0.005005;-8.122680;0.706320;-2.236680
7.617554;0.005005;-8.122680;0.470880;-2.118960
7.622528;0.004974;-7.887240;0.470880;-2.001240
7.627533;0.005005;-7.769520;0.470880;-2.001240
7.632538;0.005005;-7.769520;0.353160;-1.883520
7.637512;0.004974;-7.651800;0.588600;-2.001240
7.642517;0.005005;-7.534080;0.824040;-2.001240
7.647491;0.004974;-7.534080;1.059480;-1.883520
7.652496;0.005005;-7.534080;1.059480;-1.648080
7.657471;0.004974;-7.769520;1.059480;-1.648080
7.662476;0.005005;-7.769520;0.941760;-1.883520
7.667480;0.005005;-7.887240;0.941760;-2.001240
7.672455;0.004974;-7.887240;0.706320;-2.118960
7.677460;0.005005;-7.887240;0.706320;-2.118960
7.682465;0.005005;-8.240400;0.588600;-2.001240
7.687439;0.004974;-8.593560;0.706320;-1.883520
7.692444;0.005005;-8.593560;0.706320;-2.118960
7.697449;0.005005;-8.829000;0.941760;-2.001240
7.702423;0.004974;-8.711280;1.177200;-1.883520
7.707428;0.005005;-8.711280;1.412640;-2.001240
7.712402;0.004974;-9.064440;1.648080;-1.883520
7.717407;0.005005;-9.182160;1.648080;-1.765800
7.722412;0.005005;-9.182160;1.648080;-1.883520
7.727386;0.004974;-9.417600;1.530360;-2.001240
7.732391;0.005005;-9.417600;1.412640;-1.765800
7.737396;0.005005;-9.417600;1.294920;-1.765800
7.742371;0.004974;-9.417600;0.941760;-1.648080
7.747375;0.005005;-9.299880;0.824040;-1.648080
7.752350;0.004974;-9.417600;0.588600;-1.294920
7.757355;0.005005;-9.182160;0.470880;-1.412640
7.762360;0.005005;-9.182160;0.353160;-0.941760
7.767334;0.004974;-9.535320;0.235440;-1.059480
7.772339;0.005005;-9.417600;0.117720;-1.059480
7.777313;0.004974;-9.417600;0.235440;-1.059480
7.782318;0.005005;-9.770760;0.000000;-1.059480
7.787323;0.005005;-10.006200;0.000000;-0.941760
7.792297;0.004974;-10.006200;-0.117720;-0.941760
7.797302;0.005005;-10.006200;0.117720;-0.824040
7.802307;0.005005;-10.241640;0.000000;-1.059480
7.807281;0.004974;-10.006200;0.000000;-1.059480
7.812286;0.005005;-10.359360;-0.353160;-1.059480
7.817291;0.005005;-10.594800;-0.353160;-1.059480
7.822266;0.004974;-11.065680;-0.470880;-1.177200
7.827271;0.005005;-11.065680;-0.353160;-1.294920
7.832245;0.004974;-11.301120;-0.470880;-1.177200
7.837250;0.005005;-11.065680;-0.588600;-1.648080
7.842255;0.005005;-11.301120;-0.470880;-1.765800
7.847229;0.004974;-11.301120;-0.235440;-1.883520
7.852234;0.005005;-11.183400;-0.117720;-2.001240
7.857208;0.004974;-11.183400;0.000000;-1.883520
7.862213;0.005005;-11.301120;0.117720;-1.883520
7.867218;0.005005;-11.654280;0.235440;-1.765800
7.872192;0.004974;-11.889720;0.706320;-1.412640
7.877197;0.005005;-12.242880;0.824040;-0.941760
7.882172;0.004974;-12.478320;0.941760;-0.353160
7.887177;0.005005;-12.831480;0.941760;0.000000
7.892181;0.005005;-12.949200;0.824040;0.000000
7.897156;0.004974;-13.066920;0.706320;0.353160
7.902161;0.005005;-13.302360;0.588600;0.235440
7.907135;0.004974;-13.420080;0.353160;-0.117720
7.912140;0.005005;-13.420080;0.235440;-0.353160
7.917145;0.005005;-13.420080;0.117720;-0.588600
7.922119;0.004974;-13.302360;0.235440;-1.059480
7.927124;0.005005;-13.302360;0.353160;-1.883520
7.932098;0.004974;-13.066920;1.059480;-2.118960
7.937103;0.005005;-13.184640;1.530360;-2.472120
7.942108;0.005005;-12.949200;1.765800;-2.472120
7.947083;0.004974;-13.184640;2.001240;-2.589840
7.952087;0.005005;-13.066920;2.354400;-2.943000
7.957062;0.004974;-13.420080;2.589840;-3.296160
7.962067;0.005005;-13.537800;2.943000;-3.884760
7.967072;0.005005;-13.302360;3.413880;-4.120200
7.972046;0.004974;-12.713760;3.296160;-3.884760
7.977051;0.005005;-12.478320;2.943000;-3.884760
7.982056;0.005005;-12.242880;2.825280;-4.002480
7.987030;0.004974;-12.125160;2.354400;-4.002480
7.992035;0.005005;-11.772000;2.236680;-4.002480
7.997009;0.004974;-11.536560;2.118960;-4.120200
8.002014;0.005005;-11.301120;1.648080;-4.002480
8.007019;0.005005;-10.830240;1.648080;-4.002480
8.011993;0.004974;-10.830240;1.530360;-3.649320
8.016998;0.005005;-10.594800;1.530360;-3.296160
8.021973;0.004974;-10.359360;1.059480;-2.825280
8.026978;0.005005;-10.359360;0.588600;-2.825280
8.031982;0.005005;-10.359360;0.353160;-2.943000
8.036957;0.004974;-10.241640;0.235440;-2.707560
8.041962;0.005005;-10.123920;-0.117720;-2.589840
8.046967;0.005005;-10.123920;-0.235440;-2.707560
8.051941;0.004974;-10.241640;-0.470880;-2.707560
8.056946;0.005005;-10.006200;-0.706320;-2.825280
8.061951;0.005005;-10.241640;-0.706320;-2.825280
8.066925;0.004974;-10.359360;-0.235440;-2.825280
8.071930;0.005005;-10.594800;-0.117720;-2.825280
8.076904;0.004974;-10.947960;0.235440;-2.825280
8.081909;0.005005;-10.947960;0.706320;-2.825280
8.086914;0.005005;-11.065680;0.706320;-2.707560
8.091888;0.004974;-11.418840;0.941760;-2.589840
8.096893;0.005005;-11.301120;1.177200;-2.589840
8.101868;0.004974;-11.418840;1.177200;-2.472120
8.106873;0.005005;-11.301120;1.177200;-2.472120
8.111877;0.005005;-11.065680;1.294920;-2.472120
8.116852;0.004974;-11.065680;1.294920;-2.589840
8.121857;0.005005;-11.065680;0.941760;-2.589840
8.126831;0.004974;-10.830240;0.588600;-2.472120
8.131836;0.005005;-10.594800;0.470880;-2.354400
8.136810;0.004974;-10.477080;0.353160;-2.472120
8.141815;0.005005;-10.241640;0.470880;-2.472120
8.146820;0.005005;-9.888480;0.588600;-2.236680
8.151794;0.004974;-9.417600;0.824040;-2.236680
8.156799;0.005005;-9.182160;1.294920;-2.236680
8.161774;0.004974;-9.182160;1.059480;-2.236680
8.166779;0.005005;-8.829000;1.530360;-2.472120
8.171783;0.005005;-8.593560;1.530360;-2.354400
8.176758;0.004974;-8.358120;1.648080;-2.354400
8.181763;0.005005;-8.240400;1.530360;-2.472120
8.186768;0.005005;-8.122680;1.765800;-2.354400
8.191742;0.004974;-7.887240;1.765800;-2.354400
8.196747;0.005005;-8.004960;1.883520;-2.236680
8.201721;0.004974;-8.358120;1.765800;-2.354400
8.206726;0.005005;-8.240400;1.648080;-2.236680
8.211731;0.005005;-8.240400;1.648080;-2.118960
8.216705;0.004974;-8.240400;1.412640;-2.001240
8.221710;0.005005;-8.122680;1.648080;-2.118960
8.226685;0.004974;-8.122680;1.177200;-2.236680
8.231689;0.005005;-8.004960;0.706320;-2.236680
8.236664;0.004974;-8.122680;0.470880;-2.001240
8.241669;0.005005;-7.887240;0.353160;-2.001240
8.246674;0.005005;-7.769520;0.353160;-1.765800
8.251648;0.004974;-7.769520;0.117720;-1.648080
8.256653;0.005005;-8.004960;0.235440;-1.765800
8.261627;0.004974;-8.004960;-0.117720;-1.765800
8.266632;0.005005;-8.240400;-0.117720;-1.765800
8.271637;0.005005;-8.240400;-0.117720;-1.765800
8.276611;0.004974;-8.593560;-0.117720;-1.765800
8.281616;0.005005;-8.711280;-0.235440;-1.648080
8.286621;0.005005;-8.946720;-0.235440;-1.765800
8.291595;0.004974;-8.946720;-0.706320;-1.648080
8.296600;0.005005;-8.829000;-0.588600;-1.648080
8.301605;0.005005;-9.064440;-0.588600;-1.765800
8.306580;0.004974;-9.064440;-0.470880;-1.765800
8.311584;0.005005;-9.299880;-0.353160;-2.001240
8.316559;0.004974;-9.064440;-0.235440;-2.001240
8.321564;0.005005;-9.182160;-0.235440;-2.001240
8.326538;0.004974;-9.182160;-0.235440;-1.883520
8.331543;0.005005;-9.417600;-0.117720;-1.765800
8.336548;0.005005;-9.535320;0.000000;-1.765800
8.341522;0.004974;-9.653040;0.117720;-1.648080
8.346527;0.005005;-9.653040;0.117720;-2.001240
8.351501;0.004974;-9.653040;0.235440;-2.001240
8.356506;0.005005;-9.653040;0.353160;-2.001240
8.361481;0.004974;-9.653040;0.470880;-2.001240
8.366486;0.005005;-9.770760;0.588600;-1.765800
8.371460;0.004974;-9.770760;0.470880;-1.765800
8.376465;0.005005;-9.770760;0.470880;-2.001240
8.381439;0.004974;-9.770760;0.353160;-1.883520
8.386444;0.005005;-9.888480;0.470880;-1.765800
8.391449;0.005005;-10.123920;0.470880;-1.765800
8.396423;0.004974;-10.241640;0.470880;-1.765800
8.401428;0.005005;-10.241640;0.235440;-1.765800
8.406433;0.005005;-10.006200;0.235440;-1.530360
8.411407;0.004974;-10.006200;0.235440;-1.412640
8.416412;0.005005;-9.888480;0.235440;-1.530360
8.421387;0.004974;-10.359360;0.235440;-1.765800
8.426392;0.005005;-10.594800;0.235440;-1.883520
8.431396;0.005005;-10.477080;0.235440;-1.883520
8.436371;0.004974;-10.359360;0.353160;-1.883520
8.441376;0.005005;-10.006200;0.706320;-1.648080
8.446381;0.005005;-9.888480;0.470880;-1.765800
8.451355;0.004974;-9.888480;0.353160;-1.648080
8.456360;0.005005;-9.888480;0.470880;-1.648080
8.461365;0.005005;-10.123920;0.235440;-1.059480
8.466339;0.004974;-10.123920;0.117720;-0.941760
8.471344;0.005005;-10.123920;0.235440;-0.706320
8.476318;0.004974;-10.359360;0.117720;-0.706320
8.481323;0.005005;-10.477080;0.353160;-0.588600
8.486298;0.004974;-11.065680;0.470880;-0.470880
8.491302;0.005005;-11.183400;0.470880;-0.588600
8.496277;0.004974;-11.301120;0.353160;-0.588600
8.501282;0.005005;-11.772000;0.470880;-1.059480
8.506287;0.005005;-12.007440;0.470880;-1.294920
8.511261;0.004974;-12.242880;0.235440;-1.177200
8.516266;0.005005;-12.596040;0.117720;-1.412640
8.521271;0.005005;-12.713760;-0.470880;-1.530360
8.526245;0.004974;-13.184640;-1.177200;-1.648080
8.531250;0.005005;-13.420080;-1.530360;-2.001240
8.536224;0.004974;-13.773240;-1.648080;-2.354400
8.541229;0.005005;-13.773240;-1.765800;-2.589840
8.546234;0.005005;-13.655520;-1.765800;-3.060720
8.551208;0.004974;-13.773240;-1.765800;-3.767040
8.556213;0.005005;-13.537800;-1.765800;-4.237920
8.561188;0.004974;-13.184640;-1.765800;-4.591080
8.566193;0.005005;-12.949200;-1.765800;-4.944240
8.571198;0.005005;-12.713760;-1.412640;-4.944240
8.576172;0.004974;-12.360600;-1.059480;-5.061960
8.581177;0.005005;-12.125160;-0.353160;-5.061960
8.586151;0.004974;-11.301120;-0.117720;-4.944240
8.591156;0.005005;-10.830240;0.117720;-5.297400
8.596161;0.005005;-10.477080;0.470880;-5.061960
8.601135;0.004974;-10.241640;0.706320;-5.415120
8.606140;0.005005;-10.123920;0.706320;-5.650560
8.611115;0.004974;-10.123920;1.059480;-5.768280
8.616119;0.005005;-10.241640;1.294920;-5.415120
8.621124;0.005005;-10.359360;1.412640;-5.179680
8.626099;0.004974;-10.477080;1.412640;-4.944240
8.631104;0.005005;-10.830240;1.530360;-5.061960
8.636108;0.005005;-11.301120;1.530360;-4.708800
8.641083;0.004974;-11.772000;1.648080;-4.708800
8.646088;0.005005;-12.242880;1.412640;-4.473360
8.651062;0.004974;-12.596040;1.294920;-4.120200
8.656067;0.005005;-12.831480;1.059480;-3.649320
8.661072;0.005005;-13.302360;0.941760;-3.649320
8.666046;0.004974;-13.655520;0.588600;-3.178440
8.671051;0.005005;-13.773240;0.470880;-3.060720
8.676025;0.004974;-13.655520;0.235440;-2.943000
8.681030;0.005005;-13.420080;0.117720;-2.825280
8.686035;0.005005;-13.184640;-0.117720;-2.707560
8.691010;0.004974;-12.713760;-0.117720;-2.589840
8.696014;0.005005;-12.242880;-0.235440;-2.472120
8.700989;0.004974;-11.654280;0.000000;-2.589840
8.705994;0.005005;-11.065680;0.000000;-2.472120
8.710999;0.005005;-10.594800;-0.117720;-2.354400
8.715973;0.004974;-10.241640;-0.117720;-2.354400
8.720978;0.005005;-9.770760;-0.117720;-2.472120
8.725952;0.004974;-9.417600;-0.117720;-2.472120
8.730957;0.005005;-9.417600;-0.235440;-2.354400
8.735962;0.005005;-9.417600;-0.470880;-2.472120
8.740936;0.004974;-8.946720;-0.470880;-2.472120
8.745941;0.005005;-8.711280;-0.588600;-2.236680
8.750916;0.004974;-8.475840;-0.470880;-2.354400
8.755920;0.005005;-8.829000;-0.235440;-2.354400
8.760925;0.005005;-8.475840;-0.470880;-2.354400
8.765900;0.004974;-8.475840;-0.353160;-2.472120
8.770905;0.005005;-8.593560;0.000000;-2.472120
8.775879;0.004974;-8.475840;0.000000;-2.354400
8.780884;0.005005;-8.711280;0.000000;-2.236680
8.785858;0.004974;-8.593560;0.117720;-2.118960
8.790863;0.005005;-8.122680;0.470880;-2.001240
8.795837;0.004974;-8.122680;0.353160;-1.765800
8.800842;0.005005;-8.122680;0.706320;-1.883520
8.805847;0.005005;-8.004960;0.824040;-2.001240
8.810822;0.004974;-7.769520;1.059480;-1.883520
8.815826;0.005005;-7.769520;1.412640;-1.648080
8.820801;0.004974;-7.651800;1.294920;-1.648080
8.825806;0.005005;-7.534080;1.294920;-2.001240
8.830811;0.005005;-7.651800;1.648080;-1.883520
8.835785;0.004974;-7.887240;1.648080;-1.883520
8.840790;0.005005;-8.004960;1.648080;-1.765800
8.845764;0.004974;-8.240400;1.648080;-1.765800
8.850769;0.005005;-8.004960;1.177200;-1.648080
8.855743;0.004974;-8.122680;1.177200;-1.648080
8.860748;0.005005;-8.122680;1.059480;-1.883520
8.865753;0.005005;-8.240400;1.294920;-1.765800
8.870728;0.004974;-8.358120;1.412640;-1.530360
8.875732;0.005005;-8.711280;1.177200;-1.530360
8.880707;0.004974;-8.593560;1.177200;-1.530360
8.885712;0.005005;-8.593560;0.824040;-1.648080
8.890717;0.005005;-8.593560;1.059480;-1.648080
8.895691;0.004974;-8.475840;0.941760;-1.765800
8.900696;0.005005;-8.475840;0.941760;-1.765800
8.905670;0.004974;-8.593560;0.941760;-1.883520
8.910675;0.005005;-8.711280;0.588600;-1.765800
8.915649;0.004974;-8.593560;0.824040;-1.648080
8.920654;0.005005;-8.829000;0.941760;-1.648080
8.925659;0.005005;-8.829000;0.941760;-1.530360
8.930634;0.004974;-8.593560;0.706320;-1.648080
8.935638;0.005005;-8.711280;0.706320;-1.530360
8.940643;0.005005;-8.946720;0.706320;-1.412640
8.945618;0.004974;-9.064440;0.470880;-1.412640
8.950623;0.005005;-9.182160;0.470880;-1.294920
8.955597;0.004974;-9.064440;0.470880;-1.294920
8.960602;0.005005;-9.417600;0.235440;-1.177200
8.965607;0.005005;-9.535320;0.117720;-0.941760
8.970581;0.004974;-9.299880;0.117720;-0.941760
8.975586;0.005005;-9.299880;0.117720;-1.177200
8.980560;0.004974;-9.182160;-0.353160;-1.177200
8.985565;0.005005;-9.535320;-0.353160;-0.824040
8.990570;0.005005;-9.653040;-0.235440;-0.588600
8.995544;0.004974;-9.888480;-0.470880;-0.588600
9.000549;0.005005;-9.888480;-0.824040;-0.824040
9.005524;0.004974;-9.888480;-0.824040;-0.706320
9.010529;0.005005;-10.241640;-1.177200;-0.824040
9.015503;0.004974;-10.241640;-1.294920;-0.470880
9.020508;0.005005;-10.359360;-1.294920;-0.588600
9.025513;0.005005;-10.359360;-1.412640;-0.824040
9.030487;0.004974;-10.477080;-1.412640;-1.059480
9.035492;0.005005;-10.594800;-1.648080;-1.294920
9.040497;0.005005;-10.712520;-1.648080;-1.294920
9.045471;0.004974;-10.712520;-1.765800;-1.294920
9.050476;0.005005;-10.477080;-1.294920;-1.530360
9.055450;0.004974;-10.594800;-0.941760;-1.530360
9.060455;0.005005;-10.947960;-0.470880;-1.412640
9.065430;0.004974;-11.418840;-0.353160;-1.294920
9.070435;0.005005;-11.536560;-0.117720;-1.059480
9.075409;0.004974;-12.007440;0.000000;-0.706320
9.080414;0.005005;-12.360600;0.000000;-0.117720
9.085419;0.005005;-12.949200;0.000000;0.000000
9.090393;0.004974;-13.420080;0.000000;0.117720
9.095398;0.005005;-13.655520;-0.117720;0.235440
9.100372;0.004974;-14.008680;0.000000;0.470880
9.105377;0.005005;-14.361840;-0.235440;0.353160
9.110382;0.005005;-14.479560;-0.117720;-0.117720
9.115356;0.004974;-14.715000;0.000000;-0.353160
9.120361;0.005005;-14.361840;0.235440;-1.059480
9.125366;0.005005;-14.244120;0.470880;-1.883520
9.130341;0.004974;-13.537800;0.941760;-2.589840
9.135345;0.005005;-13.420080;1.412640;-3.413880
9.140350;0.005005;-13.890960;1.765800;-4.002480
9.145325;0.004974;-14.126400;2.472120;-3.884760
9.150330;0.005005;-14.008680;3.060720;-3.413880
9.155304;0.004974;-13.890960;3.413880;-3.060720
9.160309;0.005005;-13.655520;3.649320;-3.884760
9.165314;0.005005;-13.773240;3.649320;-4.237920
9.170288;0.004974;-13.066920;3.767040;-4.591080
9.175293;0.005005;-12.949200;3.649320;-4.473360
9.180267;0.004974;-12.596040;3.296160;-4.002480
9.185272;0.005005;-12.007440;2.589840;-4.120200
9.190277;0.005005;-11.889720;2.001240;-4.355640
9.195282;0.005005;-11.183400;1.412640;-4.473360
9.200256;0.004974;-10.830240;0.824040;-4.473360
9.205261;0.005005;-10.830240;0.824040;-4.355640
9.210266;0.005005;-10.830240;0.706320;-4.355640
9.215240;0.004974;-10.947960;0.588600;-4.237920
9.220245;0.005005;-10.712520;0.588600;-4.473360
9.225250;0.005005;-10.712520;0.588600;-4.355640
9.230225;0.004974;-10.830240;0.588600;-4.237920
9.235229;0.005005;-11.418840;0.588600;-4.237920
9.240234;0.005005;-11.536560;0.706320;-4.473360
9.245209;0.004974;-11.418840;0.824040;-4.120200
9.250214;0.005005;-11.536560;0.824040;-3.884760
9.255188;0.004974;-11.654280;0.941760;-3.649320
9.260193;0.005005;-11.536560;1.177200;-3.413880
9.265198;0.005005;-11.536560;1.530360;-3.060720
9.270172;0.004974;-11.418840;1.765800;-2.943000
9.275177;0.005005;-11.418840;1.883520;-2.707560
9.280151;0.004974;-11.536560;1.883520;-2.707560
9.285156;0.005005;-11.418840;1.883520;-2.707560
9.290161;0.005005;-11.183400;1.883520;-2.707560
9.295166;0.005005;-10.947960;1.883520;-2.707560
9.300140;0.004974;-10.830240;1.883520;-2.589840
9.305145;0.005005;-10.830240;1.883520;-2.472120
9.310120;0.004974;-10.477080;1.883520;-2.589840
9.315125;0.005005;-10.123920;1.883520;-2.589840
9.320129;0.005005;-10.006200;1.648080;-2.472120
9.325104;0.004974;-9.770760;1.765800;-2.472120
9.330109;0.005005;-9.653040;1.648080;-2.354400
9.335083;0.004974;-9.417600;1.530360;-2.825280
9.340088;0.005005;-9.299880;1.412640;-2.707560
9.345062;0.004974;-8.946720;1.648080;-2.472120
9.350067;0.005005;-8.946720;1.648080;-2.236680
9.355042;0.004974;-8.946720;1.648080;-2.236680
9.360046;0.005005;-8.829000;1.648080;-2.354400
9.365051;0.005005;-8.593560;1.530360;-2.236680
9.370026;0.004974;-8.593560;1.530360;-2.354400
9.375031;0.005005;-8.475840;1.294920;-2.236680
9.380035;0.005005;-8.358120;1.294920;-2.236680
9.385010;0.004974;-8.240400;1.177200;-2.118960
9.390015;0.005005;-8.475840;0.824040;-2.236680
9.395020;0.005005;-8.240400;0.706320;-2.118960
9.399994;0.004974;-8.240400;0.470880;-2.118960
9.404999;0.005005;-8.240400;0.235440;-2.118960
9.409973;0.004974;-8.122680;0.235440;-2.001240
9.414978;0.005005;-8.240400;-0.117720;-1.883520
9.419983;0.005005;-8.004960;-0.117720;-2.001240
9.424957;0.004974;-8.004960;-0.235440;-2.001240
9.429962;0.005005;-8.004960;-0.706320;-1.765800
9.434937;0.004974;-8.004960;-0.824040;-1.765800
9.439941;0.005005;-8.122680;-0.588600;-1.765800
9.444916;0.004974;-8.240400;-0.588600;-1.765800
9.449921;0.005005;-8.122680;-0.353160;-2.001240
9.454926;0.005005;-7.887240;-0.353160;-2.001240
9.459900;0.004974;-8.004960;-0.588600;-2.236680
9.464905;0.005005;-7.887240;-0.235440;-1.883520
9.469910;0.005005;-8.122680;-0.470880;-2.118960
9.474884;0.004974;-8.240400;-0.353160;-2.118960
9.479889;0.005005;-8.593560;-0.235440;-2.001240
9.484894;0.005005;-8.829000;-0.235440;-2.001240
9.489868;0.004974;-8.829000;-0.117720;-2.001240
9.494873;0.005005;-8.946720;-0.235440;-2.236680
9.499847;0.004974;-8.946720;-0.235440;-2.118960
9.504852;0.005005;-9.182160;-0.235440;-2.118960
9.509857;0.005005;-9.417600;-0.470880;-2.118960
9.514832;0.004974;-9.417600;-0.353160;-2.118960
9.519836;0.005005;-9.299880;-0.353160;-2.118960
9.524841;0.005005;-9.299880;-0.353160;-2.236680
9.529816;0.004974;-9.064440;-0.470880;-2.236680
9.534821;0.005005;-8.946720;-0.353160;-2.236680
9.539795;0.004974;-9.064440;-0.117720;-1.883520
9.544800;0.005005;-8.946720;0.000000;-1.883520
9.549774;0.004974;-9.064440;0.235440;-1.883520
9.554779;0.005005;-9.064440;0.117720;-1.883520
9.559753;0.004974;-9.182160;0.235440;-1.648080
9.564758;0.005005;-9.299880;0.117720;-1.648080
9.569763;0.005005;-9.299880;0.117720;-1.648080
9.574738;0.004974;-9.535320;0.353160;-1.530360
9.579742;0.005005;-9.888480;0.470880;-1.765800
9.584717;0.004974;-10.123920;0.706320;-1.765800
9.589722;0.005005;-10.359360;0.824040;-1.648080
9.594696;0.004974;-10.712520;0.706320;-1.765800
9.599701;0.005005;-10.594800;1.059480;-1.530360
9.604706;0.005005;-10.359360;1.294920;-1.648080
9.609680;0.004974;-10.477080;1.412640;-1.294920
9.614685;0.005005;-10.594800;1.294920;-1.648080
9.619690;0.005005;-10.712520;1.412640;-1.765800
9.624664;0.004974;-10.477080;1.530360;-1.648080
9.629669;0.005005;-10.712520;1.412640;-2.001240
9.634644;0.004974;-10.594800;1.412640;-2.001240
9.639648;0.005005;-10.477080;1.294920;-2.118960
9.644623;0.004974;-10.359360;1.177200;-2.118960
9.649628;0.005005;-10.241640;1.059480;-2.118960
9.654633;0.005005;-10.241640;1.177200;-1.883520
9.659607;0.004974;-9.888480;1.412640;-1.648080
9.664612;0.005005;-9.770760;1.177200;-1.530360
9.669586;0.004974;-9.653040;1.294920;-1.294920
9.674591;0.005005;-9.770760;1.059480;-0.941760
9.679565;0.004974;-10.006200;0.941760;-0.824040
9.684570;0.005005;-10.241640;1.177200;-0.941760
9.689545;0.004974;-10.712520;1.294920;-0.706320
9.694550;0.005005;-11.183400;1.412640;-0.588600
9.699554;0.005005;-11.418840;1.059480;-0.470880
9.704529;0.004974;-11.889720;0.824040;-0.706320
9.709534;0.005005;-12.242880;0.706320;-0.588600
9.714508;0.004974;-12.360600;0.706320;-0.706320
9.719513;0.005005;-12.713760;0.588600;-0.824040
9.724487;0.004974;-12.949200;0.353160;-0.824040
9.729492;0.005005;-12.831480;0.117720;-0.706320
9.734467;0.004974;-13.066920;-0.706320;-0.941760
9.739471;0.005005;-13.655520;-1.294920;-1.177200
9.744446;0.004974;-14.008680;-2.001240;-1.412640
9.749451;0.005005;-14.126400;-2.001240;-1.765800
9.754456;0.005005;-14.126400;-2.001240;-2.118960
9.759430;0.004974;-14.008680;-1.883520;-2.589840
9.764435;0.005005;-13.655520;-1.883520;-3.296160
9.769409;0.004974;-13.184640;-1.648080;-3.884760
9.774414;0.005005;-12.831480;-1.765800;-4.237920
9.779419;0.005005;-12.360600;-1.412640;-4.591080
9.784393;0.004974;-12.125160;-1.530360;-4.826520
9.789398;0.005005;-11.654280;-0.941760;-5.061960
9.794403;0.005005;-11.418840;-0.706320;-5.179680
9.799377;0.004974;-10.947960;-0.353160;-5.532840
9.804382;0.005005;-10.477080;-0.235440;-5.650560
9.809357;0.004974;-10.006200;-0.117720;-5.415120
9.814362;0.005005;-9.888480;-0.353160;-5.415120
9.819366;0.005005;-9.653040;-0.117720;-5.768280
9.824341;0.004974;-9.770760;0.117720;-5.532840
9.829346;0.005005;-9.888480;0.235440;-5.297400
9.834351;0.005005;-10.359360;0.117720;-5.061960
9.839325;0.004974;-10.477080;0.470880;-4.826520
9.844330;0.005005;-10.947960;0.824040;-4.708800
9.849335;0.005005;-11.772000;0.706320;-4.591080
9.854309;0.004974;-12.007440;0.588600;-4.473360
9.859314;0.005005;-12.360600;1.059480;-4.355640
9.864288;0.004974;-12.713760;1.294920;-3.884760
9.869293;0.005005;-12.949200;1.412640;-3.767040
9.874298;0.005005;-13.302360;1.412640;-3.531600
9.879303;0.005005;-13.302360;0.941760;-3.178440
9.884277;0.004974;-13.066920;0.941760;-2.943000
9.889282;0.005005;-12.949200;0.706320;-2.825280
9.894257;0.004974;-12.596040;0.588600;-2.825280
9.899261;0.005005;-12.242880;0.470880;-2.943000
9.904266;0.005005;-12.125160;0.353160;-2.943000
9.909241;0.004974;-11.536560;0.353160;-2.825280
9.914246;0.005005;-11.183400;0.235440;-2.825280
9.919220;0.004974;-10.830240;0.235440;-2.825280
9.924225;0.005005;-10.359360;0.117720;-2.707560
9.929199;0.004974;-10.123920;0.117720;-2.472120
9.934204;0.005005;-10.241640;0.000000;-2.472120
9.939209;0.005005;-9.888480;-0.353160;-2.589840
9.944183;0.004974;-9.653040;-0.353160;-2.589840
9.949188;0.005005;-9.417600;-0.588600;-2.472120
9.954193;0.005005;-9.064440;-0.824040;-2.589840
9.959167;0.004974;-8.711280;-0.941760;-2.589840
9.964172;0.005005;-8.475840;-0.941760;-2.589840
9.969177;0.005005;-8.240400;-1.059480;-2.589840
9.974152;0.004974;-8.240400;-0.824040;-2.589840
9.979156;0.005005;-8.358120;-0.824040;-2.589840
9.984161;0.005005;-8.358120;-0.706320;-2.589840
9.989166;0.005005;-8.475840;-0.470880;-2.707560
9.994141;0.004974;-8.711280;-0.235440;-2.707560
9.999146;0.005005;-8.593560;0.000000;-2.589840
10.004120;0.004974;-8.475840;0.000000;-2.589840
10.009125;0.005005;-8.475840;0.235440;-2.707560
10.014099;0.004974;-8.240400;0.353160;-2.589840
10.019104;0.005005;-8.122680;0.706320;-2.472120
10.024109;0.005005;-8.122680;0.941760;-2.118960
10.029083;0.004974;-8.004960;1.059480;-2.236680
10.034088;0.005005;-7.769520;1.177200;-2.236680
10.039093;0.005005;-7.887240;1.294920;-2.236680
10.044067;0.004974;-7.769520;1.530360;-1.765800
10.049072;0.005005;-7.534080;1.412640;-1.883520
10.054047;0.004974;-7.769520;1.177200;-2.236680
10.059052;0.005005;-7.651800;1.177200;-2.118960
10.064056;0.005005;-7.416360;1.177200;-2.001240
10.069031;0.004974;-7.416360;1.059480;-2.001240
10.074036;0.005005;-7.298640;0.588600;-1.883520
10.079010;0.004974;-7.651800;0.470880;-1.648080
10.084015;0.005005;-7.887240;0.470880;-1.765800
10.088989;0.004974;-7.887240;0.706320;-1.765800
10.093994;0.005005;-8.122680;0.706320;-1.648080
10.098999;0.005005;-8.122680;0.588600;-1.648080
10.103973;0.004974;-8.004960;0.706320;-1.765800
10.108978;0.005005;-8.240400;0.706320;-1.530360
10.113953;0.004974;-8.122680;0.588600;-1.530360
10.118958;0.005005;-8.358120;0.706320;-1.530360
10.123962;0.005005;-8.475840;0.824040;-1.412640
10.128967;0.005005;-8.358120;0.588600;-1.765800
10.133942;0.004974;-8.240400;0.706320;-1.765800
10.138947;0.005005;-8.358120;0.706320;-1.648080
10.143921;0.004974;-8.475840;0.941760;-1.648080
10.148926;0.005005;-8.593560;0.706320;-1.765800
10.153900;0.004974;-8.711280;0.470880;-1.765800
10.158905;0.005005;-8.711280;0.353160;-1.648080
10.163879;0.004974;-9.064440;0.353160;-1.648080
10.168884;0.005005;-9.417600;0.235440;-1.412640
10.173889;0.005005;-9.535320;0.117720;-1.648080
10.178864;0.004974;-9.653040;-0.235440;-1.765800
10.183868;0.005005;-10.006200;-0.117720;-1.648080
10.188843;0.004974;-10.123920;-0.235440;-1.648080
10.193848;0.005005;-10.359360;-0.353160;-1.412640
10.198853;0.005005;-10.477080;-0.706320;-1.294920
10.203827;0.004974;-10.712520;-0.706320;-1.059480
10.208832;0.005005;-10.594800;-0.941760;-1.177200
10.213837;0.005005;-10.712520;-1.294920;-1.059480
10.218811;0.004974;-10.830240;-1.412640;-0.941760
10.223816;0.005005;-10.830240;-1.530360;-0.941760
10.228790;0.004974;-11.065680;-1.059480;-0.706320
10.233795;0.005005;-11.183400;-0.941760;-0.824040
10.238800;0.005005;-11.065680;-1.059480;-0.941760
10.243774;0.004974;-10.830240;-0.706320;-1.177200
10.248779;0.005005;-11.065680;-0.706320;-1.177200
10.253784;0.005005;-10.830240;-1.059480;-0.941760
10.258759;0.004974;-10.712520;-0.588600;-0.824040
10.263763;0.005005;-10.594800;-0.470880;-0.824040
10.268738;0.004974;-10.594800;-0.353160;-1.177200
10.273743;0.005005;-10.594800;-0.235440;-1.412640
10.278748;0.005005;-10.477080;-0.117720;-1.177200
10.283722;0.004974;-10.594800;-0.117720;-1.294920
10.288727;0.005005;-10.830240;0.000000;-1.177200
10.293732;0.005005;-11.065680;0.117720;-1.177200
10.298706;0.004974;-11.418840;0.235440;-0.941760
10.303711;0.005005;-11.654280;0.235440;-1.412640
10.308716;0.005005;-11.889720;0.000000;-0.941760
10.313690;0.004974;-12.125160;0.000000;-0.588600
10.318695;0.005005;-12.478320;0.000000;-0.353160
10.323700;0.005005;-12.831480;-0.588600;-0.235440
10.328674;0.004974;-13.184640;-0.706320;-0.117720
10.333679;0.005005;-13.420080;-0.941760;0.000000
10.338654;0.004974;-13.773240;-1.059480;0.117720
10.343658;0.005005;-14.126400;-0.941760;0.000000
10.348633;0.004974;-14.597280;-0.706320;-0.706320
10.353638;0.005005;-14.832720;-0.353160;-1.412640
10.358643;0.005005;-14.597280;0.824040;-2.118960
10.363617;0.004974;-14.361840;1.412640;-2.943000
10.368622;0.005005;-14.008680;2.236680;-4.355640
10.373627;0.005005;-14.244120;3.060720;-4.944240
10.378601;0.004974;-14.479560;3.649320;-4.473360
10.383606;0.005005;-14.950440;3.767040;-3.649320
10.388580;0.004974;-14.950440;3.884760;-3.060720
10.393585;0.005005;-14.479560;4.002480;-2.825280
10.398560;0.004974;-13.773240;3.767040;-3.296160
10.403564;0.005005;-12.831480;3.649320;-4.002480
10.408569;0.005005;-11.536560;2.943000;-4.120200
10.413544;0.004974;-10.830240;2.472120;-3.413880
10.418549;0.005005;-10.359360;2.001240;-3.060720
10.423523;0.004974;-10.006200;1.765800;-3.413880
10.428528;0.005005;-10.006200;1.530360;-3.884760
10.433533;0.005005;-10.006200;1.177200;-4.237920
10.438507;0.004974;-9.888480;0.824040;-4.002480
10.443512;0.005005;-9.888480;0.706320;-4.002480
10.448517;0.005005;-9.888480;1.059480;-3.884760
10.453491;0.004974;-10.006200;0.706320;-4.002480
10.458496;0.005005;-10.123920;0.588600;-4.120200
10.463470;0.004974;-10.359360;0.941760;-4.002480
10.468475;0.005005;-10.712520;0.824040;-3.767040
10.473480;0.005005;-10.712520;0.941760;-3.767040
10.478455;0.004974;-10.830240;0.941760;-3.649320
10.483459;0.005005;-11.418840;1.059480;-3.531600
10.488464;0.005005;-11.418840;1.177200;-3.296160
10.493439;0.004974;-11.654280;1.530360;-3.531600
10.498444;0.005005;-11.772000;1.765800;-3.296160
10.503418;0.004974;-12.007440;1.883520;-3.060720
10.508423;0.005005;-12.125160;1.765800;-2.943000
10.513397;0.004974;-12.242880;2.118960;-2.943000
10.518402;0.005005;-12.007440;2.118960;-2.943000
10.523407;0.005005;-11.772000;2.001240;-2.943000
10.528381;0.004974;-11.301120;2.001240;-2.825280
10.533386;0.005005;-11.183400;2.001240;-2.943000
10.538361;0.004974;-10.830240;2.001240;-2.825280
10.543365;0.005005;-10.712520;2.001240;-2.825280
10.548370;0.005005;-10.477080;2.001240;-2.943000
10.553345;0.004974;-10.241640;2.001240;-2.825280
10.558350;0.005005;-10.006200;2.118960;-2.825280
10.563324;0.004974;-9.888480;1.765800;-2.707560
10.568329;0.005005;-10.006200;1.765800;-2.707560
10.573303;0.004974;-9.770760;1.412640;-2.707560
10.578308;0.005005;-9.535320;1.530360;-2.707560
10.583313;0.005005;-9.182160;1.530360;-2.707560
10.588287;0.004974;-9.064440;1.765800;-2.354400
10.593292;0.005005;-8.946720;1.765800;-2.707560
10.598297;0.005005;-8.946720;1.765800;-2.707560
10.603271;0.004974;-8.593560;1.648080;-2.472120
10.608276;0.005005;-8.475840;1.648080;-2.472120
10.613281;0.005005;-8.475840;1.530360;-2.472120
10.618256;0.004974;-8.711280;1.412640;-2.589840
10.623260;0.005005;-8.593560;1.294920;-2.354400
10.628265;0.005005;-8.475840;1.177200;-2.236680
10.633240;0.004974;-8.240400;0.824040;-2.236680
10.638245;0.005005;-8.004960;0.588600;-2.354400
10.643250;0.005005;-7.887240;0.353160;-2.354400
10.648224;0.004974;-7.651800;0.470880;-2.354400
10.653229;0.005005;-7.534080;0.235440;-2.354400
10.658203;0.004974;-7.534080;0.117720;-2.354400
10.663208;0.005005;-7.416360;0.117720;-2.118960
10.668213;0.005005;-7.298640;0.117720;-2.236680
10.673187;0.004974;-6.945480;0.117720;-2.001240
10.678192;0.005005;-6.710040;0.117720;-1.530360
10.683167;0.004974;-6.710040;0.117720;-1.530360
10.688171;0.005005;-6.592320;0.000000;-1.648080
10.693146;0.004974;-6.827760;-0.235440;-1.883520
10.698151;0.005005;-7.063200;-0.235440;-1.883520
10.703156;0.005005;-7.063200;-0.706320;-1.765800
10.708130;0.004974;-7.180920;-0.941760;-1.648080
10.713135;0.005005;-7.416360;-0.941760;-1.883520
10.718109;0.004974;-7.534080;-1.177200;-1.883520
10.723114;0.005005;-7.887240;-1.412640;-2.001240
10.728088;0.004974;-7.887240;-1.648080;-1.883520
10.733093;0.005005;-8.004960;-1.765800;-1.883520
10.738098;0.005005;-8.004960;-1.765800;-1.765800
10.743073;0.004974;-8.240400;-1.765800;-1.648080
10.748077;0.005005;-8.122680;-1.765800;-1.530360
10.753082;0.005005;-8.122680;-1.648080;-1.412640
10.758057;0.004974;-8.475840;-1.765800;-1.177200
10.763062;0.005005;-8.593560;-1.530360;-1.294920
10.768036;0.004974;-8.593560;-1.530360;-1.177200
10.773041;0.005005;-8.475840;-1.177200;-1.294920
10.778046;0.005005;-8.593560;-1.177200;-1.294920
10.783020;0.004974;-8.829000;-0.824040;-1.294920
10.788025;0.005005;-8.946720;-0.706320;-1.177200
10.793030;0.005005;-9.064440;-0.588600;-1.530360
10.798004;0.004974;-9.182160;-0.470880;-1.412640
10.803009;0.005005;-9.417600;-0.235440;-1.648080
10.807983;0.004974;-9.653040;-0.117720;-1.648080
10.812988;0.005005;-9.888480;0.117720;-1.530360
10.817963;0.004974;-10.241640;0.000000;-1.530360
10.822968;0.005005;-10.241640;0.117720;-1.765800
10.827972;0.005005;-10.594800;-0.235440;-1.648080
10.832947;0.004974;-10.712520;-0.353160;-1.765800
10.837952;0.005005;-11.418840;-0.235440;-1.883520
10.842957;0.005005;-11.418840;-0.353160;-1.883520
10.847931;0.004974;-11.654280;-0.353160;-1.883520
10.852936;0.005005;-11.889720;-0.117720;-2.118960
10.857910;0.004974;-11.889720;0.000000;-2.001240
10.862915;0.005005;-12.125160;0.000000;-1.883520
10.867920;0.005005;-12.125160;0.117720;-1.883520
10.872894;0.004974;-12.125160;0.117720;-2.001240
10.877899;0.005005;-11.889720;0.000000;-2.001240
10.882904;0.005005;-11.418840;0.235440;-2.001240
10.887878;0.004974;-11.536560;0.470880;-1.648080
10.892883;0.005005;-11.772000;0.588600;-1.883520
10.897858;0.004974;-11.772000;0.706320;-2.001240
10.902863;0.005005;-11.654280;0.824040;-2.001240
10.907867;0.005005;-11.536560;1.059480;-2.001240
10.912842;0.004974;-11.654280;0.941760;-2.118960
10.917847;0.005005;-11.301120;0.706320;-2.001240
10.922821;0.004974;-11.418840;0.941760;-1.883520
10.927826;0.005005;-11.418840;0.588600;-1.765800
10.932831;0.005005;-11.536560;0.588600;-1.648080
10.937805;0.004974;-11.889720;0.353160;-1.412640
10.942810;0.005005;-11.772000;0.353160;-1.294920
10.947815;0.005005;-12.125160;0.588600;-0.588600
10.952789;0.004974;-12.242880;0.706320;-0.235440
10.957794;0.005005;-12.360600;0.706320;-0.117720
10.962799;0.005005;-12.242880;0.706320;0.235440
10.967773;0.004974;-12.242880;0.588600;0.353160
10.972778;0.005005;-12.242880;0.706320;0.353160
10.977753;0.004974;-12.478320;0.706320;0.000000
10.982758;0.005005;-12.360600;0.588600;-0.470880
10.987762;0.005005;-12.478320;0.470880;-0.588600
10.992737;0.004974;-12.478320;0.235440;-0.941760
10.997742;0.005005;-12.596040;0.117720;-1.412640
11.002716;0.004974;-12.831480;-0.117720;-1.765800
11.007721;0.005005;-13.066920;-0.941760;-1.765800
11.012726;0.005005;-13.066920;-1.412640;-1.883520
11.017700;0.004974;-13.066920;-1.648080;-2.472120
11.022705;0.005005;-12.949200;-1.765800;-2.589840
11.027710;0.005005;-12.713760;-2.001240;-3.413880
11.032684;0.004974;-12.478320;-2.001240;-3.767040
11.037689;0.005005;-12.478320;-2.001240;-4.120200
11.042694;0.005005;-12.242880;-1.883520;-4.355640
11.047668;0.004974;-12.125160;-1.883520;-4.708800
11.052673;0.005005;-11.889720;-1.883520;-5.061960
11.057648;0.004974;-11.536560;-1.765800;-5.415120
11.062653;0.005005;-11.301120;-1.648080;-5.415120
11.067657;0.005005;-10.947960;-1.059480;-5.297400
11.072632;0.004974;-10.594800;-0.706320;-5.061960
11.077637;0.005005;-10.123920;-0.470880;-4.826520
11.082642;0.005005;-9.653040;-0.235440;-4.708800
11.087616;0.004974;-9.653040;0.117720;-4.826520
11.092621;0.005005;-9.417600;0.706320;-4.591080
11.097626;0.005005;-9.182160;0.588600;-4.473360
11.102600;0.004974;-8.946720;0.824040;-4.591080
11.107605;0.005005;-9.064440;0.824040;-4.120200
11.112610;0.005005;-9.182160;0.588600;-4.002480
11.117584;0.004974;-9.653040;0.353160;-4.120200
11.122589;0.005005;-9.888480;0.235440;-3.649320
11.127563;0.004974;-10.359360;0.117720;-3.296160
11.132568;0.005005;-10.712520;0.235440;-3.060720
11.137573;0.005005;-11.065680;0.117720;-3.060720
11.142578;0.005005;-11.536560;0.000000;-3.060720
11.147552;0.004974;-12.007440;-0.470880;-3.296160
11.152557;0.005005;-12.360600;-0.824040;-3.178440
11.157562;0.005005;-12.360600;-1.177200;-3.296160
11.162537;0.004974;-12.596040;-1.530360;-3.060720
11.167542;0.005005;-12.478320;-1.530360;-3.413880
11.172546;0.005005;-12.360600;-1.294920;-3.060720
11.177521;0.004974;-12.360600;-1.530360;-3.060720
11.182526;0.005005;-12.360600;-1.530360;-2.943000
11.187500;0.004974;-12.125160;-1.294920;-2.825280
11.192505;0.005005;-11.536560;-1.177200;-2.825280
11.197510;0.005005;-11.536560;-1.177200;-2.707560
11.202484;0.004974;-10.947960;-0.824040;-2.707560
11.207489;0.005005;-10.359360;-0.824040;-2.589840
11.212463;0.004974;-10.006200;-0.941760;-2.707560
11.217468;0.005005;-9.535320;-0.941760;-2.707560
11.222443;0.004974;-9.182160;-0.588600;-2.707560
11.227448;0.005005;-8.946720;-0.470880;-2.589840
11.232452;0.005005;-8.946720;-0.470880;-2.825280
11.237427;0.004974;-8.711280;-0.353160;-2.825280
11.242432;0.005005;-8.829000;-0.117720;-2.707560
11.247437;0.005005;-8.593560;-0.117720;-2.589840
11.252411;0.004974;-8.593560;0.000000;-2.354400
11.257416;0.005005;-8.711280;0.117720;-2.354400
11.262390;0.004974;-8.593560;0.117720;-2.236680
11.267395;0.005005;-8.593560;0.353160;-2.236680
11.272400;0.005005;-8.711280;0.941760;-2.001240
11.277405;0.005005;-8.358120;1.294920;-1.883520
11.282379;0.004974;-8.240400;1.294920;-2.001240
11.287354;0.004974;-8.122680;1.294920;-1.765800
11.292358;0.005005;-8.004960;1.530360;-1.883520
11.297363;0.005005;-8.122680;1.294920;-1.765800
11.302338;0.004974;-8.122680;1.648080;-1.648080
11.307343;0.005005;-8.004960;1.765800;-1.765800
11.312317;0.004974;-7.769520;1.883520;-1.648080
11.317322;0.005005;-7.769520;1.883520;-1.765800
11.322327;0.005005;-8.004960;1.765800;-1.765800
11.327301;0.004974;-8.122680;1.883520;-1.883520
11.332306;0.005005;-8.122680;1.883520;-1.883520
11.337311;0.005005;-7.769520;1.883520;-1.883520
11.342285;0.004974;-7.534080;1.883520;-1.883520
11.347290;0.005005;-7.651800;1.883520;-2.001240
11.352295;0.005005;-7.769520;1.765800;-1.883520
11.357269;0.004974;-7.769520;1.883520;-2.001240
11.362274;0.005005;-7.651800;1.883520;-1.765800
11.367249;0.004974;-7.769520;1.765800;-1.648080
11.372253;0.005005;-7.769520;1.883520;-1.765800
11.377258;0.005005;-8.122680;1.765800;-1.765800
11.382233;0.004974;-8.240400;1.765800;-1.765800
11.387238;0.005005;-8.240400;1.765800;-1.648080
11.392212;0.004974;-8.240400;1.883520;-1.648080
11.397217;0.005005;-8.475840;1.765800;-1.648080
11.402222;0.005005;-8.475840;1.648080;-1.648080
11.407196;0.004974;-8.475840;1.648080;-1.765800
11.412201;0.005005;-8.240400;1.648080;-1.530360
11.417206;0.005005;-8.240400;1.412640;-1.648080
11.422180;0.004974;-8.358120;1.294920;-1.648080
11.427185;0.005005;-8.593560;1.412640;-1.648080
11.432159;0.004974;-8.711280;1.294920;-1.530360
11.437164;0.005005;-8.946720;1.177200;-1.412640
11.442139;0.004974;-9.182160;1.059480;-1.412640
11.447144;0.005005;-9.182160;0.941760;-1.412640
11.452148;0.005005;-9.417600;0.824040;-1.530360
11.457123;0.004974;-9.417600;0.706320;-1.648080
11.462128;0.005005;-9.535320;0.470880;-1.765800
11.467133;0.005005;-9.535320;0.353160;-1.648080
11.472107;0.004974;-9.888480;0.235440;-1.530360
11.477112;0.005005;-9.888480;-0.117720;-1.530360
11.482086;0.004974;-10.123920;-0.353160;-1.648080
11.487091;0.005005;-10.477080;-0.353160;-1.648080
11.492096;0.005005;-9.770760;-0.353160;-1.765800
11.497070;0.004974;-10.006200;-0.588600;-1.765800
11.502075;0.005005;-10.359360;-0.941760;-1.883520
11.507080;0.005005;-10.594800;-1.177200;-1.765800
11.512054;0.004974;-11.065680;-1.412640;-1.530360
11.517059;0.005005;-11.183400;-1.412640;-1.765800
11.522064;0.005005;-11.183400;-1.412640;-1.883520
11.527039;0.004974;-11.183400;-1.412640;-1.883520
11.532043;0.005005;-11.183400;-1.530360;-1.883520
11.537018;0.004974;-11.301120;-1.412640;-1.883520
11.542023;0.005005;-11.654280;-1.294920;-1.883520
11.546997;0.004974;-11.654280;-0.824040;-1.883520
11.552002;0.005005;-11.536560;-0.706320;-1.883520
11.557007;0.005005;-11.772000;-0.824040;-2.118960
11.561981;0.004974;-11.772000;-0.470880;-2.236680
11.566986;0.005005;-11.772000;-0.470880;-2.118960
11.571991;0.005005;-11.772000;-0.353160;-2.001240
11.576965;0.004974;-11.654280;0.000000;-1.883520
11.581970;0.005005;-11.418840;0.000000;-1.883520
11.586975;0.005005;-11.418840;-0.117720;-1.765800
11.591949;0.004974;-11.301120;0.117720;-1.648080
11.596954;0.005005;-11.654280;0.117720;-1.530360
11.601959;0.005005;-12.007440;0.117720;-1.177200
11.606934;0.004974;-12.125160;0.000000;-0.824040
11.611938;0.005005;-12.360600;-0.117720;-0.588600
11.616943;0.005005;-12.713760;-0.235440;-0.470880
11.621918;0.004974;-13.066920;-0.117720;0.117720
11.626923;0.005005;-13.420080;0.000000;-0.117720
11.631927;0.005005;-14.008680;-0.117720;-0.353160
11.636902;0.004974;-14.244120;0.235440;-0.588600
11.641907;0.005005;-14.479560;0.588600;-1.059480
11.646881;0.004974;-14.597280;1.177200;-1.648080
11.651886;0.005005;-14.715000;1.530360;-2.118960
11.656891;0.005005;-14.715000;1.765800;-2.589840
11.661865;0.004974;-14.832720;2.001240;-2.707560
11.666870;0.005005;-15.068160;2.118960;-2.707560
11.671875;0.005005;-14.832720;2.354400;-2.943000
11.676849;0.004974;-14.597280;2.589840;-3.178440
11.681854;0.005005;-13.890960;2.825280;-3.884760
11.686829;0.004974;-13.537800;3.296160;-4.002480
11.691833;0.005005;-12.949200;3.413880;-4.120200
11.696838;0.005005;-12.596040;2.825280;-3.884760
11.701813;0.004974;-12.360600;2.472120;-4.002480
11.706818;0.005005;-12.125160;2.236680;-3.649320
11.711823;0.005005;-12.007440;2.118960;-3.531600
11.716797;0.004974;-11.418840;1.412640;-3.649320
11.721802;0.005005;-10.947960;0.824040;-3.767040
11.726807;0.005005;-10.712520;0.470880;-3.531600
11.731812;0.005005;-10.123920;0.235440;-3.296160
11.736786;0.004974;-9.888480;0.235440;-3.296160
11.741791;0.005005;-9.770760;0.235440;-3.178440
11.746765;0.004974;-9.653040;0.353160;-3.296160
11.751770;0.005005;-9.653040;0.470880;-3.413880
11.756775;0.005005;-9.653040;0.470880;-3.296160
11.761749;0.004974;-9.653040;0.470880;-3.531600
11.766754;0.005005;-9.770760;0.706320;-3.649320
11.771759;0.005005;-9.888480;0.706320;-3.767040
11.776733;0.004974;-10.241640;0.941760;-3.649320
11.781738;0.005005;-10.359360;1.294920;-3.296160
11.786743;0.005005;-10.477080;1.412640;-3.296160
11.791748;0.005005;-10.947960;1.294920;-3.296160
11.796722;0.004974;-10.830240;1.648080;-3.296160
11.801727;0.005005;-11.183400;1.648080;-3.296160
11.806732;0.005005;-11.301120;1.648080;-3.060720
11.811707;0.004974;-11.301120;1.412640;-2.943000
11.816711;0.005005;-11.183400;1.530360;-3.060720
11.821686;0.004974;-10.830240;1.648080;-2.943000
11.826691;0.005005;-10.947960;1.765800;-2.825280
11.831696;0.005005;-10.712520;1.765800;-2.825280
11.836670;0.004974;-10.594800;1.765800;-2.943000
11.841675;0.005005;-10.594800;1.530360;-2.825280
11.846680;0.005005;-10.477080;1.412640;-2.825280
11.851654;0.004974;-10.241640;1.294920;-2.589840
11.856659;0.005005;-9.888480;1.177200;-2.707560
11.861633;0.004974;-9.417600;1.059480;-2.707560
11.866638;0.005005;-9.299880;1.177200;-2.472120
11.871643;0.005005;-8.829000;1.059480;-2.354400
11.876617;0.004974;-8.593560;1.412640;-2.589840
11.881622;0.005005;-8.946720;1.648080;-2.472120
11.886627;0.005005;-8.475840;1.648080;-2.589840
11.891602;0.004974;-8.475840;1.648080;-2.707560
11.896606;0.005005;-8.122680;1.765800;-2.589840
11.901611;0.005005;-8.004960;1.883520;-2.707560
11.906586;0.004974;-8.240400;1.765800;-2.589840
11.911591;0.005005;-8.004960;1.883520;-2.472120
11.916595;0.005005;-7.887240;1.765800;-2.589840
11.921570;0.004974;-7.887240;1.648080;-2.472120
11.926575;0.005005;-7.769520;1.294920;-2.472120
11.931580;0.005005;-7.769520;1.294920;-2.472120
11.936554;0.004974;-7.887240;0.941760;-2.472120
11.941559;0.005005;-8.004960;0.824040;-2.354400
11.946533;0.004974;-8.358120;0.706320;-2.354400
11.951538;0.005005;-8.122680;0.706320;-2.589840
11.956543;0.005005;-8.240400;0.588600;-2.236680
11.961517;0.004974;-8.004960;0.588600;-2.118960
11.966522;0.005005;-7.887240;0.706320;-2.118960
11.971497;0.004974;-7.416360;0.706320;-2.118960
11.976501;0.005005;-7.416360;0.470880;-2.236680
11.981476;0.004974;-7.416360;0.117720;-2.236680
11.986481;0.005005;-7.416360;0.117720;-2.118960
11.991486;0.005005;-7.534080;0.235440;-2.236680
11.996490;0.005005;-7.651800;0.117720;-2.118960
12.001465;0.004974;-7.416360;0.235440;-2.001240
12.006470;0.005005;-7.534080;0.117720;-2.118960
12.011444;0.004974;-7.651800;0.353160;-2.236680
12.016449;0.005005;-7.769520;0.353160;-2.001240
12.021423;0.004974;-8.004960;0.353160;-1.883520
12.026428;0.005005;-8.122680;0.353160;-2.001240
12.031433;0.005005;-8.358120;0.235440;-1.883520
12.036407;0.004974;-8.475840;0.353160;-1.883520
12.041412;0.005005;-8.711280;0.117720;-1.883520
12.046417;0.005005;-8.475840;0.117720;-1.883520
12.051392;0.004974;-8.829000;0.235440;-1.765800
12.056396;0.005005;-8.711280;0.117720;-1.765800
12.061371;0.004974;-8.711280;0.117720;-1.765800
12.066376;0.005005;-8.829000;0.353160;-1.765800
12.071350;0.004974;-8.829000;0.235440;-1.883520
12.076355;0.005005;-8.946720;0.235440;-1.765800
12.081360;0.005005;-9.064440;0.117720;-1.765800
12.086334;0.004974;-9.299880;0.235440;-1.648080
12.091339;0.005005;-9.299880;0.470880;-1.648080
12.096313;0.004974;-9.653040;0.353160;-1.883520
12.101318;0.005005;-10.123920;0.470880;-2.001240
12.106293;0.004974;-10.123920;0.706320;-2.001240
12.111298;0.005005;-10.241640;1.059480;-2.001240
12.116302;0.005005;-10.594800;1.177200;-2.001240
12.121277;0.004974;-10.477080;1.059480;-2.118960
12.126282;0.005005;-10.712520;1.412640;-2.236680
12.131256;0.004974;-11.065680;1.177200;-2.236680
12.136261;0.005005;-11.418840;1.294920;-2.354400
12.141266;0.005005;-11.418840;1.294920;-2.118960
12.146240;0.004974;-11.301120;1.412640;-2.001240
12.151245;0.005005;-11.065680;1.412640;-1.883520
12.156219;0.004974;-10.947960;1.412640;-1.883520
12.161224;0.005005;-11.065680;1.648080;-1.765800
12.166199;0.004974;-10.947960;1.530360;-1.648080
12.171204;0.005005;-10.594800;1.412640;-1.648080
12.176178;0.004974;-10.712520;1.412640;-1.765800
12.181183;0.005005;-10.359360;1.530360;-1.765800
12.186188;0.005005;-10.594800;1.412640;-1.765800
12.191162;0.004974;-10.123920;1.059480;-1.648080
12.196167;0.005005;-10.241640;0.941760;-1.412640
12.201141;0.004974;-10.241640;0.824040;-1.530360
12.206146;0.005005;-10.359360;0.470880;-1.530360
12.211121;0.004974;-10.241640;0.235440;-1.530360
12.216125;0.005005;-10.241640;0.235440;-1.177200
12.221130;0.005005;-10.477080;0.470880;-1.177200
12.226105;0.004974;-10.712520;0.235440;-1.177200
12.231110;0.005005;-10.947960;0.353160;-1.177200
12.236115;0.005005;-11.301120;0.588600;-0.941760
12.241089;0.004974;-11.536560;1.294920;-0.588600
12.246094;0.005005;-12.007440;1.294920;-0.353160
12.251068;0.004974;-12.360600;1.530360;-0.353160
12.256073;0.005005;-12.360600;1.648080;-0.235440
12.261078;0.005005;-12.360600;1.530360;-0.353160
