# FOX Logger (IMU file)
# (c) INRIA 2011-2014
# File created from file sensbiotk output
#
# File format:
# id	t	dt	ax	ay	az	mx	my	mz	gx	gy	gz
#
# Units:
#	Time: s
#	Acceleration: m.s^-2
#	Magneto: gauss
#	Gyrometer: rad/s
#
1	0.065552	0.065552	9.589043	0.735287	1.741043	0.467164	-0.176119	-0.258333	0.005753	-0.008900	0.013192
2	0.070552	0.005000	9.547395	0.851205	1.675245	0.468727	-0.174668	-0.261075	-0.008665	-0.006897	0.006382
3	0.075552	0.005000	9.515401	0.824040	1.726560	0.470289	-0.173217	-0.263817	-0.003182	-0.012276	-0.012897
4	0.080552	0.005000	9.621054	0.902520	1.559377	0.471852	-0.171766	-0.266559	0.015053	-0.013031	0.012594
5	0.085552	0.005000	9.638526	0.932084	1.721722	0.473414	-0.170315	-0.269301	0.003249	-0.009218	0.002638
6	0.090552	0.005000	9.682659	0.865685	1.731370	0.474977	-0.168864	-0.272043	0.006663	-0.002267	-0.002009
7	0.095552	0.005000	9.613755	0.745575	1.726560	0.476539	-0.167413	-0.274784	0.001040	-0.004514	0.005098
8	0.100552	0.005000	9.532932	0.821652	1.726560	0.478102	-0.165962	-0.277526	0.003525	-0.000680	0.007855
9	0.105552	0.005000	9.549696	0.745560	1.795456	0.479665	-0.164512	-0.280268	0.000065	-0.004318	0.008245
10	0.110552	0.005000	9.638623	0.824040	1.751383	0.481227	-0.163061	-0.283010	-0.004918	-0.009178	-0.002780
11	0.115552	0.005000	9.604185	0.813644	1.716164	0.482790	-0.161610	-0.285752	-0.001554	-0.006583	0.012533
12	0.120552	0.005000	9.547349	0.760742	1.793011	0.484352	-0.160159	-0.288494	-0.003028	-0.009796	0.009296
13	0.125552	0.005000	9.638602	0.770362	1.819478	0.485915	-0.158708	-0.291236	0.002520	-0.008623	0.009532
14	0.130552	0.005000	9.669890	0.807190	1.788190	0.487477	-0.157257	-0.293978	0.000916	0.001605	0.008286
15	0.135552	0.005000	9.514621	0.883979	1.765080	0.488130	-0.156226	-0.295156	0.010526	-0.011810	0.018607
16	0.140552	0.005000	9.474206	0.824040	1.743926	0.488241	-0.155446	-0.295405	0.014570	-0.002047	0.017502
17	0.145552	0.005000	9.471816	0.833328	1.711584	0.488353	-0.154665	-0.295654	0.002039	-0.001253	0.001504
18	0.150552	0.005000	9.535320	0.784800	1.751762	0.488464	-0.153885	-0.295903	0.008137	-0.009751	0.013829
19	0.155552	0.005000	9.613800	0.795134	1.726560	0.488576	-0.153104	-0.296152	0.002345	-0.002315	0.004612
20	0.160552	0.005000	9.629472	0.761232	1.679484	0.488687	-0.152324	-0.296401	0.004649	-0.007270	0.008163
21	0.165552	0.005000	9.765314	0.897074	1.552143	0.488799	-0.151543	-0.296650	-0.000513	-0.008972	0.016020
22	0.170552	0.005000	9.728449	0.715532	1.690391	0.488910	-0.150763	-0.296899	0.001356	-0.002721	0.008392
23	0.175552	0.005000	9.613119	0.784119	1.765119	0.489022	-0.149982	-0.297148	0.007682	-0.008710	0.010931
24	0.180552	0.005000	9.574560	0.820611	1.689035	0.489133	-0.149202	-0.297397	0.001833	0.001512	0.001802
25	0.185552	0.005000	9.688148	0.815776	1.722428	0.489245	-0.148421	-0.297646	0.009364	0.000977	0.006864
26	0.190552	0.005000	9.568023	0.824040	1.759263	0.489356	-0.147641	-0.297895	0.007678	0.001628	0.008158
27	0.195552	0.005000	9.574560	0.724202	1.714143	0.489468	-0.146860	-0.298144	0.004685	-0.009501	0.008774
28	0.200552	0.005000	9.618973	0.745560	1.703849	0.489822	-0.146296	-0.298303	0.005981	-0.007445	0.011912
29	0.205552	0.005000	9.499045	0.849212	1.765800	0.490938	-0.146408	-0.298178	0.000196	-0.009372	-0.002029
30	0.210552	0.005000	9.630243	0.745560	1.697410	0.492054	-0.146519	-0.298054	0.004805	-0.003194	0.002050
31	0.215552	0.005000	9.653040	0.822467	1.627673	0.493169	-0.146631	-0.297929	-0.003419	-0.005356	-0.004418
32	0.220552	0.005000	9.635008	0.820863	1.687320	0.494285	-0.146742	-0.297805	0.002419	-0.002399	-0.003036
33	0.225552	0.005000	9.597886	0.847638	1.640123	0.495400	-0.146854	-0.297680	0.003252	-0.011283	0.010007
34	0.230552	0.005000	9.613800	0.798067	1.779067	0.496516	-0.146965	-0.297556	0.002912	-0.011342	0.009990
35	0.235552	0.005000	9.606194	0.873825	1.762862	0.497632	-0.147077	-0.297431	0.011909	-0.008391	0.012370
36	0.240552	0.005000	9.692280	0.941760	1.773930	0.498747	-0.147188	-0.297307	0.011248	0.001401	0.005197
37	0.245552	0.005000	9.653040	0.857556	1.760076	0.499863	-0.147300	-0.297182	0.008307	-0.006888	0.007311
38	0.250552	0.005000	9.610493	0.755481	1.733174	0.500979	-0.147411	-0.297058	0.009504	-0.005677	0.010079
39	0.255552	0.005000	9.614703	0.858765	1.880811	0.502094	-0.147523	-0.296933	0.000721	-0.005949	0.000055
40	0.260552	0.005000	9.728525	0.780307	1.765800	0.503210	-0.147634	-0.296809	0.004963	-0.005103	0.020299
41	0.265552	0.005000	9.617719	0.788719	1.805040	0.504326	-0.147746	-0.296684	0.006591	0.002869	0.010107
42	0.270552	0.005000	9.692280	0.673416	1.765800	0.503900	-0.147568	-0.296882	-0.001433	-0.009971	0.010025
43	0.275552	0.005000	9.622542	0.784800	1.617582	0.503231	-0.147345	-0.297131	-0.006243	-0.004475	0.000213
44	0.280552	0.005000	9.563078	0.729283	1.715078	0.502561	-0.147122	-0.297380	-0.001428	-0.009774	0.002668
45	0.285552	0.005000	9.602303	0.796297	1.751928	0.501892	-0.146899	-0.297629	0.009060	-0.003495	0.001371
46	0.290552	0.005000	9.604300	0.699573	1.661573	0.501222	-0.146676	-0.297879	0.002358	-0.005281	0.000888
47	0.295552	0.005000	9.533323	0.745560	1.687320	0.500553	-0.146453	-0.298128	0.010598	-0.013942	0.015728
48	0.300552	0.005000	9.595572	0.721765	1.705548	0.499884	-0.146230	-0.298377	0.000832	-0.007707	0.001409
49	0.305552	0.005000	9.621899	0.824040	1.624410	0.499214	-0.146007	-0.298626	-0.001842	-0.007913	0.013478
50	0.310552	0.005000	9.561643	0.837202	1.726560	0.498545	-0.145783	-0.298875	0.001110	-0.008299	0.011588
51	0.315552	0.005000	9.656791	0.824040	1.698068	0.497875	-0.145560	-0.299124	0.005627	0.000081	0.003452
52	0.320552	0.005000	9.723276	0.840529	1.687320	0.497206	-0.145337	-0.299373	-0.004380	-0.006852	0.005835
53	0.325552	0.005000	9.703988	0.773092	1.648080	0.496537	-0.145114	-0.299622	-0.010074	-0.004304	-0.005605
54	0.330552	0.005000	9.738479	0.631319	1.619278	0.495867	-0.144891	-0.299872	0.003868	-0.015497	0.008087
55	0.335552	0.005000	9.694458	0.748827	1.724382	0.495684	-0.144938	-0.299940	0.007400	-0.016868	0.003819
56	0.340552	0.005000	9.694883	0.863280	1.799835	0.496019	-0.145273	-0.299815	0.005489	-0.011171	0.003617
57	0.345552	0.005000	9.692280	0.827759	1.691039	0.496354	-0.145608	-0.299690	0.010223	-0.015122	0.003654
58	0.350552	0.005000	9.653040	0.902520	1.693840	0.496688	-0.145942	-0.299566	0.002460	-0.013785	0.006633
59	0.355552	0.005000	9.670830	0.832935	1.630290	0.497023	-0.146277	-0.299441	0.002283	-0.008681	0.015111
60	0.360552	0.005000	9.597130	0.734275	1.759900	0.497358	-0.146612	-0.299317	0.013972	0.003743	0.003329
61	0.365552	0.005000	9.574560	0.783060	1.765800	0.497692	-0.146946	-0.299192	0.002897	-0.007446	0.015055
62	0.370552	0.005000	9.503220	0.824040	1.733700	0.498027	-0.147281	-0.299067	0.007279	-0.008735	0.009175
63	0.375552	0.005000	9.613800	0.865670	1.668895	0.498362	-0.147616	-0.298943	0.002928	-0.007815	0.000159
64	0.380552	0.005000	9.569840	0.826400	1.703400	0.498697	-0.147951	-0.298818	0.000737	-0.004792	0.006499
65	0.385552	0.005000	9.629850	0.784800	1.765800	0.499031	-0.148285	-0.298694	-0.001271	0.001879	-0.000761
66	0.390552	0.005000	9.600125	0.759235	1.765800	0.499366	-0.148620	-0.298569	0.006704	-0.005173	0.011386
67	0.395552	0.005000	9.546278	0.824040	1.732927	0.499701	-0.148955	-0.298444	0.009122	0.002417	0.007688
68	0.400552	0.005000	9.560949	0.902520	1.648080	0.500000	-0.149254	-0.298333	0.002038	-0.014559	0.017062
69	0.405552	0.005000	9.646903	0.890246	1.699594	0.500000	-0.149254	-0.298333	0.003622	-0.005279	0.002967
70	0.410552	0.005000	9.574560	0.820320	1.805040	0.500000	-0.149254	-0.298333	-0.004970	-0.014661	0.005914
71	0.415552	0.005000	9.536621	0.826642	1.691223	0.500000	-0.149254	-0.298333	0.003050	-0.009953	0.008527
72	0.420552	0.005000	9.574560	0.940658	1.805040	0.500000	-0.149254	-0.298333	-0.000229	0.000305	0.011149
73	0.425552	0.005000	9.649534	0.938254	1.651586	0.500000	-0.149254	-0.298333	0.002641	-0.009639	0.016687
74	0.430552	0.005000	9.607877	0.824040	1.781349	0.500000	-0.149254	-0.298333	0.001069	-0.002094	0.012370
75	0.435552	0.005000	9.582889	0.776471	1.734889	0.500000	-0.149254	-0.298333	-0.001930	0.002406	0.001505
76	0.440552	0.005000	9.546064	0.834784	1.715816	0.500000	-0.149254	-0.298333	0.001798	-0.012198	0.008676
77	0.445552	0.005000	9.535320	0.797951	1.844066	0.500000	-0.149254	-0.298333	0.002324	-0.019668	0.013765
78	0.450552	0.005000	9.551158	0.839878	1.828442	0.500000	-0.149254	-0.298333	0.011923	-0.004940	0.002967
79	0.455552	0.005000	9.529753	0.881508	1.877953	0.500000	-0.149254	-0.298333	0.003201	0.006724	0.001423
80	0.460552	0.005000	9.518650	0.766163	1.745197	0.500000	-0.149254	-0.298333	-0.000571	0.000284	0.000036
81	0.465552	0.005000	9.535320	0.761807	1.687320	0.500000	-0.149254	-0.298333	0.010744	-0.003869	0.016649
82	0.470552	0.005000	9.549192	0.770928	1.712688	0.499919	-0.149092	-0.298695	0.003908	-0.005074	0.005705
83	0.475552	0.005000	9.609050	0.761807	1.710313	0.499807	-0.148869	-0.299193	0.004021	-0.004015	0.008107
84	0.480552	0.005000	9.722413	0.793907	1.793120	0.499696	-0.148646	-0.299691	-0.006417	-0.003569	0.009292
85	0.485552	0.005000	9.718843	0.902520	1.779686	0.499584	-0.148423	-0.300189	-0.001125	-0.009596	0.002924
86	0.490552	0.005000	9.570627	0.851480	1.722627	0.499473	-0.148200	-0.300687	0.003434	-0.008720	0.009597
87	0.495552	0.005000	9.536836	0.710867	1.725044	0.499361	-0.147977	-0.301185	0.006363	-0.004450	0.003766
88	0.500552	0.005000	9.612923	0.824040	1.648957	0.499250	-0.147754	-0.301683	0.001287	-0.009496	0.010765
89	0.505552	0.005000	9.617067	0.712855	1.801773	0.499138	-0.147531	-0.302182	0.006787	0.000652	0.007040
90	0.510552	0.005000	9.613800	0.745560	1.838569	0.499027	-0.147308	-0.302680	0.016188	-0.007167	0.000113
91	0.515552	0.005000	9.582687	0.753687	1.759066	0.498915	-0.147085	-0.303178	0.006294	-0.001018	0.009078
92	0.520552	0.005000	9.545853	0.834573	1.697853	0.498804	-0.146862	-0.303676	0.005503	-0.003082	0.003027
93	0.525552	0.005000	9.639274	0.850543	1.661331	0.498692	-0.146639	-0.304174	0.014337	-0.007010	0.019496
94	0.530552	0.005000	9.613800	0.784800	1.726560	0.498580	-0.146416	-0.304672	0.003665	-0.002692	-0.000060
95	0.535552	0.005000	9.631817	0.824040	1.687320	0.498507	-0.146307	-0.304830	0.003486	-0.004267	0.008962
96	0.540552	0.005000	9.615373	0.805207	1.745393	0.498507	-0.146419	-0.304331	0.001338	-0.006036	0.001077
97	0.545552	0.005000	9.675822	0.863280	1.815175	0.498507	-0.146530	-0.303833	0.005496	-0.013117	0.001673
98	0.550552	0.005000	9.656005	0.770732	1.754697	0.498507	-0.146642	-0.303335	0.002813	-0.008381	0.009951
99	0.555552	0.005000	9.675760	0.829200	1.710040	0.498507	-0.146753	-0.302837	-0.004938	-0.004581	-0.000137
100	0.560552	0.005000	9.661993	0.845374	1.856661	0.498507	-0.146865	-0.302338	0.003185	-0.007603	0.009145
101	0.565552	0.005000	9.692280	0.837115	1.798503	0.498507	-0.146976	-0.301840	-0.000182	-0.003228	0.013930
102	0.570552	0.005000	9.661307	0.824040	1.796773	0.498507	-0.147088	-0.301342	-0.001963	-0.016445	0.008874
103	0.575552	0.005000	9.574560	0.709779	1.726560	0.498507	-0.147199	-0.300843	-0.006062	-0.013259	0.008457
104	0.580552	0.005000	9.613119	0.900478	1.726560	0.498507	-0.147311	-0.300345	-0.001568	-0.017008	0.002141
105	0.585552	0.005000	9.725335	0.820947	1.762707	0.498507	-0.147422	-0.299847	0.007675	-0.007598	0.005406
106	0.590552	0.005000	9.630329	0.885991	1.765800	0.498507	-0.147534	-0.299348	0.001969	-0.003454	0.002161
107	0.595552	0.005000	9.637209	0.831955	1.726560	0.498507	-0.147645	-0.298850	0.009731	-0.008533	0.021711
108	0.600552	0.005000	9.456840	0.784800	1.715895	0.498507	-0.147757	-0.298352	0.000903	0.000685	0.007749
109	0.605552	0.005000	9.522265	0.928705	1.713505	0.498400	-0.147439	-0.298333	-0.001225	-0.006566	-0.000997
110	0.610552	0.005000	9.550750	0.885759	1.687320	0.498288	-0.147105	-0.298333	0.000090	-0.003296	0.006876
111	0.615552	0.005000	9.631620	0.802620	1.744380	0.498177	-0.146770	-0.298333	0.005412	-0.000971	0.000822
112	0.620552	0.005000	9.594755	0.725365	1.765800	0.498065	-0.146436	-0.298333	0.001812	-0.008642	0.008058
113	0.625552	0.005000	9.630191	0.833972	1.814972	0.497954	-0.146101	-0.298333	-0.004830	-0.004333	-0.000710
114	0.630552	0.005000	9.585844	0.930476	1.880825	0.497842	-0.145767	-0.298333	0.002239	-0.009523	0.008872
115	0.635552	0.005000	9.613800	0.957860	1.765800	0.497731	-0.145432	-0.298333	0.010003	-0.011530	0.011072
116	0.640552	0.005000	9.653040	0.796902	1.805040	0.497619	-0.145098	-0.298333	0.014292	-0.006131	0.006657
117	0.645552	0.005000	9.692280	0.699649	1.745787	0.497508	-0.144763	-0.298333	0.007861	-0.009045	0.022731
118	0.650552	0.005000	9.648759	0.789081	1.578162	0.497396	-0.144429	-0.298333	0.006882	0.006591	0.006481
119	0.655552	0.005000	9.690374	0.751278	1.651892	0.497285	-0.144094	-0.298333	0.013060	-0.008634	0.013307
120	0.660552	0.005000	9.614275	0.746984	1.726560	0.497174	-0.143760	-0.298333	0.007698	-0.011388	0.000461
121	0.665552	0.005000	9.610487	0.784800	1.723247	0.497062	-0.143425	-0.298333	0.013553	-0.011530	0.003264
122	0.670552	0.005000	9.625206	0.779097	1.765800	0.496886	-0.143542	-0.298405	0.012679	-0.001760	0.012162
123	0.675552	0.005000	9.638034	0.737482	1.765800	0.496663	-0.143988	-0.298530	-0.000398	0.002934	0.002153
124	0.680552	0.005000	9.642572	0.766496	1.755332	0.496440	-0.144434	-0.298654	0.003827	-0.009315	0.012327
125	0.685552	0.005000	9.678726	0.797643	1.752246	0.496217	-0.144880	-0.298779	-0.003997	-0.005689	0.002159
126	0.690552	0.005000	9.653040	0.776026	1.672087	0.495994	-0.145327	-0.298903	0.002279	-0.000266	0.002003
127	0.695552	0.005000	9.574560	0.788398	1.705141	0.495771	-0.145773	-0.299028	-0.002292	-0.008689	0.004013
128	0.700552	0.005000	9.670823	0.882288	1.726560	0.495547	-0.146219	-0.299153	0.005402	-0.014108	0.002642
129	0.705552	0.005000	9.630396	0.908568	1.765800	0.495324	-0.146665	-0.299277	0.007856	-0.010365	-0.000114
130	0.710552	0.005000	9.678257	0.784800	1.841451	0.495101	-0.147112	-0.299402	0.003479	-0.000417	0.004716
131	0.715552	0.005000	9.621091	0.701978	1.714927	0.494878	-0.147558	-0.299526	0.012675	-0.024119	0.005116
132	0.720552	0.005000	9.653040	0.736302	1.717302	0.494655	-0.148004	-0.299651	0.003429	-0.011559	0.007035
133	0.725552	0.005000	9.542188	0.791668	1.765800	0.494432	-0.148450	-0.299776	0.001696	-0.009602	0.010985
134	0.730552	0.005000	9.613800	0.815054	1.722067	0.494209	-0.148896	-0.299900	-0.006910	-0.010678	0.002807
135	0.735552	0.005000	9.769092	0.859944	1.723224	0.494052	-0.149232	-0.300000	0.001864	-0.008303	-0.001775
136	0.740552	0.005000	9.654522	0.746301	1.725078	0.494164	-0.149120	-0.300000	0.009219	-0.012273	0.012560
137	0.745552	0.005000	9.502312	0.899404	1.723444	0.494275	-0.149009	-0.300000	-0.000562	-0.009082	0.006029
138	0.750552	0.005000	9.647534	0.852267	1.737573	0.494387	-0.148897	-0.300000	-0.001067	-0.014563	0.002625
139	0.755552	0.005000	9.668803	0.800563	1.554004	0.494498	-0.148786	-0.300000	0.004170	-0.014277	0.009846
140	0.760552	0.005000	9.566461	0.753659	1.773899	0.494610	-0.148674	-0.300000	0.007066	-0.008626	0.004308
141	0.765552	0.005000	9.614657	0.863280	1.778594	0.494721	-0.148563	-0.300000	0.007542	-0.009642	0.006389
142	0.770552	0.005000	9.605541	0.863280	1.765800	0.494832	-0.148451	-0.300000	0.007298	-0.004019	-0.000997
143	0.775552	0.005000	9.638684	0.902520	1.805040	0.494944	-0.148339	-0.300000	0.013749	-0.002917	0.010629
144	0.780552	0.005000	9.675837	0.941760	1.726560	0.495055	-0.148228	-0.300000	0.007371	0.000205	0.000907
145	0.785552	0.005000	9.630410	0.840650	1.648080	0.495167	-0.148116	-0.300000	0.009057	-0.004857	0.000460
146	0.790552	0.005000	9.549540	0.902520	1.662300	0.495278	-0.148005	-0.300000	0.011122	-0.007982	0.013368
147	0.795552	0.005000	9.597587	0.863280	1.687320	0.495390	-0.147893	-0.300000	0.014050	-0.000174	0.002515
148	0.800552	0.005000	9.604694	0.962788	1.717454	0.495501	-0.147782	-0.300000	0.007494	-0.007025	0.006235
149	0.805552	0.005000	9.496080	0.791491	1.726560	0.496067	-0.147761	-0.299899	0.007711	-0.009947	0.005117
150	0.810552	0.005000	9.500365	0.828325	1.683035	0.496736	-0.147761	-0.299774	0.003210	-0.009519	0.010114
151	0.815552	0.005000	9.501617	0.824040	1.646234	0.497406	-0.147761	-0.299649	0.005490	-0.007761	0.011848
152	0.820552	0.005000	9.536392	0.785336	1.647544	0.498075	-0.147761	-0.299525	-0.002443	-0.007832	0.003825
153	0.825552	0.005000	9.613800	0.826994	1.645126	0.498744	-0.147761	-0.299400	0.004786	-0.005089	0.010794
154	0.830552	0.005000	9.603083	0.897161	1.681961	0.499414	-0.147761	-0.299276	0.000158	-0.002918	0.009356
155	0.835552	0.005000	9.660815	0.926211	1.679545	0.500083	-0.147761	-0.299151	0.004139	-0.008572	0.004729
156	0.840552	0.005000	9.574560	0.824040	1.677139	0.500753	-0.147761	-0.299026	-0.000343	-0.003868	-0.005901
157	0.845552	0.005000	9.640136	0.811136	1.817944	0.501422	-0.147761	-0.298902	0.008049	-0.014539	-0.001717
158	0.850552	0.005000	9.668324	0.793471	1.750516	0.502091	-0.147761	-0.298777	0.002405	-0.002692	0.006622
159	0.855552	0.005000	9.596131	0.767131	1.844280	0.502761	-0.147761	-0.298653	-0.000657	-0.002227	0.012316
160	0.860552	0.005000	9.555364	0.725516	1.785844	0.503430	-0.147761	-0.298528	-0.002527	-0.019774	0.007636
161	0.865552	0.005000	9.574560	0.762366	1.653707	0.504100	-0.147761	-0.298403	0.003272	-0.009192	-0.002454
162	0.870552	0.005000	9.613800	0.877711	1.658457	0.504235	-0.147761	-0.298604	0.001448	-0.005170	0.000837
163	0.875552	0.005000	9.668834	0.800594	1.648080	0.503678	-0.147761	-0.299227	0.004038	-0.005533	0.005463
164	0.880552	0.005000	9.613800	0.754869	1.636766	0.503120	-0.147761	-0.299850	0.002737	-0.006907	0.002907
165	0.885552	0.005000	9.692280	0.713142	1.772622	0.502562	-0.147761	-0.300473	0.003765	-0.010292	0.012161
166	0.890552	0.005000	9.687794	0.745560	1.805040	0.502004	-0.147761	-0.301096	0.000295	-0.006905	0.000775
167	0.895552	0.005000	9.729463	0.710435	1.763743	0.501446	-0.147761	-0.301718	0.010173	-0.011072	0.007121
168	0.900552	0.005000	9.731183	0.823703	1.687657	0.500889	-0.147761	-0.302341	0.010568	-0.001494	0.016537
169	0.905552	0.005000	9.613800	0.784800	1.723819	0.500331	-0.147761	-0.302964	0.006136	-0.004607	0.006427
170	0.910552	0.005000	9.584875	0.716635	1.613998	0.499773	-0.147761	-0.303587	0.008556	-0.006383	0.010444
171	0.915552	0.005000	9.535320	0.824040	1.797477	0.499215	-0.147761	-0.304210	0.005916	-0.002413	0.009567
172	0.920552	0.005000	9.506058	0.853302	1.815018	0.498657	-0.147761	-0.304833	0.008228	-0.022808	0.010430
173	0.925552	0.005000	9.626507	0.797507	1.751974	0.498099	-0.147761	-0.305456	-0.001056	-0.010350	0.007638
174	0.930552	0.005000	9.692280	0.721402	1.614846	0.497542	-0.147761	-0.306079	0.008198	-0.013855	0.001353
175	0.935552	0.005000	9.631272	0.775920	1.669848	0.497009	-0.147767	-0.306611	-0.001846	-0.014005	0.003875
176	0.940552	0.005000	9.633647	0.804193	1.784739	0.496897	-0.147879	-0.305615	-0.001070	-0.010546	0.000538
177	0.945552	0.005000	9.653040	0.841058	1.827262	0.496786	-0.147990	-0.304619	0.006233	-0.011103	0.013011
178	0.950552	0.005000	9.638700	0.770460	1.858620	0.496674	-0.148102	-0.303623	-0.000457	-0.008484	0.014270
179	0.955552	0.005000	9.598413	0.769413	1.793113	0.496563	-0.148213	-0.302626	0.006823	-0.012579	0.016477
180	0.960552	0.005000	9.623319	0.824040	1.688483	0.496451	-0.148325	-0.301630	0.006668	-0.009040	0.006150
181	0.965552	0.005000	9.613800	0.784800	1.648080	0.496339	-0.148437	-0.300634	0.004573	-0.008817	0.002187
182	0.970552	0.005000	9.609102	0.754957	1.692018	0.496228	-0.148548	-0.299638	0.000045	-0.005892	0.002910
183	0.975552	0.005000	9.465856	0.932744	1.731068	0.496116	-0.148660	-0.298642	0.003050	0.003664	-0.004887
184	0.980552	0.005000	9.692035	0.863035	1.765922	0.496005	-0.148771	-0.297646	0.001710	-0.005976	0.009523
185	0.985552	0.005000	9.768220	0.748100	1.653161	0.495893	-0.148883	-0.296649	0.005395	-0.009017	0.011142
186	0.990552	0.005000	9.776115	0.722385	1.799685	0.495782	-0.148994	-0.295653	0.005723	-0.010986	0.006311
187	0.995552	0.005000	9.668500	0.721780	1.773530	0.495670	-0.149106	-0.294657	0.011065	-0.007097	0.009565
188	1.000552	0.005000	9.565680	0.803800	1.774680	0.495559	-0.149217	-0.293661	0.015301	-0.004917	0.004333
189	1.005552	0.005000	9.613800	0.811545	1.778295	0.494624	-0.150003	-0.292497	0.004283	-0.012542	0.012563
190	1.010552	0.005000	9.502018	0.839099	1.814161	0.493285	-0.151118	-0.291251	0.002382	-0.004402	0.002430
191	1.015552	0.005000	9.557091	0.767331	1.839978	0.491946	-0.152234	-0.290006	0.011841	-0.010808	0.015177
192	1.020552	0.005000	9.593920	0.824040	1.667960	0.490608	-0.153349	-0.288760	0.009118	-0.002882	0.008847
193	1.025552	0.005000	9.731520	0.807092	1.698925	0.489269	-0.154465	-0.287514	0.009873	-0.001995	0.004981
194	1.030552	0.005000	9.653040	0.848741	1.677158	0.487930	-0.155580	-0.286269	0.006186	-0.009835	0.005101
195	1.035552	0.005000	9.571262	0.890539	1.726560	0.486592	-0.156696	-0.285023	0.001149	-0.013721	0.005407
196	1.040552	0.005000	9.573743	0.931337	1.746588	0.485253	-0.157811	-0.283777	0.007884	-0.013045	0.013099
197	1.045552	0.005000	9.663357	1.013009	1.712098	0.483914	-0.158927	-0.282532	0.002996	-0.005067	0.007559
198	1.050552	0.005000	9.496080	0.976159	1.613681	0.482576	-0.160043	-0.281286	0.002541	-0.012314	0.007379
199	1.055552	0.005000	9.498101	0.898478	1.614903	0.481237	-0.161158	-0.280040	0.000325	-0.015895	0.011525
200	1.060552	0.005000	9.690767	0.785178	1.687698	0.479898	-0.162274	-0.278795	-0.004970	-0.012647	0.005552
201	1.065552	0.005000	9.653040	0.745560	1.653617	0.478560	-0.163389	-0.277549	0.003120	-0.019822	0.004152
202	1.070552	0.005000	9.608657	0.818897	1.682177	0.478035	-0.163951	-0.277031	0.000996	-0.003307	0.006532
203	1.075552	0.005000	9.645507	0.926693	1.734093	0.479485	-0.163170	-0.278276	0.007122	-0.008483	0.008570
204	1.080552	0.005000	9.613800	0.951668	1.677412	0.480935	-0.162390	-0.279521	-0.001454	-0.014227	0.009805
205	1.085552	0.005000	9.679982	0.807052	1.699618	0.482384	-0.161609	-0.280766	-0.000828	-0.004616	0.002726
206	1.090552	0.005000	9.574560	0.774907	1.726560	0.483834	-0.160829	-0.282011	0.001981	-0.008766	0.005287
207	1.095552	0.005000	9.601849	0.706320	1.731673	0.485283	-0.160048	-0.283256	0.010548	-0.001024	-0.000093
208	1.100552	0.005000	9.692280	0.784693	1.804933	0.486733	-0.159268	-0.284501	0.008957	-0.007970	0.007615
209	1.105552	0.005000	9.645740	0.846124	1.765800	0.488183	-0.158487	-0.285746	0.000956	-0.003353	0.001645
210	1.110552	0.005000	9.643287	0.853527	1.726560	0.489632	-0.157706	-0.286992	0.002272	-0.003133	-0.004808
211	1.115552	0.005000	9.704615	0.824040	1.699655	0.491082	-0.156926	-0.288237	0.001816	-0.001775	0.007688
212	1.120552	0.005000	9.731520	0.735639	1.726560	0.492531	-0.156145	-0.289482	0.002970	-0.005414	0.001527
213	1.125552	0.005000	9.677251	0.753074	1.648080	0.493981	-0.155365	-0.290727	0.002645	-0.007935	0.006936
214	1.130552	0.005000	9.584639	0.755639	1.579679	0.495431	-0.154584	-0.291972	-0.000833	-0.005186	0.002730
215	1.135552	0.005000	9.579885	0.745560	1.713248	0.496880	-0.153804	-0.293217	0.012217	-0.011620	0.012310
216	1.140552	0.005000	9.574847	0.785087	1.687320	0.496813	-0.153630	-0.293107	0.009188	-0.011794	0.019114
217	1.145552	0.005000	9.613800	0.749815	1.724433	0.496590	-0.153518	-0.292858	0.012056	-0.005328	-0.004020
218	1.150552	0.005000	9.588155	0.750092	1.657144	0.496366	-0.153407	-0.292609	0.007342	-0.008075	0.008934
219	1.155552	0.005000	9.574560	0.855958	1.687320	0.496143	-0.153295	-0.292360	0.006891	-0.013046	0.004033
220	1.160552	0.005000	9.643328	0.814328	1.795328	0.495920	-0.153184	-0.292111	0.002526	-0.003636	0.012320
221	1.165552	0.005000	9.637973	0.836127	1.738647	0.495697	-0.153072	-0.291861	0.004633	-0.008599	0.003284
222	1.170552	0.005000	9.667517	0.799277	1.662557	0.495474	-0.152961	-0.291612	0.005993	0.000833	0.006803
223	1.175552	0.005000	9.658169	0.858151	1.731689	0.495251	-0.152849	-0.291363	-0.001179	-0.004405	0.012150
224	1.180552	0.005000	9.692280	0.843507	1.765800	0.495028	-0.152738	-0.291114	-0.007693	0.002943	0.003218
225	1.185552	0.005000	9.696797	0.819523	1.748438	0.494805	-0.152626	-0.290865	-0.004967	-0.006044	0.005966
226	1.190552	0.005000	9.609216	0.760339	1.790261	0.494581	-0.152515	-0.290616	0.006832	-0.000924	0.000174
227	1.195552	0.005000	9.704669	0.760022	1.805040	0.494358	-0.152403	-0.290367	0.008858	-0.006822	0.008706
228	1.200552	0.005000	9.721506	0.794814	1.697334	0.494135	-0.152292	-0.290118	0.005392	-0.004719	0.005871
229	1.205552	0.005000	9.716272	0.808792	1.648080	0.494266	-0.151944	-0.290592	-0.004931	0.000219	0.003923
230	1.210552	0.005000	9.585058	0.779551	1.726560	0.494712	-0.151387	-0.291713	0.001172	-0.010387	0.008949
231	1.215552	0.005000	9.611367	0.787233	1.800173	0.495158	-0.150829	-0.292835	-0.008953	-0.006793	0.005192
232	1.220552	0.005000	9.535305	0.902459	1.805025	0.495604	-0.150271	-0.293956	-0.002628	-0.014106	0.005800
233	1.225552	0.005000	9.532960	0.745560	1.839560	0.496051	-0.149713	-0.295077	-0.000141	-0.002420	0.002490
234	1.230552	0.005000	9.653040	0.927556	1.780004	0.496497	-0.149155	-0.296198	-0.006758	-0.004735	0.002405
235	1.235552	0.005000	9.528112	1.013032	1.701737	0.496943	-0.148597	-0.297319	0.003320	-0.006256	0.015931
236	1.240552	0.005000	9.663436	0.824040	1.726560	0.497389	-0.148040	-0.298440	0.000974	0.001329	0.003691
237	1.245552	0.005000	9.598618	0.745560	1.660109	0.497835	-0.147482	-0.299561	0.007727	-0.012496	-0.005884
238	1.250552	0.005000	9.589294	0.770066	1.711826	0.498282	-0.146924	-0.300683	-0.003238	-0.004359	-0.001630
239	1.255552	0.005000	9.584604	0.801909	1.817127	0.498728	-0.146366	-0.301804	-0.001860	-0.004269	0.005130
240	1.260552	0.005000	9.555061	0.745318	1.765800	0.499174	-0.145808	-0.302925	-0.000385	-0.007979	0.011261
241	1.265552	0.005000	9.613800	0.779763	1.782901	0.499620	-0.145251	-0.304046	0.004137	-0.012673	0.003966
242	1.270552	0.005000	9.594088	0.912376	1.795184	0.499950	-0.144793	-0.304944	-0.000844	-0.009368	0.012142
243	1.275552	0.005000	9.667722	0.826444	1.724156	0.499616	-0.144904	-0.304571	0.000151	-0.000009	0.000058
244	1.280552	0.005000	9.623671	0.774929	1.775426	0.499281	-0.145016	-0.304197	0.007209	-0.010298	0.001210
245	1.285552	0.005000	9.606344	0.706320	1.719104	0.498946	-0.145127	-0.303824	-0.001193	-0.003097	0.019563
246	1.290552	0.005000	9.623901	0.784800	1.618941	0.498612	-0.145239	-0.303450	-0.002535	-0.005071	0.002509
247	1.295552	0.005000	9.796833	0.858013	1.729193	0.498277	-0.145350	-0.303077	0.010266	-0.020013	0.010960
248	1.300552	0.005000	9.653040	0.823813	1.726787	0.497943	-0.145462	-0.302703	0.006310	-0.013255	0.011899
249	1.305552	0.005000	9.578937	0.747749	1.654646	0.497608	-0.145573	-0.302329	0.012034	-0.019259	0.015593
250	1.310552	0.005000	9.579153	0.750153	1.691913	0.497274	-0.145685	-0.301956	0.005359	-0.009434	-0.002458
251	1.315552	0.005000	9.510099	0.720339	1.687320	0.496939	-0.145797	-0.301582	0.008497	-0.009649	0.004026
252	1.320552	0.005000	9.613800	0.676496	1.696736	0.496605	-0.145908	-0.301209	-0.003373	-0.013136	0.008591
253	1.325552	0.005000	9.680461	0.827822	1.726560	0.496270	-0.146020	-0.300835	-0.004726	-0.013495	0.008907
254	1.330552	0.005000	9.667273	0.852506	1.765800	0.495935	-0.146131	-0.300462	0.005288	-0.016751	0.010175
255	1.335552	0.005000	9.557918	0.846638	1.731291	0.495601	-0.146243	-0.300088	0.009688	-0.006818	-0.001381
256	1.340552	0.005000	9.633986	0.862147	1.686187	0.495607	-0.146184	-0.300000	-0.003256	-0.004712	0.011956
257	1.345552	0.005000	9.596025	0.881055	1.626615	0.495719	-0.146072	-0.300000	-0.003048	-0.000768	0.007587
258	1.350552	0.005000	9.559372	0.863280	1.687320	0.495830	-0.145961	-0.300000	0.003631	-0.011572	-0.003545
259	1.355552	0.005000	9.535320	0.849635	1.673675	0.495942	-0.145849	-0.300000	0.006723	-0.017506	0.011114
260	1.360552	0.005000	9.545743	0.902520	1.716137	0.496054	-0.145737	-0.300000	-0.001092	-0.010458	0.012783
261	1.365552	0.005000	9.543353	0.792833	1.734593	0.496165	-0.145626	-0.300000	0.006258	-0.005991	0.010643
262	1.370552	0.005000	9.490422	0.874595	1.681662	0.496277	-0.145514	-0.300000	0.001436	-0.014982	0.005610
263	1.375552	0.005000	9.502615	0.899253	1.693855	0.496388	-0.145403	-0.300000	-0.006914	-0.008508	-0.001489
264	1.380552	0.005000	9.613800	0.863280	1.726131	0.496500	-0.145291	-0.300000	0.003596	-0.009587	0.009262
265	1.385552	0.005000	9.613800	0.825991	1.799186	0.496612	-0.145179	-0.300000	0.009303	-0.003416	0.009719
266	1.390552	0.005000	9.618142	0.933077	1.696003	0.496723	-0.145068	-0.300000	0.007500	-0.007313	0.015198
267	1.395552	0.005000	9.607084	0.824040	1.772516	0.496835	-0.144956	-0.300000	-0.005107	-0.005292	0.006874
268	1.400552	0.005000	9.713307	0.833147	1.774907	0.496946	-0.144845	-0.300000	0.010868	-0.002328	0.011651
269	1.405552	0.005000	9.726725	0.869966	1.620322	0.497015	-0.144862	-0.300000	0.017213	0.001132	0.016983
270	1.410552	0.005000	9.681108	0.810006	1.802178	0.497015	-0.145085	-0.300000	0.009588	-0.000580	0.009983
271	1.415552	0.005000	9.653040	0.791167	1.775870	0.497015	-0.145308	-0.300000	0.003362	-0.001835	0.017715
272	1.420552	0.005000	9.554411	0.864339	1.785949	0.497015	-0.145531	-0.300000	0.002806	-0.009398	0.012508
273	1.425552	0.005000	9.613800	0.927677	1.779883	0.497015	-0.145754	-0.300000	0.013070	-0.010713	0.008183
274	1.430552	0.005000	9.707664	0.917904	1.765800	0.497015	-0.145978	-0.300000	0.007417	-0.006798	0.017459
275	1.435552	0.005000	9.666261	0.902732	1.713551	0.497015	-0.146201	-0.300000	0.011696	-0.007988	0.006099
276	1.440552	0.005000	9.671041	0.795419	1.719178	0.497015	-0.146424	-0.300000	0.003820	-0.008881	-0.000159
277	1.445552	0.005000	9.535320	0.855036	1.796796	0.497015	-0.146647	-0.300000	0.015969	-0.009440	0.000341
278	1.450552	0.005000	9.624727	0.795727	1.861666	0.497015	-0.146870	-0.300000	0.010268	-0.010916	0.010805
279	1.455552	0.005000	9.649993	0.817947	1.726560	0.497015	-0.147093	-0.300000	0.003772	-0.005100	-0.002090
280	1.460552	0.005000	9.573917	0.824040	1.726560	0.497015	-0.147316	-0.300000	0.001578	-0.015345	0.002272
281	1.465552	0.005000	9.497835	0.861525	1.764045	0.497015	-0.147539	-0.300000	-0.002609	-0.008087	0.003811
282	1.470552	0.005000	9.657220	0.859100	1.765800	0.497016	-0.147761	-0.300002	0.004614	-0.005256	-0.005514
283	1.475552	0.005000	9.718328	0.726108	1.693916	0.497239	-0.147761	-0.300251	0.004876	-0.007921	0.002302
284	1.480552	0.005000	9.681131	0.824040	1.765800	0.497462	-0.147761	-0.300500	-0.000685	-0.010147	0.009618
285	1.485552	0.005000	9.641301	0.733821	1.793301	0.497685	-0.147761	-0.300749	0.002731	-0.010054	0.008766
286	1.490552	0.005000	9.585542	0.809911	1.801894	0.497908	-0.147761	-0.300998	0.001847	-0.006120	0.012203
287	1.495552	0.005000	9.682009	0.869512	1.838048	0.498131	-0.147761	-0.301247	0.007467	-0.013905	0.007088
288	1.500552	0.005000	9.653040	0.941760	1.666185	0.498354	-0.147761	-0.301496	-0.000490	-0.009073	0.005149
289	1.505552	0.005000	9.653040	0.745560	1.626554	0.498578	-0.147761	-0.301745	-0.007502	-0.003776	0.001709
290	1.510552	0.005000	9.709519	0.839350	1.632770	0.498801	-0.147761	-0.301994	0.002935	-0.009902	-0.002350
291	1.515552	0.005000	9.639304	0.901537	1.648080	0.499024	-0.147761	-0.302243	0.001222	-0.009103	0.007859
292	1.520552	0.005000	9.653040	0.899810	1.669055	0.499247	-0.147761	-0.302492	0.011370	-0.011442	0.005424
293	1.525552	0.005000	9.574560	0.840014	1.828306	0.499470	-0.147761	-0.302741	0.012785	-0.003992	0.007484
294	1.530552	0.005000	9.540917	0.779203	1.833086	0.499693	-0.147761	-0.302990	0.006511	-0.007525	0.010586
295	1.535552	0.005000	9.656262	0.827262	1.608840	0.499916	-0.147761	-0.303239	0.008034	-0.009721	0.016440
296	1.540552	0.005000	9.650544	0.863280	1.608840	0.499723	-0.147830	-0.303023	-0.008065	-0.000986	0.002531
297	1.545552	0.005000	9.610677	0.787923	1.646518	0.499276	-0.147942	-0.302525	0.007588	-0.012313	0.011463
298	1.550552	0.005000	9.613800	0.776842	1.660017	0.498830	-0.148054	-0.302027	0.012708	-0.008658	0.005860
299	1.555552	0.005000	9.685503	0.752337	1.641303	0.498384	-0.148165	-0.301529	0.005514	-0.007960	0.002752
300	1.560552	0.005000	9.613800	0.844976	1.648080	0.497938	-0.148277	-0.301030	0.001503	-0.015315	0.007774
301	1.565552	0.005000	9.625342	0.863280	1.664236	0.497492	-0.148388	-0.300532	0.010076	-0.007262	0.002130
302	1.570552	0.005000	9.599883	0.824040	1.659486	0.497045	-0.148500	-0.300034	0.009323	-0.016227	0.007285
303	1.575552	0.005000	9.574560	0.700076	1.631582	0.496599	-0.148611	-0.299536	0.008724	-0.004371	0.001795
304	1.580552	0.005000	9.593468	0.826888	1.746892	0.496153	-0.148723	-0.299037	0.009442	-0.011381	0.009191
305	1.585552	0.005000	9.595879	0.881201	1.801642	0.495707	-0.148835	-0.298539	0.005647	-0.012184	0.001409
306	1.590552	0.005000	9.417600	0.808531	1.711051	0.495261	-0.148946	-0.298041	0.000421	-0.012574	0.001481
307	1.595552	0.005000	9.496141	0.824040	1.634980	0.494814	-0.149058	-0.297543	0.011165	-0.016915	0.010828
308	1.600552	0.005000	9.603241	0.831604	1.697879	0.494368	-0.149169	-0.297044	0.010832	-0.003835	0.011457
309	1.605552	0.005000	9.605616	0.784800	1.796856	0.493976	-0.149254	-0.296818	-0.008400	-0.011398	0.015158
310	1.610552	0.005000	9.580369	0.851662	1.726560	0.493753	-0.149254	-0.297440	-0.002222	-0.004581	0.008135
311	1.615552	0.005000	9.577979	0.899101	1.729979	0.493530	-0.149254	-0.298063	0.006630	-0.008535	-0.001384
312	1.620552	0.005000	9.651996	0.939672	1.725516	0.493307	-0.149254	-0.298686	0.010294	-0.006739	0.004663
313	1.625552	0.005000	9.575922	0.863280	1.687320	0.493084	-0.149254	-0.299308	0.000588	-0.011051	0.006063
314	1.630552	0.005000	9.605420	0.784800	1.757420	0.492861	-0.149254	-0.299931	-0.000665	-0.016039	0.005191
315	1.635552	0.005000	9.653040	0.778235	1.719995	0.492638	-0.149254	-0.300553	-0.002977	-0.008170	0.014431
316	1.640552	0.005000	9.722565	0.824040	1.765800	0.492415	-0.149254	-0.301176	0.009848	-0.012845	0.009788
317	1.645552	0.005000	9.608551	0.745560	1.777130	0.492192	-0.149254	-0.301798	0.010820	-0.002327	0.010020
318	1.650552	0.005000	9.586359	0.849560	1.805040	0.491969	-0.149254	-0.302421	0.008052	-0.006294	0.007220
319	1.655552	0.005000	9.597705	0.893474	1.751701	0.491746	-0.149254	-0.303044	0.005994	-0.009722	0.005308
320	1.660552	0.005000	9.671742	0.822203	1.726560	0.491523	-0.149254	-0.303666	0.005398	-0.005691	0.002986
321	1.665552	0.005000	9.637898	0.805913	1.780942	0.491300	-0.149254	-0.304289	0.002051	-0.009553	0.003236
322	1.670552	0.005000	9.676563	0.761277	1.812952	0.491077	-0.149254	-0.304911	0.000506	-0.007762	0.005550
323	1.675552	0.005000	9.613800	0.836989	1.831134	0.491332	-0.149350	-0.304893	0.013664	-0.005069	0.005761
324	1.680552	0.005000	9.646112	0.774029	1.776571	0.491667	-0.149461	-0.304769	0.007727	-0.009991	0.018825
325	1.685552	0.005000	9.683900	0.815660	1.765800	0.492001	-0.149573	-0.304644	0.004510	-0.007150	0.005184
326	1.690552	0.005000	9.613800	0.790806	1.781018	0.492336	-0.149684	-0.304519	0.002590	-0.010941	0.009187
327	1.695552	0.005000	9.646640	0.866480	1.690520	0.492670	-0.149796	-0.304395	-0.007437	-0.010176	0.003579
328	1.700552	0.005000	9.690688	0.863280	1.648080	0.493005	-0.149907	-0.304270	0.001679	-0.006865	0.001670
329	1.705552	0.005000	9.538527	0.825643	1.572807	0.493340	-0.150019	-0.304146	0.001928	-0.006720	0.008726
330	1.710552	0.005000	9.609822	0.784800	1.679363	0.493674	-0.150130	-0.304021	-0.001397	-0.010765	0.000586
331	1.715552	0.005000	9.620243	0.797686	1.831394	0.494009	-0.150242	-0.303896	0.006730	-0.011430	0.011844
332	1.720552	0.005000	9.583409	0.863280	1.805040	0.494344	-0.150353	-0.303772	-0.001918	-0.003534	0.002367
333	1.725552	0.005000	9.546584	0.846568	1.648080	0.494678	-0.150465	-0.303647	0.004934	-0.011757	-0.000963
334	1.730552	0.005000	9.613800	0.812755	1.648080	0.495013	-0.150576	-0.303523	0.003438	-0.009774	0.002615
335	1.735552	0.005000	9.613800	0.791335	1.648080	0.495348	-0.150688	-0.303398	0.003858	-0.004521	-0.004210
336	1.740552	0.005000	9.654795	0.943515	1.649835	0.495575	-0.150586	-0.303154	0.015788	-0.001955	0.003868
337	1.745552	0.005000	9.640908	0.884398	1.687320	0.495687	-0.150251	-0.302781	0.004000	0.003636	0.005832
338	1.750552	0.005000	9.566785	0.784800	1.624572	0.495798	-0.149917	-0.302407	0.007925	-0.008949	0.011575
339	1.755552	0.005000	9.574560	0.719364	1.687320	0.495910	-0.149582	-0.302034	-0.000586	0.001438	0.015474
340	1.760552	0.005000	9.563924	0.756196	1.747833	0.496022	-0.149248	-0.301660	0.006467	0.006304	0.009220
341	1.765552	0.005000	9.582683	0.792923	1.656203	0.496133	-0.148914	-0.301286	0.005738	-0.000053	0.005856
342	1.770552	0.005000	9.541068	0.712068	1.687320	0.496245	-0.148579	-0.300913	0.005403	-0.009377	0.003056
343	1.775552	0.005000	9.538678	0.902520	1.726560	0.496356	-0.148245	-0.300539	0.005995	-0.015900	0.006929
344	1.780552	0.005000	9.498047	0.826007	1.724593	0.496468	-0.147910	-0.300166	-0.004154	-0.009780	0.000332
345	1.785552	0.005000	9.574560	0.864703	1.685897	0.496579	-0.147576	-0.299792	0.004901	-0.004384	-0.000553
346	1.790552	0.005000	9.618051	0.854779	1.687320	0.496691	-0.147241	-0.299419	0.000100	-0.005163	-0.002213
347	1.795552	0.005000	9.581186	0.830666	1.680694	0.496802	-0.146907	-0.299045	0.005546	0.000181	-0.006084
348	1.800552	0.005000	9.535320	0.733322	1.856518	0.496914	-0.146572	-0.298672	0.011624	-0.014929	0.004587
349	1.805552	0.005000	9.602409	0.773409	1.827822	0.497005	-0.146269	-0.298345	0.003729	-0.007018	0.010415
350	1.810552	0.005000	9.574560	0.759326	1.752034	0.496893	-0.146269	-0.298469	0.007047	-0.008116	0.011214
351	1.815552	0.005000	9.574560	0.784800	1.756005	0.496781	-0.146269	-0.298594	0.007792	-0.006377	0.007321
352	1.820552	0.005000	9.656500	0.842795	1.726560	0.496670	-0.146269	-0.298718	0.008210	-0.016646	-0.002330
353	1.825552	0.005000	9.710354	0.938669	1.786966	0.496558	-0.146269	-0.298843	0.005860	-0.014788	0.001218
354	1.830552	0.005000	9.676618	0.918182	1.773715	0.496447	-0.146269	-0.298968	0.002997	-0.004110	0.008024
355	1.835552	0.005000	9.653040	0.994100	1.661180	0.496335	-0.146269	-0.299092	0.009833	-0.013519	0.001157
356	1.840552	0.005000	9.517500	0.898920	1.658790	0.496223	-0.146269	-0.299217	0.003432	-0.008492	0.002324
357	1.845552	0.005000	9.568660	0.863280	1.577935	0.496112	-0.146269	-0.299341	0.004108	-0.008531	0.008949
358	1.850552	0.005000	9.647485	0.711875	1.765800	0.496000	-0.146269	-0.299466	-0.002365	-0.002580	0.016560
359	1.855552	0.005000	9.686003	0.827179	1.726560	0.495889	-0.146269	-0.299591	-0.011610	0.001419	-0.005398
360	1.860552	0.005000	9.653040	0.861811	1.726560	0.495777	-0.146269	-0.299715	0.000442	-0.006404	0.006982
361	1.865552	0.005000	9.615464	0.784800	1.726560	0.495665	-0.146269	-0.299840	0.001922	0.001777	0.006456
362	1.870552	0.005000	9.578648	0.863280	1.788689	0.495554	-0.146269	-0.299964	0.008004	-0.006782	0.011243
363	1.875552	0.005000	9.528816	0.817536	1.733064	0.495602	-0.146349	-0.299822	-0.005940	-0.018179	0.002410
364	1.880552	0.005000	9.631621	0.854369	1.805040	0.495713	-0.146460	-0.299573	-0.001864	-0.005618	0.009634
365	1.885552	0.005000	9.629744	0.886576	1.765800	0.495825	-0.146572	-0.299324	-0.001299	-0.009770	0.014390
366	1.890552	0.005000	9.627823	0.745560	1.869497	0.495936	-0.146683	-0.299075	-0.001286	0.003892	0.002812
367	1.895552	0.005000	9.607386	0.807627	1.798626	0.496048	-0.146795	-0.298826	0.005356	-0.014543	0.023036
368	1.900552	0.005000	9.554108	0.827368	1.687320	0.496159	-0.146906	-0.298577	0.014642	-0.000742	0.014107
369	1.905552	0.005000	9.592622	0.887574	1.765800	0.496271	-0.147017	-0.298328	0.018836	-0.004819	-0.004038
370	1.910552	0.005000	9.653040	0.871146	1.789353	0.496383	-0.147129	-0.298079	0.011742	-0.009888	0.001629
371	1.915552	0.005000	9.600807	0.902520	1.831287	0.496494	-0.147240	-0.297830	0.003676	-0.008745	-0.002025
372	1.920552	0.005000	9.535320	0.834619	1.762723	0.496606	-0.147352	-0.297581	0.008353	-0.014790	0.014599
373	1.925552	0.005000	9.597455	0.706320	1.617012	0.496717	-0.147463	-0.297332	0.000245	-0.000517	0.008537
374	1.930552	0.005000	9.641527	0.712077	1.693077	0.496829	-0.147575	-0.297083	0.004499	-0.005674	0.013533
375	1.935552	0.005000	9.613800	0.856577	1.772503	0.496940	-0.147686	-0.296834	-0.003976	-0.009895	0.014380
376	1.940552	0.005000	9.652106	0.785734	1.882586	0.496537	-0.148092	-0.295887	-0.003306	-0.010052	-0.004481
377	1.945552	0.005000	9.651588	0.861828	1.693129	0.495087	-0.149096	-0.293520	0.008488	-0.000573	0.006695
378	1.950552	0.005000	9.684595	0.859438	1.644238	0.493636	-0.150100	-0.291153	0.000744	0.001461	0.009650
379	1.955552	0.005000	9.665625	0.791092	1.720268	0.492186	-0.151104	-0.288786	0.018869	-0.012384	0.005530
380	1.960552	0.005000	9.605092	0.854572	1.696028	0.490736	-0.152108	-0.286419	0.009344	-0.014244	0.005081
381	1.965552	0.005000	9.670050	0.784800	1.715445	0.489286	-0.153112	-0.284052	0.010072	-0.010458	0.007025
382	1.970552	0.005000	9.562378	0.757742	1.753618	0.487835	-0.154116	-0.281685	0.007498	-0.007135	0.005038
383	1.975552	0.005000	9.621164	0.792164	1.773164	0.486385	-0.155120	-0.279318	0.010223	-0.012703	0.001811
384	1.980552	0.005000	9.592902	0.920862	1.724003	0.484935	-0.156124	-0.276951	0.004823	-0.007311	0.006632
385	1.985552	0.005000	9.496080	0.884246	1.671739	0.483484	-0.157128	-0.274584	-0.001155	-0.008254	0.010799
386	1.990552	0.005000	9.472724	0.753033	1.758327	0.482034	-0.158132	-0.272217	0.007007	-0.009773	0.008426
387	1.995552	0.005000	9.547543	0.706320	1.699543	0.480584	-0.159136	-0.269850	0.003488	-0.001034	0.006276
388	2.000552	0.005000	9.563441	0.723323	1.737679	0.479134	-0.160141	-0.267483	0.007964	-0.006651	-0.002272
389	2.005552	0.005000	9.631287	0.776056	1.709073	0.477683	-0.161145	-0.265116	0.006107	-0.010689	0.011911
390	2.010552	0.005000	9.646687	0.758267	1.654433	0.478248	-0.160664	-0.266303	0.006026	-0.012672	-0.005701
391	2.015552	0.005000	9.641105	0.784800	1.718603	0.478918	-0.160106	-0.267673	0.004744	-0.010645	0.009765
392	2.020552	0.005000	9.653040	0.825188	1.650376	0.479587	-0.159548	-0.269043	0.003967	-0.005358	0.002199
393	2.025552	0.005000	9.577071	0.825296	1.726560	0.480256	-0.158990	-0.270414	0.004558	-0.013764	0.006176
394	2.030552	0.005000	9.531689	0.824040	1.765800	0.480926	-0.158432	-0.271784	0.005586	-0.015168	0.007982
395	2.035552	0.005000	9.634978	0.796841	1.699361	0.481595	-0.157875	-0.273154	0.003865	-0.016030	-0.005246
396	2.040552	0.005000	9.513074	0.807046	1.709566	0.482264	-0.157317	-0.274525	0.006694	-0.012737	0.006213
397	2.045552	0.005000	9.581064	0.874192	1.737472	0.482934	-0.156759	-0.275895	0.006319	-0.006128	-0.001531
398	2.050552	0.005000	9.627120	0.837360	1.648080	0.483603	-0.156201	-0.277265	0.010837	-0.002117	0.005024
399	2.055552	0.005000	9.700055	0.941760	1.718602	0.484272	-0.155643	-0.278635	0.006214	-0.010602	0.005715
400	2.060552	0.005000	9.592955	0.860829	1.687320	0.484942	-0.155085	-0.280006	0.002489	-0.013684	0.002903
401	2.065552	0.005000	9.473011	0.821741	1.705790	0.485611	-0.154528	-0.281376	0.001194	-0.008641	0.018396
402	2.070552	0.005000	9.528240	0.932759	1.733640	0.486280	-0.153970	-0.282746	0.010372	-0.002146	0.000617
403	2.075552	0.005000	9.549025	0.731855	1.765800	0.487205	-0.153476	-0.284187	0.020828	-0.016592	0.011528
404	2.080552	0.005000	9.546650	0.751641	1.777130	0.488320	-0.153030	-0.285682	0.008519	-0.014627	0.007778
405	2.085552	0.005000	9.574560	0.745560	1.835340	0.489435	-0.152584	-0.287176	0.006735	-0.015938	0.002295
406	2.090552	0.005000	9.562220	0.757900	1.765800	0.490550	-0.152138	-0.288670	0.008068	-0.004919	0.018642
407	2.095552	0.005000	9.613800	0.820275	1.797510	0.491665	-0.151692	-0.290164	0.005052	-0.008356	0.003796
408	2.100552	0.005000	9.573229	0.901189	1.765800	0.492780	-0.151246	-0.291658	0.006331	-0.012296	0.017594
409	2.105552	0.005000	9.535320	0.863280	1.803984	0.493895	-0.150800	-0.293153	0.006012	-0.007175	0.004151
410	2.110552	0.005000	9.578034	0.827514	1.690794	0.495011	-0.150354	-0.294647	0.011421	-0.016691	0.006869
411	2.115552	0.005000	9.602042	0.784800	1.681441	0.496126	-0.149908	-0.296141	0.007131	-0.007409	0.011543
412	2.120552	0.005000	9.627082	0.854627	1.774453	0.497241	-0.149462	-0.297635	0.003634	-0.006497	-0.003987
413	2.125552	0.005000	9.546363	0.817929	1.833237	0.498356	-0.149016	-0.299129	0.016476	-0.008559	0.012322
414	2.130552	0.005000	9.613800	0.824040	1.700738	0.499471	-0.148570	-0.300624	0.012217	-0.000580	0.002018
415	2.135552	0.005000	9.574560	0.917028	1.664073	0.500586	-0.148124	-0.302118	0.003936	-0.016761	0.007912
416	2.140552	0.005000	9.597831	0.842443	1.744963	0.501410	-0.147761	-0.303217	0.012295	-0.007811	0.006016
417	2.145552	0.005000	9.676241	0.900133	1.668894	0.500963	-0.147761	-0.302594	0.010197	-0.011769	0.008176
418	2.150552	0.005000	9.629814	0.902520	1.726560	0.500517	-0.147761	-0.301971	0.005146	-0.008037	0.012015
419	2.155552	0.005000	9.588165	0.928155	1.714531	0.500071	-0.147761	-0.301348	-0.000694	-0.001708	0.004221
420	2.160552	0.005000	9.552444	0.913578	1.748676	0.499624	-0.147761	-0.300725	0.011599	-0.003971	0.009316
421	2.165552	0.005000	9.522129	0.832723	1.713369	0.499178	-0.147761	-0.300102	0.002138	-0.010557	0.005908
422	2.170552	0.005000	9.692280	0.778492	1.718860	0.498732	-0.147761	-0.299480	0.007764	-0.007266	0.005714
423	2.175552	0.005000	9.762924	0.792636	1.765800	0.498286	-0.147761	-0.298857	0.001862	-0.007813	0.016647
424	2.180552	0.005000	9.690737	0.828669	1.726560	0.497839	-0.147761	-0.298234	0.003224	-0.008023	0.000699
425	2.185552	0.005000	9.691423	0.826611	1.573028	0.497393	-0.147761	-0.297611	0.001107	-0.011280	0.011832
426	2.190552	0.005000	9.649349	0.824040	1.573291	0.496947	-0.147761	-0.296988	-0.005463	-0.013007	0.003080
427	2.195552	0.005000	9.665172	0.796932	1.720494	0.496500	-0.147761	-0.296365	0.004678	-0.010835	0.014355
428	2.200552	0.005000	9.560688	0.807128	1.751928	0.496054	-0.147761	-0.295742	0.004256	0.005843	0.011474
429	2.205552	0.005000	9.602838	0.863280	1.648080	0.495608	-0.147761	-0.295120	0.003563	-0.003914	0.010035
430	2.210552	0.005000	9.587048	0.783912	1.764912	0.495342	-0.147761	-0.295503	-0.001861	-0.011662	0.007774
431	2.215552	0.005000	9.574560	0.769015	1.710775	0.495119	-0.147761	-0.296126	-0.002685	-0.006001	0.000134
432	2.220552	0.005000	9.598450	0.742713	1.768647	0.494896	-0.147761	-0.296748	0.007247	-0.002148	0.004475
433	2.225552	0.005000	9.634408	0.840697	1.689295	0.494673	-0.147761	-0.297371	0.001389	-0.003776	0.009165
434	2.230552	0.005000	9.525893	0.863280	1.680525	0.494450	-0.147761	-0.297993	0.006630	-0.003312	0.000467
435	2.235552	0.005000	9.562940	0.874900	1.648080	0.494227	-0.147761	-0.298616	0.003885	-0.004840	0.003641
436	2.240552	0.005000	9.574560	0.885820	1.592140	0.494004	-0.147761	-0.299238	0.003096	-0.010616	0.007362
437	2.245552	0.005000	9.535320	0.906241	1.696200	0.493781	-0.147761	-0.299861	0.009428	-0.004441	0.017853
438	2.250552	0.005000	9.653040	0.784800	1.765800	0.493558	-0.147761	-0.300483	-0.003833	-0.003838	0.008301
439	2.255552	0.005000	9.657155	0.788915	1.761685	0.493335	-0.147761	-0.301106	0.010056	-0.001866	0.010912
440	2.260552	0.005000	9.647821	0.824040	1.689060	0.493112	-0.147761	-0.301729	0.007623	-0.002379	0.019548
441	2.265552	0.005000	9.612514	0.824040	1.687963	0.492889	-0.147761	-0.302351	0.008706	-0.008777	0.007644
442	2.270552	0.005000	9.686158	0.905581	1.765800	0.492666	-0.147761	-0.302974	0.008454	-0.006086	0.012240
443	2.275552	0.005000	9.675883	0.801197	1.569600	0.492631	-0.147761	-0.303228	0.000005	-0.007274	0.002310
444	2.280552	0.005000	9.692280	0.737678	1.702915	0.492854	-0.147761	-0.302979	0.003296	-0.015964	0.010015
445	2.285552	0.005000	9.663674	0.842011	1.726560	0.493078	-0.147761	-0.302729	-0.006668	-0.002526	0.007010
446	2.290552	0.005000	9.757962	0.876289	1.621849	0.493301	-0.147761	-0.302480	0.001775	-0.005596	0.001291
447	2.295552	0.005000	9.707680	0.776359	1.655039	0.493524	-0.147761	-0.302231	0.003338	-0.004433	0.006866
448	2.300552	0.005000	9.631574	0.845506	1.765800	0.493747	-0.147761	-0.301982	0.002777	-0.000065	0.009765
449	2.305552	0.005000	9.554395	0.764635	1.667155	0.493970	-0.147761	-0.301733	0.006260	-0.008490	0.005314
450	2.310552	0.005000	9.636340	0.728860	1.631380	0.494193	-0.147761	-0.301484	-0.004253	-0.004196	0.004297
451	2.315552	0.005000	9.639021	0.720339	1.639693	0.494416	-0.147761	-0.301235	0.002985	-0.011753	0.013329
452	2.320552	0.005000	9.680675	0.796405	1.722135	0.494639	-0.147761	-0.300986	0.004703	-0.008237	0.010223
453	2.325552	0.005000	9.625447	0.784800	1.786644	0.494862	-0.147761	-0.300736	0.008196	-0.011884	0.008004
454	2.330552	0.005000	9.542102	0.752342	1.719778	0.495086	-0.147761	-0.300487	0.005917	-0.012012	0.014574
455	2.335552	0.005000	9.609474	0.828366	1.691646	0.495309	-0.147761	-0.300238	0.009540	-0.007185	-0.005037
456	2.340552	0.005000	9.574560	0.786736	1.573473	0.495527	-0.147746	-0.300011	0.012559	-0.003923	0.011596
457	2.345552	0.005000	9.535764	0.746448	1.725672	0.495638	-0.147412	-0.300260	0.008150	0.003912	0.010802
458	2.350552	0.005000	9.722934	0.854694	1.717974	0.495750	-0.147077	-0.300509	0.010780	-0.002516	0.004869
459	2.355552	0.005000	9.653040	0.891987	1.585400	0.495862	-0.146743	-0.300758	0.009390	-0.007643	0.017920
460	2.360552	0.005000	9.621470	0.870950	1.601170	0.495973	-0.146408	-0.301007	-0.007321	-0.012218	0.010073
461	2.365552	0.005000	9.653040	0.755983	1.648080	0.496085	-0.146074	-0.301256	-0.000340	-0.013798	0.009536
462	2.370552	0.005000	9.587373	0.889707	1.647278	0.496196	-0.145739	-0.301505	0.000098	-0.009872	0.001058
463	2.375552	0.005000	9.583425	0.815175	1.702508	0.496308	-0.145405	-0.301754	0.005282	-0.001752	0.007744
464	2.380552	0.005000	9.713942	0.763138	1.726560	0.496419	-0.145070	-0.302003	0.009188	-0.011747	0.012413
465	2.385552	0.005000	9.692280	0.706320	1.785753	0.496531	-0.144736	-0.302252	0.006879	-0.014648	-0.000650
466	2.390552	0.005000	9.714884	0.706320	1.749164	0.496642	-0.144401	-0.302501	0.010607	-0.012023	-0.002138
467	2.395552	0.005000	9.703074	0.759783	1.755006	0.496754	-0.144067	-0.302750	-0.000135	0.000062	0.003782
468	2.400552	0.005000	9.574560	0.769190	1.710950	0.496865	-0.143733	-0.302999	0.000375	-0.013784	0.006825
469	2.405552	0.005000	9.524281	0.824040	1.717160	0.496977	-0.143398	-0.303248	-0.005828	-0.004014	0.007543
470	2.410552	0.005000	9.736194	0.870193	1.701146	0.496868	-0.143505	-0.303169	0.020482	0.003018	0.006858
471	2.415552	0.005000	9.539843	0.897997	1.687320	0.496645	-0.143839	-0.302920	0.012733	-0.014467	0.011486
472	2.420552	0.005000	9.613800	0.826188	1.724412	0.496422	-0.144174	-0.302671	-0.001849	-0.012560	0.001833
473	2.425552	0.005000	9.691790	0.785290	1.765310	0.496199	-0.144508	-0.302421	0.003259	-0.007276	0.015983
474	2.430552	0.005000	9.621746	0.863280	1.729209	0.495976	-0.144843	-0.302172	-0.004772	-0.001784	0.010250
475	2.435552	0.005000	9.618866	0.794931	1.682254	0.495752	-0.145178	-0.301923	0.002439	-0.018380	0.011620
476	2.440552	0.005000	9.606329	0.721263	1.734031	0.495529	-0.145512	-0.301674	0.000854	-0.010481	0.014355
477	2.445552	0.005000	9.565998	0.784800	1.658306	0.495306	-0.145847	-0.301425	0.007685	-0.007910	0.004901
478	2.450552	0.005000	9.613800	0.863280	1.621446	0.495083	-0.146182	-0.301176	0.004576	-0.006001	0.011940
479	2.455552	0.005000	9.668031	0.926769	1.765800	0.494860	-0.146516	-0.300927	0.010593	-0.011492	-0.001222
480	2.460552	0.005000	9.609292	0.802166	1.743926	0.494637	-0.146851	-0.300678	0.005483	-0.008588	0.004086
481	2.465552	0.005000	9.457112	0.804284	1.648080	0.494414	-0.147185	-0.300428	0.003039	-0.004352	0.007862
482	2.470552	0.005000	9.569538	0.811953	1.743669	0.494191	-0.147520	-0.300179	0.008546	-0.008468	0.006833
483	2.475552	0.005000	9.550039	0.770081	1.726560	0.494061	-0.147792	-0.300070	0.010054	-0.007385	0.014739
484	2.480552	0.005000	9.560008	0.850936	1.687320	0.494173	-0.147904	-0.300319	0.010609	-0.010626	0.004308
485	2.485552	0.005000	9.623754	0.892566	1.805040	0.494284	-0.148015	-0.300568	0.009528	-0.005741	0.020327
486	2.490552	0.005000	9.598643	0.887363	1.765800	0.494396	-0.148127	-0.300817	0.002417	-0.006491	0.003834
487	2.495552	0.005000	9.535320	0.858490	1.765800	0.494507	-0.148238	-0.301066	0.005869	-0.010394	0.011224
488	2.500552	0.005000	9.645921	0.784800	1.765800	0.494619	-0.148350	-0.301315	0.004592	-0.005883	0.007583
489	2.505552	0.005000	9.613739	0.824010	1.765800	0.494730	-0.148461	-0.301564	0.008099	-0.007351	0.003939
490	2.510552	0.005000	9.579401	0.787220	1.805040	0.494841	-0.148573	-0.301813	0.009723	-0.003929	0.007889
491	2.515552	0.005000	9.604209	0.858485	1.726560	0.494953	-0.148685	-0.302062	0.004987	-0.017170	-0.000521
492	2.520552	0.005000	9.660225	0.863280	1.701691	0.495064	-0.148796	-0.302311	0.004934	-0.015895	0.007287
493	2.525552	0.005000	9.613800	0.813828	1.628192	0.495176	-0.148908	-0.302560	0.000529	-0.003523	0.010467
494	2.530552	0.005000	9.571591	0.718410	1.687320	0.495287	-0.149019	-0.302809	0.003055	-0.015970	0.002792
495	2.535552	0.005000	9.628299	0.784800	1.751301	0.495399	-0.149131	-0.303058	-0.002222	-0.012411	0.004512
496	2.540552	0.005000	9.692280	0.672515	1.748898	0.495510	-0.149242	-0.303307	-0.007438	-0.008314	0.001149
497	2.545552	0.005000	9.613800	0.804726	1.726560	0.495422	-0.148855	-0.302999	-0.004083	-0.013667	0.004966
498	2.550552	0.005000	9.592075	0.841555	1.665595	0.495311	-0.148409	-0.302625	0.000470	-0.010339	0.006109
499	2.555552	0.005000	9.701309	0.878385	1.780905	0.495199	-0.147963	-0.302252	0.005596	-0.010896	0.015054
500	2.560552	0.005000	9.651421	0.955919	1.778340	0.495088	-0.147517	-0.301878	-0.001065	-0.002623	0.016672
501	2.565552	0.005000	9.653040	0.853115	1.706229	0.494976	-0.147071	-0.301504	0.003197	-0.004653	-0.002303
502	2.570552	0.005000	9.747434	0.855505	1.663631	0.494865	-0.146625	-0.301131	-0.000895	-0.014145	0.008156
503	2.575552	0.005000	9.647640	0.834841	1.648080	0.494753	-0.146179	-0.300757	0.001919	-0.010555	-0.002149
504	2.580552	0.005000	9.725499	0.860270	1.687320	0.494642	-0.145733	-0.300384	0.013234	-0.012699	0.003715
505	2.585552	0.005000	9.535955	0.901885	1.725289	0.494530	-0.145287	-0.300010	0.018582	-0.007945	0.005809
506	2.590552	0.005000	9.499631	0.750886	1.648080	0.494419	-0.144841	-0.299637	0.007474	-0.006864	0.005360
507	2.595552	0.005000	9.622159	0.788980	1.730740	0.494308	-0.144395	-0.299263	0.012357	-0.002728	0.006864
508	2.600552	0.005000	9.613800	0.791774	1.726560	0.494196	-0.143949	-0.298890	0.009073	-0.001261	0.005042
509	2.605552	0.005000	9.595073	0.893156	1.677956	0.494085	-0.143503	-0.298516	0.008950	-0.012369	0.009203
510	2.610552	0.005000	9.598037	0.831755	1.687320	0.494428	-0.143227	-0.298270	0.000975	-0.006484	0.010966
511	2.615552	0.005000	9.521191	0.824040	1.794058	0.495209	-0.143116	-0.298145	0.009256	-0.013813	0.005099
512	2.620552	0.005000	9.636536	0.846776	1.765800	0.495989	-0.143004	-0.298021	0.003469	-0.004953	0.007206
513	2.625552	0.005000	9.632694	0.822588	1.706214	0.496770	-0.142892	-0.297896	-0.001527	-0.011547	0.008810
514	2.630552	0.005000	9.556846	0.745560	1.722748	0.497550	-0.142781	-0.297772	0.002578	-0.013972	0.007900
515	2.635552	0.005000	9.559250	0.754180	1.687320	0.498331	-0.142669	-0.297647	-0.004167	-0.005633	-0.008022
516	2.640552	0.005000	9.522419	0.758461	1.674419	0.499112	-0.142558	-0.297523	0.009547	-0.008243	0.004430
517	2.645552	0.005000	9.595535	0.813553	1.687320	0.499892	-0.142446	-0.297398	-0.002207	-0.009753	0.006896
518	2.650552	0.005000	9.692280	0.706320	1.726560	0.500673	-0.142335	-0.297274	-0.003032	-0.011614	0.002480
519	2.655552	0.005000	9.720326	0.717514	1.793846	0.501453	-0.142223	-0.297149	0.008521	-0.010772	0.010609
520	2.660552	0.005000	9.610578	0.824040	1.723338	0.502234	-0.142112	-0.297025	0.008160	-0.001974	0.000104
521	2.665552	0.005000	9.574560	0.824040	1.842616	0.503014	-0.142000	-0.296900	0.007970	-0.015155	0.005353
522	2.670552	0.005000	9.574560	0.824040	1.803478	0.503795	-0.141889	-0.296776	0.002344	-0.003277	0.009215
523	2.675552	0.005000	9.504854	0.858893	1.765800	0.504408	-0.141763	-0.296729	-0.003104	-0.004272	0.010874
524	2.680552	0.005000	9.600246	0.817263	1.863189	0.503850	-0.141540	-0.297228	-0.002835	-0.000584	0.007297
525	2.685552	0.005000	9.565408	0.814888	1.726560	0.503293	-0.141317	-0.297726	-0.005095	-0.000747	0.009774
526	2.690552	0.005000	9.546862	0.812498	1.765800	0.502735	-0.141094	-0.298224	0.002555	-0.007891	0.011262
527	2.695552	0.005000	9.692280	0.939249	1.726560	0.502177	-0.140871	-0.298722	-0.000101	-0.006882	0.004349
528	2.700552	0.005000	9.659284	0.795054	1.811284	0.501619	-0.140648	-0.299221	0.011002	-0.013000	0.002034
529	2.705552	0.005000	9.613800	0.723804	1.744044	0.501061	-0.140424	-0.299719	0.012666	-0.002095	0.004154
530	2.710552	0.005000	9.574560	0.766879	1.687320	0.500504	-0.140201	-0.300217	0.013223	-0.008266	-0.002035
531	2.715552	0.005000	9.566338	0.800309	1.663589	0.499946	-0.139978	-0.300715	0.008802	-0.009671	0.003049
532	2.720552	0.005000	9.640091	0.863280	1.765800	0.499388	-0.139755	-0.301214	0.004525	0.002045	-0.000268
533	2.725552	0.005000	9.585247	0.931073	1.833593	0.498830	-0.139532	-0.301712	0.006431	-0.010351	0.009505
534	2.730552	0.005000	9.700464	0.846912	1.788672	0.498272	-0.139309	-0.302210	-0.001525	-0.000076	0.012677
535	2.735552	0.005000	9.619609	0.729555	1.720751	0.497714	-0.139086	-0.302708	0.003208	-0.005287	0.003655
536	2.740552	0.005000	9.610381	0.934922	1.697576	0.497157	-0.138863	-0.303207	0.009766	-0.004957	0.017182
537	2.745552	0.005000	9.650952	0.746604	1.723429	0.496932	-0.139389	-0.302775	0.009016	-0.003951	0.009683
538	2.750552	0.005000	9.650316	0.784800	1.684596	0.496820	-0.140170	-0.302028	0.005250	-0.007295	0.005604
539	2.755552	0.005000	9.622180	0.714700	1.613030	0.496709	-0.140951	-0.301280	0.001310	-0.005233	-0.002675
540	2.760552	0.005000	9.613800	0.738995	1.693885	0.496597	-0.141732	-0.300533	-0.005603	-0.005164	0.008505
541	2.765552	0.005000	9.692280	0.815085	1.813995	0.496485	-0.142512	-0.299786	-0.001475	-0.005826	0.001833
542	2.770552	0.005000	9.653040	0.807461	1.698650	0.496374	-0.143293	-0.299038	0.000392	-0.012900	-0.001726
543	2.775552	0.005000	9.664518	0.770919	1.675842	0.496262	-0.144074	-0.298291	-0.003742	-0.016928	0.011525
544	2.780552	0.005000	9.685620	0.784800	1.671030	0.496151	-0.144855	-0.297543	0.004177	-0.008321	-0.001817
545	2.785552	0.005000	9.611963	0.842742	1.745262	0.496039	-0.145636	-0.296796	0.004805	-0.012367	0.002780
546	2.790552	0.005000	9.653040	0.787785	1.723575	0.495927	-0.146417	-0.296048	0.000859	-0.006471	0.007331
547	2.795552	0.005000	9.676563	0.808323	1.781517	0.495816	-0.147198	-0.295301	-0.000448	-0.012922	-0.003676
548	2.800552	0.005000	9.482775	0.758865	1.660711	0.495704	-0.147979	-0.294553	0.001427	-0.015981	0.010893
549	2.805552	0.005000	9.506851	0.813269	1.765800	0.495593	-0.148760	-0.293806	0.005689	-0.010289	0.006672
550	2.810552	0.005000	9.630561	0.762321	1.757420	0.495481	-0.149090	-0.293424	0.016616	-0.016334	0.010199
551	2.815552	0.005000	9.607794	0.824040	1.771806	0.495370	-0.148644	-0.293674	0.002191	-0.007941	0.012792
552	2.820552	0.005000	9.492449	0.859649	1.812301	0.495258	-0.148198	-0.293923	0.005774	-0.016360	0.007582
553	2.825552	0.005000	9.497320	0.821559	1.841799	0.495147	-0.147752	-0.294172	-0.005673	-0.012221	0.007039
554	2.830552	0.005000	9.611503	0.707468	1.727708	0.495035	-0.147306	-0.294421	0.005637	0.001175	0.012435
555	2.835552	0.005000	9.610234	0.849016	1.683754	0.494924	-0.146860	-0.294670	0.013849	-0.004462	0.010154
556	2.840552	0.005000	9.672146	0.863280	1.693689	0.494812	-0.146414	-0.294919	0.010374	-0.009939	0.014115
557	2.845552	0.005000	9.692280	0.815296	1.687320	0.494701	-0.145968	-0.295168	0.018936	-0.016998	0.014437
558	2.850552	0.005000	9.585694	0.812906	1.698454	0.494589	-0.145522	-0.295417	0.005027	-0.014252	0.011129
559	2.855552	0.005000	9.600291	0.784800	1.688606	0.494478	-0.145076	-0.295666	0.003726	-0.013443	-0.002206
560	2.860552	0.005000	9.637141	0.745560	1.671421	0.494366	-0.144630	-0.295915	0.002693	-0.006025	0.017075
561	2.865552	0.005000	9.653040	0.845006	1.768493	0.494255	-0.144184	-0.296164	0.007436	-0.005018	0.007561
562	2.870552	0.005000	9.653040	0.863280	1.765800	0.494143	-0.143738	-0.296413	0.006768	-0.011365	0.000884
563	2.875552	0.005000	9.637117	0.784800	1.781723	0.494032	-0.143292	-0.296663	0.006955	-0.003160	0.002120
564	2.880552	0.005000	9.627314	0.746861	1.791526	0.493701	-0.144270	-0.296667	0.006300	-0.014682	0.004859
565	2.885552	0.005000	9.624900	0.784800	1.833180	0.493367	-0.145273	-0.296667	0.006445	-0.007583	-0.000528
566	2.890552	0.005000	9.692280	0.693158	1.778962	0.493032	-0.146277	-0.296667	0.006199	-0.009826	0.005682
567	2.895552	0.005000	9.580837	0.791077	1.699874	0.492698	-0.147280	-0.296667	0.003496	-0.012306	0.020311
568	2.900552	0.005000	9.582214	0.851798	1.761973	0.492363	-0.148284	-0.296667	0.005098	-0.007299	-0.000960
569	2.905552	0.005000	9.616674	0.860406	1.729434	0.492029	-0.149287	-0.296667	0.002089	-0.017477	0.002559
570	2.910552	0.005000	9.692280	0.708218	1.766749	0.491694	-0.150291	-0.296667	0.014308	-0.012583	0.009071
571	2.915552	0.005000	9.684716	0.713884	1.765800	0.491360	-0.151294	-0.296667	0.007750	-0.012975	0.011187
572	2.920552	0.005000	9.613800	0.778643	1.732717	0.491025	-0.152298	-0.296667	0.010693	-0.011507	0.009540
573	2.925552	0.005000	9.583107	0.832587	1.765800	0.490690	-0.153301	-0.296667	0.007281	-0.005222	0.005999
574	2.930552	0.005000	9.563638	0.891598	1.748404	0.490356	-0.154305	-0.296667	0.007284	-0.007590	0.019277
575	2.935552	0.005000	9.587176	0.902520	1.713248	0.490021	-0.155308	-0.296667	0.002955	-0.006472	0.015750
576	2.940552	0.005000	9.582381	0.871146	1.828593	0.489687	-0.156312	-0.296667	0.009907	-0.008340	0.020379
577	2.945552	0.005000	9.659212	0.902520	1.744637	0.489286	-0.156849	-0.295551	0.008480	-0.009018	0.016312
578	2.950552	0.005000	9.632341	0.983159	1.666621	0.488839	-0.157072	-0.293682	-0.004683	-0.010490	0.009266
579	2.955552	0.005000	9.542299	0.831019	1.585731	0.488393	-0.157295	-0.291814	-0.001641	-0.019265	0.020407
580	2.960552	0.005000	9.549038	0.796604	1.675516	0.487947	-0.157519	-0.289945	0.004634	-0.004141	0.008437
581	2.965552	0.005000	9.568857	0.695141	1.720857	0.487501	-0.157742	-0.288077	0.016742	-0.001919	0.010996
582	2.970552	0.005000	9.583349	0.675869	1.656869	0.487054	-0.157965	-0.286208	0.001351	-0.007888	0.002527
583	2.975552	0.005000	9.528906	0.850452	1.687320	0.486608	-0.158188	-0.284339	0.000491	-0.017278	0.009273
584	2.980552	0.005000	9.535320	0.824040	1.683296	0.486162	-0.158411	-0.282471	-0.002650	-0.010167	0.009955
585	2.985552	0.005000	9.538618	0.825689	1.726560	0.485716	-0.158634	-0.280602	-0.006271	-0.003243	0.005354
586	2.990552	0.005000	9.690780	0.824790	1.611090	0.485269	-0.158857	-0.278733	-0.000354	-0.006014	0.012562
587	2.995552	0.005000	9.695865	0.706320	1.655250	0.484823	-0.159080	-0.276865	0.002002	-0.008304	0.002296
588	3.000552	0.005000	9.607840	0.857320	1.675400	0.484377	-0.159303	-0.274996	-0.005057	-0.014015	0.012385
589	3.005552	0.005000	9.543670	0.762260	1.569600	0.483931	-0.159527	-0.273128	-0.002889	-0.014988	0.011802
590	3.010552	0.005000	9.631590	0.727770	1.708770	0.483606	-0.159677	-0.271966	0.000880	-0.002663	0.006094
591	3.015552	0.005000	9.666140	0.640880	1.674220	0.483718	-0.159565	-0.273337	0.000294	0.000011	0.020933
592	3.020552	0.005000	9.613800	0.745560	1.617099	0.483830	-0.159454	-0.274707	-0.000300	0.007252	-0.007051
593	3.025552	0.005000	9.638036	0.706320	1.732715	0.483941	-0.159342	-0.276077	0.009246	-0.002271	-0.008389
594	3.030552	0.005000	9.615545	0.784800	1.707812	0.484053	-0.159231	-0.277447	0.001382	-0.001860	0.002974
595	3.035552	0.005000	9.590896	0.752128	1.693888	0.484164	-0.159119	-0.278818	0.012757	-0.004256	0.001825
596	3.040552	0.005000	9.613800	0.706320	1.636372	0.484276	-0.159008	-0.280188	0.013103	0.004487	0.008021
597	3.045552	0.005000	9.591049	0.756936	1.664569	0.484388	-0.158896	-0.281558	0.006980	-0.003942	0.007044
598	3.050552	0.005000	9.496080	0.706320	1.630079	0.484499	-0.158785	-0.282929	0.000744	0.001834	0.009134
599	3.055552	0.005000	9.620411	0.680301	1.680709	0.484611	-0.158673	-0.284299	0.004581	0.002819	-0.004165
600	3.060552	0.005000	9.649228	0.753184	1.758176	0.484722	-0.158561	-0.285669	0.005858	-0.002200	-0.004468
601	3.065552	0.005000	9.612392	0.825448	1.687320	0.484834	-0.158450	-0.287039	0.005273	0.001010	0.008606
602	3.070552	0.005000	9.612802	0.786797	1.649078	0.484945	-0.158338	-0.288410	-0.005731	0.002011	0.005445
603	3.075552	0.005000	9.613800	0.853160	1.687320	0.485057	-0.158227	-0.289780	-0.002646	-0.000679	0.009229
604	3.080552	0.005000	9.546982	0.712151	1.720729	0.485918	-0.157553	-0.290837	0.002706	0.005365	0.006509
605	3.085552	0.005000	9.456840	0.627840	1.617077	0.486922	-0.156773	-0.291833	0.000738	-0.003216	0.004585
606	3.090552	0.005000	9.642058	0.830333	1.619822	0.487926	-0.155992	-0.292830	0.002394	0.000117	0.004263
607	3.095552	0.005000	9.679785	0.758932	1.779172	0.488930	-0.155211	-0.293826	-0.004045	-0.005411	-0.002259
608	3.100552	0.005000	9.692280	0.784800	1.742307	0.489934	-0.154430	-0.294823	0.002749	0.002131	0.012821
609	3.105552	0.005000	9.613800	0.923638	1.726560	0.490938	-0.153649	-0.295819	0.000161	-0.003426	-0.003409
610	3.110552	0.005000	9.477353	0.844553	1.784527	0.491941	-0.152868	-0.296816	0.012182	-0.007836	0.008685
611	3.115552	0.005000	9.613800	0.840116	1.719471	0.492945	-0.152087	-0.297812	0.007372	-0.003532	0.010407
612	3.120552	0.005000	9.535320	0.849613	1.777707	0.493949	-0.151306	-0.298809	0.005615	-0.009003	0.011159
613	3.125552	0.005000	9.664159	0.841043	1.805040	0.494953	-0.150525	-0.299806	0.000419	-0.001684	0.005638
614	3.130552	0.005000	9.683536	0.767313	1.722294	0.495957	-0.149744	-0.300802	0.006026	0.009143	0.000003
615	3.135552	0.005000	9.574560	0.758267	1.929113	0.496961	-0.148963	-0.301799	-0.005470	-0.001959	0.016468
616	3.140552	0.005000	9.617778	0.867258	1.844280	0.497965	-0.148182	-0.302795	-0.006132	-0.003805	-0.001127
617	3.145552	0.005000	9.689103	0.863280	1.801863	0.498302	-0.147966	-0.302989	0.002512	-0.013047	0.010631
618	3.150552	0.005000	9.727753	0.939249	1.726560	0.497855	-0.148413	-0.302241	0.007150	-0.007411	0.011070
619	3.155552	0.005000	9.649409	0.898889	1.680059	0.497409	-0.148859	-0.301494	0.002323	-0.002764	0.002810
620	3.160552	0.005000	9.659061	0.902520	1.660121	0.496963	-0.149305	-0.300747	-0.002187	-0.011588	0.015157
621	3.165552	0.005000	9.714729	0.894124	1.678924	0.496517	-0.149751	-0.299999	-0.010000	-0.008886	-0.003373
622	3.170552	0.005000	9.681368	0.841456	1.783216	0.496070	-0.150198	-0.299252	0.009092	-0.012472	0.007745
623	3.175552	0.005000	9.601200	0.889920	1.752480	0.495624	-0.150644	-0.298504	0.004486	-0.012056	0.005995
624	3.180552	0.005000	9.645265	0.784800	1.773575	0.495178	-0.151090	-0.297757	0.008802	-0.010882	0.001788
625	3.185552	0.005000	9.631943	0.923617	1.765800	0.494732	-0.151536	-0.297009	0.003650	-0.007866	0.008452
626	3.190552	0.005000	9.694579	0.824040	1.689619	0.494286	-0.151982	-0.296262	0.003468	-0.005230	-0.000418
627	3.195552	0.005000	9.669120	0.886440	1.624920	0.493839	-0.152429	-0.295514	0.003910	-0.012335	0.006448
628	3.200552	0.005000	9.576436	0.812211	1.712855	0.493393	-0.152875	-0.294767	-0.003561	-0.003198	0.004420
629	3.205552	0.005000	9.692280	0.907769	1.731809	0.492947	-0.153321	-0.294019	0.008206	-0.009296	-0.001833
630	3.210552	0.005000	9.653040	0.863280	1.865640	0.492537	-0.153676	-0.293414	-0.004716	-0.010482	0.010999
631	3.215552	0.005000	9.601460	0.784800	1.765800	0.492537	-0.153007	-0.294411	0.002888	-0.007758	0.009060
632	3.220552	0.005000	9.539085	0.851985	1.801275	0.492537	-0.152338	-0.295408	0.010578	-0.014331	0.006949
633	3.225552	0.005000	9.535320	0.745560	1.650775	0.492537	-0.151668	-0.296404	-0.005142	-0.011723	0.000601
634	3.230552	0.005000	9.535320	0.707364	1.688364	0.492537	-0.150999	-0.297401	0.000624	-0.011261	0.004793
635	3.235552	0.005000	9.567612	0.817092	1.651554	0.492537	-0.150330	-0.298398	-0.000334	-0.005569	0.001946
636	3.240552	0.005000	9.541129	0.790609	1.720751	0.492537	-0.149660	-0.299394	0.003515	-0.003169	0.003965
637	3.245552	0.005000	9.622095	0.807450	1.679025	0.492537	-0.148991	-0.300391	0.003573	-0.003293	0.009699
638	3.250552	0.005000	9.681578	0.931058	1.747964	0.492537	-0.148322	-0.301387	0.012004	-0.007307	0.000496
639	3.255552	0.005000	9.600791	0.902520	1.752684	0.492537	-0.147652	-0.302384	0.014414	-0.021538	0.007901
640	3.260552	0.005000	9.668848	0.965192	1.710752	0.492537	-0.146983	-0.303381	-0.000557	-0.009070	0.013533
641	3.265552	0.005000	9.595617	0.938886	1.726560	0.492537	-0.146314	-0.304377	0.020045	-0.013798	0.002316
642	3.270552	0.005000	9.673613	0.807279	1.763894	0.492537	-0.145644	-0.305374	0.014391	-0.008722	0.003411
643	3.275552	0.005000	9.567349	0.793603	1.639277	0.492537	-0.144975	-0.306371	0.002932	-0.012164	0.002222
644	3.280552	0.005000	9.601771	0.824040	1.634475	0.492459	-0.145246	-0.305879	-0.003090	-0.018460	0.010576
645	3.285552	0.005000	9.653040	0.846156	1.720494	0.492347	-0.145916	-0.304758	0.006861	-0.008179	0.009619
646	3.290552	0.005000	9.692280	0.824040	1.700511	0.492236	-0.146585	-0.303637	0.017212	-0.008260	0.002300
647	3.295552	0.005000	9.601184	0.844356	1.681012	0.492124	-0.147254	-0.302516	0.004392	-0.015709	0.016594
648	3.300552	0.005000	9.578478	0.745560	1.648080	0.492013	-0.147924	-0.301395	0.005251	-0.012364	0.004628
649	3.305552	0.005000	9.574560	0.703059	1.686233	0.491901	-0.148593	-0.300273	0.014269	-0.010776	0.011273
650	3.310552	0.005000	9.574560	0.740356	1.686019	0.491790	-0.149262	-0.299152	0.010599	-0.003098	0.005551
651	3.315552	0.005000	9.606418	0.713702	1.687320	0.491678	-0.149932	-0.298031	0.006727	-0.017954	0.007501
652	3.320552	0.005000	9.692280	0.733428	1.720494	0.491566	-0.150601	-0.296910	0.005800	-0.003236	0.000992
653	3.325552	0.005000	9.569144	0.754016	1.656536	0.491455	-0.151270	-0.295789	0.003241	-0.008066	0.008577
654	3.330552	0.005000	9.496080	0.727982	1.726560	0.491343	-0.151940	-0.294667	-0.001306	-0.008247	0.013748
655	3.335552	0.005000	9.534432	0.771424	1.790776	0.491232	-0.152609	-0.293546	0.001343	-0.007941	0.001237
656	3.340552	0.005000	9.598015	0.784800	1.844280	0.491120	-0.153278	-0.292425	-0.001948	-0.006973	0.006193
657	3.345552	0.005000	9.655400	0.824040	1.724200	0.491226	-0.153478	-0.291990	0.000355	-0.014957	0.005427
658	3.350552	0.005000	9.747509	0.923350	1.726560	0.491783	-0.152697	-0.292986	0.008435	-0.019478	0.010397
659	3.355552	0.005000	9.676245	0.815175	1.765800	0.492341	-0.151916	-0.293983	0.009977	-0.009582	0.008245
660	3.360552	0.005000	9.574560	0.810395	1.699271	0.492899	-0.151136	-0.294979	0.011891	-0.010434	0.001390
661	3.365552	0.005000	9.653040	0.745560	1.631380	0.493457	-0.150355	-0.295976	0.001411	-0.014741	0.001018
662	3.370552	0.005000	9.604920	0.863280	1.753199	0.494014	-0.149574	-0.296972	-0.003002	-0.009742	-0.005049
663	3.375552	0.005000	9.586778	0.790909	1.798931	0.494572	-0.148793	-0.297969	0.008571	-0.012705	0.011546
664	3.380552	0.005000	9.656744	0.827744	1.762096	0.495130	-0.148012	-0.298966	0.000262	-0.008963	0.007021
665	3.385552	0.005000	9.768219	0.899979	1.765800	0.495688	-0.147231	-0.299962	0.008639	-0.014092	0.000470
666	3.390552	0.005000	9.616035	0.709673	1.765800	0.496245	-0.146451	-0.300959	-0.001680	-0.008696	0.002585
667	3.395552	0.005000	9.574560	0.863280	1.797997	0.496803	-0.145670	-0.301955	-0.003422	-0.004882	-0.002410
668	3.400552	0.005000	9.607862	0.863280	1.765800	0.497361	-0.144889	-0.302952	-0.003437	-0.013129	0.007992
669	3.405552	0.005000	9.675592	0.723008	1.704008	0.497918	-0.144108	-0.303948	0.000149	-0.010454	0.006944
670	3.410552	0.005000	9.692280	0.813281	1.737319	0.498476	-0.143327	-0.304945	0.013760	-0.005003	0.012290
671	3.415552	0.005000	9.679997	0.981000	1.726560	0.497980	-0.143495	-0.304529	0.010877	-0.006542	0.016570
672	3.420552	0.005000	9.676427	0.918373	1.671467	0.497423	-0.143718	-0.304031	0.002220	-0.017145	0.004240
673	3.425552	0.005000	9.729194	0.881737	1.728886	0.496865	-0.143941	-0.303533	0.014221	-0.011086	0.004954
674	3.430552	0.005000	9.710652	0.803172	1.708188	0.496308	-0.144164	-0.303035	0.012845	-0.007747	-0.001135
675	3.435552	0.005000	9.676318	0.831355	1.711929	0.495750	-0.144387	-0.302537	0.016389	-0.017063	-0.003360
676	3.440552	0.005000	9.600250	0.759110	1.779350	0.495193	-0.144610	-0.302039	0.010996	-0.011606	0.002558
677	3.445552	0.005000	9.557603	0.745560	1.748843	0.494635	-0.144833	-0.301541	0.004961	-0.008893	0.009284
678	3.450552	0.005000	9.605177	0.784800	1.687320	0.494078	-0.145056	-0.301043	-0.001591	-0.001672	0.008870
679	3.455552	0.005000	9.568312	0.718815	1.720312	0.493520	-0.145279	-0.300545	0.002407	-0.000165	0.004356
680	3.460552	0.005000	9.606085	0.788657	1.714988	0.492963	-0.145502	-0.300047	0.003513	-0.006932	0.013340
681	3.465552	0.005000	9.536802	0.860315	1.687320	0.492405	-0.145725	-0.299548	-0.008967	-0.006409	0.016761
682	3.470552	0.005000	9.689525	0.746478	1.687320	0.491848	-0.145948	-0.299050	-0.004514	-0.003125	0.018245
683	3.475552	0.005000	9.541965	0.788122	1.615485	0.491290	-0.146171	-0.298552	-0.005660	-0.004974	0.007245
684	3.480552	0.005000	9.568821	0.891042	1.726560	0.491357	-0.146144	-0.298194	-0.003350	-0.009082	0.000583
685	3.485552	0.005000	9.574560	0.824040	1.726560	0.491915	-0.145921	-0.297945	0.002952	-0.009383	0.012755
686	3.490552	0.005000	9.653040	0.795692	1.619732	0.492472	-0.145698	-0.297696	-0.003374	-0.009354	0.005007
687	3.495552	0.005000	9.561293	0.837307	1.660787	0.493030	-0.145475	-0.297447	0.003225	-0.019247	0.010837
688	3.500552	0.005000	9.613800	0.839697	1.608840	0.493587	-0.145252	-0.297198	-0.001241	-0.005668	-0.005095
689	3.505552	0.005000	9.577301	0.863280	1.629830	0.494145	-0.145029	-0.296949	-0.005124	-0.006641	-0.002887
690	3.510552	0.005000	9.692280	0.900439	1.629501	0.494702	-0.144806	-0.296700	0.003360	-0.005078	0.010805
691	3.515552	0.005000	9.606895	0.879448	1.717297	0.495260	-0.144583	-0.296451	0.007330	-0.002408	0.007058
692	3.520552	0.005000	9.547361	0.928161	1.700919	0.495817	-0.144360	-0.296202	0.011972	-0.007805	0.007641
693	3.525552	0.005000	9.546529	0.835249	1.642468	0.496374	-0.144137	-0.295953	0.010207	-0.000183	0.003054
694	3.530552	0.005000	9.592229	0.854446	1.735394	0.496932	-0.143914	-0.295704	0.014751	-0.009504	0.014692
695	3.535552	0.005000	9.692280	0.778356	1.792152	0.497489	-0.143691	-0.295454	0.002227	-0.007517	0.017023
696	3.540552	0.005000	9.653040	0.828109	1.738768	0.498047	-0.143468	-0.295205	0.012161	-0.000659	0.001985
697	3.545552	0.005000	9.422559	0.863280	1.803800	0.498507	-0.143342	-0.295109	0.003748	-0.002620	0.000384
698	3.550552	0.005000	9.574560	0.787130	1.765800	0.498507	-0.143677	-0.295732	0.002862	0.000293	0.009692
699	3.555552	0.005000	9.499620	0.667080	1.790881	0.498507	-0.144012	-0.296355	0.008697	-0.015086	0.013179
700	3.560552	0.005000	9.523321	0.739561	1.705318	0.498507	-0.144346	-0.296977	0.012745	-0.001484	0.008647
701	3.565552	0.005000	9.613800	0.745560	1.664891	0.498507	-0.144681	-0.297600	0.007547	-0.006507	0.011182
702	3.570552	0.005000	9.563740	0.880880	1.744160	0.498507	-0.145016	-0.298223	0.001204	-0.005902	0.016418
703	3.575552	0.005000	9.600572	0.837268	1.792256	0.498507	-0.145350	-0.298846	-0.003433	-0.010151	-0.006264
704	3.580552	0.005000	9.574560	0.792777	1.765800	0.498507	-0.145685	-0.299469	0.001257	-0.012982	0.014516
705	3.585552	0.005000	9.656193	0.962956	1.786996	0.498507	-0.146020	-0.300092	-0.012342	-0.006215	0.012454
706	3.590552	0.005000	9.675837	0.921081	1.740885	0.498507	-0.146354	-0.300715	0.004493	-0.007459	0.007827
707	3.595552	0.005000	9.682962	0.886334	1.906574	0.498507	-0.146689	-0.301337	-0.002266	-0.011333	0.013953
708	3.600552	0.005000	9.639244	0.863280	1.842132	0.498507	-0.147023	-0.301960	-0.001981	-0.009680	0.007029
709	3.605552	0.005000	9.574560	0.796221	1.788642	0.498507	-0.147358	-0.302583	0.003136	-0.005349	0.013324
710	3.610552	0.005000	9.613800	0.854249	1.678289	0.498507	-0.147693	-0.303206	-0.012018	-0.009771	0.014239
711	3.615552	0.005000	9.646778	0.863280	1.720298	0.498596	-0.147495	-0.302936	0.007200	-0.010987	0.019201
712	3.620552	0.005000	9.676853	0.906377	1.722703	0.498707	-0.147160	-0.302438	0.001424	-0.016775	0.012281
713	3.625552	0.005000	9.653040	0.860402	1.690198	0.498819	-0.146825	-0.301940	0.013533	-0.009727	0.005280
714	3.630552	0.005000	9.576466	0.784800	1.804087	0.498931	-0.146491	-0.301442	0.014899	-0.006515	0.007513
715	3.635552	0.005000	9.646354	0.781457	1.876834	0.499042	-0.146156	-0.300943	0.001197	-0.002633	0.004476
716	3.640552	0.005000	9.613800	0.779082	1.799322	0.499154	-0.145821	-0.300445	0.008197	-0.011428	0.019039
717	3.645552	0.005000	9.636634	0.745560	1.726560	0.499265	-0.145487	-0.299947	0.002372	0.000706	0.014521
718	3.650552	0.005000	9.574560	0.745560	1.765800	0.499377	-0.145152	-0.299449	0.009651	-0.010166	0.008444
719	3.655552	0.005000	9.613800	0.758584	1.765800	0.499489	-0.144818	-0.298950	0.012744	-0.016534	0.004985
720	3.660552	0.005000	9.621606	0.784800	1.703037	0.499600	-0.144483	-0.298452	0.008366	-0.012111	0.010864
721	3.665552	0.005000	9.511116	0.763652	1.608840	0.499712	-0.144148	-0.297954	0.001244	-0.004671	0.014430
722	3.670552	0.005000	9.572835	0.846247	1.666838	0.499823	-0.143814	-0.297456	0.004359	-0.009152	-0.005010
723	3.675552	0.005000	9.662948	0.768417	1.664463	0.499935	-0.143479	-0.296957	0.008637	-0.020251	0.008368
724	3.680552	0.005000	9.597009	0.720328	1.715336	0.499907	-0.143284	-0.296927	0.016501	-0.015257	0.014023
725	3.685552	0.005000	9.507698	0.890902	1.703325	0.499684	-0.143284	-0.297549	0.015874	-0.013530	0.015276
726	3.690552	0.005000	9.583803	0.863280	1.687320	0.499461	-0.143284	-0.298172	0.007424	-0.010682	0.010141
727	3.695552	0.005000	9.607326	0.764981	1.726560	0.499238	-0.143284	-0.298794	0.008374	-0.014254	0.012175
728	3.700552	0.005000	9.535320	0.910634	1.832108	0.499015	-0.143284	-0.299417	-0.006567	-0.015825	0.013859
729	3.705552	0.005000	9.649734	0.936801	1.765800	0.498792	-0.143284	-0.300039	0.004330	-0.010424	0.008311
730	3.710552	0.005000	9.574560	0.862524	1.727316	0.498569	-0.143284	-0.300662	0.006047	-0.013145	0.002195
731	3.715552	0.005000	9.571391	0.827209	1.687320	0.498346	-0.143284	-0.301285	-0.000277	-0.010559	0.012713
732	3.720552	0.005000	9.681108	0.891348	1.720974	0.498123	-0.143284	-0.301907	0.004709	-0.010364	-0.000687
733	3.725552	0.005000	9.770760	0.855288	1.765800	0.497900	-0.143284	-0.302530	0.003717	-0.008679	0.008077
734	3.730552	0.005000	9.702687	0.873687	1.697727	0.497677	-0.143284	-0.303152	0.014365	-0.008064	0.006404
735	3.735552	0.005000	9.705410	0.850452	1.700299	0.497454	-0.143284	-0.303775	0.005662	-0.010943	0.002310
736	3.740552	0.005000	9.645764	0.902520	1.648080	0.497231	-0.143284	-0.304397	-0.001635	-0.012217	0.006576
737	3.745552	0.005000	9.734969	0.820591	1.665975	0.497015	-0.143291	-0.304996	0.005909	-0.012658	-0.008364
738	3.750552	0.005000	9.596867	0.708111	1.784524	0.497015	-0.143514	-0.304871	0.010389	-0.009833	0.010449
739	3.755552	0.005000	9.636726	0.683394	1.782114	0.497015	-0.143737	-0.304747	0.007938	-0.007946	0.004525
740	3.760552	0.005000	9.574560	0.759462	1.712658	0.497015	-0.143960	-0.304622	0.015118	-0.006032	0.019166
741	3.765552	0.005000	9.507441	0.891159	1.737921	0.497015	-0.144183	-0.304498	0.001609	-0.008436	0.013400
742	3.770552	0.005000	9.683294	0.833026	1.696306	0.497015	-0.144406	-0.304373	0.008846	-0.012696	0.009387
743	3.775552	0.005000	9.718329	0.758751	1.608840	0.497015	-0.144629	-0.304249	0.008294	-0.010932	0.013746
744	3.780552	0.005000	9.657260	0.811379	1.718119	0.497015	-0.144852	-0.304124	0.006370	-0.007250	-0.001132
745	3.785552	0.005000	9.694110	0.784800	1.649910	0.497015	-0.145075	-0.304000	0.004451	-0.009349	0.012458
746	3.790552	0.005000	9.654142	0.862178	1.726009	0.497015	-0.145298	-0.303875	0.001406	-0.001483	0.008149
747	3.795552	0.005000	9.577948	0.902520	1.687320	0.497015	-0.145521	-0.303751	0.006678	-0.015472	0.007994
748	3.800552	0.005000	9.474176	0.829819	1.720781	0.497015	-0.145744	-0.303626	-0.001446	-0.014945	0.004337
749	3.805552	0.005000	9.620426	0.902520	1.734714	0.497015	-0.145967	-0.303502	0.005226	-0.019957	0.008677
750	3.810552	0.005000	9.653040	0.891976	1.765800	0.497015	-0.146190	-0.303377	-0.004661	-0.007841	0.016828
751	3.815552	0.005000	9.639950	0.902520	1.713470	0.497015	-0.146269	-0.303172	0.005772	-0.009225	0.000962
752	3.820552	0.005000	9.653040	0.800288	1.679056	0.497015	-0.146269	-0.302923	0.006077	-0.013128	0.017174
753	3.825552	0.005000	9.574560	0.809587	1.705218	0.497015	-0.146269	-0.302674	0.002763	-0.004139	0.008509
754	3.830552	0.005000	9.496080	0.765869	1.648080	0.497015	-0.146269	-0.302424	0.012303	-0.016207	0.003345
755	3.835552	0.005000	9.636520	0.817839	1.736879	0.497015	-0.146269	-0.302175	0.005403	-0.008618	0.004717
756	3.840552	0.005000	9.611198	0.902520	1.729162	0.497015	-0.146269	-0.301926	0.009108	-0.005174	0.002474
757	3.845552	0.005000	9.602243	0.768674	1.876531	0.497015	-0.146269	-0.301677	0.010649	-0.008375	0.003923
758	3.850552	0.005000	9.565378	0.884156	1.744924	0.497015	-0.146269	-0.301428	0.004923	-0.001269	0.014552
759	3.855552	0.005000	9.620592	0.805176	1.779384	0.497015	-0.146269	-0.301179	0.008356	-0.012899	0.015467
760	3.860552	0.005000	9.648623	0.937343	1.831029	0.497015	-0.146269	-0.300930	0.004276	-0.011912	0.016061
761	3.865552	0.005000	9.538505	0.861688	1.690505	0.497015	-0.146269	-0.300681	0.006208	-0.003314	0.001316
762	3.870552	0.005000	9.652238	0.824040	1.804238	0.497015	-0.146269	-0.300431	0.008480	-0.004495	0.003767
763	3.875552	0.005000	9.502464	0.794376	1.693704	0.497015	-0.146269	-0.300182	0.004312	-0.011856	0.015882
764	3.880552	0.005000	9.692280	0.857713	1.664780	0.496417	-0.146718	-0.299198	0.005336	-0.011365	0.012789
765	3.885552	0.005000	9.613800	0.832090	1.726560	0.494185	-0.148391	-0.296208	0.006025	-0.011147	0.008725
766	3.890552	0.005000	9.605931	0.795257	1.765800	0.491954	-0.150065	-0.293219	0.022746	-0.007555	0.004335
767	3.895552	0.005000	9.627298	0.863280	1.778671	0.489723	-0.151738	-0.290229	0.012577	-0.007357	0.013043
768	3.900552	0.005000	9.589840	0.767438	1.829000	0.487492	-0.153411	-0.287239	0.000722	-0.008101	-0.000772
769	3.905552	0.005000	9.535320	0.741703	1.761943	0.485261	-0.155085	-0.284249	-0.002289	-0.010842	-0.001239
770	3.910552	0.005000	9.632709	0.725229	1.688742	0.483029	-0.156758	-0.281260	0.002932	-0.017782	0.005575
771	3.915552	0.005000	9.642678	0.817868	1.670786	0.480798	-0.158431	-0.278270	-0.003630	-0.014005	0.009829
772	3.920552	0.005000	9.521176	0.888376	1.790896	0.478567	-0.160105	-0.275280	0.000330	-0.001784	0.009519
773	3.925552	0.005000	9.570627	0.796569	1.750098	0.476336	-0.161778	-0.272290	-0.001214	-0.002791	0.005066
774	3.930552	0.005000	9.574560	0.883762	1.825522	0.474105	-0.163451	-0.269301	0.001081	-0.014728	0.008183
775	3.935552	0.005000	9.496080	0.824040	1.726560	0.471874	-0.165125	-0.266311	-0.001986	-0.009315	0.003567
776	3.940552	0.005000	9.578769	0.784800	1.730769	0.469642	-0.166798	-0.263321	0.001740	-0.012878	0.013006
777	3.945552	0.005000	9.658414	0.824040	1.803249	0.467411	-0.168472	-0.260331	-0.004161	-0.008705	0.005269
778	3.950552	0.005000	9.848030	0.862675	1.688530	0.467759	-0.167665	-0.262104	-0.005631	-0.005433	0.004392
779	3.955552	0.005000	9.547441	0.790860	1.723530	0.468428	-0.166550	-0.264470	0.001583	-0.010581	0.010969
780	3.960552	0.005000	9.574560	0.761865	1.867215	0.469097	-0.165435	-0.266835	0.005455	-0.003086	-0.004855
781	3.965552	0.005000	9.464679	0.871119	1.836441	0.469766	-0.164320	-0.269201	0.002900	-0.000538	0.004903
782	3.970552	0.005000	9.535320	0.873534	1.893774	0.470435	-0.163205	-0.271567	0.000347	-0.010882	0.004075
783	3.975552	0.005000	9.679618	0.797462	1.803785	0.471104	-0.162090	-0.273933	0.011598	-0.010411	0.004308
784	3.980552	0.005000	9.731520	0.784800	1.750446	0.471773	-0.160975	-0.276299	0.007630	0.000514	0.015679
785	3.985552	0.005000	9.649288	0.806296	1.783544	0.472442	-0.159860	-0.278665	-0.003281	0.003493	0.004118
786	3.990552	0.005000	9.612802	0.726439	1.648080	0.473111	-0.158744	-0.281031	0.003891	-0.012627	0.012368
787	3.995552	0.005000	9.630531	0.762291	1.676368	0.473780	-0.157629	-0.283396	-0.001071	0.000279	0.002959
788	4.000552	0.005000	9.574560	0.888164	1.726560	0.474449	-0.156514	-0.285762	-0.002109	-0.011459	0.001826
789	4.005552	0.005000	9.558613	0.863280	1.714913	0.475118	-0.155399	-0.288128	0.002430	-0.010936	0.011347
790	4.010552	0.005000	9.606880	0.884056	1.775032	0.475787	-0.154284	-0.290494	0.011302	-0.002826	0.016263
791	4.015552	0.005000	9.613800	0.817293	1.752307	0.476850	-0.154125	-0.291918	0.012573	-0.015964	0.009853
792	4.020552	0.005000	9.692280	0.828397	1.735273	0.478300	-0.154906	-0.292416	-0.000447	-0.011513	0.002093
793	4.025552	0.005000	9.692280	0.710283	1.724578	0.479751	-0.155687	-0.292915	0.011867	-0.012870	0.008311
794	4.030552	0.005000	9.575800	0.823627	1.726147	0.481201	-0.156468	-0.293413	0.004581	-0.002239	0.004955
795	4.035552	0.005000	9.538572	0.788052	1.844280	0.482651	-0.157248	-0.293911	0.010339	-0.010294	0.014627
796	4.040552	0.005000	9.602545	0.796055	1.704202	0.484102	-0.158029	-0.294409	0.005430	-0.008134	0.010148
797	4.045552	0.005000	9.621817	0.753577	1.726560	0.485552	-0.158810	-0.294908	0.006078	-0.006750	-0.007972
798	4.050552	0.005000	9.556105	0.784800	1.726560	0.487002	-0.159591	-0.295406	0.003733	-0.011980	0.000984
799	4.055552	0.005000	9.705985	0.731855	1.713793	0.488452	-0.160372	-0.295904	-0.002478	-0.001162	0.000863
800	4.060552	0.005000	9.637705	0.793370	1.687320	0.489903	-0.161153	-0.296402	-0.001252	-0.015007	0.007738
801	4.065552	0.005000	9.553065	0.898769	1.705065	0.491353	-0.161934	-0.296901	0.000046	-0.016561	0.012557
802	4.070552	0.005000	9.555476	0.784800	1.745644	0.492803	-0.162715	-0.297399	0.012767	-0.005506	-0.003690
803	4.075552	0.005000	9.496080	0.830333	1.788566	0.494253	-0.163496	-0.297897	0.006454	-0.014140	0.011441
804	4.080552	0.005000	9.627899	0.692221	1.765800	0.495494	-0.164011	-0.298333	-0.000443	0.001414	0.006527
805	4.085552	0.005000	9.617915	0.773092	1.714852	0.495271	-0.162673	-0.298333	0.007434	-0.008552	0.005248
806	4.090552	0.005000	9.514747	0.736227	1.726560	0.495048	-0.161335	-0.298333	0.001899	-0.007138	-0.001706
807	4.095552	0.005000	9.528377	0.810153	1.701207	0.494825	-0.159997	-0.298333	0.005679	-0.012413	0.008439
808	4.100552	0.005000	9.574560	0.720025	1.735697	0.494602	-0.158659	-0.298333	0.003787	-0.008243	0.006749
809	4.105552	0.005000	9.501314	0.863280	1.762311	0.494379	-0.157321	-0.298333	0.007018	-0.009831	-0.002685
810	4.110552	0.005000	9.652374	0.863280	1.725894	0.494156	-0.155983	-0.298333	-0.001071	-0.011234	0.007120
811	4.115552	0.005000	9.613800	0.866321	1.648080	0.493933	-0.154645	-0.298333	0.000413	-0.015219	0.000701
812	4.120552	0.005000	9.647609	0.795661	1.564169	0.493710	-0.153307	-0.298333	-0.001281	-0.011646	0.001537
813	4.125552	0.005000	9.653040	0.776994	1.585211	0.493487	-0.151969	-0.298333	0.007433	-0.018219	0.016386
814	4.130552	0.005000	9.574560	0.911173	1.658276	0.493264	-0.150631	-0.298333	0.002140	-0.011913	0.003059
815	4.135552	0.005000	9.613800	0.771006	1.674597	0.493041	-0.149293	-0.298333	0.007391	0.001632	0.015376
816	4.140552	0.005000	9.662008	0.778632	1.672184	0.492818	-0.147955	-0.298333	0.002881	-0.006565	0.012058
817	4.145552	0.005000	9.727371	0.880825	1.669775	0.492595	-0.146617	-0.298333	0.008282	-0.014190	0.001534
818	4.150552	0.005000	9.633749	0.784142	1.786408	0.492702	-0.146021	-0.298333	0.001644	-0.004842	0.005875
819	4.155552	0.005000	9.613800	0.767919	1.709679	0.492925	-0.145687	-0.298333	0.011255	-0.003505	0.002995
820	4.160552	0.005000	9.603150	0.749206	1.626781	0.493148	-0.145352	-0.298333	0.008915	-0.004639	0.003302
821	4.165552	0.005000	9.601880	0.772880	1.726560	0.493371	-0.145017	-0.298333	0.013352	-0.001935	0.003476
822	4.170552	0.005000	9.555500	0.775270	1.775330	0.493595	-0.144682	-0.298333	0.021471	-0.004907	0.007846
823	4.175552	0.005000	9.535320	0.745560	1.837125	0.493818	-0.144348	-0.298333	0.006276	0.001233	-0.000095
824	4.180552	0.005000	9.653040	0.809745	1.701615	0.494041	-0.144013	-0.298333	0.000023	-0.012390	0.007302
825	4.185552	0.005000	9.655430	0.711100	1.802650	0.494264	-0.143678	-0.298333	-0.000121	-0.006275	0.005924
826	4.190552	0.005000	9.692280	0.824040	1.726560	0.494487	-0.143344	-0.298333	-0.004508	-0.001906	-0.000046
827	4.195552	0.005000	9.697087	0.826444	1.687320	0.494710	-0.143009	-0.298333	-0.002130	-0.009453	0.015858
828	4.200552	0.005000	9.613800	0.829259	1.697758	0.494933	-0.142674	-0.298333	-0.013098	-0.013517	0.005046
829	4.205552	0.005000	9.692280	0.848062	1.718951	0.495156	-0.142339	-0.298333	0.004742	-0.004242	0.013003
830	4.210552	0.005000	9.692280	0.853992	1.745832	0.495380	-0.142005	-0.298333	0.000234	-0.009640	0.006491
831	4.215552	0.005000	9.731520	0.799002	1.845963	0.495361	-0.142033	-0.298378	-0.010438	-0.011364	0.010058
832	4.220552	0.005000	9.653040	0.784800	1.741487	0.494915	-0.142702	-0.298503	-0.001209	-0.007897	0.005693
833	4.225552	0.005000	9.609239	0.867841	1.726560	0.494469	-0.143371	-0.298627	-0.000510	-0.014499	0.004665
834	4.230552	0.005000	9.633550	0.843530	1.766060	0.494023	-0.144040	-0.298752	0.004953	-0.012323	0.004111
835	4.235552	0.005000	9.675200	0.750641	1.697482	0.493577	-0.144709	-0.298876	0.003426	-0.002366	0.000563
836	4.240552	0.005000	9.657801	0.770133	1.765800	0.493131	-0.145378	-0.299001	0.007557	-0.010170	0.004509
837	4.245552	0.005000	9.668046	0.781911	1.711554	0.492685	-0.146047	-0.299125	0.008535	-0.001259	-0.002374
838	4.250552	0.005000	9.545334	0.863280	1.834538	0.492239	-0.146716	-0.299250	0.014362	-0.002040	0.007740
839	4.255552	0.005000	9.486247	0.792152	1.780504	0.491793	-0.147385	-0.299374	0.011408	-0.006582	0.009388
840	4.260552	0.005000	9.648063	0.902520	1.844280	0.491347	-0.148054	-0.299499	0.007034	-0.004285	-0.005637
841	4.265552	0.005000	9.655627	0.865867	1.765800	0.490901	-0.148723	-0.299623	0.004386	-0.003691	0.014681
842	4.270552	0.005000	9.731263	0.863537	1.843766	0.490455	-0.149392	-0.299748	-0.000572	-0.010859	0.006304
843	4.275552	0.005000	9.621696	0.784800	1.689952	0.490009	-0.150061	-0.299873	0.002173	-0.011755	-0.000021
844	4.280552	0.005000	9.682236	0.627840	1.692342	0.489563	-0.150730	-0.299997	-0.005163	-0.011357	0.010871
845	4.285552	0.005000	9.692280	0.833333	1.679833	0.490097	-0.150310	-0.300243	-0.008523	-0.011192	-0.003513
846	4.290552	0.005000	9.653040	0.706320	1.697222	0.490654	-0.149864	-0.300492	-0.002890	-0.012308	0.008568
847	4.295552	0.005000	9.611488	0.745560	1.714251	0.491212	-0.149418	-0.300741	-0.002909	-0.005079	0.005248
848	4.300552	0.005000	9.579488	0.770077	1.702043	0.491770	-0.148972	-0.300991	0.003583	-0.004329	0.011653
849	4.305552	0.005000	9.618247	0.784800	1.604393	0.492328	-0.148525	-0.301240	0.003015	0.001737	0.005515
850	4.310552	0.005000	9.633571	0.862977	1.667549	0.492886	-0.148079	-0.301489	0.005527	0.000145	-0.000786
851	4.315552	0.005000	9.596721	0.907603	1.687320	0.493444	-0.147633	-0.301738	0.009392	-0.005269	0.002417
852	4.320552	0.005000	9.638336	0.877984	1.711856	0.494001	-0.147187	-0.301987	0.010996	-0.001672	0.003971
853	4.325552	0.005000	9.628413	0.850966	1.778114	0.494559	-0.146741	-0.302236	0.010798	-0.015127	0.008346
854	4.330552	0.005000	9.496080	0.824040	1.775739	0.495117	-0.146294	-0.302485	0.000873	-0.006500	-0.000058
855	4.335552	0.005000	9.503260	0.799161	1.776318	0.495675	-0.145848	-0.302734	0.007581	-0.000694	-0.001000
856	4.340552	0.005000	9.579335	0.755110	1.618390	0.496233	-0.145402	-0.302984	0.012552	-0.009674	-0.003587
857	4.345552	0.005000	9.645967	0.867996	1.797967	0.496790	-0.144956	-0.303233	0.007129	-0.005676	-0.000222
858	4.350552	0.005000	9.574515	0.902565	1.765709	0.496948	-0.144843	-0.303333	0.004539	-0.007207	0.012926
859	4.355552	0.005000	9.616264	0.824040	1.724096	0.496837	-0.144954	-0.303333	0.007738	-0.005265	-0.000851
860	4.360552	0.005000	9.623537	0.887914	1.809909	0.496725	-0.145066	-0.303333	0.005380	-0.008920	0.000250
861	4.365552	0.005000	9.628370	0.752845	1.751230	0.496614	-0.145177	-0.303333	-0.000654	-0.006835	0.011938
862	4.370552	0.005000	9.613800	0.794491	1.775491	0.496502	-0.145289	-0.303333	-0.003086	-0.012757	0.000558
863	4.375552	0.005000	9.599399	0.784800	1.819441	0.496391	-0.145400	-0.303333	-0.002929	-0.007705	0.007264
864	4.380552	0.005000	9.663252	0.770286	1.730862	0.496279	-0.145512	-0.303333	-0.002971	-0.010768	0.006576
865	4.385552	0.005000	9.653040	0.874819	1.731947	0.496168	-0.145623	-0.303333	-0.001043	-0.013987	0.019447
866	4.390552	0.005000	9.613800	0.902520	1.765800	0.496056	-0.145735	-0.303333	0.001770	-0.004948	0.006262
867	4.395552	0.005000	9.657699	0.963710	1.687320	0.495944	-0.145847	-0.303333	0.004341	-0.007231	-0.000569
868	4.400552	0.005000	9.637959	0.911599	1.735639	0.495833	-0.145958	-0.303333	0.001364	-0.009993	0.013705
869	4.405552	0.005000	9.640515	0.864944	1.726560	0.495721	-0.146070	-0.303333	0.003140	-0.006418	-0.001506
870	4.410552	0.005000	9.613800	0.813905	1.716425	0.495610	-0.146181	-0.303333	0.009789	-0.012903	0.003067
871	4.415552	0.005000	9.653040	0.714080	1.734320	0.495522	-0.146245	-0.303280	0.003331	-0.004605	0.015997
872	4.420552	0.005000	9.658410	0.834780	1.760430	0.495522	-0.146134	-0.303031	0.006121	-0.008258	0.006573
873	4.425552	0.005000	9.616357	0.902520	1.765800	0.495522	-0.146022	-0.302782	0.005110	-0.005229	-0.000444
874	4.430552	0.005000	9.652581	0.863280	1.883214	0.495522	-0.145911	-0.302533	0.005941	-0.013866	-0.006856
875	4.435552	0.005000	9.646369	0.678199	1.768024	0.495522	-0.145799	-0.302284	0.005439	-0.011203	0.008023
876	4.440552	0.005000	9.696894	0.740946	1.731174	0.495522	-0.145688	-0.302035	-0.000082	-0.003503	0.004697
877	4.445552	0.005000	9.645967	0.759707	1.779947	0.495522	-0.145576	-0.301786	0.002350	-0.010687	0.001325
878	4.450552	0.005000	9.623179	0.764318	1.666838	0.495522	-0.145465	-0.301537	0.005713	-0.007191	0.014610
879	4.455552	0.005000	9.570582	0.824040	1.742292	0.495522	-0.145353	-0.301288	0.008050	-0.001632	0.007121
880	4.460552	0.005000	9.638731	0.695699	1.623149	0.495522	-0.145241	-0.301039	0.007398	-0.007414	0.013341
881	4.465552	0.005000	9.658154	0.723039	1.738165	0.495522	-0.145130	-0.300790	0.010467	-0.002796	0.004993
882	4.470552	0.005000	9.593690	0.824040	1.765800	0.495522	-0.145018	-0.300541	0.008906	-0.008028	0.019839
883	4.475552	0.005000	9.527634	0.802499	1.765800	0.495522	-0.144907	-0.300292	-0.001330	-0.011858	0.005120
884	4.480552	0.005000	9.692280	0.706320	1.783832	0.495522	-0.144795	-0.300043	0.005702	-0.005796	0.007889
885	4.485552	0.005000	9.679558	0.810244	1.713838	0.495430	-0.145053	-0.300309	0.017545	-0.005035	0.007934
886	4.490552	0.005000	9.624147	0.824040	1.776147	0.495318	-0.145387	-0.300683	0.007864	-0.007864	0.001401
887	4.495552	0.005000	9.605843	0.753517	1.797083	0.495207	-0.145722	-0.301056	0.011498	-0.008905	0.008528
888	4.500552	0.005000	9.619382	0.756724	1.698484	0.495095	-0.146056	-0.301430	0.016098	-0.000773	0.008328
889	4.505552	0.005000	9.731520	0.857740	1.768570	0.494984	-0.146391	-0.301803	0.024910	-0.010791	0.003990
890	4.510552	0.005000	9.613800	0.706672	1.805040	0.494872	-0.146726	-0.302177	0.001074	-0.004333	0.008425
891	4.515552	0.005000	9.576587	0.782773	1.767827	0.494761	-0.147060	-0.302550	0.007960	-0.005238	0.006794
892	4.520552	0.005000	9.609331	0.815102	1.691789	0.494649	-0.147395	-0.302924	0.007286	-0.014764	0.007200
893	4.525552	0.005000	9.678531	0.837789	1.798166	0.494538	-0.147729	-0.303297	-0.000439	-0.014261	0.003136
894	4.530552	0.005000	9.563154	0.883964	1.805040	0.494427	-0.148064	-0.303671	0.002830	-0.014318	0.002985
895	4.535552	0.005000	9.676425	0.879135	1.726560	0.494315	-0.148398	-0.304045	0.008549	-0.002953	0.002730
896	4.540552	0.005000	9.638939	0.913559	1.751699	0.494204	-0.148733	-0.304418	0.002027	-0.017391	0.008307
897	4.545552	0.005000	9.665467	0.857066	1.664593	0.494092	-0.149067	-0.304792	0.003996	-0.017845	0.013606
898	4.550552	0.005000	9.692280	0.822647	1.629157	0.494178	-0.149353	-0.304835	0.019672	-0.013195	0.002310
899	4.555552	0.005000	9.713821	0.798657	1.661937	0.494512	-0.149576	-0.304461	0.020903	-0.015787	0.011702
900	4.560552	0.005000	9.653040	0.871903	1.687320	0.494847	-0.149799	-0.304088	0.010672	-0.009157	0.001127
901	4.565552	0.005000	9.692280	0.771866	1.831346	0.495181	-0.150022	-0.303714	0.011654	-0.017167	-0.007952
902	4.570552	0.005000	9.642496	0.756104	1.705473	0.495516	-0.150245	-0.303341	0.002221	-0.011598	0.010662
903	4.575552	0.005000	9.667774	0.902520	1.703657	0.495850	-0.150468	-0.302967	0.000079	-0.003773	0.011131
904	4.580552	0.005000	9.608021	0.863280	1.765800	0.496185	-0.150691	-0.302593	0.007139	-0.022223	0.015514
905	4.585552	0.005000	9.577530	0.824040	1.765800	0.496519	-0.150914	-0.302220	-0.001530	-0.004038	0.009062
906	4.590552	0.005000	9.691147	0.902520	1.844846	0.496854	-0.151137	-0.301846	0.009205	-0.009465	0.007463
907	4.595552	0.005000	9.651210	0.902520	1.771291	0.497188	-0.151360	-0.301473	0.007893	-0.014176	0.000018
908	4.600552	0.005000	9.618005	0.964179	1.761595	0.497523	-0.151583	-0.301099	0.002774	-0.013761	0.006930
909	4.605552	0.005000	9.522462	0.837231	1.739751	0.497857	-0.151806	-0.300726	0.003634	-0.011366	0.007106
910	4.610552	0.005000	9.565481	0.902520	1.726560	0.498192	-0.152029	-0.300352	-0.001391	-0.016159	0.006796
911	4.615552	0.005000	9.653040	0.953243	1.574392	0.498481	-0.152213	-0.300000	0.009285	-0.013134	0.017021
912	4.620552	0.005000	9.613800	0.748009	1.738008	0.498035	-0.151767	-0.300000	0.012831	-0.016062	0.011867
913	4.625552	0.005000	9.715215	0.846975	1.667432	0.497589	-0.151321	-0.300000	0.008635	-0.008599	0.003297
914	4.630552	0.005000	9.634323	0.827652	1.608840	0.497143	-0.150875	-0.300000	0.011333	0.000874	0.011753
915	4.635552	0.005000	9.653040	0.923865	1.683871	0.496696	-0.150428	-0.300000	0.007175	-0.005802	0.007532
916	4.640552	0.005000	9.605601	0.934438	1.765800	0.496250	-0.149982	-0.300000	0.006099	-0.012302	0.019428
917	4.645552	0.005000	9.574560	0.811212	1.791910	0.495804	-0.149536	-0.300000	0.005166	-0.004267	0.007375
918	4.650552	0.005000	9.546075	0.863280	1.698075	0.495358	-0.149090	-0.300000	0.002179	-0.011180	0.011282
919	4.655552	0.005000	9.560416	0.801531	1.757435	0.494912	-0.148644	-0.300000	-0.003840	-0.012392	0.014181
920	4.660552	0.005000	9.647452	0.835216	1.765800	0.494465	-0.148197	-0.300000	0.005095	-0.005956	0.011315
921	4.665552	0.005000	9.692280	0.824040	1.756250	0.494019	-0.147751	-0.300000	0.006221	-0.006778	0.017643
922	4.670552	0.005000	9.616097	0.785566	1.687320	0.493573	-0.147305	-0.300000	0.003402	-0.006226	0.005118
923	4.675552	0.005000	9.693899	0.786419	1.687320	0.493127	-0.146859	-0.300000	0.013153	-0.017456	0.008693
924	4.680552	0.005000	9.574560	0.820031	1.734577	0.492680	-0.146412	-0.300000	-0.001593	-0.006109	0.011301
925	4.685552	0.005000	9.613800	0.804889	1.765800	0.492840	-0.146345	-0.299915	0.000007	-0.010124	0.013216
926	4.690552	0.005000	9.592108	0.854506	1.696094	0.493286	-0.146456	-0.299791	0.001714	-0.005027	0.012734
927	4.695552	0.005000	9.619594	0.812891	1.737709	0.493732	-0.146568	-0.299666	0.009021	-0.008645	0.006301
928	4.700552	0.005000	9.770760	0.745560	1.830583	0.494178	-0.146679	-0.299542	0.015739	-0.004716	0.007485
929	4.705552	0.005000	9.646013	0.847174	1.758773	0.494624	-0.146791	-0.299417	0.002154	0.004004	-0.005657
930	4.710552	0.005000	9.632310	0.886230	1.726560	0.495070	-0.146902	-0.299293	0.006407	-0.012822	-0.002412
931	4.715552	0.005000	9.571958	0.748162	1.708241	0.495516	-0.147013	-0.299168	0.012900	-0.005839	0.006097
932	4.720552	0.005000	9.724095	0.674505	1.828373	0.495962	-0.147125	-0.299044	0.010725	-0.005638	-0.002821
933	4.725552	0.005000	9.783316	0.707107	1.713218	0.496408	-0.147236	-0.298919	0.008360	-0.007457	0.009036
934	4.730552	0.005000	9.624752	0.767464	1.754848	0.496854	-0.147348	-0.298795	-0.001910	-0.009450	0.007040
935	4.735552	0.005000	9.613800	0.793006	1.751179	0.497300	-0.147459	-0.298670	-0.000305	-0.009981	0.011596
936	4.740552	0.005000	9.647240	0.784800	1.770238	0.497746	-0.147571	-0.298546	0.009397	-0.005312	0.003838
937	4.745552	0.005000	9.653040	0.745560	1.583134	0.498192	-0.147682	-0.298421	0.007076	-0.011038	0.009409
938	4.750552	0.005000	9.652072	0.784800	1.725592	0.498442	-0.147761	-0.298370	-0.008392	-0.005284	0.005557
939	4.755552	0.005000	9.651601	0.746999	1.800724	0.498219	-0.147761	-0.298494	-0.007054	-0.000756	0.008206
940	4.760552	0.005000	9.496080	0.749403	1.761957	0.497996	-0.147761	-0.298619	-0.007209	-0.007735	0.013641
941	4.765552	0.005000	9.679761	0.745560	1.838021	0.497773	-0.147761	-0.298743	0.006927	-0.007554	0.009424
942	4.770552	0.005000	9.613800	0.736529	1.744622	0.497549	-0.147761	-0.298868	0.005455	-0.011660	0.013680
943	4.775552	0.005000	9.720114	0.851874	1.737966	0.497326	-0.147761	-0.298992	-0.005167	-0.001841	0.000876
944	4.780552	0.005000	9.653040	0.863280	1.661876	0.497103	-0.147761	-0.299117	0.002358	-0.003413	-0.004419
945	4.785552	0.005000	9.551491	0.784800	1.717287	0.496880	-0.147761	-0.299241	0.004426	-0.009942	0.005361
946	4.790552	0.005000	9.654723	0.864963	1.724877	0.496657	-0.147761	-0.299366	0.008247	-0.008043	0.000043
947	4.795552	0.005000	9.653040	0.845229	1.708509	0.496434	-0.147761	-0.299490	0.004994	-0.009338	0.003626
948	4.800552	0.005000	9.668956	0.863280	1.718602	0.496211	-0.147761	-0.299615	0.002854	-0.006781	0.012768
949	4.805552	0.005000	9.653040	0.837268	1.791812	0.495988	-0.147761	-0.299740	0.007371	-0.008978	0.000772
950	4.810552	0.005000	9.699047	0.920111	1.861871	0.495765	-0.147761	-0.299864	-0.001482	-0.007954	0.004691
951	4.815552	0.005000	9.639052	0.762395	1.664915	0.495542	-0.147761	-0.299989	-0.005672	0.000936	0.001617
952	4.820552	0.005000	9.625803	0.845275	1.708555	0.495218	-0.148774	-0.298755	0.001072	-0.007225	0.006350
953	4.825552	0.005000	9.574560	0.824040	1.648080	0.494883	-0.149890	-0.297385	0.005527	-0.001222	-0.005440
954	4.830552	0.005000	9.535320	0.784800	1.689678	0.494549	-0.151006	-0.296015	0.007819	-0.006560	-0.000038
955	4.835552	0.005000	9.611380	0.746770	1.765800	0.494214	-0.152121	-0.294644	0.002315	-0.008662	0.013100
956	4.840552	0.005000	9.613800	0.930833	1.655365	0.493879	-0.153237	-0.293274	0.015807	-0.002462	0.009182
957	4.845552	0.005000	9.502128	0.902520	1.726560	0.493545	-0.154353	-0.291904	0.006190	-0.006109	0.006520
958	4.850552	0.005000	9.675354	0.849430	1.648080	0.493210	-0.155468	-0.290533	0.006031	-0.007186	-0.002698
959	4.855552	0.005000	9.607171	0.891650	1.754930	0.492876	-0.156584	-0.289163	0.005499	-0.008705	0.009849
960	4.860552	0.005000	9.521736	0.875352	1.675248	0.492541	-0.157700	-0.287793	-0.003365	-0.003796	0.011788
961	4.865552	0.005000	9.613800	0.918494	1.687320	0.492206	-0.158815	-0.286422	0.012843	-0.010244	0.013102
962	4.870552	0.005000	9.673931	0.826581	1.763259	0.491872	-0.159931	-0.285052	0.001201	-0.005458	0.014729
963	4.875552	0.005000	9.616039	0.764061	1.705821	0.491537	-0.161047	-0.283682	-0.002955	0.000128	0.004141
964	4.880552	0.005000	9.597674	0.761686	1.655069	0.491202	-0.162162	-0.282312	-0.001336	-0.004248	0.008973
965	4.885552	0.005000	9.643238	0.835809	1.675551	0.490750	-0.162451	-0.280678	-0.007359	-0.006672	0.001776
966	4.890552	0.005000	9.709473	0.728367	1.704513	0.490193	-0.162005	-0.278811	-0.009699	-0.013744	-0.002160
967	4.895552	0.005000	9.683660	0.780039	1.678700	0.489635	-0.161559	-0.276944	-0.003285	-0.009687	0.009898
968	4.900552	0.005000	9.620014	0.896306	1.693534	0.489078	-0.161113	-0.275078	0.004195	-0.009053	0.004730
969	4.905552	0.005000	9.649243	0.753154	1.667065	0.488521	-0.160667	-0.273211	0.005704	-0.020052	0.014908
970	4.910552	0.005000	9.613800	0.937582	1.877949	0.487963	-0.160221	-0.271344	0.000399	-0.012604	0.011481
971	4.915552	0.005000	9.728479	0.862266	1.688334	0.487406	-0.159776	-0.269477	0.006185	-0.007522	0.012179
972	4.920552	0.005000	9.581419	0.863280	1.758941	0.486849	-0.159330	-0.267610	0.002180	-0.009680	0.002096
973	4.925552	0.005000	9.641348	0.896674	1.693166	0.486291	-0.158884	-0.265743	0.014575	-0.009787	0.001235
974	4.930552	0.005000	9.613800	0.879784	1.765800	0.485734	-0.158438	-0.263876	0.006668	-0.011573	0.014289
975	4.935552	0.005000	9.556654	0.909759	1.651508	0.485177	-0.157992	-0.262009	0.006255	-0.008528	-0.000773
976	4.940552	0.005000	9.574560	0.837428	1.791652	0.484619	-0.157546	-0.260142	0.009169	-0.014854	0.007682
977	4.945552	0.005000	9.637277	0.792515	1.789277	0.484062	-0.157100	-0.258276	0.005287	-0.013306	0.007393
978	4.950552	0.005000	9.616735	0.805887	1.765800	0.483628	-0.156654	-0.256926	-0.002996	-0.012052	0.010316
979	4.955552	0.005000	9.514792	0.805328	1.726560	0.483963	-0.156208	-0.258794	-0.001254	-0.003891	0.004005
980	4.960552	0.005000	9.613800	0.863280	1.805040	0.484298	-0.155762	-0.260663	-0.004507	-0.010623	0.006280
981	4.965552	0.005000	9.602455	0.902520	1.791093	0.484632	-0.155316	-0.262532	0.001736	-0.001785	0.015968
982	4.970552	0.005000	9.557787	0.857740	1.793807	0.484967	-0.154869	-0.264400	0.010690	-0.010138	0.007459
983	4.975552	0.005000	9.544139	0.854461	1.700104	0.485302	-0.154423	-0.266269	0.011122	-0.012015	0.004818
984	4.980552	0.005000	9.607388	0.836865	1.615252	0.485637	-0.153977	-0.268137	-0.005249	-0.013808	0.008858
985	4.985552	0.005000	9.613800	0.933768	1.620828	0.485971	-0.153531	-0.270006	-0.003914	-0.014106	0.010330
986	4.990552	0.005000	9.572987	0.900947	1.801894	0.486306	-0.153084	-0.271875	0.004189	-0.007561	0.013390
987	4.995552	0.005000	9.535320	0.824851	1.764989	0.486641	-0.152638	-0.273743	0.007110	-0.009399	0.007376
988	5.000552	0.005000	9.617029	0.863280	1.654538	0.486975	-0.152192	-0.275612	0.013497	-0.011473	0.008362
989	5.005552	0.005000	9.507348	0.751194	1.681686	0.487310	-0.151746	-0.277481	0.008047	-0.003891	0.002798
990	5.010552	0.005000	9.582610	0.784800	1.687320	0.487645	-0.151300	-0.279349	0.005013	-0.012398	0.002295
991	5.015552	0.005000	9.543189	0.834497	1.773669	0.487980	-0.150853	-0.281218	0.005897	-0.006778	-0.000726
992	5.020552	0.005000	9.639864	0.784800	1.726847	0.488568	-0.150238	-0.282235	-0.001841	-0.009324	-0.001816
993	5.025552	0.005000	9.535320	0.863280	1.821256	0.489237	-0.149569	-0.282982	-0.001291	-0.019755	0.015307
994	5.030552	0.005000	9.577918	0.742202	1.744501	0.489906	-0.148900	-0.283729	0.000682	-0.000201	0.005766
995	5.035552	0.005000	9.593469	0.725229	1.726560	0.490575	-0.148231	-0.284476	0.006261	-0.006690	0.002887
996	5.040552	0.005000	9.574560	0.807506	1.743094	0.491244	-0.147562	-0.285223	0.000770	-0.005235	-0.000187
997	5.045552	0.005000	9.639190	0.787111	1.726560	0.491913	-0.146893	-0.285970	0.002496	0.000866	-0.003302
998	5.050552	0.005000	9.556616	0.812603	1.754363	0.492582	-0.146224	-0.286717	0.002315	-0.005940	0.005319
999	5.055552	0.005000	9.523168	0.833069	1.639051	0.493251	-0.145555	-0.287464	-0.000541	-0.005619	0.005521
1000	5.060552	0.005000	9.692280	0.824040	1.654694	0.493920	-0.144886	-0.288211	0.009847	-0.009014	0.013389
1001	5.065552	0.005000	9.622120	0.854960	1.761640	0.494589	-0.144217	-0.288958	0.009938	-0.004802	0.005796
1002	5.070552	0.005000	9.727980	0.750870	1.806810	0.495259	-0.143547	-0.289706	0.014444	-0.017591	0.004716
1003	5.075552	0.005000	9.614412	0.708770	1.689770	0.495928	-0.142878	-0.290453	0.010591	-0.009569	0.006516
1004	5.080552	0.005000	9.731520	0.857220	1.768830	0.496597	-0.142209	-0.291200	0.018801	-0.009242	0.003960
1005	5.085552	0.005000	9.558676	0.824040	1.693159	0.497015	-0.141958	-0.291900	0.021717	-0.017673	0.000054
1006	5.090552	0.005000	9.675852	0.824040	1.664508	0.497015	-0.142404	-0.292523	0.005060	-0.013710	0.005868
1007	5.095552	0.005000	9.595738	0.873869	1.666142	0.497015	-0.142850	-0.293145	-0.001283	-0.012225	0.013234
1008	5.100552	0.005000	9.666019	0.771518	1.779082	0.497015	-0.143296	-0.293768	0.003858	-0.001697	0.005958
1009	5.105552	0.005000	9.574560	0.753720	1.765800	0.497015	-0.143742	-0.294390	-0.003862	-0.012880	0.002393
1010	5.110552	0.005000	9.656376	0.748896	1.708608	0.497015	-0.144188	-0.295013	0.002315	-0.011738	0.005083
1011	5.115552	0.005000	9.692280	0.747045	1.745437	0.497015	-0.144634	-0.295636	0.005228	-0.009429	0.000959
1012	5.120552	0.005000	9.653040	0.762027	1.817651	0.497015	-0.145080	-0.296258	-0.004966	-0.014050	0.009977
1013	5.125552	0.005000	9.664171	0.801779	1.648080	0.497015	-0.145526	-0.296881	-0.004244	-0.005938	0.000476
1014	5.130552	0.005000	9.653040	0.874792	1.703536	0.497015	-0.145972	-0.297503	0.003901	-0.012114	0.002068
1015	5.135552	0.005000	9.662162	0.911642	1.638958	0.497015	-0.146418	-0.298126	0.001924	-0.007991	0.006364
1016	5.140552	0.005000	9.613800	0.870027	1.733307	0.497015	-0.146864	-0.298748	0.002062	-0.007047	0.005672
1017	5.145552	0.005000	9.631227	0.784800	1.661150	0.497015	-0.147310	-0.299371	0.009326	-0.015973	0.007487
1018	5.150552	0.005000	9.804055	0.675007	1.807022	0.497015	-0.147756	-0.299994	0.004615	-0.005216	0.001613
1019	5.155552	0.005000	9.614626	0.824040	1.805453	0.496905	-0.147982	-0.299877	0.016945	-0.006838	0.011379
1020	5.160552	0.005000	9.644589	0.860463	1.659348	0.496793	-0.148205	-0.299752	0.006497	-0.005204	0.007096
1021	5.165552	0.005000	9.619034	0.750794	1.642846	0.496681	-0.148428	-0.299628	0.008681	-0.001731	-0.000234
1022	5.170552	0.005000	9.511360	0.816400	1.711280	0.496570	-0.148651	-0.299503	0.009691	0.000215	0.014121
1023	5.175552	0.005000	9.621863	0.863280	1.823495	0.496458	-0.148874	-0.299378	0.000984	-0.009329	0.008110
1024	5.180552	0.005000	9.718753	0.783862	1.843342	0.496347	-0.149097	-0.299254	0.006587	-0.014015	0.007059
1025	5.185552	0.005000	9.637883	0.706320	1.678395	0.496235	-0.149320	-0.299129	0.008885	-0.007296	0.000257
1026	5.190552	0.005000	9.648865	0.741385	1.704852	0.496123	-0.149544	-0.299005	0.010411	-0.009028	0.011539
1027	5.195552	0.005000	9.633117	0.804723	1.785117	0.496012	-0.149767	-0.298880	0.005657	-0.002856	0.006611
1028	5.200552	0.005000	9.568666	0.784800	1.743233	0.495900	-0.149990	-0.298755	0.007824	-0.004871	0.000185
1029	5.205552	0.005000	9.588824	0.788351	1.730111	0.495789	-0.150213	-0.298631	0.003381	-0.012363	0.010449
1030	5.210552	0.005000	9.719670	0.851430	1.765800	0.495677	-0.150436	-0.298506	0.004581	-0.006304	-0.000387
1031	5.215552	0.005000	9.710947	0.833373	1.765800	0.495565	-0.150659	-0.298382	-0.006931	-0.005233	0.010282
1032	5.220552	0.005000	9.653040	0.888633	1.811983	0.495454	-0.150610	-0.298409	-0.004097	-0.005867	0.003273
1033	5.225552	0.005000	9.648418	0.863280	1.795796	0.495342	-0.150387	-0.298534	0.006704	-0.009456	0.006718
1034	5.230552	0.005000	9.653040	0.865458	1.724382	0.495231	-0.150164	-0.298658	0.012023	-0.005210	0.012784
1035	5.235552	0.005000	9.653040	0.863479	1.687320	0.495120	-0.149941	-0.298783	0.002125	-0.008844	0.002235
1036	5.240552	0.005000	9.621651	0.834508	1.723943	0.495008	-0.149718	-0.298907	0.009663	-0.002372	0.002423
1037	5.245552	0.005000	9.535320	0.863280	1.692751	0.494897	-0.149495	-0.299032	0.002141	-0.001385	0.007899
1038	5.250552	0.005000	9.613800	0.690497	1.687320	0.494785	-0.149272	-0.299156	-0.000402	-0.009276	0.004590
1039	5.255552	0.005000	9.682084	0.706320	1.774453	0.494674	-0.149049	-0.299281	-0.002768	-0.005946	0.011988
1040	5.260552	0.005000	9.651512	0.693749	1.767328	0.494562	-0.148826	-0.299405	0.002494	-0.005355	0.011452
1041	5.265552	0.005000	9.598664	0.769664	1.750664	0.494451	-0.148603	-0.299530	0.005451	-0.007519	0.001809
1042	5.270552	0.005000	9.548716	0.706320	1.809189	0.494339	-0.148380	-0.299654	-0.003354	-0.004174	-0.001415
1043	5.275552	0.005000	9.573902	0.805408	1.823672	0.494228	-0.148157	-0.299779	0.006882	-0.010647	0.003878
1044	5.280552	0.005000	9.613800	0.728875	1.743245	0.494116	-0.147934	-0.299904	0.001009	-0.011805	0.012600
1045	5.285552	0.005000	9.653040	0.763501	1.697970	0.494131	-0.147711	-0.300000	-0.015188	-0.014145	0.005565
1046	5.290552	0.005000	9.613800	0.812120	1.632680	0.494577	-0.147488	-0.300000	-0.004314	-0.013414	-0.002389
1047	5.295552	0.005000	9.722337	0.766435	1.726560	0.495023	-0.147264	-0.300000	0.002623	-0.008957	0.002540
1048	5.300552	0.005000	9.777527	0.726621	1.719793	0.495469	-0.147041	-0.300000	0.005400	-0.005770	0.000869
1049	5.305552	0.005000	9.692280	0.872003	1.761438	0.495916	-0.146818	-0.300000	-0.003990	-0.004481	0.004857
1050	5.310552	0.005000	9.690336	0.747504	1.687320	0.496362	-0.146595	-0.300000	0.000251	-0.006790	0.012985
1051	5.315552	0.005000	9.614254	0.784800	1.764892	0.496808	-0.146372	-0.300000	0.001148	-0.004443	0.009724
1052	5.320552	0.005000	9.616677	0.790554	1.645203	0.497254	-0.146149	-0.300000	0.005789	-0.002004	-0.000476
1053	5.325552	0.005000	9.574560	0.847434	1.760518	0.497700	-0.145926	-0.300000	0.010809	-0.013141	0.012349
1054	5.330552	0.005000	9.684582	0.870978	1.679622	0.498147	-0.145703	-0.300000	0.007248	-0.005757	0.007699
1055	5.335552	0.005000	9.731520	0.706320	1.755347	0.498593	-0.145480	-0.300000	0.010782	-0.008155	-0.000857
1056	5.340552	0.005000	9.626628	0.759144	1.700148	0.499039	-0.145256	-0.300000	0.001963	-0.010827	0.002176
1057	5.345552	0.005000	9.607386	0.688712	1.759386	0.499485	-0.145033	-0.300000	0.007908	-0.002510	0.010854
1058	5.350552	0.005000	9.617854	0.806447	1.726560	0.499932	-0.144810	-0.300000	-0.000097	-0.005045	0.009270
1059	5.355552	0.005000	9.653040	0.825234	1.863303	0.499906	-0.144870	-0.299789	0.002510	-0.006582	-0.000339
1060	5.360552	0.005000	9.619817	0.824040	1.788428	0.499794	-0.144982	-0.299540	0.002846	-0.015925	0.009824
1061	5.365552	0.005000	9.628002	0.824040	1.776635	0.499682	-0.145094	-0.299291	-0.001382	-0.004819	0.007630
1062	5.370552	0.005000	9.613800	0.902520	1.698983	0.499571	-0.145205	-0.299042	0.008406	-0.009318	0.003586
1063	5.375552	0.005000	9.641619	0.904668	1.578873	0.499459	-0.145317	-0.298793	-0.002120	-0.011180	0.014764
1064	5.380552	0.005000	9.620698	0.773152	1.726560	0.499348	-0.145428	-0.298543	-0.004064	-0.011730	0.005122
1065	5.385552	0.005000	9.579068	0.928236	1.765800	0.499236	-0.145540	-0.298294	0.007450	-0.010730	0.006932
1066	5.390552	0.005000	9.541719	0.946026	1.802907	0.499124	-0.145652	-0.298045	0.005897	-0.009764	0.012365
1067	5.395552	0.005000	9.614511	0.943182	1.765800	0.499013	-0.145763	-0.297796	0.006694	-0.010598	0.012115
1068	5.400552	0.005000	9.728419	0.863280	1.801939	0.498901	-0.145875	-0.297547	0.007804	-0.005101	0.008567
1069	5.405552	0.005000	9.658516	0.868756	1.765800	0.498790	-0.145986	-0.297298	0.007077	-0.010478	-0.001180
1070	5.410552	0.005000	9.653040	0.863280	1.734426	0.498678	-0.146098	-0.297049	0.014656	-0.001362	0.005110
1071	5.415552	0.005000	9.576780	0.795165	1.658445	0.498566	-0.146210	-0.296800	0.007735	-0.004546	-0.003357
1072	5.420552	0.005000	9.666722	0.679859	1.596061	0.498403	-0.146217	-0.296958	0.017516	-0.009118	0.012465
1073	5.425552	0.005000	9.683990	0.791985	1.750325	0.498180	-0.146105	-0.297581	0.002979	-0.002749	-0.002486
1074	5.430552	0.005000	9.653040	0.802650	1.744410	0.497956	-0.145994	-0.298204	-0.001306	-0.009297	0.002270
1075	5.435552	0.005000	9.593560	0.824040	1.667080	0.497733	-0.145882	-0.298827	0.004088	-0.013186	0.015876
1076	5.440552	0.005000	9.619790	0.902520	1.709935	0.497510	-0.145770	-0.299450	-0.000290	-0.003054	0.007477
1077	5.445552	0.005000	9.642269	0.891749	1.765800	0.497287	-0.145659	-0.300073	0.003181	-0.006012	0.005594
1078	5.450552	0.005000	9.692280	0.874809	1.754271	0.497064	-0.145547	-0.300695	0.002138	-0.002076	0.002817
1079	5.455552	0.005000	9.671283	0.863280	1.717439	0.496841	-0.145436	-0.301318	0.009030	-0.009995	0.006240
1080	5.460552	0.005000	9.678868	0.830746	1.726560	0.496618	-0.145324	-0.301941	0.008639	-0.003084	0.008341
1081	5.465552	0.005000	9.587312	0.776299	1.656581	0.496395	-0.145212	-0.302564	0.004466	-0.013229	0.004434
1082	5.470552	0.005000	9.694156	0.706320	1.726560	0.496171	-0.145101	-0.303187	0.010681	-0.011627	0.009410
1083	5.475552	0.005000	9.615361	0.667600	1.687840	0.495948	-0.144989	-0.303810	0.006896	-0.006755	0.003830
1084	5.480552	0.005000	9.610876	0.815267	1.693168	0.495725	-0.144878	-0.304433	0.019027	0.001554	0.002889
1085	5.485552	0.005000	9.624482	0.891838	1.692661	0.495522	-0.144776	-0.305000	0.019230	-0.002216	0.009970
1086	5.490552	0.005000	9.590054	0.815788	1.773547	0.495522	-0.144776	-0.305000	0.011149	-0.004698	0.011308
1087	5.495552	0.005000	9.632043	0.852782	1.862523	0.495522	-0.144776	-0.305000	0.010037	-0.006741	0.011323
1088	5.500552	0.005000	9.613800	0.732097	1.700208	0.495522	-0.144776	-0.305000	-0.005801	-0.009611	0.000709
1089	5.505552	0.005000	9.598537	0.832753	1.702583	0.495522	-0.144776	-0.305000	0.005185	-0.002978	0.008059
1090	5.510552	0.005000	9.578493	0.784800	1.848213	0.495522	-0.144776	-0.305000	0.002403	-0.004585	0.006591
1091	5.515552	0.005000	9.730703	0.783983	1.726560	0.495522	-0.144776	-0.305000	-0.000006	0.003211	0.004118
1092	5.520552	0.005000	9.703474	0.840861	1.748979	0.495522	-0.144776	-0.305000	0.001468	-0.003719	-0.000686
1093	5.525552	0.005000	9.520874	0.770354	1.833933	0.495522	-0.144776	-0.305000	0.003230	-0.005270	0.010677
1094	5.530552	0.005000	9.566847	0.773062	1.691345	0.495522	-0.144776	-0.305000	0.005244	-0.005417	0.007094
1095	5.535552	0.005000	9.524052	0.715644	1.638756	0.495522	-0.144776	-0.305000	-0.000684	-0.012013	-0.001862
1096	5.540552	0.005000	9.653040	0.699402	1.726560	0.495522	-0.144776	-0.305000	-0.004517	-0.006831	0.010934
1097	5.545552	0.005000	9.574560	0.680584	1.770301	0.495522	-0.144776	-0.305000	0.010444	0.002999	0.010872
1098	5.550552	0.005000	9.650968	0.863280	1.610912	0.495522	-0.144776	-0.305000	-0.008498	-0.008418	0.010609
1099	5.555552	0.005000	9.535963	0.863280	1.686999	0.495522	-0.144698	-0.304737	-0.012803	-0.008822	-0.002607
1100	5.560552	0.005000	9.644864	0.821315	1.802315	0.495522	-0.144586	-0.304363	-0.000611	-0.003332	-0.007927
1101	5.565552	0.005000	9.540449	0.936631	1.907373	0.495522	-0.144475	-0.303990	0.002914	-0.014976	0.003500
1102	5.570552	0.005000	9.488486	0.816128	1.797446	0.495522	-0.144363	-0.303616	-0.002964	-0.007545	0.002083
1103	5.575552	0.005000	9.690313	0.842677	1.755498	0.495522	-0.144252	-0.303243	0.005020	-0.005615	0.005957
1104	5.580552	0.005000	9.718843	0.902520	1.805040	0.495522	-0.144140	-0.302869	0.005880	0.002577	0.006313
1105	5.585552	0.005000	9.683173	0.790760	1.780867	0.495522	-0.144029	-0.302496	0.002709	0.000916	-0.001639
