# FOX Logger (IMU file)
# (c) INRIA 2011-2014
# File created from file sensbiotk output
#
# File format:
# id	t	dt	ax	ay	az	mx	my	mz	gx	gy	gz
#
# Units:
#	Time: s
#	Acceleration: m.s^-2
#	Magneto: gauss
#	Gyrometer: rad/s
#
1	0.001831	0.001831	9.142920	-0.196200	1.373400	-0.740389	-0.312068	-0.329657	-0.009799	-0.018373	0.005044
2	0.006831	0.005000	9.216620	-0.235440	1.375790	-0.741162	-0.313173	-0.326697	-0.008815	-0.003178	-0.002997
3	0.011831	0.005000	9.260640	-0.240205	1.412640	-0.741935	-0.314277	-0.323736	-0.010158	-0.004383	-0.003187
4	0.016831	0.005000	9.163213	-0.235440	1.366636	-0.742708	-0.315382	-0.320776	-0.021393	-0.011415	-0.005072
5	0.021831	0.005000	9.182160	-0.226379	1.512238	-0.743481	-0.316486	-0.317816	-0.011696	-0.021142	0.001624
6	0.026831	0.005000	9.249189	-0.168411	1.502571	-0.744254	-0.317591	-0.314856	-0.007713	-0.001357	0.011540
7	0.031831	0.005000	9.274169	-0.182671	1.412640	-0.745027	-0.318695	-0.311896	-0.005557	0.002454	-0.005062
8	0.036831	0.005000	9.205653	-0.149215	1.412640	-0.745800	-0.319800	-0.308936	-0.014417	-0.017543	-0.003342
9	0.041831	0.005000	9.239538	-0.235440	1.391538	-0.746573	-0.320905	-0.305976	-0.016008	-0.010327	0.000735
10	0.046831	0.005000	9.320173	-0.216493	1.315213	-0.747347	-0.322009	-0.303016	-0.009383	-0.009582	0.001360
11	0.051831	0.005000	9.260640	-0.196200	1.344525	-0.748120	-0.323114	-0.300056	-0.014470	-0.007876	0.004937
12	0.056831	0.005000	9.303889	-0.142544	1.358984	-0.748893	-0.324218	-0.297096	-0.013092	-0.012717	0.003930
13	0.061831	0.005000	9.351302	-0.169142	1.334160	-0.749666	-0.325323	-0.294136	-0.011000	-0.015528	0.009026
14	0.066831	0.005000	9.358824	-0.147192	1.353696	-0.750439	-0.326427	-0.291176	-0.016523	-0.000048	-0.002339
15	0.071831	0.005000	9.189890	-0.196200	1.389450	-0.750213	-0.326133	-0.291636	-0.021377	-0.022719	0.002048
16	0.076831	0.005000	9.255222	-0.196200	1.255680	-0.749329	-0.324918	-0.294351	-0.007250	-0.015024	0.006258
17	0.081831	0.005000	9.103680	-0.190198	1.297921	-0.748445	-0.323702	-0.297066	-0.012505	-0.000882	0.006815
18	0.086831	0.005000	9.181101	-0.195141	1.369164	-0.747561	-0.322487	-0.299780	-0.012396	-0.010120	0.007029
19	0.091831	0.005000	9.218706	-0.194853	1.254333	-0.746677	-0.321271	-0.302495	-0.005611	-0.004663	0.007351
20	0.096831	0.005000	9.363356	-0.121471	1.294920	-0.745793	-0.320056	-0.305210	-0.004105	-0.008247	0.007445
21	0.101831	0.005000	9.378360	-0.223247	1.433591	-0.744909	-0.318840	-0.307924	-0.006934	-0.004887	0.001605
22	0.106831	0.005000	9.316102	-0.173182	1.428862	-0.744025	-0.317625	-0.310639	-0.016622	-0.011715	0.003360
23	0.111831	0.005000	9.310398	-0.206718	1.441362	-0.743141	-0.316409	-0.313353	-0.008558	-0.011941	0.009752
24	0.116831	0.005000	9.155702	-0.235440	1.399858	-0.742257	-0.315194	-0.316068	-0.007799	-0.001431	0.001502
25	0.121831	0.005000	9.299880	-0.274680	1.285431	-0.741373	-0.313978	-0.318783	-0.001413	-0.004059	0.011327
26	0.126831	0.005000	9.321835	-0.235440	1.412640	-0.740489	-0.312763	-0.321497	-0.001392	-0.003549	0.004586
27	0.131831	0.005000	9.280109	-0.274377	1.472256	-0.739605	-0.311547	-0.324212	-0.012228	-0.010851	-0.008603
28	0.136831	0.005000	9.282280	-0.274680	1.363881	-0.738795	-0.310448	-0.326691	-0.016131	-0.004333	0.000434
29	0.141831	0.005000	9.245452	-0.244305	1.216440	-0.738685	-0.310448	-0.326937	-0.010108	-0.009407	-0.005363
30	0.146831	0.005000	9.286795	-0.209270	1.203385	-0.738574	-0.310448	-0.327184	-0.009369	-0.013638	0.008273
31	0.151831	0.005000	9.221400	-0.167795	1.362565	-0.738464	-0.310448	-0.327431	-0.020777	0.005039	0.004008
32	0.156831	0.005000	9.159761	-0.204621	1.364979	-0.738353	-0.310448	-0.327677	-0.010654	-0.011663	0.000789
33	0.161831	0.005000	9.293466	-0.261852	1.235682	-0.738243	-0.310448	-0.327924	-0.015363	0.003451	0.005192
34	0.166831	0.005000	9.339120	-0.183982	1.307138	-0.738133	-0.310448	-0.328170	-0.021208	-0.004487	0.003506
35	0.171831	0.005000	9.298212	-0.197868	1.376736	-0.738022	-0.310448	-0.328417	-0.024360	-0.003814	0.002746
36	0.176831	0.005000	9.260640	-0.274404	1.451880	-0.737912	-0.310448	-0.328664	-0.019549	-0.006013	-0.004585
37	0.181831	0.005000	9.339120	-0.081174	1.488426	-0.737801	-0.310448	-0.328910	-0.022440	-0.010435	-0.002830
38	0.186831	0.005000	9.299880	-0.029165	1.383475	-0.737691	-0.310448	-0.329157	-0.019702	-0.001782	-0.002733
39	0.191831	0.005000	9.260640	-0.142875	1.373400	-0.737580	-0.310448	-0.329404	-0.020656	-0.018973	-0.002234
40	0.196831	0.005000	9.348578	-0.255764	1.323294	-0.737470	-0.310448	-0.329650	-0.022544	-0.008853	-0.000127
41	0.201831	0.005000	9.233265	-0.286545	1.334160	-0.737359	-0.310448	-0.329897	-0.022322	0.002424	-0.007521
42	0.206831	0.005000	9.263741	-0.260566	1.370299	-0.737442	-0.310448	-0.329856	-0.011158	-0.012657	-0.000671
43	0.211831	0.005000	9.322898	-0.179978	1.445085	-0.737663	-0.310448	-0.329609	-0.011744	-0.004651	-0.001087
44	0.216831	0.005000	9.221400	-0.237415	1.472488	-0.737884	-0.310448	-0.329363	-0.008708	-0.016315	0.003592
45	0.221831	0.005000	9.263000	-0.235440	1.373400	-0.738105	-0.310448	-0.329116	-0.009270	-0.008153	-0.000291
46	0.226831	0.005000	9.283815	-0.235440	1.444770	-0.738326	-0.310448	-0.328869	-0.013100	-0.001825	-0.003756
47	0.231831	0.005000	9.313720	-0.184641	1.398800	-0.738547	-0.310448	-0.328622	-0.003404	-0.004746	0.005457
48	0.236831	0.005000	9.299880	-0.262911	1.389102	-0.738768	-0.310448	-0.328376	-0.015642	-0.006585	-0.000055
49	0.241831	0.005000	9.329741	-0.244819	1.225819	-0.738989	-0.310448	-0.328129	0.000797	-0.016430	0.011825
50	0.246831	0.005000	9.292794	-0.189114	1.302006	-0.739210	-0.310448	-0.327882	-0.012009	-0.007215	0.000588
51	0.251831	0.005000	9.226070	-0.196200	1.343499	-0.739431	-0.310448	-0.327635	-0.012442	-0.006541	-0.003230
52	0.256831	0.005000	9.302573	-0.271987	1.415333	-0.739652	-0.310448	-0.327389	-0.006276	-0.009231	0.010350
53	0.261831	0.005000	9.339120	-0.274045	1.412958	-0.739874	-0.310448	-0.327142	-0.015416	-0.007366	-0.007198
54	0.266831	0.005000	9.339120	-0.196200	1.377593	-0.740095	-0.310448	-0.326895	-0.006842	-0.010587	0.009206
55	0.271831	0.005000	9.217360	-0.196200	1.330120	-0.740257	-0.310456	-0.326686	-0.014488	-0.006249	-0.006762
56	0.276831	0.005000	9.247749	-0.268234	1.543818	-0.739705	-0.310567	-0.326932	-0.017499	-0.003423	-0.000854
57	0.281831	0.005000	9.299880	-0.265819	1.403779	-0.739153	-0.310677	-0.327179	-0.022249	-0.002712	0.010484
58	0.286831	0.005000	9.339120	-0.196200	1.351790	-0.738601	-0.310788	-0.327426	-0.007307	-0.013542	-0.005690
59	0.291831	0.005000	9.325907	-0.183385	1.346975	-0.738048	-0.310898	-0.327672	-0.006562	-0.017313	0.001167
60	0.296831	0.005000	9.245195	-0.187850	1.373400	-0.737496	-0.311008	-0.327919	-0.006053	-0.006770	0.001274
61	0.301831	0.005000	9.217298	-0.152858	1.355831	-0.736944	-0.311119	-0.328165	-0.009508	-0.004932	0.008430
62	0.306831	0.005000	9.280620	-0.273960	1.314900	-0.736391	-0.311229	-0.328412	-0.014486	-0.003641	0.001726
63	0.311831	0.005000	9.294353	-0.235440	1.463210	-0.735839	-0.311340	-0.328659	-0.013819	-0.003080	0.003216
64	0.316831	0.005000	9.324208	-0.229944	1.451880	-0.735287	-0.311450	-0.328905	-0.011048	-0.001568	-0.001248
65	0.321831	0.005000	9.233904	-0.247944	1.441106	-0.734735	-0.311560	-0.329152	-0.009988	-0.002828	-0.000214
66	0.326831	0.005000	9.250551	-0.264591	1.305009	-0.734182	-0.311671	-0.329399	-0.003530	-0.008236	0.009956
67	0.331831	0.005000	9.174112	-0.219345	1.365352	-0.733630	-0.311781	-0.329645	-0.013004	-0.007275	-0.002165
68	0.336831	0.005000	9.103680	-0.196200	1.395622	-0.733078	-0.311892	-0.329892	-0.005426	-0.021069	0.009934
69	0.341831	0.005000	9.146242	-0.235440	1.405995	-0.732898	-0.312002	-0.329931	0.004475	-0.013974	-0.000460
70	0.346831	0.005000	9.222761	-0.196200	1.255680	-0.733008	-0.312113	-0.329807	-0.005879	-0.006568	-0.001474
71	0.351831	0.005000	9.337068	-0.157986	1.293894	-0.733119	-0.312223	-0.329684	-0.016007	-0.002538	-0.003771
72	0.356831	0.005000	9.260640	-0.160364	1.366593	-0.733229	-0.312334	-0.329561	-0.012318	0.002363	0.002375
73	0.361831	0.005000	9.299880	-0.196200	1.474959	-0.733340	-0.312444	-0.329437	-0.006233	-0.012036	0.007500
74	0.366831	0.005000	9.402014	-0.235440	1.365607	-0.733450	-0.312555	-0.329314	-0.017428	-0.007411	0.001520
75	0.371831	0.005000	9.397184	-0.167168	1.470704	-0.733561	-0.312665	-0.329190	-0.007504	-0.013609	-0.000479
76	0.376831	0.005000	9.339120	-0.169425	1.425105	-0.733671	-0.312776	-0.329067	-0.016438	-0.013823	0.008108
77	0.381831	0.005000	9.270760	-0.196200	1.408200	-0.733781	-0.312886	-0.328944	-0.019450	0.000109	-0.002138
78	0.386831	0.005000	9.238364	-0.196200	1.390364	-0.733892	-0.312996	-0.328820	-0.021309	0.000988	0.010456
79	0.391831	0.005000	9.201311	-0.176111	1.411702	-0.734002	-0.313107	-0.328697	-0.029581	-0.008491	0.002249
80	0.396831	0.005000	9.200081	-0.156960	1.334160	-0.734113	-0.313217	-0.328574	-0.017976	-0.006855	0.005201
81	0.401831	0.005000	9.276149	-0.259171	1.349669	-0.734223	-0.313328	-0.328450	-0.014628	-0.003837	0.014423
82	0.406831	0.005000	9.299880	-0.182797	1.426043	-0.734323	-0.313422	-0.328327	-0.008331	-0.003452	-0.000948
83	0.411831	0.005000	9.182160	-0.235440	1.491120	-0.734212	-0.313201	-0.328204	-0.004031	-0.000714	0.012766
84	0.416831	0.005000	9.190902	-0.305178	1.382142	-0.734102	-0.312980	-0.328080	-0.010566	0.005570	-0.007274
85	0.421831	0.005000	9.246744	-0.183528	1.334160	-0.733991	-0.312759	-0.327957	-0.002592	-0.013701	0.000456
86	0.426831	0.005000	9.260640	-0.187517	1.338502	-0.733881	-0.312539	-0.327834	-0.006789	-0.005411	0.009704
87	0.431831	0.005000	9.293955	-0.158935	1.451880	-0.733771	-0.312318	-0.327711	-0.007276	-0.010440	-0.000373
88	0.436831	0.005000	9.259793	-0.235016	1.413064	-0.733660	-0.312097	-0.327587	-0.006753	-0.015850	-0.001219
89	0.441831	0.005000	9.299880	-0.235440	1.405521	-0.733550	-0.311876	-0.327464	-0.001712	-0.011006	-0.002824
90	0.446831	0.005000	9.157291	-0.235440	1.294920	-0.733439	-0.311655	-0.327341	-0.004950	-0.010605	-0.002663
91	0.451831	0.005000	9.299880	-0.267484	1.248484	-0.733329	-0.311434	-0.327217	-0.005323	-0.000109	0.002356
92	0.456831	0.005000	9.191648	-0.136697	1.324672	-0.733218	-0.311213	-0.327094	-0.008802	-0.008684	-0.001779
93	0.461831	0.005000	9.299880	-0.211690	1.337775	-0.733108	-0.310992	-0.326971	-0.012091	-0.015507	0.011529
94	0.466831	0.005000	9.325163	-0.120352	1.477163	-0.732998	-0.310771	-0.326848	-0.017127	-0.004604	0.000772
95	0.471831	0.005000	9.322753	-0.094847	1.464894	-0.732887	-0.310551	-0.326724	-0.004277	-0.008858	0.006721
96	0.476831	0.005000	9.299880	-0.196200	1.472559	-0.732954	-0.310389	-0.326667	-0.005578	0.000891	-0.000068
97	0.481831	0.005000	9.357638	-0.096998	1.373400	-0.733175	-0.310278	-0.326667	-0.019438	-0.018717	0.016017
98	0.486831	0.005000	9.355226	-0.173066	1.412640	-0.733396	-0.310168	-0.326667	-0.008909	0.004503	0.009229
99	0.491831	0.005000	9.246647	-0.184945	1.370662	-0.733617	-0.310057	-0.326667	-0.005580	-0.004437	-0.002847
100	0.496831	0.005000	9.260640	-0.172693	1.475387	-0.733838	-0.309947	-0.326667	-0.007882	-0.009533	0.000258
101	0.501831	0.005000	9.182160	-0.226101	1.412640	-0.734059	-0.309836	-0.326667	-0.019873	-0.001848	-0.003019
102	0.506831	0.005000	9.236013	-0.267374	1.380706	-0.734280	-0.309726	-0.326667	-0.016257	-0.003665	0.005667
103	0.511831	0.005000	9.260640	-0.264702	1.417629	-0.734501	-0.309615	-0.326667	-0.015142	-0.003300	0.002573
104	0.516831	0.005000	9.263212	-0.238012	1.336732	-0.734722	-0.309505	-0.326667	-0.005011	-0.006511	0.002054
105	0.521831	0.005000	9.260640	-0.156340	1.372780	-0.734942	-0.309394	-0.326667	-0.004676	-0.001433	0.004437
106	0.526831	0.005000	9.298104	-0.080256	1.484016	-0.735163	-0.309284	-0.326667	-0.004506	0.002220	-0.006186
107	0.531831	0.005000	9.221400	-0.192070	1.373400	-0.735384	-0.309173	-0.326667	0.005373	-0.003986	0.006780
108	0.536831	0.005000	9.209152	-0.190076	1.431012	-0.735605	-0.309063	-0.326667	-0.016522	0.002827	-0.000684
109	0.541831	0.005000	9.212860	-0.117720	1.395560	-0.735821	-0.308965	-0.326667	-0.011581	-0.024985	0.005558
110	0.546831	0.005000	9.249824	-0.213808	1.391008	-0.735821	-0.309407	-0.326667	-0.006373	-0.006013	0.008810
111	0.551831	0.005000	9.234291	-0.248331	1.360509	-0.735821	-0.309849	-0.326667	-0.005803	-0.009131	0.006058
112	0.556831	0.005000	9.323816	-0.274680	1.373400	-0.735821	-0.310290	-0.326667	-0.013417	-0.005678	0.006172
113	0.561831	0.005000	9.317382	-0.252942	1.351662	-0.735821	-0.310732	-0.326667	-0.020102	-0.001364	-0.003370
114	0.566831	0.005000	9.299335	-0.274680	1.353508	-0.735821	-0.311174	-0.326667	-0.015744	-0.005362	0.004279
115	0.571831	0.005000	9.260640	-0.235440	1.407743	-0.735821	-0.311616	-0.326667	-0.021201	0.002139	-0.001708
116	0.576831	0.005000	9.294843	-0.235440	1.363678	-0.735821	-0.312058	-0.326667	-0.013645	-0.005088	-0.001841
117	0.581831	0.005000	9.220144	-0.262019	1.374656	-0.735821	-0.312499	-0.326667	-0.018075	0.000507	0.000129
118	0.586831	0.005000	9.242214	-0.245847	1.305327	-0.735821	-0.312941	-0.326667	-0.016496	-0.005918	-0.002480
119	0.591831	0.005000	9.362376	-0.235440	1.443888	-0.735821	-0.313383	-0.326667	-0.006537	-0.015119	-0.000306
120	0.596831	0.005000	9.321194	-0.295994	1.385351	-0.735821	-0.313825	-0.326667	-0.018255	-0.008371	-0.006218
121	0.601831	0.005000	9.228601	-0.231840	1.362599	-0.735821	-0.314267	-0.326667	-0.003619	-0.016392	-0.004100
122	0.606831	0.005000	9.301120	-0.232961	1.253201	-0.735821	-0.314708	-0.326667	-0.016717	0.002739	0.002660
123	0.611831	0.005000	9.301045	-0.195035	1.215275	-0.735765	-0.315094	-0.326478	-0.014969	0.000726	-0.004243
124	0.616831	0.005000	9.221400	-0.120842	1.400152	-0.735654	-0.315425	-0.326108	-0.009995	-0.004826	0.006504
125	0.621831	0.005000	9.333593	-0.128774	1.412640	-0.735544	-0.315757	-0.325738	-0.014849	-0.000408	-0.010643
126	0.626831	0.005000	9.260640	-0.133407	1.287084	-0.735433	-0.316088	-0.325368	-0.005529	-0.008988	0.002672
127	0.631831	0.005000	9.221400	-0.147073	1.304807	-0.735323	-0.316419	-0.324998	-0.012004	-0.001276	-0.000541
128	0.636831	0.005000	9.196812	-0.196200	1.388052	-0.735212	-0.316751	-0.324628	-0.012067	-0.006908	0.000681
129	0.641831	0.005000	9.196697	-0.171497	1.369028	-0.735102	-0.317082	-0.324258	-0.002284	-0.007580	0.008909
130	0.646831	0.005000	9.204749	-0.162898	1.344873	-0.734991	-0.317414	-0.323888	-0.011064	0.000670	0.001112
131	0.651831	0.005000	9.299880	-0.156960	1.293802	-0.734881	-0.317745	-0.323518	-0.005020	-0.008506	0.006779
132	0.656831	0.005000	9.324310	-0.238647	1.370193	-0.734770	-0.318076	-0.323148	-0.007475	-0.000928	-0.013358
133	0.661831	0.005000	9.174203	-0.180558	1.428282	-0.734660	-0.318408	-0.322778	-0.002828	-0.014050	-0.006580
134	0.666831	0.005000	9.234812	-0.156960	1.490125	-0.734549	-0.318739	-0.322408	-0.015070	0.001859	-0.003457
135	0.671831	0.005000	9.260640	-0.241669	1.401636	-0.734439	-0.319070	-0.322038	-0.016497	-0.003297	-0.002910
136	0.676831	0.005000	9.361182	-0.095658	1.451880	-0.734328	-0.319402	-0.321668	-0.001688	-0.006608	0.012667
137	0.681831	0.005000	9.273955	-0.202857	1.354132	-0.734658	-0.319073	-0.322159	-0.014512	-0.001137	0.000293
138	0.686831	0.005000	9.260640	-0.266198	1.447639	-0.734990	-0.318741	-0.322652	-0.013676	-0.004228	0.000305
139	0.691831	0.005000	9.221400	-0.119989	1.408102	-0.735321	-0.318410	-0.323145	-0.021527	0.011289	0.005009
140	0.696831	0.005000	9.299666	-0.156960	1.334160	-0.735652	-0.318079	-0.323638	-0.011785	-0.000253	0.002652
141	0.701831	0.005000	9.184656	-0.196200	1.405152	-0.735984	-0.317747	-0.324132	-0.017049	0.001238	0.002001
142	0.706831	0.005000	9.225869	-0.187262	1.303858	-0.736315	-0.317416	-0.324625	-0.011171	-0.000654	0.004581
143	0.711831	0.005000	9.350863	-0.228566	1.380274	-0.736646	-0.317085	-0.325118	-0.003483	-0.010447	0.003477
144	0.716831	0.005000	9.299880	-0.205490	1.334160	-0.736978	-0.316753	-0.325612	-0.009774	-0.011532	0.001413
145	0.721831	0.005000	9.299880	-0.219314	1.357274	-0.737309	-0.316422	-0.326105	-0.013618	-0.013943	0.002947
146	0.726831	0.005000	9.313827	-0.196200	1.308867	-0.737641	-0.316090	-0.326598	-0.018754	-0.001879	0.002426
147	0.731831	0.005000	9.237454	-0.203332	1.341292	-0.737972	-0.315759	-0.327091	-0.016088	-0.007634	-0.010219
148	0.736831	0.005000	9.202936	-0.274680	1.352624	-0.738303	-0.315428	-0.327585	-0.010771	-0.011910	0.009341
149	0.741831	0.005000	9.202794	-0.177594	1.389979	-0.738635	-0.315096	-0.328078	-0.018301	0.004585	-0.012911
150	0.746831	0.005000	9.303507	-0.163357	1.481096	-0.738806	-0.314978	-0.327916	-0.012221	-0.006263	-0.001117
151	0.751831	0.005000	9.389582	-0.025231	1.477111	-0.738806	-0.315089	-0.327053	-0.014186	-0.010041	0.001833
152	0.756831	0.005000	9.269489	-0.117720	1.345765	-0.738806	-0.315199	-0.326189	-0.010572	-0.018631	0.001703
153	0.761831	0.005000	9.201251	-0.166505	1.382945	-0.738806	-0.315310	-0.325326	-0.002652	-0.011787	0.003734
154	0.766831	0.005000	9.371106	-0.156960	1.366146	-0.738806	-0.315420	-0.324463	-0.006929	-0.001722	-0.001121
155	0.771831	0.005000	9.304718	-0.269842	1.334160	-0.738806	-0.315531	-0.323599	-0.007021	-0.014275	0.010616
156	0.776831	0.005000	9.302313	-0.309053	1.415073	-0.738806	-0.315641	-0.322736	-0.014423	-0.012886	-0.007572
157	0.781831	0.005000	9.338636	-0.274680	1.411188	-0.738806	-0.315752	-0.321873	-0.010345	-0.017924	-0.001454
158	0.786831	0.005000	9.262568	-0.274680	1.294920	-0.738806	-0.315862	-0.321009	-0.004564	-0.011052	0.001592
159	0.791831	0.005000	9.190722	-0.196200	1.447599	-0.738806	-0.315973	-0.320146	-0.015189	-0.007626	-0.006757
160	0.796831	0.005000	9.299880	-0.274680	1.340831	-0.738806	-0.316083	-0.319283	-0.008888	-0.015599	0.008254
161	0.801831	0.005000	9.260640	-0.226747	1.403947	-0.738806	-0.316194	-0.318420	-0.013517	-0.000155	-0.003530
162	0.806831	0.005000	9.249540	-0.291720	1.401540	-0.738806	-0.316304	-0.317556	-0.003315	-0.016472	-0.000544
163	0.811831	0.005000	9.260640	-0.222915	1.373400	-0.738806	-0.316415	-0.316693	-0.005527	-0.001397	-0.002850
164	0.816831	0.005000	9.245183	-0.165285	1.412640	-0.739878	-0.317811	-0.315709	-0.004193	-0.007081	0.000806
165	0.821831	0.005000	9.257134	-0.156960	1.376906	-0.740983	-0.319248	-0.314722	-0.010474	-0.008275	0.010545
166	0.826831	0.005000	9.242994	-0.293642	1.355754	-0.742088	-0.320684	-0.313735	-0.016304	0.005523	-0.008294
167	0.831831	0.005000	9.198981	-0.179379	1.278099	-0.743193	-0.322121	-0.312748	-0.005355	-0.009532	0.001492
168	0.836831	0.005000	9.260640	-0.185853	1.230886	-0.744298	-0.323557	-0.311761	-0.020371	0.001647	-0.004738
169	0.841831	0.005000	9.272842	-0.235440	1.319324	-0.745403	-0.324994	-0.310774	-0.015870	-0.007110	-0.002326
170	0.846831	0.005000	9.260640	-0.215789	1.363605	-0.746508	-0.326430	-0.309786	-0.008013	-0.001976	0.003770
171	0.851831	0.005000	9.236921	-0.196200	1.404880	-0.747613	-0.327867	-0.308799	-0.000378	0.008373	-0.009671
172	0.856831	0.005000	9.315990	-0.089220	1.462620	-0.748718	-0.329303	-0.307812	-0.012483	-0.017057	0.008179
173	0.861831	0.005000	9.305940	-0.196200	1.521269	-0.749823	-0.330740	-0.306825	-0.012151	-0.006813	-0.008000
174	0.866831	0.005000	9.301105	-0.196200	1.412028	-0.750927	-0.332176	-0.305838	-0.003357	-0.021772	-0.003595
175	0.871831	0.005000	9.340451	-0.158291	1.411309	-0.752032	-0.333613	-0.304850	-0.015781	-0.004382	0.001346
176	0.876831	0.005000	9.339120	-0.188729	1.345367	-0.753137	-0.335049	-0.303863	-0.011698	-0.006504	-0.005500
177	0.881831	0.005000	9.227552	-0.117720	1.379552	-0.753680	-0.335054	-0.303961	-0.011306	-0.006466	0.011410
178	0.886831	0.005000	9.182160	-0.165416	1.334160	-0.753569	-0.333398	-0.305318	0.001302	-0.011038	0.000646
179	0.891831	0.005000	9.289034	-0.207046	1.362554	-0.753459	-0.331741	-0.306674	-0.004872	-0.011819	0.006938
180	0.896831	0.005000	9.286474	-0.117720	1.334160	-0.753349	-0.330084	-0.308031	-0.007520	-0.007171	0.010388
181	0.901831	0.005000	9.206075	-0.117720	1.405904	-0.753238	-0.328427	-0.309388	-0.009468	-0.008003	0.001710
182	0.906831	0.005000	9.282142	-0.242970	1.416405	-0.753128	-0.326771	-0.310745	-0.012908	-0.003879	0.006483
183	0.911831	0.005000	9.163402	-0.353735	1.511027	-0.753017	-0.325114	-0.312101	-0.017619	-0.007121	-0.006462
184	0.916831	0.005000	9.142920	-0.274680	1.351316	-0.752907	-0.323457	-0.313458	-0.010337	-0.014971	0.017457
185	0.921831	0.005000	9.206656	-0.274680	1.309664	-0.752797	-0.321800	-0.314815	-0.017206	-0.004359	0.004156
186	0.926831	0.005000	9.298579	-0.208846	1.401295	-0.752686	-0.320144	-0.316172	-0.008605	-0.019857	0.010200
187	0.931831	0.005000	9.397057	-0.264409	1.294920	-0.752576	-0.318487	-0.317528	-0.008665	-0.017802	0.008387
188	0.936831	0.005000	9.299880	-0.204177	1.373400	-0.752465	-0.316830	-0.318885	-0.011268	-0.010466	0.008524
189	0.941831	0.005000	9.232541	-0.269109	1.334160	-0.752355	-0.315173	-0.320242	-0.012887	-0.007835	0.005787
190	0.946831	0.005000	9.303465	-0.160545	1.294920	-0.752245	-0.313517	-0.321599	-0.018139	-0.005044	-0.004749
191	0.951831	0.005000	9.259445	-0.197395	1.371010	-0.752239	-0.315006	-0.319911	-0.015443	0.002729	0.014697
192	0.956831	0.005000	9.183354	-0.273486	1.332966	-0.752239	-0.316662	-0.318062	-0.020599	0.003602	0.011095
193	0.961831	0.005000	9.299880	-0.235440	1.255680	-0.752239	-0.318318	-0.316213	-0.010384	-0.003362	0.007943
194	0.966831	0.005000	9.260640	-0.162515	1.407085	-0.752239	-0.319974	-0.314363	-0.008858	-0.007227	0.002453
195	0.971831	0.005000	9.284238	-0.219708	1.412640	-0.752239	-0.321630	-0.312514	-0.004892	-0.008074	-0.000082
196	0.976831	0.005000	9.258855	-0.255953	1.421111	-0.752239	-0.323286	-0.310665	-0.013754	-0.010083	-0.001217
197	0.981831	0.005000	9.312189	-0.274680	1.385709	-0.752239	-0.324942	-0.308816	-0.015686	0.003382	-0.007221
198	0.986831	0.005000	9.348915	-0.269752	1.422435	-0.752239	-0.326598	-0.306966	-0.018955	-0.013403	-0.003503
199	0.991831	0.005000	9.378360	-0.274680	1.317233	-0.752239	-0.328254	-0.305117	-0.016653	0.001367	0.006343
200	0.996831	0.005000	9.358196	-0.254516	1.374487	-0.752239	-0.329910	-0.303268	-0.004819	-0.002359	0.002885
201	1.001831	0.005000	9.207381	-0.196200	1.280901	-0.752239	-0.331566	-0.301419	-0.006907	-0.008344	0.005874
202	1.006831	0.005000	9.228182	-0.180859	1.334160	-0.752239	-0.333222	-0.299570	-0.002565	0.005644	0.003867
203	1.011831	0.005000	9.299880	-0.170196	1.347396	-0.752239	-0.334878	-0.297720	-0.000444	0.000206	0.011468
204	1.016831	0.005000	9.249652	-0.156960	1.401652	-0.751716	-0.334965	-0.297676	-0.000989	0.006459	0.004545
205	1.021831	0.005000	9.238547	-0.148386	1.381974	-0.750501	-0.332977	-0.300019	-0.008588	-0.006939	-0.003759
206	1.026831	0.005000	9.345670	-0.235440	1.366850	-0.749286	-0.330989	-0.302362	-0.011141	0.000093	0.004539
207	1.031831	0.005000	9.339120	-0.274680	1.381848	-0.748071	-0.329001	-0.304706	-0.013931	-0.006057	-0.008484
208	1.036831	0.005000	9.340927	-0.237247	1.451880	-0.746856	-0.327013	-0.307049	-0.010247	-0.020532	0.016659
209	1.041831	0.005000	9.300155	-0.157373	1.412778	-0.745641	-0.325025	-0.309392	-0.013094	0.000598	-0.002916
210	1.046831	0.005000	9.368194	-0.232899	1.444256	-0.744426	-0.323037	-0.311736	-0.003246	-0.001820	0.006092
211	1.051831	0.005000	9.289963	-0.264763	1.412640	-0.743211	-0.321048	-0.314079	-0.013691	-0.000333	-0.002056
212	1.056831	0.005000	9.260640	-0.164236	1.334160	-0.741996	-0.319060	-0.316422	-0.011763	-0.009624	-0.003337
213	1.061831	0.005000	9.270291	-0.147309	1.334160	-0.740781	-0.317072	-0.318766	-0.008759	-0.016081	0.011402
214	1.066831	0.005000	9.205585	-0.117720	1.385112	-0.739566	-0.315084	-0.321109	-0.013567	-0.009748	0.003334
215	1.071831	0.005000	9.157046	-0.142834	1.412640	-0.738352	-0.313096	-0.323452	-0.011158	-0.016966	0.008501
216	1.076831	0.005000	9.188725	-0.274680	1.232777	-0.737137	-0.311108	-0.325796	-0.023015	-0.004915	0.004836
217	1.081831	0.005000	9.299880	-0.274680	1.393913	-0.735922	-0.309120	-0.328139	-0.013695	-0.002600	0.002770
218	1.086831	0.005000	9.281530	-0.253790	1.394290	-0.735821	-0.308955	-0.328559	-0.012504	-0.003541	0.005479
219	1.091831	0.005000	9.355058	-0.196200	1.334160	-0.735821	-0.308955	-0.328806	-0.012217	-0.009141	-0.003524
220	1.096831	0.005000	9.325294	-0.274680	1.334160	-0.735821	-0.308955	-0.329053	-0.013796	-0.014696	0.004607
221	1.101831	0.005000	9.311465	-0.184615	1.389469	-0.735821	-0.308955	-0.329300	-0.016289	-0.003564	-0.004123
222	1.106831	0.005000	9.329949	-0.235440	1.255680	-0.735821	-0.308955	-0.329547	-0.007875	-0.012800	0.003929
223	1.111831	0.005000	9.221400	-0.235440	1.173660	-0.735821	-0.308955	-0.329794	-0.017799	-0.007944	-0.005657
224	1.116831	0.005000	9.250998	-0.225798	1.338981	-0.735821	-0.308955	-0.330040	-0.014701	-0.005431	-0.004671
225	1.121831	0.005000	9.295073	-0.230633	1.454284	-0.735821	-0.308955	-0.330287	-0.016053	-0.009445	0.010562
226	1.126831	0.005000	9.300334	-0.235894	1.450519	-0.735821	-0.308955	-0.330534	-0.015821	0.001729	-0.010335
227	1.131831	0.005000	9.264529	-0.125498	1.334160	-0.735821	-0.308955	-0.330781	-0.009245	-0.016582	-0.003228
228	1.136831	0.005000	9.103680	-0.261636	1.342856	-0.735821	-0.308955	-0.331028	-0.007109	-0.010175	-0.005650
229	1.141831	0.005000	9.208028	-0.163646	1.392581	-0.735821	-0.308955	-0.331275	-0.018630	-0.013943	0.001098
230	1.146831	0.005000	9.278056	-0.187492	1.364692	-0.735821	-0.308955	-0.331521	-0.007989	-0.007493	0.003715
231	1.151831	0.005000	9.232515	-0.168075	1.384515	-0.735866	-0.309499	-0.331616	-0.003331	-0.010981	0.007738
232	1.156831	0.005000	9.247268	-0.222068	1.334160	-0.735977	-0.310824	-0.331493	-0.002699	-0.012975	0.012113
233	1.161831	0.005000	9.260640	-0.243735	1.334160	-0.736087	-0.312150	-0.331370	-0.007235	-0.001527	0.006886
234	1.166831	0.005000	9.182160	-0.313920	1.294920	-0.736198	-0.313475	-0.331246	-0.007035	-0.016777	0.008536
235	1.171831	0.005000	9.260640	-0.255267	1.432053	-0.736308	-0.314800	-0.331123	-0.010538	-0.008986	0.002065
236	1.176831	0.005000	9.165157	-0.213203	1.373400	-0.736418	-0.316126	-0.331000	-0.003552	-0.000250	-0.009840
237	1.181831	0.005000	9.182160	-0.264621	1.324101	-0.736529	-0.317451	-0.330876	-0.005711	-0.014894	-0.000775
238	1.186831	0.005000	9.208905	-0.249690	1.321665	-0.736639	-0.318777	-0.330753	-0.020834	0.001266	0.002079
239	1.191831	0.005000	9.163397	-0.225201	1.433117	-0.736750	-0.320102	-0.330630	-0.004517	-0.012390	0.004436
240	1.196831	0.005000	9.292056	-0.227616	1.436233	-0.736860	-0.321428	-0.330506	-0.015818	-0.005457	0.003003
241	1.201831	0.005000	9.266449	-0.235440	1.473693	-0.736970	-0.322753	-0.330383	-0.009634	-0.014670	0.007196
242	1.206831	0.005000	9.292929	-0.267729	1.298395	-0.737081	-0.324079	-0.330259	-0.016515	-0.005481	0.015129
243	1.211831	0.005000	9.183231	-0.236511	1.294920	-0.737191	-0.325404	-0.330136	-0.013283	-0.004925	0.003917
244	1.216831	0.005000	9.144665	-0.159578	1.294920	-0.737302	-0.326729	-0.330013	-0.011767	-0.014768	0.011084
245	1.221831	0.005000	9.182160	-0.274680	1.373400	-0.737412	-0.325974	-0.329779	-0.020564	-0.003307	0.003814
246	1.226831	0.005000	9.255013	-0.274680	1.300547	-0.737523	-0.324980	-0.329532	-0.015723	-0.014575	0.012923
247	1.231831	0.005000	9.284600	-0.196200	1.302560	-0.737633	-0.323986	-0.329285	-0.017869	0.000032	-0.003277
248	1.236831	0.005000	9.299880	-0.264625	1.392530	-0.737744	-0.322992	-0.329039	-0.015193	-0.004834	-0.002126
249	1.241831	0.005000	9.324507	-0.130034	1.385714	-0.737854	-0.321998	-0.328792	-0.006355	-0.009027	0.000057
250	1.246831	0.005000	9.289454	-0.206626	1.373400	-0.737965	-0.321004	-0.328546	-0.011988	0.000381	-0.003813
251	1.251831	0.005000	9.204581	-0.252259	1.272499	-0.738075	-0.320010	-0.328299	-0.009855	-0.007729	0.002965
252	1.256831	0.005000	9.221400	-0.254440	1.275920	-0.738185	-0.319016	-0.328052	-0.009388	0.000772	-0.000578
253	1.261831	0.005000	9.257532	-0.295854	1.451880	-0.738296	-0.318022	-0.327806	-0.011437	0.003824	-0.000293
254	1.266831	0.005000	9.284224	-0.196200	1.373599	-0.738406	-0.317028	-0.327559	-0.010497	0.006673	0.010985
255	1.271831	0.005000	9.182160	-0.222687	1.216440	-0.738517	-0.316034	-0.327312	-0.019356	-0.001474	-0.005381
256	1.276831	0.005000	9.221400	-0.263516	1.373400	-0.738627	-0.315040	-0.327066	-0.006399	-0.014774	0.013099
257	1.281831	0.005000	9.339120	-0.235440	1.343055	-0.738738	-0.314046	-0.326819	-0.010115	-0.005488	0.011770
258	1.286831	0.005000	9.247662	-0.189711	1.366911	-0.738848	-0.313391	-0.326714	-0.010330	-0.010776	0.012388
259	1.291831	0.005000	9.186653	-0.126706	1.281442	-0.738959	-0.313280	-0.326838	-0.016262	0.002545	0.005100
260	1.296831	0.005000	9.256384	-0.235440	1.255680	-0.739069	-0.313170	-0.326961	-0.023842	-0.003971	-0.003824
261	1.301831	0.005000	9.182160	-0.196472	1.372583	-0.739180	-0.313059	-0.327084	-0.017691	-0.001705	0.009187
262	1.306831	0.005000	9.262860	-0.156960	1.410420	-0.739290	-0.312949	-0.327207	-0.012401	0.001244	0.003715
263	1.311831	0.005000	9.359811	-0.156960	1.387312	-0.739401	-0.312838	-0.327331	-0.011658	-0.009992	0.003754
264	1.316831	0.005000	9.339120	-0.170877	1.373400	-0.739511	-0.312728	-0.327454	-0.019325	-0.007766	0.001956
265	1.321831	0.005000	9.248361	-0.205187	1.451880	-0.739622	-0.312617	-0.327577	-0.005891	-0.008197	-0.001017
266	1.326831	0.005000	9.304915	-0.263278	1.396203	-0.739732	-0.312507	-0.327701	-0.010273	-0.012893	0.009113
267	1.331831	0.005000	9.313225	-0.222095	1.347505	-0.739843	-0.312396	-0.327824	-0.011132	-0.007055	0.011490
268	1.336831	0.005000	9.299880	-0.290434	1.373400	-0.739953	-0.312286	-0.327947	-0.007329	-0.009986	0.001988
269	1.341831	0.005000	9.253984	-0.214156	1.316204	-0.740064	-0.312175	-0.328070	-0.011797	0.006655	-0.009074
270	1.346831	0.005000	9.202270	-0.135871	1.432750	-0.740174	-0.312065	-0.328194	-0.008679	-0.008180	-0.002856
271	1.351831	0.005000	9.243921	-0.179481	1.451880	-0.740285	-0.311954	-0.328317	-0.013457	-0.006486	0.007917
272	1.356831	0.005000	9.182160	-0.171573	1.476507	-0.740203	-0.311748	-0.328226	-0.009690	-0.006771	0.001273
273	1.361831	0.005000	9.221400	-0.247663	1.385623	-0.740092	-0.311527	-0.328102	-0.003025	-0.013984	0.001830
274	1.366831	0.005000	9.212049	-0.235440	1.392714	-0.739982	-0.311306	-0.327979	-0.013394	0.002035	-0.008035
275	1.371831	0.005000	9.245544	-0.267132	1.380948	-0.739871	-0.311085	-0.327856	-0.010420	-0.016066	0.003362
276	1.376831	0.005000	9.294343	-0.269143	1.401567	-0.739761	-0.310864	-0.327733	-0.008529	-0.001539	0.005321
277	1.381831	0.005000	9.227797	-0.277879	1.301317	-0.739650	-0.310643	-0.327609	-0.005695	-0.006684	-0.001818
278	1.386831	0.005000	9.299880	-0.233878	1.334160	-0.739540	-0.310422	-0.327486	-0.012598	-0.006047	0.001156
279	1.391831	0.005000	9.261803	-0.156960	1.258006	-0.739429	-0.310201	-0.327363	-0.014389	-0.004004	-0.000339
280	1.396831	0.005000	9.260640	-0.235440	1.337727	-0.739319	-0.309981	-0.327239	-0.005998	-0.008499	0.016272
281	1.401831	0.005000	9.327291	-0.196200	1.289005	-0.739208	-0.309760	-0.327116	-0.010565	-0.011840	0.002134
282	1.406831	0.005000	9.361781	-0.243730	1.334160	-0.739098	-0.309539	-0.326993	-0.014293	-0.003918	-0.004945
283	1.411831	0.005000	9.250306	-0.235440	1.294920	-0.738987	-0.309318	-0.326870	-0.018498	-0.001848	0.007761
284	1.416831	0.005000	9.287132	-0.196200	1.478372	-0.738877	-0.309097	-0.326746	-0.000436	-0.004630	-0.007125
285	1.421831	0.005000	9.212112	-0.156960	1.412640	-0.738688	-0.308837	-0.326755	-0.008178	-0.008896	0.006266
286	1.426831	0.005000	9.265677	-0.122757	1.402566	-0.738356	-0.308505	-0.327002	-0.005869	-0.003031	-0.004384
287	1.431831	0.005000	9.240905	-0.196200	1.314425	-0.738025	-0.308174	-0.327248	-0.010223	-0.009229	-0.004561
288	1.436831	0.005000	9.178076	-0.253018	1.330076	-0.737693	-0.307843	-0.327495	-0.011830	-0.005416	0.002016
289	1.441831	0.005000	9.347954	-0.211403	1.358197	-0.737362	-0.307511	-0.327742	-0.010061	-0.014406	-0.001258
290	1.446831	0.005000	9.312848	-0.274680	1.321192	-0.737031	-0.307180	-0.327988	-0.010604	-0.013181	-0.003019
291	1.451831	0.005000	9.221400	-0.235440	1.394520	-0.736699	-0.306849	-0.328235	-0.019749	-0.003242	-0.005812
292	1.456831	0.005000	9.238433	-0.187683	1.457054	-0.736368	-0.306517	-0.328482	-0.011786	-0.012434	0.001849
293	1.461831	0.005000	9.227601	-0.208601	1.294920	-0.736037	-0.306186	-0.328728	-0.015919	0.001742	0.002353
294	1.466831	0.005000	9.288494	-0.199995	1.337955	-0.735705	-0.305855	-0.328975	-0.008776	-0.009601	-0.001683
295	1.471831	0.005000	9.262470	-0.313920	1.296750	-0.735374	-0.305524	-0.329222	-0.015732	-0.005037	0.003171
296	1.476831	0.005000	9.299880	-0.197899	1.334160	-0.735042	-0.305192	-0.329468	-0.013529	-0.009430	-0.009351
297	1.481831	0.005000	9.263575	-0.117720	1.446011	-0.734711	-0.304861	-0.329715	-0.016589	-0.010106	0.007872
298	1.486831	0.005000	9.177245	-0.294262	1.304749	-0.734380	-0.304530	-0.329962	-0.014632	0.001945	0.002355
299	1.491831	0.005000	9.245979	-0.235440	1.405309	-0.734421	-0.304944	-0.329896	-0.009293	-0.005238	0.001747
300	1.496831	0.005000	9.280638	-0.265059	1.412640	-0.734532	-0.305496	-0.329772	-0.016096	-0.001819	0.003028
301	1.501831	0.005000	9.284003	-0.313920	1.306602	-0.734642	-0.306049	-0.329649	-0.009932	0.006093	0.002051
302	1.506831	0.005000	9.260640	-0.274680	1.230525	-0.734753	-0.306601	-0.329526	-0.015639	-0.002653	0.003136
303	1.511831	0.005000	9.214774	-0.196200	1.278613	-0.734863	-0.307153	-0.329402	-0.015272	-0.002266	-0.009735
304	1.516831	0.005000	9.262997	-0.154603	1.315718	-0.734974	-0.307705	-0.329279	-0.012757	-0.006345	0.005192
305	1.521831	0.005000	9.221400	-0.141037	1.350083	-0.735084	-0.308257	-0.329156	-0.014611	0.001053	-0.002231
306	1.526831	0.005000	9.244393	-0.196200	1.294920	-0.735195	-0.308810	-0.329032	-0.010996	-0.006375	0.000489
307	1.531831	0.005000	9.297018	-0.156960	1.337022	-0.735305	-0.309362	-0.328909	-0.002402	-0.005831	0.005845
308	1.536831	0.005000	9.166161	-0.172959	1.467879	-0.735416	-0.309914	-0.328786	-0.007984	-0.006589	-0.003580
309	1.541831	0.005000	9.221400	-0.205760	1.363840	-0.735526	-0.310466	-0.328662	-0.006781	-0.009469	0.008410
310	1.546831	0.005000	9.221400	-0.235440	1.334160	-0.735637	-0.311018	-0.328539	-0.020670	0.000830	-0.004607
311	1.551831	0.005000	9.255787	-0.196200	1.383107	-0.735747	-0.311571	-0.328416	0.005383	-0.016837	0.005870
312	1.556831	0.005000	9.299880	-0.126343	1.454754	-0.735858	-0.312013	-0.328333	-0.012267	0.008756	0.007984
313	1.561831	0.005000	9.221905	-0.235945	1.490110	-0.735968	-0.312234	-0.328333	-0.008930	-0.004695	-0.005332
314	1.566831	0.005000	9.260640	-0.199982	1.449989	-0.736078	-0.312455	-0.328333	-0.015381	-0.000029	0.006510
315	1.571831	0.005000	9.291348	-0.200466	1.408374	-0.736189	-0.312676	-0.328333	-0.006833	0.003774	-0.001159
316	1.576831	0.005000	9.365836	-0.196200	1.445618	-0.736299	-0.312897	-0.328333	-0.004807	-0.003082	0.006365
317	1.581831	0.005000	9.356451	-0.313920	1.469211	-0.736410	-0.313118	-0.328333	-0.009678	0.000724	0.003819
318	1.586831	0.005000	9.310832	-0.257344	1.462832	-0.736520	-0.313339	-0.328333	-0.004308	-0.015770	0.006130
319	1.591831	0.005000	9.286688	-0.157128	1.477928	-0.736631	-0.313560	-0.328333	-0.000335	-0.007830	0.004887
320	1.596831	0.005000	9.425975	-0.180767	1.365025	-0.736741	-0.313781	-0.328333	-0.013766	-0.007187	-0.011591
321	1.601831	0.005000	9.356965	-0.196200	1.373400	-0.736852	-0.314002	-0.328333	-0.012935	-0.008176	0.011633
322	1.606831	0.005000	9.396800	-0.176187	1.313360	-0.736962	-0.314223	-0.328333	-0.020438	0.008226	0.003504
323	1.611831	0.005000	9.344280	-0.269520	1.300080	-0.737073	-0.314444	-0.328333	-0.009367	-0.011093	0.000272
324	1.616831	0.005000	9.299880	-0.250355	1.246271	-0.737183	-0.314665	-0.328333	-0.009271	-0.002983	0.007743
325	1.621831	0.005000	9.312567	-0.210066	1.478433	-0.737294	-0.314886	-0.328333	-0.011666	-0.006482	0.000467
326	1.626831	0.005000	9.221400	-0.254134	1.441607	-0.738951	-0.316017	-0.326199	-0.016238	-0.007907	0.008074
327	1.631831	0.005000	9.260640	-0.196200	1.294920	-0.740939	-0.317343	-0.323609	-0.014947	-0.009594	-0.011422
328	1.636831	0.005000	9.305734	-0.151106	1.340014	-0.742927	-0.318668	-0.321019	-0.008128	-0.007583	0.003379
329	1.641831	0.005000	9.260640	-0.124732	1.259186	-0.744916	-0.319994	-0.318429	-0.010972	-0.004260	0.010305
330	1.646831	0.005000	9.260640	-0.233236	1.256782	-0.746904	-0.321319	-0.315839	-0.012863	-0.004616	0.007238
331	1.651831	0.005000	9.222242	-0.195358	1.256522	-0.748892	-0.322644	-0.313248	-0.013657	-0.006283	0.015795
332	1.656831	0.005000	9.224646	-0.163452	1.222932	-0.750880	-0.323970	-0.310658	-0.011783	-0.007935	-0.004492
333	1.661831	0.005000	9.182160	-0.207394	1.289323	-0.752868	-0.325295	-0.308068	-0.010286	-0.004878	0.004332
334	1.666831	0.005000	9.182160	-0.156960	1.358188	-0.754856	-0.326621	-0.305478	-0.008661	-0.007961	0.004280
335	1.671831	0.005000	9.192173	-0.196200	1.412640	-0.756844	-0.327946	-0.302888	-0.005214	-0.010979	0.006067
336	1.676831	0.005000	9.223790	-0.235440	1.346443	-0.758833	-0.329272	-0.300298	-0.008221	-0.002573	0.008661
337	1.681831	0.005000	9.210901	-0.196200	1.373400	-0.760821	-0.330597	-0.297708	-0.012171	-0.003588	-0.009147
338	1.686831	0.005000	9.204620	-0.095260	1.491120	-0.762809	-0.331923	-0.295118	-0.010893	-0.001973	0.006988
339	1.691831	0.005000	9.320150	-0.159562	1.472150	-0.763664	-0.332424	-0.294023	-0.009424	0.001336	0.000390
340	1.696831	0.005000	9.321015	-0.238470	1.451880	-0.762007	-0.331099	-0.296243	-0.016136	-0.002208	0.000881
341	1.701831	0.005000	9.299880	-0.172653	1.389093	-0.760351	-0.329773	-0.298463	-0.015673	-0.004954	0.006161
342	1.706831	0.005000	9.299880	-0.130392	1.451880	-0.758694	-0.328448	-0.300683	-0.012226	-0.013569	0.009118
343	1.711831	0.005000	9.249431	-0.151348	1.468701	-0.757037	-0.327122	-0.302903	-0.007599	-0.003674	-0.001255
344	1.716831	0.005000	9.260640	-0.205126	1.373400	-0.755380	-0.325797	-0.305123	-0.012246	-0.010534	-0.003999
345	1.721831	0.005000	9.280321	-0.261641	1.366880	-0.753724	-0.324471	-0.307343	-0.005180	-0.015338	0.001491
346	1.726831	0.005000	9.265163	-0.191677	1.294920	-0.752067	-0.323146	-0.309563	-0.014795	0.000883	-0.005105
347	1.731831	0.005000	9.260640	-0.237613	1.327640	-0.750410	-0.321820	-0.311783	-0.000070	-0.012910	-0.002906
348	1.736831	0.005000	9.221642	-0.196684	1.216440	-0.748753	-0.320495	-0.314003	-0.005646	-0.003711	-0.000719
349	1.741831	0.005000	9.373126	-0.193583	1.260914	-0.747097	-0.319170	-0.316224	-0.009106	-0.006805	-0.000803
350	1.746831	0.005000	9.230586	-0.152367	1.364214	-0.745440	-0.317844	-0.318444	-0.009255	-0.014656	0.008164
351	1.751831	0.005000	9.364341	-0.156960	1.426659	-0.743783	-0.316519	-0.320664	-0.016553	-0.003610	-0.005487
352	1.756831	0.005000	9.297853	-0.196200	1.403337	-0.742126	-0.315193	-0.322884	-0.004673	-0.006956	0.000612
353	1.761831	0.005000	9.204880	-0.140440	1.546880	-0.741703	-0.314749	-0.323431	-0.017063	-0.005225	0.008584
354	1.766831	0.005000	9.195934	-0.129412	1.477346	-0.741593	-0.314528	-0.323555	-0.012063	-0.005943	0.007122
355	1.771831	0.005000	9.244651	-0.226712	1.475131	-0.741482	-0.314307	-0.323678	-0.010481	-0.004678	0.009678
356	1.776831	0.005000	9.320740	-0.256300	1.350059	-0.741372	-0.314086	-0.323801	-0.014101	-0.001001	-0.002522
357	1.781831	0.005000	9.264313	-0.235440	1.216440	-0.741261	-0.313865	-0.323925	-0.003527	-0.010122	0.011239
358	1.786831	0.005000	9.152550	-0.212490	1.343790	-0.741151	-0.313644	-0.324048	-0.014297	-0.007357	-0.013617
359	1.791831	0.005000	9.232292	-0.285572	1.440988	-0.741040	-0.313423	-0.324172	-0.006614	-0.005584	0.002321
360	1.796831	0.005000	9.245275	-0.262743	1.416068	-0.740930	-0.313203	-0.324295	-0.011597	-0.006232	-0.004954
361	1.801831	0.005000	9.182160	-0.176029	1.353229	-0.740820	-0.312982	-0.324418	-0.011196	-0.003555	0.001033
362	1.806831	0.005000	9.150039	-0.274680	1.355518	-0.740709	-0.312761	-0.324542	-0.015153	-0.002993	0.009328
363	1.811831	0.005000	9.270866	-0.230327	1.294920	-0.740599	-0.312540	-0.324665	-0.017223	-0.003998	0.005022
364	1.816831	0.005000	9.336350	-0.190660	1.384480	-0.740488	-0.312319	-0.324788	-0.017773	-0.018088	0.013030
365	1.821831	0.005000	9.299528	-0.236144	1.491120	-0.740378	-0.312098	-0.324912	-0.010773	-0.005969	0.004191
366	1.826831	0.005000	9.260640	-0.238623	1.415823	-0.740362	-0.311846	-0.325035	-0.005899	-0.013936	0.000825
367	1.831831	0.005000	9.229392	-0.235440	1.479132	-0.740583	-0.311514	-0.325158	-0.006084	-0.007155	0.004486
368	1.836831	0.005000	9.221400	-0.184319	1.258022	-0.740804	-0.311183	-0.325282	-0.012772	-0.001699	-0.006849
369	1.841831	0.005000	9.221400	-0.266324	1.264036	-0.741025	-0.310852	-0.325405	-0.010658	-0.002807	0.006928
370	1.846831	0.005000	9.182160	-0.224806	1.352131	-0.741245	-0.310521	-0.325529	-0.012353	-0.001803	0.002109
371	1.851831	0.005000	9.286855	-0.156960	1.334160	-0.741466	-0.310189	-0.325652	-0.008502	-0.010284	0.003006
372	1.856831	0.005000	9.158041	-0.211321	1.391398	-0.741687	-0.309858	-0.325775	-0.011937	-0.009935	0.010578
373	1.861831	0.005000	9.199690	-0.213730	1.447700	-0.741908	-0.309527	-0.325899	-0.018316	-0.011557	-0.008196
374	1.866831	0.005000	9.221400	-0.254969	1.412640	-0.742129	-0.309195	-0.326022	-0.011630	-0.007819	0.001112
375	1.871831	0.005000	9.299880	-0.218078	1.356038	-0.742350	-0.308864	-0.326145	-0.004253	0.001316	-0.001175
376	1.876831	0.005000	9.299880	-0.235440	1.364064	-0.742571	-0.308533	-0.326269	-0.010080	-0.007847	0.000047
377	1.881831	0.005000	9.324958	-0.262141	1.243141	-0.742792	-0.308201	-0.326392	-0.014975	-0.002461	-0.001683
378	1.886831	0.005000	9.407132	-0.235440	1.381236	-0.743013	-0.307870	-0.326515	-0.013005	-0.009433	0.004660
379	1.891831	0.005000	9.361984	-0.219064	1.272056	-0.743233	-0.307539	-0.326639	-0.011667	-0.008552	0.006506
380	1.896831	0.005000	9.215628	-0.212352	1.312236	-0.743114	-0.307804	-0.326572	-0.018966	-0.008965	0.007200
381	1.901831	0.005000	9.253906	-0.153593	1.330793	-0.742893	-0.308245	-0.326449	-0.016333	-0.007406	0.008181
382	1.906831	0.005000	9.259233	-0.120534	1.254273	-0.742672	-0.308687	-0.326325	-0.015399	0.001761	-0.007203
383	1.911831	0.005000	9.221400	-0.196200	1.369421	-0.742451	-0.309129	-0.326202	-0.011246	-0.001869	-0.007154
384	1.916831	0.005000	9.267356	-0.156960	1.487762	-0.742230	-0.309571	-0.326078	-0.006545	-0.011982	0.008915
385	1.921831	0.005000	9.187908	-0.151212	1.339908	-0.742009	-0.310013	-0.325955	-0.020476	-0.010686	-0.002340
386	1.926831	0.005000	9.198122	-0.109961	1.373400	-0.741788	-0.310454	-0.325832	-0.023158	-0.002230	0.008978
387	1.931831	0.005000	9.289714	-0.097388	1.393732	-0.741567	-0.310896	-0.325708	-0.018549	0.004760	-0.008349
388	1.936831	0.005000	9.275011	-0.185702	1.451880	-0.741346	-0.311338	-0.325585	-0.020828	-0.005608	0.011025
389	1.941831	0.005000	9.260640	-0.260156	1.402447	-0.741126	-0.311780	-0.325462	-0.018363	0.005569	0.001572
390	1.946831	0.005000	9.282947	-0.173893	1.339534	-0.740905	-0.312222	-0.325338	-0.009448	0.003852	0.003955
391	1.951831	0.005000	9.221400	-0.216670	1.314823	-0.740684	-0.312663	-0.325215	-0.013004	-0.002412	0.001084
392	1.956831	0.005000	9.339120	-0.221447	1.359407	-0.740463	-0.313105	-0.325092	-0.014205	-0.003357	-0.008550
393	1.961831	0.005000	9.269141	-0.180831	1.349529	-0.740270	-0.313404	-0.324905	-0.006986	-0.010693	0.002255
394	1.966831	0.005000	9.090544	-0.235440	1.373400	-0.740160	-0.313294	-0.324535	-0.006603	0.000239	-0.000806
395	1.971831	0.005000	9.164377	-0.263952	1.266408	-0.740050	-0.313184	-0.324165	-0.009082	-0.012403	0.004543
396	1.976831	0.005000	9.190945	-0.274680	1.325375	-0.739939	-0.313073	-0.323795	-0.011850	-0.010337	0.004997
397	1.981831	0.005000	9.306249	-0.235440	1.294920	-0.739829	-0.312963	-0.323425	-0.000323	-0.004020	-0.000100
398	1.986831	0.005000	9.221400	-0.191828	1.334160	-0.739718	-0.312852	-0.323054	-0.013843	-0.001768	0.012675
399	1.991831	0.005000	9.186200	-0.198220	1.336180	-0.739608	-0.312742	-0.322684	-0.010664	0.000352	-0.001872
400	1.996831	0.005000	9.299487	-0.196593	1.256860	-0.739497	-0.312631	-0.322314	-0.008075	-0.011939	-0.000160
401	2.001831	0.005000	9.299880	-0.117720	1.412640	-0.739387	-0.312521	-0.321944	-0.007091	0.003236	-0.001714
402	2.006831	0.005000	9.309372	-0.156960	1.382892	-0.739276	-0.312410	-0.321574	-0.003794	0.002849	-0.003250
403	2.011831	0.005000	9.253478	-0.164122	1.387725	-0.739166	-0.312300	-0.321204	-0.010349	-0.003014	0.018604
404	2.016831	0.005000	9.280971	-0.166415	1.334160	-0.739055	-0.312189	-0.320834	-0.012646	0.005640	0.005455
405	2.021831	0.005000	9.306693	-0.140747	1.468093	-0.738945	-0.312079	-0.320464	-0.009104	-0.007299	0.007388
406	2.026831	0.005000	9.221400	-0.011406	1.336671	-0.738834	-0.311968	-0.320094	-0.011576	-0.010798	-0.000497
407	2.031831	0.005000	9.322790	-0.029491	1.330992	-0.738888	-0.312351	-0.320551	-0.015833	-0.013246	-0.000532
408	2.036831	0.005000	9.219191	-0.256164	1.433364	-0.738999	-0.312904	-0.321291	-0.015556	-0.006846	0.003344
409	2.041831	0.005000	9.200716	-0.293236	1.493248	-0.739109	-0.313456	-0.322031	-0.014763	0.001880	-0.000991
410	2.046831	0.005000	9.182160	-0.290826	1.458828	-0.739220	-0.314008	-0.322771	-0.012909	-0.014081	0.000666
411	2.051831	0.005000	9.274678	-0.235440	1.423804	-0.739330	-0.314560	-0.323511	-0.012249	-0.007312	-0.004278
412	2.056831	0.005000	9.366571	-0.247229	1.345949	-0.739441	-0.315113	-0.324251	-0.011984	-0.017243	0.005616
413	2.061831	0.005000	9.240163	-0.205581	1.412640	-0.739551	-0.315665	-0.324991	-0.012032	-0.009817	0.001708
414	2.066831	0.005000	9.417600	-0.242792	1.358696	-0.739662	-0.316217	-0.325731	-0.005868	-0.013193	0.003919
415	2.071831	0.005000	9.339120	-0.161922	1.378362	-0.739772	-0.316770	-0.326471	-0.016571	-0.006336	0.005013
416	2.076831	0.005000	9.302497	-0.190966	1.491120	-0.739883	-0.317322	-0.327211	-0.016126	0.000184	-0.003664
417	2.081831	0.005000	9.377962	-0.118118	1.412839	-0.739993	-0.317874	-0.327951	-0.009984	-0.010756	0.001724
418	2.086831	0.005000	9.374871	-0.158705	1.414385	-0.740104	-0.318426	-0.328691	-0.009898	-0.002078	-0.003463
419	2.091831	0.005000	9.304029	-0.196200	1.486971	-0.740214	-0.318979	-0.329431	-0.006050	-0.016044	-0.003467
420	2.096831	0.005000	9.378360	-0.117720	1.373400	-0.740273	-0.319326	-0.329971	-0.011872	-0.003978	0.002363
421	2.101831	0.005000	9.299880	-0.218446	1.351154	-0.740163	-0.318995	-0.329848	-0.008247	-0.007418	0.000283
422	2.106831	0.005000	9.282464	-0.303008	1.379904	-0.740052	-0.318663	-0.329725	-0.008152	-0.013454	0.016158
423	2.111831	0.005000	9.195480	-0.209520	1.438560	-0.739942	-0.318332	-0.329601	-0.013914	0.001500	-0.006164
424	2.116831	0.005000	9.158471	-0.243578	1.475569	-0.739831	-0.318001	-0.329478	-0.006334	-0.018245	0.007815
425	2.121831	0.005000	9.225287	-0.296244	1.391076	-0.739721	-0.317669	-0.329355	-0.014612	-0.010452	0.009089
426	2.126831	0.005000	9.240553	-0.255527	1.295854	-0.739611	-0.317338	-0.329231	-0.002520	-0.010601	-0.003228
427	2.131831	0.005000	9.142920	-0.179197	1.306689	-0.739500	-0.317007	-0.329108	0.004045	-0.010379	0.007650
428	2.136831	0.005000	9.187318	-0.186558	1.373400	-0.739390	-0.316675	-0.328985	-0.019594	-0.004628	0.000195
429	2.141831	0.005000	9.248254	-0.117720	1.385786	-0.739279	-0.316344	-0.328861	-0.009292	-0.021084	0.005637
430	2.146831	0.005000	9.260640	-0.175566	1.392006	-0.739169	-0.316012	-0.328738	-0.002945	-0.003020	-0.001818
431	2.151831	0.005000	9.323984	-0.125755	1.326125	-0.739058	-0.315681	-0.328614	-0.008454	-0.015605	0.001243
432	2.156831	0.005000	9.333501	-0.196200	1.367781	-0.738948	-0.315350	-0.328491	-0.013138	-0.007531	0.007529
433	2.161831	0.005000	9.335489	-0.160591	1.373400	-0.738837	-0.315018	-0.328368	-0.015710	-0.007069	-0.002703
434	2.166831	0.005000	9.336580	-0.159500	1.491120	-0.738727	-0.314608	-0.328067	-0.007256	-0.017611	0.005167
435	2.171831	0.005000	9.298745	-0.197335	1.491120	-0.738616	-0.314166	-0.327697	-0.024158	-0.003497	-0.003310
436	2.176831	0.005000	9.339120	-0.160037	1.379555	-0.738506	-0.313724	-0.327327	-0.018084	-0.003527	-0.001640
437	2.181831	0.005000	9.277123	-0.229946	1.412640	-0.738395	-0.313282	-0.326957	-0.010872	-0.001955	-0.001013
438	2.186831	0.005000	9.197771	-0.235440	1.341966	-0.738285	-0.312840	-0.326587	-0.015605	-0.012645	-0.008152
439	2.191831	0.005000	9.329276	-0.274680	1.304764	-0.738174	-0.312399	-0.326217	-0.011882	-0.012714	0.001634
440	2.196831	0.005000	9.312139	-0.235440	1.412640	-0.738064	-0.311957	-0.325847	-0.020891	-0.001653	-0.007640
441	2.201831	0.005000	9.329214	-0.147054	1.564839	-0.737953	-0.311515	-0.325477	-0.012598	-0.015351	-0.001298
442	2.206831	0.005000	9.260640	-0.089075	1.451880	-0.737843	-0.311073	-0.325107	-0.013326	-0.003334	0.001778
443	2.211831	0.005000	9.221400	-0.196200	1.450686	-0.737732	-0.310631	-0.324737	-0.010682	-0.004844	0.003261
444	2.216831	0.005000	9.278446	-0.253246	1.391206	-0.737622	-0.310190	-0.324367	-0.010823	-0.005217	-0.002724
445	2.221831	0.005000	9.166488	-0.156960	1.255680	-0.737511	-0.309748	-0.323997	-0.010598	-0.006174	-0.005471
446	2.226831	0.005000	9.222517	-0.182748	1.294920	-0.737401	-0.309306	-0.323627	-0.009541	-0.010923	0.001718
447	2.231831	0.005000	9.254516	-0.139797	1.351323	-0.737313	-0.309000	-0.323156	-0.022769	0.003596	0.000024
448	2.236831	0.005000	9.290894	-0.187214	1.412640	-0.737313	-0.309221	-0.322293	-0.011387	-0.013536	-0.003403
449	2.241831	0.005000	9.260640	-0.242128	1.340848	-0.737313	-0.309442	-0.321430	-0.018634	0.001795	0.010641
450	2.246831	0.005000	9.382632	-0.235440	1.373400	-0.737313	-0.309663	-0.320567	-0.015219	-0.010499	-0.005164
451	2.251831	0.005000	9.376492	-0.235440	1.371532	-0.737313	-0.309884	-0.319704	-0.009109	-0.002648	0.004675
452	2.256831	0.005000	9.299957	-0.235440	1.334160	-0.737313	-0.310104	-0.318841	-0.014054	-0.006793	-0.006872
453	2.261831	0.005000	9.299880	-0.237920	1.449400	-0.737313	-0.310325	-0.317978	-0.018661	-0.014042	0.008758
454	2.266831	0.005000	9.221400	-0.127401	1.456721	-0.737313	-0.310546	-0.317115	-0.017938	0.000642	0.001660
455	2.271831	0.005000	9.267481	-0.228599	1.373400	-0.737313	-0.310767	-0.316252	-0.011860	-0.006466	0.003124
456	2.276831	0.005000	9.232898	-0.205447	1.414891	-0.737313	-0.310987	-0.315390	-0.021409	-0.010316	0.001567
457	2.281831	0.005000	9.382615	-0.184538	1.424302	-0.737313	-0.311208	-0.314527	-0.014400	0.000888	-0.005192
458	2.286831	0.005000	9.339120	-0.235440	1.361964	-0.737313	-0.311429	-0.313664	-0.008552	-0.012804	0.011460
459	2.291831	0.005000	9.276654	-0.180186	1.342963	-0.737313	-0.311650	-0.312801	-0.019580	-0.006621	0.001813
460	2.296831	0.005000	9.299880	-0.219401	1.318121	-0.737313	-0.311871	-0.311938	-0.018481	-0.008169	-0.002151
461	2.301831	0.005000	9.357523	-0.156960	1.373400	-0.737237	-0.311940	-0.312513	-0.006746	-0.003444	-0.000956
462	2.306831	0.005000	9.401338	-0.212462	1.435618	-0.737127	-0.311940	-0.313747	-0.013305	-0.004184	0.000046
463	2.311831	0.005000	9.375452	-0.263539	1.320111	-0.737016	-0.311940	-0.314981	-0.009219	-0.012316	0.005733
464	2.316831	0.005000	9.276609	-0.219471	1.361764	-0.736906	-0.311940	-0.316215	-0.015459	0.000731	-0.004948
465	2.321831	0.005000	9.230976	-0.235440	1.324584	-0.736795	-0.311940	-0.317449	-0.010061	-0.000093	0.000916
466	2.326831	0.005000	9.253352	-0.132295	1.373400	-0.736685	-0.311940	-0.318683	-0.010568	0.000705	0.000893
467	2.331831	0.005000	9.177278	-0.161842	1.407758	-0.736574	-0.311940	-0.319917	-0.011481	-0.001480	-0.001276
468	2.336831	0.005000	9.302345	-0.274680	1.260610	-0.736464	-0.311940	-0.321151	-0.015942	-0.003144	-0.003994
469	2.341831	0.005000	9.377846	-0.234926	1.413154	-0.736354	-0.311940	-0.322384	-0.015936	-0.004630	-0.004352
470	2.346831	0.005000	9.301763	-0.196200	1.451880	-0.736243	-0.311940	-0.323618	-0.010200	-0.008824	0.010811
471	2.351831	0.005000	9.225651	-0.156960	1.408389	-0.736133	-0.311940	-0.324852	-0.016869	-0.005639	-0.004961
472	2.356831	0.005000	9.260640	-0.235440	1.373400	-0.736022	-0.311940	-0.326086	-0.024632	-0.003275	0.004267
473	2.361831	0.005000	9.382999	-0.244090	1.412640	-0.735912	-0.311940	-0.327320	-0.016377	-0.001106	0.002400
474	2.366831	0.005000	9.204034	-0.235440	1.384337	-0.735821	-0.311940	-0.328377	-0.024634	-0.001219	-0.002440
475	2.371831	0.005000	9.234409	-0.196200	1.334160	-0.735821	-0.311940	-0.328624	-0.020424	-0.014389	0.007895
476	2.376831	0.005000	9.190934	-0.156960	1.364626	-0.735821	-0.311940	-0.328871	-0.012956	0.000851	0.000900
477	2.381831	0.005000	9.247795	-0.178838	1.373400	-0.735821	-0.311940	-0.329117	-0.014189	-0.009707	0.006739
478	2.386831	0.005000	9.240867	-0.176121	1.412640	-0.735821	-0.311940	-0.329364	-0.016799	-0.003152	-0.002717
479	2.391831	0.005000	9.260640	-0.196200	1.351481	-0.735821	-0.311940	-0.329611	-0.008685	-0.000804	-0.013143
480	2.396831	0.005000	9.284769	-0.187182	1.427751	-0.735821	-0.311940	-0.329857	-0.006783	-0.006017	-0.001454
481	2.401831	0.005000	9.247933	-0.208907	1.399933	-0.735821	-0.311940	-0.330104	-0.014806	-0.006599	-0.010465
482	2.406831	0.005000	9.310514	-0.217469	1.402006	-0.735821	-0.311940	-0.330351	-0.006678	-0.018545	-0.000559
483	2.411831	0.005000	9.308236	-0.235440	1.390112	-0.735821	-0.311940	-0.330598	-0.012099	-0.003971	-0.009934
484	2.416831	0.005000	9.260640	-0.129601	1.382938	-0.735821	-0.311940	-0.330844	-0.011655	-0.014137	-0.002261
485	2.421831	0.005000	9.260640	-0.196200	1.330164	-0.735821	-0.311940	-0.331091	-0.012430	-0.012016	0.008858
486	2.426831	0.005000	9.183752	-0.155368	1.298103	-0.735821	-0.311940	-0.331338	-0.012487	-0.015091	-0.014697
487	2.431831	0.005000	9.182512	-0.078832	1.295624	-0.735821	-0.311940	-0.331585	-0.004634	-0.008752	-0.001867
488	2.436831	0.005000	9.213090	-0.193430	1.482810	-0.736262	-0.312676	-0.329860	-0.013801	0.001223	-0.002666
489	2.441831	0.005000	9.177047	-0.191087	1.300033	-0.736925	-0.313781	-0.327145	-0.004166	-0.015344	0.006397
490	2.446831	0.005000	9.228519	-0.228321	1.387638	-0.737588	-0.314886	-0.324430	-0.013821	-0.009163	0.004198
491	2.451831	0.005000	9.221400	-0.117720	1.373400	-0.738251	-0.315991	-0.321716	-0.007511	-0.008855	0.000343
492	2.456831	0.005000	9.245284	-0.211556	1.267622	-0.738914	-0.317096	-0.319001	-0.007302	-0.007407	0.010156
493	2.461831	0.005000	9.182160	-0.328109	1.359211	-0.739577	-0.318201	-0.316286	-0.012823	-0.004963	-0.007409
494	2.466831	0.005000	9.244341	-0.251739	1.334160	-0.740240	-0.319306	-0.313572	-0.011606	-0.020114	-0.003101
495	2.471831	0.005000	9.262462	-0.274680	1.313629	-0.740903	-0.320411	-0.310857	-0.012927	-0.007016	0.003508
496	2.476831	0.005000	9.263121	-0.274680	1.297401	-0.741566	-0.321516	-0.308143	-0.004649	-0.011107	-0.000068
497	2.481831	0.005000	9.205217	-0.219257	1.271863	-0.742229	-0.322621	-0.305428	-0.012437	-0.006423	-0.005302
498	2.486831	0.005000	9.221400	-0.117720	1.451880	-0.742892	-0.323726	-0.302713	-0.010002	-0.006214	-0.015077
499	2.491831	0.005000	9.193853	-0.184507	1.396787	-0.743555	-0.324831	-0.299999	-0.011083	-0.009954	0.008949
500	2.496831	0.005000	9.299880	-0.167953	1.431472	-0.744218	-0.325936	-0.297284	-0.023993	0.005289	-0.002934
501	2.501831	0.005000	9.242428	-0.124729	1.495313	-0.744951	-0.326884	-0.294804	-0.014475	-0.005547	0.003286
502	2.506831	0.005000	9.304887	-0.127734	1.334160	-0.746056	-0.326994	-0.293571	-0.013560	-0.001340	-0.002753
503	2.511831	0.005000	9.333823	-0.313920	1.334160	-0.747160	-0.327104	-0.292338	-0.005851	-0.011094	-0.008886
504	2.516831	0.005000	9.221645	-0.235195	1.294920	-0.748265	-0.327215	-0.291104	-0.018849	-0.009947	0.003369
505	2.521831	0.005000	9.260640	-0.196200	1.370001	-0.749369	-0.327325	-0.289871	-0.018202	-0.001899	-0.001553
506	2.526831	0.005000	9.264757	-0.227206	1.338277	-0.750474	-0.327436	-0.288637	-0.011805	-0.019654	0.005323
507	2.531831	0.005000	9.333060	-0.253621	1.472939	-0.751578	-0.327546	-0.287404	-0.019897	-0.001730	-0.002656
508	2.536831	0.005000	9.269107	-0.243907	1.443413	-0.752682	-0.327656	-0.286171	-0.007219	-0.008636	-0.008025
509	2.541831	0.005000	9.221400	-0.213929	1.441125	-0.753787	-0.327767	-0.284937	-0.018557	-0.008098	-0.003105
510	2.546831	0.005000	9.182160	-0.261865	1.359789	-0.754891	-0.327877	-0.283704	-0.012337	-0.010030	0.007152
511	2.551831	0.005000	9.245412	-0.250668	1.364615	-0.755996	-0.327988	-0.282471	-0.006720	-0.013286	0.009825
512	2.556831	0.005000	9.317307	-0.218013	1.434453	-0.757100	-0.328098	-0.281237	-0.003028	-0.003717	-0.005651
513	2.561831	0.005000	9.299880	-0.137225	1.550018	-0.758205	-0.328208	-0.280004	-0.011184	-0.012548	0.002583
514	2.566831	0.005000	9.243138	-0.143693	1.451880	-0.759309	-0.328319	-0.278770	-0.008979	0.004386	-0.004063
515	2.571831	0.005000	9.299880	-0.156960	1.373400	-0.758846	-0.327645	-0.280323	-0.010120	-0.004737	0.001797
516	2.576831	0.005000	9.352578	-0.235440	1.425531	-0.757520	-0.326541	-0.283407	-0.009479	-0.004722	0.008767
517	2.581831	0.005000	9.250157	-0.313920	1.365610	-0.756195	-0.325436	-0.286490	-0.015383	0.001385	-0.004962
518	2.586831	0.005000	9.182160	-0.336278	1.387317	-0.754869	-0.324332	-0.289574	-0.006057	-0.003775	0.007150
519	2.591831	0.005000	9.233648	-0.196200	1.294920	-0.753544	-0.323227	-0.292657	-0.011357	-0.003190	0.002549
520	2.596831	0.005000	9.221400	-0.160679	1.334160	-0.752219	-0.322123	-0.295740	-0.014879	-0.009326	-0.003425
521	2.601831	0.005000	9.255376	-0.194445	1.375155	-0.750893	-0.321018	-0.298824	-0.019878	-0.003534	0.003517
522	2.606831	0.005000	9.181517	-0.195557	1.335446	-0.749568	-0.319914	-0.301907	-0.008223	-0.001198	0.002229
523	2.611831	0.005000	9.263650	-0.238450	1.294920	-0.748242	-0.318809	-0.304991	-0.012442	-0.003054	0.007208
524	2.616831	0.005000	9.221400	-0.235440	1.357199	-0.746917	-0.317705	-0.308074	-0.014676	0.000753	-0.001165
525	2.621831	0.005000	9.238456	-0.259890	1.317104	-0.745592	-0.316600	-0.311158	-0.001691	-0.012217	-0.006665
526	2.626831	0.005000	9.299880	-0.215593	1.412640	-0.744266	-0.315496	-0.314241	-0.011822	-0.008034	0.012488
527	2.631831	0.005000	9.307655	-0.235440	1.349893	-0.742941	-0.314391	-0.317325	-0.012267	-0.008522	0.007729
528	2.636831	0.005000	9.221400	-0.235440	1.308913	-0.741762	-0.313404	-0.320082	-0.008524	-0.010159	0.005535
529	2.641831	0.005000	9.237506	-0.251546	1.475014	-0.741541	-0.313183	-0.320698	-0.014771	-0.003265	-0.003864
530	2.646831	0.005000	9.318398	-0.214718	1.412640	-0.741320	-0.312962	-0.321315	-0.013968	-0.019670	0.004154
531	2.651831	0.005000	9.357681	-0.214761	1.294920	-0.741099	-0.312741	-0.321932	-0.015274	-0.009488	0.011467
532	2.656831	0.005000	9.361993	-0.219073	1.373400	-0.740878	-0.312520	-0.322548	-0.008351	-0.012957	0.003171
533	2.661831	0.005000	9.235357	-0.221483	1.362075	-0.740657	-0.312299	-0.323165	-0.002110	-0.007445	-0.000698
534	2.666831	0.005000	9.221400	-0.223565	1.373400	-0.740436	-0.312078	-0.323782	-0.010103	-0.001140	-0.005651
535	2.671831	0.005000	9.172561	-0.186601	1.403041	-0.740215	-0.311857	-0.324398	-0.004835	-0.009334	0.007021
536	2.676831	0.005000	9.196546	-0.196200	1.334160	-0.739995	-0.311637	-0.325015	-0.022625	-0.001788	0.000500
537	2.681831	0.005000	9.289503	-0.128097	1.344537	-0.739774	-0.311416	-0.325632	-0.019784	-0.014550	-0.002701
538	2.686831	0.005000	9.260640	-0.238272	1.524695	-0.739553	-0.311195	-0.326248	-0.017401	-0.008685	0.006874
539	2.691831	0.005000	9.259354	-0.235869	1.413069	-0.739332	-0.310974	-0.326865	-0.003971	-0.018404	-0.009336
540	2.696831	0.005000	9.180209	-0.200103	1.526457	-0.739111	-0.310753	-0.327482	-0.011152	-0.014013	0.007617
541	2.701831	0.005000	9.284202	-0.306081	1.495039	-0.738890	-0.310532	-0.328098	-0.015615	-0.000481	-0.000221
542	2.706831	0.005000	9.306216	-0.202536	1.418976	-0.738669	-0.310516	-0.328333	-0.002892	-0.016805	0.011053
543	2.711831	0.005000	9.330482	-0.266042	1.373400	-0.738448	-0.310627	-0.328333	-0.019371	0.000136	0.002040
544	2.716831	0.005000	9.174980	-0.189020	1.344847	-0.738227	-0.310737	-0.328333	-0.019176	-0.003819	0.003116
545	2.721831	0.005000	9.273679	-0.222340	1.321060	-0.738007	-0.310848	-0.328333	-0.012217	-0.006120	-0.001004
546	2.726831	0.005000	9.299880	-0.235440	1.373400	-0.737786	-0.310958	-0.328333	0.000548	0.001593	-0.002535
547	2.731831	0.005000	9.260640	-0.335706	1.508574	-0.737565	-0.311068	-0.328333	-0.005906	-0.013744	0.005856
548	2.736831	0.005000	9.260640	-0.215835	1.432245	-0.737344	-0.311179	-0.328333	-0.003541	-0.008425	0.002398
549	2.741831	0.005000	9.273694	-0.213631	1.417017	-0.737123	-0.311289	-0.328333	-0.002104	-0.013112	0.005514
550	2.746831	0.005000	9.230601	-0.313920	1.324959	-0.736902	-0.311400	-0.328333	-0.013764	-0.010341	-0.003366
551	2.751831	0.005000	9.195079	-0.274680	1.308323	-0.736681	-0.311510	-0.328333	-0.017692	0.001504	-0.008013
552	2.756831	0.005000	9.310547	-0.185533	1.323493	-0.736460	-0.311620	-0.328333	-0.012871	-0.002769	0.012071
553	2.761831	0.005000	9.291628	-0.171443	1.389904	-0.736239	-0.311731	-0.328333	-0.015922	-0.013055	-0.000966
554	2.766831	0.005000	9.260640	-0.117720	1.340408	-0.736018	-0.311841	-0.328333	-0.012428	-0.002900	0.016639
555	2.771831	0.005000	9.260640	-0.235440	1.385112	-0.735833	-0.311893	-0.328398	-0.013978	-0.002569	0.007279
556	2.776831	0.005000	9.299880	-0.196200	1.448880	-0.735943	-0.311452	-0.329015	-0.005653	-0.017297	-0.008430
557	2.781831	0.005000	9.261084	-0.234996	1.412196	-0.736053	-0.311010	-0.329631	-0.010225	-0.007600	0.003174
558	2.786831	0.005000	9.297018	-0.238302	1.225026	-0.736164	-0.310568	-0.330248	-0.014373	-0.005433	0.003454
559	2.791831	0.005000	9.299880	-0.245051	1.358983	-0.736274	-0.310127	-0.330864	-0.017104	-0.011825	0.010864
560	2.796831	0.005000	9.267851	-0.228229	1.380611	-0.736384	-0.309685	-0.331481	-0.016632	-0.009442	0.001654
561	2.801831	0.005000	9.299880	-0.225814	1.314173	-0.736495	-0.309244	-0.332097	-0.008711	-0.001445	0.000898
562	2.806831	0.005000	9.260640	-0.168850	1.373400	-0.736605	-0.308802	-0.332713	-0.014268	-0.000073	0.002530
563	2.811831	0.005000	9.285902	-0.235440	1.216440	-0.736716	-0.308360	-0.333330	-0.004284	-0.006638	-0.010621
564	2.816831	0.005000	9.214942	-0.241898	1.330686	-0.736826	-0.307919	-0.333946	-0.008862	-0.015253	0.015963
565	2.821831	0.005000	9.260640	-0.216864	1.257768	-0.736936	-0.307477	-0.334563	-0.015540	0.001018	-0.005054
566	2.826831	0.005000	9.223651	-0.177705	1.336411	-0.737047	-0.307036	-0.335179	-0.005060	-0.010662	0.006587
567	2.831831	0.005000	9.159273	-0.196200	1.311273	-0.737157	-0.306594	-0.335796	-0.010193	-0.005035	0.008362
568	2.836831	0.005000	9.210453	-0.171107	1.437733	-0.737267	-0.306153	-0.336412	-0.002699	-0.003988	0.002622
569	2.841831	0.005000	9.256615	-0.172723	1.389163	-0.737443	-0.306100	-0.336160	-0.011010	-0.001307	0.004436
570	2.846831	0.005000	9.260640	-0.088161	1.461561	-0.737664	-0.306321	-0.335297	-0.012173	0.002216	0.007936
571	2.851831	0.005000	9.221400	-0.164340	1.373400	-0.737885	-0.306542	-0.334433	-0.004884	-0.004994	0.009192
572	2.856831	0.005000	9.221400	-0.201174	1.334160	-0.738106	-0.306763	-0.333569	-0.015660	0.003499	0.002648
573	2.861831	0.005000	9.184717	-0.237997	1.297477	-0.738327	-0.306984	-0.332705	-0.012567	-0.013600	0.002001
574	2.866831	0.005000	9.298065	-0.234230	1.412035	-0.738548	-0.307205	-0.331841	-0.009910	-0.004151	-0.000857
575	2.871831	0.005000	9.294506	-0.231857	1.373400	-0.738769	-0.307426	-0.330978	-0.012722	-0.008204	-0.000944
576	2.876831	0.005000	9.304040	-0.274680	1.338320	-0.738990	-0.307647	-0.330114	-0.023669	-0.014758	0.010486
577	2.881831	0.005000	9.272945	-0.280832	1.255680	-0.739211	-0.307868	-0.329250	-0.012409	0.009403	0.007097
578	2.886831	0.005000	9.313752	-0.235440	1.317248	-0.739432	-0.308089	-0.328386	-0.013722	-0.014705	0.001393
579	2.891831	0.005000	9.328617	-0.292914	1.352394	-0.739653	-0.308310	-0.327523	-0.019373	0.000273	0.000027
580	2.896831	0.005000	9.365443	-0.248357	1.386317	-0.739874	-0.308531	-0.326659	-0.009871	-0.005946	-0.003769
581	2.901831	0.005000	9.330165	-0.283635	1.343115	-0.740096	-0.308752	-0.325795	-0.019026	-0.006236	0.009036
582	2.906831	0.005000	9.307749	-0.230740	1.316890	-0.740281	-0.308946	-0.325020	-0.021837	0.011965	-0.002996
583	2.911831	0.005000	9.240966	-0.235440	1.314486	-0.740060	-0.308836	-0.325266	-0.014679	-0.009789	0.004104
584	2.916831	0.005000	9.277796	-0.196200	1.334160	-0.739839	-0.308725	-0.325513	-0.016775	0.006110	-0.002375
585	2.921831	0.005000	9.348287	-0.166127	1.324993	-0.739618	-0.308615	-0.325760	-0.008664	-0.004997	-0.003402
586	2.926831	0.005000	9.235041	-0.156960	1.491120	-0.739397	-0.308504	-0.326007	-0.010572	0.007683	0.008759
587	2.931831	0.005000	9.221400	-0.196200	1.501512	-0.739176	-0.308394	-0.326253	-0.007324	-0.003719	-0.003919
588	2.936831	0.005000	9.246744	-0.235440	1.561152	-0.738955	-0.308283	-0.326500	-0.009100	-0.015084	-0.002460
589	2.941831	0.005000	9.333088	-0.196200	1.445848	-0.738734	-0.308173	-0.326747	-0.009560	0.002997	-0.009663
590	2.946831	0.005000	9.299880	-0.125798	1.342238	-0.738513	-0.308063	-0.326994	-0.007169	-0.006214	0.005897
591	2.951831	0.005000	9.255590	-0.122770	1.294920	-0.738292	-0.307952	-0.327240	-0.004816	-0.006042	0.000997
592	2.956831	0.005000	9.142920	-0.273954	1.333434	-0.738071	-0.307842	-0.327487	-0.006449	-0.001531	0.004722
593	2.961831	0.005000	9.294524	-0.274680	1.300276	-0.737850	-0.307731	-0.327734	-0.008497	-0.003360	-0.000319
594	2.966831	0.005000	9.270806	-0.167126	1.368317	-0.737629	-0.307621	-0.327981	-0.007593	-0.003579	-0.005153
595	2.971831	0.005000	9.253228	-0.164372	1.365988	-0.737408	-0.307510	-0.328227	-0.016932	-0.007558	0.003038
596	2.976831	0.005000	9.260640	-0.196200	1.373400	-0.737313	-0.307653	-0.328051	-0.014573	0.001920	0.000545
597	2.981831	0.005000	9.288030	-0.196200	1.436340	-0.737313	-0.307984	-0.327557	-0.010771	-0.007653	0.000899
598	2.986831	0.005000	9.299880	-0.231919	1.491120	-0.737313	-0.308315	-0.327064	-0.012588	0.000182	0.006355
599	2.991831	0.005000	9.293036	-0.156960	1.396442	-0.737313	-0.308647	-0.326571	-0.012429	-0.013583	-0.009987
600	2.996831	0.005000	9.182160	-0.216830	1.489100	-0.737313	-0.308978	-0.326077	-0.010094	-0.020828	0.002772
601	3.001831	0.005000	9.258341	-0.274680	1.431110	-0.737313	-0.309309	-0.325584	-0.016101	-0.008293	-0.004420
602	3.006831	0.005000	9.276915	-0.267989	1.428915	-0.737313	-0.309641	-0.325091	-0.013644	-0.016760	0.003707
603	3.011831	0.005000	9.235266	-0.249306	1.465746	-0.737313	-0.309972	-0.324598	-0.025303	0.004823	0.001153
604	3.016831	0.005000	9.287958	-0.196200	1.412640	-0.737313	-0.310303	-0.324104	-0.019635	-0.003303	-0.001389
605	3.021831	0.005000	9.320105	-0.098705	1.334160	-0.737313	-0.310634	-0.323611	-0.012137	-0.004775	0.000418
606	3.026831	0.005000	9.346221	-0.124821	1.444779	-0.737313	-0.310966	-0.323118	-0.019447	-0.002340	-0.011748
607	3.031831	0.005000	9.378360	-0.269522	1.378558	-0.737313	-0.311297	-0.322624	-0.013138	-0.016970	0.005761
608	3.036831	0.005000	9.336379	-0.159701	1.300401	-0.737313	-0.311628	-0.322131	-0.021028	-0.004526	0.005698
609	3.041831	0.005000	9.299880	-0.158533	1.451093	-0.737352	-0.311933	-0.321689	-0.012719	-0.006722	0.003263
610	3.046831	0.005000	9.299880	-0.273072	1.337375	-0.738015	-0.311823	-0.322059	-0.017329	-0.008635	0.001826
611	3.051831	0.005000	9.233335	-0.227483	1.342117	-0.738678	-0.311713	-0.322429	-0.021558	-0.006396	0.003845
612	3.056831	0.005000	9.182160	-0.168871	1.418596	-0.739342	-0.311602	-0.322800	-0.016518	-0.011036	0.006940
613	3.061831	0.005000	9.213029	-0.227069	1.468623	-0.740005	-0.311492	-0.323170	-0.021622	-0.004972	-0.004453
614	3.066831	0.005000	9.346411	-0.256739	1.384050	-0.740668	-0.311381	-0.323540	-0.009353	-0.012257	0.007675
615	3.071831	0.005000	9.246846	-0.313920	1.281126	-0.741331	-0.311271	-0.323910	-0.017260	-0.004958	0.002139
616	3.076831	0.005000	9.206264	-0.250576	1.327992	-0.741994	-0.311160	-0.324280	-0.010889	-0.017407	0.002477
617	3.081831	0.005000	9.282544	-0.196200	1.417208	-0.742657	-0.311050	-0.324650	-0.014817	-0.010169	0.006287
618	3.086831	0.005000	9.358870	-0.137210	1.432130	-0.743320	-0.310939	-0.325021	-0.008614	-0.008530	-0.008466
619	3.091831	0.005000	9.321780	-0.174300	1.373400	-0.743983	-0.310829	-0.325391	-0.002801	-0.014757	0.003420
620	3.096831	0.005000	9.267054	-0.220222	1.436662	-0.744646	-0.310718	-0.325761	-0.012404	-0.011194	-0.000101
621	3.101831	0.005000	9.221400	-0.222457	1.373400	-0.745309	-0.310608	-0.326131	-0.012433	-0.017750	-0.001204
622	3.106831	0.005000	9.250065	-0.235440	1.412640	-0.745972	-0.310497	-0.326501	-0.013190	-0.010807	0.001922
623	3.111831	0.005000	9.316944	-0.218376	1.334160	-0.746025	-0.310448	-0.326871	-0.019278	0.000884	-0.005092
624	3.116831	0.005000	9.438192	-0.163176	1.307352	-0.745583	-0.310448	-0.327241	-0.010498	-0.011516	-0.002296
625	3.121831	0.005000	9.225211	-0.192389	1.479688	-0.745141	-0.310448	-0.327611	-0.026409	-0.009187	0.004437
626	3.126831	0.005000	9.182160	-0.234047	1.372007	-0.744700	-0.310448	-0.327981	-0.017867	-0.020034	0.004872
627	3.131831	0.005000	9.220864	-0.157496	1.372864	-0.744258	-0.310448	-0.328351	-0.021941	-0.001436	-0.002716
628	3.136831	0.005000	9.224354	-0.193246	1.340067	-0.743816	-0.310448	-0.328721	-0.013269	-0.010032	-0.001333
629	3.141831	0.005000	9.226695	-0.230145	1.250385	-0.743374	-0.310448	-0.329091	-0.015807	-0.011526	0.010689
630	3.146831	0.005000	9.260640	-0.188897	1.437274	-0.742933	-0.310448	-0.329461	-0.021178	-0.002038	-0.002546
631	3.151831	0.005000	9.299880	-0.264962	1.383118	-0.742491	-0.310448	-0.329831	-0.013944	-0.018110	0.011651
632	3.156831	0.005000	9.206122	-0.153662	1.373400	-0.742049	-0.310448	-0.330201	-0.016655	-0.001921	0.006543
633	3.161831	0.005000	9.271740	-0.207300	1.283820	-0.741607	-0.310448	-0.330571	-0.015640	-0.009178	0.000966
634	3.166831	0.005000	9.283397	-0.235440	1.210165	-0.741165	-0.310448	-0.330941	-0.007681	-0.012492	0.017745
635	3.171831	0.005000	9.241973	-0.198106	1.278159	-0.740724	-0.310448	-0.331311	-0.009795	-0.001719	-0.004011
636	3.176831	0.005000	9.166191	-0.295517	1.255680	-0.740286	-0.310452	-0.331667	-0.013881	-0.006836	0.002712
637	3.181831	0.005000	9.182160	-0.219447	1.232433	-0.739955	-0.310563	-0.331667	-0.021343	0.005215	-0.003083
638	3.186831	0.005000	9.235287	-0.219133	1.401174	-0.739623	-0.310673	-0.331667	-0.007556	-0.004978	0.003054
639	3.191831	0.005000	9.170524	-0.168596	1.479484	-0.739292	-0.310784	-0.331667	-0.010827	-0.009146	0.003594
640	3.196831	0.005000	9.140594	-0.226212	1.345715	-0.738961	-0.310894	-0.331667	-0.015001	-0.002128	-0.010831
641	3.201831	0.005000	9.235801	-0.196200	1.341361	-0.738629	-0.311004	-0.331667	-0.017462	-0.005815	0.007274
642	3.206831	0.005000	9.250876	-0.186436	1.339042	-0.738298	-0.311115	-0.331667	-0.019596	-0.001260	-0.002964
643	3.211831	0.005000	9.184625	-0.198665	1.412640	-0.737966	-0.311225	-0.331667	-0.011600	-0.006150	0.004649
644	3.216831	0.005000	9.300394	-0.196714	1.295949	-0.737635	-0.311336	-0.331667	-0.014794	-0.001928	-0.002252
645	3.221831	0.005000	9.301763	-0.235440	1.373400	-0.737304	-0.311446	-0.331667	-0.012602	-0.009197	0.001707
646	3.226831	0.005000	9.304131	-0.156960	1.408389	-0.736972	-0.311556	-0.331667	-0.008392	0.002892	0.013596
647	3.231831	0.005000	9.215156	-0.222952	1.406396	-0.736641	-0.311667	-0.331667	-0.010486	0.003560	0.001218
648	3.236831	0.005000	9.230050	-0.244090	1.382050	-0.736310	-0.311777	-0.331667	-0.008812	-0.010920	0.003641
649	3.241831	0.005000	9.153985	-0.207265	1.373400	-0.735978	-0.311888	-0.331667	-0.018661	-0.004097	0.004092
650	3.246831	0.005000	9.221400	-0.261368	1.373400	-0.735821	-0.311824	-0.331537	-0.006143	-0.020042	0.000863
651	3.251831	0.005000	9.323703	-0.117720	1.397223	-0.735821	-0.311603	-0.331291	-0.015741	-0.003533	0.004307
652	3.256831	0.005000	9.257059	-0.121301	1.434051	-0.735821	-0.311382	-0.331044	-0.010112	-0.006968	-0.002979
653	3.261831	0.005000	9.143676	-0.215442	1.374156	-0.735821	-0.311161	-0.330797	-0.009240	-0.005512	0.007920
654	3.266831	0.005000	9.260640	-0.218588	1.373400	-0.735821	-0.310940	-0.330550	-0.020216	0.001327	-0.001885
655	3.271831	0.005000	9.260640	-0.206148	1.407942	-0.735821	-0.310719	-0.330304	-0.003619	0.001694	0.003832
656	3.276831	0.005000	9.157673	-0.169203	1.388153	-0.735821	-0.310498	-0.330057	-0.005943	0.005291	0.009783
657	3.281831	0.005000	9.231229	-0.156960	1.275338	-0.735821	-0.310278	-0.329810	-0.013144	-0.006108	-0.005355
658	3.286831	0.005000	9.307671	-0.133301	1.365609	-0.735821	-0.310057	-0.329563	-0.014286	-0.003970	0.011729
659	3.291831	0.005000	9.328162	-0.162439	1.384358	-0.735821	-0.309836	-0.329317	-0.019332	0.002015	0.005309
660	3.296831	0.005000	9.224462	-0.241564	1.403454	-0.735821	-0.309615	-0.329070	-0.014490	-0.009976	0.004444
661	3.301831	0.005000	9.183264	-0.273576	1.373400	-0.735821	-0.309394	-0.328823	-0.018487	0.006419	-0.000727
662	3.306831	0.005000	9.297308	-0.197486	1.373400	-0.735821	-0.309173	-0.328577	-0.009357	-0.007043	0.009732
663	3.311831	0.005000	9.335459	-0.271019	1.369739	-0.735832	-0.308963	-0.328314	-0.006148	-0.015692	0.008285
664	3.316831	0.005000	9.266287	-0.313920	1.339807	-0.736716	-0.309626	-0.326834	0.000208	-0.011011	-0.000581
665	3.321831	0.005000	9.244534	-0.282733	1.381453	-0.737599	-0.310289	-0.325354	-0.011576	-0.004962	0.011682
666	3.326831	0.005000	9.250293	-0.216894	1.315614	-0.738483	-0.310951	-0.323874	-0.012874	0.008351	-0.004730
667	3.331831	0.005000	9.233812	-0.262268	1.266087	-0.739367	-0.311614	-0.322394	-0.003543	-0.012454	0.002383
668	3.336831	0.005000	9.270239	-0.235440	1.309740	-0.740250	-0.312277	-0.320914	-0.006510	-0.003742	0.000076
669	3.341831	0.005000	9.260640	-0.257447	1.368625	-0.741134	-0.312940	-0.319434	-0.001567	0.001675	0.000325
670	3.346831	0.005000	9.220976	-0.254848	1.413064	-0.742017	-0.313602	-0.317954	-0.014661	-0.006021	0.010904
671	3.351831	0.005000	9.242979	-0.174621	1.495038	-0.742901	-0.314265	-0.316474	-0.009915	0.004735	-0.003244
672	3.356831	0.005000	9.182160	-0.235440	1.382142	-0.743784	-0.314928	-0.314994	-0.013004	-0.013884	0.010443
673	3.361831	0.005000	9.260640	-0.235440	1.334160	-0.744668	-0.315590	-0.313514	-0.013134	0.006138	-0.006111
674	3.366831	0.005000	9.260640	-0.246337	1.355953	-0.745552	-0.316253	-0.312034	-0.008374	0.001022	0.003368
675	3.371831	0.005000	9.221400	-0.257716	1.359606	-0.746435	-0.316916	-0.310554	-0.017776	0.005425	0.004621
676	3.376831	0.005000	9.149379	-0.182797	1.360481	-0.747319	-0.317578	-0.309074	-0.013627	-0.004307	-0.004393
677	3.381831	0.005000	9.221400	-0.340764	1.412640	-0.747540	-0.317689	-0.309011	-0.018931	-0.014705	0.005109
678	3.386831	0.005000	9.339120	-0.269536	1.409211	-0.747098	-0.317247	-0.310368	-0.007447	-0.009857	0.009557
679	3.391831	0.005000	9.183078	-0.273991	1.295150	-0.746657	-0.316806	-0.311724	-0.009487	-0.013206	0.004517
680	3.396831	0.005000	9.182160	-0.238073	1.410007	-0.746215	-0.316364	-0.313081	-0.015191	-0.004403	-0.003030
681	3.401831	0.005000	9.192144	-0.274680	1.431912	-0.745773	-0.315922	-0.314438	-0.014906	-0.017702	-0.002815
682	3.406831	0.005000	9.221400	-0.196200	1.523366	-0.745331	-0.315480	-0.315795	-0.015274	-0.006400	0.006250
683	3.411831	0.005000	9.281079	-0.186800	1.401601	-0.744890	-0.315039	-0.317151	-0.012301	0.000899	-0.004581
684	3.416831	0.005000	9.350798	-0.251324	1.557922	-0.744448	-0.314597	-0.318508	-0.004869	-0.015686	0.008283
685	3.421831	0.005000	9.288137	-0.249189	1.530360	-0.744006	-0.314155	-0.319865	-0.014992	-0.003536	-0.000129
686	3.426831	0.005000	9.244479	-0.274680	1.461124	-0.743564	-0.313713	-0.321222	-0.008804	-0.018000	-0.005210
687	3.431831	0.005000	9.140379	-0.214549	1.313269	-0.743122	-0.313271	-0.322578	-0.003242	-0.005017	-0.001251
688	3.436831	0.005000	9.161644	-0.155169	1.393916	-0.742681	-0.312830	-0.323935	-0.007028	-0.000468	-0.008619
689	3.441831	0.005000	9.244326	-0.235440	1.389714	-0.742239	-0.312388	-0.325292	-0.006420	-0.012219	0.008849
690	3.446831	0.005000	9.185533	-0.263849	1.305751	-0.741797	-0.311946	-0.326649	-0.016981	-0.001720	-0.003891
691	3.451831	0.005000	9.272597	-0.325877	1.276226	-0.741573	-0.312703	-0.326424	-0.009787	-0.011650	-0.006676
692	3.456831	0.005000	9.240500	-0.216340	1.422190	-0.741352	-0.313477	-0.326177	-0.011290	-0.009366	-0.004256
693	3.461831	0.005000	9.314149	-0.171229	1.426909	-0.741131	-0.314250	-0.325930	-0.012645	-0.014953	-0.000795
694	3.466831	0.005000	9.339120	-0.274680	1.428024	-0.740910	-0.315024	-0.325683	-0.008044	-0.009300	-0.002537
695	3.471831	0.005000	9.260640	-0.238225	1.418211	-0.740689	-0.315797	-0.325436	-0.015626	0.000964	-0.007703
696	3.476831	0.005000	9.338385	-0.273945	1.373033	-0.740468	-0.316571	-0.325189	-0.010465	-0.018354	0.006428
697	3.481831	0.005000	9.147649	-0.196200	1.409487	-0.740247	-0.317344	-0.324943	-0.018982	-0.006930	0.000332
698	3.486831	0.005000	9.221400	-0.160941	1.408659	-0.740026	-0.318118	-0.324696	-0.005839	-0.016493	0.009833
699	3.491831	0.005000	9.398630	-0.241763	1.235410	-0.739805	-0.318891	-0.324449	-0.007022	-0.018825	0.010324
700	3.496831	0.005000	9.291182	-0.196200	1.312316	-0.739584	-0.319665	-0.324202	-0.007261	-0.010996	0.010724
701	3.501831	0.005000	9.203647	-0.235440	1.373400	-0.739363	-0.320438	-0.323955	-0.021617	-0.020008	0.014754
702	3.506831	0.005000	9.286729	-0.170111	1.386337	-0.739142	-0.321212	-0.323708	-0.008844	-0.002275	-0.003985
703	3.511831	0.005000	9.299880	-0.173902	1.397256	-0.738921	-0.321985	-0.323462	-0.012463	-0.019790	-0.000403
704	3.516831	0.005000	9.295656	-0.152736	1.390908	-0.738806	-0.322017	-0.323451	-0.008228	-0.012417	-0.002849
705	3.521831	0.005000	9.298686	-0.176281	1.393319	-0.738806	-0.321244	-0.323698	-0.008741	-0.019575	0.000248
706	3.526831	0.005000	9.400431	-0.213369	1.473951	-0.738806	-0.320471	-0.323945	-0.010149	-0.015126	0.009318
707	3.531831	0.005000	9.387665	-0.235440	1.485457	-0.738806	-0.319698	-0.324191	-0.015059	-0.013870	-0.004912
708	3.536831	0.005000	9.260640	-0.237017	1.414217	-0.738806	-0.318925	-0.324438	-0.009460	-0.022646	0.004180
709	3.541831	0.005000	9.250157	-0.117720	1.373400	-0.738806	-0.318152	-0.324685	-0.009388	-0.002288	0.001612
710	3.546831	0.005000	9.252437	-0.204403	1.451880	-0.738806	-0.317378	-0.324932	-0.014252	-0.001513	-0.002961
711	3.551831	0.005000	9.333333	-0.190413	1.379187	-0.738806	-0.316605	-0.325178	-0.021672	-0.003613	0.000611
712	3.556831	0.005000	9.299880	-0.270883	1.369603	-0.738806	-0.315832	-0.325425	-0.022925	-0.003018	-0.002785
713	3.561831	0.005000	9.259201	-0.312481	1.255680	-0.738806	-0.315059	-0.325672	-0.017288	-0.012065	0.004762
714	3.566831	0.005000	9.374487	-0.236408	1.370496	-0.738806	-0.314286	-0.325918	-0.017601	-0.007208	0.007973
715	3.571831	0.005000	9.306566	-0.160303	1.448537	-0.738806	-0.313513	-0.326165	-0.009707	-0.006587	-0.001495
716	3.576831	0.005000	9.216074	-0.190874	1.362748	-0.738806	-0.312739	-0.326412	-0.027586	-0.007349	-0.000104
717	3.581831	0.005000	9.252908	-0.266948	1.428685	-0.738806	-0.311966	-0.326659	-0.012247	-0.011398	-0.000484
718	3.586831	0.005000	9.299880	-0.235440	1.383429	-0.738593	-0.312367	-0.326190	-0.004800	-0.014585	0.003085
719	3.591831	0.005000	9.342089	-0.274680	1.427699	-0.738372	-0.312809	-0.325697	-0.002779	-0.007332	-0.010383
720	3.596831	0.005000	9.378360	-0.181701	1.387899	-0.738151	-0.313250	-0.325204	-0.006330	-0.006971	0.005499
721	3.601831	0.005000	9.260640	-0.128627	1.345067	-0.737930	-0.313692	-0.324710	-0.016439	-0.003322	0.006845
722	3.606831	0.005000	9.222930	-0.139636	1.254150	-0.737709	-0.314134	-0.324217	-0.014528	-0.017069	0.000625
723	3.611831	0.005000	9.321146	-0.138986	1.255680	-0.737488	-0.314576	-0.323724	-0.010543	-0.004465	0.008057
724	3.616831	0.005000	9.346684	-0.196200	1.255680	-0.737267	-0.315018	-0.323230	-0.013994	-0.002888	-0.005870
725	3.621831	0.005000	9.247019	-0.249061	1.257302	-0.737046	-0.315459	-0.322737	-0.009209	-0.007987	0.001406
726	3.626831	0.005000	9.243814	-0.313920	1.328541	-0.736825	-0.315901	-0.322243	-0.013694	0.009898	-0.010606
727	3.631831	0.005000	9.212248	-0.286464	1.521208	-0.736605	-0.316343	-0.321750	-0.002552	-0.012516	0.015019
728	3.636831	0.005000	9.228256	-0.156960	1.484264	-0.736384	-0.316785	-0.321257	-0.030362	-0.002563	0.006680
729	3.641831	0.005000	9.260640	-0.187320	1.491120	-0.736163	-0.317226	-0.320763	-0.015780	-0.007587	-0.001229
730	3.646831	0.005000	9.297399	-0.117720	1.415121	-0.735942	-0.317668	-0.320270	-0.009346	0.001913	0.013463
731	3.651831	0.005000	9.221400	-0.117996	1.451788	-0.735871	-0.317660	-0.320279	-0.021654	-0.000714	-0.004418
732	3.656831	0.005000	9.295312	-0.198484	1.449596	-0.735981	-0.317107	-0.320896	-0.015534	-0.001758	0.003492
733	3.661831	0.005000	9.264896	-0.200456	1.412640	-0.736092	-0.316555	-0.321513	-0.017381	0.006238	-0.001941
734	3.666831	0.005000	9.162938	-0.235440	1.380073	-0.736202	-0.316002	-0.322130	-0.009280	-0.000138	0.002407
735	3.671831	0.005000	9.173190	-0.274680	1.382370	-0.736313	-0.315450	-0.322747	-0.013146	0.002761	0.004093
736	3.676831	0.005000	9.126401	-0.263319	1.384761	-0.736423	-0.314898	-0.323364	-0.014707	-0.000828	-0.001179
737	3.681831	0.005000	9.220329	-0.170397	1.335231	-0.736534	-0.314345	-0.323981	-0.013012	-0.013930	0.014848
738	3.686831	0.005000	9.244794	-0.101874	1.357554	-0.736644	-0.313793	-0.324598	-0.015580	0.001066	-0.002174
739	3.691831	0.005000	9.339120	-0.156960	1.415786	-0.736755	-0.313240	-0.325215	-0.009284	-0.011425	-0.001961
740	3.696831	0.005000	9.359322	-0.156960	1.392438	-0.736865	-0.312688	-0.325832	0.001197	-0.000518	0.004770
741	3.701831	0.005000	9.272613	-0.212827	1.328174	-0.736976	-0.312135	-0.326449	-0.004480	-0.001689	-0.000137
742	3.706831	0.005000	9.103680	-0.289187	1.284694	-0.737086	-0.311583	-0.327066	-0.011392	-0.008735	0.008953
743	3.711831	0.005000	9.179742	-0.338468	1.412640	-0.737197	-0.311030	-0.327683	-0.024189	0.007412	0.005016
744	3.716831	0.005000	9.270500	-0.245300	1.383260	-0.737307	-0.310478	-0.328300	-0.010173	-0.001998	0.002924
745	3.721831	0.005000	9.252804	-0.219768	1.404804	-0.737313	-0.310657	-0.327750	-0.013219	0.008865	0.013203
746	3.726831	0.005000	9.255128	-0.173495	1.367888	-0.737313	-0.310878	-0.327133	-0.003216	-0.004402	-0.000411
747	3.731831	0.005000	9.257533	-0.156960	1.298027	-0.737313	-0.311099	-0.326516	-0.016238	-0.005978	0.007225
748	3.736831	0.005000	9.298730	-0.271231	1.255680	-0.737313	-0.311320	-0.325900	-0.006724	0.002874	-0.004055
749	3.741831	0.005000	9.298625	-0.232930	1.293665	-0.737313	-0.311541	-0.325283	-0.009778	-0.008630	0.014054
750	3.746831	0.005000	9.257025	-0.199815	1.298535	-0.737313	-0.311761	-0.324666	-0.015004	0.000290	0.006598
751	3.751831	0.005000	9.266244	-0.162564	1.328556	-0.737313	-0.311982	-0.324050	-0.013185	0.003445	0.000834
752	3.756831	0.005000	9.213381	-0.235440	1.224459	-0.737313	-0.312203	-0.323433	-0.006998	0.000287	0.012784
753	3.761831	0.005000	9.231826	-0.235440	1.373400	-0.737313	-0.312424	-0.322817	-0.004330	-0.006505	0.005839
754	3.766831	0.005000	9.221400	-0.131577	1.307612	-0.737313	-0.312645	-0.322200	-0.013292	-0.001159	0.014054
755	3.771831	0.005000	9.182160	-0.269568	1.383072	-0.737313	-0.312866	-0.321583	-0.006958	-0.001856	-0.005662
756	3.776831	0.005000	9.243447	-0.235440	1.434687	-0.737313	-0.313087	-0.320967	0.001477	-0.015188	0.003766
757	3.781831	0.005000	9.319742	-0.215578	1.510982	-0.737313	-0.313308	-0.320350	-0.016567	-0.003922	0.004994
758	3.786831	0.005000	9.242948	-0.196200	1.448023	-0.737361	-0.313576	-0.320320	-0.011053	-0.003612	-0.006885
759	3.791831	0.005000	9.221400	-0.148279	1.382081	-0.737471	-0.313908	-0.321060	-0.005417	-0.000150	-0.001624
760	3.796831	0.005000	9.312756	-0.222564	1.347036	-0.737582	-0.314239	-0.321800	-0.009984	-0.007538	-0.009186
761	3.801831	0.005000	9.367559	-0.246241	1.419478	-0.737692	-0.314570	-0.322540	-0.011883	-0.010939	0.004971
762	3.806831	0.005000	9.252116	-0.235440	1.320493	-0.737803	-0.314902	-0.323280	-0.016067	-0.002436	-0.005926
763	3.811831	0.005000	9.293771	-0.256354	1.451880	-0.737913	-0.315233	-0.324020	-0.014465	-0.009042	-0.010051
764	3.816831	0.005000	9.260640	-0.192085	1.522131	-0.738024	-0.315564	-0.324760	-0.006632	-0.000611	-0.008761
765	3.821831	0.005000	9.333840	-0.080240	1.335920	-0.738134	-0.315895	-0.325500	-0.014931	-0.005236	-0.010623
766	3.826831	0.005000	9.182810	-0.194899	1.334810	-0.738245	-0.316227	-0.326240	0.000851	-0.009650	0.005921
767	3.831831	0.005000	9.254589	-0.196200	1.300971	-0.738355	-0.316558	-0.326980	-0.006343	0.002315	0.001664
768	3.836831	0.005000	9.236419	-0.235440	1.407634	-0.738466	-0.316889	-0.327720	-0.000072	-0.010191	0.008386
769	3.841831	0.005000	9.299880	-0.267257	1.468852	-0.738576	-0.317221	-0.328460	-0.010304	0.002820	0.003587
770	3.846831	0.005000	9.270352	-0.196200	1.451880	-0.738687	-0.317552	-0.329200	-0.012985	-0.003166	-0.006940
771	3.851831	0.005000	9.233174	-0.184426	1.451880	-0.738797	-0.317883	-0.329940	-0.018544	-0.006056	0.004625
772	3.856831	0.005000	9.364173	-0.171147	1.441014	-0.739009	-0.317707	-0.329546	-0.011765	0.002882	-0.010158
773	3.861831	0.005000	9.277038	-0.196200	1.350558	-0.739230	-0.317486	-0.329053	-0.003683	-0.010870	-0.000988
774	3.866831	0.005000	9.221400	-0.235440	1.433339	-0.739451	-0.317265	-0.328559	-0.012133	-0.001851	-0.001125
775	3.871831	0.005000	9.242344	-0.177904	1.355104	-0.739672	-0.317044	-0.328065	-0.007515	-0.005436	0.003478
776	3.876831	0.005000	9.228328	-0.173116	1.474964	-0.739893	-0.316823	-0.327572	-0.016644	-0.016354	0.008359
777	3.881831	0.005000	9.196102	-0.170902	1.449294	-0.740114	-0.316602	-0.327078	-0.019928	0.001332	0.001857
778	3.886831	0.005000	9.299880	-0.152306	1.428823	-0.740335	-0.316381	-0.326585	-0.020358	-0.016885	0.001257
779	3.891831	0.005000	9.182160	-0.186730	1.422110	-0.740556	-0.316160	-0.326091	-0.017286	-0.008623	-0.007549
780	3.896831	0.005000	9.221400	-0.189022	1.491120	-0.740777	-0.315939	-0.325597	-0.017100	0.001930	0.007025
781	3.901831	0.005000	9.343881	-0.186677	1.412640	-0.740998	-0.315718	-0.325104	-0.012245	-0.002495	-0.002698
782	3.906831	0.005000	9.327336	-0.161674	1.294920	-0.741219	-0.315497	-0.324610	-0.010227	-0.002573	-0.007200
783	3.911831	0.005000	9.182568	-0.196608	1.334160	-0.741440	-0.315276	-0.324117	-0.018893	-0.008521	0.000476
784	3.916831	0.005000	9.258635	-0.272675	1.296925	-0.741661	-0.315055	-0.323623	-0.020016	-0.002882	-0.007784
785	3.921831	0.005000	9.251927	-0.270323	1.364687	-0.741745	-0.314788	-0.323435	-0.011779	-0.025233	0.000473
786	3.926831	0.005000	9.260640	-0.215261	1.406286	-0.741635	-0.314457	-0.323681	-0.024874	-0.003174	-0.010841
787	3.931831	0.005000	9.199699	-0.174499	1.355861	-0.741525	-0.314126	-0.323928	-0.003742	-0.005727	-0.008551
788	3.936831	0.005000	9.142920	-0.173847	1.278033	-0.741414	-0.313794	-0.324175	-0.005004	-0.009207	0.001195
789	3.941831	0.005000	9.325687	-0.182767	1.293861	-0.741304	-0.313463	-0.324422	-0.014638	-0.019278	-0.005917
790	3.946831	0.005000	9.236925	-0.259155	1.310445	-0.741193	-0.313132	-0.324668	-0.002763	-0.016809	0.008521
791	3.951831	0.005000	9.178793	-0.235440	1.219807	-0.741083	-0.312801	-0.324915	-0.017718	0.002207	-0.002246
792	3.956831	0.005000	9.221400	-0.293573	1.217894	-0.740973	-0.312469	-0.325162	-0.009770	-0.006949	0.008962
793	3.961831	0.005000	9.198906	-0.263683	1.233186	-0.740862	-0.312138	-0.325409	-0.017457	-0.003026	0.015753
794	3.966831	0.005000	9.231562	-0.220901	1.299297	-0.740752	-0.311807	-0.325655	-0.013789	-0.004894	-0.002218
795	3.971831	0.005000	9.248514	-0.156960	1.294920	-0.740641	-0.311475	-0.325902	-0.005754	-0.006133	0.000379
796	3.976831	0.005000	9.230461	-0.176081	1.382461	-0.740531	-0.311144	-0.326149	-0.009184	-0.006167	0.001611
797	3.981831	0.005000	9.260640	-0.235440	1.334160	-0.740421	-0.310813	-0.326395	-0.003171	-0.005968	0.005828
798	3.986831	0.005000	9.192877	-0.269321	1.328801	-0.740310	-0.310481	-0.326642	-0.015349	0.007115	-0.000454
799	3.991831	0.005000	9.188907	-0.189453	1.376773	-0.740597	-0.310249	-0.326778	-0.016095	-0.006355	0.003299
800	3.996831	0.005000	9.223420	-0.118730	1.411630	-0.740928	-0.310028	-0.326901	-0.012036	-0.005627	-0.002957
801	4.001831	0.005000	9.224183	-0.232657	1.449097	-0.741260	-0.309808	-0.327024	-0.012430	-0.012157	-0.007671
802	4.006831	0.005000	9.256873	-0.164493	1.330393	-0.741591	-0.309587	-0.327148	-0.020605	-0.010034	-0.007561
803	4.011831	0.005000	9.160190	-0.223927	1.356130	-0.741922	-0.309366	-0.327271	-0.016786	0.000981	-0.002411
804	4.016831	0.005000	9.252468	-0.196200	1.325988	-0.742253	-0.309145	-0.327394	-0.013163	-0.012216	0.002530
805	4.021831	0.005000	9.221400	-0.156960	1.266133	-0.742585	-0.308924	-0.327518	-0.015633	-0.005555	0.005998
806	4.026831	0.005000	9.194679	-0.155277	1.321641	-0.742916	-0.308703	-0.327641	-0.009567	-0.007897	0.001836
807	4.031831	0.005000	9.270025	-0.121563	1.300462	-0.743247	-0.308482	-0.327764	-0.012324	-0.008142	0.010282
808	4.036831	0.005000	9.221400	-0.257340	1.260241	-0.743579	-0.308261	-0.327887	-0.017842	-0.000904	-0.007562
809	4.041831	0.005000	9.339120	-0.176686	1.334160	-0.743910	-0.308040	-0.328011	-0.004683	-0.003898	-0.000377
810	4.046831	0.005000	9.282335	-0.192051	1.334160	-0.744241	-0.307820	-0.328134	-0.012038	0.002633	-0.001175
811	4.051831	0.005000	9.212432	-0.196200	1.319024	-0.744573	-0.307599	-0.328257	-0.014661	-0.011946	0.000436
812	4.056831	0.005000	9.234561	-0.170000	1.360481	-0.744606	-0.307591	-0.327952	-0.006981	-0.009738	0.009242
813	4.061831	0.005000	9.278581	-0.224790	1.276979	-0.744164	-0.307922	-0.326966	-0.006893	-0.010344	-0.002230
814	4.066831	0.005000	9.221400	-0.196200	1.381771	-0.743722	-0.308253	-0.325980	-0.008661	-0.013284	0.007896
815	4.071831	0.005000	9.182160	-0.202156	1.385311	-0.743281	-0.308584	-0.324994	-0.021522	0.000012	-0.007902
816	4.076831	0.005000	9.186123	-0.266753	1.518470	-0.742839	-0.308915	-0.324007	-0.017548	-0.004194	-0.004081
817	4.081831	0.005000	9.226221	-0.233833	1.486299	-0.742398	-0.309247	-0.323021	-0.013631	-0.001401	-0.003305
818	4.086831	0.005000	9.339120	-0.119323	1.334962	-0.741956	-0.309578	-0.322035	-0.019769	-0.017788	-0.008757
819	4.091831	0.005000	9.221400	-0.117720	1.407159	-0.741514	-0.309909	-0.321049	-0.007449	-0.010138	0.007381
820	4.096831	0.005000	9.192475	-0.264365	1.363085	-0.741073	-0.310240	-0.320063	-0.016687	-0.000580	-0.007544
821	4.101831	0.005000	9.214299	-0.267579	1.405539	-0.740631	-0.310571	-0.319076	-0.008614	-0.015101	0.006159
822	4.106831	0.005000	9.251132	-0.235440	1.382908	-0.740190	-0.310902	-0.318090	-0.016394	-0.002133	-0.003431
823	4.111831	0.005000	9.221400	-0.302136	1.447992	-0.739748	-0.311234	-0.317104	-0.011793	-0.001539	-0.004685
824	4.116831	0.005000	9.196026	-0.235440	1.398774	-0.739306	-0.311565	-0.316118	-0.010984	-0.006979	0.006012
825	4.121831	0.005000	9.165885	-0.104339	1.432712	-0.738865	-0.311896	-0.315132	-0.010094	-0.006148	0.002370
826	4.126831	0.005000	9.202714	-0.198067	1.255680	-0.739667	-0.313280	-0.312862	-0.011908	-0.016745	0.010349
827	4.131831	0.005000	9.223851	-0.272229	1.331709	-0.740662	-0.314826	-0.310396	-0.019897	-0.005684	0.002424
828	4.136831	0.005000	9.198358	-0.274680	1.387087	-0.741656	-0.316373	-0.307929	-0.004022	-0.014335	0.007282
829	4.141831	0.005000	9.274429	-0.274680	1.357484	-0.742650	-0.317919	-0.305462	-0.018836	-0.003724	0.014138
830	4.146831	0.005000	9.288172	-0.223732	1.251565	-0.743644	-0.319466	-0.302995	-0.012065	-0.011120	0.000507
831	4.151831	0.005000	9.201022	-0.156960	1.343591	-0.744638	-0.321012	-0.300529	-0.010998	-0.011611	-0.001200
832	4.156831	0.005000	9.214375	-0.171009	1.359351	-0.745632	-0.322558	-0.298062	-0.012090	-0.004080	0.002540
833	4.161831	0.005000	9.304902	-0.240462	1.226484	-0.746626	-0.324105	-0.295595	-0.008503	-0.015170	0.013544
834	4.166831	0.005000	9.263318	-0.198878	1.258358	-0.747620	-0.325651	-0.293128	-0.006828	0.004528	0.001112
835	4.171831	0.005000	9.220619	-0.274680	1.294660	-0.748614	-0.327197	-0.290662	-0.005710	-0.004813	0.003516
836	4.176831	0.005000	9.216350	-0.274680	1.330793	-0.749608	-0.328744	-0.288195	-0.009968	0.000084	0.009968
837	4.181831	0.005000	9.291704	-0.274680	1.299008	-0.750602	-0.330290	-0.285728	-0.009619	-0.002400	0.001797
838	4.186831	0.005000	9.116689	-0.228936	1.379904	-0.751596	-0.331836	-0.283261	-0.005192	-0.014966	0.009120
839	4.191831	0.005000	9.291076	-0.226636	1.360572	-0.752122	-0.332445	-0.282714	-0.025240	-0.004021	0.005480
840	4.196831	0.005000	9.294222	-0.274680	1.373400	-0.751790	-0.331340	-0.285676	-0.014104	-0.013793	0.002508
841	4.201831	0.005000	9.156189	-0.222738	1.307622	-0.751459	-0.330235	-0.288637	-0.019167	-0.001751	0.005259
842	4.206831	0.005000	9.292087	-0.094158	1.365515	-0.751127	-0.329130	-0.291598	-0.011804	-0.004102	-0.008345
843	4.211831	0.005000	9.260640	-0.160439	1.334160	-0.750796	-0.328025	-0.294560	-0.009991	-0.006925	0.004081
844	4.216831	0.005000	9.281500	-0.216233	1.393433	-0.750464	-0.326920	-0.297521	-0.016230	0.003971	0.005171
845	4.221831	0.005000	9.316675	-0.235440	1.334160	-0.750133	-0.325815	-0.300482	-0.016472	-0.017335	0.006994
846	4.226831	0.005000	9.231293	-0.274680	1.451880	-0.749801	-0.324710	-0.303444	-0.011992	-0.009583	0.003414
847	4.231831	0.005000	9.182160	-0.301622	1.424938	-0.749470	-0.323605	-0.306405	-0.005635	-0.013295	-0.002274
848	4.236831	0.005000	9.212245	-0.176144	1.392584	-0.749138	-0.322500	-0.309367	-0.002341	-0.000482	0.006341
849	4.241831	0.005000	9.245391	-0.203824	1.302544	-0.748807	-0.321395	-0.312328	-0.010622	0.000543	-0.002558
850	4.246831	0.005000	9.288656	-0.224216	1.311757	-0.748475	-0.320290	-0.315289	-0.005948	-0.021041	0.005189
851	4.251831	0.005000	9.254090	-0.163510	1.373400	-0.748143	-0.319185	-0.318251	-0.008247	-0.005403	-0.006422
852	4.256831	0.005000	9.258925	-0.236297	1.334160	-0.747812	-0.318080	-0.321212	-0.010310	-0.015557	-0.001021
853	4.261831	0.005000	9.296620	-0.236527	1.334160	-0.746920	-0.317443	-0.322085	-0.010178	-0.004492	0.001491
854	4.266831	0.005000	9.292899	-0.199691	1.226912	-0.745926	-0.316890	-0.322578	-0.016327	0.003210	-0.011039
855	4.271831	0.005000	9.266547	-0.268773	1.294920	-0.744931	-0.316338	-0.323071	-0.005237	-0.009494	0.002218
856	4.276831	0.005000	9.229614	-0.235440	1.224654	-0.743937	-0.315786	-0.323564	-0.014102	-0.005695	-0.007820
857	4.281831	0.005000	9.250382	-0.138236	1.294920	-0.742943	-0.315234	-0.324058	-0.016976	-0.016862	0.007267
858	4.286831	0.005000	9.299880	-0.262008	1.254456	-0.741949	-0.314682	-0.324551	-0.017636	-0.013451	-0.002420
859	4.291831	0.005000	9.299880	-0.235440	1.334160	-0.740955	-0.314129	-0.325044	-0.013179	-0.012602	0.005184
860	4.296831	0.005000	9.260640	-0.269490	1.317135	-0.739961	-0.313577	-0.325538	-0.013710	-0.013457	0.004005
861	4.301831	0.005000	9.240612	-0.214595	1.413457	-0.738967	-0.313025	-0.326031	-0.013194	-0.012294	-0.005044
862	4.306831	0.005000	9.182160	-0.214060	1.394780	-0.737973	-0.312473	-0.326524	-0.007690	-0.014493	0.008752
863	4.311831	0.005000	9.197608	-0.219992	1.373400	-0.736979	-0.311921	-0.327017	-0.019481	-0.005407	0.008818
864	4.316831	0.005000	9.247283	-0.208725	1.372568	-0.735985	-0.311368	-0.327511	-0.015552	-0.012641	0.009425
865	4.321831	0.005000	9.221400	-0.185233	1.395334	-0.734991	-0.310816	-0.328004	-0.013415	-0.006092	0.014259
866	4.326831	0.005000	9.230093	-0.187507	1.403947	-0.734365	-0.310485	-0.328292	-0.024065	-0.006444	0.003125
867	4.331831	0.005000	9.221400	-0.156960	1.367123	-0.734475	-0.310595	-0.328169	-0.009181	-0.004574	0.017041
868	4.336831	0.005000	9.256359	-0.082761	1.408359	-0.734586	-0.310706	-0.328045	-0.013353	-0.010949	0.004386
869	4.341831	0.005000	9.182160	-0.196200	1.336088	-0.734696	-0.310816	-0.327922	-0.018479	-0.013553	0.005449
870	4.346831	0.005000	9.260609	-0.156975	1.373400	-0.734807	-0.310926	-0.327799	-0.009357	0.008023	0.004869
871	4.351831	0.005000	9.218967	-0.156960	1.302220	-0.734917	-0.311037	-0.327675	-0.006176	-0.011522	0.001379
872	4.356831	0.005000	9.221400	-0.152180	1.359059	-0.735028	-0.311147	-0.327552	-0.008361	-0.009015	0.004722
873	4.361831	0.005000	9.299880	-0.196200	1.419810	-0.735138	-0.311258	-0.327429	-0.006674	-0.001612	-0.010054
874	4.366831	0.005000	9.329922	-0.325567	1.315764	-0.735249	-0.311368	-0.327306	-0.006025	-0.013417	0.005865
875	4.371831	0.005000	9.228026	-0.274680	1.294920	-0.735359	-0.311478	-0.327182	-0.014863	0.000203	-0.002727
876	4.376831	0.005000	9.246621	-0.313920	1.359381	-0.735470	-0.311589	-0.327059	-0.013624	-0.012875	0.002796
877	4.381831	0.005000	9.346435	-0.313920	1.405325	-0.735580	-0.311699	-0.326936	-0.015577	-0.001772	0.008137
878	4.386831	0.005000	9.318252	-0.253812	1.269061	-0.735691	-0.311810	-0.326812	-0.012776	-0.008508	-0.003308
879	4.391831	0.005000	9.241928	-0.255968	1.334160	-0.735801	-0.311920	-0.326689	-0.010710	-0.006957	0.014423
880	4.396831	0.005000	9.221400	-0.274680	1.396120	-0.735730	-0.311578	-0.326869	-0.014290	-0.003687	0.007713
881	4.401831	0.005000	9.260640	-0.221330	1.345179	-0.735620	-0.311136	-0.327116	-0.009715	-0.010442	0.005005
882	4.406831	0.005000	9.248614	-0.196200	1.385426	-0.735509	-0.310694	-0.327363	-0.015086	-0.001420	-0.003646
883	4.411831	0.005000	9.260640	-0.137225	1.383153	-0.735399	-0.310252	-0.327610	-0.011840	-0.012415	0.001941
884	4.416831	0.005000	9.228746	-0.156960	1.334160	-0.735288	-0.309810	-0.327856	-0.008467	-0.011178	0.010165
885	4.421831	0.005000	9.237420	-0.224760	1.401960	-0.735178	-0.309368	-0.328103	-0.010057	-0.001841	-0.004289
886	4.426831	0.005000	9.305780	-0.168759	1.334160	-0.735067	-0.308926	-0.328350	-0.015674	-0.007713	0.003277
887	4.431831	0.005000	9.415855	-0.233695	1.296083	-0.734957	-0.308484	-0.328597	-0.019419	0.002610	-0.002446
888	4.436831	0.005000	9.299880	-0.192569	1.298551	-0.734846	-0.308042	-0.328843	-0.027710	-0.010902	0.000983
889	4.441831	0.005000	9.299880	-0.203760	1.405080	-0.734736	-0.307600	-0.329090	-0.016721	-0.007447	0.000521
890	4.446831	0.005000	9.149105	-0.130091	1.255680	-0.734625	-0.307158	-0.329337	-0.006641	-0.002963	-0.000831
891	4.451831	0.005000	9.229901	-0.126221	1.294920	-0.734514	-0.306716	-0.329584	-0.016362	-0.006185	0.006212
892	4.456831	0.005000	9.260640	-0.175111	1.383945	-0.734404	-0.306274	-0.329830	-0.016038	0.006557	-0.007330
893	4.461831	0.005000	9.182160	-0.209535	1.425975	-0.734432	-0.306005	-0.329961	-0.015838	-0.006937	0.001656
894	4.466831	0.005000	9.206227	-0.250613	1.279747	-0.734763	-0.306115	-0.329838	-0.014217	-0.005946	-0.004189
895	4.471831	0.005000	9.365698	-0.078480	1.351461	-0.735094	-0.306226	-0.329715	-0.015419	-0.001769	-0.011429
896	4.476831	0.005000	9.319408	-0.176488	1.373400	-0.735426	-0.306336	-0.329591	-0.015552	-0.001677	0.006404
897	4.481831	0.005000	9.334642	-0.135101	1.390781	-0.735757	-0.306447	-0.329468	-0.013797	-0.006825	0.007164
898	4.486831	0.005000	9.417600	-0.181028	1.318988	-0.736089	-0.306557	-0.329345	-0.005715	0.000729	0.001008
899	4.491831	0.005000	9.352833	-0.196200	1.359687	-0.736420	-0.306667	-0.329221	-0.011290	0.003259	0.004323
900	4.496831	0.005000	9.278490	-0.178350	1.391250	-0.736751	-0.306778	-0.329098	-0.003528	-0.006632	0.001947
901	4.501831	0.005000	9.243829	-0.313920	1.359376	-0.737083	-0.306888	-0.328975	-0.017879	0.002480	0.001222
902	4.506831	0.005000	9.176161	-0.262681	1.445881	-0.737414	-0.306999	-0.328851	-0.008333	0.002182	-0.004975
903	4.511831	0.005000	9.221400	-0.243457	1.259689	-0.737746	-0.307109	-0.328728	-0.011886	-0.008367	-0.004335
904	4.516831	0.005000	9.298242	-0.271404	1.335798	-0.738077	-0.307220	-0.328604	-0.013678	0.000245	0.000328
905	4.521831	0.005000	9.260640	-0.119233	1.334916	-0.738408	-0.307330	-0.328481	-0.008646	-0.010637	0.013305
906	4.526831	0.005000	9.221400	-0.081190	1.446460	-0.738740	-0.307441	-0.328358	-0.016596	0.004481	0.006104
907	4.531831	0.005000	9.255513	-0.151833	1.378527	-0.738364	-0.307816	-0.328333	-0.012029	-0.007117	-0.002484
908	4.536831	0.005000	9.260640	-0.196200	1.365957	-0.737812	-0.308258	-0.328333	-0.008726	-0.005929	0.012864
909	4.541831	0.005000	9.260640	-0.265207	1.323340	-0.737260	-0.308700	-0.328333	-0.012636	-0.005750	-0.002069
910	4.546831	0.005000	9.276119	-0.262799	1.376998	-0.736707	-0.309142	-0.328333	-0.003665	-0.006691	0.007814
911	4.551831	0.005000	9.260640	-0.246422	1.409494	-0.736155	-0.309584	-0.328333	-0.013457	-0.000383	0.005425
912	4.556831	0.005000	9.214636	-0.242204	1.396402	-0.735603	-0.310025	-0.328333	-0.009701	-0.001827	0.017167
913	4.561831	0.005000	9.163512	-0.254088	1.334160	-0.735051	-0.310467	-0.328333	-0.011742	0.008231	0.014285
914	4.566831	0.005000	9.200585	-0.253865	1.218830	-0.734498	-0.310909	-0.328333	-0.005396	-0.001737	0.000305
915	4.571831	0.005000	9.198398	-0.228676	1.186673	-0.733946	-0.311351	-0.328333	-0.012241	-0.006771	0.015529
916	4.576831	0.005000	9.313705	-0.263090	1.230265	-0.733394	-0.311792	-0.328333	-0.012576	0.003852	0.000013
917	4.581831	0.005000	9.354883	-0.325659	1.283181	-0.732842	-0.312234	-0.328333	-0.005538	-0.010678	0.005338
918	4.586831	0.005000	9.241693	-0.175907	1.265153	-0.732289	-0.312676	-0.328333	-0.017232	0.002966	0.002981
919	4.591831	0.005000	9.249632	-0.221324	1.380458	-0.731737	-0.313118	-0.328333	-0.005754	-0.006811	0.012827
920	4.596831	0.005000	9.265692	-0.206305	1.368348	-0.731501	-0.313433	-0.328333	0.001170	-0.017051	0.001036
921	4.601831	0.005000	9.299880	-0.238149	1.224567	-0.732054	-0.313433	-0.328333	-0.013546	-0.001272	0.006515
922	4.606831	0.005000	9.336095	-0.276193	1.374156	-0.732606	-0.313433	-0.328333	-0.006209	-0.008267	0.011590
923	4.611831	0.005000	9.219762	-0.277956	1.375038	-0.733159	-0.313433	-0.328333	-0.010236	0.002771	-0.002228
924	4.616831	0.005000	9.182160	-0.192191	1.416649	-0.733711	-0.313433	-0.328333	-0.013811	-0.010405	0.001003
925	4.621831	0.005000	9.299880	-0.196200	1.406641	-0.734264	-0.313433	-0.328333	-0.010885	-0.006425	-0.000039
926	4.626831	0.005000	9.269045	-0.196200	1.421045	-0.734817	-0.313433	-0.328333	-0.013222	-0.003940	-0.000155
927	4.631831	0.005000	9.242790	-0.224745	1.419795	-0.735369	-0.313433	-0.328333	-0.008145	-0.006516	0.000864
928	4.636831	0.005000	9.195873	-0.235440	1.478356	-0.735922	-0.313433	-0.328333	-0.007325	0.003185	-0.003767
929	4.641831	0.005000	9.166988	-0.259508	1.436708	-0.736474	-0.313433	-0.328333	-0.009167	-0.010019	-0.006427
930	4.646831	0.005000	9.199277	-0.196200	1.451880	-0.737027	-0.313433	-0.328333	-0.012357	-0.010191	0.006881
931	4.651831	0.005000	9.260824	-0.196384	1.432352	-0.737579	-0.313433	-0.328333	-0.005938	-0.007033	-0.007587
932	4.656831	0.005000	9.282317	-0.253003	1.451880	-0.738132	-0.313433	-0.328333	-0.007861	-0.008609	0.004624
933	4.661831	0.005000	9.173632	-0.250796	1.484292	-0.738684	-0.313433	-0.328333	-0.008687	-0.004787	-0.002991
934	4.666831	0.005000	9.260640	-0.221674	1.451880	-0.738634	-0.313175	-0.328045	-0.002495	-0.010199	-0.000934
935	4.671831	0.005000	9.182160	-0.185196	1.373400	-0.738413	-0.312844	-0.327675	-0.012041	0.009072	0.004525
936	4.676831	0.005000	9.151509	-0.257502	1.390578	-0.738192	-0.312512	-0.327305	-0.013471	-0.002452	0.000916
937	4.681831	0.005000	9.260640	-0.202780	1.393141	-0.737971	-0.312181	-0.326935	-0.008743	0.001472	0.001955
938	4.686831	0.005000	9.107921	-0.204682	1.412640	-0.737751	-0.311850	-0.326565	-0.017115	0.002878	0.000575
939	4.691831	0.005000	9.258803	-0.198037	1.373400	-0.737530	-0.311519	-0.326195	-0.015388	-0.007255	0.007033
940	4.696831	0.005000	9.182267	-0.196307	1.490798	-0.737309	-0.311187	-0.325826	-0.016846	0.002877	0.009333
941	4.701831	0.005000	9.223925	-0.196200	1.410115	-0.737088	-0.310856	-0.325456	-0.011365	-0.011077	0.003717
942	4.706831	0.005000	9.260640	-0.235440	1.378271	-0.736868	-0.310525	-0.325086	-0.014128	-0.005914	-0.004265
943	4.711831	0.005000	9.168411	-0.260931	1.419514	-0.736647	-0.310194	-0.324716	-0.021271	-0.000293	-0.002692
944	4.716831	0.005000	9.251350	-0.184829	1.491120	-0.736426	-0.309862	-0.324346	-0.014355	-0.006305	-0.003675
945	4.721831	0.005000	9.260640	-0.196200	1.428766	-0.736205	-0.309531	-0.323976	-0.017011	0.000000	-0.013301
946	4.726831	0.005000	9.207759	-0.209841	1.387041	-0.735984	-0.309200	-0.323607	-0.015070	-0.004930	-0.007260
947	4.731831	0.005000	9.276694	-0.203332	1.380532	-0.735850	-0.308984	-0.323429	-0.017064	-0.000372	0.003333
948	4.736831	0.005000	9.357118	-0.178202	1.370156	-0.735960	-0.309094	-0.323799	-0.018482	-0.011277	-0.006892
949	4.741831	0.005000	9.222977	-0.177368	1.429895	-0.736071	-0.309205	-0.324170	-0.007106	-0.013960	0.003024
950	4.746831	0.005000	9.283195	-0.156960	1.457749	-0.736181	-0.309315	-0.324540	-0.010923	-0.011176	-0.004713
951	4.751831	0.005000	9.260640	-0.181717	1.408430	-0.736292	-0.309426	-0.324910	-0.003865	-0.014837	0.003628
952	4.756831	0.005000	9.233475	-0.196200	1.397550	-0.736402	-0.309536	-0.325280	-0.015755	0.000516	-0.001351
953	4.761831	0.005000	9.270654	-0.166974	1.491120	-0.736513	-0.309647	-0.325650	-0.012414	-0.011011	0.003088
954	4.766831	0.005000	9.292164	-0.188484	1.514927	-0.736623	-0.309758	-0.326021	-0.008008	0.003641	0.003218
955	4.771831	0.005000	9.260640	-0.201511	1.412640	-0.736733	-0.309868	-0.326391	-0.017659	-0.000026	0.003373
956	4.776831	0.005000	9.218072	-0.160288	1.334160	-0.736844	-0.309979	-0.326761	-0.018050	-0.005587	-0.001311
957	4.781831	0.005000	9.259691	-0.272782	1.412640	-0.736954	-0.310089	-0.327131	-0.017697	-0.004550	0.001195
958	4.786831	0.005000	9.145794	-0.196200	1.374837	-0.737065	-0.310200	-0.327501	-0.001676	-0.008198	0.008750
959	4.791831	0.005000	9.221400	-0.232041	1.412640	-0.737175	-0.310310	-0.327871	-0.013522	0.002193	0.009136
960	4.796831	0.005000	9.266456	-0.213647	1.300736	-0.737286	-0.310421	-0.328242	-0.005555	-0.010423	0.008591
961	4.801831	0.005000	9.198407	-0.196200	1.334160	-0.737480	-0.310282	-0.328240	-0.002414	-0.014864	0.009541
962	4.806831	0.005000	9.240308	-0.138052	1.255680	-0.737701	-0.310061	-0.328117	-0.008863	-0.001333	-0.004930
963	4.811831	0.005000	9.248205	-0.117720	1.309291	-0.737922	-0.309840	-0.327993	-0.007806	-0.007941	0.000195
964	4.816831	0.005000	9.211779	-0.205821	1.412640	-0.738143	-0.309619	-0.327870	-0.008183	-0.000516	0.000379
965	4.821831	0.005000	9.221400	-0.230066	1.323412	-0.738364	-0.309398	-0.327747	-0.009521	-0.008193	-0.001581
966	4.826831	0.005000	9.260640	-0.196200	1.315054	-0.738585	-0.309177	-0.327623	-0.005902	-0.012449	0.008883
967	4.831831	0.005000	9.182160	-0.142323	1.388037	-0.738806	-0.308956	-0.327500	-0.018313	-0.012176	0.004525
968	4.836831	0.005000	9.135513	-0.188058	1.460022	-0.739027	-0.308735	-0.327377	-0.010027	-0.008712	0.006830
969	4.841831	0.005000	9.144024	-0.247784	1.386848	-0.739248	-0.308514	-0.327253	-0.011724	0.000682	0.002445
970	4.846831	0.005000	9.187687	-0.173817	1.423832	-0.739469	-0.308293	-0.327130	-0.006845	-0.010399	0.006539
971	4.851831	0.005000	9.251855	-0.087265	1.464766	-0.739690	-0.308072	-0.327007	-0.016089	-0.001459	-0.002834
972	4.856831	0.005000	9.267009	-0.130458	1.451880	-0.739911	-0.307851	-0.326883	-0.015452	-0.002780	-0.007729
973	4.861831	0.005000	9.295455	-0.152535	1.451880	-0.740132	-0.307630	-0.326760	-0.008521	-0.005638	0.005794
974	4.866831	0.005000	9.229481	-0.158980	1.445820	-0.740245	-0.307463	-0.326485	-0.018365	0.000592	-0.008098
975	4.871831	0.005000	9.299804	-0.157036	1.451880	-0.740024	-0.307463	-0.325745	-0.005020	-0.006668	0.009407
976	4.876831	0.005000	9.334437	-0.233098	1.414982	-0.739803	-0.307463	-0.325006	-0.012991	-0.004635	0.002428
977	4.881831	0.005000	9.329741	-0.131788	1.378089	-0.739582	-0.307463	-0.324266	-0.006361	-0.015710	0.004901
978	4.886831	0.005000	9.267331	-0.222059	1.366709	-0.739361	-0.307463	-0.323526	-0.015510	0.005616	0.005166
979	4.891831	0.005000	9.251534	-0.135932	1.460986	-0.739140	-0.307463	-0.322787	-0.016834	-0.009635	-0.000542
980	4.896831	0.005000	9.204911	-0.189937	1.412640	-0.738919	-0.307463	-0.322047	-0.003930	-0.013959	0.009108
981	4.901831	0.005000	9.194495	-0.197317	1.385735	-0.738699	-0.307463	-0.321307	-0.016525	0.000368	-0.008953
982	4.906831	0.005000	9.190056	-0.219768	1.255680	-0.738478	-0.307463	-0.320568	-0.006788	-0.007018	0.007286
983	4.911831	0.005000	9.303509	-0.313920	1.323611	-0.738257	-0.307463	-0.319828	-0.014228	0.004173	0.017323
984	4.916831	0.005000	9.280857	-0.235440	1.413834	-0.738036	-0.307463	-0.319088	-0.006147	-0.006578	0.006522
985	4.921831	0.005000	9.243758	-0.235440	1.468762	-0.737815	-0.307463	-0.318348	-0.008988	-0.009514	0.004360
986	4.926831	0.005000	9.167493	-0.181533	1.432451	-0.737594	-0.307463	-0.317609	-0.015581	-0.013586	-0.007938
987	4.931831	0.005000	9.221400	-0.169531	1.255680	-0.737373	-0.307463	-0.316869	-0.005507	-0.012947	0.009119
988	4.936831	0.005000	9.231715	-0.206515	1.237070	-0.737715	-0.308668	-0.315680	-0.016861	-0.005095	-0.002082
989	4.941831	0.005000	9.331220	-0.266780	1.310720	-0.738267	-0.310325	-0.314323	-0.004012	-0.010079	0.002077
990	4.946831	0.005000	9.305764	-0.241324	1.283151	-0.738820	-0.311983	-0.312966	-0.014435	-0.003010	0.006203
991	4.951831	0.005000	9.264191	-0.199751	1.255680	-0.739372	-0.313640	-0.311608	-0.016401	-0.003510	-0.007917
992	4.956831	0.005000	9.221400	-0.237706	1.300585	-0.739925	-0.315298	-0.310251	-0.015705	-0.011912	0.011016
993	4.961831	0.005000	9.298258	-0.313920	1.529549	-0.740477	-0.316955	-0.308894	-0.013924	0.000711	0.002434
994	4.966831	0.005000	9.290235	-0.241870	1.520715	-0.741030	-0.318613	-0.307536	-0.011935	-0.019775	0.000446
995	4.971831	0.005000	9.333568	-0.280232	1.423743	-0.741582	-0.320270	-0.306179	-0.017476	-0.000626	0.004776
996	4.976831	0.005000	9.236526	-0.164523	1.380963	-0.742135	-0.321928	-0.304822	-0.011181	-0.002743	0.001870
997	4.981831	0.005000	9.221400	-0.274680	1.383051	-0.742687	-0.323585	-0.303464	-0.014760	-0.001995	0.016916
998	4.986831	0.005000	9.206004	-0.208122	1.228362	-0.743240	-0.325243	-0.302107	-0.008977	0.000077	0.007721
999	4.991831	0.005000	9.260640	-0.235440	1.241521	-0.743792	-0.326900	-0.300749	-0.010225	-0.013811	0.007757
1000	4.996831	0.005000	9.205125	-0.251715	1.232715	-0.744345	-0.328558	-0.299392	-0.010733	-0.005476	0.007423
1001	5.001831	0.005000	9.320434	-0.254126	1.352846	-0.744897	-0.329754	-0.298333	-0.008197	-0.020170	0.007694
1002	5.006831	0.005000	9.396755	-0.316371	1.391795	-0.745449	-0.329312	-0.298333	-0.011343	-0.008518	0.009087
1003	5.011831	0.005000	9.362162	-0.235440	1.357202	-0.746001	-0.328871	-0.298333	-0.012761	-0.004391	0.002090
1004	5.016831	0.005000	9.262767	-0.235440	1.387189	-0.746553	-0.328429	-0.298333	-0.001865	-0.014761	0.011862
1005	5.021831	0.005000	9.311725	-0.274680	1.322315	-0.747105	-0.327988	-0.298333	-0.002442	0.007927	-0.000357
1006	5.026831	0.005000	9.281018	-0.196200	1.403209	-0.747657	-0.327546	-0.298333	-0.011205	-0.008630	0.001270
1007	5.031831	0.005000	9.314674	-0.257632	1.373400	-0.748209	-0.327104	-0.298333	-0.014966	-0.012231	-0.004848
1008	5.036831	0.005000	9.221400	-0.191117	1.378483	-0.748761	-0.326663	-0.298333	-0.011328	-0.000927	0.005635
1009	5.041831	0.005000	9.297202	-0.162316	1.412640	-0.749314	-0.326221	-0.298333	-0.007473	-0.007303	0.003929
1010	5.046831	0.005000	9.221400	-0.235440	1.489668	-0.749866	-0.325780	-0.298333	-0.009585	0.004032	-0.005801
1011	5.051831	0.005000	9.183843	-0.310553	1.299970	-0.750418	-0.325338	-0.298333	-0.012213	-0.009578	0.007524
1012	5.056831	0.005000	9.217361	-0.243518	1.451880	-0.750970	-0.324896	-0.298333	-0.019096	-0.003921	-0.004813
1013	5.061831	0.005000	9.148952	-0.202232	1.463944	-0.751522	-0.324455	-0.298333	-0.019346	-0.004297	0.008569
1014	5.066831	0.005000	9.243744	-0.187752	1.395744	-0.752074	-0.324013	-0.298333	-0.009458	-0.005233	0.004738
1015	5.071831	0.005000	9.242850	-0.196200	1.373400	-0.751775	-0.323107	-0.299283	-0.031110	-0.010484	-0.003827
1016	5.076831	0.005000	9.234515	-0.117720	1.478005	-0.751112	-0.322003	-0.300640	0.000000	-0.007571	0.013761
1017	5.081831	0.005000	9.221400	-0.180988	1.451880	-0.750449	-0.320898	-0.301997	-0.013732	-0.002971	-0.008000
1018	5.086831	0.005000	9.299880	-0.196200	1.412640	-0.749787	-0.319794	-0.303354	-0.003382	-0.010530	0.002434
1019	5.091831	0.005000	9.260747	-0.117720	1.334053	-0.749124	-0.318689	-0.304710	-0.012710	0.000552	0.002679
1020	5.096831	0.005000	9.390909	-0.156960	1.360851	-0.748461	-0.317585	-0.306067	-0.019853	-0.011912	-0.007421
1021	5.101831	0.005000	9.299880	-0.274680	1.397498	-0.747799	-0.316480	-0.307424	-0.014457	-0.011871	0.005111
1022	5.106831	0.005000	9.339120	-0.235440	1.360494	-0.747136	-0.315376	-0.308780	-0.013287	0.002444	-0.000030
1023	5.111831	0.005000	9.260640	-0.313920	1.355166	-0.746473	-0.314271	-0.310137	-0.012088	-0.011125	0.009106
1024	5.116831	0.005000	9.252082	-0.322478	1.429757	-0.745811	-0.313166	-0.311494	-0.019166	-0.002294	0.000366
1025	5.121831	0.005000	9.260640	-0.202352	1.451880	-0.745148	-0.312062	-0.312851	-0.004601	-0.004431	-0.000111
1026	5.126831	0.005000	9.299880	-0.243760	1.513720	-0.744485	-0.310957	-0.314207	-0.018048	-0.003278	0.006070
1027	5.131831	0.005000	9.260640	-0.235440	1.326995	-0.743823	-0.309853	-0.315564	-0.012900	-0.005233	-0.000066
1028	5.136831	0.005000	9.260640	-0.158170	1.254470	-0.743222	-0.309182	-0.316736	-0.016139	-0.009661	0.012025
1029	5.141831	0.005000	9.294766	-0.230326	1.294920	-0.742891	-0.310397	-0.317106	-0.011752	-0.006209	-0.002813
1030	5.146831	0.005000	9.270588	-0.196200	1.226388	-0.742559	-0.311612	-0.317476	-0.004282	-0.014285	0.002081
1031	5.151831	0.005000	9.238766	-0.171543	1.277554	-0.742228	-0.312827	-0.317846	-0.016989	-0.003271	-0.002014
1032	5.156831	0.005000	9.172836	-0.097128	1.315512	-0.741896	-0.314042	-0.318216	-0.016983	0.000463	-0.006539
1033	5.161831	0.005000	9.177728	-0.168563	1.417072	-0.741565	-0.315257	-0.318586	-0.013089	-0.011414	0.004626
1034	5.166831	0.005000	9.246958	-0.274680	1.424516	-0.741234	-0.316472	-0.318956	-0.016707	-0.001499	-0.008885
1035	5.171831	0.005000	9.237491	-0.149902	1.412640	-0.740902	-0.317687	-0.319326	-0.005962	-0.009580	0.003771
1036	5.176831	0.005000	9.260640	-0.217151	1.373400	-0.740571	-0.318902	-0.319696	-0.014188	-0.002782	0.002364
1037	5.181831	0.005000	9.299880	-0.255886	1.392194	-0.740240	-0.320117	-0.320066	-0.015187	-0.009075	0.004140
1038	5.186831	0.005000	9.289948	-0.163418	1.373400	-0.739908	-0.321332	-0.320436	-0.013531	-0.003654	0.005313
1039	5.191831	0.005000	9.289200	-0.171240	1.412640	-0.739577	-0.322547	-0.320806	-0.009919	0.000082	0.004154
1040	5.196831	0.005000	9.287990	-0.141500	1.400750	-0.739245	-0.323762	-0.321176	-0.008339	-0.014920	0.008505
1041	5.201831	0.005000	9.201413	-0.117720	1.343786	-0.738914	-0.324977	-0.321546	-0.018237	-0.006593	-0.002018
1042	5.206831	0.005000	9.260640	-0.188989	1.373400	-0.738955	-0.324480	-0.321667	-0.005275	-0.008186	0.006328
1043	5.211831	0.005000	9.260640	-0.230236	1.368196	-0.739176	-0.323154	-0.321667	-0.018925	-0.012187	0.003357
1044	5.216831	0.005000	9.260640	-0.165546	1.337022	-0.739397	-0.321829	-0.321667	-0.008167	-0.004380	-0.004056
1045	5.221831	0.005000	9.299436	-0.234552	1.373400	-0.739618	-0.320504	-0.321667	0.000571	-0.007651	0.011762
1046	5.226831	0.005000	9.298380	-0.156960	1.335660	-0.739838	-0.319178	-0.321667	-0.002976	-0.008174	-0.000003
1047	5.231831	0.005000	9.260640	-0.200104	1.373400	-0.740059	-0.317853	-0.321667	-0.008611	-0.014372	0.008050
1048	5.236831	0.005000	9.248145	-0.175703	1.359150	-0.740280	-0.316527	-0.321667	-0.006918	-0.003665	0.008648
1049	5.241831	0.005000	9.322591	-0.187936	1.396111	-0.740501	-0.315202	-0.321667	-0.008395	-0.015429	-0.000537
1050	5.246831	0.005000	9.271311	-0.156960	1.366174	-0.740722	-0.313877	-0.321667	-0.020375	-0.007984	0.003206
1051	5.251831	0.005000	9.181721	-0.209572	1.268175	-0.740943	-0.312551	-0.321667	-0.010610	0.000983	-0.009428
1052	5.256831	0.005000	9.284861	-0.265479	1.285719	-0.741164	-0.311226	-0.321667	-0.003372	-0.011372	0.010345
1053	5.261831	0.005000	9.282449	-0.235440	1.316729	-0.741385	-0.309901	-0.321667	-0.009523	-0.000175	-0.003686
1054	5.266831	0.005000	9.201735	-0.196200	1.393065	-0.741606	-0.308575	-0.321667	-0.019329	-0.017325	0.003386
1055	5.271831	0.005000	9.260640	-0.348410	1.373400	-0.741738	-0.307534	-0.321746	-0.014106	-0.016690	0.020888
1056	5.276831	0.005000	9.245596	-0.259636	1.397596	-0.741406	-0.307976	-0.322240	-0.012960	-0.003571	0.001957
1057	5.281831	0.005000	9.326489	-0.313920	1.386031	-0.741075	-0.308418	-0.322733	-0.013744	-0.002679	0.007043
1058	5.286831	0.005000	9.232087	-0.196200	1.352027	-0.740744	-0.308859	-0.323226	-0.015828	0.006714	-0.000117
1059	5.291831	0.005000	9.221400	-0.204480	1.263960	-0.740412	-0.309301	-0.323720	-0.018753	-0.004360	0.002062
1060	5.296831	0.005000	9.248115	-0.202463	1.497383	-0.740081	-0.309743	-0.324213	-0.019766	-0.001869	0.000627
1061	5.301831	0.005000	9.150759	-0.247198	1.475442	-0.739749	-0.310185	-0.324706	-0.012572	-0.006951	-0.001877
1062	5.306831	0.005000	9.262155	-0.271650	1.338705	-0.739418	-0.310627	-0.325199	-0.007393	-0.009377	0.013255
1063	5.311831	0.005000	9.338691	-0.235011	1.335446	-0.739087	-0.311068	-0.325693	-0.010344	-0.011641	-0.006196
1064	5.316831	0.005000	9.375513	-0.271833	1.449033	-0.738755	-0.311510	-0.326186	-0.009866	-0.013445	0.000640
1065	5.321831	0.005000	9.299880	-0.136881	1.255680	-0.738424	-0.311952	-0.326679	-0.006789	0.000446	-0.002899
1066	5.326831	0.005000	9.228596	-0.181808	1.326964	-0.738093	-0.312394	-0.327173	-0.014448	-0.004238	0.006428
1067	5.331831	0.005000	9.349895	-0.225952	1.392377	-0.737761	-0.312836	-0.327666	-0.020008	-0.002510	0.003364
1068	5.336831	0.005000	9.216792	-0.168504	1.306464	-0.737430	-0.313277	-0.328159	-0.002853	-0.002656	-0.003366
1069	5.341831	0.005000	9.271965	-0.286005	1.320203	-0.737456	-0.313218	-0.328413	-0.025134	-0.006285	0.012148
1070	5.346831	0.005000	9.260640	-0.228542	1.451880	-0.737677	-0.312887	-0.328536	-0.013948	0.007738	0.005252
1071	5.351831	0.005000	9.357431	-0.193582	1.410022	-0.737898	-0.312555	-0.328660	-0.007980	-0.009615	0.009749
1072	5.356831	0.005000	9.299880	-0.253958	1.396326	-0.738119	-0.312224	-0.328783	-0.019091	-0.008070	0.002178
1073	5.361831	0.005000	9.316263	-0.196200	1.281971	-0.738340	-0.311892	-0.328907	-0.007994	-0.006187	0.000545
1074	5.366831	0.005000	9.285887	-0.260687	1.401385	-0.738562	-0.311561	-0.329030	-0.017658	-0.010318	0.008949
1075	5.371831	0.005000	9.221400	-0.247194	1.483345	-0.738783	-0.311229	-0.329153	-0.025508	-0.007842	-0.002278
1076	5.376831	0.005000	9.210178	-0.235440	1.491120	-0.739004	-0.310898	-0.329277	-0.012400	-0.016683	0.001252
1077	5.381831	0.005000	9.292485	-0.250230	1.412640	-0.739225	-0.310566	-0.329400	-0.015085	0.000109	-0.003495
