# FOX Logger (IMU file)
# (c) INRIA 2011-2014
# File created from file sensbiotk output
#
# File format:
# id	t	dt	ax	ay	az	mx	my	mz	gx	gy	gz
#
# Units:
#	Time: s
#	Acceleration: m.s^-2
#	Magneto: gauss
#	Gyrometer: rad/s
#
1	0.033417	0.033417	2.001240	9.663313	-1.323887	-0.791045	-0.667164	0.870000	0.005680	-0.015863	0.005408
2	0.038417	0.005000	2.025390	9.692280	-1.349250	-0.790606	-0.666615	0.869755	0.002809	-0.019168	-0.005607
3	0.043417	0.005000	2.049677	9.731520	-1.274892	-0.790167	-0.666067	0.869510	0.009517	-0.014021	0.006646
4	0.048417	0.005000	2.048196	9.731520	-1.216440	-0.789729	-0.665518	0.869265	0.004191	-0.013377	-0.000795
5	0.053417	0.005000	2.152889	9.708212	-1.260991	-0.789290	-0.664970	0.869020	0.005182	-0.015649	-0.004042
6	0.058417	0.005000	2.083088	9.806632	-1.291552	-0.788851	-0.664421	0.868775	0.006863	-0.012231	0.003165
7	0.063417	0.005000	2.076828	9.847312	-1.216440	-0.788412	-0.663873	0.868530	0.005931	-0.010522	-0.005459
8	0.068417	0.005000	2.038520	9.694240	-1.216440	-0.787973	-0.663324	0.868285	0.004038	-0.011938	0.004866
9	0.073417	0.005000	2.004638	9.734918	-1.144755	-0.787534	-0.662775	0.868040	0.005255	-0.008734	0.002626
10	0.078417	0.005000	1.978024	9.585242	-1.182541	-0.787096	-0.662227	0.867795	0.019519	-0.007852	0.010739
11	0.083417	0.005000	2.071973	9.716026	-1.302667	-0.786657	-0.661678	0.867550	0.003562	-0.008206	0.006801
12	0.088417	0.005000	2.187396	9.663084	-1.324116	-0.786218	-0.661130	0.867305	0.013145	-0.012537	-0.007294
13	0.093417	0.005000	2.040480	9.704386	-1.439774	-0.785779	-0.660581	0.867060	0.006794	-0.015420	-0.000328
14	0.098417	0.005000	2.044262	9.731520	-1.245121	-0.785340	-0.660033	0.866815	0.000570	-0.011837	-0.005071
15	0.103417	0.005000	2.069585	9.731520	-1.193658	-0.784815	-0.659571	0.866715	0.002624	-0.015452	0.004142
16	0.108417	0.005000	2.040480	9.770760	-1.274332	-0.784156	-0.659242	0.866838	0.012028	-0.013134	-0.002531
17	0.113417	0.005000	1.980426	9.752334	-1.310959	-0.783497	-0.658912	0.866960	0.017325	-0.022747	0.002664
18	0.118417	0.005000	1.938774	9.724309	-1.262891	-0.782839	-0.658583	0.867083	0.010402	-0.011046	0.001172
19	0.123417	0.005000	2.093790	9.767790	-1.255680	-0.782180	-0.658254	0.867205	0.012784	-0.013026	0.007140
20	0.128417	0.005000	2.017156	9.747436	-1.235509	-0.781522	-0.657925	0.867328	0.013263	-0.013462	0.003529
21	0.133417	0.005000	1.981444	9.750964	-1.216440	-0.780863	-0.657596	0.867451	0.011636	-0.017226	0.002942
22	0.138417	0.005000	2.001240	9.778075	-1.162569	-0.780204	-0.657266	0.867573	0.012528	-0.019548	0.003726
23	0.143417	0.005000	2.085030	9.770760	-1.227059	-0.779546	-0.656937	0.867696	-0.000259	-0.005824	-0.002938
24	0.148417	0.005000	2.043435	9.770760	-1.376355	-0.778887	-0.656608	0.867818	0.012247	-0.015212	-0.003133
25	0.153417	0.005000	2.117962	9.770760	-1.334160	-0.778229	-0.656279	0.867941	0.003426	-0.009756	0.005623
26	0.158417	0.005000	2.155414	9.770760	-1.334160	-0.777570	-0.655949	0.868063	0.012773	-0.006775	0.001542
27	0.163417	0.005000	2.118960	9.806662	-1.301595	-0.776912	-0.655620	0.868186	0.007678	-0.012703	0.002972
28	0.168417	0.005000	1.928514	9.810000	-1.283411	-0.776253	-0.655291	0.868308	0.007834	-0.007186	-0.007473
29	0.173417	0.005000	2.110897	9.778823	-1.170211	-0.777080	-0.655836	0.868138	0.006508	-0.010156	-0.009343
30	0.178417	0.005000	2.108855	9.799895	-1.235471	-0.778287	-0.656604	0.867893	0.018925	-0.008978	-0.007636
31	0.183417	0.005000	2.079720	9.758386	-1.228814	-0.779494	-0.657372	0.867648	0.004976	-0.003036	-0.012343
32	0.188417	0.005000	2.026018	9.834778	-1.191662	-0.780701	-0.658140	0.867403	0.013128	-0.010666	0.002006
33	0.193417	0.005000	2.063050	9.810000	-1.356730	-0.781908	-0.658908	0.867158	0.012955	-0.011064	-0.003388
34	0.198417	0.005000	2.098536	9.712704	-1.330945	-0.783114	-0.659676	0.866913	0.015039	-0.012145	-0.000233
35	0.203417	0.005000	2.176220	9.770760	-1.388220	-0.784321	-0.660444	0.866668	0.021590	-0.008478	-0.002823
36	0.208417	0.005000	2.086809	9.692280	-1.325173	-0.785528	-0.661212	0.866423	0.011896	-0.016001	-0.003054
37	0.213417	0.005000	2.144533	9.770760	-1.310347	-0.786735	-0.661980	0.866178	0.005772	-0.017345	0.007620
38	0.218417	0.005000	2.135025	9.692280	-1.401053	-0.787942	-0.662748	0.865933	0.012523	-0.013085	-0.000969
39	0.223417	0.005000	2.031171	9.750137	-1.246371	-0.789148	-0.663516	0.865688	0.009696	-0.023083	0.009925
40	0.228417	0.005000	2.015792	9.841964	-1.230992	-0.790355	-0.664284	0.865443	0.018000	-0.012776	0.000097
41	0.233417	0.005000	2.153241	9.741437	-1.250721	-0.791562	-0.665051	0.865198	0.009308	-0.011196	-0.001072
42	0.238417	0.005000	2.231597	9.768219	-1.184824	-0.792390	-0.665651	0.865047	0.010493	-0.018712	-0.001091
43	0.243417	0.005000	2.078526	9.731520	-1.371609	-0.791622	-0.665541	0.865292	0.010479	-0.023200	-0.000878
44	0.248417	0.005000	2.001240	9.731520	-1.293135	-0.790854	-0.665431	0.865537	0.000758	-0.015754	-0.001461
45	0.253417	0.005000	2.040480	9.692280	-1.216440	-0.790086	-0.665322	0.865782	0.006826	-0.006305	-0.003703
46	0.258417	0.005000	2.085888	9.632303	-1.309490	-0.789318	-0.665212	0.866027	0.004254	-0.008178	0.004150
47	0.263417	0.005000	2.150089	9.676058	-1.373400	-0.788550	-0.665102	0.866272	0.006858	-0.009087	-0.002157
48	0.268417	0.005000	2.118960	9.799482	-1.334160	-0.787782	-0.664992	0.866517	0.010551	-0.012128	0.002324
49	0.273417	0.005000	2.118960	9.810000	-1.332293	-0.787014	-0.664883	0.866762	0.012978	-0.014899	-0.001712
50	0.278417	0.005000	2.040480	9.722012	-1.300279	-0.786246	-0.664773	0.867007	0.008533	-0.011511	-0.002708
51	0.283417	0.005000	2.067724	9.709359	-1.137960	-0.785479	-0.664663	0.867252	0.008243	-0.020468	0.004319
52	0.288417	0.005000	2.098942	9.691484	-1.118738	-0.784711	-0.664554	0.867497	0.004293	-0.006233	-0.002624
53	0.293417	0.005000	2.008259	9.653040	-1.177200	-0.783943	-0.664444	0.867742	0.010079	-0.014114	0.001297
54	0.298417	0.005000	2.056142	9.692280	-1.153622	-0.783175	-0.664334	0.867987	0.009801	-0.008220	-0.000556
55	0.303417	0.005000	2.014493	9.744773	-1.268933	-0.782407	-0.664224	0.868232	0.015286	-0.011766	0.003550
56	0.308417	0.005000	1.984620	9.793380	-1.255680	-0.782477	-0.663728	0.868261	0.007830	-0.015819	0.003133
57	0.313417	0.005000	2.031585	9.840345	-1.228994	-0.783135	-0.662960	0.868139	0.010372	-0.013248	0.005600
58	0.318417	0.005000	1.994372	9.770760	-1.341028	-0.783793	-0.662192	0.868016	0.023509	-0.016246	0.000833
59	0.323417	0.005000	2.001240	9.775305	-1.290375	-0.784451	-0.661424	0.867894	0.006899	-0.010939	0.002216
60	0.328417	0.005000	2.079720	9.810000	-1.255680	-0.785109	-0.660656	0.867771	0.014272	-0.010551	0.007163
61	0.333417	0.005000	2.079536	9.770944	-1.333793	-0.785768	-0.659888	0.867649	0.009809	-0.007444	0.005305
62	0.338417	0.005000	2.114573	9.810000	-1.255680	-0.786426	-0.659120	0.867526	0.019053	-0.004193	-0.001698
63	0.343417	0.005000	2.184952	9.849240	-1.224765	-0.787084	-0.658352	0.867404	0.023194	-0.018606	-0.002026
64	0.348417	0.005000	2.053616	9.810000	-1.124992	-0.787742	-0.657584	0.867281	0.011579	-0.012895	0.003932
65	0.353417	0.005000	2.079720	9.670799	-1.268281	-0.788401	-0.656816	0.867159	0.009719	-0.018887	0.008565
66	0.358417	0.005000	2.090647	9.681353	-1.238294	-0.789059	-0.656048	0.867037	0.002484	-0.023337	0.000665
67	0.363417	0.005000	2.093055	9.627135	-1.281585	-0.789717	-0.655280	0.866914	0.006149	-0.016072	-0.000472
68	0.368417	0.005000	2.118960	9.685681	-1.334160	-0.790375	-0.654512	0.866792	0.008894	-0.009975	0.004021
69	0.373417	0.005000	2.075863	9.731520	-1.269515	-0.791033	-0.653745	0.866669	0.006034	-0.004329	-0.002227
70	0.378417	0.005000	1.942622	9.672902	-1.216440	-0.792231	-0.655132	0.869194	0.001939	-0.015334	0.009058
71	0.383417	0.005000	1.930247	9.653040	-1.177200	-0.793437	-0.656558	0.871767	0.004426	-0.013730	-0.002038
72	0.388417	0.005000	2.064936	9.667824	-1.255680	-0.794644	-0.657985	0.874340	0.002004	-0.015394	-0.006793
73	0.393417	0.005000	2.040480	9.718828	-1.321468	-0.795851	-0.659411	0.876912	0.011230	-0.007821	0.003980
74	0.398417	0.005000	2.019628	9.663466	-1.294920	-0.797058	-0.660837	0.879485	0.015761	-0.008087	0.001044
75	0.403417	0.005000	2.017279	9.653040	-1.286901	-0.798265	-0.662263	0.882058	0.011133	-0.014612	0.001594
76	0.408417	0.005000	2.106804	9.725442	-1.273914	-0.799471	-0.663689	0.884630	0.008482	-0.009854	-0.005564
77	0.413417	0.005000	2.072374	9.724174	-1.263026	-0.800678	-0.665116	0.887203	0.013427	-0.006255	-0.003653
78	0.418417	0.005000	2.083139	9.695699	-1.294920	-0.801885	-0.666542	0.889776	0.017167	-0.011101	-0.003518
79	0.423417	0.005000	2.196751	9.809311	-1.256369	-0.803092	-0.667968	0.892348	0.010086	-0.008746	-0.002800
80	0.428417	0.005000	2.077088	9.694912	-1.368135	-0.804299	-0.669394	0.894921	0.011003	-0.005106	0.000536
81	0.433417	0.005000	2.192403	9.687243	-1.334160	-0.805505	-0.670820	0.897494	0.003677	-0.008748	-0.004831
82	0.438417	0.005000	1.982944	9.699261	-1.294920	-0.806712	-0.672247	0.900066	0.012663	-0.010739	0.000058
83	0.443417	0.005000	1.982446	9.692280	-1.177200	-0.807007	-0.672844	0.900787	0.006408	-0.001447	0.007518
84	0.448417	0.005000	2.068380	9.742860	-1.283580	-0.805800	-0.672076	0.898459	0.007327	-0.000029	-0.001658
85	0.453417	0.005000	2.067977	9.655046	-1.294920	-0.804592	-0.671307	0.896130	0.002799	-0.015417	0.001136
86	0.458417	0.005000	1.985266	9.676306	-1.232414	-0.803385	-0.670539	0.893801	0.007041	-0.011494	-0.006302
87	0.463417	0.005000	2.100855	9.770760	-1.294920	-0.802178	-0.669771	0.891472	0.010579	-0.011467	-0.008200
88	0.468417	0.005000	2.062051	9.772061	-1.196170	-0.800970	-0.669003	0.889144	0.008324	-0.002712	-0.006529
89	0.473417	0.005000	2.018020	9.731520	-1.238900	-0.799763	-0.668234	0.886815	0.010188	-0.009179	-0.005486
90	0.478417	0.005000	1.976658	9.667698	-1.255680	-0.798556	-0.667466	0.884486	0.007668	-0.007222	0.011121
91	0.483417	0.005000	2.013672	9.770760	-1.268112	-0.797348	-0.666698	0.882158	0.009384	-0.006306	-0.006922
92	0.488417	0.005000	2.069358	9.810000	-1.216440	-0.796141	-0.665930	0.879829	0.011276	-0.005065	-0.001603
93	0.493417	0.005000	2.040480	9.739601	-1.326079	-0.794934	-0.665161	0.877500	0.005999	-0.004460	-0.003779
94	0.498417	0.005000	2.034815	9.849240	-1.255680	-0.793726	-0.664393	0.875172	0.009962	-0.013553	-0.005807
95	0.503417	0.005000	2.004916	9.802648	-1.212764	-0.792519	-0.663625	0.872843	0.015885	-0.011794	-0.007115
96	0.508417	0.005000	1.965948	9.769444	-1.179832	-0.791312	-0.662857	0.870514	0.018913	-0.009649	-0.003675
97	0.513417	0.005000	2.041569	9.731520	-1.293831	-0.790789	-0.662687	0.869905	0.020159	-0.010999	-0.001527
98	0.518417	0.005000	2.082766	9.731520	-1.294920	-0.790459	-0.662687	0.869782	0.016260	-0.006258	-0.004490
99	0.523417	0.005000	2.051251	9.731520	-1.334160	-0.790130	-0.662687	0.869659	0.006210	-0.015706	0.004194
100	0.528417	0.005000	1.937550	9.731520	-1.255680	-0.789801	-0.662687	0.869537	0.004733	-0.008698	-0.000574
101	0.533417	0.005000	1.981393	9.790607	-1.206743	-0.789472	-0.662687	0.869414	0.018670	-0.008119	-0.006343
102	0.538417	0.005000	2.118960	9.692280	-1.122227	-0.789143	-0.662687	0.869292	0.011085	-0.012515	-0.000134
103	0.543417	0.005000	2.079720	9.731520	-1.238272	-0.788814	-0.662687	0.869169	0.015631	-0.005465	0.000943
104	0.548417	0.005000	1.971079	9.786866	-1.232546	-0.788484	-0.662687	0.869047	0.002913	-0.019542	0.002138
105	0.553417	0.005000	2.040480	9.710790	-1.274190	-0.788155	-0.662687	0.868924	-0.004932	-0.006985	-0.003623
106	0.558417	0.005000	2.038362	9.731520	-1.214322	-0.787826	-0.662687	0.868802	0.008552	-0.017728	-0.005577
107	0.563417	0.005000	2.046969	9.630176	-1.262169	-0.787497	-0.662687	0.868679	0.006720	-0.011429	0.000145
108	0.568417	0.005000	2.079720	9.745483	-1.269643	-0.787168	-0.662687	0.868557	0.004346	-0.016826	0.005847
109	0.573417	0.005000	1.992406	9.731520	-1.189218	-0.786839	-0.662687	0.868434	0.004810	-0.018212	0.007369
110	0.578417	0.005000	1.971611	9.721909	-1.294920	-0.786452	-0.662649	0.868333	0.012114	-0.017987	0.005295
111	0.583417	0.005000	2.118960	9.770760	-1.162043	-0.785794	-0.662429	0.868333	0.010445	-0.016557	0.002410
112	0.588417	0.005000	2.113709	9.776011	-1.143211	-0.785136	-0.662210	0.868333	0.001948	-0.008781	-0.000611
113	0.593417	0.005000	2.116113	9.804307	-1.143653	-0.784478	-0.661990	0.868333	0.012587	-0.010114	0.000795
114	0.598417	0.005000	1.961107	9.730627	-1.294027	-0.783819	-0.661771	0.868333	0.024889	-0.010227	0.008089
115	0.603417	0.005000	2.111384	9.692280	-1.331130	-0.783161	-0.661551	0.868333	0.010721	-0.010954	-0.000614
116	0.608417	0.005000	2.047398	9.767301	-1.255680	-0.782503	-0.661332	0.868333	0.006721	-0.016509	-0.002555
117	0.613417	0.005000	2.040480	9.737384	-1.234031	-0.781845	-0.661112	0.868333	0.014397	-0.014674	-0.007853
118	0.618417	0.005000	2.087904	9.747888	-1.396272	-0.781186	-0.660893	0.868333	0.012197	-0.016988	-0.001445
119	0.623417	0.005000	2.030268	9.799788	-1.344372	-0.780528	-0.660673	0.868333	0.014752	-0.007532	-0.001206
120	0.628417	0.005000	2.145720	9.719040	-1.360920	-0.779870	-0.660454	0.868333	0.013559	-0.014753	-0.002165
121	0.633417	0.005000	2.182870	9.785330	-1.294920	-0.779212	-0.660234	0.868333	0.005992	-0.014266	0.006071
122	0.638417	0.005000	2.096699	9.793021	-1.260962	-0.778554	-0.660015	0.868333	0.003695	-0.006685	-0.007481
123	0.643417	0.005000	2.040480	9.710539	-1.236514	-0.777895	-0.659795	0.868333	0.009332	-0.013317	0.005232
124	0.648417	0.005000	2.097626	9.756282	-1.198534	-0.777674	-0.659701	0.868473	0.013778	-0.009095	0.000840
125	0.653417	0.005000	2.071627	9.731520	-1.247587	-0.777784	-0.659701	0.868718	0.017232	-0.013611	-0.003734
126	0.658417	0.005000	2.079720	9.705830	-1.202890	-0.777894	-0.659701	0.868963	0.000926	-0.013933	0.003691
127	0.663417	0.005000	2.135267	9.720054	-1.255680	-0.778003	-0.659701	0.869208	0.011759	-0.011911	-0.007255
128	0.668417	0.005000	2.010438	9.761562	-1.294920	-0.778113	-0.659701	0.869453	0.018937	-0.015448	0.005307
129	0.673417	0.005000	2.014805	9.738302	-1.255680	-0.778223	-0.659701	0.869698	0.010603	-0.004668	-0.006939
130	0.678417	0.005000	2.079720	9.697118	-1.290082	-0.778332	-0.659701	0.869943	0.015499	-0.014669	0.005646
131	0.683417	0.005000	2.111660	9.805133	-1.221307	-0.778442	-0.659701	0.870188	0.006995	-0.001657	-0.009685
132	0.688417	0.005000	2.080688	9.692280	-1.216924	-0.778552	-0.659701	0.870433	0.015298	0.001644	-0.004698
133	0.693417	0.005000	2.120874	9.729606	-1.218354	-0.778661	-0.659701	0.870678	0.016044	-0.007433	-0.000871
134	0.698417	0.005000	2.084001	9.727239	-1.251399	-0.778771	-0.659701	0.870923	0.018305	-0.004651	-0.011676
135	0.703417	0.005000	2.158200	9.698555	-1.268229	-0.778881	-0.659701	0.871168	0.028598	-0.012233	0.000193
136	0.708417	0.005000	2.088401	9.731520	-1.286239	-0.778990	-0.659701	0.871413	0.025108	-0.002547	-0.005838
137	0.713417	0.005000	2.158200	9.748826	-1.177200	-0.779100	-0.659701	0.871658	0.027157	-0.015783	-0.009933
138	0.718417	0.005000	2.118960	9.731520	-1.255680	-0.779527	-0.659595	0.871431	0.031534	-0.008882	0.002756
139	0.723417	0.005000	2.047584	9.668488	-1.271128	-0.779966	-0.659486	0.871185	0.015979	-0.017497	-0.008456
140	0.728417	0.005000	2.036547	9.749173	-1.277267	-0.780405	-0.659376	0.870940	0.022114	-0.017406	0.000241
141	0.733417	0.005000	2.021044	9.770760	-1.334160	-0.780844	-0.659266	0.870695	0.015793	-0.005017	-0.000833
142	0.738417	0.005000	2.114301	9.770760	-1.360769	-0.781283	-0.659157	0.870450	0.014334	-0.011715	-0.000176
143	0.743417	0.005000	2.088799	9.794919	-1.279839	-0.781722	-0.659047	0.870205	0.024049	-0.008494	-0.001783
144	0.748417	0.005000	2.040480	9.823282	-1.294920	-0.782161	-0.658937	0.869960	0.026430	-0.013683	-0.001160
145	0.753417	0.005000	2.001240	9.781488	-1.294920	-0.782600	-0.658828	0.869715	0.016457	-0.010104	0.001643
146	0.758417	0.005000	2.102333	9.770760	-1.342473	-0.783039	-0.658718	0.869470	0.008221	-0.011664	0.001552
147	0.763417	0.005000	2.027716	9.816382	-1.282156	-0.783478	-0.658608	0.869225	0.016285	-0.015094	0.010086
148	0.768417	0.005000	2.044445	9.727555	-1.263611	-0.783916	-0.658499	0.868980	-0.000573	-0.007839	-0.002119
149	0.773417	0.005000	2.071733	9.692280	-1.251686	-0.784355	-0.658389	0.868735	0.009590	-0.012040	-0.007231
150	0.778417	0.005000	1.961617	9.692280	-1.293772	-0.784794	-0.658279	0.868490	0.001796	-0.010567	-0.000746
151	0.783417	0.005000	2.084374	9.812327	-1.334160	-0.785233	-0.658288	0.868289	0.000999	-0.006239	-0.011981
152	0.788417	0.005000	2.104727	9.701769	-1.363911	-0.785672	-0.658507	0.868166	0.000860	-0.011540	0.005131
153	0.793417	0.005000	2.086408	9.639664	-1.288232	-0.786111	-0.658727	0.868044	0.009211	-0.001149	-0.009420
154	0.798417	0.005000	1.959137	9.592748	-1.343254	-0.786550	-0.658946	0.867922	0.008985	-0.010362	-0.000961
155	0.803417	0.005000	2.045593	9.669529	-1.278431	-0.786988	-0.659166	0.867799	-0.002454	-0.007322	0.000474
156	0.808417	0.005000	2.002357	9.731520	-1.296037	-0.787427	-0.659385	0.867677	0.007238	-0.011359	0.006013
157	0.813417	0.005000	1.844280	9.770760	-1.318488	-0.787866	-0.659604	0.867554	0.008550	-0.008562	0.008047
158	0.818417	0.005000	2.019046	9.810000	-1.387577	-0.788305	-0.659824	0.867432	-0.004152	-0.009423	-0.001211
159	0.823417	0.005000	2.020263	9.789783	-1.275897	-0.788744	-0.660043	0.867309	0.006883	-0.008131	0.000678
160	0.828417	0.005000	1.995764	9.787642	-1.334160	-0.789182	-0.660263	0.867187	0.015906	-0.008069	-0.005954
161	0.833417	0.005000	2.079720	9.731520	-1.280243	-0.789621	-0.660482	0.867064	0.014191	-0.016140	0.001630
162	0.838417	0.005000	2.041962	9.718934	-1.203854	-0.790060	-0.660702	0.866942	0.005157	-0.009858	0.004519
163	0.843417	0.005000	2.032197	9.770760	-1.226759	-0.790499	-0.660921	0.866819	0.005484	-0.004437	0.004202
164	0.848417	0.005000	2.032205	9.731520	-1.332027	-0.790938	-0.661140	0.866697	0.015762	-0.012944	0.002865
165	0.853417	0.005000	2.019146	9.764791	-1.322223	-0.790465	-0.661277	0.867315	0.012782	-0.010784	0.001346
166	0.858417	0.005000	2.086824	9.735072	-1.330608	-0.789697	-0.661387	0.868172	0.008256	-0.016799	-0.000998
167	0.863417	0.005000	2.122137	9.729932	-1.216440	-0.788929	-0.661496	0.869030	0.006128	-0.004546	-0.001371
168	0.868417	0.005000	2.197440	9.730724	-1.254884	-0.788161	-0.661606	0.869887	0.005344	-0.011768	0.002431
169	0.873417	0.005000	2.200181	9.731520	-1.331419	-0.787393	-0.661716	0.870745	0.003158	-0.011951	0.011067
170	0.878417	0.005000	2.153042	9.726362	-1.255680	-0.786625	-0.661826	0.871602	0.004010	-0.006867	0.002058
171	0.883417	0.005000	2.111487	9.699753	-1.184673	-0.785857	-0.661935	0.872460	0.012656	-0.012843	-0.001739
172	0.888417	0.005000	1.941775	9.761252	-1.255680	-0.785089	-0.662045	0.873317	0.012909	-0.009203	0.005906
173	0.893417	0.005000	2.016636	9.770760	-1.134486	-0.784321	-0.662155	0.874175	0.014746	-0.017564	-0.001335
174	0.898417	0.005000	1.973509	9.796134	-1.241814	-0.783553	-0.662265	0.875032	0.007977	-0.006897	-0.001906
175	0.903417	0.005000	2.079720	9.731520	-1.327469	-0.782785	-0.662374	0.875890	0.017339	-0.010107	-0.006962
176	0.908417	0.005000	2.097932	9.692280	-1.261312	-0.782017	-0.662484	0.876747	0.008601	-0.008725	0.004994
177	0.913417	0.005000	2.098337	9.770760	-1.334160	-0.781249	-0.662594	0.877605	0.006464	-0.004106	-0.004900
178	0.918417	0.005000	2.147422	9.804106	-1.311593	-0.780580	-0.662654	0.878241	0.016163	-0.018275	0.000722
179	0.923417	0.005000	1.976264	9.770760	-1.291369	-0.780471	-0.662434	0.877628	0.019896	-0.007577	0.002216
180	0.928417	0.005000	2.040480	9.785645	-1.216440	-0.780361	-0.662215	0.877016	0.010616	-0.006006	0.001013
181	0.933417	0.005000	1.912854	9.712091	-1.334160	-0.780251	-0.661995	0.876403	0.002106	-0.012190	0.004643
182	0.938417	0.005000	1.945257	9.802501	-1.270678	-0.780142	-0.661776	0.875791	-0.001214	-0.000102	0.002832
183	0.943417	0.005000	2.006795	9.725965	-1.244569	-0.780032	-0.661557	0.875178	0.008704	-0.019777	0.004755
184	0.948417	0.005000	1.958861	9.773899	-1.252541	-0.779922	-0.661337	0.874566	0.003094	-0.009613	0.000852
185	0.953417	0.005000	1.964360	9.810000	-1.180740	-0.779812	-0.661118	0.873953	0.015608	-0.016726	-0.001390
186	0.958417	0.005000	2.078510	9.733939	-1.370981	-0.779703	-0.660898	0.873341	0.009977	-0.016262	0.000916
187	0.963417	0.005000	2.079720	9.770760	-1.220025	-0.779593	-0.660679	0.872728	0.005903	-0.014804	-0.001726
188	0.968417	0.005000	2.034909	9.653040	-1.216440	-0.779483	-0.660459	0.872116	0.015539	-0.017450	0.004305
189	0.973417	0.005000	2.118960	9.762879	-1.271276	-0.779373	-0.660240	0.871503	0.018995	-0.003446	0.003990
190	0.978417	0.005000	2.158200	9.760843	-1.137960	-0.779264	-0.660020	0.870891	0.007606	-0.006609	0.007217
191	0.983417	0.005000	2.146023	9.770760	-1.044595	-0.779154	-0.659801	0.870278	0.016408	-0.003372	0.000143
192	0.988417	0.005000	2.069018	9.692280	-1.120124	-0.779344	-0.659581	0.869732	0.025142	-0.005539	0.002034
193	0.993417	0.005000	2.017922	9.630482	-1.340037	-0.779783	-0.659362	0.869242	0.027999	-0.009046	-0.006142
194	0.998417	0.005000	2.059344	9.693793	-1.294920	-0.780221	-0.659142	0.868752	0.017858	-0.008475	-0.001932
195	1.003417	0.005000	1.980204	9.749724	-1.234644	-0.780660	-0.658923	0.868262	0.009247	-0.014011	0.003563
196	1.008417	0.005000	2.017305	9.731520	-1.239615	-0.781099	-0.658704	0.867772	0.020258	-0.007551	0.002790
197	1.013417	0.005000	2.040480	9.784610	-1.255680	-0.781538	-0.658484	0.867282	0.015032	-0.011727	0.006823
198	1.018417	0.005000	1.973437	9.742957	-1.216440	-0.781977	-0.658265	0.866792	0.016007	-0.005897	0.003636
199	1.023417	0.005000	2.079720	9.752002	-1.294920	-0.782416	-0.658045	0.866302	0.012345	-0.001333	-0.000283
200	1.028417	0.005000	2.079720	9.717348	-1.359228	-0.782855	-0.657826	0.865812	0.013014	-0.012761	0.012285
201	1.033417	0.005000	2.075050	9.657710	-1.260350	-0.783294	-0.657607	0.865322	-0.000200	-0.002879	-0.003215
202	1.038417	0.005000	2.076995	9.655765	-1.297645	-0.783733	-0.657387	0.864832	0.009671	-0.009453	0.000159
203	1.043417	0.005000	2.001562	9.692602	-1.256645	-0.784171	-0.657168	0.864342	0.017511	-0.011979	-0.002752
204	1.048417	0.005000	2.040480	9.806756	-1.222929	-0.784610	-0.656948	0.863852	0.015256	-0.008148	-0.005685
205	1.053417	0.005000	2.040480	9.731520	-1.263733	-0.785049	-0.656729	0.863362	0.014012	-0.008041	0.002861
206	1.058417	0.005000	2.073749	9.725549	-1.346102	-0.784972	-0.656923	0.863679	0.022941	-0.007879	-0.003205
207	1.063417	0.005000	2.110573	9.762373	-1.395867	-0.784862	-0.657142	0.864046	0.024129	-0.009030	0.008473
208	1.068417	0.005000	2.022569	9.799335	-1.284255	-0.784752	-0.657361	0.864414	0.014245	-0.002701	-0.002802
209	1.073417	0.005000	2.066982	9.717756	-1.229178	-0.784642	-0.657581	0.864781	0.017931	-0.010732	0.001776
210	1.078417	0.005000	2.025504	9.731520	-1.349136	-0.784533	-0.657800	0.865149	0.013941	-0.003261	0.001635
211	1.083417	0.005000	2.001240	9.758716	-1.194295	-0.784423	-0.658020	0.865516	0.020555	-0.011415	-0.000800
212	1.088417	0.005000	2.040710	9.751025	-1.295379	-0.784313	-0.658239	0.865884	0.024516	-0.018488	-0.005856
213	1.093417	0.005000	2.115301	9.849240	-1.316370	-0.784204	-0.658458	0.866252	0.020159	-0.000854	-0.006749
214	1.098417	0.005000	2.079720	9.833859	-1.224919	-0.784094	-0.658678	0.866619	0.031278	-0.011237	0.006139
215	1.103417	0.005000	2.079115	9.796718	-1.229722	-0.783984	-0.658897	0.866987	0.017546	-0.016802	0.000464
216	1.108417	0.005000	2.018433	9.776930	-1.255680	-0.783874	-0.659117	0.867354	0.007873	-0.016927	-0.003341
217	1.113417	0.005000	2.049466	9.713549	-1.264666	-0.783765	-0.659336	0.867722	0.005734	-0.014473	0.005449
218	1.118417	0.005000	1.994565	9.705630	-1.190550	-0.783655	-0.659555	0.868089	0.005300	-0.011130	-0.006536
219	1.123417	0.005000	1.970540	9.757950	-1.321350	-0.783951	-0.659886	0.868828	0.014647	-0.009981	0.002470
220	1.128417	0.005000	1.962000	9.694606	-1.255680	-0.785048	-0.660434	0.870298	0.007232	-0.005143	0.002657
221	1.133417	0.005000	2.040298	9.692371	-1.333978	-0.786145	-0.660983	0.871768	0.024280	-0.006224	-0.001964
222	1.138417	0.005000	2.075649	9.729485	-1.150173	-0.787242	-0.661531	0.873238	0.016219	-0.009060	0.005904
223	1.143417	0.005000	2.010120	9.657480	-1.212000	-0.788339	-0.662080	0.874708	0.017443	-0.011860	0.000199
224	1.148417	0.005000	1.929144	9.725136	-1.170816	-0.789436	-0.662628	0.876178	0.014765	-0.019447	0.000196
225	1.153417	0.005000	1.866124	9.731520	-1.347306	-0.790533	-0.663177	0.877648	0.001328	-0.009914	0.003617
226	1.158417	0.005000	1.979753	9.720776	-1.305664	-0.791630	-0.663725	0.879118	0.000659	-0.015734	0.002342
227	1.163417	0.005000	2.053474	9.757766	-1.216183	-0.792727	-0.664274	0.880588	0.009001	-0.009927	0.006872
228	1.168417	0.005000	2.094816	9.794904	-1.294920	-0.793825	-0.664823	0.882058	0.004014	-0.008153	0.000560
229	1.173417	0.005000	2.057988	9.831732	-1.233948	-0.794922	-0.665371	0.883528	0.009215	-0.011821	0.000214
230	1.178417	0.005000	2.040480	9.770760	-1.177200	-0.796019	-0.665920	0.884999	0.005896	-0.005756	-0.008903
231	1.183417	0.005000	1.979386	9.775229	-1.194586	-0.797116	-0.666468	0.886469	0.002215	-0.007933	-0.000291
232	1.188417	0.005000	2.016682	9.770760	-1.122518	-0.798213	-0.667017	0.887939	0.000169	-0.005972	0.002119
233	1.193417	0.005000	1.988211	9.744549	-1.242498	-0.797705	-0.667004	0.887437	0.014565	-0.011992	0.003505
234	1.198417	0.005000	1.990155	9.742605	-1.283835	-0.796608	-0.666784	0.886212	0.007350	-0.003719	0.002111
235	1.203417	0.005000	2.018595	9.692280	-1.356045	-0.795511	-0.666565	0.884988	0.010344	-0.007412	-0.003820
236	1.208417	0.005000	1.942728	9.724864	-1.281608	-0.794415	-0.666346	0.883764	0.016442	-0.006958	0.009722
237	1.213417	0.005000	2.009875	9.770760	-1.212123	-0.793318	-0.666126	0.882539	0.017659	-0.009955	-0.008407
238	1.218417	0.005000	2.008892	9.731520	-1.289181	-0.792222	-0.665907	0.881315	0.015063	-0.014160	0.008736
239	1.223417	0.005000	2.158200	9.731520	-1.255619	-0.791125	-0.665688	0.880090	0.011465	-0.005887	0.002511
240	1.228417	0.005000	2.153303	9.694729	-1.334160	-0.790029	-0.665468	0.878866	0.002376	-0.011677	0.003659
241	1.233417	0.005000	2.153808	9.770760	-1.334160	-0.788932	-0.665249	0.877641	-0.000186	-0.012966	0.010205
242	1.238417	0.005000	2.040480	9.803202	-1.269275	-0.787836	-0.665030	0.876417	0.005566	-0.005729	0.002345
243	1.243417	0.005000	2.001240	9.792516	-1.225182	-0.786739	-0.664810	0.875192	0.018800	-0.014966	0.001932
244	1.248417	0.005000	2.068563	9.770760	-1.126803	-0.785642	-0.664591	0.873968	0.013091	-0.007188	-0.001642
245	1.253417	0.005000	2.027077	9.862643	-1.216440	-0.784546	-0.664372	0.872743	0.008673	-0.008684	-0.001358
246	1.258417	0.005000	2.001240	9.825503	-1.083217	-0.783542	-0.664113	0.871623	0.011813	-0.014022	0.003082
247	1.263417	0.005000	2.058179	9.788459	-1.181042	-0.783213	-0.663564	0.871255	0.014431	-0.013138	0.004787
248	1.268417	0.005000	2.001715	9.751377	-1.235823	-0.782884	-0.663016	0.870887	0.008684	-0.012845	0.000311
249	1.273417	0.005000	1.944770	9.697060	-1.233670	-0.782555	-0.662467	0.870520	0.003028	-0.006477	-0.004078
250	1.278417	0.005000	2.064691	9.692280	-1.319131	-0.782226	-0.661918	0.870152	0.013807	-0.015116	-0.004298
251	1.283417	0.005000	2.081113	9.692280	-1.372007	-0.781896	-0.661370	0.869785	0.018617	-0.015546	-0.002169
252	1.288417	0.005000	1.972671	9.710178	-1.323489	-0.781567	-0.660821	0.869417	0.016725	-0.012102	-0.006909
253	1.293417	0.005000	2.166464	9.638593	-1.334160	-0.781238	-0.660273	0.869050	0.022907	-0.007449	0.003344
254	1.298417	0.005000	2.046728	9.620048	-1.348410	-0.780909	-0.659724	0.868682	0.018119	-0.010462	-0.007653
255	1.303417	0.005000	2.115056	9.739328	-1.212536	-0.780580	-0.659176	0.868315	0.010763	-0.014557	0.009158
256	1.308417	0.005000	2.079720	9.769260	-1.219440	-0.780251	-0.658627	0.867947	0.007730	-0.007080	-0.006220
257	1.313417	0.005000	2.157312	9.770316	-1.333716	-0.779922	-0.658079	0.867580	0.017314	-0.006929	-0.002615
258	1.318417	0.005000	2.231022	9.734349	-1.216440	-0.779592	-0.657530	0.867212	0.016486	-0.002281	0.004883
259	1.323417	0.005000	2.231888	9.662624	-1.152336	-0.779263	-0.656981	0.866845	0.013098	0.003606	-0.007200
260	1.328417	0.005000	2.047688	9.724312	-1.202023	-0.779104	-0.656943	0.866540	0.017087	-0.011743	-0.000060
261	1.333417	0.005000	2.013024	9.701432	-1.216440	-0.779104	-0.657381	0.866295	0.010074	-0.004760	-0.004103
262	1.338417	0.005000	2.040480	9.708402	-1.283361	-0.779104	-0.657820	0.866050	0.006502	-0.016077	-0.001985
263	1.343417	0.005000	1.909256	9.784264	-1.267913	-0.779104	-0.658259	0.865805	0.012317	-0.005262	0.001700
264	1.348417	0.005000	1.993833	9.817407	-1.294920	-0.779104	-0.658698	0.865560	0.008669	-0.011522	-0.003314
265	1.353417	0.005000	2.040480	9.806975	-1.234547	-0.779104	-0.659137	0.865315	0.006513	-0.010946	-0.003147
266	1.358417	0.005000	1.980969	9.731520	-1.197471	-0.779104	-0.659576	0.865070	-0.000162	-0.007798	-0.004751
267	1.363417	0.005000	2.023659	9.804403	-1.132363	-0.779104	-0.660015	0.864825	0.009177	-0.010858	0.010904
268	1.368417	0.005000	2.065104	9.766153	-1.216440	-0.779104	-0.660454	0.864580	0.018009	-0.012726	0.004559
269	1.373417	0.005000	2.028278	9.782962	-1.267882	-0.779104	-0.660893	0.864335	0.030607	-0.010822	0.003306
270	1.378417	0.005000	2.011498	9.849240	-1.177200	-0.779104	-0.661331	0.864090	0.013630	-0.009400	0.006095
271	1.383417	0.005000	1.985538	9.778611	-1.169349	-0.779104	-0.661770	0.863845	0.011179	-0.014080	-0.002321
272	1.388417	0.005000	2.012918	9.719842	-1.228118	-0.779104	-0.662209	0.863600	0.023309	-0.011377	0.003189
273	1.393417	0.005000	2.154695	9.692280	-1.337665	-0.779104	-0.662648	0.863355	0.023930	-0.003885	0.006082
274	1.398417	0.005000	2.038937	9.767674	-1.291834	-0.779604	-0.662587	0.863668	0.029291	-0.014129	0.004120
275	1.403417	0.005000	2.116389	9.692280	-1.254823	-0.780152	-0.662477	0.864035	0.030869	-0.002956	-0.007755
276	1.408417	0.005000	2.043281	9.734321	-1.222041	-0.780700	-0.662368	0.864403	0.028811	-0.004245	-0.010585
277	1.413417	0.005000	2.108549	9.736725	-1.289715	-0.781249	-0.662258	0.864770	0.039847	-0.016872	-0.003399
278	1.418417	0.005000	2.135600	9.699813	-1.255680	-0.781797	-0.662148	0.865137	0.039049	-0.011747	-0.006555
279	1.423417	0.005000	2.187875	9.692280	-1.315030	-0.782345	-0.662039	0.865505	0.046089	-0.019242	-0.000684
280	1.428417	0.005000	2.170029	9.770760	-1.283091	-0.782894	-0.661929	0.865872	0.039995	-0.004861	-0.010833
281	1.433417	0.005000	2.118960	9.770760	-1.348077	-0.783442	-0.661819	0.866239	0.043752	-0.011977	-0.010245
282	1.438417	0.005000	2.033899	9.747850	-1.288339	-0.783990	-0.661709	0.866607	0.037095	-0.001785	-0.006018
283	1.443417	0.005000	2.042689	9.713004	-1.253471	-0.784539	-0.661600	0.866974	0.031536	0.000181	-0.009739
284	1.448417	0.005000	2.024052	9.750076	-1.257808	-0.785087	-0.661490	0.867341	0.039236	0.000880	-0.003341
285	1.453417	0.005000	1.978413	9.793587	-1.249266	-0.785635	-0.661380	0.867709	0.025323	-0.003472	0.003857
286	1.458417	0.005000	2.043864	9.824208	-1.298304	-0.786184	-0.661271	0.868076	0.026827	-0.007175	0.002921
287	1.463417	0.005000	2.013040	9.704080	-1.322360	-0.786402	-0.661095	0.868296	0.026208	-0.000209	-0.011540
288	1.468417	0.005000	2.040208	9.712036	-1.275164	-0.785854	-0.660766	0.868174	0.026133	-0.009066	-0.000843
289	1.473417	0.005000	2.033039	9.699721	-1.317242	-0.785305	-0.660437	0.868051	0.025069	-0.008936	-0.000882
290	1.478417	0.005000	2.012101	9.653040	-1.412640	-0.784756	-0.660108	0.867929	0.016126	-0.005393	0.000748
291	1.483417	0.005000	2.040480	9.656131	-1.406457	-0.784208	-0.659778	0.867806	0.013695	-0.010463	-0.000874
292	1.488417	0.005000	2.039806	9.731520	-1.257027	-0.783659	-0.659449	0.867684	0.011740	-0.005796	-0.002063
293	1.493417	0.005000	2.039210	9.693550	-1.334160	-0.783111	-0.659120	0.867561	0.012634	-0.007119	-0.004331
294	1.498417	0.005000	2.044111	9.767129	-1.326899	-0.782562	-0.658791	0.867439	0.010381	-0.001475	0.000572
295	1.503417	0.005000	2.040480	9.793143	-1.306158	-0.782014	-0.658462	0.867317	0.005448	-0.005212	-0.007380
296	1.508417	0.005000	2.110925	9.770760	-1.231576	-0.781465	-0.658133	0.867194	0.000095	-0.012733	0.001318
297	1.513417	0.005000	2.050797	9.828606	-1.265997	-0.780917	-0.657804	0.867072	-0.002108	-0.006330	-0.004039
298	1.518417	0.005000	2.106574	9.861626	-1.294920	-0.780368	-0.657474	0.866949	0.003410	-0.017337	-0.004654
299	1.523417	0.005000	2.050122	9.731520	-1.358601	-0.779819	-0.657145	0.866827	0.001568	-0.009283	0.004249
300	1.528417	0.005000	2.040480	9.709014	-1.311654	-0.779271	-0.656816	0.866704	0.000403	-0.016036	0.001119
301	1.533417	0.005000	1.923709	9.732469	-1.313117	-0.779180	-0.657174	0.866923	-0.000234	-0.011100	-0.000590
302	1.538417	0.005000	2.058421	9.752819	-1.373400	-0.779290	-0.657832	0.867290	0.006457	-0.001455	0.002968
303	1.543417	0.005000	1.985501	9.692280	-1.294920	-0.779400	-0.658491	0.867658	0.002616	-0.011293	0.010642
304	1.548417	0.005000	2.093050	9.770760	-1.229770	-0.779510	-0.659149	0.868025	-0.003158	-0.006690	0.000074
305	1.553417	0.005000	2.135427	9.798614	-1.350627	-0.779619	-0.659807	0.868393	0.004760	-0.007330	0.000991
306	1.558417	0.005000	2.179496	9.731520	-1.294920	-0.779729	-0.660466	0.868760	0.001985	-0.013068	0.004816
307	1.563417	0.005000	2.047423	9.738463	-1.269567	-0.779839	-0.661124	0.869128	0.010248	-0.009842	-0.002905
308	1.568417	0.005000	2.105094	9.814622	-1.294920	-0.779949	-0.661782	0.869495	-0.000341	-0.013758	0.001682
309	1.573417	0.005000	1.964647	9.849240	-1.221735	-0.780058	-0.662441	0.869863	-0.005007	-0.007002	0.005320
310	1.578417	0.005000	1.961740	9.770760	-1.294399	-0.780168	-0.663099	0.870230	-0.006841	-0.011140	0.005555
311	1.583417	0.005000	1.997004	9.770760	-1.216440	-0.780278	-0.663757	0.870598	-0.002394	-0.007370	0.003069
312	1.588417	0.005000	2.040480	9.661216	-1.282657	-0.780388	-0.664415	0.870965	-0.001354	-0.010201	0.000397
313	1.593417	0.005000	1.975009	9.731520	-1.327656	-0.780497	-0.665074	0.871333	0.001965	-0.018060	0.002962
314	1.598417	0.005000	2.040480	9.731520	-1.286116	-0.780597	-0.665642	0.871645	0.013116	-0.014064	-0.004387
315	1.603417	0.005000	2.079720	9.674741	-1.284069	-0.780597	-0.665313	0.871400	0.007636	-0.017505	-0.001598
316	1.608417	0.005000	2.027440	9.705320	-1.294859	-0.780597	-0.664984	0.871155	0.018706	-0.011569	0.001163
317	1.613417	0.005000	1.970834	9.692280	-1.246846	-0.780597	-0.664655	0.870909	0.030179	-0.008681	-0.005681
318	1.618417	0.005000	2.083730	9.792385	-1.212430	-0.780597	-0.664325	0.870664	0.013124	-0.015907	0.011166
319	1.623417	0.005000	2.060284	9.770760	-1.236121	-0.780597	-0.663996	0.870419	0.021052	-0.023721	0.003274
320	1.628417	0.005000	2.101690	9.770760	-1.233710	-0.780597	-0.663667	0.870174	0.024067	-0.015451	0.007741
321	1.633417	0.005000	2.094862	9.849240	-1.334160	-0.780597	-0.663338	0.869929	0.010508	-0.011668	0.001913
322	1.638417	0.005000	2.066803	9.797083	-1.399723	-0.780597	-0.663009	0.869684	0.009865	-0.013164	0.003666
323	1.643417	0.005000	2.051326	9.788308	-1.373400	-0.780597	-0.662680	0.869439	0.013077	-0.012217	0.008242
324	1.648417	0.005000	2.079720	9.661598	-1.269245	-0.780597	-0.662350	0.869194	0.010512	-0.018735	0.006131
325	1.653417	0.005000	2.033945	9.770760	-1.294920	-0.780597	-0.662021	0.868949	0.014474	-0.017041	0.007924
326	1.658417	0.005000	1.926969	9.774969	-1.290711	-0.780597	-0.661692	0.868704	0.018337	-0.010420	0.006723
327	1.663417	0.005000	1.887103	9.736894	-1.410849	-0.780597	-0.661363	0.868459	0.011800	-0.015272	0.007595
328	1.668417	0.005000	1.962000	9.771066	-1.295226	-0.780544	-0.661514	0.868452	0.011292	-0.004502	0.003727
329	1.673417	0.005000	2.035428	9.810000	-1.250628	-0.780434	-0.662172	0.868697	0.010039	-0.014092	-0.002580
330	1.678417	0.005000	1.996741	9.731520	-1.377899	-0.780324	-0.662830	0.868942	0.005160	-0.014206	0.007872
331	1.683417	0.005000	2.066075	9.738342	-1.334160	-0.780215	-0.663488	0.869187	0.009880	-0.007766	0.003339
332	1.688417	0.005000	2.070871	9.731520	-1.264529	-0.780105	-0.664146	0.869432	0.011257	-0.020665	0.002895
333	1.693417	0.005000	2.012374	9.748493	-1.260975	-0.779995	-0.664804	0.869677	0.001962	-0.006948	0.002594
334	1.698417	0.005000	2.066512	9.770760	-1.334160	-0.779885	-0.665462	0.869922	0.011987	-0.004362	0.008295
335	1.703417	0.005000	2.102946	9.699889	-1.357784	-0.779776	-0.666120	0.870167	0.008247	-0.006625	0.000019
336	1.708417	0.005000	2.044080	9.695880	-1.351980	-0.779666	-0.666777	0.870412	0.022105	-0.010204	0.003069
337	1.713417	0.005000	2.099692	9.789324	-1.373400	-0.779556	-0.667435	0.870657	0.019916	-0.013382	-0.001841
338	1.718417	0.005000	2.006232	9.792876	-1.329168	-0.779447	-0.668093	0.870902	0.012895	-0.012781	-0.001703
339	1.723417	0.005000	1.976912	9.804504	-1.186616	-0.779337	-0.668751	0.871147	0.014523	-0.012213	-0.002329
340	1.728417	0.005000	2.067216	9.692280	-1.175471	-0.779227	-0.669409	0.871392	0.006254	-0.011068	0.005123
341	1.733417	0.005000	2.040480	9.653040	-1.294920	-0.779118	-0.670067	0.871637	0.016519	-0.012974	-0.001929
342	1.738417	0.005000	2.040480	9.700425	-1.350450	-0.779104	-0.669477	0.871238	0.014516	-0.006897	-0.003338
343	1.743417	0.005000	2.079720	9.737662	-1.294920	-0.779104	-0.668709	0.870748	0.014308	-0.010273	0.003779
344	1.748417	0.005000	2.005037	9.696077	-1.212643	-0.779104	-0.667941	0.870258	0.011909	-0.014664	-0.002141
345	1.753417	0.005000	2.116175	9.808607	-1.255680	-0.779104	-0.667173	0.869768	0.006514	-0.006839	0.003708
346	1.758417	0.005000	2.117858	9.770760	-1.294369	-0.779104	-0.666405	0.869278	0.018593	-0.013387	0.000482
347	1.763417	0.005000	2.043415	9.807065	-1.291985	-0.779104	-0.665637	0.868788	0.004941	-0.005738	0.007846
348	1.768417	0.005000	2.040480	9.883567	-1.334160	-0.779104	-0.664869	0.868298	0.011894	-0.009122	0.004769
349	1.773417	0.005000	2.040480	9.810000	-1.380631	-0.779104	-0.664101	0.867808	0.020954	-0.008861	0.002323
350	1.778417	0.005000	2.031217	9.740783	-1.274205	-0.779104	-0.663333	0.867318	0.013368	-0.007565	0.007539
351	1.783417	0.005000	2.052022	9.759218	-1.318004	-0.779104	-0.662565	0.866827	0.020934	-0.010549	-0.003242
352	1.788417	0.005000	2.079720	9.745141	-1.294920	-0.779104	-0.661797	0.866337	0.017927	-0.010220	-0.006109
353	1.793417	0.005000	2.072540	9.629830	-1.225289	-0.779104	-0.661029	0.865847	0.027871	-0.010485	-0.006191
354	1.798417	0.005000	2.121743	9.710508	-1.258463	-0.779104	-0.660261	0.865357	0.023064	-0.003623	0.004599
355	1.803417	0.005000	1.960470	9.733050	-1.271474	-0.779223	-0.659731	0.865066	0.019519	-0.009262	0.008449
356	1.808417	0.005000	2.046834	9.692280	-1.278477	-0.779662	-0.659841	0.865311	0.024765	-0.006475	0.001631
357	1.813417	0.005000	2.005525	9.663263	-1.255680	-0.780101	-0.659950	0.865557	0.021910	-0.001222	-0.012628
358	1.818417	0.005000	2.091815	9.704375	-1.192250	-0.780540	-0.660060	0.865802	0.024213	-0.006098	0.000147
359	1.823417	0.005000	2.138141	9.692280	-1.246528	-0.780979	-0.660170	0.866047	0.026606	-0.005729	0.000471
360	1.828417	0.005000	2.040480	9.692280	-1.224184	-0.781418	-0.660280	0.866292	0.026845	-0.009031	0.001750
361	1.833417	0.005000	2.011896	9.697608	-1.334160	-0.781857	-0.660389	0.866537	0.024922	-0.009896	0.001282
362	1.838417	0.005000	2.040480	9.695664	-1.252296	-0.782297	-0.660499	0.866782	0.021909	-0.009074	0.003218
363	1.843417	0.005000	2.002219	9.693259	-1.178179	-0.782736	-0.660609	0.867027	0.018707	-0.017694	0.005098
364	1.848417	0.005000	2.078755	9.731520	-1.369542	-0.783175	-0.660719	0.867272	0.023052	-0.006829	-0.000103
365	1.853417	0.005000	2.197440	9.803236	-1.438351	-0.783614	-0.660829	0.867517	0.023944	-0.014333	0.003052
366	1.858417	0.005000	2.124678	9.737238	-1.222158	-0.784053	-0.660938	0.867762	0.021380	-0.008817	-0.000938
367	1.863417	0.005000	1.993508	9.660772	-1.279457	-0.784492	-0.661048	0.868008	0.021467	-0.013338	-0.009584
368	1.868417	0.005000	2.089867	9.721373	-1.334160	-0.784931	-0.661158	0.868253	0.031216	-0.010002	-0.003470
369	1.873417	0.005000	2.015671	9.810000	-1.348591	-0.786255	-0.661784	0.869980	0.014738	-0.015375	-0.007309
370	1.878417	0.005000	2.054979	9.706779	-1.319661	-0.788010	-0.662662	0.872430	0.011595	-0.021532	0.004193
371	1.883417	0.005000	2.102058	9.731520	-1.306387	-0.789765	-0.663539	0.874880	0.005321	-0.012434	0.005760
372	1.888417	0.005000	1.999694	9.632647	-1.276073	-0.791521	-0.664417	0.877330	0.019366	-0.008997	0.001850
373	1.893417	0.005000	1.997965	9.692280	-1.316178	-0.793276	-0.665294	0.879781	0.016049	-0.006763	0.002638
374	1.898417	0.005000	2.174053	9.692280	-1.193053	-0.795031	-0.666172	0.882231	0.006399	-0.006453	-0.001558
375	1.903417	0.005000	2.144574	9.770760	-1.230066	-0.796786	-0.667050	0.884681	0.004217	-0.009656	0.002323
376	1.908417	0.005000	2.158200	9.731520	-1.311724	-0.798542	-0.667927	0.887131	0.007412	-0.013456	0.006987
377	1.913417	0.005000	2.040480	9.740687	-1.364233	-0.800297	-0.668805	0.889581	0.020668	-0.011848	0.006028
378	1.918417	0.005000	2.033621	9.666758	-1.334160	-0.802052	-0.669683	0.892031	0.014037	-0.012526	-0.002108
379	1.923417	0.005000	2.158200	9.727066	-1.338614	-0.803808	-0.670560	0.894482	0.015824	-0.012610	-0.000770
380	1.928417	0.005000	2.153180	9.697300	-1.368380	-0.805563	-0.671438	0.896932	0.017854	-0.010274	0.011245
381	1.933417	0.005000	2.040847	9.809908	-1.294920	-0.807318	-0.672316	0.899382	0.006584	-0.008574	0.003167
382	1.938417	0.005000	2.160052	9.808148	-1.294920	-0.808933	-0.673134	0.901667	0.014790	-0.012226	0.002548
383	1.943417	0.005000	2.018265	9.735776	-1.259936	-0.808604	-0.673134	0.901667	0.006631	-0.004013	0.008334
384	1.948417	0.005000	1.988049	9.764165	-1.288325	-0.808274	-0.673134	0.901667	0.007874	-0.008742	-0.001049
385	1.953417	0.005000	2.040480	9.801396	-1.233649	-0.807945	-0.673134	0.901667	0.010567	-0.015358	-0.002307
386	1.958417	0.005000	2.012132	9.742412	-1.244788	-0.807616	-0.673134	0.901667	0.011633	-0.007215	0.001531
387	1.963417	0.005000	2.014555	9.757797	-1.294568	-0.807287	-0.673134	0.901667	0.004969	-0.013237	0.002661
388	1.968417	0.005000	2.040480	9.762263	-1.294920	-0.806957	-0.673134	0.901667	0.007916	-0.012149	0.009307
389	1.973417	0.005000	2.144707	9.731520	-1.334160	-0.806628	-0.673134	0.901667	0.010008	-0.011559	-0.007049
390	1.978417	0.005000	2.118960	9.731783	-1.294657	-0.806299	-0.673134	0.901667	0.012407	-0.015258	0.007262
391	1.983417	0.005000	2.004840	9.770760	-1.348380	-0.805970	-0.673134	0.901667	0.011984	-0.020231	0.000095
392	1.988417	0.005000	2.008877	9.739509	-1.428266	-0.805641	-0.673134	0.901667	0.005592	-0.011785	0.009967
393	1.993417	0.005000	2.027267	9.770760	-1.307735	-0.805311	-0.673134	0.901667	-0.002024	-0.007693	0.002804
394	1.998417	0.005000	2.096423	9.748223	-1.283652	-0.804982	-0.673134	0.901667	0.002101	-0.010829	0.006222
395	2.003417	0.005000	1.979722	9.713798	-1.378466	-0.804653	-0.673134	0.901667	-0.001923	-0.003760	0.002759
396	2.008417	0.005000	2.021753	9.620638	-1.373400	-0.803912	-0.672774	0.900863	-0.000479	-0.014905	0.001382
397	2.013417	0.005000	2.044981	9.731520	-1.290419	-0.802705	-0.672006	0.899148	-0.001930	-0.022490	0.000826
398	2.018417	0.005000	2.116434	9.728994	-1.294920	-0.801499	-0.671238	0.897433	0.007099	-0.013471	-0.005603
399	2.023417	0.005000	2.080026	9.770760	-1.294920	-0.800292	-0.670470	0.895718	0.011036	-0.019190	0.004985
400	2.028417	0.005000	2.120751	9.733311	-1.257471	-0.799085	-0.669702	0.894002	-0.004190	-0.006814	-0.001264
401	2.033417	0.005000	2.048870	9.727325	-1.294920	-0.797878	-0.668935	0.892287	-0.005685	-0.011777	0.002045
402	2.038417	0.005000	2.073185	9.692280	-1.222975	-0.796672	-0.668167	0.890572	-0.002138	-0.011230	0.003132
403	2.043417	0.005000	2.040480	9.700835	-1.233550	-0.795465	-0.667399	0.888857	-0.000956	-0.013056	-0.000137
404	2.048417	0.005000	2.012071	9.720689	-1.131213	-0.794258	-0.666631	0.887142	0.008759	-0.015534	0.002885
405	2.053417	0.005000	2.118960	9.692280	-1.203534	-0.793051	-0.665863	0.885427	-0.001057	-0.010022	0.005688
406	2.058417	0.005000	1.992639	9.818601	-1.264281	-0.791844	-0.665095	0.883712	0.001200	-0.016232	0.011410
407	2.063417	0.005000	2.001240	9.770760	-1.321611	-0.790638	-0.664327	0.881997	0.003527	-0.019019	0.003618
408	2.068417	0.005000	2.040480	9.692280	-1.216226	-0.789431	-0.663559	0.880281	0.001801	-0.006850	0.003099
409	2.073417	0.005000	2.001240	9.696697	-1.225274	-0.788224	-0.662791	0.878566	-0.002296	-0.005098	0.009495
410	2.078417	0.005000	2.025268	9.707492	-1.225255	-0.787681	-0.662592	0.878333	-0.009382	-0.005127	0.002727
411	2.083417	0.005000	2.014355	9.783769	-1.321151	-0.787242	-0.662482	0.878333	0.002731	-0.011550	0.001015
412	2.088417	0.005000	1.990385	9.692280	-1.238150	-0.786803	-0.662373	0.878333	0.003587	-0.012087	0.004913
413	2.093417	0.005000	1.995805	9.784646	-1.294920	-0.786364	-0.662263	0.878333	0.003722	-0.019263	0.006473
414	2.098417	0.005000	2.092578	9.725091	-1.321302	-0.785926	-0.662153	0.878333	0.009066	-0.013014	-0.002383
415	2.103417	0.005000	2.189237	9.805898	-1.185403	-0.785487	-0.662043	0.878333	0.007239	-0.009711	0.010722
416	2.108417	0.005000	2.040480	9.774128	-1.216440	-0.785048	-0.661934	0.878333	0.006546	-0.011340	0.000822
417	2.113417	0.005000	2.040480	9.888220	-1.255420	-0.784609	-0.661824	0.878333	0.007617	-0.000163	-0.002888
418	2.118417	0.005000	2.082384	9.773424	-1.365408	-0.784170	-0.661714	0.878333	0.003556	-0.015378	-0.000170
419	2.123417	0.005000	2.123568	9.844632	-1.368792	-0.783731	-0.661605	0.878333	0.001679	-0.005631	-0.002673
420	2.128417	0.005000	2.111935	9.777785	-1.301945	-0.783293	-0.661495	0.878333	0.001809	-0.006142	-0.000872
421	2.133417	0.005000	2.100323	9.740838	-1.167882	-0.782854	-0.661385	0.878333	0.002187	-0.011599	0.005715
422	2.138417	0.005000	2.158200	9.759052	-1.255680	-0.782415	-0.661275	0.878333	0.003552	-0.008035	-0.003875
423	2.143417	0.005000	2.093509	9.796211	-1.318244	-0.782346	-0.661422	0.878365	0.019841	-0.019536	0.000773
424	2.148417	0.005000	2.001240	9.708285	-1.380631	-0.783333	-0.662299	0.878487	0.007427	-0.013304	-0.004040
425	2.153417	0.005000	2.058623	9.749663	-1.273823	-0.784320	-0.663176	0.878610	0.012120	-0.012031	0.001285
426	2.158417	0.005000	2.040480	9.731520	-1.197754	-0.785307	-0.664053	0.878732	0.008637	-0.006720	0.003093
427	2.163417	0.005000	2.034739	9.748269	-1.148968	-0.786293	-0.664930	0.878855	-0.001068	-0.004619	-0.000637
428	2.168417	0.005000	2.079720	9.781320	-1.177200	-0.787280	-0.665808	0.878977	0.001313	-0.013085	0.004690
429	2.173417	0.005000	2.224284	9.731520	-1.175149	-0.788267	-0.666685	0.879100	0.000804	-0.010191	-0.008109
430	2.178417	0.005000	2.118960	9.790724	-1.206458	-0.789254	-0.667562	0.879222	0.012823	-0.011532	-0.001517
431	2.183417	0.005000	2.032538	9.770760	-1.247738	-0.790241	-0.668439	0.879345	0.016295	-0.008949	0.001045
432	2.188417	0.005000	2.079720	9.725888	-1.334160	-0.791228	-0.669317	0.879467	0.011287	-0.010529	-0.006330
433	2.193417	0.005000	2.040480	9.653040	-1.301350	-0.792214	-0.670194	0.879590	0.013491	-0.013281	0.001887
434	2.198417	0.005000	2.044292	9.615071	-1.331619	-0.793201	-0.671071	0.879712	0.009841	-0.009964	0.000997
435	2.203417	0.005000	2.196767	9.653040	-1.217113	-0.794188	-0.671948	0.879834	0.010497	-0.015882	0.001904
436	2.208417	0.005000	2.079720	9.623032	-1.294920	-0.795175	-0.672826	0.879957	0.005568	-0.008776	-0.008958
437	2.213417	0.005000	2.017532	9.720659	-1.334160	-0.794740	-0.672636	0.879365	-0.004804	-0.009468	-0.004630
438	2.218417	0.005000	2.150762	9.795124	-1.319284	-0.793533	-0.671868	0.878385	0.004874	-0.012752	0.003933
439	2.223417	0.005000	2.158200	9.741364	-1.216440	-0.792326	-0.671100	0.877404	0.004121	-0.004468	0.000585
440	2.228417	0.005000	2.064058	9.747182	-1.165411	-0.791119	-0.670332	0.876424	0.002384	-0.009910	0.004162
441	2.233417	0.005000	2.026287	9.795807	-1.202247	-0.789912	-0.669564	0.875444	0.015019	-0.005164	0.001274
442	2.238417	0.005000	2.102547	9.770760	-1.272093	-0.788706	-0.668797	0.874464	0.009004	-0.008423	0.001114
443	2.243417	0.005000	2.061171	9.791451	-1.255680	-0.787499	-0.668029	0.873484	0.006772	-0.012638	0.000190
444	2.248417	0.005000	2.118960	9.750051	-1.311273	-0.786292	-0.667261	0.872504	0.003870	-0.006765	-0.000745
445	2.253417	0.005000	2.135296	9.741288	-1.357064	-0.785085	-0.666493	0.871524	0.004818	-0.008799	0.005675
446	2.258417	0.005000	2.105033	9.770760	-1.230367	-0.783878	-0.665725	0.870544	0.006883	-0.010451	-0.002562
447	2.263417	0.005000	2.095271	9.782605	-1.365262	-0.782672	-0.664957	0.869564	0.013853	-0.013624	-0.000972
448	2.268417	0.005000	2.071116	9.760227	-1.284387	-0.781465	-0.664189	0.868584	0.011574	-0.000367	0.000611
449	2.273417	0.005000	1.993707	9.778293	-1.365867	-0.780258	-0.663421	0.867604	0.004911	-0.013841	0.001215
450	2.278417	0.005000	1.972437	9.804781	-1.396984	-0.779114	-0.662677	0.866678	0.004197	-0.008890	0.009839
451	2.283417	0.005000	2.040480	9.779165	-1.283713	-0.779333	-0.662458	0.866923	0.007979	-0.009163	0.004284
452	2.288417	0.005000	2.041327	9.733214	-1.139654	-0.779553	-0.662238	0.867168	0.016665	-0.010896	0.005666
453	2.293417	0.005000	2.004333	9.772306	-1.329521	-0.779772	-0.662019	0.867413	0.021399	-0.003570	-0.001185
454	2.298417	0.005000	2.040480	9.692280	-1.330242	-0.779992	-0.661799	0.867658	0.028100	-0.008062	-0.003799
455	2.303417	0.005000	2.113066	9.692280	-1.340054	-0.780211	-0.661580	0.867903	0.012124	-0.007277	0.004421
456	2.308417	0.005000	2.110746	9.723306	-1.288536	-0.780431	-0.661360	0.868148	0.013625	-0.012988	-0.000013
457	2.313417	0.005000	2.118960	9.799746	-1.187454	-0.780650	-0.661141	0.868393	0.011326	-0.012469	-0.000334
458	2.318417	0.005000	2.118960	9.704942	-1.164538	-0.780869	-0.660922	0.868638	0.016425	-0.006206	-0.001233
459	2.323417	0.005000	2.064820	9.731520	-1.167761	-0.781089	-0.660702	0.868883	0.017336	-0.014683	0.009724
460	2.328417	0.005000	1.934575	9.827018	-1.120942	-0.781308	-0.660483	0.869128	0.005514	-0.006406	-0.005279
461	2.333417	0.005000	2.001623	9.849240	-1.197011	-0.781528	-0.660263	0.869373	0.006830	-0.021098	0.006483
462	2.338417	0.005000	2.122466	9.849240	-1.159333	-0.781747	-0.660044	0.869618	0.018002	-0.013624	0.003750
463	2.343417	0.005000	2.072588	9.755303	-1.208115	-0.781967	-0.659824	0.869863	0.019774	-0.014653	-0.010425
464	2.348417	0.005000	2.106435	9.666397	-1.282395	-0.782138	-0.659894	0.869839	0.025029	-0.013646	0.012168
465	2.353417	0.005000	2.136000	9.798900	-1.368240	-0.782248	-0.660333	0.869471	0.018265	-0.008062	0.002057
466	2.358417	0.005000	2.023094	9.792614	-1.277534	-0.782358	-0.660772	0.869103	0.018082	-0.012508	0.014981
467	2.363417	0.005000	1.936258	9.770760	-1.216440	-0.782467	-0.661211	0.868736	0.017136	0.000525	0.000486
468	2.368417	0.005000	2.005573	9.805667	-1.290587	-0.782577	-0.661650	0.868368	0.017202	-0.011284	-0.002195
469	2.373417	0.005000	2.006046	9.765954	-1.218843	-0.782687	-0.662089	0.868000	0.013198	-0.013649	0.001152
470	2.378417	0.005000	2.079720	9.731505	-1.294905	-0.782796	-0.662528	0.867632	0.007705	-0.003108	-0.002183
471	2.383417	0.005000	2.195481	9.766842	-1.298838	-0.782906	-0.662967	0.867265	0.014711	-0.014640	0.006160
472	2.388417	0.005000	2.044791	9.696591	-1.404017	-0.783016	-0.663406	0.866897	0.012168	-0.001804	0.003859
473	2.393417	0.005000	2.046788	9.711203	-1.274603	-0.783126	-0.663846	0.866529	0.004666	-0.016359	0.009561
474	2.398417	0.005000	2.040480	9.762137	-1.351405	-0.783235	-0.664285	0.866162	0.012139	-0.016436	0.010607
475	2.403417	0.005000	2.040480	9.781427	-1.423307	-0.783345	-0.664724	0.865794	0.021696	-0.013049	-0.005593
476	2.408417	0.005000	1.909357	9.783679	-1.321241	-0.783455	-0.665163	0.865426	0.020974	-0.018052	-0.002812
477	2.413417	0.005000	1.922760	9.755741	-1.324959	-0.783564	-0.665602	0.865059	0.008254	-0.003317	-0.004437
478	2.418417	0.005000	1.922760	9.766383	-1.172823	-0.783490	-0.665303	0.865000	0.022845	-0.009390	0.000504
479	2.423417	0.005000	2.040970	9.731030	-1.236305	-0.783380	-0.664865	0.865000	0.003314	-0.007191	-0.004284
480	2.428417	0.005000	2.001240	9.783881	-1.316706	-0.783271	-0.664426	0.865000	0.015124	-0.009501	-0.005652
481	2.433417	0.005000	1.977324	9.779352	-1.334160	-0.783161	-0.663987	0.865000	0.010813	-0.015022	0.007952
482	2.438417	0.005000	1.988201	9.705380	-1.347260	-0.783051	-0.663549	0.865000	0.014725	-0.007764	0.002266
483	2.443417	0.005000	2.040480	9.742207	-1.323473	-0.782942	-0.663110	0.865000	0.015158	-0.015703	-0.001571
484	2.448417	0.005000	2.079720	9.770760	-1.303674	-0.782832	-0.662671	0.865000	0.010636	-0.005416	-0.000780
485	2.453417	0.005000	2.001240	9.784223	-1.308383	-0.782723	-0.662232	0.865000	0.016051	-0.008258	0.001823
486	2.458417	0.005000	2.005634	9.735914	-1.329766	-0.782613	-0.661794	0.865000	0.009583	-0.015283	0.001991
487	2.463417	0.005000	2.038490	9.808010	-1.298899	-0.782503	-0.661355	0.865000	0.008159	-0.016600	-0.002664
488	2.468417	0.005000	2.079675	9.731565	-1.334160	-0.782394	-0.660916	0.865000	0.012309	-0.010499	0.000191
489	2.473417	0.005000	2.151084	9.807628	-1.297292	-0.782284	-0.660478	0.865000	0.009443	-0.008302	0.004390
490	2.478417	0.005000	2.040480	9.805684	-1.233703	-0.782174	-0.660039	0.865000	0.018902	-0.012936	0.005374
491	2.483417	0.005000	2.098796	9.770760	-1.183921	-0.782266	-0.659701	0.865028	0.006903	-0.008157	0.006720
492	2.488417	0.005000	2.040480	9.779791	-1.216440	-0.783035	-0.659701	0.865151	0.017725	-0.012551	0.004182
493	2.493417	0.005000	2.018320	9.781840	-1.244600	-0.783803	-0.659701	0.865273	0.016859	-0.014600	0.000176
494	2.498417	0.005000	2.092306	9.810000	-1.334160	-0.784571	-0.659701	0.865396	0.015179	-0.015643	0.003439
495	2.503417	0.005000	2.088095	9.801625	-1.334160	-0.785339	-0.659701	0.865518	0.010183	-0.013259	-0.005365
496	2.508417	0.005000	2.079720	9.770760	-1.273318	-0.786108	-0.659701	0.865641	0.011791	-0.008884	0.003803
497	2.513417	0.005000	2.158200	9.692602	-1.314379	-0.786876	-0.659701	0.865764	0.012069	-0.015469	0.006390
498	2.518417	0.005000	2.096769	9.709329	-1.289778	-0.787644	-0.659701	0.865886	0.011792	-0.011646	0.007867
499	2.523417	0.005000	2.055585	9.731520	-1.312979	-0.788412	-0.659701	0.866009	0.013945	-0.013048	0.006339
500	2.528417	0.005000	2.067028	9.731520	-1.282228	-0.789181	-0.659701	0.866131	0.008451	-0.006970	0.006633
501	2.533417	0.005000	2.033483	9.720772	-1.198695	-0.789949	-0.659701	0.866254	0.004149	-0.007408	-0.001589
502	2.538417	0.005000	2.088061	9.810000	-1.193882	-0.790717	-0.659701	0.866377	0.016017	-0.010250	0.007205
503	2.543417	0.005000	2.073397	9.777083	-1.268326	-0.791485	-0.659701	0.866499	0.018923	-0.004581	0.002699
504	2.548417	0.005000	2.079720	9.837298	-1.338141	-0.792254	-0.659701	0.866622	0.018411	-0.012563	0.002218
505	2.553417	0.005000	2.038468	9.770760	-1.298944	-0.792191	-0.659355	0.866590	0.004033	-0.003298	0.007394
506	2.558417	0.005000	2.040113	9.809633	-1.373400	-0.791642	-0.658806	0.866467	0.006707	-0.011164	-0.004373
507	2.563417	0.005000	1.964312	9.881544	-1.223376	-0.791094	-0.658258	0.866345	0.016334	-0.017250	0.005400
508	2.568417	0.005000	2.001240	9.814729	-1.294920	-0.790545	-0.657709	0.866222	0.013074	-0.004288	0.005300
509	2.573417	0.005000	2.098942	9.784105	-1.177200	-0.789997	-0.657161	0.866100	0.013744	-0.014128	-0.002278
510	2.578417	0.005000	2.079720	9.849240	-1.285841	-0.789448	-0.656612	0.865977	0.009833	-0.012477	0.008467
511	2.583417	0.005000	1.996036	9.793451	-1.211236	-0.788900	-0.656064	0.865855	0.021457	-0.008456	-0.012304
512	2.588417	0.005000	2.066293	9.731520	-1.268066	-0.788352	-0.655516	0.865732	0.018131	-0.011246	0.006214
513	2.593417	0.005000	1.993313	9.708133	-1.318503	-0.787803	-0.654967	0.865609	0.012073	-0.010060	0.006554
514	2.598417	0.005000	2.019023	9.792217	-1.216440	-0.787255	-0.654419	0.865487	0.008530	-0.021038	0.004738
515	2.603417	0.005000	2.039332	9.770760	-1.373400	-0.786706	-0.653870	0.865364	0.009870	-0.007724	0.004626
516	2.608417	0.005000	2.057377	9.793103	-1.272577	-0.786158	-0.653322	0.865242	0.015025	-0.010113	0.004967
517	2.613417	0.005000	2.104268	9.721664	-1.363544	-0.785609	-0.652773	0.865119	0.017904	-0.013301	0.002217
518	2.618417	0.005000	1.935361	9.836639	-1.360799	-0.785112	-0.652273	0.865058	0.003481	-0.018951	-0.004489
519	2.623417	0.005000	1.972334	9.710851	-1.383734	-0.786539	-0.653590	0.867263	0.007968	-0.008717	0.002279
520	2.628417	0.005000	2.088010	9.700570	-1.356821	-0.787965	-0.654906	0.869468	0.016256	-0.001927	0.002070
521	2.633417	0.005000	2.091688	9.810000	-1.288936	-0.789391	-0.656223	0.871673	0.012972	-0.016945	0.008534
522	2.638417	0.005000	2.115393	9.806433	-1.262815	-0.790817	-0.657539	0.873878	0.014922	-0.010970	-0.001550
523	2.643417	0.005000	2.040480	9.772363	-1.368590	-0.792243	-0.658856	0.876083	0.005861	-0.008479	-0.005571
524	2.648417	0.005000	2.078939	9.733082	-1.255680	-0.793669	-0.660172	0.878288	0.009220	-0.009301	0.007246
525	2.653417	0.005000	2.155054	9.728374	-1.291774	-0.795096	-0.661489	0.880494	0.005961	-0.010138	0.002759
526	2.658417	0.005000	2.060996	9.697409	-1.363142	-0.796522	-0.662805	0.882699	0.012813	-0.017939	0.008440
527	2.663417	0.005000	2.096325	9.841695	-1.310010	-0.797948	-0.664122	0.884904	0.009163	-0.006938	-0.006152
528	2.668417	0.005000	2.089209	9.692280	-1.404437	-0.799374	-0.665438	0.887109	0.010856	-0.014275	0.000081
529	2.673417	0.005000	2.091616	9.770760	-1.373400	-0.800800	-0.666754	0.889314	0.006676	-0.013287	0.001976
530	2.678417	0.005000	2.090672	9.720568	-1.230584	-0.802227	-0.668071	0.891519	0.005506	-0.009254	0.002856
531	2.683417	0.005000	2.072986	9.676027	-1.262414	-0.803653	-0.669387	0.893724	0.015389	-0.007781	0.003084
532	2.688417	0.005000	2.061280	9.770760	-1.174840	-0.804155	-0.670195	0.894536	0.004013	-0.006742	-0.003316
533	2.693417	0.005000	2.001240	9.750152	-1.257655	-0.803387	-0.670305	0.893434	0.015645	-0.009160	-0.002585
534	2.698417	0.005000	2.040480	9.731520	-1.199951	-0.802619	-0.670415	0.892331	0.008278	-0.006661	0.004220
535	2.703417	0.005000	2.054759	9.735116	-1.227122	-0.801852	-0.670524	0.891229	0.010476	-0.007920	-0.006715
536	2.708417	0.005000	2.083364	9.810000	-1.322295	-0.801084	-0.670634	0.890127	0.016107	-0.020006	0.003699
537	2.713417	0.005000	2.001240	9.810000	-1.363479	-0.800316	-0.670744	0.889025	0.014006	-0.011820	0.007782
538	2.718417	0.005000	2.032966	9.785789	-1.248166	-0.799549	-0.670853	0.887923	0.014093	-0.007540	0.005061
539	2.723417	0.005000	2.068574	9.776333	-1.121012	-0.798781	-0.670963	0.886821	0.011871	-0.007376	-0.003185
540	2.728417	0.005000	2.046816	9.810000	-1.294920	-0.798014	-0.671073	0.885719	0.012960	-0.005977	0.002671
541	2.733417	0.005000	2.000030	9.808790	-1.293710	-0.797246	-0.671182	0.884617	0.006469	-0.018193	0.006853
542	2.738417	0.005000	2.038093	9.694667	-1.369819	-0.796478	-0.671292	0.883515	-0.001806	-0.017032	-0.000862
543	2.743417	0.005000	2.111850	9.735075	-1.259235	-0.795711	-0.671402	0.882413	0.011705	-0.014000	0.011387
544	2.748417	0.005000	2.046022	9.703365	-1.261222	-0.794943	-0.671512	0.881311	0.003197	-0.015867	-0.001136
545	2.753417	0.005000	2.040480	9.747162	-1.185066	-0.794175	-0.671621	0.880209	0.005617	-0.013178	0.002889
546	2.758417	0.005000	1.971902	9.731520	-1.294920	-0.793407	-0.671019	0.880000	0.007566	-0.010394	0.003914
547	2.763417	0.005000	2.001240	9.625962	-1.240765	-0.792639	-0.670251	0.880000	0.003281	-0.012612	-0.001744
548	2.768417	0.005000	2.040480	9.653040	-1.266412	-0.791871	-0.669483	0.880000	0.006326	-0.013046	0.008805
549	2.773417	0.005000	2.013055	9.708946	-1.272346	-0.791102	-0.668714	0.880000	0.007034	-0.001815	0.000838
550	2.778417	0.005000	2.057786	9.791151	-1.313769	-0.790334	-0.667946	0.880000	0.009154	-0.016942	-0.005345
551	2.783417	0.005000	2.004042	9.788979	-1.252878	-0.789566	-0.667178	0.880000	0.012116	-0.007914	-0.001755
552	2.788417	0.005000	2.040480	9.786840	-1.311000	-0.788797	-0.666409	0.880000	0.013725	-0.006449	-0.006706
553	2.793417	0.005000	2.118960	9.770760	-1.334160	-0.788029	-0.665641	0.880000	0.008579	-0.007135	-0.003665
554	2.798417	0.005000	2.146416	9.731520	-1.267464	-0.787261	-0.664873	0.880000	0.012899	-0.012970	-0.008552
555	2.803417	0.005000	2.040480	9.731520	-1.196238	-0.786492	-0.664104	0.880000	0.016528	-0.014826	0.001700
556	2.808417	0.005000	2.047584	9.724416	-1.294920	-0.785724	-0.663336	0.880000	0.012837	-0.011525	-0.001006
557	2.813417	0.005000	2.192280	9.775920	-1.255680	-0.784956	-0.662568	0.880000	0.008921	-0.012996	0.004484
558	2.818417	0.005000	2.009504	9.737030	-1.294920	-0.784187	-0.661799	0.880000	0.007402	-0.010731	0.012506
559	2.823417	0.005000	2.079720	9.731520	-1.257302	-0.783512	-0.661171	0.879844	0.021275	-0.018210	0.001922
560	2.828417	0.005000	2.042068	9.731520	-1.484767	-0.783183	-0.661061	0.879109	0.022130	-0.012452	0.001700
561	2.833417	0.005000	2.040480	9.731520	-1.294920	-0.782854	-0.660951	0.878374	0.013803	-0.001736	-0.002079
562	2.838417	0.005000	2.118960	9.758849	-1.294920	-0.782525	-0.660842	0.877639	0.015168	-0.018831	0.000391
563	2.843417	0.005000	2.040480	9.762860	-1.404740	-0.782196	-0.660732	0.876904	0.013161	-0.013976	0.002286
564	2.848417	0.005000	2.059090	9.770760	-1.315550	-0.781866	-0.660622	0.876169	0.012893	-0.013895	0.005512
565	2.853417	0.005000	2.170459	9.783019	-1.240957	-0.781537	-0.660512	0.875434	0.009555	-0.015683	-0.000505
566	2.858417	0.005000	2.084481	9.756093	-1.314731	-0.781208	-0.660403	0.874699	0.022253	-0.007579	-0.009248
567	2.863417	0.005000	2.062853	9.731520	-1.328654	-0.780879	-0.660293	0.873964	0.019149	-0.016744	0.005815
568	2.868417	0.005000	2.158200	9.692280	-1.235455	-0.780550	-0.660183	0.873229	0.007882	-0.006688	0.005901
569	2.873417	0.005000	2.122076	9.713458	-1.234502	-0.780221	-0.660073	0.872494	0.011035	-0.006864	0.015232
570	2.878417	0.005000	2.079720	9.731520	-1.271550	-0.779892	-0.659964	0.871759	0.014955	-0.004971	-0.003707
571	2.883417	0.005000	2.079720	9.706046	-1.306628	-0.779562	-0.659854	0.871024	0.014702	-0.013797	-0.004765
572	2.888417	0.005000	2.112147	9.782273	-1.329460	-0.779233	-0.659744	0.870289	0.016036	-0.014015	0.001791
573	2.893417	0.005000	2.081142	9.800545	-1.384276	-0.779370	-0.659967	0.870223	0.028176	-0.012676	0.015196
574	2.898417	0.005000	1.944247	9.763598	-1.334160	-0.779809	-0.660406	0.870591	0.022698	-0.012825	0.004424
575	2.903417	0.005000	2.040480	9.692280	-1.334160	-0.780248	-0.660845	0.870958	0.015419	-0.007666	0.001822
576	2.908417	0.005000	2.079720	9.734322	-1.252878	-0.780687	-0.661284	0.871326	0.020119	-0.014275	-0.003201
577	2.913417	0.005000	2.002832	9.730724	-1.137164	-0.781126	-0.661723	0.871693	0.014698	-0.016284	-0.000912
578	2.918417	0.005000	2.007425	9.728427	-1.134867	-0.781565	-0.662162	0.872061	0.021058	-0.006769	-0.009238
579	2.923417	0.005000	2.028589	9.731520	-1.318305	-0.782004	-0.662601	0.872428	0.014608	-0.012297	0.004569
580	2.928417	0.005000	2.164493	9.803707	-1.406347	-0.782443	-0.663040	0.872796	0.014820	-0.010289	-0.001883
581	2.933417	0.005000	2.118960	9.669660	-1.294920	-0.782882	-0.663479	0.873163	0.016890	-0.007681	0.003256
582	2.938417	0.005000	2.079720	9.760506	-1.294920	-0.783320	-0.663917	0.873531	0.012826	-0.010079	0.009163
583	2.943417	0.005000	2.065803	9.704942	-1.243018	-0.783759	-0.664356	0.873898	0.012164	-0.009402	0.006427
584	2.948417	0.005000	2.045058	9.657618	-1.334160	-0.784198	-0.664795	0.874266	0.017875	-0.016614	0.010718
585	2.953417	0.005000	2.079720	9.753742	-1.272698	-0.784637	-0.665234	0.874633	0.012985	-0.000078	0.005041
586	2.958417	0.005000	2.197440	9.789722	-1.217756	-0.785073	-0.665671	0.874999	0.009271	-0.014103	0.008291
587	2.963417	0.005000	2.086732	9.756399	-1.334160	-0.784085	-0.665342	0.874386	0.007186	-0.012909	0.001672
588	2.968417	0.005000	2.063988	9.708012	-1.247723	-0.783098	-0.665013	0.873774	0.014177	-0.006236	0.002744
589	2.973417	0.005000	2.067507	9.653040	-1.204227	-0.782110	-0.664684	0.873161	0.013727	-0.006234	0.010799
590	2.978417	0.005000	2.096760	9.703380	-1.334160	-0.781123	-0.664355	0.872548	0.013038	-0.010800	-0.001020
591	2.983417	0.005000	1.989466	9.810000	-1.334160	-0.780136	-0.664025	0.871936	0.008836	-0.012587	0.003945
592	2.988417	0.005000	2.086469	9.816749	-1.380149	-0.779148	-0.663696	0.871323	-0.008686	-0.006905	-0.003581
593	2.993417	0.005000	2.128460	9.844490	-1.334160	-0.778161	-0.663367	0.870711	-0.004815	-0.013056	0.001430
594	2.998417	0.005000	2.006046	9.883674	-1.331757	-0.777174	-0.663038	0.870098	0.000606	-0.009472	0.002748
595	3.003417	0.005000	2.079720	9.731550	-1.334145	-0.776186	-0.662709	0.869486	0.008812	-0.010744	0.005093
596	3.008417	0.005000	2.120919	9.729561	-1.298838	-0.775199	-0.662380	0.868873	0.008407	-0.012692	0.001614
597	3.013417	0.005000	2.071097	9.731520	-1.290609	-0.774211	-0.662051	0.868261	-0.011368	-0.013521	-0.003511
598	3.018417	0.005000	2.013856	9.725212	-1.229056	-0.773224	-0.661721	0.867648	-0.003677	-0.015070	0.003674
599	3.023417	0.005000	2.079720	9.692280	-1.299266	-0.772237	-0.661392	0.867036	-0.005947	-0.020254	0.003814
600	3.028417	0.005000	2.158200	9.777999	-1.355494	-0.771948	-0.661238	0.866667	-0.000747	-0.008087	-0.003354
601	3.033417	0.005000	2.105870	9.653040	-1.321085	-0.772716	-0.661347	0.866667	-0.003769	-0.009593	0.010207
602	3.038417	0.005000	2.152382	9.740721	-1.285719	-0.773484	-0.661457	0.866667	-0.010206	-0.009152	-0.002760
603	3.043417	0.005000	2.158200	9.735897	-1.377777	-0.774253	-0.661567	0.866667	-0.002178	-0.017281	0.005547
604	3.048417	0.005000	2.118899	9.751125	-1.314495	-0.775021	-0.661677	0.866667	-0.001075	-0.010214	-0.000867
605	3.053417	0.005000	2.053601	9.709734	-1.316706	-0.775789	-0.661787	0.866667	-0.006131	-0.013642	-0.001220
606	3.058417	0.005000	2.088312	9.794676	-1.240356	-0.776558	-0.661896	0.866667	0.009451	-0.014663	0.005772
607	3.063417	0.005000	2.079720	9.731520	-1.151060	-0.777326	-0.662006	0.866667	0.005074	-0.015054	-0.001168
608	3.068417	0.005000	2.097587	9.731520	-1.216440	-0.778094	-0.662116	0.866667	-0.001233	-0.022356	0.003971
609	3.073417	0.005000	2.009994	9.731520	-1.064010	-0.778862	-0.662226	0.866667	-0.003435	-0.019165	-0.004810
610	3.078417	0.005000	2.073382	9.698618	-1.183538	-0.779631	-0.662336	0.866667	-0.006814	-0.019756	0.005929
611	3.083417	0.005000	2.036138	9.735862	-1.185883	-0.780399	-0.662445	0.866667	-0.004405	-0.023389	0.004653
612	3.088417	0.005000	1.922760	9.694270	-1.218430	-0.781167	-0.662555	0.866667	0.003838	-0.021086	0.004585
613	3.093417	0.005000	1.922760	9.653176	-1.177291	-0.781936	-0.662665	0.866667	-0.002088	-0.018707	-0.001985
614	3.098417	0.005000	1.922760	9.733892	-1.292548	-0.782353	-0.662687	0.866569	0.000649	-0.011221	0.000842
615	3.103417	0.005000	1.892152	9.696596	-1.229387	-0.782682	-0.662687	0.866447	0.001586	-0.018778	0.005414
616	3.108417	0.005000	2.033759	9.764039	-1.170479	-0.783011	-0.662687	0.866324	-0.003297	-0.015681	-0.003240
617	3.113417	0.005000	2.018571	9.831909	-1.163957	-0.783340	-0.662687	0.866201	-0.008986	-0.012548	-0.006847
618	3.118417	0.005000	2.001240	9.686281	-1.233520	-0.783669	-0.662687	0.866079	0.004261	-0.013111	0.000906
619	3.123417	0.005000	2.027894	9.653040	-1.281593	-0.783998	-0.662687	0.865956	-0.002248	-0.007134	0.002385
620	3.128417	0.005000	2.079720	9.755327	-1.287862	-0.784327	-0.662687	0.865834	0.003257	-0.012269	0.002343
621	3.133417	0.005000	1.979638	9.788398	-1.255680	-0.784657	-0.662687	0.865711	-0.006714	-0.007182	-0.000301
622	3.138417	0.005000	1.903301	9.790219	-1.216118	-0.784986	-0.662687	0.865589	0.000597	-0.016497	0.010406
623	3.143417	0.005000	2.023431	9.714471	-1.255680	-0.785315	-0.662687	0.865466	-0.010384	-0.010591	0.003386
624	3.148417	0.005000	2.094651	9.755829	-1.294920	-0.785644	-0.662687	0.865344	-0.004140	-0.008534	0.006099
625	3.153417	0.005000	2.120124	9.756904	-1.308776	-0.785973	-0.662687	0.865221	0.003899	-0.012396	0.013916
626	3.158417	0.005000	2.069101	9.781379	-1.323541	-0.786302	-0.662687	0.865099	0.011120	-0.011422	0.005891
627	3.163417	0.005000	1.908542	9.818341	-1.264021	-0.786460	-0.662644	0.865071	-0.000938	-0.021536	0.006126
628	3.168417	0.005000	2.079720	9.836594	-1.216440	-0.785912	-0.662425	0.865439	0.004022	-0.009629	0.003427
629	3.173417	0.005000	2.083701	9.770760	-1.286959	-0.785363	-0.662205	0.865806	0.022665	-0.010460	0.004000
630	3.178417	0.005000	2.036456	9.805976	-1.251656	-0.784815	-0.661986	0.866174	0.014298	-0.014337	0.004834
631	3.183417	0.005000	2.039745	9.731520	-1.254945	-0.784266	-0.661766	0.866542	-0.001633	-0.012115	-0.005812
632	3.188417	0.005000	2.152694	9.765254	-1.179953	-0.783718	-0.661547	0.866909	0.010799	-0.018489	0.007336
633	3.193417	0.005000	2.183253	9.770760	-1.334160	-0.783169	-0.661327	0.867277	0.004961	-0.008935	-0.006038
634	3.198417	0.005000	2.158200	9.777895	-1.159364	-0.782620	-0.661108	0.867644	0.008214	-0.011588	0.005418
635	3.203417	0.005000	2.029558	9.810000	-1.227362	-0.782072	-0.660888	0.868012	0.013798	-0.012016	0.004396
636	3.208417	0.005000	2.091203	9.810000	-1.294920	-0.781523	-0.660669	0.868379	0.009166	-0.011912	-0.000309
637	3.213417	0.005000	2.040480	9.810000	-1.306368	-0.780975	-0.660450	0.868747	0.013958	-0.007606	0.004288
638	3.218417	0.005000	2.103120	9.731520	-1.303200	-0.780426	-0.660230	0.869114	0.022603	-0.001831	0.002039
639	3.223417	0.005000	2.179190	9.710530	-1.294920	-0.779878	-0.660011	0.869482	0.026034	-0.014484	0.006461
640	3.228417	0.005000	2.078117	9.751942	-1.216440	-0.779329	-0.659791	0.869849	0.017053	-0.001126	0.005144
641	3.233417	0.005000	2.040480	9.708916	-1.187867	-0.779233	-0.659766	0.870217	0.019047	-0.018141	0.002043
642	3.238417	0.005000	2.054703	9.781554	-1.177200	-0.779453	-0.659875	0.870584	0.026239	-0.005769	0.005199
643	3.243417	0.005000	2.091999	9.731520	-1.358718	-0.779672	-0.659985	0.870951	0.016218	-0.003976	0.004680
644	3.248417	0.005000	2.060222	9.849240	-1.324289	-0.779892	-0.660095	0.871319	0.015423	-0.012778	0.006263
645	3.253417	0.005000	2.134632	9.849240	-1.232112	-0.780111	-0.660204	0.871686	0.022139	-0.012060	-0.000913
646	3.258417	0.005000	2.136153	9.810000	-1.143472	-0.780330	-0.660314	0.872053	0.015482	-0.018324	0.007007
647	3.263417	0.005000	2.037373	9.849240	-1.177200	-0.780550	-0.660424	0.872421	0.015976	-0.008824	0.004275
648	3.268417	0.005000	1.960837	9.808837	-1.335323	-0.780769	-0.660534	0.872788	0.013898	-0.010381	-0.004278
649	3.273417	0.005000	2.036759	9.694761	-1.259401	-0.780988	-0.660643	0.873155	0.014929	-0.018982	0.004338
650	3.278417	0.005000	2.007609	9.773945	-1.229178	-0.781208	-0.660753	0.873523	0.018607	-0.009252	-0.001829
651	3.283417	0.005000	2.040480	9.810000	-1.177200	-0.781427	-0.660863	0.873890	0.013351	-0.014580	0.000923
652	3.288417	0.005000	1.946910	9.770760	-1.263225	-0.781647	-0.660972	0.874258	0.032534	-0.016394	0.001835
653	3.293417	0.005000	1.913375	9.741472	-1.295486	-0.781866	-0.661082	0.874625	0.025334	-0.012291	0.003798
654	3.298417	0.005000	1.962000	9.797777	-1.282697	-0.782085	-0.661192	0.874992	0.025383	-0.009484	0.003674
655	3.303417	0.005000	2.026171	9.820621	-1.280611	-0.782197	-0.661087	0.874400	0.025474	-0.013351	-0.003188
656	3.308417	0.005000	2.007043	9.810000	-1.255680	-0.782307	-0.660977	0.873788	0.030390	-0.005904	0.006921
657	3.313417	0.005000	2.021571	9.731520	-1.276011	-0.782417	-0.660867	0.873175	0.023320	-0.008112	-0.001602
658	3.318417	0.005000	2.100794	9.710446	-1.289104	-0.782526	-0.660757	0.872563	0.016379	-0.007121	0.008650
659	3.323417	0.005000	2.095755	9.699450	-1.280579	-0.782636	-0.660648	0.871950	0.013299	-0.004289	-0.002103
660	3.328417	0.005000	2.052100	9.745330	-1.334160	-0.782746	-0.660538	0.871338	0.016038	-0.011156	0.005336
661	3.333417	0.005000	2.068318	9.798598	-1.200003	-0.782855	-0.660428	0.870725	0.012596	-0.015103	0.003716
662	3.338417	0.005000	2.012434	9.810000	-1.276223	-0.782965	-0.660318	0.870113	0.013444	-0.006193	0.009090
663	3.343417	0.005000	2.107891	9.763717	-1.309005	-0.783075	-0.660209	0.869500	0.008026	-0.009532	0.012595
664	3.348417	0.005000	2.103803	9.653040	-1.368348	-0.783184	-0.660099	0.868888	0.012212	-0.005092	-0.000148
665	3.353417	0.005000	2.071636	9.661124	-1.221829	-0.783294	-0.659989	0.868275	0.016659	-0.009440	0.007796
666	3.358417	0.005000	2.040771	9.770760	-1.255971	-0.783404	-0.659879	0.867663	0.015280	-0.013756	0.001868
667	3.363417	0.005000	2.004547	9.733173	-1.294920	-0.783513	-0.659770	0.867050	0.021973	-0.015422	-0.004121
668	3.368417	0.005000	2.114936	9.735544	-1.137960	-0.783787	-0.659906	0.867263	0.018818	-0.013590	0.005588
669	3.373417	0.005000	2.007255	9.803985	-1.255680	-0.784336	-0.660455	0.868855	0.012540	-0.014200	-0.001458
670	3.378417	0.005000	1.984399	9.770760	-1.348138	-0.784884	-0.661003	0.870448	0.022267	-0.019849	-0.002888
671	3.383417	0.005000	2.040480	9.859950	-1.284210	-0.785433	-0.661552	0.872040	0.008320	-0.013773	-0.000905
672	3.388417	0.005000	2.118960	9.849240	-1.241998	-0.785981	-0.662100	0.873633	0.001353	-0.016656	-0.004716
673	3.393417	0.005000	2.103772	9.801135	-1.237951	-0.786530	-0.662649	0.875225	0.018049	-0.015957	0.003174
674	3.398417	0.005000	2.079720	9.731520	-1.229389	-0.787079	-0.663198	0.876818	0.010595	-0.016168	-0.001892
675	3.403417	0.005000	2.099263	9.731520	-1.373553	-0.787627	-0.663746	0.878410	0.009230	-0.012676	-0.003207
676	3.408417	0.005000	2.123630	9.709565	-1.378070	-0.788176	-0.664295	0.880003	0.015373	-0.012474	0.001068
677	3.413417	0.005000	2.055637	9.707437	-1.358243	-0.788724	-0.664843	0.881596	0.016769	-0.018578	0.001056
678	3.418417	0.005000	2.118960	9.692280	-1.412640	-0.789273	-0.665392	0.883188	0.009155	-0.011622	0.006091
679	3.423417	0.005000	2.129821	9.653040	-1.334160	-0.789821	-0.665940	0.884781	0.012775	-0.008096	0.003973
680	3.428417	0.005000	2.049066	9.709451	-1.255680	-0.790370	-0.666489	0.886373	0.008602	-0.005956	0.002234
681	3.433417	0.005000	2.046650	9.698450	-1.334160	-0.790919	-0.667038	0.887966	0.002437	-0.008338	-0.001964
682	3.438417	0.005000	2.114734	9.727294	-1.273792	-0.791805	-0.667502	0.889181	0.003457	-0.012848	-0.002557
683	3.443417	0.005000	2.077899	9.690459	-1.221904	-0.792792	-0.667940	0.890284	0.000866	-0.003768	0.004203
684	3.448417	0.005000	2.118715	9.613922	-1.295042	-0.793779	-0.668379	0.891386	-0.002757	-0.006387	-0.005545
685	3.453417	0.005000	2.124041	9.692280	-1.218980	-0.794767	-0.668818	0.892489	0.009809	-0.014344	0.005921
686	3.458417	0.005000	2.093172	9.770760	-1.211956	-0.795754	-0.669257	0.893592	0.009562	-0.008455	0.000125
687	3.463417	0.005000	2.072830	9.692280	-1.223330	-0.796742	-0.669696	0.894694	0.008015	-0.009480	-0.004728
688	3.468417	0.005000	2.158200	9.782408	-1.264877	-0.797729	-0.670135	0.895797	-0.001331	-0.008174	0.002480
689	3.473417	0.005000	2.040480	9.770760	-1.104474	-0.798716	-0.670573	0.896899	0.011259	-0.011666	0.003342
690	3.478417	0.005000	2.066063	9.810000	-1.264147	-0.799704	-0.671012	0.898002	0.010411	-0.008568	0.000022
691	3.483417	0.005000	2.127371	9.747404	-1.287447	-0.800691	-0.671451	0.899104	0.013437	-0.003926	-0.010840
692	3.488417	0.005000	2.040480	9.791987	-1.237667	-0.801678	-0.671890	0.900207	-0.000072	-0.011437	-0.001029
693	3.493417	0.005000	1.980816	9.751944	-1.218048	-0.802666	-0.672329	0.901309	-0.003435	-0.005246	0.007915
694	3.498417	0.005000	2.096405	9.748205	-1.311605	-0.803653	-0.672767	0.902412	-0.000709	-0.017814	0.008880
695	3.503417	0.005000	2.090370	9.810000	-1.284270	-0.804207	-0.672989	0.902909	-0.002013	-0.012071	0.005543
696	3.508417	0.005000	2.040480	9.731520	-1.346220	-0.802561	-0.672111	0.900336	0.000076	-0.008937	0.002561
697	3.513417	0.005000	2.078964	9.780759	-1.206441	-0.800914	-0.671233	0.897762	-0.002620	-0.011600	0.005837
698	3.518417	0.005000	1.938162	9.699981	-1.145661	-0.799268	-0.670355	0.895188	0.000323	-0.008858	-0.002651
699	3.523417	0.005000	2.051071	9.726225	-1.300215	-0.797622	-0.669477	0.892614	0.009604	-0.014807	0.007782
700	3.528417	0.005000	2.033777	9.774112	-1.252328	-0.795975	-0.668599	0.890040	0.004039	-0.003199	-0.000405
701	3.533417	0.005000	2.004042	9.808132	-1.294920	-0.794329	-0.667721	0.887467	0.002695	-0.011606	0.003906
702	3.538417	0.005000	2.157190	9.693290	-1.294920	-0.792683	-0.666843	0.884893	-0.003956	-0.013440	0.005193
703	3.543417	0.005000	2.118960	9.767346	-1.219854	-0.791036	-0.665965	0.882319	0.002495	-0.006994	-0.006683
704	3.548417	0.005000	2.146673	9.770760	-1.238390	-0.789390	-0.665087	0.879745	0.002597	-0.017292	0.005029
705	3.553417	0.005000	2.048255	9.802225	-1.255680	-0.787744	-0.664209	0.877171	0.000431	-0.007094	0.002276
706	3.558417	0.005000	2.108900	9.731520	-1.294920	-0.786097	-0.663331	0.874598	0.005907	-0.011470	0.003675
707	3.563417	0.005000	2.091846	9.716531	-1.267806	-0.784451	-0.662453	0.872024	-0.000305	-0.004591	-0.002477
708	3.568417	0.005000	2.051009	9.774587	-1.191556	-0.782805	-0.661575	0.869450	0.010253	-0.006795	-0.006292
709	3.573417	0.005000	2.112668	9.669514	-1.232914	-0.782214	-0.661256	0.868333	-0.000386	-0.012425	0.001350
710	3.578417	0.005000	2.001240	9.634155	-1.238264	-0.782434	-0.661366	0.868333	0.001951	-0.004877	-0.006611
711	3.583417	0.005000	2.001240	9.650622	-1.334160	-0.782653	-0.661476	0.868333	0.010838	-0.015431	0.003282
712	3.588417	0.005000	2.008482	9.738762	-1.382157	-0.782872	-0.661585	0.868333	0.006347	-0.002339	0.000916
713	3.593417	0.005000	1.976055	9.734444	-1.423771	-0.783092	-0.661695	0.868333	0.008823	-0.003189	0.001678
714	3.598417	0.005000	2.103013	9.731520	-1.299220	-0.783311	-0.661805	0.868333	0.005004	-0.001293	0.006833
715	3.603417	0.005000	2.139019	9.731520	-1.246089	-0.783531	-0.661915	0.868333	0.017228	-0.009310	0.000600
716	3.608417	0.005000	2.118960	9.731520	-1.216440	-0.783750	-0.662024	0.868333	0.018426	-0.014955	0.000881
717	3.613417	0.005000	2.104314	9.770760	-1.191846	-0.783969	-0.662134	0.868333	0.010093	-0.010832	-0.003143
718	3.618417	0.005000	1.964904	9.849240	-1.264393	-0.784189	-0.662244	0.868333	0.014710	-0.015916	0.001569
719	3.623417	0.005000	1.961479	9.810000	-1.294920	-0.784408	-0.662354	0.868333	0.016111	-0.002946	-0.003095
720	3.628417	0.005000	1.997519	9.772621	-1.294920	-0.784628	-0.662463	0.868333	0.012874	-0.008686	-0.004155
721	3.633417	0.005000	1.969655	9.845412	-1.188683	-0.784847	-0.662573	0.868333	0.019209	-0.009937	0.004926
722	3.638417	0.005000	1.871058	9.816231	-1.261911	-0.785066	-0.662683	0.868333	0.015389	0.005508	0.001797
723	3.643417	0.005000	2.023386	9.740067	-1.180694	-0.784759	-0.662371	0.868215	0.024217	-0.006411	0.008878
724	3.648417	0.005000	2.069129	9.731520	-1.205849	-0.784429	-0.662041	0.868093	0.019212	-0.006584	0.001016
725	3.653417	0.005000	1.987686	9.757917	-1.281366	-0.784100	-0.661712	0.867970	0.032109	-0.012057	-0.001225
726	3.658417	0.005000	2.046068	9.770760	-1.319217	-0.783771	-0.661383	0.867848	0.011735	-0.012588	0.012737
727	3.663417	0.005000	1.935585	9.753405	-1.316805	-0.783442	-0.661054	0.867725	0.021821	-0.017365	0.001562
728	3.668417	0.005000	2.079538	9.790289	-1.432351	-0.783113	-0.660725	0.867603	0.022711	-0.012960	0.005241
729	3.673417	0.005000	2.022950	9.731520	-1.281570	-0.782784	-0.660396	0.867481	0.010556	-0.003874	-0.006025
730	3.678417	0.005000	2.064320	9.723079	-1.201040	-0.782455	-0.660067	0.867358	0.016418	-0.022145	0.003164
731	3.683417	0.005000	2.027303	9.744697	-1.190086	-0.782125	-0.659737	0.867236	0.015927	-0.010972	-0.000418
732	3.688417	0.005000	2.090483	9.770760	-1.266443	-0.781796	-0.659408	0.867113	0.008734	-0.006249	-0.005491
733	3.693417	0.005000	2.014340	9.871053	-1.334160	-0.781467	-0.659079	0.866991	0.012429	-0.008728	-0.003424
734	3.698417	0.005000	1.994828	9.770760	-1.288508	-0.781138	-0.658750	0.866868	0.014312	-0.006414	-0.013375
735	3.703417	0.005000	2.027229	9.770760	-1.255680	-0.780809	-0.658421	0.866746	0.019774	-0.010507	0.000514
736	3.708417	0.005000	1.962000	9.803802	-1.216440	-0.780597	-0.658326	0.866754	0.017003	-0.012335	-0.005613
737	3.713417	0.005000	2.078676	9.653388	-1.216440	-0.780597	-0.658655	0.866999	0.016338	-0.021326	-0.000235
738	3.718417	0.005000	1.966591	9.768464	-1.257976	-0.780597	-0.658985	0.867244	0.021266	-0.007661	-0.003317
739	3.723417	0.005000	2.005884	9.731520	-1.299564	-0.780597	-0.659314	0.867489	0.020494	-0.010889	-0.005574
740	3.728417	0.005000	2.105671	9.731520	-1.268969	-0.780597	-0.659643	0.867734	0.016983	-0.014521	-0.007838
741	3.733417	0.005000	2.067346	9.792089	-1.285965	-0.780597	-0.659972	0.867979	0.007900	-0.004029	-0.002110
742	3.738417	0.005000	2.018473	9.748753	-1.233673	-0.780597	-0.660301	0.868224	0.016110	-0.008651	0.005949
743	3.743417	0.005000	2.079720	9.784172	-1.359988	-0.780597	-0.660630	0.868469	0.006612	-0.007863	0.001672
744	3.748417	0.005000	2.064364	9.818528	-1.358044	-0.780597	-0.660960	0.868714	0.002647	-0.007846	-0.005437
745	3.753417	0.005000	2.036776	9.792232	-1.234208	-0.780597	-0.661289	0.868959	0.005388	-0.012185	0.002222
746	3.758417	0.005000	2.020542	9.711582	-1.196502	-0.780597	-0.661618	0.869204	0.010775	-0.005708	-0.002098
747	3.763417	0.005000	2.028370	9.804994	-1.233557	-0.780597	-0.661947	0.869449	0.011354	-0.008871	0.008179
748	3.768417	0.005000	1.991982	9.795009	-1.240689	-0.780597	-0.662276	0.869694	0.008799	-0.006067	0.005158
749	3.773417	0.005000	1.962000	9.730586	-1.255680	-0.780597	-0.662605	0.869939	0.007852	-0.010720	0.008668
750	3.778417	0.005000	2.069025	9.713670	-1.255680	-0.780927	-0.662440	0.869816	0.004034	-0.011842	0.003064
751	3.783417	0.005000	2.110543	9.717532	-1.208023	-0.781365	-0.662111	0.869571	0.011316	-0.008038	0.002888
752	3.788417	0.005000	2.125359	9.737919	-1.203642	-0.781804	-0.661782	0.869326	0.009835	-0.005676	-0.001329
753	3.793417	0.005000	2.040480	9.727463	-1.075709	-0.782243	-0.661453	0.869081	0.002226	-0.016026	0.006680
754	3.798417	0.005000	2.004546	9.693933	-1.218093	-0.782681	-0.661124	0.868836	0.016169	-0.014336	0.003853
755	3.803417	0.005000	2.118669	9.770469	-1.255680	-0.783120	-0.660795	0.868592	0.007009	-0.010678	0.004090
756	3.808417	0.005000	2.155522	9.849240	-1.294920	-0.783558	-0.660466	0.868347	0.012406	-0.009232	-0.003210
757	3.813417	0.005000	1.936717	9.883828	-1.343465	-0.783997	-0.660137	0.868102	0.007326	-0.015620	0.002189
758	3.818417	0.005000	1.883520	9.881422	-1.255680	-0.784436	-0.659808	0.867857	0.001719	-0.005473	-0.004581
759	3.823417	0.005000	2.061715	9.810000	-1.294920	-0.784874	-0.659479	0.867612	0.007330	-0.006879	-0.003268
760	3.828417	0.005000	2.079720	9.726531	-1.294920	-0.785313	-0.659150	0.867367	0.012605	-0.012273	-0.001554
761	3.833417	0.005000	2.132321	9.705641	-1.307439	-0.785752	-0.658821	0.867122	0.007396	-0.012023	0.004593
762	3.838417	0.005000	2.040480	9.770760	-1.240278	-0.786190	-0.658492	0.866877	0.015835	-0.011005	0.000620
763	3.843417	0.005000	1.983533	9.792293	-1.220266	-0.786490	-0.658224	0.866684	0.020617	-0.008239	-0.000691
764	3.848417	0.005000	2.138082	9.712398	-1.314042	-0.785941	-0.658334	0.866807	0.018638	-0.011419	0.003766
765	3.853417	0.005000	2.090309	9.714547	-1.356427	-0.785392	-0.658444	0.866929	0.015371	-0.012332	-0.003172
766	3.858417	0.005000	2.040480	9.707049	-1.329094	-0.784843	-0.658554	0.867052	0.008561	-0.017633	0.003706
767	3.863417	0.005000	2.001240	9.731520	-1.269567	-0.784294	-0.658663	0.867174	0.007148	-0.015134	-0.005877
768	3.868417	0.005000	2.108549	9.820411	-1.344571	-0.783746	-0.658773	0.867297	0.006701	-0.010328	-0.003259
769	3.873417	0.005000	2.063712	9.801996	-1.302924	-0.783197	-0.658883	0.867419	0.002619	-0.010606	0.004886
770	3.878417	0.005000	2.073660	9.770760	-1.361279	-0.782648	-0.658992	0.867542	0.000729	-0.008365	0.000680
771	3.883417	0.005000	2.072432	9.767116	-1.259324	-0.782099	-0.659102	0.867664	0.009037	-0.014042	0.006853
772	3.888417	0.005000	2.081419	9.810000	-1.289822	-0.781550	-0.659212	0.867787	0.002804	-0.003692	0.004387
773	3.893417	0.005000	2.118960	9.732912	-1.215744	-0.781002	-0.659322	0.867909	0.009762	-0.013166	-0.006300
774	3.898417	0.005000	2.040480	9.807351	-1.253031	-0.780453	-0.659431	0.868032	0.010347	-0.012217	0.005141
775	3.903417	0.005000	2.113953	9.697287	-1.284906	-0.779904	-0.659541	0.868154	0.008696	-0.017593	-0.007372
776	3.908417	0.005000	2.054499	9.717501	-1.359381	-0.779355	-0.659651	0.868277	0.009155	-0.014417	0.006646
777	3.913417	0.005000	2.128376	9.711112	-1.294920	-0.779104	-0.659879	0.868200	0.012873	0.000059	0.009278
778	3.918417	0.005000	2.141671	9.720164	-1.334160	-0.779104	-0.660209	0.867955	0.007800	-0.015671	0.007022
779	3.923417	0.005000	2.040480	9.770760	-1.385112	-0.779104	-0.660538	0.867710	0.003047	-0.009471	-0.004579
780	3.928417	0.005000	2.016948	9.794292	-1.334160	-0.779104	-0.660867	0.867465	0.011004	-0.008351	-0.001501
781	3.933417	0.005000	2.043480	9.770760	-1.316040	-0.779104	-0.661196	0.867220	0.013747	-0.014180	0.005809
782	3.938417	0.005000	2.100006	9.753137	-1.354446	-0.779104	-0.661525	0.866975	0.016976	-0.012289	-0.005830
783	3.943417	0.005000	2.040480	9.731520	-1.272445	-0.779104	-0.661854	0.866730	0.017006	-0.015414	0.001609
784	3.948417	0.005000	2.030526	9.726831	-1.221129	-0.779104	-0.662184	0.866485	0.014635	-0.002639	0.005608
785	3.953417	0.005000	2.131372	9.613800	-1.241263	-0.779104	-0.662513	0.866240	0.011214	-0.009613	-0.000553
786	3.958417	0.005000	2.157450	9.770760	-1.235685	-0.779104	-0.662842	0.865995	-0.001079	-0.009611	0.008746
787	3.963417	0.005000	2.032427	9.793894	-1.240599	-0.779104	-0.663171	0.865750	0.009183	-0.002135	-0.003259
788	3.968417	0.005000	2.013312	9.737556	-1.367364	-0.779104	-0.663500	0.865505	0.003522	-0.011768	-0.000384
789	3.973417	0.005000	2.076016	9.763353	-1.223847	-0.779104	-0.663829	0.865260	0.002420	-0.011546	0.000822
790	3.978417	0.005000	2.082292	9.730234	-1.334160	-0.779104	-0.664158	0.865015	0.001707	-0.012706	0.005018
791	3.983417	0.005000	2.158200	9.730877	-1.295563	-0.779516	-0.664076	0.865115	0.006170	-0.013319	0.005864
792	3.988417	0.005000	2.085771	9.737571	-1.134935	-0.779954	-0.663967	0.865237	0.011153	-0.016716	0.004755
793	3.993417	0.005000	2.035476	9.663049	-1.177200	-0.780393	-0.663857	0.865360	0.011430	-0.010095	0.001527
794	3.998417	0.005000	2.008562	9.606478	-1.287598	-0.780832	-0.663747	0.865482	-0.000252	-0.008947	0.004222
795	4.003417	0.005000	2.001240	9.770760	-1.246325	-0.781271	-0.663638	0.865605	0.013704	-0.018082	0.002727
796	4.008417	0.005000	2.024506	9.715546	-1.373400	-0.781710	-0.663528	0.865728	0.017743	-0.018215	0.004525
797	4.013417	0.005000	2.026767	9.796287	-1.192810	-0.782149	-0.663418	0.865850	0.011226	-0.020280	0.003644
798	4.018417	0.005000	1.962000	9.794071	-1.263062	-0.782588	-0.663309	0.865973	0.003752	-0.012985	-0.004747
799	4.023417	0.005000	2.025522	9.852348	-1.273746	-0.783027	-0.663199	0.866095	0.010484	-0.010352	0.000916
800	4.028417	0.005000	2.099960	9.791000	-1.255680	-0.783466	-0.663089	0.866218	0.000940	-0.019712	0.006719
801	4.033417	0.005000	2.141381	9.832421	-1.216440	-0.783904	-0.662980	0.866340	0.000400	-0.004887	-0.002068
802	4.038417	0.005000	2.090146	9.770760	-1.245254	-0.784343	-0.662870	0.866463	0.012514	-0.007296	-0.003936
803	4.043417	0.005000	1.986925	9.743982	-1.334160	-0.784782	-0.662760	0.866585	0.009287	-0.009774	0.006408
804	4.048417	0.005000	2.002235	9.780819	-1.285856	-0.785002	-0.662687	0.866748	0.011459	-0.011154	0.007915
805	4.053417	0.005000	2.094617	9.786989	-1.263794	-0.784783	-0.662687	0.866993	0.008378	-0.003360	0.008731
806	4.058417	0.005000	2.006948	9.798583	-1.244263	-0.784564	-0.662687	0.867238	0.017285	-0.007229	0.005209
807	4.063417	0.005000	2.005005	9.731520	-1.369635	-0.784344	-0.662687	0.867483	0.015570	-0.015072	0.008527
808	4.068417	0.005000	1.999893	9.734215	-1.258375	-0.784125	-0.662687	0.867728	0.011135	0.003007	-0.001337
809	4.073417	0.005000	2.039286	9.810000	-1.334160	-0.783906	-0.662687	0.867972	0.020145	-0.014122	0.004010
810	4.078417	0.005000	2.004205	9.767795	-1.337125	-0.783687	-0.662687	0.868217	0.025517	-0.003643	0.002816
811	4.083417	0.005000	2.006185	9.731520	-1.319324	-0.783468	-0.662687	0.868462	0.017992	-0.002293	-0.002456
812	4.088417	0.005000	1.969276	9.795448	-1.277509	-0.783248	-0.662687	0.868707	0.006057	-0.008987	0.004372
813	4.093417	0.005000	2.001240	9.761455	-1.195810	-0.783029	-0.662687	0.868951	0.001992	-0.008711	0.002793
814	4.098417	0.005000	1.989668	9.837668	-1.239585	-0.782810	-0.662687	0.869196	0.009903	-0.013504	0.007588
815	4.103417	0.005000	2.054137	9.810000	-1.216440	-0.782591	-0.662687	0.869441	0.008306	-0.001407	0.003410
816	4.108417	0.005000	2.047581	9.786829	-1.255680	-0.782372	-0.662687	0.869686	0.014999	-0.008230	0.000660
817	4.113417	0.005000	2.121683	9.731520	-1.294920	-0.782152	-0.662687	0.869930	0.008916	-0.008037	0.004564
818	4.118417	0.005000	2.140991	9.712704	-1.373400	-0.782404	-0.662687	0.870526	0.014736	-0.007850	-0.000937
819	4.123417	0.005000	2.040480	9.754075	-1.356715	-0.782843	-0.662687	0.871261	0.018064	-0.010243	0.002422
820	4.128417	0.005000	1.997076	9.706748	-1.241212	-0.783281	-0.662687	0.871995	0.016887	-0.006734	-0.001353
821	4.133417	0.005000	2.106586	9.743894	-1.280428	-0.783720	-0.662687	0.872730	0.017364	-0.011763	0.002905
822	4.138417	0.005000	2.127852	9.820116	-1.255680	-0.784158	-0.662687	0.873465	0.009582	-0.007745	-0.002370
823	4.143417	0.005000	2.150499	9.794598	-1.208739	-0.784597	-0.662687	0.874199	0.012431	-0.007385	0.005247
824	4.148417	0.005000	2.085477	9.698037	-1.165687	-0.785036	-0.662687	0.874934	0.011567	-0.013494	0.003148
825	4.153417	0.005000	2.076368	9.734872	-1.229846	-0.785474	-0.662687	0.875669	0.013208	-0.013039	-0.000916
826	4.158417	0.005000	2.039088	9.727345	-1.408465	-0.785913	-0.662687	0.876404	0.008181	-0.017781	0.000936
827	4.163417	0.005000	2.077700	9.690260	-1.333150	-0.786352	-0.662687	0.877138	0.008296	-0.007892	0.006094
828	4.168417	0.005000	2.007147	9.770760	-1.334160	-0.786790	-0.662687	0.877873	0.016639	-0.008369	0.004741
829	4.173417	0.005000	2.040480	9.804641	-1.193276	-0.787229	-0.662687	0.878608	0.005875	-0.013083	0.002532
830	4.178417	0.005000	2.048165	9.794631	-1.381901	-0.787667	-0.662687	0.879342	0.019915	-0.003909	-0.000827
831	4.183417	0.005000	2.020676	9.770760	-1.314724	-0.788141	-0.662756	0.880129	0.016819	-0.014029	0.004423
832	4.188417	0.005000	2.055758	9.731520	-1.349438	-0.788909	-0.663414	0.881354	0.013744	-0.004928	-0.003673
833	4.193417	0.005000	2.054545	9.717455	-1.306031	-0.789676	-0.664073	0.882579	0.016094	-0.015465	-0.000682
834	4.198417	0.005000	2.024006	9.675806	-1.255680	-0.790444	-0.664731	0.883804	0.015282	-0.012002	0.001928
835	4.203417	0.005000	1.962000	9.713102	-1.318146	-0.791212	-0.665389	0.885029	0.022672	-0.010635	-0.000919
836	4.208417	0.005000	2.017233	9.731520	-1.297338	-0.791980	-0.666047	0.886254	0.028301	-0.016831	0.002922
837	4.213417	0.005000	2.102683	9.653040	-1.232717	-0.792748	-0.666705	0.887479	0.022577	-0.004769	0.005264
838	4.218417	0.005000	2.155276	9.798869	-1.334160	-0.793516	-0.667364	0.888704	0.012504	-0.010903	0.002857
839	4.223417	0.005000	2.134269	9.810000	-1.270989	-0.794284	-0.668022	0.889929	0.007889	-0.007509	0.004851
840	4.228417	0.005000	2.089423	9.790594	-1.235846	-0.795052	-0.668680	0.891154	0.013957	-0.002735	0.008884
841	4.233417	0.005000	2.111672	9.731520	-1.287632	-0.795820	-0.669338	0.892379	0.007680	-0.005882	0.005153
842	4.238417	0.005000	2.001240	9.697623	-1.227127	-0.796587	-0.669997	0.893605	0.006306	-0.005838	0.000433
843	4.243417	0.005000	2.037542	9.655978	-1.228194	-0.797355	-0.670655	0.894830	0.009041	-0.017631	0.005467
844	4.248417	0.005000	2.039485	9.771755	-1.295915	-0.798123	-0.671313	0.896055	0.004944	-0.003878	0.001797
845	4.253417	0.005000	2.001240	9.734334	-1.409826	-0.797903	-0.671532	0.895625	0.000921	-0.010955	0.007200
846	4.258417	0.005000	2.118960	9.728167	-1.304979	-0.796697	-0.671313	0.893543	0.006192	-0.007076	-0.000445
847	4.263417	0.005000	2.169739	9.698050	-1.210670	-0.795490	-0.671093	0.891460	0.002662	-0.002830	-0.002370
848	4.268417	0.005000	2.135116	9.770760	-1.271836	-0.794283	-0.670874	0.889377	0.007470	-0.015065	0.002880
849	4.273417	0.005000	2.167080	9.799880	-1.255680	-0.793076	-0.670655	0.887295	0.016732	-0.008609	-0.002581
850	4.278417	0.005000	2.094182	9.719131	-1.321771	-0.791870	-0.670435	0.885212	0.011146	-0.013039	0.009120
851	4.283417	0.005000	2.104482	9.785238	-1.363116	-0.790663	-0.670216	0.883129	0.004288	-0.004852	0.001245
852	4.288417	0.005000	2.035014	9.731520	-1.283499	-0.789456	-0.669996	0.881046	0.010257	-0.010569	-0.004168
853	4.293417	0.005000	2.099885	9.712445	-1.334160	-0.788250	-0.669777	0.878964	0.012974	-0.008625	0.002040
854	4.298417	0.005000	2.082964	9.713522	-1.394642	-0.787043	-0.669558	0.876881	0.004835	-0.009576	0.005519
855	4.303417	0.005000	2.056348	9.715652	-1.200572	-0.785836	-0.669338	0.874798	0.019992	-0.016043	0.009472
856	4.308417	0.005000	2.026839	9.692280	-1.216440	-0.784629	-0.669119	0.872716	0.000359	-0.009029	-0.001263
857	4.313417	0.005000	2.102187	9.748293	-1.300613	-0.783423	-0.668899	0.870633	0.004033	-0.022084	-0.004439
858	4.318417	0.005000	2.059059	9.710859	-1.276341	-0.782216	-0.668680	0.868550	0.015601	-0.014921	-0.004098
859	4.323417	0.005000	2.137577	9.789377	-1.274297	-0.783466	-0.669247	0.870308	0.017332	-0.012436	-0.003606
860	4.328417	0.005000	1.957114	9.702052	-1.216440	-0.785001	-0.669905	0.872513	0.011301	-0.023406	0.004574
861	4.333417	0.005000	1.969579	9.658092	-1.287341	-0.786537	-0.670563	0.874718	0.012685	-0.008413	0.000104
862	4.338417	0.005000	2.079145	9.731520	-1.177775	-0.788073	-0.671221	0.876923	0.010344	-0.016968	0.004358
863	4.343417	0.005000	2.077898	9.768938	-1.253858	-0.789609	-0.671879	0.879128	0.004777	-0.012646	0.000751
864	4.348417	0.005000	2.079720	9.770760	-1.189771	-0.791145	-0.672538	0.881333	0.007160	-0.010544	0.007428
865	4.353417	0.005000	2.040480	9.776943	-1.255680	-0.792681	-0.673196	0.883539	0.009117	-0.018981	-0.001751
866	4.358417	0.005000	2.049069	9.770760	-1.242207	-0.794216	-0.673854	0.885744	0.004162	-0.011692	-0.003183
867	4.363417	0.005000	2.040480	9.742053	-1.137960	-0.795752	-0.674512	0.887949	0.016133	-0.014522	0.006247
868	4.368417	0.005000	2.040480	9.705227	-1.203493	-0.797288	-0.675171	0.890154	0.008305	-0.014799	-0.007302
869	4.373417	0.005000	2.064547	9.731520	-1.279747	-0.798824	-0.675829	0.892359	0.009671	-0.012152	-0.001600
870	4.378417	0.005000	1.979301	9.714219	-1.238379	-0.800360	-0.676487	0.894564	0.016485	-0.012186	0.000470
871	4.383417	0.005000	2.001424	9.731520	-1.354055	-0.801896	-0.677145	0.896769	0.007111	-0.015533	0.008783
872	4.388417	0.005000	1.975514	9.749105	-1.294920	-0.802634	-0.677261	0.897656	0.018413	-0.021773	0.000325
873	4.393417	0.005000	2.182268	9.770760	-1.388572	-0.801427	-0.676054	0.895329	0.007995	-0.010776	0.003060
874	4.398417	0.005000	2.118960	9.849240	-1.334160	-0.800221	-0.674848	0.893001	0.020229	-0.020558	0.004747
875	4.403417	0.005000	1.990416	9.838416	-1.312511	-0.799014	-0.673641	0.890673	0.020657	-0.008891	0.000550
876	4.408417	0.005000	2.009657	9.779177	-1.216440	-0.797807	-0.672434	0.888346	0.008563	-0.009358	-0.003046
877	4.413417	0.005000	1.974947	9.731520	-1.249206	-0.796600	-0.671227	0.886018	0.000459	-0.017353	0.003705
878	4.418417	0.005000	2.083777	9.801886	-1.216440	-0.795393	-0.670020	0.883691	0.002720	-0.003601	-0.002708
879	4.423417	0.005000	2.042568	9.727345	-1.288657	-0.794187	-0.668814	0.881363	0.008024	-0.012756	0.002586
880	4.428417	0.005000	2.001822	9.691989	-1.177200	-0.792980	-0.667607	0.879036	0.023726	-0.002064	-0.003032
881	4.433417	0.005000	1.999005	9.729285	-1.220911	-0.791773	-0.666400	0.876708	0.006448	-0.008959	-0.003360
882	4.438417	0.005000	2.045132	9.761455	-1.294920	-0.790566	-0.665193	0.874381	0.008598	-0.012179	-0.007406
883	4.443417	0.005000	1.994266	9.784707	-1.205095	-0.789359	-0.663986	0.872053	0.018741	-0.009235	-0.004449
884	4.448417	0.005000	2.091953	9.791995	-1.155965	-0.788153	-0.662780	0.869725	0.017452	-0.016349	0.000653
885	4.453417	0.005000	2.012657	9.692280	-1.216440	-0.786946	-0.661573	0.867398	0.019784	-0.005665	0.000000
886	4.458417	0.005000	2.040480	9.784121	-1.163839	-0.786417	-0.661344	0.866751	0.019903	-0.008758	-0.005287
887	4.463417	0.005000	1.954299	9.786529	-1.200671	-0.786197	-0.661564	0.866873	0.018665	-0.003876	-0.002322
888	4.468417	0.005000	2.122288	9.767432	-1.273636	-0.785978	-0.661783	0.866996	0.019457	-0.010630	-0.005573
889	4.473417	0.005000	2.078725	9.731520	-1.275798	-0.785759	-0.662002	0.867118	0.016219	-0.009841	0.000268
890	4.478417	0.005000	2.040480	9.765465	-1.300215	-0.785539	-0.662222	0.867241	0.012719	-0.005061	-0.004692
891	4.483417	0.005000	1.996603	9.810000	-1.240911	-0.785320	-0.662441	0.867363	0.010011	-0.013986	0.004971
892	4.488417	0.005000	2.052835	9.797645	-1.228795	-0.785101	-0.662660	0.867485	0.000606	-0.007266	-0.003235
893	4.493417	0.005000	2.100542	9.731520	-1.323749	-0.784881	-0.662880	0.867608	0.021492	-0.013614	0.009780
894	4.498417	0.005000	2.189436	9.700284	-1.334160	-0.784662	-0.663099	0.867730	0.011032	-0.008660	0.004728
895	4.503417	0.005000	2.158200	9.770760	-1.322039	-0.784443	-0.663318	0.867853	0.016972	-0.016284	0.005385
896	4.508417	0.005000	2.190152	9.806356	-1.216440	-0.784223	-0.663538	0.867975	0.014125	-0.005686	-0.000532
897	4.513417	0.005000	2.079720	9.772439	-1.175521	-0.784004	-0.663757	0.868097	0.014316	-0.002418	-0.001523
898	4.518417	0.005000	2.041184	9.732929	-1.176496	-0.783785	-0.663976	0.868220	0.018988	-0.015809	-0.003506
899	4.523417	0.005000	1.962000	9.807351	-1.286974	-0.783566	-0.664204	0.868324	0.020277	-0.004666	-0.000747
900	4.528417	0.005000	1.922760	9.770760	-1.368334	-0.783346	-0.664533	0.868201	0.012252	-0.003087	0.007474
901	4.533417	0.005000	2.040480	9.763378	-1.334160	-0.783127	-0.664862	0.868079	0.019578	-0.003723	-0.001287
902	4.538417	0.005000	2.049896	9.830408	-1.175623	-0.782907	-0.665191	0.867956	0.024108	-0.005502	0.005045
903	4.543417	0.005000	2.083925	9.860918	-1.220645	-0.782688	-0.665520	0.867834	0.021131	0.004133	0.007888
904	4.548417	0.005000	2.146488	9.823764	-1.283208	-0.782468	-0.665850	0.867711	0.016121	0.001561	0.005850
905	4.553417	0.005000	2.040480	9.786937	-1.324870	-0.782249	-0.666179	0.867589	0.019753	-0.012061	0.007614
906	4.558417	0.005000	2.061356	9.692280	-1.274044	-0.782030	-0.666508	0.867467	0.012742	-0.000240	0.001847
907	4.563417	0.005000	2.076076	9.752051	-1.216440	-0.781810	-0.666837	0.867344	0.002984	-0.003980	-0.000229
908	4.568417	0.005000	2.063421	9.675981	-1.226097	-0.781591	-0.667166	0.867222	0.011945	-0.008532	-0.000200
909	4.573417	0.005000	2.054835	9.638685	-1.362871	-0.781371	-0.667495	0.867099	0.013970	-0.007292	-0.006134
910	4.578417	0.005000	2.016596	9.664982	-1.279564	-0.781152	-0.667824	0.866977	0.015020	-0.016616	0.008152
911	4.583417	0.005000	1.952122	9.731520	-1.294920	-0.780933	-0.668154	0.866854	0.019382	-0.008759	-0.000213
912	4.588417	0.005000	1.993649	9.755578	-1.208849	-0.780713	-0.668483	0.866732	0.017657	-0.010782	-0.001666
913	4.593417	0.005000	2.035305	9.692280	-1.289745	-0.780597	-0.668244	0.866725	0.018888	-0.012040	0.003374
914	4.598417	0.005000	2.118960	9.725136	-1.282153	-0.780597	-0.667367	0.866847	0.017435	-0.009884	-0.000501
915	4.603417	0.005000	2.157374	9.730694	-1.216440	-0.780597	-0.666490	0.866969	0.021580	-0.007884	0.005660
916	4.608417	0.005000	2.080838	9.730402	-1.292685	-0.780597	-0.665612	0.867092	0.018975	-0.007718	-0.002891
917	4.613417	0.005000	2.079720	9.695801	-1.255680	-0.780597	-0.664735	0.867214	0.021045	-0.008389	-0.000807
918	4.618417	0.005000	2.034611	9.725651	-1.328291	-0.780597	-0.663858	0.867337	0.022489	-0.003765	-0.005922
919	4.623417	0.005000	2.111078	9.770760	-1.326278	-0.780597	-0.662980	0.867459	0.023114	-0.001801	-0.003439
920	4.628417	0.005000	2.079720	9.751851	-1.257102	-0.780597	-0.662103	0.867581	0.013464	-0.006202	0.000568
921	4.633417	0.005000	2.064946	9.719287	-1.243447	-0.780597	-0.661226	0.867704	0.009408	-0.004681	0.003347
922	4.638417	0.005000	2.050767	9.717043	-1.319683	-0.780597	-0.660348	0.867826	0.022372	-0.012958	-0.001224
923	4.643417	0.005000	2.051009	9.737580	-1.311510	-0.780597	-0.659471	0.867949	0.016118	-0.006205	-0.005970
924	4.648417	0.005000	1.962000	9.770760	-1.293680	-0.780597	-0.658594	0.868071	0.015526	-0.006669	-0.004656
925	4.653417	0.005000	1.940837	9.752683	-1.216440	-0.780597	-0.657716	0.868193	0.023317	-0.003807	0.007019
926	4.658417	0.005000	2.103074	9.779177	-1.310806	-0.780597	-0.656839	0.868316	0.020291	-0.007872	-0.002884
927	4.663417	0.005000	2.130638	9.782438	-1.269461	-0.780503	-0.656716	0.868754	0.019827	-0.005032	-0.002997
928	4.668417	0.005000	2.162854	9.703809	-1.255680	-0.780393	-0.656716	0.869244	0.015065	-0.004355	0.001518
929	4.673417	0.005000	2.052356	9.779881	-1.207319	-0.780283	-0.656716	0.869734	0.023924	-0.007636	0.000571
930	4.678417	0.005000	1.954820	9.731520	-1.213102	-0.780173	-0.656716	0.870224	0.020677	-0.007106	0.005955
931	4.683417	0.005000	2.074945	9.653040	-1.334160	-0.780064	-0.656716	0.870714	0.015880	-0.008052	0.002495
932	4.688417	0.005000	2.034817	9.695111	-1.292089	-0.779954	-0.656716	0.871205	0.017623	-0.012310	-0.002913
933	4.693417	0.005000	2.040067	9.653867	-1.294507	-0.779844	-0.656716	0.871695	0.016056	-0.009295	0.001716
934	4.698417	0.005000	2.038950	9.769230	-1.293390	-0.779734	-0.656716	0.872185	0.017926	-0.018537	0.007475
935	4.703417	0.005000	2.079720	9.774695	-1.330225	-0.779625	-0.656716	0.872675	0.011085	-0.013509	0.005765
936	4.708417	0.005000	2.040480	9.770760	-1.261559	-0.779515	-0.656716	0.873165	0.013278	-0.009806	0.000418
937	4.713417	0.005000	1.953705	9.770760	-1.350750	-0.779405	-0.656716	0.873655	0.015520	-0.009372	0.003771
938	4.718417	0.005000	1.922760	9.692280	-1.255680	-0.779296	-0.656716	0.874145	0.010526	-0.007077	0.000581
939	4.723417	0.005000	2.001240	9.678332	-1.387348	-0.779186	-0.656716	0.874635	0.003091	-0.009652	0.000233
940	4.728417	0.005000	2.118960	9.706871	-1.363341	-0.779048	-0.656800	0.874969	-0.000678	-0.008113	-0.003673
941	4.733417	0.005000	2.113726	9.692280	-1.205972	-0.778829	-0.657129	0.874846	0.007832	-0.008007	-0.003418
942	4.738417	0.005000	2.137264	9.711461	-1.334160	-0.778609	-0.657458	0.874724	0.010158	-0.005852	0.001380
943	4.743417	0.005000	2.101078	9.774235	-1.216440	-0.778390	-0.657787	0.874601	0.013611	-0.009807	0.004160
944	4.748417	0.005000	2.008955	9.754997	-1.169485	-0.778170	-0.658117	0.874479	0.011403	-0.011356	0.008901
945	4.753417	0.005000	2.064823	9.731520	-1.308454	-0.777951	-0.658446	0.874356	0.011343	-0.009881	0.008325
946	4.758417	0.005000	2.068594	9.709268	-1.401514	-0.777732	-0.658775	0.874234	0.014263	-0.013158	-0.007452
947	4.763417	0.005000	2.010423	9.740703	-1.283228	-0.777512	-0.659104	0.874111	0.013464	-0.009294	0.002088
948	4.768417	0.005000	2.066186	9.685513	-1.386934	-0.777293	-0.659433	0.873989	0.011848	-0.013947	0.000799
949	4.773417	0.005000	2.030950	9.701810	-1.388815	-0.777073	-0.659762	0.873866	0.014030	-0.013932	0.005340
950	4.778417	0.005000	2.040480	9.733938	-1.290084	-0.776854	-0.660091	0.873743	0.005357	-0.010652	-0.002492
951	4.783417	0.005000	2.039073	9.771229	-1.256149	-0.776635	-0.660421	0.873621	0.006055	-0.013423	-0.000648
952	4.788417	0.005000	1.997353	9.772704	-1.257624	-0.776415	-0.660750	0.873498	-0.009504	-0.002325	-0.003734
953	4.793417	0.005000	2.001240	9.810000	-1.181496	-0.776196	-0.661079	0.873376	0.001634	-0.001654	-0.003935
954	4.798417	0.005000	2.007532	9.803708	-1.261972	-0.776262	-0.661194	0.873014	-0.001603	-0.008028	0.005251
955	4.803417	0.005000	2.088428	9.818708	-1.216440	-0.776481	-0.661194	0.872524	0.012405	-0.012912	0.006022
956	4.808417	0.005000	1.993955	9.742172	-1.205788	-0.776701	-0.661194	0.872034	0.007916	-0.006403	0.007890
957	4.813417	0.005000	2.027420	9.783820	-1.216501	-0.776920	-0.661194	0.871544	-0.009744	-0.010474	0.001306
958	4.818417	0.005000	2.040480	9.795002	-1.328406	-0.777140	-0.661194	0.871053	0.000568	-0.012892	-0.000668
959	4.823417	0.005000	2.023072	9.731520	-1.290495	-0.777359	-0.661194	0.870563	0.005802	-0.009129	-0.000595
960	4.828417	0.005000	1.981711	9.731520	-1.334039	-0.777579	-0.661194	0.870073	0.007309	-0.011999	-0.001700
961	4.833417	0.005000	2.036195	9.731520	-1.308112	-0.777798	-0.661194	0.869583	0.004642	-0.017578	-0.002781
962	4.838417	0.005000	2.072898	9.692280	-1.373400	-0.778018	-0.661194	0.869093	0.011329	-0.008387	0.000196
963	4.843417	0.005000	2.092841	9.731520	-1.255558	-0.778237	-0.661194	0.868602	0.007433	-0.015405	-0.001163
964	4.848417	0.005000	1.983426	9.731520	-1.234254	-0.778457	-0.661194	0.868112	0.005488	-0.014190	-0.004188
965	4.853417	0.005000	2.101421	9.740289	-1.264449	-0.778676	-0.661194	0.867622	0.009377	-0.015921	0.003347
966	4.858417	0.005000	2.073366	9.777114	-1.249326	-0.778896	-0.661194	0.867132	0.013115	-0.016023	0.003351
967	4.863417	0.005000	2.114603	9.810000	-1.111790	-0.779115	-0.661194	0.866680	0.006525	-0.012355	-0.007579
968	4.868417	0.005000	2.158200	9.727510	-1.139965	-0.779335	-0.661194	0.866925	0.005019	-0.016298	0.002075
969	4.873417	0.005000	2.002874	9.730703	-1.099537	-0.779554	-0.661194	0.867170	0.009615	-0.006664	-0.002271
970	4.878417	0.005000	1.888234	9.766046	-1.140317	-0.779774	-0.661194	0.867415	0.009359	-0.018289	0.001324
971	4.883417	0.005000	1.991831	9.722111	-1.098720	-0.779993	-0.661194	0.867660	0.014787	-0.005848	0.004958
972	4.888417	0.005000	2.105548	9.810000	-1.170494	-0.780213	-0.661194	0.867905	0.015240	-0.003731	-0.000699
973	4.893417	0.005000	2.079720	9.722519	-1.285919	-0.780432	-0.661194	0.868150	0.002550	-0.003971	0.007775
974	4.898417	0.005000	2.158200	9.770760	-1.194332	-0.780652	-0.661194	0.868395	-0.001002	-0.004730	-0.000148
975	4.903417	0.005000	2.158200	9.796532	-1.204135	-0.780871	-0.661194	0.868640	0.006878	-0.009126	0.000209
976	4.908417	0.005000	2.079720	9.723654	-1.302786	-0.781091	-0.661194	0.868885	0.011665	-0.008000	-0.005239
977	4.913417	0.005000	2.061899	9.735118	-1.326964	-0.781310	-0.661194	0.869130	0.017339	-0.012616	0.002830
978	4.918417	0.005000	2.158200	9.731520	-1.294164	-0.781530	-0.661194	0.869374	0.008707	-0.009432	-0.003027
979	4.923417	0.005000	2.136024	9.670104	-1.255680	-0.781749	-0.661194	0.869619	0.012563	-0.005635	-0.004013
980	4.928417	0.005000	2.158200	9.746172	-1.397988	-0.781969	-0.661194	0.869864	0.014421	-0.011552	-0.000952
981	4.933417	0.005000	2.092427	9.797293	-1.255680	-0.782580	-0.661341	0.871040	0.003921	-0.002525	0.003160
982	4.938417	0.005000	2.158200	9.770760	-1.235081	-0.783677	-0.661670	0.873368	0.015015	-0.012765	0.002027
983	4.943417	0.005000	2.166459	9.748039	-1.177200	-0.784774	-0.661999	0.875695	0.013433	-0.006029	0.004872
984	4.948417	0.005000	2.152260	9.770760	-1.216440	-0.785871	-0.662329	0.878023	0.013112	-0.003700	0.000986
985	4.953417	0.005000	2.071824	9.810000	-1.173252	-0.786968	-0.662658	0.880351	0.004581	-0.004435	0.009226
986	4.958417	0.005000	1.998055	9.810000	-1.181977	-0.788065	-0.662987	0.882678	0.005518	0.000183	0.005040
987	4.963417	0.005000	2.038075	9.848438	-1.256482	-0.789162	-0.663316	0.885006	0.009880	-0.008732	0.006280
988	4.968417	0.005000	2.040480	9.807244	-1.255680	-0.790259	-0.663645	0.887333	0.008789	-0.006905	0.009350
989	4.973417	0.005000	1.972226	9.804887	-1.260793	-0.791356	-0.663974	0.889661	0.029492	-0.008034	0.004567
990	4.978417	0.005000	2.058371	9.810000	-1.312811	-0.792454	-0.664303	0.891989	0.015878	-0.005674	0.004966
991	4.983417	0.005000	2.089129	9.740929	-1.294920	-0.793551	-0.664633	0.894316	0.012669	-0.005517	0.004304
992	4.988417	0.005000	2.029013	9.669345	-1.283453	-0.794648	-0.664962	0.896644	0.018457	-0.009213	0.004748
993	4.993417	0.005000	2.107482	9.720042	-1.294920	-0.795745	-0.665291	0.898972	0.007828	-0.004276	-0.003912
994	4.998417	0.005000	2.087311	9.708105	-1.247446	-0.796842	-0.665620	0.901299	0.020940	-0.016595	0.002003
995	5.003417	0.005000	2.025017	9.773531	-1.177200	-0.796553	-0.665580	0.899913	0.015430	-0.016282	0.002727
996	5.008417	0.005000	2.099899	9.771878	-1.275859	-0.796005	-0.665470	0.897831	0.015313	-0.014250	0.002506
997	5.013417	0.005000	2.113022	9.793349	-1.373400	-0.795456	-0.665360	0.895748	0.011244	-0.011927	-0.001775
998	5.018417	0.005000	2.065183	9.756223	-1.363235	-0.794907	-0.665250	0.893665	0.016721	-0.004702	-0.007874
999	5.023417	0.005000	2.092014	9.692280	-1.361106	-0.794359	-0.665141	0.891583	0.017720	-0.015758	0.005057
1000	5.028417	0.005000	2.129201	9.663281	-1.323919	-0.793810	-0.665031	0.889500	0.012828	-0.004766	-0.004825
1001	5.033417	0.005000	2.204896	9.723574	-1.294920	-0.793262	-0.664921	0.887417	0.012604	-0.006439	-0.003747
1002	5.038417	0.005000	2.017860	9.731520	-1.221980	-0.792713	-0.664811	0.885335	0.018216	-0.009017	0.001883
1003	5.043417	0.005000	2.076124	9.767164	-1.341353	-0.792165	-0.664702	0.883252	0.013807	-0.004624	0.001938
1004	5.048417	0.005000	2.078541	9.693459	-1.374579	-0.791616	-0.664592	0.881169	0.018103	-0.007534	0.002850
1005	5.053417	0.005000	2.155904	9.731520	-1.297216	-0.791067	-0.664482	0.879087	0.009322	-0.005623	0.001591
1006	5.058417	0.005000	2.158200	9.734689	-1.399963	-0.790519	-0.664372	0.877004	0.014966	-0.014159	0.002373
1007	5.063417	0.005000	2.079720	9.770760	-1.373400	-0.789970	-0.664263	0.874921	0.016696	-0.007795	-0.007364
1008	5.068417	0.005000	2.032950	9.731520	-1.302450	-0.789422	-0.664153	0.873246	0.016738	-0.009247	-0.001019
1009	5.073417	0.005000	2.079720	9.810000	-1.275315	-0.788873	-0.664043	0.872878	0.002005	-0.006218	0.001740
1010	5.078417	0.005000	2.079720	9.731520	-1.137960	-0.788324	-0.663934	0.872510	0.017243	-0.001461	0.003341
1011	5.083417	0.005000	2.082866	9.770760	-1.191329	-0.787776	-0.663824	0.872143	0.017148	-0.009730	0.002006
1012	5.088417	0.005000	2.118960	9.692280	-1.340924	-0.787227	-0.663714	0.871775	0.012165	-0.003486	0.002566
1013	5.093417	0.005000	2.038090	9.653040	-1.352585	-0.786678	-0.663604	0.871407	0.011453	-0.012367	0.000421
1014	5.098417	0.005000	2.079720	9.692280	-1.375328	-0.786129	-0.663495	0.871040	0.018691	-0.011234	-0.001031
1015	5.103417	0.005000	2.102716	9.747764	-1.294920	-0.785581	-0.663385	0.870672	0.005629	-0.014108	-0.007970
1016	5.108417	0.005000	2.129601	9.720879	-1.416299	-0.785032	-0.663275	0.870304	0.013516	-0.014041	0.004800
1017	5.113417	0.005000	2.091611	9.719629	-1.376966	-0.784483	-0.663165	0.869937	0.012795	-0.003152	0.002828
1018	5.118417	0.005000	2.109127	9.731520	-1.363567	-0.783934	-0.663056	0.869569	0.005568	-0.013137	-0.001989
1019	5.123417	0.005000	2.079720	9.810000	-1.373400	-0.783386	-0.662946	0.869201	0.000934	-0.004812	-0.001993
1020	5.128417	0.005000	2.141636	9.776281	-1.272244	-0.782837	-0.662836	0.868833	0.011630	-0.007962	0.000962
1021	5.133417	0.005000	1.962000	9.764393	-1.363850	-0.782288	-0.662727	0.868466	0.005827	-0.009682	0.001092
1022	5.138417	0.005000	2.082171	9.732745	-1.255680	-0.782090	-0.662687	0.868098	0.010090	-0.015331	-0.005752
1023	5.143417	0.005000	2.120138	9.694637	-1.103434	-0.782090	-0.662687	0.867731	0.007648	-0.012583	0.006761
1024	5.148417	0.005000	2.079720	9.695820	-1.205821	-0.782090	-0.662687	0.867364	-0.001654	-0.013927	-0.000422
1025	5.153417	0.005000	1.973054	9.731520	-1.210913	-0.782090	-0.662687	0.866996	0.000761	-0.020161	-0.004083
1026	5.158417	0.005000	1.962000	9.802149	-1.200738	-0.782090	-0.662687	0.866629	0.000443	-0.010333	0.011232
1027	5.163417	0.005000	1.991365	9.780635	-1.216440	-0.782090	-0.662687	0.866262	0.000311	-0.010741	-0.008173
1028	5.168417	0.005000	1.988951	9.770760	-1.204151	-0.782090	-0.662687	0.865894	0.011192	-0.022300	0.001303
1029	5.173417	0.005000	1.987007	9.784993	-1.266454	-0.782090	-0.662687	0.865527	0.006697	-0.012751	-0.001783
1030	5.178417	0.005000	2.017882	9.708922	-1.272322	-0.782090	-0.662687	0.865160	0.006212	-0.014183	0.005748
1031	5.183417	0.005000	2.042053	9.731520	-1.214867	-0.782090	-0.662687	0.864792	-0.004357	-0.011227	0.002403
1032	5.188417	0.005000	2.100717	9.770760	-1.273923	-0.782090	-0.662687	0.864425	0.006791	-0.007826	0.004982
1033	5.193417	0.005000	2.047499	9.786870	-1.239570	-0.782090	-0.662687	0.864057	0.016694	-0.009102	0.008639
1034	5.198417	0.005000	2.093606	9.835354	-1.294920	-0.782090	-0.662687	0.863690	0.011663	-0.011867	0.001697
1035	5.203417	0.005000	2.123766	9.770760	-1.149438	-0.782102	-0.662681	0.863343	0.007857	-0.010778	0.007217
1036	5.208417	0.005000	2.049904	9.731520	-1.188167	-0.782541	-0.662461	0.863711	0.015000	-0.006576	0.006089
1037	5.213417	0.005000	2.072601	9.756522	-1.152198	-0.782980	-0.662242	0.864078	0.006898	-0.006607	0.000988
1038	5.218417	0.005000	2.001240	9.731520	-1.216440	-0.783419	-0.662022	0.864446	0.010408	-0.007310	-0.000608
1039	5.223417	0.005000	1.964770	9.731520	-1.261220	-0.783857	-0.661803	0.864813	0.008835	-0.004944	0.009999
1040	5.228417	0.005000	2.039663	9.770760	-1.411006	-0.784296	-0.661583	0.865181	0.010919	-0.009011	0.004237
1041	5.233417	0.005000	2.038888	9.770760	-1.296512	-0.784735	-0.661364	0.865548	0.009356	-0.015093	-0.004196
1042	5.238417	0.005000	2.040480	9.770760	-1.255680	-0.785174	-0.661145	0.865916	0.012375	-0.016073	-0.000348
1043	5.243417	0.005000	2.113022	9.770760	-1.183138	-0.785613	-0.660925	0.866283	0.011797	-0.013170	-0.003055
1044	5.248417	0.005000	1.986733	9.715031	-1.317671	-0.786052	-0.660706	0.866651	0.013838	-0.016974	0.002774
1045	5.253417	0.005000	1.982577	9.702568	-1.237017	-0.786490	-0.660486	0.867018	0.014544	-0.012824	0.002755
1046	5.258417	0.005000	1.935316	9.797444	-1.191329	-0.786929	-0.660267	0.867386	0.010387	-0.008249	0.000229
1047	5.263417	0.005000	1.991292	9.760812	-1.280274	-0.787368	-0.660047	0.867753	0.018894	-0.008441	0.001957
1048	5.268417	0.005000	1.962000	9.725983	-1.294920	-0.787807	-0.659828	0.868121	0.018171	0.000505	0.007052
1049	5.273417	0.005000	2.041720	9.691040	-1.372160	-0.788060	-0.659840	0.868333	0.005877	-0.004837	0.007567
1050	5.278417	0.005000	2.097549	9.695861	-1.198611	-0.788060	-0.660169	0.868333	0.009534	-0.015672	0.003209
1051	5.283417	0.005000	2.079720	9.708166	-1.145428	-0.788060	-0.660499	0.868333	0.013697	-0.006168	0.000916
1052	5.288417	0.005000	2.157021	9.731520	-1.137960	-0.788060	-0.660828	0.868333	0.017449	-0.011570	0.005460
1053	5.293417	0.005000	2.146671	9.770760	-1.239497	-0.788060	-0.661157	0.868333	0.017718	-0.007334	0.004052
1054	5.298417	0.005000	2.158200	9.819121	-1.294920	-0.788060	-0.661486	0.868333	0.021863	-0.012604	0.002877
1055	5.303417	0.005000	2.079720	9.888480	-1.255680	-0.788060	-0.661815	0.868333	0.014180	-0.012244	-0.001022
1056	5.308417	0.005000	2.006015	9.770760	-1.290145	-0.788060	-0.662144	0.868333	0.012344	-0.010334	0.002647
1057	5.313417	0.005000	1.962000	9.807169	-1.258511	-0.788060	-0.662473	0.868333	0.016160	-0.009111	0.008028
1058	5.318417	0.005000	2.079720	9.809587	-1.373400	-0.788060	-0.662803	0.868333	0.017779	-0.004997	-0.008101
1059	5.323417	0.005000	2.042010	9.695341	-1.373400	-0.788060	-0.663132	0.868333	0.015270	-0.016169	0.008492
1060	5.328417	0.005000	2.118960	9.723745	-1.173312	-0.788060	-0.663461	0.868333	0.002083	-0.007624	0.001960
1061	5.333417	0.005000	1.979637	9.737399	-1.187044	-0.788060	-0.663790	0.868333	0.012547	-0.016583	0.011541
1062	5.338417	0.005000	2.102562	9.716877	-1.075878	-0.788060	-0.664119	0.868333	0.011821	-0.017614	0.001816
1063	5.343417	0.005000	2.042194	9.644516	-1.185724	-0.787611	-0.663730	0.868433	0.017271	-0.008108	0.000623
1064	5.348417	0.005000	2.079720	9.797505	-1.230690	-0.787063	-0.663182	0.868556	0.018585	-0.015497	0.012980
1065	5.353417	0.005000	2.104369	9.770760	-1.270271	-0.786514	-0.662633	0.868678	0.014366	-0.009839	0.001195
1066	5.358417	0.005000	2.101957	9.787763	-1.311923	-0.785965	-0.662084	0.868801	0.014905	-0.014944	0.003201
1067	5.363417	0.005000	2.178493	9.810000	-1.374747	-0.785417	-0.661536	0.868923	0.014547	-0.006440	-0.001522
1068	5.368417	0.005000	2.065313	9.792118	-1.255680	-0.784868	-0.660987	0.869046	0.015527	-0.008181	0.003408
1069	5.373417	0.005000	2.040480	9.849240	-1.318397	-0.784320	-0.660439	0.869168	0.013145	-0.003251	-0.001961
1070	5.378417	0.005000	2.040480	9.796466	-1.257043	-0.783771	-0.659890	0.869291	0.004453	-0.001191	-0.000055
1071	5.383417	0.005000	2.040480	9.782211	-1.327595	-0.783223	-0.659342	0.869414	0.019390	-0.016496	0.001815
1072	5.388417	0.005000	2.109777	9.789125	-1.225623	-0.782674	-0.658793	0.869536	0.008902	-0.008709	0.000774
1073	5.393417	0.005000	2.086875	9.802845	-1.255680	-0.782125	-0.658244	0.869659	0.008641	-0.008970	0.006854
1074	5.398417	0.005000	2.079720	9.770760	-1.334160	-0.781577	-0.657696	0.869781	0.006200	-0.004503	0.002422
1075	5.403417	0.005000	2.030808	9.775596	-1.375818	-0.781028	-0.657147	0.869904	0.009615	-0.011618	-0.010713
1076	5.408417	0.005000	1.962949	9.731520	-1.177200	-0.780574	-0.656810	0.869948	0.017449	-0.010729	0.009086
1077	5.413417	0.005000	2.003161	9.694201	-1.251838	-0.780464	-0.657248	0.869703	0.018947	-0.013206	-0.002816
1078	5.418417	0.005000	1.930535	9.617687	-1.322498	-0.780354	-0.657687	0.869458	0.019508	-0.020286	0.002069
1079	5.423417	0.005000	1.974435	9.803783	-1.313572	-0.780244	-0.658126	0.869213	0.007349	-0.004930	0.010771
1080	5.428417	0.005000	2.009477	9.747994	-1.294920	-0.780135	-0.658564	0.868968	0.008231	-0.004500	0.003698
1081	5.433417	0.005000	1.990711	9.710463	-1.341814	-0.780025	-0.659003	0.868723	0.008038	-0.006522	0.004197
1082	5.438417	0.005000	1.974595	9.718925	-1.241631	-0.779915	-0.659442	0.868478	0.005130	-0.009333	0.001242
1083	5.443417	0.005000	1.962000	9.731520	-1.192198	-0.779806	-0.659881	0.868234	0.003328	-0.011808	0.001334
1084	5.448417	0.005000	2.001240	9.736876	-1.300276	-0.779696	-0.660319	0.867989	0.000379	-0.005256	-0.005431
1085	5.453417	0.005000	2.079184	9.731520	-1.235256	-0.779586	-0.660758	0.867744	0.010875	-0.014315	-0.001312
1086	5.458417	0.005000	2.040480	9.706871	-1.252327	-0.779477	-0.661197	0.867499	0.015051	-0.010469	-0.004358
1087	5.463417	0.005000	2.071548	9.700452	-1.137960	-0.779367	-0.661635	0.867254	0.005878	-0.015975	0.000531
1088	5.468417	0.005000	2.014673	9.679906	-1.164826	-0.779257	-0.662074	0.867009	0.012429	-0.018724	0.003772
1089	5.473417	0.005000	2.118960	9.737231	-1.188376	-0.779148	-0.662513	0.866764	0.006595	-0.009530	0.000848
1090	5.478417	0.005000	2.139957	9.740642	-1.135207	-0.779303	-0.663415	0.866889	0.008159	-0.008122	0.004721
1091	5.483417	0.005000	2.021717	9.763934	-1.276157	-0.779632	-0.664622	0.867256	-0.000573	-0.006071	-0.003322
1092	5.488417	0.005000	2.005649	9.783988	-1.212031	-0.779961	-0.665829	0.867624	0.004914	-0.012883	-0.005276
1093	5.493417	0.005000	2.116495	9.697210	-1.218905	-0.780290	-0.667037	0.867992	0.007768	-0.014935	0.000623
1094	5.498417	0.005000	2.040419	9.849240	-1.294981	-0.780620	-0.668244	0.868359	0.015793	-0.010896	-0.004895
