# FOX Logger (IMU file)
# (c) INRIA 2011-2014
# File created from file sensbiotk output
#
# File format:
# id	t	dt	ax	ay	az	mx	my	mz	gx	gy	gz
#
# Units:
#	Time: s
#	Acceleration: m.s^-2
#	Magneto: gauss
#	Gyrometer: rad/s
#
1	0.008057	0.008057	2.629080	-9.058214	-1.286812	-0.538806	0.062687	-0.365000	-0.016231	0.023526	-0.017151
2	0.013057	0.005000	2.561816	-8.991568	-1.300528	-0.539935	0.061219	-0.363991	-0.007022	0.017858	-0.013159
3	0.018057	0.005000	2.589840	-9.069025	-1.308676	-0.541065	0.059750	-0.362982	-0.011547	0.017586	-0.006806
4	0.023057	0.005000	2.589840	-9.068468	-1.416668	-0.542194	0.058282	-0.361973	-0.021747	0.015031	-0.013505
5	0.028057	0.005000	2.589840	-9.028205	-1.406629	-0.543324	0.056814	-0.360964	-0.007265	0.011359	-0.013715
6	0.033057	0.005000	2.629080	-9.062442	-1.451880	-0.544453	0.055345	-0.359955	-0.014504	0.011683	-0.014305
7	0.038057	0.005000	2.666879	-9.025200	-1.488239	-0.545583	0.053877	-0.358946	-0.018419	0.011597	-0.017156
8	0.043057	0.005000	2.513033	-9.104098	-1.334997	-0.546712	0.052408	-0.357937	-0.012499	0.013886	-0.024688
9	0.048057	0.005000	2.668320	-9.065648	-1.296733	-0.547842	0.050940	-0.356928	-0.013978	0.009298	-0.008120
10	0.053057	0.005000	2.667159	-9.141759	-1.373400	-0.548971	0.049472	-0.355919	-0.022038	0.018973	-0.026512
11	0.058057	0.005000	2.707560	-9.103680	-1.412640	-0.550101	0.048003	-0.354910	-0.012499	0.009657	-0.019205
12	0.063057	0.005000	2.707560	-9.139729	-1.520786	-0.551230	0.046535	-0.353901	-0.001676	0.021800	-0.008299
13	0.068057	0.005000	2.602481	-8.985960	-1.447666	-0.552360	0.045067	-0.352892	-0.002467	0.018522	-0.017857
14	0.073057	0.005000	2.668320	-8.960988	-1.422152	-0.553489	0.043598	-0.351883	-0.002162	0.008543	-0.009997
15	0.078057	0.005000	2.511360	-9.058662	-1.412640	-0.552843	0.044616	-0.352757	-0.017135	0.021604	-0.015590
16	0.083057	0.005000	2.557012	-9.058028	-1.491120	-0.551714	0.046310	-0.354145	-0.017118	0.019051	-0.020245
17	0.088057	0.005000	2.653628	-9.088988	-1.451880	-0.550584	0.048004	-0.355532	-0.010288	0.012504	-0.006266
18	0.093057	0.005000	2.676685	-9.142920	-1.350891	-0.549455	0.049698	-0.356920	-0.019201	0.022455	-0.020779
19	0.098057	0.005000	2.589840	-9.082286	-1.473274	-0.548325	0.051393	-0.358307	-0.023857	0.014083	-0.014886
20	0.103057	0.005000	2.609731	-9.054494	-1.403237	-0.547196	0.053087	-0.359694	-0.009556	0.013037	-0.015127
21	0.108057	0.005000	2.589840	-9.075058	-1.441262	-0.546066	0.054781	-0.361082	-0.017074	0.017298	-0.022244
22	0.113057	0.005000	2.539090	-9.159140	-1.491120	-0.544937	0.056475	-0.362469	-0.017131	0.018632	-0.016548
23	0.118057	0.005000	2.604015	-9.144562	-1.412640	-0.543808	0.058170	-0.363856	-0.015023	0.013223	-0.026507
24	0.123057	0.005000	2.485675	-9.103680	-1.453305	-0.542678	0.059864	-0.365244	-0.008165	0.011442	-0.014327
25	0.128057	0.005000	2.575743	-9.053395	-1.373400	-0.541549	0.061558	-0.366631	-0.016638	0.024820	-0.030029
26	0.133057	0.005000	2.595959	-9.031319	-1.376281	-0.540419	0.063252	-0.368019	-0.012591	0.010317	-0.009691
27	0.138057	0.005000	2.589840	-9.071949	-1.397621	-0.539290	0.064947	-0.369406	-0.013014	0.022337	-0.020309
28	0.143057	0.005000	2.674160	-9.041900	-1.390100	-0.538741	0.065414	-0.370072	-0.018970	0.012257	-0.013297
29	0.148057	0.005000	2.607547	-9.046733	-1.434173	-0.538628	0.064962	-0.370198	-0.010792	0.009240	-0.003539
30	0.153057	0.005000	2.631791	-9.046176	-1.355136	-0.538515	0.064510	-0.370324	-0.009614	0.011616	-0.025150
31	0.158057	0.005000	2.648367	-9.024534	-1.431927	-0.538402	0.064058	-0.370451	-0.010212	0.007397	-0.009057
32	0.163057	0.005000	2.629080	-9.083371	-1.336917	-0.538289	0.063606	-0.370577	-0.014997	0.019563	-0.015050
33	0.168057	0.005000	2.548137	-9.085292	-1.412640	-0.538176	0.063154	-0.370703	-0.011938	0.013932	-0.021363
34	0.173057	0.005000	2.685686	-9.029708	-1.534868	-0.538063	0.062702	-0.370829	-0.016552	0.008523	-0.011532
35	0.178057	0.005000	2.602946	-8.979407	-1.435536	-0.537950	0.062251	-0.370955	-0.010544	0.014001	-0.018804
36	0.183057	0.005000	2.629080	-9.001761	-1.420277	-0.537838	0.061799	-0.371081	-0.012344	0.018606	-0.006109
37	0.188057	0.005000	2.535821	-9.064440	-1.397861	-0.537725	0.061347	-0.371208	-0.010664	0.012255	-0.016362
38	0.193057	0.005000	2.525116	-9.080226	-1.385127	-0.537612	0.060895	-0.371334	-0.009400	0.007801	-0.014520
39	0.198057	0.005000	2.524559	-9.195002	-1.386599	-0.537499	0.060443	-0.371460	-0.015116	0.023806	-0.020360
40	0.203057	0.005000	2.565478	-9.118558	-1.409943	-0.537386	0.059991	-0.371586	-0.013366	0.018230	-0.011104
41	0.208057	0.005000	2.589840	-9.075609	-1.401471	-0.537515	0.059701	-0.371577	-0.010435	0.019273	-0.008668
42	0.213057	0.005000	2.550600	-9.054171	-1.392103	-0.538079	0.059701	-0.371325	-0.019612	0.020831	-0.028476
43	0.218057	0.005000	2.560189	-9.074029	-1.432702	-0.538644	0.059701	-0.371072	-0.004213	0.011600	-0.021365
44	0.223057	0.005000	2.519927	-9.016633	-1.421207	-0.539209	0.059701	-0.370820	-0.017632	0.024962	-0.017632
45	0.228057	0.005000	2.566926	-9.096042	-1.499809	-0.539773	0.059701	-0.370568	-0.002181	0.014764	-0.014251
46	0.233057	0.005000	2.571606	-9.078444	-1.491120	-0.540338	0.059701	-0.370316	-0.010945	0.022105	-0.014377
47	0.238057	0.005000	2.701580	-9.115639	-1.385359	-0.540902	0.059701	-0.370064	-0.020106	0.020575	-0.021522
48	0.243057	0.005000	2.556038	-9.075315	-1.558725	-0.541467	0.059701	-0.369811	-0.007437	0.010029	-0.006304
49	0.248057	0.005000	2.668320	-9.103680	-1.417055	-0.542031	0.059701	-0.369559	-0.009342	0.020355	-0.017553
50	0.253057	0.005000	2.651357	-9.093502	-1.412640	-0.542596	0.059701	-0.369307	-0.013366	0.011306	-0.004426
51	0.258057	0.005000	2.469284	-8.991632	-1.524688	-0.543160	0.059701	-0.369055	-0.002071	0.014029	-0.027064
52	0.263057	0.005000	2.475776	-9.064440	-1.450052	-0.543725	0.059701	-0.368803	-0.007561	0.017699	-0.021937
53	0.268057	0.005000	2.629080	-9.143726	-1.374206	-0.544289	0.059701	-0.368550	-0.008399	0.017334	-0.003733
54	0.273057	0.005000	2.589344	-9.064688	-1.529369	-0.544698	0.059732	-0.368281	-0.007541	0.012711	-0.018316
55	0.278057	0.005000	2.626756	-9.065215	-1.373400	-0.544134	0.059958	-0.367903	-0.013023	0.006779	-0.005248
56	0.283057	0.005000	2.550600	-9.064440	-1.378791	-0.543569	0.060184	-0.367524	-0.011838	0.023649	-0.017822
57	0.288057	0.005000	2.665981	-9.140581	-1.412640	-0.543004	0.060410	-0.367146	-0.008655	0.013191	-0.003019
58	0.293057	0.005000	2.632442	-9.103680	-1.448518	-0.542439	0.060636	-0.366767	-0.010354	0.019864	-0.010219
59	0.298057	0.005000	2.598608	-9.177776	-1.460648	-0.541874	0.060862	-0.366389	-0.013717	0.022574	-0.025017
60	0.303057	0.005000	2.540747	-9.064440	-1.446954	-0.541310	0.061088	-0.366011	-0.016001	0.009655	-0.003465
61	0.308057	0.005000	2.683765	-9.109629	-1.485171	-0.540745	0.061314	-0.365632	-0.024423	0.014661	-0.013073
62	0.313057	0.005000	2.675291	-9.032171	-1.451880	-0.540180	0.061540	-0.365254	-0.012842	0.010313	-0.004208
63	0.318057	0.005000	2.558116	-9.041891	-1.618015	-0.539615	0.061766	-0.364876	-0.006887	0.012126	-0.009682
64	0.323057	0.005000	2.559136	-9.025200	-1.499656	-0.539051	0.061992	-0.364497	-0.025631	0.015707	-0.017896
65	0.328057	0.005000	2.541042	-9.084563	-1.481562	-0.538486	0.062218	-0.364119	-0.018758	0.015760	-0.013131
66	0.333057	0.005000	2.473344	-9.064440	-1.412640	-0.537921	0.062444	-0.363740	-0.005440	0.011218	-0.020766
67	0.338057	0.005000	2.539462	-9.092542	-1.401502	-0.537356	0.062670	-0.363362	-0.015113	0.014282	-0.014881
68	0.343057	0.005000	2.538775	-9.115505	-1.424465	-0.537522	0.062374	-0.363449	-0.011598	0.013436	-0.016549
69	0.348057	0.005000	2.668320	-9.130217	-1.438046	-0.537748	0.062035	-0.363576	-0.007582	0.013143	-0.008867
70	0.353057	0.005000	2.695771	-9.129195	-1.426365	-0.537974	0.061696	-0.363702	-0.002857	0.018062	-0.019696
71	0.358057	0.005000	2.600191	-9.082978	-1.358956	-0.538200	0.061357	-0.363828	-0.012944	0.020149	-0.023217
72	0.363057	0.005000	2.620420	-9.079730	-1.373400	-0.538426	0.061019	-0.363954	-0.005577	0.011763	-0.008085
73	0.368057	0.005000	2.534287	-9.087367	-1.435567	-0.538652	0.060680	-0.364080	-0.018326	0.018326	-0.023396
74	0.373057	0.005000	2.584745	-9.125848	-1.351232	-0.538877	0.060341	-0.364206	-0.006909	0.004742	-0.010260
75	0.378057	0.005000	2.650443	-9.100194	-1.359008	-0.539103	0.060002	-0.364333	-0.012465	0.010037	-0.008202
76	0.383057	0.005000	2.709001	-9.025200	-1.448999	-0.539329	0.059663	-0.364459	-0.018113	0.022195	-0.021899
77	0.388057	0.005000	2.648212	-9.083897	-1.432423	-0.539555	0.059324	-0.364585	-0.010606	0.008157	0.001646
78	0.393057	0.005000	2.608600	-9.064440	-1.431400	-0.539781	0.058985	-0.364711	-0.015472	0.017747	-0.020473
79	0.398057	0.005000	2.629080	-9.068204	-1.391138	-0.540007	0.058646	-0.364837	-0.014115	0.019496	-0.016325
80	0.403057	0.005000	2.634475	-9.042122	-1.429562	-0.540233	0.058307	-0.364963	-0.009389	0.011373	-0.011373
81	0.408057	0.005000	2.622186	-9.080613	-1.451880	-0.540379	0.058209	-0.364553	-0.004785	0.017690	-0.010499
82	0.413057	0.005000	2.653169	-9.118831	-1.536572	-0.540492	0.058209	-0.363922	-0.001468	0.014966	-0.010808
83	0.418057	0.005000	2.643208	-9.025200	-1.445590	-0.540605	0.058209	-0.363291	-0.006709	0.009635	-0.016606
84	0.423057	0.005000	2.627562	-9.065958	-1.361332	-0.540718	0.058209	-0.362661	-0.005778	0.011843	-0.013908
85	0.428057	0.005000	2.625982	-9.103680	-1.451880	-0.540831	0.058209	-0.362030	-0.004896	0.018498	-0.013807
86	0.433057	0.005000	2.774499	-9.170619	-1.491120	-0.540944	0.058209	-0.361400	-0.015904	0.007437	-0.006395
87	0.438057	0.005000	2.607082	-9.142920	-1.469122	-0.541057	0.058209	-0.360769	-0.010050	0.023419	-0.013717
88	0.443057	0.005000	2.550600	-9.113657	-1.412640	-0.541169	0.058209	-0.360138	-0.015567	0.010689	-0.015876
89	0.448057	0.005000	2.611172	-9.103680	-1.421594	-0.541282	0.058209	-0.359508	-0.015097	0.009844	-0.007518
90	0.453057	0.005000	2.558996	-9.173764	-1.395847	-0.541395	0.058209	-0.358877	-0.019081	0.022413	-0.022436
91	0.458057	0.005000	2.653572	-9.111054	-1.366026	-0.541508	0.058209	-0.358247	-0.004735	0.009690	-0.017573
92	0.463057	0.005000	2.589840	-9.070807	-1.458247	-0.541621	0.058209	-0.357616	-0.007202	0.017596	-0.014865
93	0.468057	0.005000	2.550600	-9.132103	-1.401823	-0.541734	0.058209	-0.356985	-0.013157	0.016459	-0.013539
94	0.473057	0.005000	2.594627	-9.064440	-1.412640	-0.541511	0.057985	-0.356854	-0.008921	0.007973	-0.000758
95	0.478057	0.005000	2.629080	-9.064440	-1.455644	-0.540947	0.057534	-0.357232	-0.014502	0.017202	-0.018741
96	0.483057	0.005000	2.547824	-9.140144	-1.412640	-0.540382	0.057082	-0.357611	-0.011080	0.017723	-0.009012
97	0.488057	0.005000	2.589840	-9.175561	-1.495520	-0.539818	0.056631	-0.357989	-0.005072	0.018539	-0.014540
98	0.493057	0.005000	2.629080	-9.024023	-1.492297	-0.539253	0.056179	-0.358367	-0.011159	0.009851	-0.015413
99	0.498057	0.005000	2.629237	-9.064440	-1.491277	-0.538689	0.055727	-0.358745	-0.012947	0.011763	-0.015117
100	0.503057	0.005000	2.707173	-9.064440	-1.530360	-0.538124	0.055276	-0.359124	-0.013596	0.007239	-0.017060
101	0.508057	0.005000	2.552010	-9.065850	-1.338389	-0.537560	0.054824	-0.359502	-0.004848	0.002745	-0.010249
102	0.513057	0.005000	2.553032	-9.062008	-1.415072	-0.536995	0.054373	-0.359880	0.001459	0.016457	-0.025009
103	0.518057	0.005000	2.589840	-9.016123	-1.521283	-0.536431	0.053921	-0.360258	-0.005368	0.016720	-0.013325
104	0.523057	0.005000	2.664323	-9.087693	-1.459874	-0.535866	0.053470	-0.360636	-0.018356	0.017185	-0.019613
105	0.528057	0.005000	2.584821	-9.137901	-1.451880	-0.535302	0.053018	-0.361015	-0.005286	0.009585	-0.018359
106	0.533057	0.005000	2.617792	-9.109324	-1.446236	-0.534737	0.052566	-0.361393	-0.009434	0.017469	-0.010268
107	0.538057	0.005000	2.609282	-9.097081	-1.412640	-0.534483	0.052425	-0.361632	-0.016341	0.017560	-0.030082
108	0.543057	0.005000	2.503738	-9.032822	-1.475876	-0.535048	0.053103	-0.361506	-0.003735	0.004668	-0.012366
109	0.548057	0.005000	2.573310	-9.134655	-1.491120	-0.535613	0.053781	-0.361380	-0.012869	0.017807	-0.016461
110	0.553057	0.005000	2.541414	-9.112866	-1.442694	-0.536178	0.054458	-0.361254	-0.009452	0.013687	-0.009325
111	0.558057	0.005000	2.531778	-9.093471	-1.491120	-0.536742	0.055136	-0.361128	-0.007443	0.009548	-0.014351
112	0.563057	0.005000	2.511360	-9.064440	-1.458867	-0.537307	0.055814	-0.361002	-0.011538	0.017546	-0.027726
113	0.568057	0.005000	2.629080	-9.036974	-1.495039	-0.537872	0.056491	-0.360875	-0.010786	0.008350	-0.020762
114	0.573057	0.005000	2.655841	-9.076919	-1.437598	-0.538437	0.057169	-0.360749	-0.013271	0.018923	-0.017763
115	0.578057	0.005000	2.680884	-9.142920	-1.412640	-0.539001	0.057847	-0.360623	-0.008843	0.009150	-0.012981
116	0.583057	0.005000	2.568803	-9.029042	-1.451880	-0.539566	0.058524	-0.360497	-0.008167	0.016961	-0.020110
117	0.588057	0.005000	2.629080	-9.073843	-1.388318	-0.540131	0.059202	-0.360371	-0.007067	0.002402	-0.015556
118	0.593057	0.005000	2.636438	-9.126979	-1.428581	-0.540696	0.059880	-0.360245	-0.014551	0.014472	-0.008216
119	0.598057	0.005000	2.696738	-9.075262	-1.541182	-0.541261	0.060558	-0.360118	-0.011435	0.016186	-0.017885
120	0.603057	0.005000	2.589840	-9.025200	-1.404182	-0.541798	0.061201	-0.360038	0.002986	0.008469	-0.012584
121	0.608057	0.005000	2.532072	-9.103680	-1.412640	-0.541911	0.061314	-0.360669	-0.014618	0.018052	-0.010344
122	0.613057	0.005000	2.610010	-9.083510	-1.412640	-0.542024	0.061427	-0.361300	-0.016992	0.010623	-0.007870
123	0.618057	0.005000	2.630025	-9.063495	-1.391603	-0.542137	0.061540	-0.361931	-0.008899	0.011332	-0.004721
124	0.623057	0.005000	2.532475	-9.103680	-1.451880	-0.542250	0.061653	-0.362562	-0.013390	0.021991	-0.024321
125	0.628057	0.005000	2.559957	-9.086113	-1.416745	-0.542363	0.061766	-0.363193	-0.002808	0.015314	-0.008321
126	0.633057	0.005000	2.645830	-9.064440	-1.513610	-0.542476	0.061879	-0.363824	-0.005803	0.024435	-0.007941
127	0.638057	0.005000	2.645281	-9.064440	-1.468081	-0.542589	0.061992	-0.364455	-0.001725	0.012071	-0.017701
128	0.643057	0.005000	2.621938	-9.048979	-1.468518	-0.542702	0.062105	-0.365086	-0.005783	0.019192	-0.015463
129	0.648057	0.005000	2.482484	-9.054076	-1.470392	-0.542815	0.062218	-0.365717	-0.000607	0.011099	-0.016908
130	0.653057	0.005000	2.539121	-9.089800	-1.426520	-0.542928	0.062331	-0.366347	-0.008760	0.015151	-0.015577
131	0.658057	0.005000	2.602698	-9.038058	-1.504644	-0.543041	0.062444	-0.366978	-0.013345	0.013677	-0.014783
132	0.663057	0.005000	2.574302	-8.907480	-1.585138	-0.543154	0.062557	-0.367609	-0.000294	0.005306	-0.006199
133	0.668057	0.005000	2.668320	-8.997253	-1.390053	-0.543267	0.062670	-0.368240	-0.000441	0.019073	-0.024876
134	0.673057	0.005000	2.658049	-9.093409	-1.441609	-0.543380	0.062591	-0.368333	-0.003884	0.001386	-0.014478
135	0.678057	0.005000	2.647806	-9.094317	-1.491120	-0.543493	0.062478	-0.368333	-0.002584	0.008667	0.000343
136	0.683057	0.005000	2.716266	-9.073146	-1.382106	-0.543606	0.062365	-0.368333	-0.013379	0.016505	-0.018156
137	0.688057	0.005000	2.668320	-9.103680	-1.396737	-0.543719	0.062252	-0.368333	0.001540	0.010733	-0.018706
138	0.693057	0.005000	2.643363	-9.135778	-1.483978	-0.543832	0.062139	-0.368333	-0.003974	0.012613	-0.010486
139	0.698057	0.005000	2.629080	-9.097561	-1.457999	-0.543945	0.062026	-0.368333	-0.017942	0.005011	-0.005985
140	0.703057	0.005000	2.668320	-9.109241	-1.457441	-0.544058	0.061913	-0.368333	-0.007873	0.008077	0.000271
141	0.708057	0.005000	2.668320	-9.147459	-1.491120	-0.544171	0.061800	-0.368333	-0.005734	0.009537	-0.006211
142	0.713057	0.005000	2.550600	-9.207334	-1.487603	-0.544284	0.061687	-0.368333	-0.011938	0.015314	-0.002960
143	0.718057	0.005000	2.632054	-9.106654	-1.376374	-0.544396	0.061574	-0.368333	-0.013005	0.015232	-0.014789
144	0.723057	0.005000	2.619320	-9.142920	-1.418496	-0.544509	0.061461	-0.368333	-0.001473	0.007093	-0.012066
145	0.728057	0.005000	2.513242	-9.066322	-1.411699	-0.544622	0.061348	-0.368333	-0.009590	0.021715	-0.020781
146	0.733057	0.005000	2.550600	-9.104067	-1.374562	-0.544735	0.061235	-0.368333	-0.007471	0.011327	-0.004107
147	0.738057	0.005000	2.589205	-9.181525	-1.413910	-0.544487	0.061122	-0.368414	-0.019700	0.017237	-0.011834
148	0.743057	0.005000	2.548214	-9.026393	-1.451880	-0.544036	0.061009	-0.368540	-0.029806	0.017844	-0.022998
149	0.748057	0.005000	2.513561	-9.062239	-1.375601	-0.543584	0.060896	-0.368666	-0.010111	0.004062	-0.013728
150	0.753057	0.005000	2.517804	-8.982738	-1.376622	-0.543132	0.060783	-0.368792	-0.011059	0.012864	-0.015761
151	0.758057	0.005000	2.574720	-9.056880	-1.412640	-0.542680	0.060670	-0.368918	-0.011340	0.011730	-0.011332
152	0.763057	0.005000	2.555402	-9.069242	-1.417442	-0.542228	0.060557	-0.369044	-0.000381	0.008471	-0.011084
153	0.768057	0.005000	2.584429	-9.069851	-1.451880	-0.541777	0.060444	-0.369170	-0.008297	0.012102	-0.017319
154	0.773057	0.005000	2.458348	-9.064440	-1.439146	-0.541325	0.060331	-0.369297	-0.017659	0.014030	-0.009823
155	0.778057	0.005000	2.567672	-9.071829	-1.562211	-0.540873	0.060218	-0.369423	-0.015289	0.010230	-0.013469
156	0.783057	0.005000	2.597772	-9.064440	-1.537873	-0.540421	0.060105	-0.369549	-0.007246	0.011070	-0.005503
157	0.788057	0.005000	2.550600	-8.946720	-1.460834	-0.539970	0.059992	-0.369675	-0.012389	0.018017	-0.018962
158	0.793057	0.005000	2.639443	-9.025200	-1.373400	-0.539518	0.059879	-0.369801	-0.005623	0.005127	-0.008742
159	0.798057	0.005000	2.657786	-9.053906	-1.365763	-0.539066	0.059766	-0.369927	-0.017754	0.014949	-0.004366
160	0.803057	0.005000	2.707560	-9.052894	-1.428789	-0.539429	0.059126	-0.368983	-0.018242	0.023027	-0.029286
161	0.808057	0.005000	2.626572	-8.909988	-1.466632	-0.540897	0.057771	-0.366588	-0.009630	0.015200	-0.014122
162	0.813057	0.005000	2.576843	-8.959841	-1.438759	-0.542365	0.056416	-0.364192	-0.015163	0.021331	-0.016927
163	0.818057	0.005000	2.589840	-9.089536	-1.476976	-0.543832	0.055062	-0.361797	-0.013781	0.007815	-0.022343
164	0.823057	0.005000	2.599708	-9.064440	-1.481252	-0.545300	0.053707	-0.359402	-0.011911	0.014657	-0.006415
165	0.828057	0.005000	2.605548	-9.040908	-1.420463	-0.546768	0.052352	-0.357006	-0.012512	0.009140	-0.015464
166	0.833057	0.005000	2.612628	-9.008748	-1.367064	-0.548235	0.050997	-0.354611	-0.009761	0.019109	-0.011547
167	0.838057	0.005000	2.611807	-9.108374	-1.390673	-0.549703	0.049643	-0.352215	-0.012623	0.009386	-0.016890
168	0.843057	0.005000	2.689265	-9.158566	-1.394345	-0.551171	0.048288	-0.349820	-0.006354	0.004535	-0.006699
169	0.848057	0.005000	2.611760	-9.083293	-1.414174	-0.552638	0.046933	-0.347425	-0.010801	0.022084	-0.019456
170	0.853057	0.005000	2.609204	-9.123044	-1.451880	-0.554106	0.045578	-0.345029	-0.008250	0.011921	-0.010242
171	0.858057	0.005000	2.610511	-9.083009	-1.396172	-0.555574	0.044224	-0.342634	0.001235	0.012732	-0.015823
172	0.863057	0.005000	2.643239	-9.103680	-1.534001	-0.557041	0.042869	-0.340239	-0.005655	0.021207	-0.021642
173	0.868057	0.005000	2.651543	-9.097995	-1.406955	-0.558232	0.041745	-0.338591	-0.005581	0.007835	-0.003693
174	0.873057	0.005000	2.589840	-9.103680	-1.357450	-0.558345	0.041519	-0.339852	-0.008661	0.018998	-0.017833
175	0.878057	0.005000	2.589840	-9.001173	-1.421455	-0.558458	0.041293	-0.341113	-0.007029	0.010999	-0.013581
176	0.883057	0.005000	2.500500	-9.075300	-1.370069	-0.558571	0.041067	-0.342375	-0.006183	0.009793	-0.006645
177	0.888057	0.005000	2.746800	-9.077771	-1.387484	-0.558684	0.040841	-0.343636	-0.016341	0.020080	-0.027919
178	0.893057	0.005000	2.655694	-9.051814	-1.387389	-0.558797	0.040615	-0.344897	-0.006474	0.014653	-0.008447
179	0.898057	0.005000	2.508324	-9.142920	-1.306988	-0.558910	0.040389	-0.346159	-0.002088	0.020475	-0.013113
180	0.903057	0.005000	2.611931	-9.120829	-1.412640	-0.559022	0.040164	-0.347420	-0.009370	0.008995	-0.003910
181	0.908057	0.005000	2.697537	-8.975937	-1.461051	-0.559135	0.039938	-0.348681	-0.013331	0.018741	-0.028296
182	0.913057	0.005000	2.677432	-9.046216	-1.470104	-0.559248	0.039712	-0.349943	-0.012310	0.011728	-0.004994
183	0.918057	0.005000	2.620622	-9.064440	-1.521902	-0.559361	0.039486	-0.351204	-0.014304	0.015206	-0.004243
184	0.923057	0.005000	2.511360	-9.135392	-1.412640	-0.559474	0.039260	-0.352465	-0.012249	0.021286	-0.012078
185	0.928057	0.005000	2.525147	-9.071334	-1.451880	-0.559587	0.039034	-0.353727	-0.005349	0.012361	-0.006855
186	0.933057	0.005000	2.493746	-9.142920	-1.524489	-0.559700	0.038808	-0.354988	-0.015380	0.015966	-0.016186
187	0.938057	0.005000	2.472120	-9.132293	-1.514419	-0.559142	0.039589	-0.355375	-0.018052	0.012126	-0.017699
188	0.943057	0.005000	2.472120	-9.103680	-1.369107	-0.558578	0.040379	-0.355753	-0.009739	0.019435	-0.017844
189	0.948057	0.005000	2.485414	-9.142920	-1.415964	-0.558013	0.041169	-0.356131	-0.003261	0.018667	-0.022313
190	0.953057	0.005000	2.623627	-9.137467	-1.367947	-0.557449	0.041960	-0.356509	-0.008813	0.018297	-0.014646
191	0.958057	0.005000	2.589840	-9.142920	-1.376808	-0.556884	0.042750	-0.356887	-0.004750	0.012956	-0.016642
192	0.963057	0.005000	2.666250	-9.064440	-1.336230	-0.556320	0.043540	-0.357266	-0.010008	0.011609	-0.004458
193	0.968057	0.005000	2.550461	-9.025618	-1.451880	-0.555755	0.044330	-0.357644	-0.020707	0.014395	-0.010001
194	0.973057	0.005000	2.396289	-9.142920	-1.336809	-0.555191	0.045121	-0.358022	-0.009900	0.005940	-0.007770
195	0.978057	0.005000	2.548695	-9.097964	-1.446164	-0.554627	0.045911	-0.358400	-0.005138	0.008456	-0.007425
196	0.983057	0.005000	2.594735	-9.066888	-1.373400	-0.554062	0.046701	-0.358778	-0.010039	0.012320	-0.017195
197	0.988057	0.005000	2.622140	-9.146390	-1.369930	-0.553498	0.047492	-0.359157	-0.003831	0.010703	-0.005805
198	0.993057	0.005000	2.629080	-9.103680	-1.443728	-0.552933	0.048282	-0.359535	-0.014346	0.023990	-0.017715
199	0.998057	0.005000	2.668320	-9.245489	-1.412640	-0.552369	0.049072	-0.359913	-0.000988	0.010375	-0.007243
200	1.003057	0.005000	2.556660	-9.182160	-1.451880	-0.551630	0.049950	-0.360583	0.001802	0.014363	-0.002619
201	1.008057	0.005000	2.583225	-9.103680	-1.445265	-0.550840	0.050853	-0.361339	-0.007725	0.015666	-0.008920
202	1.013057	0.005000	2.629080	-9.111317	-1.349435	-0.550049	0.051757	-0.362096	-0.000067	0.013138	0.000009
203	1.018057	0.005000	2.576579	-9.003280	-1.473800	-0.549258	0.052661	-0.362853	-0.005734	0.024844	-0.015970
204	1.023057	0.005000	2.511360	-8.985960	-1.479486	-0.548467	0.053564	-0.363610	-0.007890	0.014362	-0.003843
205	1.028057	0.005000	2.550600	-8.956944	-1.393849	-0.547677	0.054468	-0.364367	-0.001135	0.017185	-0.008388
206	1.033057	0.005000	2.657073	-9.109179	-1.378899	-0.546886	0.055371	-0.365123	-0.010867	0.012917	-0.011089
207	1.038057	0.005000	2.640869	-9.154709	-1.463669	-0.546095	0.056275	-0.365880	-0.007941	0.019402	-0.009757
208	1.043057	0.005000	2.577029	-9.038817	-1.399023	-0.545305	0.057178	-0.366637	-0.005009	0.019926	-0.010653
209	1.048057	0.005000	2.550600	-9.117049	-1.334160	-0.544514	0.058082	-0.367394	-0.007075	0.012292	-0.010275
210	1.053057	0.005000	2.550600	-9.138985	-1.472794	-0.543723	0.058986	-0.368150	-0.015785	0.018211	-0.020534
211	1.058057	0.005000	2.574426	-9.158334	-1.428054	-0.542933	0.059889	-0.368907	-0.005186	0.004923	-0.008780
212	1.063057	0.005000	2.519989	-9.134291	-1.396684	-0.542142	0.060793	-0.369664	-0.007738	0.011386	-0.012700
213	1.068057	0.005000	2.533621	-9.053875	-1.356421	-0.541791	0.060629	-0.370000	-0.003978	0.016129	-0.015538
214	1.073057	0.005000	2.546836	-9.025200	-1.455644	-0.541791	0.059613	-0.370000	-0.011174	0.006512	-0.006148
215	1.078057	0.005000	2.569143	-9.066593	-1.410487	-0.541791	0.058597	-0.370000	-0.013177	0.023137	-0.012578
216	1.083057	0.005000	2.511468	-9.123354	-1.412748	-0.541791	0.057581	-0.370000	-0.006098	0.015758	-0.013884
217	1.088057	0.005000	2.570716	-9.182160	-1.549484	-0.541791	0.056565	-0.370000	-0.010169	0.016955	-0.008490
218	1.093057	0.005000	2.544558	-9.164050	-1.430750	-0.541791	0.055549	-0.370000	-0.005416	0.014227	-0.020797
219	1.098057	0.005000	2.673386	-9.160007	-1.513273	-0.541791	0.054532	-0.370000	-0.011907	0.019220	-0.012225
220	1.103057	0.005000	2.606369	-9.080969	-1.546889	-0.541791	0.053516	-0.370000	-0.009010	0.016035	-0.005884
221	1.108057	0.005000	2.581614	-9.103680	-1.608840	-0.541791	0.052500	-0.370000	-0.002326	0.010901	-0.003548
222	1.113057	0.005000	2.643565	-9.103680	-1.344431	-0.541791	0.051484	-0.370000	-0.011633	0.017569	-0.014436
223	1.118057	0.005000	2.617098	-9.064440	-1.359771	-0.541791	0.050468	-0.370000	-0.008388	0.013405	-0.007387
224	1.123057	0.005000	2.615680	-8.986440	-1.425560	-0.541791	0.049452	-0.370000	-0.006397	0.022500	-0.008162
225	1.128057	0.005000	2.574395	-9.131023	-1.428085	-0.541791	0.048436	-0.370000	-0.012706	0.014419	-0.013442
226	1.133057	0.005000	2.674531	-9.125700	-1.345170	-0.541981	0.048103	-0.370000	-0.009697	0.007597	-0.003701
227	1.138057	0.005000	2.579507	-9.200734	-1.373400	-0.542546	0.049120	-0.370000	-0.018604	0.017188	-0.019476
228	1.143057	0.005000	2.529981	-9.055130	-1.382710	-0.543111	0.050137	-0.370000	-0.013702	0.009816	-0.004054
229	1.148057	0.005000	2.707560	-9.055672	-1.412640	-0.543676	0.051154	-0.370000	-0.020369	0.018649	-0.016301
230	1.153057	0.005000	2.613588	-9.056694	-1.435877	-0.544241	0.052171	-0.370000	-0.022797	0.025010	-0.029635
231	1.158057	0.005000	2.537153	-9.050993	-1.386847	-0.544806	0.053188	-0.370000	-0.017112	0.010095	-0.016284
232	1.163057	0.005000	2.641411	-8.985960	-1.373400	-0.545371	0.054205	-0.370000	-0.015851	0.021025	-0.016718
233	1.168057	0.005000	2.663177	-9.030343	-1.462166	-0.545936	0.055222	-0.370000	-0.016276	0.012785	-0.013480
234	1.173057	0.005000	2.546428	-9.068612	-1.569600	-0.546501	0.056239	-0.370000	-0.018935	0.013887	-0.016218
235	1.178057	0.005000	2.561336	-9.132184	-1.712246	-0.547066	0.057256	-0.370000	-0.014125	0.019753	-0.008522
236	1.183057	0.005000	2.629080	-9.061884	-1.493676	-0.547631	0.058273	-0.370000	-0.015671	0.022708	-0.019545
237	1.188057	0.005000	2.589840	-9.142920	-1.489106	-0.548196	0.059290	-0.370000	-0.009705	0.011584	-0.009354
238	1.193057	0.005000	2.631063	-9.142920	-1.255680	-0.548761	0.060307	-0.370000	-0.011988	0.014520	-0.015854
239	1.198057	0.005000	2.707560	-9.182129	-1.334098	-0.549167	0.061208	-0.369984	-0.030905	0.026099	-0.017435
240	1.203057	0.005000	2.550600	-9.026920	-1.451880	-0.548490	0.061321	-0.369858	-0.014536	0.010540	-0.004428
241	1.208057	0.005000	2.512956	-9.178969	-1.525573	-0.547812	0.061434	-0.369732	-0.009249	0.019617	-0.012001
242	1.213057	0.005000	2.587222	-9.108916	-1.491120	-0.547134	0.061547	-0.369605	-0.015240	0.017540	-0.014338
243	1.218057	0.005000	2.622728	-9.034727	-1.412640	-0.546457	0.061660	-0.369479	-0.009555	0.008400	-0.012141
244	1.223057	0.005000	2.707560	-9.068638	-1.381796	-0.545779	0.061773	-0.369353	-0.015719	0.021887	-0.021939
245	1.228057	0.005000	2.644742	-9.161277	-1.402199	-0.545101	0.061886	-0.369227	-0.007269	0.009285	-0.020698
246	1.233057	0.005000	2.634843	-9.103680	-1.446117	-0.544424	0.061999	-0.369101	-0.010935	0.021718	-0.014983
247	1.238057	0.005000	2.635865	-9.103680	-1.405855	-0.543746	0.062112	-0.368975	-0.016766	0.008019	-0.016083
248	1.243057	0.005000	2.558018	-9.032618	-1.601422	-0.543068	0.062225	-0.368849	-0.011274	0.015258	-0.019017
249	1.248057	0.005000	2.598190	-9.064440	-1.522010	-0.542391	0.062338	-0.368722	-0.015464	0.016684	-0.015843
250	1.253057	0.005000	2.571095	-8.985960	-1.392145	-0.541713	0.062451	-0.368596	-0.015246	0.018716	-0.013145
251	1.258057	0.005000	2.560995	-8.936325	-1.344555	-0.541035	0.062564	-0.368470	-0.020324	0.020769	-0.026173
252	1.263057	0.005000	2.668320	-8.946720	-1.486612	-0.540358	0.062677	-0.368344	-0.009528	0.003396	-0.004578
253	1.268057	0.005000	2.656361	-9.103680	-1.515039	-0.540299	0.062584	-0.367411	-0.021343	0.024681	-0.013099
254	1.273057	0.005000	2.681302	-9.103680	-1.530654	-0.540299	0.062471	-0.366402	-0.011309	0.018307	-0.004682
255	1.278057	0.005000	2.642620	-9.103680	-1.414019	-0.540299	0.062358	-0.365393	0.004707	0.012983	0.003264
256	1.283057	0.005000	2.643642	-9.177714	-1.324044	-0.540299	0.062245	-0.364384	-0.006934	0.018447	-0.014407
257	1.288057	0.005000	2.652745	-9.032685	-1.357825	-0.540299	0.062132	-0.363375	-0.006317	0.006123	-0.011912
258	1.293057	0.005000	2.612953	-8.969833	-1.458867	-0.540299	0.062019	-0.362366	-0.013876	0.018179	-0.017581
259	1.298057	0.005000	2.616873	-9.030142	-1.451880	-0.540299	0.061906	-0.361357	-0.008210	0.009259	-0.021426
260	1.303057	0.005000	2.605115	-9.046268	-1.418434	-0.540299	0.061793	-0.360348	0.000462	0.009668	-0.007204
261	1.308057	0.005000	2.612179	-8.946720	-1.573225	-0.540299	0.061680	-0.359339	0.000951	0.017104	-0.013746
262	1.313057	0.005000	2.609344	-9.084176	-1.569600	-0.540299	0.061567	-0.358330	-0.003614	0.017318	-0.005146
263	1.318057	0.005000	2.606044	-9.045959	-1.433399	-0.540299	0.061454	-0.357321	-0.003753	0.020311	-0.013092
264	1.323057	0.005000	2.686259	-9.064440	-1.473181	-0.540299	0.061341	-0.356312	-0.009508	0.018631	-0.004759
265	1.328057	0.005000	2.656810	-9.086763	-1.384213	-0.540299	0.061228	-0.355303	-0.014551	0.013635	-0.013041
266	1.333057	0.005000	2.614177	-9.103680	-1.350054	-0.541484	0.060483	-0.354029	-0.016681	0.009480	-0.018807
267	1.338057	0.005000	2.731463	-9.134353	-1.364833	-0.543179	0.059466	-0.352642	-0.016941	0.020311	-0.014398
268	1.343057	0.005000	2.707560	-9.099978	-1.373400	-0.544873	0.058450	-0.351255	-0.010057	0.016858	-0.022391
269	1.348057	0.005000	2.615613	-8.998267	-1.412640	-0.546567	0.057433	-0.349867	-0.002855	0.003904	-0.010906
270	1.353057	0.005000	2.628089	-9.064440	-1.398899	-0.548261	0.056417	-0.348480	-0.006719	0.016592	-0.012114
271	1.358057	0.005000	2.629080	-9.048654	-1.424367	-0.549955	0.055400	-0.347093	-0.004408	0.018757	-0.012337
272	1.363057	0.005000	2.668320	-9.131735	-1.390270	-0.551650	0.054383	-0.345705	-0.007336	0.009288	-0.008942
273	1.368057	0.005000	2.569515	-9.132758	-1.373400	-0.553344	0.053367	-0.344318	-0.002749	0.015337	-0.024601
274	1.373057	0.005000	2.529640	-9.112820	-1.394360	-0.555038	0.052350	-0.342930	-0.006216	0.008338	-0.011546
275	1.378057	0.005000	2.511360	-9.165724	-1.404422	-0.556732	0.051334	-0.341543	-0.004071	0.011544	-0.013396
276	1.383057	0.005000	2.550600	-9.111255	-1.349311	-0.558427	0.050317	-0.340156	-0.017425	0.014497	-0.012444
277	1.388057	0.005000	2.557153	-9.129814	-1.484567	-0.560121	0.049301	-0.338768	-0.019311	0.012558	-0.005061
278	1.393057	0.005000	2.583845	-9.043186	-1.463870	-0.561815	0.048284	-0.337381	-0.013214	0.015179	-0.021327
279	1.398057	0.005000	2.555573	-9.098707	-1.515442	-0.562029	0.048254	-0.337830	-0.017218	0.016479	-0.006301
280	1.403057	0.005000	2.480024	-9.107632	-1.451880	-0.560674	0.049271	-0.340227	-0.004630	0.012840	-0.016909
281	1.408057	0.005000	2.635896	-9.132696	-1.484304	-0.559318	0.050288	-0.342623	0.001151	0.009007	-0.007919
282	1.413057	0.005000	2.668320	-8.988346	-1.415026	-0.557963	0.051304	-0.345019	-0.008261	0.015698	-0.023618
283	1.418057	0.005000	2.629080	-9.100953	-1.528997	-0.556607	0.052321	-0.347416	-0.012203	0.007145	-0.016352
284	1.423057	0.005000	2.745158	-9.064440	-1.451059	-0.555252	0.053337	-0.349812	-0.012899	0.011285	-0.011862
285	1.428057	0.005000	2.551204	-9.025401	-1.490717	-0.553896	0.054354	-0.352209	-0.013935	0.020662	-0.023692
286	1.433057	0.005000	2.511360	-9.141696	-1.449432	-0.552541	0.055370	-0.354605	-0.006535	0.008124	-0.004826
287	1.438057	0.005000	2.470354	-9.103680	-1.455412	-0.551185	0.056387	-0.357001	-0.012285	0.021918	-0.010471
288	1.443057	0.005000	2.589840	-9.061652	-1.446303	-0.549830	0.057404	-0.359398	-0.012847	0.011412	-0.009348
289	1.448057	0.005000	2.554411	-9.068251	-1.337971	-0.548474	0.058420	-0.361794	-0.012371	0.014663	-0.010286
290	1.453057	0.005000	2.581103	-9.064440	-1.364663	-0.547119	0.059437	-0.364191	-0.011438	0.013386	-0.011194
291	1.458057	0.005000	2.657538	-9.098289	-1.368009	-0.545764	0.060453	-0.366587	-0.016214	0.013433	-0.002445
292	1.463057	0.005000	2.583439	-9.044402	-1.373400	-0.544684	0.061255	-0.368265	-0.003106	0.019611	-0.019125
293	1.468057	0.005000	2.629080	-9.025200	-1.587723	-0.544345	0.061481	-0.368012	-0.018592	0.014705	-0.016733
294	1.473057	0.005000	2.699582	-9.142920	-1.632124	-0.544007	0.061707	-0.367760	-0.013145	0.016603	-0.011876
295	1.478057	0.005000	2.659319	-9.194398	-1.539361	-0.543668	0.061933	-0.367508	-0.010957	0.018500	-0.013062
296	1.483057	0.005000	2.560261	-9.133259	-1.520699	-0.543330	0.062158	-0.367256	-0.007286	0.019727	-0.009188
297	1.488057	0.005000	2.657755	-9.035765	-1.451880	-0.542991	0.062384	-0.367004	-0.000830	0.021947	-0.023748
298	1.493057	0.005000	2.585363	-9.064440	-1.491120	-0.542652	0.062610	-0.366752	-0.000417	0.013182	-0.012219
299	1.498057	0.005000	2.535620	-8.998090	-1.545340	-0.542314	0.062836	-0.366500	-0.019801	0.026302	-0.017702
300	1.503057	0.005000	2.445815	-9.064223	-1.399705	-0.541975	0.063062	-0.366248	-0.014032	0.014184	-0.005192
301	1.508057	0.005000	2.575665	-9.146204	-1.412640	-0.541636	0.063287	-0.365996	-0.003529	0.018834	-0.004467
302	1.513057	0.005000	2.629080	-9.049531	-1.363978	-0.541298	0.063513	-0.365743	-0.006457	0.016607	-0.022567
303	1.518057	0.005000	2.605586	-9.127174	-1.365651	-0.540959	0.063739	-0.365491	0.006063	0.018282	-0.003709
304	1.523057	0.005000	2.600885	-9.142920	-1.429402	-0.540620	0.063965	-0.365239	-0.004280	0.018633	-0.031150
305	1.528057	0.005000	2.572313	-9.021014	-1.491120	-0.540328	0.064133	-0.364968	-0.001206	0.008365	-0.016514
306	1.533057	0.005000	2.550600	-8.967618	-1.493676	-0.540893	0.063229	-0.364337	-0.000308	0.008503	-0.004887
307	1.538057	0.005000	2.610227	-9.025711	-1.433027	-0.541458	0.062325	-0.363706	-0.009666	0.019557	-0.004577
308	1.543057	0.005000	2.589840	-9.104746	-1.413706	-0.542023	0.061421	-0.363075	-0.009610	0.014956	-0.002217
309	1.548057	0.005000	2.571529	-9.025200	-1.493738	-0.542588	0.060517	-0.362444	0.005445	0.018442	-0.014050
310	1.553057	0.005000	2.646369	-9.125631	-1.338823	-0.543153	0.059613	-0.361813	-0.007378	0.010293	-0.013232
311	1.558057	0.005000	2.651574	-9.109427	-1.406893	-0.543718	0.058709	-0.361182	-0.005119	0.009582	-0.016034
312	1.563057	0.005000	2.597772	-9.072372	-1.444088	-0.544283	0.057805	-0.360551	0.006306	0.012773	-0.013054
313	1.568057	0.005000	2.589840	-9.088802	-1.412640	-0.544847	0.056901	-0.359921	-0.007572	0.016323	-0.010946
314	1.573057	0.005000	2.614936	-9.050296	-1.415831	-0.545412	0.055997	-0.359290	-0.003804	0.009235	-0.019257
315	1.578057	0.005000	2.615943	-9.103680	-1.438914	-0.545977	0.055093	-0.358659	-0.002894	0.014978	-0.009075
316	1.583057	0.005000	2.602100	-9.101219	-1.412640	-0.546542	0.054189	-0.358028	-0.012489	0.018086	-0.019352
317	1.588057	0.005000	2.578283	-9.115237	-1.361843	-0.547107	0.053285	-0.357397	-0.002427	0.012304	-0.006727
318	1.593057	0.005000	2.547703	-9.053906	-1.334160	-0.547672	0.052381	-0.356766	-0.010546	0.015558	-0.004907
319	1.598057	0.005000	2.570584	-9.054448	-1.422632	-0.547380	0.052810	-0.357198	-0.014200	0.016975	-0.018520
320	1.603057	0.005000	2.677290	-9.085741	-1.491120	-0.546929	0.053487	-0.357829	-0.005759	0.014802	-0.009689
321	1.608057	0.005000	2.566494	-9.111627	-1.420587	-0.546477	0.054165	-0.358459	-0.005816	0.021557	-0.028909
322	1.613057	0.005000	2.614270	-9.096275	-1.444475	-0.546026	0.054842	-0.359089	-0.015005	0.017245	-0.010718
323	1.618057	0.005000	2.498595	-9.037965	-1.412640	-0.545574	0.055520	-0.359720	-0.010197	0.016775	-0.015733
324	1.623057	0.005000	2.584480	-9.137560	-1.564240	-0.545122	0.056197	-0.360350	-0.009815	0.007709	-0.016526
325	1.628057	0.005000	2.575433	-9.054835	-1.481515	-0.544671	0.056874	-0.360980	-0.000115	0.012258	-0.013617
326	1.633057	0.005000	2.432880	-9.032791	-1.455675	-0.544219	0.057552	-0.361611	-0.002918	0.011610	-0.015816
327	1.638057	0.005000	2.553406	-9.028006	-1.376206	-0.543768	0.058229	-0.362241	-0.010936	0.010676	-0.004559
328	1.643057	0.005000	2.555031	-9.062225	-1.528145	-0.543316	0.058906	-0.362871	-0.006146	0.021657	-0.018412
329	1.648057	0.005000	2.629080	-9.024007	-1.453073	-0.542864	0.059584	-0.363502	-0.014275	0.003773	-0.002275
330	1.653057	0.005000	2.550770	-9.025541	-1.569430	-0.542413	0.060261	-0.364132	-0.009841	0.010231	-0.011148
331	1.658057	0.005000	2.628704	-9.103680	-1.530360	-0.541961	0.060938	-0.364762	-0.014056	0.013751	-0.005585
332	1.663057	0.005000	2.627686	-9.064440	-1.491120	-0.541650	0.061053	-0.365000	-0.000305	0.009983	-0.011810
333	1.668057	0.005000	2.664399	-9.023240	-1.451880	-0.541425	0.060828	-0.365000	-0.011527	0.018250	-0.015586
334	1.673057	0.005000	2.668320	-9.028159	-1.373400	-0.541199	0.060602	-0.365000	-0.010923	0.014824	-0.007857
335	1.678057	0.005000	2.699597	-9.064440	-1.451880	-0.540973	0.060376	-0.365000	-0.018109	0.020767	-0.001577
336	1.683057	0.005000	2.638267	-9.064440	-1.491120	-0.540747	0.060150	-0.365000	-0.006783	0.010920	-0.008906
337	1.688057	0.005000	2.634641	-9.030761	-1.592156	-0.540521	0.059924	-0.365000	-0.005549	0.017255	0.001477
338	1.693057	0.005000	2.557168	-9.031768	-1.497688	-0.540296	0.059699	-0.365000	-0.010206	0.016347	-0.016848
339	1.698057	0.005000	2.629080	-9.128497	-1.427063	-0.540070	0.059473	-0.365000	-0.008877	0.020043	-0.014686
340	1.703057	0.005000	2.620931	-9.025200	-1.482971	-0.539844	0.059247	-0.365000	-0.013155	0.024922	-0.025486
341	1.708057	0.005000	2.640807	-9.004302	-1.472778	-0.539618	0.059021	-0.365000	-0.008947	0.013017	-0.010894
342	1.713057	0.005000	2.589840	-8.917673	-1.581327	-0.539392	0.058795	-0.365000	-0.018342	0.017996	-0.003747
343	1.718057	0.005000	2.618344	-8.964489	-1.362664	-0.539167	0.058570	-0.365000	-0.017618	0.011804	-0.017131
344	1.723057	0.005000	2.483878	-9.091922	-1.550050	-0.538941	0.058344	-0.365000	-0.014266	0.014504	-0.011749
345	1.728057	0.005000	2.550600	-9.090900	-1.465559	-0.538806	0.058300	-0.365000	-0.008356	0.013670	-0.013266
346	1.733057	0.005000	2.485443	-9.142920	-1.425963	-0.538806	0.058526	-0.365000	-0.008020	-0.000184	0.005718
347	1.738057	0.005000	2.521910	-9.142920	-1.402090	-0.538806	0.058752	-0.365000	-0.013013	0.019857	-0.016926
348	1.743057	0.005000	2.502855	-9.088312	-1.358032	-0.538806	0.058978	-0.365000	-0.010768	0.009863	-0.023043
349	1.748057	0.005000	2.511360	-9.050388	-1.357293	-0.538806	0.059204	-0.365000	-0.008197	0.004571	0.000128
350	1.753057	0.005000	2.617523	-9.025200	-1.429572	-0.538806	0.059429	-0.365000	-0.018787	0.010253	-0.002138
351	1.758057	0.005000	2.629080	-9.025200	-1.391355	-0.538806	0.059655	-0.365000	-0.013872	0.004454	-0.007929
352	1.763057	0.005000	2.707560	-9.064440	-1.394949	-0.538806	0.059881	-0.365000	-0.005277	0.011048	-0.012753
353	1.768057	0.005000	2.609716	-9.005495	-1.432516	-0.538806	0.060107	-0.365000	-0.014435	0.009722	-0.009496
354	1.773057	0.005000	2.610397	-9.006517	-1.455629	-0.538806	0.060333	-0.365000	-0.004057	0.008759	-0.013934
355	1.778057	0.005000	2.554505	-9.107585	-1.434213	-0.538806	0.060559	-0.365000	-0.012185	0.004378	-0.012415
356	1.783057	0.005000	2.589840	-9.042053	-1.463199	-0.538806	0.060785	-0.365000	-0.013573	0.014578	-0.007241
357	1.788057	0.005000	2.527456	-9.048344	-1.473026	-0.538806	0.061011	-0.365000	-0.008387	0.017861	-0.010501
358	1.793057	0.005000	2.629080	-9.079513	-1.358327	-0.539147	0.060875	-0.364596	-0.011668	0.019889	-0.013304
359	1.798057	0.005000	2.703207	-9.206869	-1.353044	-0.540953	0.059181	-0.362453	-0.025924	0.017189	-0.012166
360	1.803057	0.005000	2.654811	-9.195669	-1.400417	-0.542759	0.057488	-0.360309	-0.004930	0.011811	-0.019587
361	1.808057	0.005000	2.655834	-9.182160	-1.451880	-0.544566	0.055794	-0.358166	-0.010681	0.015415	-0.009157
362	1.813057	0.005000	2.601304	-9.182160	-1.507433	-0.546372	0.054101	-0.356023	-0.008191	0.020938	-0.020064
363	1.818057	0.005000	2.640002	-9.131998	-1.440958	-0.548179	0.052407	-0.353880	0.000759	0.010364	-0.006688
364	1.823057	0.005000	2.570398	-9.113579	-1.412640	-0.549985	0.050714	-0.351737	-0.015393	0.026572	-0.017083
365	1.828057	0.005000	2.794917	-9.112557	-1.434127	-0.551792	0.049020	-0.349594	-0.005454	0.008642	-0.011412
366	1.833057	0.005000	2.659998	-9.025200	-1.482798	-0.553598	0.047327	-0.347451	-0.005354	0.014228	-0.003641
367	1.838057	0.005000	2.700248	-9.025200	-1.554976	-0.555404	0.045633	-0.345307	-0.018354	0.015666	-0.015075
368	1.843057	0.005000	2.662030	-9.064440	-1.439301	-0.557211	0.043940	-0.343164	-0.005144	0.021866	-0.003793
369	1.848057	0.005000	2.517092	-9.058708	-1.418372	-0.559017	0.042246	-0.341021	-0.007762	0.024583	-0.008301
370	1.853057	0.005000	2.585131	-9.138211	-1.348288	-0.560824	0.040553	-0.338878	0.003107	0.016116	-0.010564
371	1.858057	0.005000	2.629080	-9.139233	-1.412640	-0.562630	0.038860	-0.336735	-0.002126	0.017816	-0.011077
372	1.863057	0.005000	2.550600	-9.142920	-1.381493	-0.562359	0.039681	-0.337033	-0.000802	0.018887	-0.011224
373	1.868057	0.005000	2.631202	-9.177915	-1.412640	-0.562020	0.040585	-0.337412	-0.001801	0.015148	-0.008110
374	1.873057	0.005000	2.669420	-9.063340	-1.488920	-0.561681	0.041488	-0.337790	0.004766	0.013298	-0.004699
375	1.878057	0.005000	2.785963	-8.986192	-1.412408	-0.561342	0.042392	-0.338169	-0.002431	0.014894	-0.003126
376	1.883057	0.005000	2.630492	-8.987372	-1.411228	-0.561003	0.043295	-0.338547	-0.009065	0.017578	-0.019301
377	1.888057	0.005000	2.586866	-9.026687	-1.411153	-0.560664	0.044199	-0.338925	0.007535	0.013076	-0.000229
378	1.893057	0.005000	2.668320	-9.101170	-1.380929	-0.560326	0.045102	-0.339304	0.001289	0.021978	-0.005449
379	1.898057	0.005000	2.517539	-9.028290	-1.412640	-0.559987	0.046006	-0.339682	-0.006438	0.016592	-0.018681
380	1.903057	0.005000	2.554674	-9.130697	-1.455954	-0.559648	0.046910	-0.340060	-0.007013	0.014319	0.000264
381	1.908057	0.005000	2.673417	-9.148017	-1.339257	-0.559309	0.047813	-0.340439	-0.007291	0.021460	-0.015231
382	1.913057	0.005000	2.629080	-9.142920	-1.379122	-0.558970	0.048717	-0.340817	0.001574	0.006202	-0.007293
383	1.918057	0.005000	2.596517	-9.057763	-1.373400	-0.558631	0.049620	-0.341196	-0.004714	0.014822	-0.009694
384	1.923057	0.005000	2.558287	-9.119860	-1.451880	-0.558292	0.050524	-0.341574	-0.009150	0.016947	-0.016269
385	1.928057	0.005000	2.488801	-9.072780	-1.505339	-0.557783	0.051002	-0.342428	0.000591	0.009280	-0.009597
386	1.933057	0.005000	2.550600	-9.103680	-1.421904	-0.557218	0.051340	-0.343437	-0.010873	0.012546	-0.007041
387	1.938057	0.005000	2.560886	-9.113966	-1.499501	-0.556653	0.051679	-0.344446	-0.009272	0.016224	-0.001710
388	1.943057	0.005000	2.618117	-9.125605	-1.480157	-0.556089	0.052018	-0.345455	-0.003396	0.013833	-0.013370
389	1.948057	0.005000	2.629080	-9.048902	-1.451880	-0.555524	0.052357	-0.346464	-0.005837	0.018754	-0.014262
390	1.953057	0.005000	2.668320	-9.156413	-1.491120	-0.554959	0.052696	-0.347473	-0.015366	0.010001	-0.015055
391	1.958057	0.005000	2.681902	-9.052364	-1.439804	-0.554394	0.053035	-0.348482	0.002645	0.013521	-0.017334
392	1.963057	0.005000	2.639444	-9.000398	-1.398202	-0.553830	0.053374	-0.349491	-0.002483	0.009056	-0.013154
393	1.968057	0.005000	2.668320	-8.962181	-1.380542	-0.553265	0.053713	-0.350500	-0.008799	0.012779	-0.022454
394	1.973057	0.005000	2.675140	-9.071260	-1.504759	-0.552700	0.054052	-0.351509	-0.004774	0.002107	-0.003167
395	1.978057	0.005000	2.763832	-9.120712	-1.424496	-0.552135	0.054390	-0.352518	-0.013385	0.019710	-0.008484
396	1.983057	0.005000	2.571792	-9.121728	-1.409495	-0.551570	0.054729	-0.353527	-0.007175	0.014421	-0.018240
397	1.988057	0.005000	2.574178	-9.083268	-1.491120	-0.551006	0.055068	-0.354536	-0.006323	0.012476	-0.005871
398	1.993057	0.005000	2.648692	-9.103695	-1.589228	-0.550624	0.055407	-0.355545	-0.008608	0.021813	-0.011533
399	1.998057	0.005000	2.589840	-9.023140	-1.532420	-0.550398	0.055746	-0.356554	-0.003831	0.015550	-0.016776
400	2.003057	0.005000	2.725608	-9.067585	-1.469928	-0.550172	0.056085	-0.357563	-0.008358	0.017113	-0.016858
401	2.008057	0.005000	2.707560	-9.059250	-1.429665	-0.549946	0.056423	-0.358572	-0.005103	0.009431	-0.019815
402	2.013057	0.005000	2.723563	-9.071675	-1.357397	-0.549720	0.056762	-0.359581	-0.006999	0.014706	-0.018569
403	2.018057	0.005000	2.629080	-9.079606	-1.373400	-0.549495	0.057101	-0.360590	-0.009528	0.015860	-0.011050
404	2.023057	0.005000	2.643518	-9.171796	-1.377474	-0.549269	0.057440	-0.361599	-0.011923	0.014600	-0.008113
405	2.028057	0.005000	2.654904	-9.142920	-1.439471	-0.549043	0.057779	-0.362608	-0.005916	0.018687	-0.016743
406	2.033057	0.005000	2.655778	-9.155462	-1.571215	-0.548817	0.058117	-0.363617	-0.006993	0.008276	-0.015927
407	2.038057	0.005000	2.668320	-9.064440	-1.369713	-0.548591	0.058456	-0.364626	-0.012383	0.018631	-0.009923
408	2.043057	0.005000	2.589840	-9.025200	-1.501949	-0.548365	0.058795	-0.365635	-0.015125	0.007082	-0.015386
409	2.048057	0.005000	2.560406	-9.074246	-1.530360	-0.548139	0.059134	-0.366644	-0.016364	0.011835	-0.006177
410	2.053057	0.005000	2.569097	-9.142920	-1.433383	-0.547913	0.059473	-0.367653	-0.015143	0.020243	-0.009220
411	2.058057	0.005000	2.612628	-9.142920	-1.513908	-0.547651	0.059554	-0.368333	-0.010734	0.013055	-0.000980
412	2.063057	0.005000	2.400844	-9.142920	-1.334160	-0.547312	0.059102	-0.368333	-0.020388	0.021553	-0.012936
413	2.068057	0.005000	2.511360	-9.103680	-1.308243	-0.546973	0.058650	-0.368333	-0.020411	0.010764	-0.015703
414	2.073057	0.005000	2.483398	-9.210122	-1.373400	-0.546634	0.058198	-0.368333	-0.017214	0.009794	-0.008777
415	2.078057	0.005000	2.555216	-9.103680	-1.299536	-0.546295	0.057747	-0.368333	-0.018092	0.015471	-0.015301
416	2.083057	0.005000	2.586201	-9.096403	-1.451880	-0.545957	0.057295	-0.368333	-0.012733	0.009530	-0.000367
417	2.088057	0.005000	2.589840	-9.145972	-1.421795	-0.545618	0.056843	-0.368333	-0.014239	0.016435	-0.011954
418	2.093057	0.005000	2.515419	-9.064440	-1.453909	-0.545279	0.056391	-0.368333	-0.005742	0.015265	-0.013830
419	2.098057	0.005000	2.551619	-9.104699	-1.491120	-0.544940	0.055939	-0.368333	-0.007589	0.013558	-0.005922
420	2.103057	0.005000	2.511360	-9.220471	-1.451415	-0.544601	0.055488	-0.368333	-0.012226	0.013939	-0.015789
421	2.108057	0.005000	2.472678	-9.142920	-1.451322	-0.544263	0.055036	-0.368333	-0.014811	0.013844	-0.020572
422	2.113057	0.005000	2.550600	-8.987540	-1.338900	-0.543924	0.054584	-0.368333	-0.011605	0.017416	-0.014416
423	2.118057	0.005000	2.626942	-9.097267	-1.445467	-0.543585	0.054132	-0.368333	-0.003600	0.006023	-0.006569
424	2.123057	0.005000	2.704414	-9.064440	-1.484828	-0.543297	0.053769	-0.368333	-0.012426	0.020273	-0.016321
425	2.128057	0.005000	2.515527	-9.016866	-1.456047	-0.543410	0.054108	-0.368333	-0.005374	0.009995	-0.013233
426	2.133057	0.005000	2.619630	-9.094230	-1.387575	-0.543522	0.054447	-0.368333	-0.012144	0.019618	-0.007215
427	2.138057	0.005000	2.707560	-9.052945	-1.412640	-0.543635	0.054786	-0.368333	-0.015476	0.009808	-0.018207
428	2.143057	0.005000	2.557370	-9.129380	-1.412640	-0.543748	0.055124	-0.368333	-0.009327	0.015945	-0.004679
429	2.148057	0.005000	2.582528	-9.049816	-1.412640	-0.543861	0.055463	-0.368333	-0.014644	0.017762	-0.021267
430	2.153057	0.005000	2.573171	-9.103680	-1.381734	-0.543974	0.055802	-0.368333	-0.015882	0.012370	-0.015839
431	2.158057	0.005000	2.580483	-9.064440	-1.433166	-0.544087	0.056141	-0.368333	-0.016804	0.015893	-0.005535
432	2.163057	0.005000	2.619058	-9.132898	-1.402618	-0.544200	0.056480	-0.368333	-0.016956	0.020102	-0.022667
433	2.168057	0.005000	2.600762	-9.103680	-1.412640	-0.544313	0.056819	-0.368333	-0.006607	0.005707	-0.011656
434	2.173057	0.005000	2.589840	-9.182160	-1.412640	-0.544426	0.057158	-0.368333	-0.011016	0.016613	-0.022188
435	2.178057	0.005000	2.630366	-9.142920	-1.518994	-0.544539	0.057497	-0.368333	-0.010699	0.014346	-0.014544
436	2.183057	0.005000	2.694051	-9.091457	-1.426149	-0.544652	0.057835	-0.368333	-0.011853	0.019607	-0.017153
437	2.188057	0.005000	2.604371	-9.113858	-1.476589	-0.544764	0.058174	-0.368333	-0.010171	0.016546	-0.017047
438	2.193057	0.005000	2.550600	-9.127367	-1.460013	-0.544370	0.058615	-0.368446	-0.010555	0.010029	-0.007920
439	2.198057	0.005000	2.566904	-9.214769	-1.412640	-0.543919	0.059066	-0.368572	-0.006302	0.010033	0.001113
440	2.203057	0.005000	2.634053	-9.081574	-1.412640	-0.543467	0.059518	-0.368699	-0.006805	0.006984	-0.005111
441	2.208057	0.005000	2.529516	-9.064440	-1.433724	-0.543015	0.059970	-0.368825	-0.016501	0.018039	-0.016962
442	2.213057	0.005000	2.570918	-9.025200	-1.313842	-0.542563	0.060422	-0.368951	-0.019608	0.013603	-0.007577
443	2.218057	0.005000	2.472321	-9.044921	-1.393121	-0.542111	0.060874	-0.369077	-0.012654	0.019577	-0.015579
444	2.223057	0.005000	2.451377	-9.062194	-1.331914	-0.541660	0.061325	-0.369203	-0.013588	0.014760	-0.022974
445	2.228057	0.005000	2.550600	-9.085725	-1.451880	-0.541208	0.061777	-0.369329	-0.012392	0.013483	-0.010360
446	2.233057	0.005000	2.679877	-9.019824	-1.384957	-0.540756	0.062229	-0.369455	-0.023977	0.016475	-0.017066
447	2.238057	0.005000	2.683161	-9.055951	-1.507030	-0.540304	0.062681	-0.369582	-0.009121	0.008021	-0.005099
448	2.243057	0.005000	2.574472	-9.040568	-1.624208	-0.539853	0.063132	-0.369708	-0.012339	0.020579	-0.011701
449	2.248057	0.005000	2.564945	-9.118025	-1.569600	-0.539401	0.063584	-0.369834	-0.014299	0.020069	-0.015481
450	2.253057	0.005000	2.576358	-9.092612	-1.543842	-0.538949	0.064036	-0.369960	-0.004884	0.019055	-0.007474
451	2.258057	0.005000	2.589840	-9.090915	-1.517595	-0.538960	0.063947	-0.369397	-0.008827	0.021736	-0.022042
452	2.263057	0.005000	2.640823	-9.103680	-1.479377	-0.539186	0.063609	-0.368514	-0.016321	0.013887	-0.004074
453	2.268057	0.005000	2.746800	-9.025200	-1.356561	-0.539412	0.063270	-0.367632	-0.015107	0.021298	-0.011875
454	2.273057	0.005000	2.658142	-9.074618	-1.441702	-0.539638	0.062931	-0.366749	-0.005345	0.009474	-0.013770
455	2.278057	0.005000	2.550600	-9.094044	-1.422276	-0.539864	0.062593	-0.365867	-0.008791	0.024962	-0.007025
456	2.283057	0.005000	2.572613	-9.055827	-1.508347	-0.540089	0.062254	-0.364984	-0.006727	0.012478	-0.019143
457	2.288057	0.005000	2.550600	-9.064440	-1.522678	-0.540315	0.061915	-0.364102	-0.000330	0.008913	-0.003400
458	2.293057	0.005000	2.575768	-9.025200	-1.369340	-0.540541	0.061576	-0.363219	-0.006606	0.019892	-0.017982
459	2.298057	0.005000	2.556626	-9.064440	-1.451880	-0.540767	0.061238	-0.362337	-0.004741	0.015095	-0.013218
460	2.303057	0.005000	2.629080	-9.127909	-1.407636	-0.540992	0.060899	-0.361454	-0.002793	0.022078	-0.014181
461	2.308057	0.005000	2.563938	-9.186606	-1.408194	-0.541218	0.060560	-0.360572	-0.013515	0.015357	-0.020312
462	2.313057	0.005000	2.632504	-9.139496	-1.373400	-0.541444	0.060221	-0.359689	-0.006480	0.014469	-0.005743
463	2.318057	0.005000	2.668320	-9.140039	-1.424166	-0.541670	0.059883	-0.358807	-0.012132	0.017360	-0.006633
464	2.323057	0.005000	2.741223	-9.068158	-1.601404	-0.541634	0.059806	-0.358801	-0.011104	0.009833	-0.001524
465	2.328057	0.005000	2.629080	-9.140379	-1.451880	-0.541295	0.060032	-0.359810	-0.009307	0.014992	-0.012269
466	2.333057	0.005000	2.668026	-9.103386	-1.412051	-0.540956	0.060258	-0.360820	-0.004609	0.014966	-0.012501
467	2.338057	0.005000	2.629080	-9.102952	-1.334160	-0.540617	0.060484	-0.361829	-0.015875	0.018968	-0.011322
468	2.343057	0.005000	2.630831	-9.069692	-1.332409	-0.540278	0.060710	-0.362839	-0.006251	0.016142	-0.009676
469	2.348057	0.005000	2.705252	-8.990576	-1.371092	-0.539939	0.060936	-0.363849	-0.003350	0.009744	-0.006162
470	2.353057	0.005000	2.668320	-9.071073	-1.373400	-0.539600	0.061162	-0.364858	-0.005100	0.013733	-0.010408
471	2.358057	0.005000	2.594178	-9.038213	-1.399627	-0.539261	0.061388	-0.365868	-0.009455	0.002390	-0.005024
472	2.363057	0.005000	2.605920	-9.126840	-1.384120	-0.538922	0.061614	-0.366877	-0.013157	0.023772	-0.016586
473	2.368057	0.005000	2.589840	-9.070358	-1.373400	-0.538583	0.061840	-0.367887	0.001756	0.011115	-0.012875
474	2.373057	0.005000	2.543660	-9.078320	-1.334160	-0.538244	0.062067	-0.368896	-0.002724	0.008198	-0.003568
475	2.378057	0.005000	2.652395	-9.087755	-1.342123	-0.537904	0.062293	-0.369906	-0.012756	0.018649	-0.015325
476	2.383057	0.005000	2.637585	-9.025200	-1.390410	-0.537565	0.062519	-0.370915	-0.006753	0.008389	-0.003199
477	2.388057	0.005000	2.599367	-9.103680	-1.382927	-0.537371	0.062600	-0.371538	-0.003356	0.015950	-0.011365
478	2.393057	0.005000	2.531748	-9.192354	-1.342817	-0.537597	0.062262	-0.371034	-0.015303	0.021094	-0.017288
479	2.398057	0.005000	2.550600	-9.159976	-1.468936	-0.537822	0.061923	-0.370530	-0.018229	0.017950	-0.022679
480	2.403057	0.005000	2.589840	-9.157931	-1.346274	-0.538048	0.061584	-0.370025	-0.022532	0.020061	-0.028571
481	2.408057	0.005000	2.615943	-9.142920	-1.464846	-0.538274	0.061246	-0.369521	-0.001703	0.011883	-0.013550
482	2.413057	0.005000	2.629080	-9.207721	-1.465559	-0.538500	0.060907	-0.369017	-0.007082	0.015569	-0.017333
483	2.418057	0.005000	2.619243	-9.133083	-1.564736	-0.538726	0.060568	-0.368512	-0.009316	0.008155	-0.009072
484	2.423057	0.005000	2.589840	-9.119404	-1.475536	-0.538952	0.060229	-0.368008	-0.012948	0.010837	-0.011538
485	2.428057	0.005000	2.596517	-9.159202	-1.428922	-0.539178	0.059891	-0.367504	-0.007413	0.010613	-0.006255
486	2.433057	0.005000	2.528664	-9.142920	-1.456512	-0.539403	0.059552	-0.366999	-0.016998	0.011112	-0.011308
487	2.438057	0.005000	2.532274	-9.082766	-1.454467	-0.539629	0.059213	-0.366495	-0.014012	0.021250	-0.018002
488	2.443057	0.005000	2.608709	-9.142920	-1.488115	-0.539855	0.058875	-0.365991	-0.003518	0.014377	-0.008176
489	2.448057	0.005000	2.472662	-9.045091	-1.354051	-0.540081	0.058536	-0.365487	-0.010367	0.011319	-0.017506
490	2.453057	0.005000	2.529686	-9.200486	-1.391726	-0.540295	0.058229	-0.365000	-0.012610	0.000742	-0.011607
491	2.458057	0.005000	2.568384	-9.182160	-1.569600	-0.540182	0.058794	-0.365000	-0.003892	0.010507	-0.010306
492	2.463057	0.005000	2.651558	-9.142920	-1.468642	-0.540069	0.059358	-0.365000	-0.017174	0.018311	-0.017460
493	2.468057	0.005000	2.629080	-9.103680	-1.420401	-0.539956	0.059923	-0.365000	-0.005717	0.006371	0.001527
494	2.473057	0.005000	2.613883	-9.040397	-1.412640	-0.539843	0.060488	-0.365000	-0.002365	0.018885	-0.013476
495	2.478057	0.005000	2.564775	-9.081899	-1.291636	-0.539730	0.061053	-0.365000	-0.019645	0.007140	-0.019917
496	2.483057	0.005000	2.537980	-9.156230	-1.308230	-0.539617	0.061618	-0.365000	-0.003814	0.015410	-0.010602
497	2.488057	0.005000	2.655725	-9.156971	-1.477069	-0.539504	0.062182	-0.365000	-0.000248	0.015087	-0.020896
498	2.493057	0.005000	2.617508	-9.064440	-1.451880	-0.539391	0.062747	-0.365000	-0.013607	0.008332	-0.017154
499	2.498057	0.005000	2.561165	-9.085570	-1.441315	-0.539278	0.063312	-0.365000	-0.013031	0.004488	-0.017412
500	2.503057	0.005000	2.531375	-9.103680	-1.373400	-0.539165	0.063877	-0.365000	-0.006042	0.007811	-0.009213
501	2.508057	0.005000	2.441865	-9.064440	-1.391370	-0.539052	0.064441	-0.365000	-0.006850	0.018314	-0.015879
502	2.513057	0.005000	2.535248	-8.985960	-1.459843	-0.538939	0.065006	-0.365000	0.000213	0.009816	-0.011151
503	2.518057	0.005000	2.543574	-9.025200	-1.555548	-0.538826	0.065571	-0.365000	-0.010692	0.013033	-0.002749
504	2.523057	0.005000	2.616284	-9.064440	-1.451880	-0.539084	0.065394	-0.365207	-0.005037	0.009998	-0.019776
505	2.528057	0.005000	2.561351	-9.069816	-1.389527	-0.539423	0.065055	-0.365459	-0.014259	0.010552	-0.005256
506	2.533057	0.005000	2.550600	-9.182160	-1.495953	-0.539762	0.064716	-0.365712	-0.010725	0.017139	-0.018643
507	2.538057	0.005000	2.617647	-9.217589	-1.483498	-0.540101	0.064377	-0.365964	-0.011606	0.009219	-0.011744
508	2.543057	0.005000	2.556177	-9.182160	-1.381765	-0.540440	0.064038	-0.366216	-0.010690	0.008794	-0.003205
509	2.548057	0.005000	2.703986	-9.100106	-1.607053	-0.540779	0.063699	-0.366468	-0.019432	0.014094	-0.009764
510	2.553057	0.005000	2.629080	-9.065649	-1.529151	-0.541118	0.063360	-0.366721	-0.004173	0.013474	0.001969
511	2.558057	0.005000	2.667514	-9.064239	-1.491523	-0.541456	0.063022	-0.366973	-0.004559	0.018428	-0.016075
512	2.563057	0.005000	2.511360	-9.025200	-1.454343	-0.541795	0.062683	-0.367225	-0.007254	0.018365	-0.010309
513	2.568057	0.005000	2.665529	-9.063045	-1.528965	-0.542134	0.062344	-0.367477	-0.008986	0.015264	-0.015132
514	2.573057	0.005000	2.548199	-9.030002	-1.378202	-0.542473	0.062005	-0.367729	-0.012342	0.007522	-0.016753
515	2.578057	0.005000	2.482391	-9.100256	-1.412640	-0.542812	0.061666	-0.367982	-0.007906	0.012234	-0.017579
516	2.583057	0.005000	2.585394	-9.029646	-1.264572	-0.543151	0.061327	-0.368234	-0.006489	0.015207	-0.003288
517	2.588057	0.005000	2.619103	-9.137932	-1.402663	-0.543078	0.061263	-0.368333	-0.008106	0.017144	-0.013729
518	2.593057	0.005000	2.562621	-9.103680	-1.445869	-0.542739	0.061376	-0.368333	-0.003755	0.025407	-0.018744
519	2.598057	0.005000	2.654254	-9.103680	-1.387466	-0.542401	0.061489	-0.368333	0.002058	0.010985	-0.014435
520	2.603057	0.005000	2.660264	-9.033256	-1.419658	-0.542062	0.061602	-0.368333	-0.009732	0.020212	-0.015973
521	2.608057	0.005000	2.615633	-9.055842	-1.521762	-0.541723	0.061715	-0.368333	0.000969	0.010153	-0.015355
522	2.613057	0.005000	2.560220	-9.054820	-1.462259	-0.541384	0.061828	-0.368333	0.001624	0.006012	-0.006977
523	2.618057	0.005000	2.607795	-9.103680	-1.462523	-0.541045	0.061940	-0.368333	-0.016592	0.015970	-0.021511
524	2.623057	0.005000	2.539415	-9.187845	-1.507990	-0.540706	0.062053	-0.368333	-0.007526	0.009457	-0.017002
525	2.628057	0.005000	2.680527	-9.076647	-1.424847	-0.540367	0.062166	-0.368333	-0.009852	0.020326	-0.009121
526	2.633057	0.005000	2.655090	-9.077220	-1.503900	-0.540028	0.062279	-0.368333	-0.011010	0.015421	-0.019597
527	2.638057	0.005000	2.629080	-9.092345	-1.594887	-0.539690	0.062392	-0.368333	-0.011026	0.011635	-0.009399
528	2.643057	0.005000	2.604634	-9.039994	-1.466674	-0.539351	0.062505	-0.368333	-0.013077	0.022851	-0.015774
529	2.648057	0.005000	2.503754	-9.204979	-1.389217	-0.539012	0.062618	-0.368333	-0.009555	0.012252	-0.007712
530	2.653057	0.005000	2.477681	-9.182160	-1.362122	-0.538762	0.062687	-0.368036	-0.015915	0.016929	-0.006736
531	2.658057	0.005000	2.632597	-9.118025	-1.469742	-0.538649	0.062687	-0.367279	-0.010807	0.015615	-0.005841
532	2.663057	0.005000	2.668320	-8.967541	-1.509539	-0.538536	0.062687	-0.366522	-0.007406	0.017089	-0.003574
533	2.668057	0.005000	2.589840	-9.025200	-1.451167	-0.538423	0.062687	-0.365765	-0.006832	0.014236	-0.018192
534	2.673057	0.005000	2.551807	-9.023993	-1.430449	-0.538310	0.062687	-0.365009	-0.007703	0.010825	-0.013136
535	2.678057	0.005000	2.550600	-9.103680	-1.451880	-0.538197	0.062687	-0.364252	-0.011132	0.008712	-0.010850
536	2.683057	0.005000	2.550600	-9.108498	-1.447062	-0.538084	0.062687	-0.363495	-0.010159	0.007956	-0.001462
537	2.688057	0.005000	2.494971	-9.103680	-1.563138	-0.537971	0.062687	-0.362738	-0.003414	0.019053	-0.011439
538	2.693057	0.005000	2.566246	-9.080086	-1.530360	-0.537858	0.062687	-0.361982	-0.015783	0.006496	-0.014013
539	2.698057	0.005000	2.629080	-9.103680	-1.466504	-0.537745	0.062687	-0.361225	-0.013477	0.009228	-0.009496
540	2.703057	0.005000	2.627515	-9.105245	-1.463917	-0.537632	0.062687	-0.360468	-0.012069	0.019756	-0.021446
541	2.708057	0.005000	2.616021	-9.116801	-1.294920	-0.537519	0.062687	-0.359711	0.001441	0.014099	-0.017683
542	2.713057	0.005000	2.574674	-9.013163	-1.361363	-0.537406	0.062687	-0.358954	-0.008014	0.022950	-0.010837
543	2.718057	0.005000	2.539586	-9.064440	-1.491120	-0.537333	0.062647	-0.358401	-0.004533	0.006480	-0.013753
544	2.723057	0.005000	2.600297	-9.056570	-1.441423	-0.537446	0.062421	-0.358779	-0.005531	0.008182	-0.016491
545	2.728057	0.005000	2.629080	-9.034638	-1.362474	-0.537559	0.062195	-0.359157	-0.016171	0.012891	-0.015656
546	2.733057	0.005000	2.502832	-9.047383	-1.460408	-0.537672	0.061969	-0.359535	-0.006823	0.012018	-0.005368
547	2.738057	0.005000	2.629080	-9.103680	-1.530360	-0.537785	0.061743	-0.359913	-0.015608	0.021309	-0.014637
548	2.743057	0.005000	2.589840	-9.071287	-1.491120	-0.537898	0.061517	-0.360292	-0.018923	0.018199	-0.010714
549	2.748057	0.005000	2.583535	-9.136615	-1.556990	-0.538011	0.061291	-0.360670	-0.016187	0.018017	-0.014356
550	2.753057	0.005000	2.668320	-9.226683	-1.509230	-0.538124	0.061066	-0.361048	-0.008454	0.013476	-0.007810
551	2.758057	0.005000	2.633340	-9.177900	-1.425420	-0.538237	0.060840	-0.361426	-0.016663	0.018527	-0.007087
552	2.763057	0.005000	2.636516	-9.068158	-1.420076	-0.538350	0.060614	-0.361805	-0.009396	0.013571	-0.017351
553	2.768057	0.005000	2.634471	-9.061744	-1.370704	-0.538463	0.060388	-0.362183	-0.010961	0.013704	-0.013526
554	2.773057	0.005000	2.591533	-9.101987	-1.416026	-0.538575	0.060162	-0.362561	-0.016975	0.017274	-0.022231
555	2.778057	0.005000	2.704214	-9.066671	-1.493351	-0.538688	0.059936	-0.362939	-0.006300	0.011030	-0.013460
556	2.783057	0.005000	2.472214	-9.182066	-1.569506	-0.538801	0.059710	-0.363317	-0.016480	0.026074	-0.013902
557	2.788057	0.005000	2.550151	-9.026548	-1.452779	-0.539239	0.059484	-0.362728	-0.021514	0.016007	-0.021031
558	2.793057	0.005000	2.706088	-9.141448	-1.447465	-0.539691	0.059258	-0.362097	-0.004898	0.008258	-0.010081
559	2.798057	0.005000	2.589840	-9.025200	-1.412640	-0.540143	0.059032	-0.361466	-0.010686	0.010540	-0.020991
560	2.803057	0.005000	2.701487	-9.028236	-1.409604	-0.540595	0.058806	-0.360835	-0.002818	0.014163	-0.015440
561	2.808057	0.005000	2.593899	-9.021141	-1.389635	-0.541047	0.058580	-0.360205	-0.011016	0.020411	-0.007268
562	2.813057	0.005000	2.550600	-9.059782	-1.373400	-0.541499	0.058354	-0.359574	-0.003741	0.017416	-0.008833
563	2.818057	0.005000	2.662697	-9.103680	-1.479873	-0.541951	0.058128	-0.358943	-0.001558	0.017619	-0.013169
564	2.823057	0.005000	2.674966	-9.031846	-1.451880	-0.542403	0.057902	-0.358312	-0.003336	0.012138	-0.018199
565	2.828057	0.005000	2.533230	-9.089100	-1.483830	-0.542855	0.057676	-0.357681	-0.005573	0.013476	-0.004133
566	2.833057	0.005000	2.573388	-9.213174	-1.389852	-0.543307	0.057450	-0.357050	-0.013873	0.025003	-0.024485
567	2.838057	0.005000	2.599088	-9.022954	-1.301922	-0.543759	0.057224	-0.356419	-0.001184	0.005540	-0.006403
568	2.843057	0.005000	2.599752	-9.083856	-1.441968	-0.544211	0.056998	-0.355788	-0.004690	0.012436	-0.008050
569	2.848057	0.005000	2.532986	-9.092867	-1.366599	-0.544663	0.056772	-0.355157	-0.011754	0.007707	-0.019422
570	2.853057	0.005000	2.499524	-9.182160	-1.397071	-0.545709	0.056292	-0.354337	-0.006453	0.007782	-0.011990
571	2.858057	0.005000	2.604325	-9.260640	-1.464258	-0.546951	0.055727	-0.353454	-0.013530	0.022649	-0.020957
572	2.863057	0.005000	2.629080	-9.130480	-1.425080	-0.548193	0.055163	-0.352571	-0.005883	0.007496	-0.016372
573	2.868057	0.005000	2.629080	-9.025200	-1.408612	-0.549436	0.054598	-0.351689	-0.002508	0.009715	-0.011231
574	2.873057	0.005000	2.589840	-8.985960	-1.436915	-0.550678	0.054033	-0.350806	-0.012759	0.012801	-0.012313
575	2.878057	0.005000	2.527347	-9.032466	-1.435893	-0.551921	0.053469	-0.349923	-0.011107	0.014244	-0.013439
576	2.883057	0.005000	2.528370	-9.170371	-1.328939	-0.553163	0.052904	-0.349040	-0.006147	0.010533	-0.014542
577	2.888057	0.005000	2.550600	-9.203833	-1.334160	-0.554406	0.052339	-0.348157	-0.014826	0.011577	-0.012468
578	2.893057	0.005000	2.589840	-9.142920	-1.414700	-0.555648	0.051775	-0.347274	-0.006864	0.017623	-0.017184
579	2.898057	0.005000	2.491732	-9.103680	-1.432268	-0.556891	0.051210	-0.346391	-0.007396	0.012841	-0.016199
580	2.903057	0.005000	2.511360	-9.083526	-1.354314	-0.558133	0.050645	-0.345508	-0.005967	0.015545	-0.014908
581	2.908057	0.005000	2.547486	-9.004023	-1.430703	-0.559376	0.050080	-0.344625	0.004032	0.023762	-0.010934
582	2.913057	0.005000	2.545864	-8.985960	-1.473868	-0.560618	0.049516	-0.343742	0.008270	0.010010	-0.010033
583	2.918057	0.005000	2.511360	-9.018957	-1.422895	-0.561194	0.049193	-0.342859	-0.011675	0.023386	-0.018937
584	2.923057	0.005000	2.620792	-9.088204	-1.593364	-0.561194	0.049080	-0.341977	0.003535	0.002266	-0.015174
585	2.928057	0.005000	2.619105	-9.049807	-1.544993	-0.561194	0.048967	-0.341094	-0.004322	0.018437	-0.007506
586	2.933057	0.005000	2.629080	-9.053023	-1.424057	-0.561194	0.048854	-0.340211	-0.006520	0.016770	-0.013954
587	2.938057	0.005000	2.602729	-9.142920	-1.438418	-0.561194	0.048741	-0.339328	0.000240	0.013869	-0.008389
588	2.943057	0.005000	2.550600	-9.115689	-1.439871	-0.561194	0.048628	-0.338445	0.005172	0.021285	-0.014260
589	2.948057	0.005000	2.550600	-9.170851	-1.412640	-0.561194	0.048515	-0.337562	0.008462	0.023683	-0.009989
590	2.953057	0.005000	2.598221	-9.064440	-1.354733	-0.561194	0.048402	-0.336679	0.007153	0.020956	-0.018916
591	2.958057	0.005000	2.640148	-9.083221	-1.255680	-0.561194	0.048290	-0.335797	-0.006219	0.017896	-0.023374
592	2.963057	0.005000	2.559322	-9.182160	-1.364678	-0.561194	0.048177	-0.334914	-0.004102	0.022513	-0.013671
593	2.968057	0.005000	2.699861	-9.095981	-1.341859	-0.561194	0.048064	-0.334031	-0.007406	0.016568	-0.018936
594	2.973057	0.005000	2.589840	-9.103680	-1.327003	-0.561194	0.047951	-0.333148	-0.009056	0.015561	-0.012019
595	2.978057	0.005000	2.538331	-9.136785	-1.373400	-0.561194	0.047838	-0.332265	-0.007966	0.016826	-0.016270
596	2.983057	0.005000	2.589840	-9.142920	-1.407528	-0.560721	0.048125	-0.332562	-0.013029	-0.004746	-0.014611
597	2.988057	0.005000	2.550600	-9.182160	-1.447310	-0.559252	0.049255	-0.335336	-0.020141	0.011787	-0.012362
598	2.993057	0.005000	2.636175	-9.071535	-1.569600	-0.557784	0.050384	-0.338111	-0.019453	0.019148	-0.018003
599	2.998057	0.005000	2.550600	-9.103680	-1.451880	-0.556316	0.051514	-0.340886	-0.019577	0.017603	-0.015480
600	3.003057	0.005000	2.513327	-9.140953	-1.412640	-0.554847	0.052643	-0.343661	-0.023040	0.015347	-0.028496
601	3.008057	0.005000	2.630025	-9.103680	-1.335105	-0.553379	0.053773	-0.346435	-0.014215	0.003592	-0.017105
602	3.013057	0.005000	2.629157	-9.103680	-1.373400	-0.551911	0.054902	-0.349210	-0.015382	0.012633	-0.012317
603	3.018057	0.005000	2.551839	-9.180921	-1.294920	-0.550442	0.056032	-0.351985	-0.016369	0.006332	-0.019904
604	3.023057	0.005000	2.586556	-9.103680	-1.218082	-0.548974	0.057162	-0.354760	-0.017204	0.002867	-0.011703
605	3.028057	0.005000	2.546177	-9.140709	-1.290497	-0.547506	0.058291	-0.357534	-0.016359	0.011991	-0.010785
606	3.033057	0.005000	2.504947	-9.103680	-1.445467	-0.546037	0.059421	-0.360309	-0.015935	0.014300	-0.019075
607	3.038057	0.005000	2.589840	-9.107909	-1.346848	-0.544569	0.060550	-0.363084	-0.021399	0.012855	-0.016678
608	3.043057	0.005000	2.574085	-9.108932	-1.294920	-0.543100	0.061680	-0.365858	-0.020093	0.011997	-0.001907
609	3.048057	0.005000	2.674186	-9.103680	-1.379266	-0.541779	0.062675	-0.368347	-0.022946	0.016255	-0.011957
610	3.053057	0.005000	2.649529	-9.038833	-1.399007	-0.541666	0.062562	-0.368473	-0.026929	0.019013	-0.014838
611	3.058057	0.005000	2.691883	-9.033039	-1.404801	-0.541553	0.062449	-0.368599	-0.024626	0.014274	-0.005282
612	3.063057	0.005000	2.816783	-9.112177	-1.351154	-0.541440	0.062336	-0.368725	-0.028376	0.017156	-0.026357
613	3.068057	0.005000	2.677739	-9.055021	-1.401657	-0.541327	0.062223	-0.368851	-0.021324	0.003785	-0.009894
614	3.073057	0.005000	2.629080	-9.035630	-1.373400	-0.541214	0.062110	-0.368977	-0.030667	0.017883	-0.017578
615	3.078057	0.005000	2.568601	-9.041544	-1.412640	-0.541101	0.061997	-0.369104	-0.028657	0.010969	-0.022974
616	3.083057	0.005000	2.577834	-9.091674	-1.397412	-0.540988	0.061884	-0.369230	-0.023374	0.014080	-0.007532
617	3.088057	0.005000	2.589995	-9.208372	-1.412640	-0.540875	0.061771	-0.369356	-0.029643	0.027734	-0.025597
618	3.093057	0.005000	2.657182	-9.039251	-1.505171	-0.540763	0.061658	-0.369482	-0.025327	0.020868	-0.014275
619	3.098057	0.005000	2.629080	-9.049666	-1.530360	-0.540650	0.061545	-0.369608	-0.030657	0.021803	-0.023875
620	3.103057	0.005000	2.589840	-9.158535	-1.467495	-0.540537	0.061432	-0.369734	-0.036831	0.014326	-0.021826
621	3.108057	0.005000	2.668320	-9.148884	-1.412640	-0.540424	0.061319	-0.369860	-0.011901	0.013647	-0.013403
622	3.113057	0.005000	2.611900	-9.226280	-1.469060	-0.540311	0.061206	-0.369987	-0.017949	0.019802	-0.023559
623	3.118057	0.005000	2.710395	-9.161123	-1.470083	-0.540703	0.061194	-0.369662	-0.014522	0.017443	-0.014650
624	3.123057	0.005000	2.629080	-9.162935	-1.413430	-0.541154	0.061194	-0.369284	-0.018152	0.014150	-0.024198
625	3.128057	0.005000	2.706776	-9.163716	-1.471892	-0.541606	0.061194	-0.368905	-0.020142	0.015283	-0.020055
626	3.133057	0.005000	2.612969	-9.062101	-1.470330	-0.542058	0.061194	-0.368527	-0.024837	0.018802	-0.026434
627	3.138057	0.005000	2.629080	-9.025200	-1.547788	-0.542509	0.061194	-0.368149	-0.015359	0.019591	-0.014400
628	3.143057	0.005000	2.557029	-9.126514	-1.530360	-0.542961	0.061194	-0.367771	-0.013733	0.020011	-0.007045
629	3.148057	0.005000	2.644647	-9.127353	-1.514793	-0.543412	0.061194	-0.367393	-0.009706	0.017880	-0.017938
630	3.153057	0.005000	2.619491	-9.064440	-1.451880	-0.543864	0.061194	-0.367014	-0.002035	0.011408	-0.001240
631	3.158057	0.005000	2.619642	-9.050632	-1.595032	-0.544315	0.061194	-0.366636	-0.007926	0.019724	-0.019645
632	3.163057	0.005000	2.681661	-8.998909	-1.543701	-0.544767	0.061194	-0.366258	-0.004745	0.010758	-0.017509
633	3.168057	0.005000	2.680558	-9.010437	-1.466643	-0.545219	0.061194	-0.365880	-0.011481	0.015860	-0.009869
634	3.173057	0.005000	2.679505	-8.985960	-1.463096	-0.545670	0.061194	-0.365502	-0.002801	0.017846	-0.020264
635	3.178057	0.005000	2.591374	-9.035393	-1.411106	-0.546122	0.061194	-0.365123	0.002071	0.018990	-0.003104
636	3.183057	0.005000	2.589840	-9.064440	-1.451880	-0.545964	0.061194	-0.364745	-0.003595	0.022649	-0.017064
637	3.188057	0.005000	2.598469	-8.994589	-1.473862	-0.545512	0.061194	-0.364366	-0.007788	0.014355	-0.022449
638	3.193057	0.005000	2.629080	-9.072046	-1.459486	-0.545060	0.061194	-0.363988	-0.000856	0.023665	-0.019697
639	3.198057	0.005000	2.583256	-9.097096	-1.491120	-0.544608	0.061194	-0.363609	-0.006874	0.017190	-0.009016
640	3.203057	0.005000	2.517402	-9.103680	-1.563558	-0.544156	0.061194	-0.363231	0.003051	0.010524	-0.006311
641	3.208057	0.005000	2.619042	-9.177141	-1.451880	-0.543704	0.061194	-0.362852	0.002831	0.013213	-0.010515
642	3.213057	0.005000	2.621086	-9.103680	-1.526363	-0.543252	0.061194	-0.362474	-0.001349	0.011240	-0.004090
643	3.218057	0.005000	2.625625	-9.103680	-1.451880	-0.542800	0.061194	-0.362095	0.000458	0.022716	-0.014031
644	3.223057	0.005000	2.587408	-9.142920	-1.415072	-0.542348	0.061194	-0.361716	-0.004709	0.009487	-0.007476
645	3.228057	0.005000	2.668320	-9.102270	-1.524721	-0.541896	0.061194	-0.361338	-0.003920	0.014465	-0.012431
646	3.233057	0.005000	2.665764	-8.986812	-1.414344	-0.541444	0.061194	-0.360959	0.012344	0.015134	-0.011145
647	3.238057	0.005000	2.589670	-9.142409	-1.452050	-0.540992	0.061194	-0.360581	0.005249	0.011307	-0.008243
648	3.243057	0.005000	2.587454	-9.026393	-1.488734	-0.540540	0.061194	-0.360202	-0.009532	0.023849	-0.015443
649	3.248057	0.005000	2.703159	-9.062239	-1.611041	-0.540404	0.060984	-0.360176	0.001633	0.013823	-0.005806
650	3.253057	0.005000	2.668320	-9.025200	-1.454637	-0.540630	0.060532	-0.360555	-0.004604	0.018326	-0.012797
651	3.258057	0.005000	2.554380	-9.060660	-1.459440	-0.540856	0.060080	-0.360933	-0.001376	0.008080	-0.017305
652	3.263057	0.005000	2.615953	-9.103680	-1.460631	-0.541082	0.059628	-0.361311	0.011210	0.008175	-0.002177
653	3.268057	0.005000	2.629080	-9.142920	-1.462569	-0.541308	0.059176	-0.361690	0.000830	0.013732	-0.019975
654	3.273057	0.005000	2.773306	-9.037934	-1.563233	-0.541534	0.058725	-0.362068	-0.001833	0.009076	-0.005280
655	3.278057	0.005000	2.714555	-9.103680	-1.472864	-0.541760	0.058273	-0.362447	0.005727	0.018784	-0.010728
656	3.283057	0.005000	2.707560	-9.087817	-1.467325	-0.541986	0.057821	-0.362825	-0.001414	0.018148	-0.005130
657	3.288057	0.005000	2.646988	-9.064440	-1.460834	-0.542211	0.057369	-0.363203	-0.000458	0.014247	-0.003382
658	3.293057	0.005000	2.589840	-9.162873	-1.383377	-0.542437	0.056917	-0.363582	-0.000053	0.018656	-0.015376
659	3.298057	0.005000	2.618546	-9.064440	-1.294920	-0.542663	0.056466	-0.363960	-0.005348	0.025289	-0.013761
660	3.303057	0.005000	2.522906	-9.075986	-1.357251	-0.542889	0.056014	-0.364339	-0.004386	0.021674	-0.012168
661	3.308057	0.005000	2.589840	-9.142920	-1.427392	-0.543115	0.055562	-0.364717	0.011869	0.016507	-0.004958
662	3.313057	0.005000	2.602837	-9.090559	-1.451880	-0.543227	0.055110	-0.364873	0.004536	0.019773	-0.014635
663	3.318057	0.005000	2.550600	-9.064440	-1.569600	-0.543001	0.054659	-0.364369	-0.001098	0.005389	-0.011259
664	3.323057	0.005000	2.620172	-9.016292	-1.467046	-0.542776	0.054207	-0.363864	0.000308	0.010990	-0.004467
665	3.328057	0.005000	2.582017	-9.072263	-1.451880	-0.542550	0.053756	-0.363360	0.007837	0.016851	-0.019763
666	3.333057	0.005000	2.584666	-9.081171	-1.418418	-0.542324	0.053304	-0.362856	0.004665	0.010982	-0.013859
667	3.338057	0.005000	2.672053	-9.042953	-1.473367	-0.542098	0.052852	-0.362351	-0.008325	0.020275	-0.018564
668	3.343057	0.005000	2.548404	-9.045918	-1.511838	-0.541872	0.052401	-0.361847	-0.001141	0.013948	-0.018208
669	3.348057	0.005000	2.530074	-9.084362	-1.412036	-0.541647	0.051949	-0.361343	0.002274	0.010216	-0.014023
670	3.353057	0.005000	2.511360	-9.064440	-1.353060	-0.541421	0.051498	-0.360839	-0.006734	0.010050	-0.018616
671	3.358057	0.005000	2.550600	-9.085338	-1.394298	-0.541195	0.051046	-0.360334	-0.012381	0.016338	-0.003153
672	3.363057	0.005000	2.572505	-9.121015	-1.447310	-0.540969	0.050594	-0.359830	-0.007164	0.016817	-0.013217
673	3.368057	0.005000	2.557215	-9.165847	-1.402942	-0.540743	0.050143	-0.359326	-0.011695	0.021883	-0.010140
674	3.373057	0.005000	2.621350	-9.103680	-1.389155	-0.540518	0.049691	-0.358821	-0.006937	0.013978	-0.016760
675	3.378057	0.005000	2.629080	-9.088948	-1.339117	-0.540288	0.049272	-0.358357	0.001535	0.008262	-0.013958
676	3.383057	0.005000	2.629080	-9.039080	-1.345640	-0.539949	0.049837	-0.359114	-0.010505	0.015187	-0.005844
677	3.388057	0.005000	2.615912	-9.129752	-1.308351	-0.539611	0.050401	-0.359870	-0.008356	0.009905	-0.015337
678	3.393057	0.005000	2.656175	-9.091535	-1.427589	-0.539272	0.050966	-0.360627	-0.010796	0.007562	-0.004938
679	3.398057	0.005000	2.589840	-9.047446	-1.418511	-0.538933	0.051531	-0.361384	-0.020565	0.019712	-0.017232
680	3.403057	0.005000	2.678901	-9.035781	-1.409557	-0.538594	0.052095	-0.362141	-0.005720	0.007372	-0.010063
681	3.408057	0.005000	2.599398	-9.064440	-1.403082	-0.538255	0.052660	-0.362897	-0.013333	0.009962	-0.000212
682	3.413057	0.005000	2.634177	-9.112216	-1.334160	-0.537916	0.053225	-0.363654	-0.016052	0.019104	-0.012137
683	3.418057	0.005000	2.637061	-9.064440	-1.365419	-0.537577	0.053789	-0.364411	0.001323	0.011659	-0.009010
684	3.423057	0.005000	2.596811	-9.103680	-1.276594	-0.537238	0.054354	-0.365168	-0.021903	0.023145	-0.013202
685	3.428057	0.005000	2.740387	-9.123680	-1.379813	-0.536900	0.054919	-0.365925	-0.016905	0.013612	-0.006921
686	3.433057	0.005000	2.712951	-9.064440	-1.418031	-0.536561	0.055483	-0.366681	-0.011787	0.017535	-0.012050
687	3.438057	0.005000	2.663951	-9.108049	-1.478014	-0.536222	0.056048	-0.367438	-0.011040	0.016755	-0.003054
688	3.443057	0.005000	2.589840	-9.139094	-1.377226	-0.535883	0.056613	-0.368195	-0.003603	0.018891	-0.003461
689	3.448057	0.005000	2.514164	-9.106484	-1.530360	-0.536006	0.056808	-0.368333	-0.016216	0.018132	-0.015521
690	3.453057	0.005000	2.511360	-9.103680	-1.528578	-0.536232	0.056921	-0.368333	-0.018105	0.016348	-0.016138
691	3.458057	0.005000	2.590608	-9.105217	-1.412640	-0.536457	0.057034	-0.368333	-0.018885	0.024026	-0.027079
692	3.463057	0.005000	2.668103	-9.142486	-1.373617	-0.536683	0.057147	-0.368333	-0.008934	0.004536	-0.018074
693	3.468057	0.005000	2.629080	-9.179743	-1.335771	-0.536909	0.057260	-0.368333	-0.019551	0.017751	-0.015443
694	3.473057	0.005000	2.552428	-9.064440	-1.294920	-0.537135	0.057373	-0.368333	-0.020712	0.012456	-0.014610
695	3.478057	0.005000	2.665950	-9.138180	-1.412640	-0.537361	0.057486	-0.368333	-0.024505	0.015127	-0.008691
696	3.483057	0.005000	2.589840	-9.107073	-1.305098	-0.537587	0.057599	-0.368333	-0.023083	0.016232	-0.020025
697	3.488057	0.005000	2.472120	-9.138922	-1.404645	-0.537813	0.057712	-0.368333	-0.019598	0.009493	-0.022383
698	3.493057	0.005000	2.506387	-9.137947	-1.354051	-0.538039	0.057825	-0.368333	-0.013793	0.016803	-0.011358
699	3.498057	0.005000	2.556595	-9.070435	-1.479130	-0.538265	0.057938	-0.368333	-0.019157	0.014767	-0.022233
700	3.503057	0.005000	2.582822	-9.103680	-1.523342	-0.538491	0.058051	-0.368333	-0.018021	0.005345	-0.009468
701	3.508057	0.005000	2.683440	-9.032760	-1.451880	-0.538716	0.058164	-0.368333	-0.017730	0.014645	-0.020010
702	3.513057	0.005000	2.497867	-9.086515	-1.421222	-0.538874	0.058005	-0.368105	-0.011035	0.008863	-0.005987
703	3.518057	0.005000	2.511360	-9.142920	-1.421878	-0.538987	0.057666	-0.367727	-0.014609	0.013013	-0.013015
704	3.523057	0.005000	2.501213	-9.054293	-1.511414	-0.539100	0.057327	-0.367348	-0.018945	0.016107	-0.011494
705	3.528057	0.005000	2.500191	-9.092511	-1.586501	-0.539213	0.056988	-0.366970	-0.034735	0.012410	-0.018155
706	3.533057	0.005000	2.602032	-9.128064	-1.500647	-0.539326	0.056650	-0.366592	-0.019945	0.009309	-0.014470
707	3.538057	0.005000	2.511360	-9.037934	-1.334160	-0.539439	0.056311	-0.366214	-0.018767	0.009298	-0.002512
708	3.543057	0.005000	2.536844	-9.140891	-1.436094	-0.539552	0.055972	-0.365836	-0.017964	0.019180	-0.018233
709	3.548057	0.005000	2.600109	-9.093411	-1.406589	-0.539665	0.055634	-0.365457	-0.002201	0.006172	-0.007909
710	3.553057	0.005000	2.542033	-8.946720	-1.381967	-0.539778	0.055295	-0.365079	-0.007648	0.024513	-0.014793
711	3.558057	0.005000	2.674842	-9.070962	-1.491120	-0.539891	0.054956	-0.364701	-0.019787	0.018294	-0.014563
712	3.563057	0.005000	2.572729	-9.147939	-1.513249	-0.540003	0.054617	-0.364323	-0.007259	0.010560	-0.001055
713	3.568057	0.005000	2.529284	-9.160844	-1.491120	-0.540116	0.054279	-0.363944	-0.015187	0.018878	-0.019463
714	3.573057	0.005000	2.608786	-9.103680	-1.530360	-0.540229	0.053940	-0.363566	-0.010580	0.009568	-0.004482
715	3.578057	0.005000	2.628860	-9.064440	-1.530360	-0.540256	0.053904	-0.363526	-0.007969	0.013586	-0.005605
716	3.583057	0.005000	2.571111	-9.045711	-1.431369	-0.540143	0.054356	-0.364031	-0.011015	0.015297	-0.017650
717	3.588057	0.005000	2.629080	-9.078320	-1.430347	-0.540030	0.054808	-0.364535	-0.007178	0.023673	-0.022297
718	3.593057	0.005000	2.662862	-9.103680	-1.440964	-0.539917	0.055259	-0.365040	-0.013544	0.020707	-0.021623
719	3.598057	0.005000	2.589840	-9.071396	-1.468022	-0.539804	0.055711	-0.365544	-0.012425	0.015448	-0.011405
720	3.603057	0.005000	2.589840	-9.040320	-1.506240	-0.539691	0.056163	-0.366049	-0.009336	0.019948	-0.019383
721	3.608057	0.005000	2.579724	-9.103680	-1.540476	-0.539578	0.056615	-0.366554	0.005709	0.013761	-0.004755
722	3.613057	0.005000	2.511360	-9.090140	-1.373400	-0.539465	0.057067	-0.367058	-0.004629	0.022341	-0.016567
723	3.618057	0.005000	2.577318	-9.050244	-1.332486	-0.539352	0.057518	-0.367563	-0.003612	0.023559	-0.022691
724	3.623057	0.005000	2.605130	-9.142920	-1.463855	-0.539239	0.057970	-0.368067	-0.003448	0.021714	-0.010774
725	3.628057	0.005000	2.622697	-9.114632	-1.502072	-0.539126	0.058422	-0.368572	-0.004846	0.019536	-0.015909
726	3.633057	0.005000	2.647499	-9.190169	-1.519950	-0.539013	0.058874	-0.369076	-0.007829	0.010663	-0.011405
727	3.638057	0.005000	2.630769	-9.043976	-1.539748	-0.538900	0.059326	-0.369581	-0.003279	0.008099	-0.006837
728	3.643057	0.005000	2.645811	-9.056075	-1.569600	-0.538844	0.059720	-0.370000	-0.005630	0.015629	-0.017879
729	3.648057	0.005000	2.636903	-9.127274	-1.546130	-0.539070	0.059833	-0.370000	0.001177	0.010368	-0.006204
730	3.653057	0.005000	2.714361	-9.025200	-1.387002	-0.539296	0.059946	-0.370000	-0.012494	0.017962	-0.010298
731	3.658057	0.005000	2.701782	-9.030978	-1.418418	-0.539522	0.060059	-0.370000	-0.012663	0.020739	-0.005539
732	3.663057	0.005000	2.702339	-9.025200	-1.373400	-0.539748	0.060172	-0.370000	-0.007411	0.015915	-0.011156
733	3.668057	0.005000	2.637476	-9.134524	-1.495318	-0.539974	0.060285	-0.370000	-0.011163	0.012187	-0.015987
734	3.673057	0.005000	2.665144	-9.028376	-1.406288	-0.540200	0.060398	-0.370000	-0.012660	0.021022	-0.019221
735	3.678057	0.005000	2.663053	-9.103680	-1.326259	-0.540426	0.060511	-0.370000	-0.009181	0.013176	-0.010849
736	3.683057	0.005000	2.625858	-9.064440	-1.338993	-0.540652	0.060624	-0.370000	-0.010408	0.018955	-0.011299
737	3.688057	0.005000	2.511949	-9.063263	-1.374577	-0.540878	0.060737	-0.370000	-0.015020	0.019699	-0.014171
738	3.693057	0.005000	2.667019	-9.063572	-1.451880	-0.541104	0.060850	-0.370000	-0.008431	0.010216	-0.013557
739	3.698057	0.005000	2.588852	-9.026188	-1.491120	-0.541330	0.060964	-0.370000	-0.015966	0.020476	-0.025901
740	3.703057	0.005000	2.550600	-9.027198	-1.491120	-0.541556	0.061077	-0.370000	-0.019644	0.016333	-0.013380
741	3.708057	0.005000	2.580777	-8.985960	-1.451880	-0.541782	0.061190	-0.370000	-0.013416	0.011155	-0.003762
742	3.713057	0.005000	2.511360	-9.021593	-1.409033	-0.541574	0.061411	-0.369637	-0.024127	0.023211	-0.014597
743	3.718057	0.005000	2.659149	-9.059855	-1.451880	-0.541348	0.061637	-0.369258	-0.008347	0.015004	-0.008879
744	3.723057	0.005000	2.511360	-9.120488	-1.345376	-0.541122	0.061863	-0.368880	-0.020273	0.020407	-0.006189
745	3.728057	0.005000	2.655841	-9.097440	-1.445640	-0.540897	0.062088	-0.368502	-0.008335	0.015551	-0.014062
746	3.733057	0.005000	2.597028	-9.167784	-1.427016	-0.540671	0.062314	-0.368124	-0.000944	0.008086	-0.015695
747	3.738057	0.005000	2.643735	-9.205010	-1.445420	-0.540445	0.062540	-0.367745	-0.008552	0.012657	-0.009028
748	3.743057	0.005000	2.598698	-9.151778	-1.534170	-0.540219	0.062766	-0.367367	-0.006955	0.009669	0.004467
749	3.748057	0.005000	2.599615	-9.103680	-1.432190	-0.539993	0.062992	-0.366989	0.001175	0.014640	-0.014603
750	3.753057	0.005000	2.550600	-9.239045	-1.394995	-0.539768	0.063217	-0.366611	-0.007951	0.016355	-0.005023
751	3.758057	0.005000	2.539120	-9.165881	-1.373400	-0.539542	0.063443	-0.366233	-0.017242	0.027902	-0.012346
752	3.763057	0.005000	2.538238	-9.118196	-1.334160	-0.539316	0.063669	-0.365854	-0.007930	0.014794	-0.015022
753	3.768057	0.005000	2.550600	-9.051055	-1.386785	-0.539090	0.063895	-0.365476	-0.017238	0.019853	-0.012837
754	3.773057	0.005000	2.564527	-9.039127	-1.465807	-0.538865	0.064120	-0.365098	-0.021128	0.019960	-0.016852
755	3.778057	0.005000	2.580499	-8.976619	-1.455613	-0.538890	0.063844	-0.364813	-0.009632	0.003052	-0.011454
756	3.783057	0.005000	2.668320	-9.001653	-1.444026	-0.539003	0.063393	-0.364561	-0.010395	0.017281	-0.007461
757	3.788057	0.005000	2.606369	-9.031381	-1.389929	-0.539116	0.062941	-0.364309	-0.010647	0.016245	-0.014938
758	3.793057	0.005000	2.554767	-9.103680	-1.377567	-0.539229	0.062489	-0.364056	-0.007656	0.022660	-0.012988
759	3.798057	0.005000	2.571281	-9.163601	-1.373400	-0.539342	0.062037	-0.363804	-0.014071	0.024612	-0.017202
760	3.803057	0.005000	2.531483	-9.103680	-1.315043	-0.539455	0.061585	-0.363552	-0.003219	0.017236	0.001256
761	3.808057	0.005000	2.609979	-9.123819	-1.432779	-0.539568	0.061134	-0.363300	-0.009488	0.016819	-0.019629
762	3.813057	0.005000	2.553235	-9.106315	-1.336795	-0.539681	0.060682	-0.363048	-0.016561	0.011941	-0.018092
763	3.818057	0.005000	2.507193	-9.068607	-1.451880	-0.539794	0.060230	-0.362795	-0.010014	0.010671	-0.010443
764	3.823057	0.005000	2.730286	-9.064440	-1.373400	-0.539907	0.059778	-0.362543	-0.013245	0.017954	-0.021176
765	3.828057	0.005000	2.652637	-9.025200	-1.373400	-0.540020	0.059326	-0.362291	-0.009127	0.017815	-0.014674
766	3.833057	0.005000	2.644029	-9.025200	-1.382741	-0.540133	0.058875	-0.362039	-0.003865	0.010832	-0.021475
767	3.838057	0.005000	2.615153	-9.039127	-1.387327	-0.540246	0.058423	-0.361786	-0.003728	0.007487	-0.005161
768	3.843057	0.005000	2.550600	-9.012296	-1.478742	-0.540954	0.057852	-0.361002	-0.010929	0.014446	-0.017048
769	3.848057	0.005000	2.589840	-9.048964	-1.424522	-0.542197	0.057174	-0.359741	-0.010412	0.011606	-0.013911
770	3.853057	0.005000	2.656980	-9.092340	-1.496341	-0.543439	0.056496	-0.358479	-0.012973	0.021008	-0.014076
771	3.858057	0.005000	2.598128	-9.035517	-1.511755	-0.544682	0.055818	-0.357217	-0.009130	0.015083	-0.022372
772	3.863057	0.005000	2.451470	-9.073735	-1.502475	-0.545925	0.055140	-0.355955	-0.012217	0.006350	0.003292
773	3.868057	0.005000	2.559337	-9.055703	-1.438852	-0.547168	0.054462	-0.354693	-0.023797	0.017934	-0.017413
774	3.873057	0.005000	2.503645	-9.040630	-1.491120	-0.548411	0.053784	-0.353431	-0.010438	0.011631	-0.013485
775	3.878057	0.005000	2.557295	-9.012740	-1.516970	-0.549654	0.053106	-0.352169	-0.008992	0.018301	-0.023844
776	3.883057	0.005000	2.556750	-9.109830	-1.373400	-0.550897	0.052428	-0.350907	-0.020829	0.022130	-0.023817
777	3.888057	0.005000	2.589840	-9.074695	-1.329032	-0.552140	0.051750	-0.349646	-0.005577	0.018236	-0.004966
778	3.893057	0.005000	2.672425	-9.060335	-1.377505	-0.553383	0.051072	-0.348384	-0.011331	0.016248	-0.017532
779	3.898057	0.005000	2.710643	-9.022117	-1.451880	-0.554626	0.050394	-0.347122	-0.007282	0.009545	-0.003206
780	3.903057	0.005000	2.778418	-9.035362	-1.370859	-0.555869	0.049716	-0.345860	-0.012867	0.016071	-0.010516
781	3.908057	0.005000	2.592876	-9.064440	-1.370364	-0.556464	0.049326	-0.345321	-0.017306	0.015667	-0.015764
782	3.913057	0.005000	2.707064	-9.064440	-1.413136	-0.555674	0.049552	-0.346330	-0.015693	0.013840	-0.024676
783	3.918057	0.005000	2.589934	-9.103633	-1.451880	-0.554884	0.049778	-0.347338	-0.017586	0.015365	-0.014500
784	3.923057	0.005000	2.590909	-9.141851	-1.528222	-0.554094	0.050003	-0.348347	-0.021249	0.010550	-0.010210
785	3.928057	0.005000	2.587749	-9.101589	-1.493211	-0.553303	0.050229	-0.349355	-0.008351	0.021637	-0.014524
786	3.933057	0.005000	2.547919	-9.069802	-1.384123	-0.552513	0.050455	-0.350364	-0.005715	0.012260	-0.007679
787	3.938057	0.005000	2.582528	-9.025200	-1.405328	-0.551723	0.050681	-0.351373	-0.014302	0.017787	-0.011330
788	3.943057	0.005000	2.580483	-8.942042	-1.486442	-0.550933	0.050906	-0.352381	-0.000885	0.012594	-0.009528
789	3.948057	0.005000	2.556301	-9.070141	-1.451880	-0.550142	0.051132	-0.353390	-0.008289	0.004318	-0.007485
790	3.953057	0.005000	2.629080	-9.058181	-1.412640	-0.549352	0.051358	-0.354398	-0.023212	0.018708	-0.019395
791	3.958057	0.005000	2.597121	-9.039762	-1.309482	-0.548562	0.051584	-0.355407	-0.007182	0.010294	-0.012068
792	3.963057	0.005000	2.589840	-9.182160	-1.365480	-0.547772	0.051810	-0.356415	-0.010852	0.013262	-0.013291
793	3.968057	0.005000	2.620234	-9.142920	-1.373400	-0.546981	0.052035	-0.357424	-0.013402	0.012930	-0.012189
794	3.973057	0.005000	2.560468	-9.133052	-1.500988	-0.546225	0.052283	-0.358420	-0.007259	0.015620	-0.002938
795	3.978057	0.005000	2.608259	-9.190169	-1.412640	-0.545773	0.052735	-0.359303	-0.008825	0.020612	-0.015702
796	3.983057	0.005000	2.555542	-9.182160	-1.479687	-0.545321	0.053187	-0.360187	-0.012678	0.025094	-0.021380
797	3.988057	0.005000	2.614750	-9.155375	-1.425095	-0.544869	0.053639	-0.361070	-0.022433	0.016336	-0.020643
798	3.993057	0.005000	2.576605	-9.182625	-1.333928	-0.544417	0.054091	-0.361953	-0.026986	0.019449	-0.010178
799	3.998057	0.005000	2.589840	-9.182160	-1.359380	-0.543965	0.054543	-0.362837	-0.011755	0.020251	-0.014434
800	4.003057	0.005000	2.535558	-9.157962	-1.445993	-0.543513	0.054995	-0.363720	0.000732	0.011117	-0.017321
801	4.008057	0.005000	2.511360	-9.245040	-1.483080	-0.543061	0.055447	-0.364603	-0.002234	0.014712	-0.004780
802	4.013057	0.005000	2.573218	-9.120302	-1.373400	-0.542609	0.055899	-0.365487	-0.008554	0.020597	-0.022428
803	4.018057	0.005000	2.646457	-9.081817	-1.412640	-0.542157	0.056351	-0.366370	-0.007689	0.010271	-0.004827
804	4.023057	0.005000	2.605161	-9.103680	-1.449014	-0.541705	0.056803	-0.367253	-0.013175	0.022005	-0.006806
805	4.028057	0.005000	2.550600	-9.044409	-1.411819	-0.541253	0.057255	-0.368137	-0.003672	0.010261	-0.014887
806	4.033057	0.005000	2.570352	-9.025463	-1.353912	-0.540801	0.057707	-0.369020	-0.003237	0.002321	-0.005991
807	4.038057	0.005000	2.707560	-9.002118	-1.431106	-0.540349	0.058159	-0.369903	-0.002290	0.014914	-0.014990
808	4.043057	0.005000	2.646523	-9.060087	-1.451880	-0.540299	0.058410	-0.369888	-0.008345	0.008863	-0.012926
809	4.048057	0.005000	2.707560	-9.064440	-1.524891	-0.540299	0.058636	-0.369762	-0.007925	0.016861	-0.019094
810	4.053057	0.005000	2.700078	-9.064440	-1.506999	-0.540299	0.058862	-0.369636	-0.001447	0.016353	-0.014273
811	4.058057	0.005000	2.614224	-9.094153	-1.491120	-0.540299	0.059087	-0.369509	-0.013826	0.020740	-0.011883
812	4.063057	0.005000	2.564899	-9.075083	-1.526704	-0.540299	0.059313	-0.369383	-0.018409	0.013966	-0.008129
813	4.068057	0.005000	2.577152	-9.116956	-1.465156	-0.540299	0.059539	-0.369257	-0.008744	0.010834	-0.013776
814	4.073057	0.005000	2.641486	-9.052034	-1.478714	-0.540299	0.059765	-0.369131	-0.007240	0.013669	-0.019829
815	4.078057	0.005000	2.640792	-9.052728	-1.385112	-0.540299	0.059991	-0.369005	-0.010009	0.008395	-0.002814
816	4.083057	0.005000	2.629080	-9.092991	-1.508982	-0.540299	0.060216	-0.368879	-0.018030	0.019459	-0.014737
817	4.088057	0.005000	2.648026	-9.033999	-1.413988	-0.540299	0.060442	-0.368753	-0.010742	0.014060	-0.018771
818	4.093057	0.005000	2.580715	-9.064440	-1.412640	-0.540299	0.060668	-0.368627	-0.007168	0.013873	-0.008057
819	4.098057	0.005000	2.651922	-9.033399	-1.396242	-0.540299	0.060894	-0.368501	-0.016208	0.015455	-0.020484
820	4.103057	0.005000	2.668320	-9.103680	-1.412640	-0.540299	0.061120	-0.368375	-0.007974	0.014388	-0.009391
821	4.108057	0.005000	2.629080	-9.057903	-1.491120	-0.541738	0.059982	-0.366219	-0.016838	0.018521	-0.011122
822	4.113057	0.005000	2.556181	-9.064440	-1.418221	-0.543885	0.058174	-0.363064	-0.017567	0.012159	-0.011565
823	4.118057	0.005000	2.565472	-9.142920	-1.417597	-0.546032	0.056366	-0.359910	-0.004391	0.013499	-0.012952
824	4.123057	0.005000	2.652581	-9.095810	-1.600970	-0.548179	0.054558	-0.356755	-0.015510	0.020331	-0.022013
825	4.128057	0.005000	2.553548	-9.109577	-1.491120	-0.550326	0.052750	-0.353600	-0.012199	0.014651	0.001829
826	4.133057	0.005000	2.481601	-9.142920	-1.530360	-0.552473	0.050942	-0.350446	0.002961	0.010547	0.002706
827	4.138057	0.005000	2.626384	-9.141572	-1.376096	-0.554620	0.049134	-0.347291	0.001309	0.006029	-0.004196
828	4.143057	0.005000	2.707235	-9.142595	-1.451555	-0.556767	0.047326	-0.344137	-0.008395	0.018809	-0.022136
829	4.148057	0.005000	2.668320	-9.103680	-1.451660	-0.558914	0.045518	-0.340982	0.004572	0.010628	-0.015190
830	4.153057	0.005000	2.629080	-9.068158	-1.450641	-0.561061	0.043710	-0.337827	-0.001397	0.011094	-0.008840
831	4.158057	0.005000	2.587578	-9.101418	-1.488858	-0.563208	0.041902	-0.334673	-0.002044	0.009591	-0.017715
832	4.163057	0.005000	2.589840	-9.028053	-1.451880	-0.565355	0.040093	-0.331518	-0.003982	0.009300	-0.005593
833	4.168057	0.005000	2.660667	-9.099854	-1.522707	-0.567502	0.038285	-0.328364	-0.011929	0.023615	-0.020094
834	4.173057	0.005000	2.525907	-9.216551	-1.500818	-0.567717	0.038148	-0.328008	-0.002357	0.009401	-0.016246
835	4.178057	0.005000	2.489734	-9.203786	-1.446009	-0.565684	0.039956	-0.330909	-0.005594	0.015095	-0.010481
836	4.183057	0.005000	2.694702	-9.110109	-1.373400	-0.563651	0.041763	-0.333810	-0.009528	0.014173	-0.019341
837	4.188057	0.005000	2.692657	-9.025200	-1.388303	-0.561618	0.043570	-0.336711	0.004074	0.012615	-0.007466
838	4.193057	0.005000	2.707560	-9.042148	-1.395692	-0.559585	0.045377	-0.339612	-0.016572	0.018375	-0.018431
839	4.198057	0.005000	2.668320	-9.064440	-1.569600	-0.557552	0.047185	-0.342513	-0.010567	0.014322	-0.017838
840	4.203057	0.005000	2.619042	-9.211362	-1.491120	-0.555518	0.048992	-0.345413	-0.009886	0.010499	-0.009488
841	4.208057	0.005000	2.618019	-9.025200	-1.451880	-0.553485	0.050799	-0.348314	-0.014169	0.007636	-0.012270
842	4.213057	0.005000	2.601443	-9.092077	-1.451880	-0.551452	0.052606	-0.351215	-0.008454	0.012934	-0.005610
843	4.218057	0.005000	2.655694	-9.142920	-1.359411	-0.549419	0.054414	-0.354116	-0.006558	0.018326	-0.016476
844	4.223057	0.005000	2.591544	-8.985960	-1.515008	-0.547386	0.056221	-0.357017	-0.001862	0.008227	-0.009631
845	4.228057	0.005000	2.654130	-9.000150	-1.594650	-0.545353	0.058028	-0.359918	-0.003417	0.013982	-0.010220
846	4.233057	0.005000	2.502545	-9.064440	-1.545573	-0.543320	0.059835	-0.362819	-0.004446	0.004782	-0.002779
847	4.238057	0.005000	2.714330	-9.048205	-1.530360	-0.541819	0.061110	-0.365063	-0.007768	0.015570	-0.014556
848	4.243057	0.005000	2.612086	-9.047446	-1.434886	-0.541932	0.060771	-0.365315	-0.015002	0.011152	-0.023377
849	4.248057	0.005000	2.671930	-9.082255	-1.409030	-0.542045	0.060432	-0.365567	-0.009908	0.009173	-0.004571
850	4.253057	0.005000	2.647910	-9.006370	-1.393810	-0.542158	0.060093	-0.365820	-0.006873	0.009109	-0.024043
851	4.258057	0.005000	2.610180	-9.084300	-1.353540	-0.542271	0.059754	-0.366072	-0.013880	0.005784	-0.006167
852	4.263057	0.005000	2.709125	-9.045602	-1.393802	-0.542384	0.059415	-0.366324	-0.014430	0.007558	-0.010880
853	4.268057	0.005000	2.607655	-9.064440	-1.391215	-0.542497	0.059076	-0.366577	-0.026571	0.010381	-0.014828
854	4.273057	0.005000	2.559988	-9.081713	-1.412640	-0.542610	0.058737	-0.366829	-0.017237	0.009465	-0.007062
855	4.278057	0.005000	2.504621	-9.080691	-1.569600	-0.542723	0.058398	-0.367081	-0.012703	0.017371	-0.013531
856	4.283057	0.005000	2.565828	-9.197388	-1.530360	-0.542836	0.058059	-0.367334	-0.014827	0.015555	-0.022393
857	4.288057	0.005000	2.614394	-9.049754	-1.422508	-0.542949	0.057719	-0.367586	-0.015245	0.015014	-0.020890
858	4.293057	0.005000	2.564264	-8.985960	-1.387064	-0.543062	0.057380	-0.367838	-0.017762	0.007961	-0.014539
859	4.298057	0.005000	2.524001	-9.023883	-1.373400	-0.543176	0.057041	-0.368091	-0.016016	0.014187	-0.015334
860	4.303057	0.005000	2.487193	-9.182160	-1.448890	-0.543270	0.056748	-0.368303	-0.008767	0.008042	-0.013955
861	4.308057	0.005000	2.415771	-9.081549	-1.508229	-0.542931	0.057538	-0.367546	-0.008660	0.010197	-0.006204
862	4.313057	0.005000	2.501306	-9.025200	-1.511228	-0.542593	0.058329	-0.366789	0.002044	0.015331	-0.021384
863	4.318057	0.005000	2.580344	-9.054944	-1.579096	-0.542254	0.059120	-0.366032	-0.001787	0.009486	-0.011720
864	4.323057	0.005000	2.564418	-9.081388	-1.460354	-0.541915	0.059910	-0.365276	-0.008423	0.026649	-0.022420
865	4.328057	0.005000	2.511360	-9.088593	-1.349247	-0.541576	0.060701	-0.364519	-0.010158	0.012601	-0.015487
866	4.333057	0.005000	2.511360	-9.025200	-1.419549	-0.541237	0.061492	-0.363762	-0.006723	0.011915	-0.001669
867	4.338057	0.005000	2.511360	-9.042860	-1.530360	-0.540898	0.062282	-0.363005	-0.013672	0.014836	-0.020413
868	4.343057	0.005000	2.589840	-9.030064	-1.584193	-0.540559	0.063073	-0.362248	-0.010130	0.013974	-0.009331
869	4.348057	0.005000	2.467798	-9.060118	-1.486798	-0.540220	0.063864	-0.361492	-0.012119	0.018609	-0.012797
870	4.353057	0.005000	2.547300	-9.025200	-1.455180	-0.539882	0.064654	-0.360735	-0.015528	0.017769	-0.015030
871	4.358057	0.005000	2.552905	-8.992874	-1.530360	-0.539543	0.065445	-0.359978	-0.012701	0.015326	-0.015337
872	4.363057	0.005000	2.664881	-9.103680	-1.492840	-0.539204	0.066236	-0.359221	-0.010662	0.018692	-0.014233
873	4.368057	0.005000	2.630505	-9.143633	-1.452593	-0.538865	0.067026	-0.358465	-0.017578	0.010963	-0.014966
874	4.373057	0.005000	2.628925	-9.142610	-1.490965	-0.538806	0.066604	-0.358750	-0.013179	0.017375	-0.017715
875	4.378057	0.005000	2.666585	-9.064440	-1.451880	-0.538806	0.065927	-0.359254	-0.021844	0.015027	-0.009141
876	4.383057	0.005000	2.707560	-9.101790	-1.489230	-0.538806	0.065250	-0.359758	-0.025335	0.026228	-0.019175
877	4.388057	0.005000	2.674145	-9.033937	-1.454792	-0.538806	0.064572	-0.360262	-0.017253	0.013198	-0.006259
878	4.393057	0.005000	2.557509	-9.071349	-1.494575	-0.538806	0.063895	-0.360767	-0.007632	0.018388	-0.007795
879	4.398057	0.005000	2.524791	-9.203492	-1.391308	-0.538806	0.063218	-0.361271	-0.014221	0.027499	-0.019253
880	4.403057	0.005000	2.521523	-9.177079	-1.397396	-0.538806	0.062540	-0.361775	-0.003382	0.013873	-0.007293
881	4.408057	0.005000	2.438922	-9.176118	-1.557517	-0.538806	0.061863	-0.362280	-0.006144	0.020716	-0.021157
882	4.413057	0.005000	2.550600	-9.149984	-1.498184	-0.538806	0.061186	-0.362784	-0.007828	0.015248	-0.013732
883	4.418057	0.005000	2.589840	-9.072527	-1.459967	-0.538806	0.060508	-0.363288	-0.012780	0.006470	0.002235
884	4.423057	0.005000	2.611791	-9.134276	-1.342804	-0.538806	0.059831	-0.363793	-0.013918	0.019329	-0.014304
885	4.428057	0.005000	2.520376	-9.142920	-1.334795	-0.538806	0.059153	-0.364297	-0.010286	0.010121	-0.010455
886	4.433057	0.005000	2.568493	-9.053766	-1.555472	-0.538806	0.058476	-0.364801	-0.008371	0.010895	-0.018542
887	4.438057	0.005000	2.657089	-9.002737	-1.552823	-0.538601	0.058209	-0.365382	-0.017887	0.013360	-0.020559
888	4.443057	0.005000	2.575108	-8.931988	-1.476388	-0.538262	0.058209	-0.366013	-0.012976	0.020102	-0.015868
889	4.448057	0.005000	2.616392	-9.011924	-1.399364	-0.537923	0.058209	-0.366643	-0.006211	0.011278	-0.014934
890	4.453057	0.005000	2.497370	-9.126201	-1.491120	-0.537584	0.058209	-0.367274	-0.004513	0.012218	-0.007637
891	4.458057	0.005000	2.623797	-9.079281	-1.569600	-0.537245	0.058209	-0.367904	-0.003499	0.016324	-0.023975
892	4.463057	0.005000	2.589840	-9.071921	-1.420121	-0.536906	0.058209	-0.368535	0.008782	0.010269	-0.008662
893	4.468057	0.005000	2.658343	-9.064440	-1.379829	-0.536567	0.058209	-0.369166	-0.009835	0.022128	-0.012691
894	4.473057	0.005000	2.624696	-9.068824	-1.495504	-0.536229	0.058209	-0.369796	0.003572	0.008940	-0.015482
895	4.478057	0.005000	2.593109	-9.121666	-1.509106	-0.535890	0.058209	-0.370427	0.002123	0.017251	-0.000934
896	4.483057	0.005000	2.512615	-9.164422	-1.450625	-0.535551	0.058209	-0.371058	-0.006109	0.017967	-0.011893
897	4.488057	0.005000	2.648535	-9.104009	-1.432754	-0.535212	0.058209	-0.371688	0.000815	0.011403	0.000203
898	4.493057	0.005000	2.629080	-9.006533	-1.427496	-0.534873	0.058209	-0.372319	-0.005744	0.015871	-0.017724
899	4.498057	0.005000	2.629080	-9.003605	-1.451880	-0.534534	0.058209	-0.372949	-0.007143	0.011102	-0.013696
900	4.503057	0.005000	2.673355	-9.059405	-1.373400	-0.534461	0.057988	-0.372938	-0.014693	0.016466	-0.002876
901	4.508057	0.005000	2.652240	-9.110760	-1.405560	-0.534800	0.057423	-0.371928	-0.004550	0.017181	-0.009406
902	4.513057	0.005000	2.677071	-9.001204	-1.318916	-0.535139	0.056858	-0.370919	-0.000541	0.017777	-0.006328
903	4.518057	0.005000	2.653804	-9.103680	-1.334160	-0.535478	0.056293	-0.369909	0.005719	0.019011	-0.011169
904	4.523057	0.005000	2.692828	-9.180921	-1.386893	-0.535817	0.055728	-0.368900	-0.008368	0.007209	-0.004326
905	4.528057	0.005000	2.616145	-9.077375	-1.360898	-0.536156	0.055163	-0.367890	-0.012600	0.022232	-0.026086
906	4.533057	0.005000	2.589840	-9.103680	-1.264092	-0.536495	0.054598	-0.366881	-0.008226	0.004853	-0.015436
907	4.538057	0.005000	2.561495	-9.132025	-1.473670	-0.536834	0.054032	-0.365871	-0.004421	0.011131	-0.007997
908	4.543057	0.005000	2.589840	-9.074029	-1.461469	-0.537173	0.053467	-0.364862	-0.007238	0.011602	-0.022547
909	4.548057	0.005000	2.523698	-9.055473	-1.448509	-0.537512	0.052902	-0.363853	-0.004755	0.000607	-0.013653
910	4.553057	0.005000	2.567207	-9.111983	-1.522057	-0.537851	0.052337	-0.362843	-0.008313	0.016876	-0.020458
911	4.558057	0.005000	2.582559	-9.010638	-1.540476	-0.538190	0.051772	-0.361834	-0.003826	0.007311	-0.008623
912	4.563057	0.005000	2.583101	-9.117158	-1.412640	-0.538529	0.051207	-0.360824	-0.004301	0.012610	-0.005130
913	4.568057	0.005000	2.634796	-9.170727	-1.406924	-0.538806	0.050891	-0.360069	-0.001724	0.013913	-0.017555
914	4.573057	0.005000	2.629080	-9.138226	-1.304308	-0.538806	0.051682	-0.360448	-0.000003	0.011303	-0.007642
915	4.578057	0.005000	2.664168	-9.064440	-1.447728	-0.538806	0.052473	-0.360826	-0.004599	0.008701	-0.005585
916	4.583057	0.005000	2.701301	-9.031459	-1.291791	-0.538806	0.053263	-0.361205	0.002664	0.009309	-0.002418
917	4.588057	0.005000	2.666213	-9.140813	-1.371293	-0.538806	0.054054	-0.361583	-0.008312	0.013423	-0.016838
918	4.593057	0.005000	2.552795	-9.065537	-1.448588	-0.538806	0.054845	-0.361961	-0.005840	0.011619	-0.009285
919	4.598057	0.005000	2.589840	-9.141836	-1.452422	-0.538806	0.055635	-0.362340	-0.004378	0.019687	-0.013661
920	4.603057	0.005000	2.473561	-8.986920	-1.452360	-0.538806	0.056426	-0.362718	-0.007039	0.014803	-0.022148
921	4.608057	0.005000	2.629080	-9.024150	-1.527209	-0.538806	0.057217	-0.363097	0.000647	0.010549	-0.007266
922	4.613057	0.005000	2.591900	-9.027260	-1.449820	-0.538806	0.058007	-0.363475	-0.007512	0.023859	-0.021964
923	4.618057	0.005000	2.596006	-9.146003	-1.415723	-0.538806	0.058798	-0.363853	-0.004575	0.004396	-0.007065
924	4.623057	0.005000	2.625455	-9.103680	-1.455505	-0.538806	0.059589	-0.364232	-0.006988	0.014073	-0.012845
925	4.628057	0.005000	2.516007	-9.064440	-1.421935	-0.538806	0.060379	-0.364610	-0.010861	0.018410	-0.020991
926	4.633057	0.005000	2.472120	-9.019946	-1.451880	-0.538806	0.061170	-0.364988	0.003329	0.019760	-0.000800
927	4.638057	0.005000	2.589840	-9.070652	-1.439456	-0.538696	0.061084	-0.365367	-0.010115	0.018079	-0.009060
928	4.643057	0.005000	2.622229	-9.011498	-1.445029	-0.538584	0.060972	-0.365745	-0.002514	0.017074	-0.010630
929	4.648057	0.005000	2.574256	-9.103680	-1.388984	-0.538471	0.060859	-0.366123	-0.002717	0.014549	-0.013477
930	4.653057	0.005000	2.528965	-9.021171	-1.346992	-0.538358	0.060746	-0.366501	-0.002936	0.014661	-0.011538
931	4.658057	0.005000	2.481477	-9.043914	-1.304277	-0.538245	0.060633	-0.366880	-0.002372	0.017016	-0.012924
932	4.663057	0.005000	2.637182	-9.093301	-1.420742	-0.538132	0.060520	-0.367258	-0.000511	0.019904	-0.006202
933	4.668057	0.005000	2.657263	-9.160046	-1.462937	-0.538019	0.060407	-0.367636	-0.009767	0.013274	-0.001071
934	4.673057	0.005000	2.538656	-9.130976	-1.373400	-0.537906	0.060294	-0.368014	-0.012362	0.024483	-0.021895
935	4.678057	0.005000	2.681627	-9.181819	-1.347126	-0.537793	0.060181	-0.368392	0.001464	0.015361	-0.013214
936	4.683057	0.005000	2.513148	-9.117356	-1.347836	-0.537680	0.060068	-0.368771	-0.007903	0.020833	-0.006965
937	4.688057	0.005000	2.536069	-9.103680	-1.441702	-0.537567	0.059955	-0.369149	-0.009045	0.014009	-0.021861
938	4.693057	0.005000	2.629080	-9.119233	-1.467433	-0.537454	0.059842	-0.369527	-0.013365	0.005399	-0.000384
939	4.698057	0.005000	2.596858	-9.189178	-1.396529	-0.537341	0.059729	-0.369905	-0.014291	0.014195	-0.021720
940	4.703057	0.005000	2.572706	-9.160054	-1.407667	-0.537821	0.059447	-0.370000	-0.004915	0.012086	-0.015519
941	4.708057	0.005000	2.611185	-9.146370	-1.391295	-0.538499	0.059108	-0.370000	0.003035	0.007434	-0.012903
942	4.713057	0.005000	2.548757	-9.083138	-1.451880	-0.539176	0.058769	-0.370000	-0.013235	0.004619	-0.023252
943	4.718057	0.005000	2.550399	-8.946720	-1.451679	-0.539854	0.058431	-0.370000	-0.012742	0.013243	-0.014653
944	4.723057	0.005000	2.492634	-8.984172	-1.431366	-0.540532	0.058092	-0.370000	-0.011929	0.021540	-0.015705
945	4.728057	0.005000	2.514691	-9.064440	-1.451880	-0.541210	0.057753	-0.370000	-0.017115	0.015301	-0.022216
946	4.733057	0.005000	2.572908	-9.075191	-1.434948	-0.541887	0.057414	-0.370000	-0.023335	0.023335	-0.016275
947	4.738057	0.005000	2.527467	-9.025200	-1.421721	-0.542565	0.057075	-0.370000	-0.018631	0.017323	-0.009459
948	4.743057	0.005000	2.542095	-9.064440	-1.491120	-0.543243	0.056737	-0.370000	-0.019469	0.017497	-0.012611
949	4.748057	0.005000	2.625285	-9.050095	-1.516015	-0.543921	0.056398	-0.370000	-0.016178	0.020455	-0.020236
950	4.753057	0.005000	2.576358	-9.115955	-1.412640	-0.544598	0.056059	-0.370000	-0.002733	0.013661	-0.011780
951	4.758057	0.005000	2.603550	-9.025200	-1.477410	-0.545276	0.055720	-0.370000	-0.020391	0.024300	-0.021416
952	4.763057	0.005000	2.574085	-9.087925	-1.412640	-0.545954	0.055381	-0.370000	-0.013448	0.009786	-0.007965
953	4.768057	0.005000	2.578640	-8.985960	-1.407079	-0.546209	0.055164	-0.369528	-0.014383	0.020051	-0.020578
954	4.773057	0.005000	2.639258	-8.967076	-1.383578	-0.546096	0.055051	-0.368645	-0.024472	0.014648	-0.020811
955	4.778057	0.005000	2.562374	-9.034355	-1.391711	-0.545983	0.054938	-0.367763	-0.010633	0.012231	-0.007807
956	4.783057	0.005000	2.472120	-9.041668	-1.474652	-0.545870	0.054825	-0.366880	-0.016227	0.010123	-0.019099
957	4.788057	0.005000	2.526542	-9.221400	-1.405049	-0.545757	0.054712	-0.365998	-0.017945	0.007521	-0.014658
958	4.793057	0.005000	2.583272	-9.142920	-1.425777	-0.545644	0.054599	-0.365115	-0.014783	0.013867	-0.015723
959	4.798057	0.005000	2.550600	-9.170931	-1.552756	-0.545531	0.054486	-0.364233	-0.007340	0.016618	-0.013164
960	4.803057	0.005000	2.560608	-9.137916	-1.383408	-0.545418	0.054373	-0.363350	-0.010096	0.016493	-0.017093
961	4.808057	0.005000	2.621117	-9.178179	-1.416621	-0.545305	0.054260	-0.362468	-0.012527	0.017370	-0.016060
962	4.813057	0.005000	2.547606	-9.100686	-1.448886	-0.545192	0.054147	-0.361585	-0.008438	0.010347	-0.007345
963	4.818057	0.005000	2.550600	-9.103680	-1.373400	-0.545079	0.054034	-0.360703	-0.008890	0.015441	-0.024423
964	4.823057	0.005000	2.630459	-9.103680	-1.412640	-0.544966	0.053921	-0.359820	-0.009774	0.009970	-0.002136
965	4.828057	0.005000	2.705887	-9.104517	-1.451880	-0.544853	0.053808	-0.358938	-0.014679	0.011934	-0.013476
966	4.833057	0.005000	2.511918	-9.064812	-1.373772	-0.545025	0.053695	-0.358214	-0.014378	0.014349	-0.015958
967	4.838057	0.005000	2.512568	-9.065648	-1.488703	-0.545816	0.053583	-0.357835	-0.010832	0.012804	-0.001683
968	4.843057	0.005000	2.626849	-9.099218	-1.451880	-0.546606	0.053470	-0.357457	-0.016221	0.024802	-0.015874
969	4.848057	0.005000	2.699241	-9.103680	-1.409867	-0.547397	0.053357	-0.357079	-0.010394	0.013956	-0.006318
970	4.853057	0.005000	2.632875	-9.068235	-1.373400	-0.548188	0.053244	-0.356700	-0.006385	0.014545	-0.014654
971	4.858057	0.005000	2.511360	-9.103680	-1.373400	-0.548978	0.053131	-0.356322	-0.013525	0.016665	-0.017811
972	4.863057	0.005000	2.550600	-9.148280	-1.446520	-0.549769	0.053018	-0.355943	-0.010358	0.011926	-0.012537
973	4.868057	0.005000	2.635463	-9.254257	-1.451880	-0.550560	0.052905	-0.355565	-0.010347	0.021471	-0.015254
974	4.873057	0.005000	2.532430	-9.149943	-1.484097	-0.551350	0.052792	-0.355187	-0.009961	0.016907	-0.014498
975	4.878057	0.005000	2.542637	-9.033163	-1.420603	-0.552141	0.052679	-0.354808	-0.002569	0.009895	-0.012217
976	4.883057	0.005000	2.629080	-9.116001	-1.421613	-0.552932	0.052566	-0.354430	-0.004616	0.010231	-0.009491
977	4.888057	0.005000	2.589840	-9.142920	-1.344152	-0.553723	0.052453	-0.354052	-0.007466	0.015589	-0.017852
978	4.893057	0.005000	2.589840	-9.153470	-1.470021	-0.554513	0.052341	-0.353673	-0.006911	0.016431	-0.023859
979	4.898057	0.005000	2.629080	-9.052868	-1.412640	-0.555144	0.052262	-0.353371	-0.012481	0.012048	-0.014830
980	4.903057	0.005000	2.629080	-9.064440	-1.385664	-0.554353	0.052488	-0.353750	-0.022983	0.010605	-0.026106
981	4.908057	0.005000	2.629080	-9.064270	-1.543326	-0.553562	0.052714	-0.354128	-0.013252	0.005077	-0.009534
982	4.913057	0.005000	2.679242	-9.028438	-1.530360	-0.552771	0.052940	-0.354507	-0.011834	0.016434	-0.012270
983	4.918057	0.005000	2.643964	-9.010316	-1.485709	-0.551980	0.053166	-0.354885	-0.013263	0.010690	-0.021290
984	4.923057	0.005000	2.542808	-9.040924	-1.451880	-0.551189	0.053392	-0.355264	-0.007509	0.015917	-0.011560
985	4.928057	0.005000	2.606586	-9.041946	-1.345159	-0.550398	0.053618	-0.355643	-0.021239	0.020033	-0.012137
986	4.933057	0.005000	2.589840	-9.047136	-1.451880	-0.549607	0.053844	-0.356021	-0.010617	0.015272	-0.012440
987	4.938057	0.005000	2.649994	-8.949307	-1.530360	-0.548816	0.054070	-0.356400	-0.010538	0.010003	-0.015958
988	4.943057	0.005000	2.569695	-9.065490	-1.432785	-0.548025	0.054296	-0.356778	-0.014174	0.005207	-0.022472
989	4.948057	0.005000	2.589298	-9.181618	-1.353509	-0.547234	0.054522	-0.357157	-0.012042	0.008758	-0.009113
990	4.953057	0.005000	2.608166	-9.145507	-1.449293	-0.546443	0.054748	-0.357535	-0.014544	0.018298	-0.002227
991	4.958057	0.005000	2.646598	-9.121198	-1.512842	-0.545652	0.054974	-0.357914	-0.011103	0.013671	-0.013295
992	4.963057	0.005000	2.629080	-9.126158	-1.513598	-0.544861	0.055200	-0.358292	-0.006309	0.019504	-0.017635
993	4.968057	0.005000	2.629080	-9.119419	-1.247702	-0.544474	0.055426	-0.358783	-0.002463	0.011321	-0.007892
994	4.973057	0.005000	2.520801	-9.152361	-1.231339	-0.544135	0.055651	-0.359288	-0.008709	0.021983	-0.019408
995	4.978057	0.005000	2.550600	-9.103680	-1.451880	-0.543796	0.055877	-0.359792	-0.013439	0.014180	-0.013107
996	4.983057	0.005000	2.563535	-9.051288	-1.399488	-0.543458	0.056103	-0.360296	-0.005005	0.011737	-0.007986
997	4.988057	0.005000	2.587426	-8.944306	-1.437190	-0.543119	0.056329	-0.360800	-0.006115	0.025532	-0.019447
998	4.993057	0.005000	2.640652	-8.997532	-1.484071	-0.542780	0.056555	-0.361305	-0.001131	0.011398	-0.003148
999	4.998057	0.005000	2.639645	-9.064440	-1.402075	-0.542442	0.056780	-0.361809	-0.006109	0.025810	-0.009394
1000	5.003057	0.005000	2.638737	-9.034857	-1.383057	-0.542103	0.057006	-0.362313	-0.002854	0.021258	-0.024382
1001	5.008057	0.005000	2.580855	-9.094695	-1.521375	-0.541764	0.057232	-0.362818	0.001230	0.009960	-0.015492
1002	5.013057	0.005000	2.440843	-8.985960	-1.412640	-0.541426	0.057458	-0.363322	-0.000912	0.018512	-0.013534
1003	5.018057	0.005000	2.486961	-8.985960	-1.483700	-0.541087	0.057683	-0.363826	-0.001259	0.013736	-0.008560
1004	5.023057	0.005000	2.583442	-9.031598	-1.478324	-0.540749	0.057909	-0.364331	-0.003032	0.013820	-0.014869
1005	5.028057	0.005000	2.477496	-9.035951	-1.441129	-0.540410	0.058135	-0.364835	-0.006691	0.014326	-0.007374
1006	5.033057	0.005000	2.485179	-9.064440	-1.486767	-0.540223	0.058285	-0.365170	0.001099	0.021694	-0.011738
1007	5.038057	0.005000	2.593651	-9.139109	-1.401207	-0.540110	0.058398	-0.365422	0.003234	0.016270	-0.012335
1008	5.043057	0.005000	2.626292	-9.134555	-1.409852	-0.539997	0.058511	-0.365674	-0.008686	0.020239	-0.015534
1009	5.048057	0.005000	2.629080	-9.141154	-1.257446	-0.539884	0.058624	-0.365926	-0.008420	0.015331	-0.018500
1010	5.053057	0.005000	2.629080	-9.064440	-1.372647	-0.539771	0.058737	-0.366179	-0.003812	0.009763	-0.005898
1011	5.058057	0.005000	2.589236	-9.025401	-1.255881	-0.539658	0.058849	-0.366431	-0.003354	0.017090	-0.018209
1012	5.063057	0.005000	2.548958	-9.064440	-1.294920	-0.539545	0.058962	-0.366683	-0.000398	0.005909	-0.012485
1013	5.068057	0.005000	2.475807	-9.141077	-1.412640	-0.539432	0.059075	-0.366935	-0.003865	0.014728	-0.007330
1014	5.073057	0.005000	2.511360	-8.993164	-1.449479	-0.539319	0.059188	-0.367188	-0.013817	0.015311	-0.022764
1015	5.078057	0.005000	2.586416	-9.103680	-1.448456	-0.539206	0.059301	-0.367440	-0.003239	0.010837	-0.018419
1016	5.083057	0.005000	2.559492	-9.064440	-1.417086	-0.539093	0.059414	-0.367692	-0.008257	0.016503	-0.029536
1017	5.088057	0.005000	2.594828	-9.093703	-1.339148	-0.538980	0.059527	-0.367944	-0.003197	0.012490	-0.021654
1018	5.093057	0.005000	2.611048	-9.003992	-1.445869	-0.538867	0.059640	-0.368196	0.002957	0.017156	-0.013719
1019	5.098057	0.005000	2.550600	-9.050374	-1.484087	-0.538961	0.059805	-0.368159	-0.012110	0.014188	-0.011013
1020	5.103057	0.005000	2.660651	-9.103680	-1.420309	-0.539301	0.060031	-0.367781	-0.007665	0.012440	-0.014682
1021	5.108057	0.005000	2.659722	-9.086484	-1.390596	-0.539640	0.060257	-0.367402	-0.012297	0.007185	-0.013025
1022	5.113057	0.005000	2.580220	-9.094060	-1.403020	-0.539979	0.060483	-0.367024	-0.012678	0.013457	-0.012374
1023	5.118057	0.005000	2.736512	-9.085017	-1.462168	-0.540318	0.060709	-0.366645	-0.013208	0.021991	-0.018399
1024	5.123057	0.005000	2.612210	-9.081310	-1.345345	-0.540657	0.060935	-0.366267	-0.004613	0.012619	-0.018767
1025	5.128057	0.005000	2.550600	-9.169953	-1.385607	-0.540996	0.061161	-0.365888	-0.010415	0.018984	-0.014946
1026	5.133057	0.005000	2.498130	-9.116910	-1.373400	-0.541335	0.061387	-0.365509	-0.021965	0.011749	-0.022217
1027	5.138057	0.005000	2.589840	-9.038987	-1.426427	-0.541674	0.061613	-0.365131	-0.017356	0.009963	-0.007995
1028	5.143057	0.005000	2.526154	-9.010406	-1.363749	-0.542013	0.061839	-0.364752	-0.005144	0.017122	-0.028024
1029	5.148057	0.005000	2.456303	-9.142920	-1.381006	-0.542352	0.062065	-0.364374	-0.003471	0.003984	-0.008413
1030	5.153057	0.005000	2.658436	-9.080815	-1.429015	-0.542691	0.062292	-0.363995	-0.007345	0.017483	-0.009452
1031	5.158057	0.005000	2.607237	-9.108126	-1.356003	-0.543030	0.062518	-0.363617	-0.013281	0.015654	-0.023336
1032	5.163057	0.005000	2.610919	-9.124759	-1.430801	-0.543227	0.062630	-0.363238	-0.013770	0.010321	0.001349
1033	5.168057	0.005000	2.550600	-9.023883	-1.392362	-0.543001	0.062404	-0.362860	-0.012731	0.018326	-0.009490
1034	5.173057	0.005000	2.609824	-9.122936	-1.431896	-0.542776	0.062178	-0.362481	-0.016688	0.019374	-0.021330
1035	5.178057	0.005000	2.553373	-9.043434	-1.470114	-0.542550	0.061952	-0.362103	-0.017442	0.013005	-0.006800
1036	5.183057	0.005000	2.589840	-9.107537	-1.434189	-0.542324	0.061726	-0.361725	-0.011971	0.012828	-0.009468
1037	5.188057	0.005000	2.544698	-9.041869	-1.300822	-0.542098	0.061501	-0.361346	-0.009468	0.015360	-0.011636
1038	5.193057	0.005000	2.527194	-9.103680	-1.365828	-0.541872	0.061275	-0.360968	-0.009520	0.011528	-0.019302
1039	5.198057	0.005000	2.574745	-9.079535	-1.397545	-0.541646	0.061049	-0.360590	-0.009871	0.015946	-0.011408
1040	5.203057	0.005000	2.497278	-9.100675	-1.359318	-0.541420	0.060823	-0.360211	-0.015749	0.016370	-0.018192
1041	5.208057	0.005000	2.563721	-9.090621	-1.399519	-0.541194	0.060597	-0.359833	-0.009459	0.014073	-0.015911
1042	5.213057	0.005000	2.523862	-9.025200	-1.492855	-0.540968	0.060371	-0.359454	-0.018505	0.018927	-0.005464
1043	5.218057	0.005000	2.573558	-9.036679	-1.412640	-0.540743	0.060145	-0.359076	-0.011742	0.006570	-0.017437
1044	5.223057	0.005000	2.550600	-9.053854	-1.441294	-0.540517	0.059919	-0.358698	-0.007190	0.012761	-0.000659
1045	5.228057	0.005000	2.540685	-9.064440	-1.422555	-0.540311	0.059709	-0.358365	-0.017997	0.021475	-0.023944
1046	5.233057	0.005000	2.472120	-9.051876	-1.412640	-0.540650	0.059935	-0.359248	-0.016814	0.011756	0.001491
1047	5.238057	0.005000	2.589840	-9.142920	-1.326290	-0.540989	0.060161	-0.360130	-0.022328	0.021684	-0.018348
1048	5.243057	0.005000	2.653665	-9.135593	-1.302247	-0.541327	0.060387	-0.361013	-0.013305	0.013558	-0.003308
1049	5.248057	0.005000	2.629080	-9.091070	-1.439270	-0.541666	0.060613	-0.361895	-0.004849	0.020306	-0.003969
1050	5.253057	0.005000	2.629080	-9.001808	-1.451880	-0.542005	0.060839	-0.362778	-0.007151	0.015524	-0.014869
1051	5.258057	0.005000	2.698079	-9.103680	-1.373400	-0.542343	0.061064	-0.363660	-0.009751	0.007790	-0.001813
1052	5.263057	0.005000	2.653448	-9.068158	-1.373400	-0.542682	0.061290	-0.364543	-0.014097	0.014621	-0.013980
1053	5.268057	0.005000	2.581753	-9.137529	-1.488424	-0.543021	0.061516	-0.365425	-0.005847	0.014134	-0.024396
1054	5.273057	0.005000	2.511360	-9.066113	-1.450207	-0.543359	0.061742	-0.366308	-0.002917	0.012055	-0.013021
1055	5.278057	0.005000	2.593186	-9.101449	-1.452995	-0.543698	0.061968	-0.367190	0.002578	0.018814	-0.005404
1056	5.283057	0.005000	2.550600	-9.103494	-1.569507	-0.544036	0.062194	-0.368073	-0.000012	0.016328	-0.009114
1057	5.288057	0.005000	2.512274	-9.063526	-1.415382	-0.544375	0.062420	-0.368955	-0.005629	0.016028	-0.023350
1058	5.293057	0.005000	2.627591	-9.028179	-1.337139	-0.544714	0.062645	-0.369838	-0.007099	0.012897	-0.011201
1059	5.298057	0.005000	2.550600	-9.066934	-1.522878	-0.544315	0.062595	-0.369897	-0.007583	0.020957	-0.015599
1060	5.303057	0.005000	2.518393	-9.139403	-1.448363	-0.543750	0.062482	-0.369771	-0.004098	0.007516	-0.010478
1061	5.308057	0.005000	2.546491	-9.138811	-1.553164	-0.543185	0.062369	-0.369645	-0.011390	0.007012	-0.004775
1062	5.313057	0.005000	2.673401	-9.064440	-1.354485	-0.542621	0.062256	-0.369519	-0.006967	0.015692	-0.020926
1063	5.318057	0.005000	2.556704	-9.058336	-1.400433	-0.542056	0.062143	-0.369392	0.004023	0.000968	-0.002458
1064	5.323057	0.005000	2.569655	-9.025200	-1.465336	-0.541491	0.062030	-0.369266	-0.006841	0.013488	-0.011322
1065	5.328057	0.005000	2.582172	-9.127583	-1.412640	-0.540926	0.061917	-0.369140	-0.004562	0.021615	-0.010329
1066	5.333057	0.005000	2.650939	-9.081821	-1.451880	-0.540362	0.061804	-0.369014	0.002534	0.017235	-0.013711
1067	5.338057	0.005000	2.579740	-9.005386	-1.373400	-0.539797	0.061691	-0.368888	0.005471	0.014860	-0.028431
1068	5.343057	0.005000	2.531879	-9.064440	-1.354679	-0.539232	0.061578	-0.368762	-0.001383	0.016009	-0.000432
1069	5.348057	0.005000	2.567284	-9.159604	-1.457287	-0.538667	0.061465	-0.368635	-0.003401	0.016352	-0.018499
1070	5.353057	0.005000	2.617103	-9.209423	-1.370092	-0.538102	0.061352	-0.368509	-0.010483	0.010794	-0.015970
1071	5.358057	0.005000	2.510694	-9.207876	-1.359876	-0.537538	0.061239	-0.368383	-0.002211	0.016816	-0.013675
1072	5.363057	0.005000	2.575960	-9.103680	-1.294920	-0.537449	0.060990	-0.367953	-0.003773	0.012769	-0.019097
1073	5.368057	0.005000	2.492491	-9.142920	-1.358497	-0.537675	0.060651	-0.367323	-0.007135	0.013249	-0.025241
1074	5.373057	0.005000	2.637430	-9.064440	-1.388845	-0.537901	0.060313	-0.366693	-0.001915	0.015079	-0.011099
1075	5.378057	0.005000	2.511360	-9.025200	-1.327855	-0.538127	0.059974	-0.366062	0.005104	0.008881	-0.006185
1076	5.383057	0.005000	2.537370	-9.046950	-1.334160	-0.538352	0.059635	-0.365432	-0.003584	0.016284	-0.006948
1077	5.388057	0.005000	2.650064	-9.064440	-1.388927	-0.538578	0.059296	-0.364802	0.007002	0.011757	-0.007754
1078	5.393057	0.005000	2.531545	-9.025200	-1.294920	-0.538804	0.058958	-0.364171	-0.003519	0.025081	-0.009124
1079	5.398057	0.005000	2.569763	-9.024286	-1.334160	-0.539030	0.058619	-0.363541	-0.008581	0.018508	-0.019356
