# FOX Logger (IMU file)
# (c) INRIA 2011-2014
# File created from file sensbiotk output
#
# File format:
# id	t	dt	ax	ay	az	mx	my	mz	gx	gy	gz
#
# Units:
#	Time: s
#	Acceleration: m.s^-2
#	Magneto: gauss
#	Gyrometer: rad/s
#
1	0.005707	0.005707	7.416360	-0.296388	-5.730432	0.031343	-0.152239	-0.656667	0.055965	0.006943	0.010068
2	0.010707	0.005000	7.557240	-0.297840	-5.721960	0.030660	-0.153604	-0.655523	0.042453	0.008720	0.013134
3	0.015707	0.005000	7.414484	-0.260975	-5.791939	0.029978	-0.154970	-0.654380	0.054396	0.005384	0.012971
4	0.020707	0.005000	7.562459	-0.224579	-5.746557	0.029295	-0.156335	-0.653236	0.032417	0.010385	0.017102
5	0.025707	0.005000	7.557285	-0.156960	-5.753092	0.028612	-0.157701	-0.652093	0.053440	0.006530	0.007130
6	0.030707	0.005000	7.445253	-0.162134	-5.831239	0.027929	-0.159066	-0.650949	0.046996	0.014985	0.008497
7	0.035707	0.005000	7.305629	-0.274680	-5.765950	0.027247	-0.160432	-0.649805	0.047270	0.011784	0.016934
8	0.040707	0.005000	7.532537	-0.274680	-5.845217	0.026564	-0.161797	-0.648662	0.049364	0.014909	0.019863
9	0.045707	0.005000	7.497729	-0.229661	-5.731929	0.025881	-0.163163	-0.647518	0.054843	0.020621	0.000933
10	0.050707	0.005000	7.539813	-0.151227	-5.796054	0.025198	-0.164528	-0.646375	0.051619	0.008401	0.014822
11	0.055707	0.005000	7.464177	-0.296766	-5.868846	0.024516	-0.165894	-0.645231	0.051424	0.016673	0.013468
12	0.060707	0.005000	7.494840	-0.325341	-5.863158	0.023833	-0.167259	-0.644087	0.058950	0.018034	0.010226
13	0.065707	0.005000	7.519815	-0.274680	-5.861025	0.023150	-0.168625	-0.642944	0.049490	0.021954	0.017372
14	0.070707	0.005000	7.511495	-0.313920	-5.790865	0.022467	-0.169990	-0.641800	0.050085	0.018216	0.017407
15	0.075707	0.005000	7.494598	-0.235440	-5.807278	0.023193	-0.169344	-0.642341	0.071166	0.016630	0.014072
16	0.080707	0.005000	7.567874	-0.280126	-5.762834	0.024103	-0.168434	-0.643104	0.041238	0.022268	0.011357
17	0.085707	0.005000	7.508893	-0.353160	-5.717906	0.025014	-0.167523	-0.643866	0.048680	0.016638	0.013759
18	0.090707	0.005000	7.623769	-0.313920	-5.863581	0.025925	-0.166612	-0.644629	0.043350	0.021411	0.012819
19	0.095707	0.005000	7.682310	-0.265950	-5.859810	0.026836	-0.165701	-0.645392	0.047972	0.021711	0.004378
20	0.100707	0.005000	7.639819	-0.235440	-5.828789	0.027746	-0.164791	-0.646155	0.046821	0.019745	0.008355
21	0.105707	0.005000	7.570174	-0.193054	-5.732186	0.028657	-0.163880	-0.646917	0.049775	0.015711	0.008188
22	0.110707	0.005000	7.573925	-0.196200	-5.808125	0.029568	-0.162969	-0.647680	0.051341	0.020914	0.014190
23	0.115707	0.005000	7.651800	-0.232899	-5.812603	0.030479	-0.162058	-0.648443	0.053986	0.017500	0.012363
24	0.120707	0.005000	7.471756	-0.206971	-5.852145	0.031389	-0.161148	-0.649206	0.064814	0.016455	0.012399
25	0.125707	0.005000	7.494840	-0.196200	-5.799291	0.032300	-0.160237	-0.649969	0.060069	0.014824	0.026517
26	0.130707	0.005000	7.534080	-0.303301	-5.846760	0.033211	-0.159326	-0.650731	0.054006	0.019062	0.021247
27	0.135707	0.005000	7.597947	-0.353160	-5.625933	0.034121	-0.158416	-0.651494	0.050433	0.016016	0.026804
28	0.140707	0.005000	7.566694	-0.228814	-5.712733	0.034592	-0.157945	-0.652060	0.057211	0.023497	0.009058
29	0.145707	0.005000	7.593409	-0.235440	-5.826671	0.034933	-0.157604	-0.652568	0.059895	0.014675	0.014192
30	0.150707	0.005000	7.560825	-0.279430	-5.876500	0.035275	-0.157262	-0.653076	0.052308	0.014587	0.013838
31	0.155707	0.005000	7.499326	-0.289255	-5.856849	0.035616	-0.156921	-0.653585	0.048087	0.017524	0.006959
32	0.160707	0.005000	7.573320	-0.247466	-5.807520	0.035958	-0.156579	-0.654093	0.057774	0.011516	0.013250
33	0.165707	0.005000	7.513204	-0.226258	-5.738222	0.036299	-0.156238	-0.654601	0.049808	0.017123	0.014622
34	0.170707	0.005000	7.606222	-0.196200	-5.630335	0.036640	-0.155897	-0.655109	0.062848	0.008661	0.019613
35	0.175707	0.005000	7.530586	-0.160454	-5.696789	0.036982	-0.155555	-0.655617	0.051093	0.017434	0.015247
36	0.180707	0.005000	7.532764	-0.158276	-5.691774	0.037323	-0.155214	-0.656126	0.057878	0.015187	0.007668
37	0.185707	0.005000	7.455600	-0.272940	-5.807520	0.037665	-0.154872	-0.656634	0.057214	0.018054	0.017022
38	0.190707	0.005000	7.446433	-0.348576	-5.846760	0.038006	-0.154531	-0.657142	0.057673	0.014997	0.015056
39	0.195707	0.005000	7.526653	-0.313920	-5.768280	0.038347	-0.154190	-0.657650	0.046837	0.002468	0.016218
40	0.200707	0.005000	7.496641	-0.313920	-5.846760	0.038689	-0.153848	-0.658159	0.057976	0.014374	0.006276
41	0.205707	0.005000	7.494779	-0.287780	-5.755180	0.038507	-0.154030	-0.657999	0.047678	0.017592	0.012881
42	0.210707	0.005000	7.573320	-0.227181	-5.823010	0.038052	-0.154485	-0.657491	0.059697	0.017531	0.013029
43	0.215707	0.005000	7.554986	-0.277252	-5.689800	0.037597	-0.154940	-0.656983	0.053785	0.007720	0.016702
44	0.220707	0.005000	7.530964	-0.295858	-5.707862	0.037142	-0.155395	-0.656475	0.070924	0.007790	0.011593
45	0.225707	0.005000	7.566906	-0.244244	-5.713822	0.036686	-0.155851	-0.655966	0.048338	0.006585	0.019046
46	0.230707	0.005000	7.519588	-0.274680	-5.780654	0.036231	-0.156306	-0.655458	0.056870	0.010505	0.015107
47	0.235707	0.005000	7.593500	-0.313920	-5.886000	0.035776	-0.156761	-0.654950	0.057829	0.013949	0.013744
48	0.240707	0.005000	7.598250	-0.274680	-5.832450	0.035321	-0.157216	-0.654442	0.057956	0.008094	0.024816
49	0.245707	0.005000	7.534080	-0.196200	-5.663494	0.034866	-0.157671	-0.653933	0.052733	0.002619	0.016272
50	0.250707	0.005000	7.571853	-0.199135	-5.733442	0.034411	-0.158126	-0.653425	0.055880	0.005963	0.015637
51	0.255707	0.005000	7.534080	-0.236817	-5.808897	0.033956	-0.158581	-0.652917	0.057421	-0.003665	0.022297
52	0.260707	0.005000	7.464041	-0.204641	-5.921020	0.033500	-0.159037	-0.652409	0.052128	-0.001265	0.014638
53	0.265707	0.005000	7.468976	-0.163648	-5.801720	0.033045	-0.159492	-0.651901	0.062751	0.003392	0.008704
54	0.270707	0.005000	7.336458	-0.235440	-5.837305	0.032959	-0.159332	-0.651942	0.041779	0.010353	0.016911
55	0.275707	0.005000	7.406406	-0.301622	-5.782923	0.033187	-0.158649	-0.652450	0.060310	0.011464	0.019853
56	0.280707	0.005000	7.470742	-0.313920	-5.807520	0.033414	-0.157967	-0.652958	0.061789	0.001895	0.022630
57	0.285707	0.005000	7.437614	-0.310653	-5.825506	0.033642	-0.157284	-0.653466	0.057667	0.007270	0.021542
58	0.290707	0.005000	7.491875	-0.254319	-5.886000	0.033869	-0.156601	-0.653974	0.059311	0.007655	0.020261
59	0.295707	0.005000	7.494840	-0.290715	-5.846760	0.034097	-0.155918	-0.654483	0.052342	0.010619	0.018536
60	0.300707	0.005000	7.521222	-0.235107	-5.767947	0.034324	-0.155236	-0.654991	0.056221	0.012152	0.015746
61	0.305707	0.005000	7.513386	-0.324267	-5.710494	0.034552	-0.154553	-0.655499	0.059896	0.010804	0.025683
62	0.310707	0.005000	7.549086	-0.267177	-5.744046	0.034780	-0.153870	-0.656007	0.043376	0.008655	0.014065
63	0.315707	0.005000	7.564002	-0.196200	-5.763621	0.035007	-0.153188	-0.656516	0.051313	-0.001353	0.017682
64	0.320707	0.005000	7.534080	-0.276495	-5.807520	0.035235	-0.152505	-0.657024	0.055056	-0.004363	0.017131
65	0.325707	0.005000	7.572738	-0.275262	-5.768862	0.035462	-0.151822	-0.657532	0.057227	0.008737	0.018752
66	0.330707	0.005000	7.544336	-0.346322	-5.853598	0.035690	-0.151139	-0.658040	0.043340	0.003311	0.014944
67	0.335707	0.005000	7.606297	-0.241703	-5.853023	0.035676	-0.150794	-0.658279	0.049459	0.005917	0.010923
68	0.340707	0.005000	7.543187	-0.235440	-5.747253	0.035334	-0.150908	-0.658152	0.064636	0.002030	0.008437
69	0.345707	0.005000	7.506791	-0.262729	-5.764892	0.034993	-0.151022	-0.658025	0.068114	0.010023	0.013829
70	0.350707	0.005000	7.538336	-0.220941	-5.772536	0.034651	-0.151136	-0.657898	0.065757	0.010218	0.014872
71	0.355707	0.005000	7.411459	-0.191299	-5.802619	0.034309	-0.151250	-0.657771	0.048645	0.009992	0.012383
72	0.360707	0.005000	7.494840	-0.235440	-5.749053	0.033968	-0.151364	-0.657643	0.050151	0.007830	0.005739
73	0.365707	0.005000	7.449126	-0.235440	-5.807520	0.033626	-0.151478	-0.657516	0.050640	0.010202	0.018598
74	0.370707	0.005000	7.547619	-0.223278	-5.821059	0.033284	-0.151592	-0.657389	0.050551	0.009968	0.008365
75	0.375707	0.005000	7.522916	-0.246604	-5.757116	0.032942	-0.151706	-0.657262	0.050624	0.006626	0.017793
76	0.380707	0.005000	7.455600	-0.243760	-5.776600	0.032601	-0.151820	-0.657135	0.059695	0.010407	0.007258
77	0.385707	0.005000	7.432788	-0.235440	-5.875048	0.032259	-0.151934	-0.657008	0.054349	0.007699	0.023430
78	0.390707	0.005000	7.565424	-0.238072	-5.807520	0.031917	-0.152048	-0.656881	0.050873	0.016111	0.015062
79	0.395707	0.005000	7.455600	-0.274680	-5.846548	0.031576	-0.152161	-0.656754	0.056076	0.012470	0.013075
80	0.400707	0.005000	7.419416	-0.271624	-5.879889	0.031379	-0.152130	-0.656667	0.046086	0.006065	0.008020
81	0.405707	0.005000	7.500350	-0.235440	-5.745569	0.031493	-0.151788	-0.656667	0.051538	0.009034	0.010388
82	0.410707	0.005000	7.595981	-0.212779	-5.883791	0.031607	-0.151447	-0.656667	0.062823	0.007830	0.015705
83	0.415707	0.005000	7.679906	-0.246574	-5.857894	0.031721	-0.151106	-0.656667	0.055786	0.013439	0.015055
84	0.420707	0.005000	7.508818	-0.285965	-5.793542	0.031835	-0.150764	-0.656667	0.051222	0.005400	0.007525
85	0.425707	0.005000	7.410763	-0.313920	-5.829939	0.031949	-0.150423	-0.656667	0.057579	0.008046	0.010410
86	0.430707	0.005000	7.455691	-0.274680	-5.866335	0.032062	-0.150081	-0.656667	0.058950	0.008856	0.007668
87	0.435707	0.005000	7.343659	-0.274680	-5.813299	0.032176	-0.149740	-0.656667	0.064703	0.014844	0.013669
88	0.440707	0.005000	7.458524	-0.274680	-5.771204	0.032290	-0.149399	-0.656667	0.057829	0.018377	0.010231
89	0.445707	0.005000	7.444088	-0.313920	-5.823736	0.032404	-0.149057	-0.656667	0.045353	0.018886	0.011366
90	0.450707	0.005000	7.581988	-0.248676	-5.737708	0.032518	-0.148716	-0.656667	0.044065	0.020774	0.011354
91	0.455707	0.005000	7.634328	-0.247088	-5.824992	0.032631	-0.148374	-0.656667	0.053796	0.021536	0.005692
92	0.460707	0.005000	7.458580	-0.202160	-5.919280	0.032745	-0.148033	-0.656667	0.062597	0.011770	0.018603
93	0.465707	0.005000	7.494702	-0.313782	-5.807795	0.032928	-0.147830	-0.656667	0.041108	0.014851	0.008311
94	0.470707	0.005000	7.492586	-0.237694	-5.849014	0.033384	-0.148172	-0.656667	0.050379	0.010181	0.011047
95	0.475707	0.005000	7.636506	-0.303724	-5.729040	0.033839	-0.148513	-0.656667	0.051759	0.013933	0.010948
96	0.480707	0.005000	7.659742	-0.251324	-5.776222	0.034294	-0.148855	-0.656667	0.051100	0.010473	0.012696
97	0.485707	0.005000	7.669469	-0.235440	-5.814403	0.034749	-0.149196	-0.656667	0.054231	0.013100	0.017256
98	0.490707	0.005000	7.612560	-0.325901	-5.872370	0.035204	-0.149537	-0.656667	0.037903	0.013975	0.011652
99	0.495707	0.005000	7.622741	-0.359453	-5.902474	0.035659	-0.149879	-0.656667	0.051666	0.005897	0.015316
100	0.500707	0.005000	7.515004	-0.293756	-5.806433	0.036115	-0.150220	-0.656667	0.039689	0.012395	0.018063
101	0.505707	0.005000	7.455600	-0.235440	-5.768280	0.036570	-0.150562	-0.656667	0.054727	0.008387	0.013705
102	0.510707	0.005000	7.548784	-0.313920	-5.807520	0.037025	-0.150903	-0.656667	0.042473	0.008329	0.018549
103	0.515707	0.005000	7.612560	-0.317581	-5.948959	0.037480	-0.151244	-0.656667	0.065137	0.008523	0.018041
104	0.520707	0.005000	7.503856	-0.265664	-5.886000	0.037935	-0.151586	-0.656667	0.062122	0.008599	0.019501
105	0.525707	0.005000	7.501012	-0.326264	-5.852932	0.038390	-0.151927	-0.656667	0.047380	0.017334	0.008170
106	0.530707	0.005000	7.491512	-0.310592	-5.853416	0.038766	-0.152229	-0.656678	0.059639	0.010742	0.018260
107	0.535707	0.005000	7.455600	-0.313920	-5.772032	0.038311	-0.152115	-0.656805	0.054103	0.012495	0.012092
108	0.540707	0.005000	7.455600	-0.313920	-5.887906	0.037856	-0.152001	-0.656932	0.056810	0.004831	0.010547
109	0.545707	0.005000	7.528936	-0.206489	-5.812664	0.037401	-0.151888	-0.657059	0.049458	0.008455	0.013483
110	0.550707	0.005000	7.526498	-0.298757	-5.846760	0.036946	-0.151774	-0.657186	0.059390	0.013271	0.013789
111	0.555707	0.005000	7.466023	-0.313920	-5.896423	0.036491	-0.151660	-0.657313	0.058175	0.010264	0.017489
112	0.560707	0.005000	7.468867	-0.261413	-5.820787	0.036036	-0.151546	-0.657440	0.047818	0.027361	0.007092
113	0.565707	0.005000	7.485749	-0.196200	-5.846760	0.035580	-0.151432	-0.657567	0.063184	0.018497	0.017194
114	0.570707	0.005000	7.552581	-0.256179	-5.908978	0.035125	-0.151319	-0.657694	0.062639	0.031047	0.007741
115	0.575707	0.005000	7.569871	-0.253335	-5.807520	0.034670	-0.151205	-0.657821	0.055216	0.023678	0.008539
116	0.580707	0.005000	7.528165	-0.172012	-5.916103	0.034215	-0.151091	-0.657948	0.051426	0.022533	0.012247
117	0.585707	0.005000	7.492223	-0.208408	-5.849377	0.033760	-0.150977	-0.658075	0.055795	0.020897	0.004461
118	0.590707	0.005000	7.632135	-0.245273	-5.817353	0.033305	-0.150863	-0.658202	0.050153	0.020650	0.012776
119	0.595707	0.005000	7.566331	-0.267691	-5.964480	0.032850	-0.150749	-0.658329	0.051937	0.023464	0.008965
120	0.600707	0.005000	7.565030	-0.204490	-5.842615	0.032726	-0.150636	-0.658210	0.059447	0.020965	0.009496
121	0.605707	0.005000	7.417661	-0.273379	-5.769581	0.032612	-0.150522	-0.658083	0.044609	0.022293	0.007023
122	0.610707	0.005000	7.606388	-0.235440	-5.769823	0.032498	-0.150408	-0.657956	0.039960	0.022090	0.000117
123	0.615707	0.005000	7.538467	-0.196200	-5.877226	0.032384	-0.150295	-0.657829	0.056676	0.015846	0.016872
124	0.620707	0.005000	7.481286	-0.235440	-5.742594	0.032271	-0.150181	-0.657702	0.040879	0.011455	0.012750
125	0.625707	0.005000	7.425981	-0.245061	-5.787522	0.032157	-0.150067	-0.657575	0.045282	0.018333	0.018221
126	0.630707	0.005000	7.498531	-0.274680	-5.766434	0.032043	-0.149954	-0.657448	0.051444	0.019830	0.016378
127	0.635707	0.005000	7.494840	-0.235440	-5.816143	0.031929	-0.149840	-0.657321	0.054810	0.018945	0.008271
128	0.640707	0.005000	7.497775	-0.274680	-5.731975	0.031815	-0.149726	-0.657194	0.052297	0.028656	0.005624
129	0.645707	0.005000	7.515837	-0.274680	-5.768280	0.031702	-0.149612	-0.657067	0.037263	0.028097	0.006520
130	0.650707	0.005000	7.518212	-0.212068	-5.737405	0.031588	-0.149499	-0.656940	0.043948	0.012755	0.009217
131	0.655707	0.005000	7.547105	-0.196200	-5.768280	0.031474	-0.149385	-0.656813	0.046021	0.011475	0.011347
132	0.660707	0.005000	7.523899	-0.274680	-5.699981	0.031360	-0.149271	-0.656686	0.051317	0.018763	0.010026
133	0.665707	0.005000	7.462937	-0.242777	-5.736377	0.031536	-0.149447	-0.656667	0.033678	0.020138	0.013501
134	0.670707	0.005000	7.564334	-0.313920	-5.812013	0.031764	-0.149675	-0.656667	0.055979	0.018233	0.021270
135	0.675707	0.005000	7.571671	-0.273031	-5.809169	0.031991	-0.149902	-0.656667	0.061969	0.017410	0.011070
136	0.680707	0.005000	7.534080	-0.273930	-5.731290	0.032219	-0.150130	-0.656667	0.052899	0.026465	0.004601
137	0.685707	0.005000	7.530495	-0.317505	-5.768280	0.032447	-0.150358	-0.656667	0.045597	0.018650	0.013637
138	0.690707	0.005000	7.606131	-0.274680	-5.761851	0.032674	-0.150585	-0.656667	0.049447	0.016595	0.009639
139	0.695707	0.005000	7.455600	-0.244713	-5.756859	0.032902	-0.150813	-0.656667	0.043160	0.013096	-0.002243
140	0.700707	0.005000	7.576209	-0.196200	-5.756163	0.033130	-0.151041	-0.656667	0.042207	0.020640	0.009521
141	0.705707	0.005000	7.662056	-0.142468	-5.665052	0.033357	-0.151268	-0.656667	0.041223	0.017567	0.005486
142	0.710707	0.005000	7.691040	-0.257344	-5.733608	0.033585	-0.151496	-0.656667	0.058513	0.013892	0.007848
143	0.715707	0.005000	7.594619	-0.312801	-5.807520	0.033813	-0.151724	-0.656667	0.047038	0.030203	0.011492
144	0.720707	0.005000	7.455600	-0.304511	-5.761473	0.034041	-0.151952	-0.656667	0.055397	0.011798	0.018202
145	0.725707	0.005000	7.573320	-0.262185	-5.716545	0.034268	-0.152179	-0.656667	0.049929	0.021944	0.008881
146	0.730707	0.005000	7.601904	-0.274680	-5.800248	0.034412	-0.152239	-0.656948	0.051503	0.014204	0.009887
147	0.735707	0.005000	7.573320	-0.274680	-5.799366	0.034526	-0.152239	-0.657329	0.042411	0.015556	0.000940
148	0.740707	0.005000	7.601941	-0.235440	-5.796901	0.034639	-0.152239	-0.657710	0.039529	0.015971	0.005987
149	0.745707	0.005000	7.539011	-0.274680	-5.768280	0.034753	-0.152239	-0.658091	0.044555	0.016020	0.005356
150	0.750707	0.005000	7.573698	-0.235818	-5.690556	0.034867	-0.152239	-0.658472	0.041408	0.024326	0.009523
151	0.755707	0.005000	7.609338	-0.232218	-5.801076	0.034981	-0.152239	-0.658853	0.055187	0.023340	0.004489
152	0.760707	0.005000	7.511677	-0.313920	-5.768280	0.035095	-0.152239	-0.659234	0.045032	0.026664	0.016325
153	0.765707	0.005000	7.587192	-0.327792	-5.737496	0.035208	-0.152239	-0.659615	0.062445	0.025516	0.003918
154	0.770707	0.005000	7.522780	-0.353160	-5.768280	0.035322	-0.152239	-0.659996	0.051823	0.029658	0.002636
155	0.775707	0.005000	7.534080	-0.238632	-5.743184	0.035436	-0.152239	-0.660377	0.045413	0.030351	0.002204
156	0.780707	0.005000	7.545804	-0.213188	-5.790532	0.035550	-0.152239	-0.660758	0.050384	0.018406	0.003014
157	0.785707	0.005000	7.553488	-0.254848	-5.807520	0.035663	-0.152239	-0.661139	0.034259	0.022534	0.013833
158	0.790707	0.005000	7.573320	-0.235440	-5.807520	0.035777	-0.152239	-0.661520	0.045385	0.022002	0.010224
159	0.795707	0.005000	7.534080	-0.221251	-5.793331	0.035891	-0.152309	-0.661433	0.066447	0.013367	0.007342
160	0.800707	0.005000	7.584665	-0.263335	-5.756935	0.036005	-0.152423	-0.661051	0.049642	0.019395	0.005767
161	0.805707	0.005000	7.612560	-0.322421	-5.715304	0.036118	-0.152536	-0.660670	0.047718	0.023644	0.015530
162	0.810707	0.005000	7.578978	-0.302605	-5.874685	0.036232	-0.152650	-0.660289	0.049474	0.037557	0.005693
163	0.815707	0.005000	7.543882	-0.304118	-5.814055	0.036346	-0.152764	-0.659908	0.046604	0.018249	0.001629
164	0.820707	0.005000	7.612136	-0.235864	-5.885153	0.036460	-0.152878	-0.659527	0.050672	0.024873	0.008647
165	0.825707	0.005000	7.462861	-0.237860	-5.733881	0.036573	-0.152991	-0.659145	0.051417	0.024268	-0.003498
166	0.830707	0.005000	7.466129	-0.138777	-5.763016	0.036687	-0.153105	-0.658764	0.051375	0.024769	0.011533
167	0.835707	0.005000	7.589642	-0.298642	-5.792242	0.036801	-0.153219	-0.658383	0.062093	0.017169	0.000299
168	0.840707	0.005000	7.680557	-0.235440	-5.797037	0.036915	-0.153333	-0.658002	0.042769	0.016181	0.006715
169	0.845707	0.005000	7.573320	-0.248767	-5.807520	0.037028	-0.153446	-0.657621	0.045453	0.017717	0.001083
170	0.850707	0.005000	7.651800	-0.258509	-5.807520	0.037142	-0.153560	-0.657239	0.056023	0.029508	0.005073
171	0.855707	0.005000	7.631121	-0.272562	-5.768280	0.037256	-0.153674	-0.656858	0.055079	0.033902	0.012644
172	0.860707	0.005000	7.708875	-0.253275	-5.686230	0.037200	-0.153844	-0.656730	0.066691	0.020815	-0.001634
173	0.865707	0.005000	7.685307	-0.265422	-5.738298	0.036972	-0.154072	-0.656857	0.054301	0.019131	0.012091
174	0.870707	0.005000	7.624707	-0.247587	-5.741187	0.036744	-0.154300	-0.656984	0.045764	0.017785	0.014271
175	0.875707	0.005000	7.672434	-0.274680	-5.758977	0.036517	-0.154527	-0.657111	0.053391	0.016240	0.006012
176	0.880707	0.005000	7.573320	-0.228903	-5.755205	0.036289	-0.154755	-0.657238	0.048411	0.021953	0.006758
177	0.885707	0.005000	7.651800	-0.231356	-5.764196	0.036062	-0.154982	-0.657365	0.060063	0.016144	0.003202
178	0.890707	0.005000	7.765799	-0.236680	-5.729040	0.035834	-0.155210	-0.657492	0.054991	0.014113	0.004904
179	0.895707	0.005000	7.651800	-0.237043	-5.691403	0.035607	-0.155437	-0.657619	0.045387	0.018217	0.008253
180	0.900707	0.005000	7.617007	-0.230993	-5.689800	0.035379	-0.155665	-0.657746	0.047296	0.009468	0.007108
181	0.905707	0.005000	7.622635	-0.345869	-5.689800	0.035151	-0.155893	-0.657873	0.042130	0.009791	0.006807
182	0.910707	0.005000	7.661690	-0.304137	-5.699583	0.034924	-0.156120	-0.658000	0.047000	0.011310	-0.001150
183	0.915707	0.005000	7.587540	-0.287190	-5.755770	0.034696	-0.156348	-0.658127	0.042638	0.012176	0.007684
184	0.920707	0.005000	7.518726	-0.322452	-5.752926	0.034469	-0.156575	-0.658254	0.044678	0.016000	0.002528
185	0.925707	0.005000	7.651800	-0.313920	-5.810364	0.034328	-0.156586	-0.658139	0.048700	0.022721	0.013868
186	0.930707	0.005000	7.672842	-0.350316	-5.828562	0.034328	-0.156244	-0.657631	0.048201	0.018953	0.006950
187	0.935707	0.005000	7.628368	-0.258872	-5.870192	0.034328	-0.155903	-0.657123	0.036096	0.011052	0.013742
188	0.940707	0.005000	7.638836	-0.183236	-5.807520	0.034328	-0.155562	-0.656614	0.036392	0.020772	0.012702
189	0.945707	0.005000	7.504960	-0.264560	-5.875880	0.034328	-0.155220	-0.656106	0.038022	0.021852	0.012928
190	0.950707	0.005000	7.526804	-0.260128	-5.817655	0.034328	-0.154879	-0.655598	0.046250	0.020496	0.010707
191	0.955707	0.005000	7.547377	-0.248737	-5.698665	0.034328	-0.154538	-0.655090	0.038091	0.017198	0.002903
192	0.960707	0.005000	7.609345	-0.273072	-5.845152	0.034328	-0.154196	-0.654581	0.054088	0.015385	0.008360
193	0.965707	0.005000	7.418720	-0.273893	-5.884427	0.034328	-0.153855	-0.654073	0.040626	0.014141	0.014219
194	0.970707	0.005000	7.605299	-0.278311	-5.700692	0.034328	-0.153514	-0.653565	0.053608	0.015620	0.010342
195	0.975707	0.005000	7.612560	-0.163434	-5.729040	0.034328	-0.153172	-0.653057	0.041007	0.012635	0.014615
196	0.980707	0.005000	7.564002	-0.214837	-5.641242	0.034328	-0.152831	-0.652549	0.039677	0.014843	0.006877
197	0.985707	0.005000	7.600398	-0.238193	-5.635645	0.034328	-0.152490	-0.652040	0.047060	0.008917	0.008480
198	0.990707	0.005000	7.543875	-0.264885	-5.626043	0.034328	-0.152299	-0.651667	0.038189	0.010357	0.008016
199	0.995707	0.005000	7.538527	-0.230993	-5.633164	0.034328	-0.152527	-0.651667	0.042321	0.015704	-0.001317
200	1.000707	0.005000	7.589839	-0.254440	-5.688560	0.034328	-0.152755	-0.651667	0.049511	0.016670	0.009531
201	1.005707	0.005000	7.667956	-0.242368	-5.768280	0.034328	-0.152982	-0.651667	0.043269	0.019446	0.008858
202	1.010707	0.005000	7.638019	-0.274680	-5.687697	0.034328	-0.153210	-0.651667	0.052478	0.013720	0.010409
203	1.015707	0.005000	7.512206	-0.246377	-5.729040	0.034328	-0.153437	-0.651667	0.049244	0.011835	0.009441
204	1.020707	0.005000	7.455600	-0.227347	-5.745226	0.034328	-0.153665	-0.651667	0.064575	0.004990	0.010688
205	1.025707	0.005000	7.479093	-0.224942	-5.739538	0.034328	-0.153892	-0.651667	0.053800	0.009451	0.008430
206	1.030707	0.005000	7.460410	-0.237845	-5.807520	0.034328	-0.154120	-0.651667	0.048348	-0.000339	0.000519
207	1.035707	0.005000	7.495279	-0.197077	-5.807520	0.034328	-0.154348	-0.651667	0.038771	-0.001590	0.007806
208	1.040707	0.005000	7.651800	-0.235440	-5.657125	0.034328	-0.154575	-0.651667	0.047696	-0.003489	0.009380
209	1.045707	0.005000	7.651800	-0.280419	-5.796042	0.034328	-0.154803	-0.651667	0.053318	0.007951	0.015395
210	1.050707	0.005000	7.660317	-0.274680	-5.720523	0.034328	-0.155030	-0.651667	0.055235	0.000250	0.018562
211	1.055707	0.005000	7.623921	-0.263319	-5.689800	0.034379	-0.155173	-0.651781	0.050334	0.001185	0.010739
212	1.060707	0.005000	7.666004	-0.224609	-5.779111	0.034720	-0.154832	-0.652543	0.050464	-0.005707	0.011483
213	1.065707	0.005000	7.674000	-0.218400	-5.746080	0.035062	-0.154490	-0.653306	0.044409	-0.001265	0.011973
214	1.070707	0.005000	7.494840	-0.255091	-5.807459	0.035404	-0.154148	-0.654069	0.047902	-0.005644	0.011944
215	1.075707	0.005000	7.511813	-0.313920	-5.785253	0.035745	-0.153807	-0.654832	0.069077	0.002006	-0.003513
216	1.080707	0.005000	7.601578	-0.339031	-5.768280	0.036087	-0.153465	-0.655594	0.053252	-0.004648	0.007227
217	1.085707	0.005000	7.629230	-0.274680	-5.773665	0.036428	-0.153124	-0.656357	0.052054	-0.002828	0.005501
218	1.090707	0.005000	7.651800	-0.243983	-5.754669	0.036770	-0.152782	-0.657120	0.060170	0.000131	0.015010
219	1.095707	0.005000	7.618626	-0.307854	-5.762214	0.037111	-0.152441	-0.657883	0.053417	0.006207	0.009579
220	1.100707	0.005000	7.534080	-0.317142	-5.765058	0.037453	-0.152099	-0.658645	0.051984	0.007603	0.004478
221	1.105707	0.005000	7.573320	-0.274680	-5.846382	0.037795	-0.151757	-0.659408	0.057816	-0.005345	0.005969
222	1.110707	0.005000	7.610094	-0.274680	-5.770746	0.038136	-0.151416	-0.660171	0.038922	0.003490	0.006274
223	1.115707	0.005000	7.680421	-0.190890	-5.679181	0.038478	-0.151074	-0.660934	0.055539	-0.002513	0.003861
224	1.120707	0.005000	7.573320	-0.322361	-5.635160	0.038784	-0.150737	-0.661647	0.064022	-0.008306	0.001776
225	1.125707	0.005000	7.541689	-0.342616	-5.661104	0.038215	-0.150510	-0.661139	0.056819	-0.004144	-0.004588
226	1.130707	0.005000	7.585785	-0.261292	-5.780745	0.037647	-0.150282	-0.660631	0.051735	-0.004550	0.011129
227	1.135707	0.005000	7.409583	-0.307143	-5.775057	0.037078	-0.150055	-0.660123	0.053366	0.005202	0.015798
228	1.140707	0.005000	7.497018	-0.215275	-5.767191	0.036509	-0.149827	-0.659615	0.045505	-0.001267	0.002460
229	1.145707	0.005000	7.651800	-0.199861	-5.732701	0.035940	-0.149600	-0.659107	0.058724	-0.009712	0.001925
230	1.150707	0.005000	7.646203	-0.162557	-5.773877	0.035372	-0.149372	-0.658599	0.053718	-0.001580	0.008065
231	1.155707	0.005000	7.573320	-0.223338	-5.831724	0.034803	-0.149145	-0.658091	0.047679	-0.005400	0.009533
232	1.160707	0.005000	7.504098	-0.196200	-5.816778	0.034234	-0.148917	-0.657583	0.046188	-0.001255	0.002635
233	1.165707	0.005000	7.514307	-0.235440	-5.833782	0.033666	-0.148690	-0.657075	0.062947	0.001055	0.011190
234	1.170707	0.005000	7.542128	-0.266632	-5.685776	0.033097	-0.148463	-0.656567	0.056340	-0.000578	0.009460
235	1.175707	0.005000	7.498380	-0.234260	-5.730220	0.032528	-0.148235	-0.656059	0.055106	-0.001993	0.008122
236	1.180707	0.005000	7.574984	-0.196200	-5.768280	0.031959	-0.148008	-0.655551	0.050623	-0.003853	0.017037
237	1.185707	0.005000	7.494840	-0.230932	-5.689800	0.031391	-0.147780	-0.655043	0.050332	-0.003160	0.005644
238	1.190707	0.005000	7.558616	-0.313920	-5.846760	0.031135	-0.148282	-0.654651	0.063821	-0.002747	0.016789
239	1.195707	0.005000	7.583047	-0.245167	-5.807520	0.030907	-0.148851	-0.654270	0.054171	0.004020	0.009352
240	1.200707	0.005000	7.585891	-0.301349	-5.702371	0.030679	-0.149420	-0.653888	0.069333	-0.002849	0.004826
241	1.205707	0.005000	7.620971	-0.320924	-5.776691	0.030452	-0.149989	-0.653507	0.059263	-0.000159	0.012449
242	1.210707	0.005000	7.552093	-0.256667	-5.828747	0.030224	-0.150558	-0.653126	0.060274	-0.006424	0.012423
243	1.215707	0.005000	7.513431	-0.254031	-5.790986	0.029997	-0.151127	-0.652745	0.063463	-0.000641	0.015833
244	1.220707	0.005000	7.494840	-0.298173	-5.744787	0.029769	-0.151696	-0.652364	0.053131	-0.001847	0.007350
245	1.225707	0.005000	7.546984	-0.235440	-5.859664	0.029541	-0.152265	-0.651982	0.053235	-0.006844	0.009137
246	1.230707	0.005000	7.465663	-0.254553	-5.866887	0.029314	-0.152834	-0.651601	0.046865	0.001124	0.006348
247	1.235707	0.005000	7.534080	-0.196200	-5.846760	0.029086	-0.153403	-0.651220	0.059074	-0.001096	0.012163
248	1.240707	0.005000	7.568479	-0.230599	-5.837079	0.028859	-0.153972	-0.650839	0.057011	-0.002033	0.003534
249	1.245707	0.005000	7.459594	-0.200194	-5.805523	0.028631	-0.154541	-0.650458	0.051130	-0.003305	0.012211
250	1.250707	0.005000	7.495687	-0.274680	-5.806673	0.028404	-0.155110	-0.650076	0.041984	-0.002948	0.014661
251	1.255707	0.005000	7.505913	-0.310229	-5.988956	0.027084	-0.156043	-0.649390	0.041766	-0.006164	0.010957
252	1.260707	0.005000	7.540615	-0.333555	-5.964480	0.025491	-0.157067	-0.648628	0.059154	-0.005120	0.008610
253	1.265707	0.005000	7.464979	-0.284059	-5.934619	0.023898	-0.158091	-0.647866	0.047395	-0.001289	0.009334
254	1.270707	0.005000	7.561097	-0.262457	-5.768280	0.022305	-0.159115	-0.647103	0.055029	-0.006627	0.019751
255	1.275707	0.005000	7.543771	-0.274680	-5.856451	0.020712	-0.160139	-0.646341	0.049527	-0.002194	0.017482
256	1.280707	0.005000	7.586405	-0.257238	-5.824962	0.019119	-0.161164	-0.645578	0.054543	-0.000816	0.003490
257	1.285707	0.005000	7.475886	-0.273349	-5.789897	0.017526	-0.162188	-0.644816	0.056958	-0.006646	0.011093
258	1.290707	0.005000	7.432470	-0.320939	-5.823630	0.015933	-0.163212	-0.644054	0.043415	0.000075	0.006344
259	1.295707	0.005000	7.481573	-0.274680	-5.703067	0.014340	-0.164236	-0.643291	0.044899	-0.001410	0.013423
260	1.300707	0.005000	7.416360	-0.256285	-5.825915	0.012747	-0.165260	-0.642529	0.033968	0.001214	0.011484
261	1.305707	0.005000	7.448021	-0.274680	-5.753123	0.011154	-0.166284	-0.641766	0.032875	0.003655	0.003695
262	1.310707	0.005000	7.534080	-0.313920	-5.729040	0.009561	-0.167308	-0.641004	0.047101	-0.002482	0.006631
263	1.315707	0.005000	7.492495	-0.196200	-5.809865	0.007968	-0.168333	-0.640242	0.038755	0.004297	0.006702
264	1.320707	0.005000	7.494341	-0.273682	-5.885501	0.008163	-0.168346	-0.640174	0.023380	0.003175	0.021937
265	1.325707	0.005000	7.566634	-0.349817	-5.768280	0.009187	-0.167891	-0.640428	0.036504	0.003880	0.014487
266	1.330707	0.005000	7.467974	-0.274680	-5.768280	0.010211	-0.167436	-0.640682	0.042989	-0.002141	0.011854
267	1.335707	0.005000	7.446569	-0.344129	-5.738071	0.011235	-0.166981	-0.640936	0.048946	0.004021	0.012875
268	1.340707	0.005000	7.549570	-0.274680	-5.874125	0.012259	-0.166525	-0.641190	0.042721	0.000976	0.012523
269	1.345707	0.005000	7.598310	-0.210450	-5.839529	0.013283	-0.166070	-0.641444	0.047468	-0.004995	0.008175
270	1.350707	0.005000	7.551174	-0.235440	-5.780321	0.014307	-0.165615	-0.641698	0.037040	0.001256	0.002482
271	1.355707	0.005000	7.494205	-0.215502	-5.728405	0.015332	-0.165160	-0.641952	0.044232	0.002389	0.012188
272	1.360707	0.005000	7.589778	-0.202523	-5.840437	0.016356	-0.164705	-0.642206	0.029897	0.003442	0.013619
273	1.365707	0.005000	7.441986	-0.274680	-5.821134	0.017380	-0.164250	-0.642461	0.040239	0.001560	0.014052
274	1.370707	0.005000	7.562549	-0.285451	-5.857531	0.018404	-0.163795	-0.642715	0.055233	0.002029	0.002945
275	1.375707	0.005000	7.542007	-0.305993	-5.846760	0.019428	-0.163339	-0.642969	0.049845	0.005165	0.001785
276	1.380707	0.005000	7.573320	-0.190663	-5.745650	0.020452	-0.162884	-0.643223	0.046711	0.004687	0.007598
277	1.385707	0.005000	7.450215	-0.274680	-5.776358	0.021283	-0.162235	-0.643909	0.037301	0.000489	0.011001
278	1.390707	0.005000	7.377120	-0.235591	-5.846911	0.021966	-0.161439	-0.644926	0.051766	0.004275	0.010753
279	1.395707	0.005000	7.491845	-0.274680	-5.883005	0.022649	-0.160642	-0.645943	0.045052	0.000306	0.009620
280	1.400707	0.005000	7.489001	-0.174477	-5.852599	0.023332	-0.159845	-0.646960	0.042103	0.006321	0.002590
281	1.405707	0.005000	7.525397	-0.248631	-5.768280	0.024015	-0.159048	-0.647978	0.052428	0.001820	0.008989
282	1.410707	0.005000	7.527212	-0.274680	-5.791334	0.024698	-0.158251	-0.648995	0.047564	0.007994	0.002269
283	1.415707	0.005000	7.509196	-0.274680	-5.743396	0.025381	-0.157454	-0.650012	0.049598	0.005688	0.008573
284	1.420707	0.005000	7.411519	-0.269839	-5.846760	0.026064	-0.156657	-0.651029	0.044466	0.006435	0.004870
285	1.425707	0.005000	7.396316	-0.313073	-5.787476	0.026747	-0.155860	-0.652046	0.042124	0.011204	-0.001339
286	1.430707	0.005000	7.540232	-0.274680	-5.830216	0.027431	-0.155063	-0.653063	0.045074	0.002820	0.010909
287	1.435707	0.005000	7.520118	-0.274680	-5.782242	0.028114	-0.154266	-0.654080	0.040799	0.014881	0.004138
288	1.440707	0.005000	7.505959	-0.296917	-5.880116	0.028797	-0.153469	-0.655097	0.052755	0.010630	0.001286
289	1.445707	0.005000	7.565045	-0.353160	-5.869451	0.029480	-0.152672	-0.656114	0.041006	0.008359	0.004671
290	1.450707	0.005000	7.461031	-0.313920	-5.841329	0.030163	-0.151979	-0.656783	0.047807	0.009920	0.006768
291	1.455707	0.005000	7.539254	-0.389813	-5.765693	0.030845	-0.151410	-0.657037	0.047017	0.011541	0.007347
292	1.460707	0.005000	7.534594	-0.314177	-5.768023	0.031528	-0.150841	-0.657291	0.038578	0.010275	0.006647
293	1.465707	0.005000	7.531416	-0.387072	-5.737032	0.032211	-0.150272	-0.657545	0.046058	0.003206	0.004640
294	1.470707	0.005000	7.466552	-0.403352	-5.734516	0.032893	-0.149703	-0.657799	0.042554	0.010713	0.001495
295	1.475707	0.005000	7.525760	-0.274680	-5.737360	0.033576	-0.149134	-0.658054	0.051579	0.008853	0.001540
296	1.480707	0.005000	7.522916	-0.263516	-5.768280	0.034259	-0.148565	-0.658308	0.040204	0.003211	0.004413
297	1.485707	0.005000	7.534080	-0.263456	-5.821528	0.034942	-0.147997	-0.658562	0.051261	0.007314	-0.005353
298	1.490707	0.005000	7.517228	-0.235440	-5.846760	0.035624	-0.147428	-0.658816	0.052699	0.002733	0.012053
299	1.495707	0.005000	7.573471	-0.294224	-5.984024	0.036307	-0.146859	-0.659070	0.052676	0.003069	0.001776
300	1.500707	0.005000	7.562459	-0.297220	-5.869300	0.036990	-0.146290	-0.659324	0.058650	0.002676	0.006859
301	1.505707	0.005000	7.455600	-0.210510	-5.811211	0.037673	-0.145721	-0.659578	0.053640	0.002333	0.010916
302	1.510707	0.005000	7.483374	-0.274680	-5.874534	0.038355	-0.145152	-0.659832	0.048156	0.012565	0.006414
303	1.515707	0.005000	7.394365	-0.196200	-5.698423	0.038767	-0.145201	-0.659914	0.063824	0.011559	0.013011
304	1.520707	0.005000	7.551416	-0.235440	-5.774059	0.038653	-0.146453	-0.659660	0.062468	0.014686	0.005047
305	1.525707	0.005000	7.642996	-0.274680	-5.840891	0.038540	-0.147705	-0.659405	0.068037	0.002715	0.012643
306	1.530707	0.005000	7.574439	-0.274120	-5.729600	0.038426	-0.148956	-0.659151	0.042443	0.013140	0.012433
307	1.535707	0.005000	7.651800	-0.235440	-5.694368	0.038312	-0.150208	-0.658897	0.053949	0.006340	-0.000281
308	1.540707	0.005000	7.544336	-0.196200	-5.729040	0.038198	-0.151460	-0.658643	0.043742	0.010686	0.001553
309	1.545707	0.005000	7.526108	-0.274680	-5.791576	0.038084	-0.152712	-0.658389	0.049323	0.007765	-0.000408
310	1.550707	0.005000	7.612560	-0.292288	-5.886000	0.037971	-0.153963	-0.658135	0.053507	0.021120	0.005578
311	1.555707	0.005000	7.482920	-0.288340	-5.834840	0.037857	-0.155215	-0.657881	0.046044	0.019280	0.009266
312	1.560707	0.005000	7.557270	-0.205110	-5.837850	0.037743	-0.156467	-0.657627	0.043416	0.009271	0.006081
313	1.565707	0.005000	7.573320	-0.235440	-5.806068	0.037629	-0.157718	-0.657373	0.052403	0.010813	0.006071
314	1.570707	0.005000	7.590822	-0.353160	-5.707302	0.037515	-0.158970	-0.657118	0.039981	0.021442	-0.009446
315	1.575707	0.005000	7.558662	-0.225517	-5.832102	0.037401	-0.160222	-0.656864	0.037309	0.010725	0.005272
316	1.580707	0.005000	7.557709	-0.313920	-5.740854	0.037262	-0.161321	-0.656525	0.054366	0.019853	0.001418
317	1.585707	0.005000	7.582759	-0.304481	-5.768280	0.037035	-0.161890	-0.655890	0.050700	0.006647	0.001910
318	1.590707	0.005000	7.573320	-0.274680	-5.814115	0.036807	-0.162459	-0.655254	0.036526	0.016357	0.001016
319	1.595707	0.005000	7.565817	-0.341905	-5.846760	0.036579	-0.163028	-0.654619	0.056181	0.004049	0.009085
320	1.600707	0.005000	7.494840	-0.273772	-5.807520	0.036352	-0.163597	-0.653984	0.056738	0.003039	0.011572
321	1.605707	0.005000	7.569447	-0.198136	-5.732913	0.036124	-0.164166	-0.653348	0.052440	0.005151	0.001073
322	1.610707	0.005000	7.451289	-0.082791	-5.772591	0.035897	-0.164735	-0.652713	0.049228	-0.001574	0.001062
323	1.615707	0.005000	7.391430	-0.228285	-5.828986	0.035669	-0.165304	-0.652077	0.051664	0.014997	-0.001302
324	1.620707	0.005000	7.592562	-0.274680	-5.769036	0.035442	-0.165873	-0.651442	0.056753	0.013427	0.001514
325	1.625707	0.005000	7.612560	-0.235440	-5.833917	0.035214	-0.166442	-0.650807	0.050899	0.014100	0.000024
326	1.630707	0.005000	7.510251	-0.298509	-5.807520	0.034986	-0.167011	-0.650171	0.056041	0.012846	0.000112
327	1.635707	0.005000	7.479849	-0.313920	-5.846760	0.034759	-0.167580	-0.649536	0.053226	0.007558	-0.001174
328	1.640707	0.005000	7.476521	-0.295601	-5.729040	0.034531	-0.168149	-0.648900	0.052065	0.019524	-0.009304
329	1.645707	0.005000	7.431835	-0.235440	-5.768280	0.034340	-0.168547	-0.648401	0.033557	0.012559	0.001203
330	1.650707	0.005000	7.468231	-0.248071	-5.688454	0.034454	-0.167523	-0.649036	0.036769	0.024588	0.000527
331	1.655707	0.005000	7.543867	-0.235440	-5.680013	0.034568	-0.166499	-0.649672	0.062063	0.021410	0.007756
332	1.660707	0.005000	7.602969	-0.196200	-5.736452	0.034682	-0.165475	-0.650307	0.047199	0.026724	0.008008
333	1.665707	0.005000	7.621697	-0.240008	-5.793815	0.034795	-0.164451	-0.650943	0.040494	0.015597	0.004802
334	1.670707	0.005000	7.575045	-0.272955	-5.611320	0.034909	-0.163427	-0.651578	0.052149	0.015266	-0.000611
335	1.675707	0.005000	7.536319	-0.235440	-5.649441	0.035023	-0.162403	-0.652213	0.047429	0.014332	0.000724
336	1.680707	0.005000	7.534080	-0.235440	-5.756390	0.035137	-0.161378	-0.652849	0.053365	0.006329	0.006933
337	1.685707	0.005000	7.508454	-0.235440	-5.768280	0.035251	-0.160354	-0.653484	0.045663	0.009752	-0.000154
338	1.690707	0.005000	7.553382	-0.343509	-5.768280	0.035365	-0.159330	-0.654119	0.049064	0.006775	-0.002082
339	1.695707	0.005000	7.548956	-0.286862	-5.795338	0.035478	-0.158306	-0.654755	0.046549	0.008921	-0.000657
340	1.700707	0.005000	7.651800	-0.235440	-5.886000	0.035592	-0.157282	-0.655390	0.052430	0.001480	0.000955
341	1.705707	0.005000	7.587267	-0.274680	-5.882218	0.035706	-0.156258	-0.656026	0.036885	0.003926	-0.003484
342	1.710707	0.005000	7.537892	-0.256013	-5.788853	0.035820	-0.155234	-0.656661	0.035468	0.005661	0.003464
343	1.715707	0.005000	7.416995	-0.203794	-5.720811	0.035821	-0.154999	-0.656667	0.027262	0.001940	0.002483
344	1.720707	0.005000	7.547048	-0.209336	-5.689800	0.035821	-0.154771	-0.656667	0.050425	0.009438	0.002345
345	1.725707	0.005000	7.552112	-0.274680	-5.782061	0.035821	-0.154543	-0.656667	0.044407	0.014679	-0.004676
346	1.730707	0.005000	7.447840	-0.203960	-5.807520	0.035821	-0.154316	-0.656667	0.040280	0.002025	-0.003075
347	1.735707	0.005000	7.504673	-0.250189	-5.841844	0.035821	-0.154088	-0.656667	0.041636	0.007490	-0.006303
348	1.740707	0.005000	7.571248	-0.315992	-5.842615	0.035821	-0.153861	-0.656667	0.057737	0.001230	0.000844
349	1.745707	0.005000	7.611917	-0.353160	-5.807199	0.035821	-0.153633	-0.656667	0.040528	0.007259	0.002506
350	1.750707	0.005000	7.615722	-0.241763	-5.807520	0.035821	-0.153406	-0.656667	0.057205	0.007722	0.007375
351	1.755707	0.005000	7.573320	-0.223429	-5.940458	0.035821	-0.153178	-0.656667	0.055577	0.005707	0.009306
352	1.760707	0.005000	7.573320	-0.326612	-5.903699	0.035821	-0.152950	-0.656667	0.042836	0.002100	0.000573
353	1.765707	0.005000	7.608355	-0.231235	-5.874322	0.035821	-0.152723	-0.656667	0.050917	0.002578	-0.001475
354	1.770707	0.005000	7.573320	-0.235440	-5.936343	0.035821	-0.152495	-0.656667	0.044695	-0.002240	0.009901
355	1.775707	0.005000	7.500256	-0.347744	-5.852176	0.035821	-0.152268	-0.656667	0.051920	-0.004305	-0.003026
356	1.780707	0.005000	7.494840	-0.294436	-5.886272	0.035622	-0.152935	-0.656334	0.046150	-0.007436	0.000819
357	1.785707	0.005000	7.573320	-0.252080	-5.774240	0.035395	-0.153731	-0.655953	0.056956	-0.000716	-0.000710
358	1.790707	0.005000	7.469563	-0.184886	-5.770929	0.035167	-0.154527	-0.655572	0.043222	-0.001288	0.008864
359	1.795707	0.005000	7.556922	-0.235440	-5.863158	0.034940	-0.155323	-0.655191	0.043611	-0.000634	-0.000940
360	1.800707	0.005000	7.612560	-0.235440	-5.894577	0.034712	-0.156120	-0.654810	0.051794	0.000389	0.005879
361	1.805707	0.005000	7.528347	-0.268947	-5.734773	0.034485	-0.156916	-0.654429	0.052607	0.007935	0.003304
362	1.810707	0.005000	7.461379	-0.232551	-5.692689	0.034257	-0.157712	-0.654048	0.046366	0.011119	0.006157
363	1.815707	0.005000	7.494931	-0.196245	-5.729222	0.034030	-0.158508	-0.653667	0.046701	0.010372	0.001747
364	1.820707	0.005000	7.536879	-0.271881	-5.922441	0.033802	-0.159304	-0.653286	0.040954	0.010473	0.001355
365	1.825707	0.005000	7.562164	-0.201778	-5.824254	0.033575	-0.160101	-0.652905	0.034788	0.011648	-0.002394
366	1.830707	0.005000	7.573320	-0.164993	-5.784345	0.033347	-0.160897	-0.652524	0.043755	0.022043	0.004091
367	1.835707	0.005000	7.584196	-0.139473	-5.757404	0.033120	-0.161693	-0.652143	0.051674	0.017642	0.006414
368	1.840707	0.005000	7.612560	-0.209920	-5.717241	0.032893	-0.162489	-0.651762	0.046418	0.010274	0.002963
369	1.845707	0.005000	7.527969	-0.179636	-5.712476	0.033178	-0.161917	-0.651858	0.062062	0.008562	-0.009911
370	1.850707	0.005000	7.494840	-0.215185	-5.748448	0.033633	-0.160893	-0.652112	0.065876	0.012016	0.000039
371	1.855707	0.005000	7.499693	-0.274680	-5.812373	0.034088	-0.159869	-0.652366	0.052815	0.012361	-0.002587
372	1.860707	0.005000	7.455600	-0.274680	-5.807520	0.034544	-0.158845	-0.652620	0.046258	0.012661	-0.001046
373	1.865707	0.005000	7.483071	-0.262911	-5.780049	0.034999	-0.157821	-0.652874	0.049316	0.016397	0.004228
374	1.870707	0.005000	7.455600	-0.265755	-5.759355	0.035454	-0.156797	-0.653129	0.045095	0.007426	-0.002407
375	1.875707	0.005000	7.422441	-0.156960	-5.741202	0.035909	-0.155773	-0.653383	0.037421	0.002021	0.003474
376	1.880707	0.005000	7.462150	-0.199475	-5.886000	0.036364	-0.154748	-0.653637	0.045910	0.013353	0.008575
377	1.885707	0.005000	7.570779	-0.274680	-5.922699	0.036819	-0.153724	-0.653891	0.055492	0.013746	0.013138
378	1.890707	0.005000	7.567330	-0.274680	-5.733034	0.037274	-0.152700	-0.654145	0.055958	0.012705	0.004590
379	1.895707	0.005000	7.474963	-0.304239	-5.733881	0.037730	-0.151676	-0.654399	0.058005	0.009246	0.008983
380	1.900707	0.005000	7.550266	-0.274680	-5.823706	0.038185	-0.150652	-0.654653	0.043796	0.021159	0.005195
381	1.905707	0.005000	7.583849	-0.138777	-5.864943	0.038640	-0.149628	-0.654907	0.057192	0.016327	-0.000844
382	1.910707	0.005000	7.468972	-0.222068	-5.860132	0.038372	-0.149326	-0.655161	0.054334	0.021663	-0.003332
383	1.915707	0.005000	7.455600	-0.211947	-5.784027	0.037690	-0.149440	-0.655415	0.047684	0.022921	0.003785
384	1.920707	0.005000	7.414303	-0.138369	-5.807520	0.037007	-0.149554	-0.655670	0.063814	0.020519	0.008400
385	1.925707	0.005000	7.455600	-0.221266	-5.850391	0.036324	-0.149667	-0.655924	0.047554	0.016987	0.004355
386	1.930707	0.005000	7.549041	-0.211161	-5.753319	0.035642	-0.149781	-0.656178	0.044123	0.011936	0.001406
387	1.935707	0.005000	7.612560	-0.277130	-5.780543	0.034959	-0.149895	-0.656432	0.046062	0.005212	0.001345
388	1.940707	0.005000	7.602818	-0.196200	-5.827276	0.034276	-0.150009	-0.656686	0.050920	0.011803	0.000971
389	1.945707	0.005000	7.540978	-0.203098	-5.814418	0.033593	-0.150122	-0.656940	0.067224	0.007108	-0.003749
390	1.950707	0.005000	7.490786	-0.204308	-5.768280	0.032911	-0.150236	-0.657194	0.049484	0.014956	0.003368
391	1.955707	0.005000	7.573320	-0.234230	-5.727830	0.032228	-0.150350	-0.657448	0.051115	0.008748	0.005150
392	1.960707	0.005000	7.573320	-0.196200	-5.765013	0.031545	-0.150464	-0.657702	0.043827	0.006167	0.010216
393	1.965707	0.005000	7.507053	-0.188058	-5.768280	0.030862	-0.150577	-0.657957	0.046271	0.014434	-0.001905
394	1.970707	0.005000	7.612560	-0.131456	-5.793784	0.030180	-0.150691	-0.658211	0.040915	0.004382	0.000517
395	1.975707	0.005000	7.602848	-0.205912	-5.837048	0.029969	-0.150864	-0.658333	0.029192	0.010967	-0.003483
396	1.980707	0.005000	7.519951	-0.301364	-5.834204	0.030197	-0.151092	-0.658333	0.043706	0.006253	0.003028
397	1.985707	0.005000	7.597160	-0.259280	-5.824402	0.030424	-0.151319	-0.658333	0.055255	0.014438	0.012869
398	1.990707	0.005000	7.534080	-0.196200	-5.783008	0.030652	-0.151547	-0.658333	0.056820	0.002242	0.006287
399	1.995707	0.005000	7.573320	-0.196200	-5.751655	0.030880	-0.151775	-0.658333	0.026352	0.009353	0.008810
400	2.000707	0.005000	7.518302	-0.235440	-5.807520	0.031107	-0.152002	-0.658333	0.033735	0.006656	0.003934
401	2.005707	0.005000	7.481468	-0.235440	-5.807520	0.031335	-0.152230	-0.658333	0.040779	0.010573	0.002619
402	2.010707	0.005000	7.406152	-0.255856	-5.836552	0.031563	-0.152458	-0.658333	0.043662	0.015669	0.006777
403	2.015707	0.005000	7.369420	-0.306220	-5.799820	0.031791	-0.152686	-0.658333	0.060019	0.000139	0.003717
404	2.020707	0.005000	7.352448	-0.304208	-5.729040	0.032018	-0.152913	-0.658333	0.057293	0.012907	0.006534
405	2.025707	0.005000	7.453588	-0.231416	-5.687788	0.032246	-0.153141	-0.658333	0.053388	0.010443	0.004916
406	2.030707	0.005000	7.531584	-0.195368	-5.688968	0.032474	-0.153369	-0.658333	0.049524	0.019809	0.011322
407	2.035707	0.005000	7.601532	-0.192524	-5.729040	0.032701	-0.153596	-0.658333	0.044351	0.016259	0.002989
408	2.040707	0.005000	7.534080	-0.190149	-5.807520	0.032929	-0.153731	-0.658074	0.053983	0.011765	0.005641
409	2.045707	0.005000	7.494840	-0.196200	-5.755724	0.033156	-0.153731	-0.657438	0.056994	0.013393	0.007539
410	2.050707	0.005000	7.506579	-0.235440	-5.701539	0.033384	-0.153731	-0.656803	0.053053	0.012400	0.004219
411	2.055707	0.005000	7.534080	-0.181617	-5.718965	0.033612	-0.153731	-0.656168	0.054047	0.016760	-0.000909
412	2.060707	0.005000	7.446826	-0.257253	-5.807520	0.033839	-0.153731	-0.655532	0.047609	0.012943	0.002253
413	2.065707	0.005000	7.434997	-0.274680	-5.847153	0.034067	-0.153731	-0.654897	0.042661	0.005734	0.012928
414	2.070707	0.005000	7.556741	-0.297341	-5.807520	0.034294	-0.153731	-0.654262	0.044431	0.000168	0.004330
415	2.075707	0.005000	7.585089	-0.274680	-5.819289	0.034522	-0.153731	-0.653626	0.064254	0.000382	0.000346
416	2.080707	0.005000	7.562428	-0.196200	-5.739932	0.034750	-0.153731	-0.652991	0.035663	0.009969	0.016259
417	2.085707	0.005000	7.542128	-0.165008	-5.783377	0.034977	-0.153731	-0.652356	0.039835	0.010720	0.005408
418	2.090707	0.005000	7.528407	-0.280353	-5.616993	0.035205	-0.153731	-0.651721	0.049272	0.008618	0.012346
419	2.095707	0.005000	7.452771	-0.269022	-5.771109	0.035432	-0.153731	-0.651085	0.046356	0.014193	0.004111
420	2.100707	0.005000	7.573259	-0.156975	-5.846745	0.035660	-0.153731	-0.650450	0.044590	0.007258	0.014739
421	2.105707	0.005000	7.464177	-0.159819	-5.771139	0.035688	-0.153831	-0.650148	0.045908	0.005517	0.008809
422	2.110707	0.005000	7.567617	-0.156960	-5.729040	0.035233	-0.154172	-0.650657	0.060890	0.006967	0.006491
423	2.115707	0.005000	7.581867	-0.187653	-5.706894	0.034778	-0.154513	-0.651165	0.059346	0.004780	0.010968
424	2.120707	0.005000	7.640409	-0.224049	-5.768280	0.034323	-0.154855	-0.651673	0.045594	0.006409	0.003024
425	2.125707	0.005000	7.612560	-0.184825	-5.742972	0.033868	-0.155196	-0.652182	0.050139	0.009723	0.018496
426	2.130707	0.005000	7.455600	-0.173570	-5.762259	0.033412	-0.155538	-0.652690	0.039379	0.015292	0.003763
427	2.135707	0.005000	7.494840	-0.196200	-5.788399	0.032957	-0.155879	-0.653198	0.051506	0.012902	0.005803
428	2.140707	0.005000	7.607205	-0.196200	-5.807520	0.032502	-0.156220	-0.653706	0.036910	0.011164	-0.000168
429	2.145707	0.005000	7.730280	-0.064381	-5.765224	0.032047	-0.156562	-0.654215	0.040784	0.006598	-0.007158
430	2.150707	0.005000	7.713549	-0.145705	-5.706531	0.031592	-0.156903	-0.654723	0.042210	0.013149	0.006669
431	2.155707	0.005000	7.691040	-0.187789	-5.745861	0.031137	-0.157245	-0.655231	0.027916	0.019872	0.013590
432	2.160707	0.005000	7.584454	-0.201767	-5.852327	0.030681	-0.157586	-0.655740	0.051798	0.012013	0.007128
433	2.165707	0.005000	7.649045	-0.269170	-5.844005	0.030226	-0.157927	-0.656248	0.049707	0.012619	0.002542
434	2.170707	0.005000	7.651467	-0.235773	-5.886000	0.029891	-0.158129	-0.656689	0.064091	0.009231	0.012850
435	2.175707	0.005000	7.649289	-0.237951	-5.812542	0.030118	-0.157674	-0.656816	0.047644	0.013612	0.007968
436	2.180707	0.005000	7.578675	-0.235440	-5.802165	0.030346	-0.157219	-0.656943	0.042428	0.007025	0.014374
437	2.185707	0.005000	7.517682	-0.274680	-5.776479	0.030574	-0.156764	-0.657070	0.048845	0.008305	0.010356
438	2.190707	0.005000	7.562277	-0.213354	-5.768280	0.030801	-0.156309	-0.657197	0.045205	0.012051	0.002610
439	2.195707	0.005000	7.534080	-0.260793	-5.768280	0.031029	-0.155853	-0.657324	0.035703	0.002912	0.011530
440	2.200707	0.005000	7.674582	-0.251898	-5.768280	0.031256	-0.155398	-0.657451	0.030500	-0.000569	0.016638
441	2.205707	0.005000	7.613589	-0.254546	-5.845731	0.031484	-0.154943	-0.657578	0.060762	0.004107	0.010428
442	2.210707	0.005000	7.590610	-0.161619	-5.768280	0.031712	-0.154488	-0.657705	0.060828	0.010400	0.016290
443	2.215707	0.005000	7.558874	-0.210646	-5.689800	0.031939	-0.154033	-0.657832	0.053965	0.018069	0.002812
444	2.220707	0.005000	7.455600	-0.286418	-5.689800	0.032167	-0.153578	-0.657959	0.048440	0.009665	0.009707
445	2.225707	0.005000	7.494840	-0.304708	-5.699012	0.032394	-0.153123	-0.658086	0.029772	0.016082	0.005471
446	2.230707	0.005000	7.534080	-0.288446	-5.768280	0.032622	-0.152667	-0.658213	0.052782	0.007694	0.011414
447	2.235707	0.005000	7.527031	-0.167534	-5.725515	0.032823	-0.152239	-0.658355	0.061170	0.013685	0.013804
448	2.240707	0.005000	7.456281	-0.273999	-5.730401	0.032595	-0.152239	-0.658736	0.051117	0.021617	0.002928
449	2.245707	0.005000	7.494840	-0.235440	-5.732469	0.032368	-0.152239	-0.659117	0.048200	0.011670	0.008935
450	2.250707	0.005000	7.608022	-0.270142	-5.812058	0.032140	-0.152239	-0.659498	0.041862	0.014410	0.022639
451	2.255707	0.005000	7.541462	-0.235440	-5.846760	0.031913	-0.152239	-0.659880	0.058542	0.009038	0.006077
452	2.260707	0.005000	7.544306	-0.245666	-5.856986	0.031685	-0.152239	-0.660261	0.060906	0.010511	0.011761
453	2.265707	0.005000	7.507910	-0.209270	-5.794450	0.031458	-0.152239	-0.660642	0.065291	0.006224	0.001953
454	2.270707	0.005000	7.518620	-0.196200	-5.744500	0.031230	-0.152239	-0.661023	0.054631	0.009041	0.005841
455	2.275707	0.005000	7.612560	-0.198832	-5.708104	0.031003	-0.152239	-0.661404	0.045030	0.010810	0.008486
456	2.280707	0.005000	7.573320	-0.238465	-5.765255	0.030775	-0.152239	-0.661785	0.054552	0.013245	0.010796
457	2.285707	0.005000	7.651800	-0.196200	-5.862023	0.030548	-0.152239	-0.662166	0.048090	0.008858	0.006263
458	2.290707	0.005000	7.639381	-0.196200	-5.875562	0.030320	-0.152239	-0.662547	0.055536	0.002129	0.002512
459	2.295707	0.005000	7.534080	-0.205888	-5.729040	0.030093	-0.152239	-0.662928	0.050983	0.013526	0.002012
460	2.300707	0.005000	7.502025	-0.313920	-5.886000	0.029865	-0.152239	-0.663309	0.053208	0.004417	0.011743
461	2.305707	0.005000	7.568978	-0.270338	-5.807520	0.030064	-0.152665	-0.663214	0.046073	0.007825	0.001549
462	2.310707	0.005000	7.531085	-0.197698	-5.845262	0.030292	-0.153120	-0.663087	0.048269	0.006057	0.012127
463	2.315707	0.005000	7.455600	-0.235440	-5.769626	0.030519	-0.153575	-0.662960	0.051838	-0.000655	0.011638
464	2.320707	0.005000	7.416360	-0.248011	-5.663131	0.030747	-0.154031	-0.662833	0.044503	0.003140	0.013209
465	2.325707	0.005000	7.501874	-0.196200	-5.743108	0.030974	-0.154486	-0.662706	0.059005	0.012592	0.008908
466	2.330707	0.005000	7.563911	-0.175778	-5.788702	0.031202	-0.154941	-0.662579	0.040536	0.004113	0.011047
467	2.335707	0.005000	7.678787	-0.196200	-5.898253	0.031430	-0.155396	-0.662452	0.043417	0.003322	0.010034
468	2.340707	0.005000	7.633708	-0.220343	-5.798474	0.031657	-0.155851	-0.662325	0.041079	0.002502	0.015656
469	2.345707	0.005000	7.609202	-0.274680	-5.810878	0.031885	-0.156306	-0.662198	0.037985	0.006692	0.012450
470	2.350707	0.005000	7.536410	-0.214655	-5.752154	0.032112	-0.156762	-0.662071	0.046273	-0.000762	0.002446
471	2.355707	0.005000	7.698634	-0.235440	-5.737057	0.032340	-0.157217	-0.661944	0.046305	0.002089	0.002255
472	2.360707	0.005000	7.638883	-0.248357	-5.794114	0.032567	-0.157672	-0.661817	0.044626	0.005470	0.004571
473	2.365707	0.005000	7.554835	-0.256195	-5.836383	0.032795	-0.158127	-0.661690	0.053907	0.003513	0.000025
474	2.370707	0.005000	7.580853	-0.267147	-5.807520	0.032929	-0.157649	-0.661459	0.054573	0.010586	0.002900
475	2.375707	0.005000	7.598492	-0.240129	-5.846760	0.033043	-0.156967	-0.661204	0.055668	0.009784	0.006504
476	2.380707	0.005000	7.496708	-0.199936	-5.730908	0.033157	-0.156284	-0.660950	0.040004	0.007887	0.009936
477	2.385707	0.005000	7.534080	-0.235969	-5.806991	0.033271	-0.155601	-0.660696	0.067325	0.003927	0.006763
478	2.390707	0.005000	7.648427	-0.274680	-5.804147	0.033384	-0.154918	-0.660442	0.047546	0.012051	0.015124
479	2.395707	0.005000	7.573320	-0.202417	-5.780715	0.033498	-0.154236	-0.660188	0.042150	0.003103	0.011721
480	2.400707	0.005000	7.503901	-0.295798	-5.759219	0.033612	-0.153553	-0.659934	0.042514	0.003918	0.005652
481	2.405707	0.005000	7.534080	-0.341255	-5.729040	0.033726	-0.152870	-0.659679	0.048976	0.001720	0.006076
482	2.410707	0.005000	7.548542	-0.313920	-5.714578	0.033839	-0.152187	-0.659425	0.056918	0.000525	0.001468
483	2.415707	0.005000	7.634661	-0.313920	-5.711901	0.033953	-0.151505	-0.659171	0.061277	0.008005	0.001990
484	2.420707	0.005000	7.632543	-0.274680	-5.866743	0.034067	-0.150822	-0.658917	0.044947	0.012156	0.010989
485	2.425707	0.005000	7.563321	-0.235440	-5.801106	0.034181	-0.150139	-0.658663	0.047635	0.005761	0.018196
486	2.430707	0.005000	7.535547	-0.261111	-5.756178	0.034294	-0.149456	-0.658408	0.050429	0.010830	0.005506
487	2.435707	0.005000	7.601705	-0.285535	-5.881820	0.034408	-0.149254	-0.658244	0.078457	0.004626	0.004320
488	2.440707	0.005000	7.587509	-0.305570	-5.821709	0.034522	-0.149254	-0.658117	0.070540	0.005546	0.006542
489	2.445707	0.005000	7.421866	-0.302907	-5.768280	0.034636	-0.149254	-0.657990	0.061393	0.003220	0.009775
490	2.450707	0.005000	7.489515	-0.235440	-5.812845	0.034750	-0.149254	-0.657863	0.051103	0.008194	0.004167
491	2.455707	0.005000	7.533535	-0.274498	-5.846942	0.034863	-0.149254	-0.657736	0.049658	0.008211	0.001705
492	2.460707	0.005000	7.534080	-0.272093	-5.880825	0.034977	-0.149254	-0.657609	0.059076	0.006371	0.009033
493	2.465707	0.005000	7.466401	-0.308520	-5.739841	0.035091	-0.149254	-0.657482	0.049357	0.005133	0.007944
494	2.470707	0.005000	7.494840	-0.235440	-5.720796	0.035205	-0.149254	-0.657355	0.062522	0.001187	0.010571
495	2.475707	0.005000	7.651800	-0.274680	-5.757192	0.035319	-0.149254	-0.657228	0.045177	0.004470	0.016815
496	2.480707	0.005000	7.559388	-0.249372	-5.807520	0.035433	-0.149254	-0.657101	0.057748	0.005088	0.001453
497	2.485707	0.005000	7.534080	-0.212522	-5.761685	0.035546	-0.149254	-0.656973	0.069416	0.008483	0.011675
498	2.490707	0.005000	7.573320	-0.176126	-5.689800	0.035660	-0.149254	-0.656846	0.058374	0.012734	0.005073
499	2.495707	0.005000	7.590550	-0.269900	-5.802740	0.035774	-0.149254	-0.656719	0.058654	0.011373	0.006930
500	2.500707	0.005000	7.626946	-0.338774	-5.821906	0.035754	-0.149254	-0.656443	0.043596	0.016037	0.010595
501	2.505707	0.005000	7.557164	-0.235440	-5.819062	0.035640	-0.149254	-0.656062	0.048811	0.009333	0.006290
502	2.510707	0.005000	7.555924	-0.187502	-5.829364	0.035527	-0.149254	-0.655681	0.051796	0.013654	0.000849
503	2.515707	0.005000	7.545930	-0.235440	-5.768280	0.035413	-0.149254	-0.655300	0.047238	0.009691	0.005136
504	2.520707	0.005000	7.498319	-0.199679	-5.771759	0.035299	-0.149254	-0.654918	0.059728	0.008167	0.017886
505	2.525707	0.005000	7.534715	-0.274045	-5.729675	0.035185	-0.149254	-0.654537	0.053978	0.018305	-0.000552
506	2.530707	0.005000	7.684414	-0.235440	-5.842343	0.035071	-0.149254	-0.654156	0.053969	0.005392	0.007968
507	2.535707	0.005000	7.685988	-0.279732	-5.880948	0.034957	-0.149254	-0.653775	0.058641	0.014355	0.018933
508	2.540707	0.005000	7.580763	-0.203643	-5.712128	0.034844	-0.149254	-0.653394	0.053053	0.011612	0.007164
509	2.545707	0.005000	7.651800	-0.167247	-5.747707	0.034730	-0.149254	-0.653012	0.053839	0.006201	0.008858
510	2.550707	0.005000	7.599430	-0.196200	-5.689951	0.034616	-0.149254	-0.652631	0.058498	0.014203	0.007251
511	2.555707	0.005000	7.605269	-0.172934	-5.721749	0.034502	-0.149254	-0.652250	0.059347	0.010271	0.008145
512	2.560707	0.005000	7.574923	-0.356367	-5.849967	0.034388	-0.149254	-0.651869	0.042117	0.007668	0.008922
513	2.565707	0.005000	7.552127	-0.317066	-5.846760	0.033685	-0.150164	-0.651009	0.042982	0.014200	0.008693
514	2.570707	0.005000	7.542914	-0.250643	-5.777114	0.032320	-0.152099	-0.649611	0.057019	0.003704	0.012160
515	2.575707	0.005000	7.600201	-0.262321	-5.753758	0.030955	-0.154033	-0.648214	0.065550	0.011496	0.009299
516	2.580707	0.005000	7.574500	-0.304405	-5.905030	0.029589	-0.155968	-0.646816	0.062524	0.002947	0.017839
517	2.585707	0.005000	7.455600	-0.274680	-5.990222	0.028224	-0.157902	-0.645418	0.047580	0.016233	0.012907
518	2.590707	0.005000	7.420641	-0.278961	-5.877438	0.026858	-0.159836	-0.644020	0.069205	0.020798	0.001767
519	2.595707	0.005000	7.454163	-0.311046	-5.808957	0.025493	-0.161771	-0.642623	0.057784	0.011118	0.003682
520	2.600707	0.005000	7.454193	-0.197607	-5.771094	0.024127	-0.163705	-0.641225	0.062857	0.016911	-0.001059
521	2.605707	0.005000	7.573320	-0.239691	-5.741792	0.022762	-0.165640	-0.639827	0.055852	0.014046	0.005289
522	2.610707	0.005000	7.698135	-0.267585	-5.878905	0.021396	-0.167574	-0.638429	0.047611	0.018124	0.003530
523	2.615707	0.005000	7.651800	-0.205670	-5.835929	0.020031	-0.169509	-0.637032	0.064294	0.009102	0.006670
524	2.620707	0.005000	7.585634	-0.262366	-5.768280	0.018666	-0.171443	-0.635634	0.060200	0.017924	0.007636
525	2.625707	0.005000	7.573320	-0.226515	-5.792363	0.017300	-0.173377	-0.634236	0.063548	0.012702	0.004786
526	2.630707	0.005000	7.534080	-0.313920	-5.786281	0.016458	-0.174587	-0.633648	0.045659	0.008815	0.015650
527	2.635707	0.005000	7.552475	-0.334765	-5.786675	0.016572	-0.174473	-0.634537	0.057015	0.016425	0.006198
528	2.640707	0.005000	7.604583	-0.298181	-5.791781	0.016686	-0.174359	-0.635427	0.054131	0.010121	0.007480
529	2.645707	0.005000	7.573320	-0.248616	-5.781168	0.016800	-0.174245	-0.636316	0.055318	0.014002	0.010579
530	2.650707	0.005000	7.583652	-0.342828	-5.768280	0.016913	-0.174131	-0.637206	0.065719	0.006558	0.010598
531	2.655707	0.005000	7.605072	-0.211176	-5.626296	0.017027	-0.174018	-0.638095	0.064508	0.028008	0.010159
532	2.660707	0.005000	7.529436	-0.240084	-5.719752	0.017141	-0.173904	-0.638985	0.053046	0.027540	0.010315
533	2.665707	0.005000	7.529572	-0.233186	-5.766026	0.017255	-0.173790	-0.639874	0.060202	0.013539	0.010029
534	2.670707	0.005000	7.571550	-0.157550	-5.806340	0.017368	-0.173676	-0.640764	0.054220	0.019176	0.009229
535	2.675707	0.005000	7.537514	-0.156960	-5.771714	0.017482	-0.173562	-0.641653	0.071048	0.015616	0.011596
536	2.680707	0.005000	7.540358	-0.229162	-5.821649	0.017596	-0.173448	-0.642543	0.050075	0.022055	0.016702
537	2.685707	0.005000	7.573320	-0.244562	-5.867757	0.017710	-0.173335	-0.643432	0.055430	0.018925	0.010751
538	2.690707	0.005000	7.546046	-0.247406	-5.834794	0.017823	-0.173221	-0.644322	0.049501	0.019403	0.009811
539	2.695707	0.005000	7.480499	-0.274680	-5.743381	0.018126	-0.172837	-0.645181	0.051182	0.017401	0.015758
540	2.700707	0.005000	7.512025	-0.213385	-5.785465	0.019037	-0.171585	-0.645944	0.031799	0.016383	0.011883
541	2.705707	0.005000	7.475628	-0.196200	-5.709012	0.019947	-0.170333	-0.646706	0.043387	0.027126	0.012625
542	2.710707	0.005000	7.439232	-0.219072	-5.712672	0.020857	-0.169081	-0.647468	0.057356	0.022909	0.005842
543	2.715707	0.005000	7.534080	-0.261156	-5.689800	0.021768	-0.167830	-0.648231	0.054470	0.021137	0.010483
544	2.720707	0.005000	7.551960	-0.264000	-5.711160	0.022678	-0.166578	-0.648993	0.056749	0.019222	-0.000795
545	2.725707	0.005000	7.587691	-0.252019	-5.650560	0.023589	-0.165326	-0.649756	0.060880	0.017641	0.008635
546	2.730707	0.005000	7.567874	-0.308474	-5.734486	0.024499	-0.164075	-0.650518	0.051089	0.022578	0.001868
547	2.735707	0.005000	7.494840	-0.232838	-5.880796	0.025409	-0.162823	-0.651280	0.058703	0.029142	0.008261
548	2.740707	0.005000	7.572836	-0.196200	-5.768522	0.026320	-0.161571	-0.652043	0.048261	0.032069	0.009928
549	2.745707	0.005000	7.576406	-0.226182	-5.771366	0.027230	-0.160319	-0.652805	0.051083	0.034039	0.006226
550	2.750707	0.005000	7.540010	-0.202130	-5.813450	0.028141	-0.159068	-0.653568	0.056000	0.030002	0.005356
551	2.755707	0.005000	7.573320	-0.213748	-5.837986	0.029051	-0.157816	-0.654330	0.058384	0.032615	0.008716
552	2.760707	0.005000	7.589325	-0.172965	-5.807520	0.029837	-0.156716	-0.655015	0.070522	0.030801	0.008101
553	2.765707	0.005000	7.522825	-0.221447	-5.757025	0.029723	-0.156716	-0.655142	0.055602	0.039727	-0.000216
554	2.770707	0.005000	7.651800	-0.257843	-5.751443	0.029610	-0.156716	-0.655269	0.068393	0.033640	0.003840
555	2.775707	0.005000	7.573320	-0.196200	-5.827201	0.029496	-0.156716	-0.655396	0.056238	0.039310	0.000779
556	2.780707	0.005000	7.539889	-0.252156	-5.790804	0.029382	-0.156716	-0.655524	0.055144	0.035874	0.001750
557	2.785707	0.005000	7.418735	-0.235440	-5.729040	0.029268	-0.156716	-0.655651	0.055438	0.035052	0.005018
558	2.790707	0.005000	7.477655	-0.224412	-5.762123	0.029155	-0.156716	-0.655778	0.056397	0.029843	0.010780
559	2.795707	0.005000	7.534080	-0.196200	-5.964480	0.029041	-0.156716	-0.655905	0.053145	0.029758	0.007159
560	2.800707	0.005000	7.522462	-0.123529	-5.807520	0.028927	-0.156716	-0.656032	0.061826	0.044031	0.009822
561	2.805707	0.005000	7.425255	-0.196200	-5.765315	0.028813	-0.156716	-0.656159	0.059942	0.047510	0.005360
562	2.810707	0.005000	7.533959	-0.274559	-5.768159	0.028699	-0.156716	-0.656286	0.059435	0.037019	0.008888
563	2.815707	0.005000	7.494840	-0.235440	-5.875108	0.028586	-0.156716	-0.656413	0.048788	0.036427	0.005314
564	2.820707	0.005000	7.494840	-0.302786	-5.936646	0.028472	-0.156716	-0.656540	0.054997	0.042367	0.010217
565	2.825707	0.005000	7.494840	-0.313920	-5.841163	0.028358	-0.156716	-0.656667	0.045483	0.048896	0.008374
566	2.830707	0.005000	7.647837	-0.296282	-5.785918	0.028358	-0.156375	-0.657048	0.049624	0.045825	0.005365
567	2.835707	0.005000	7.614254	-0.223489	-5.664205	0.028358	-0.156034	-0.657429	0.057293	0.049867	0.002064
568	2.840707	0.005000	7.527817	-0.235440	-5.735303	0.028358	-0.155692	-0.657810	0.052346	0.052215	0.004175
569	2.845707	0.005000	7.534080	-0.234865	-5.787613	0.028358	-0.155351	-0.658191	0.051528	0.054040	0.003303
570	2.850707	0.005000	7.528967	-0.201313	-5.829696	0.028358	-0.155010	-0.658572	0.056728	0.058463	0.004329
571	2.855707	0.005000	7.623361	-0.221220	-5.829122	0.028358	-0.154669	-0.658954	0.066237	0.054589	0.010239
572	2.860707	0.005000	7.573320	-0.247285	-5.689800	0.028358	-0.154327	-0.659335	0.056353	0.064703	0.009927
573	2.865707	0.005000	7.546318	-0.235440	-5.698801	0.028358	-0.153986	-0.659716	0.066773	0.052075	0.004647
574	2.870707	0.005000	7.494840	-0.262366	-5.708270	0.028358	-0.153645	-0.660097	0.055807	0.060327	0.007995
575	2.875707	0.005000	7.534080	-0.192887	-5.807520	0.028358	-0.153303	-0.660478	0.064114	0.061072	-0.002066
576	2.880707	0.005000	7.456069	-0.236378	-5.768280	0.028358	-0.152962	-0.660860	0.061282	0.054797	0.010260
577	2.885707	0.005000	7.531705	-0.313920	-5.731415	0.028358	-0.152621	-0.661241	0.058189	0.060678	0.004160
578	2.890707	0.005000	7.568499	-0.279501	-5.763459	0.028358	-0.152279	-0.661622	0.059779	0.050348	0.012589
579	2.895707	0.005000	7.698649	-0.188591	-5.768280	0.028358	-0.152540	-0.661443	0.057706	0.058959	0.007458
580	2.900707	0.005000	7.562867	-0.138626	-5.739493	0.028358	-0.152881	-0.661189	0.052713	0.058729	0.000828
581	2.905707	0.005000	7.494840	-0.195550	-5.676503	0.028358	-0.153223	-0.660934	0.047816	0.047400	0.007673
582	2.910707	0.005000	7.534080	-0.251581	-5.698982	0.028358	-0.153564	-0.660680	0.044683	0.057479	0.012771
583	2.915707	0.005000	7.534080	-0.253154	-5.807520	0.028358	-0.153905	-0.660426	0.048090	0.053136	0.018030
584	2.920707	0.005000	7.577737	-0.117720	-5.785691	0.028358	-0.154247	-0.660172	0.052662	0.055476	0.007058
585	2.925707	0.005000	7.441032	-0.171528	-5.743608	0.028358	-0.154588	-0.659918	0.053461	0.047654	0.006809
586	2.930707	0.005000	7.467793	-0.247633	-5.756087	0.028358	-0.154929	-0.659663	0.045665	0.053446	0.020926
587	2.935707	0.005000	7.612560	-0.274680	-5.738389	0.028358	-0.155271	-0.659409	0.042484	0.053756	0.022470
588	2.940707	0.005000	7.606055	-0.274680	-5.768280	0.028358	-0.155612	-0.659155	0.046185	0.052118	0.018978
589	2.945707	0.005000	7.580642	-0.235440	-5.725379	0.028358	-0.155953	-0.658901	0.032071	0.051013	0.019851
590	2.950707	0.005000	7.574591	-0.312649	-5.651831	0.028358	-0.156295	-0.658647	0.045005	0.058709	0.014063
591	2.955707	0.005000	7.687894	-0.237013	-5.689800	0.028358	-0.156636	-0.658393	0.042167	0.058679	0.010758
592	2.960707	0.005000	7.612560	-0.274680	-5.733457	0.028445	-0.156367	-0.658625	0.062366	0.053490	0.011912
593	2.965707	0.005000	7.534080	-0.306659	-5.729040	0.028559	-0.155912	-0.659006	0.035547	0.056516	0.017654
594	2.970707	0.005000	7.523975	-0.343055	-5.739145	0.028673	-0.155457	-0.659388	0.046795	0.058956	0.015465
595	2.975707	0.005000	7.573320	-0.274680	-5.716409	0.028787	-0.155001	-0.659769	0.049594	0.054627	0.012839
596	2.980707	0.005000	7.658532	-0.259356	-5.674476	0.028901	-0.154546	-0.660151	0.033912	0.057011	0.019042
597	2.985707	0.005000	7.576224	-0.256512	-5.729040	0.029015	-0.154091	-0.660532	0.040995	0.059867	0.025581
598	2.990707	0.005000	7.670028	-0.271897	-5.677139	0.029128	-0.153635	-0.660913	0.026714	0.053962	0.023798
599	2.995707	0.005000	7.597176	-0.298536	-5.580551	0.029242	-0.153180	-0.661295	0.030674	0.050567	0.007640
600	3.000707	0.005000	7.573320	-0.301228	-5.610156	0.029356	-0.152724	-0.661676	0.045905	0.049150	0.023298
601	3.005707	0.005000	7.583485	-0.235440	-5.660725	0.029470	-0.152269	-0.662057	0.028485	0.064391	0.015295
602	3.010707	0.005000	7.597917	-0.313920	-5.650560	0.029584	-0.151814	-0.662439	0.055656	0.044836	0.017794
603	3.015707	0.005000	7.508273	-0.313920	-5.615798	0.029698	-0.151358	-0.662820	0.049399	0.058640	0.022973
604	3.020707	0.005000	7.576587	-0.233806	-5.725773	0.029812	-0.150903	-0.663202	0.052247	0.045178	0.022568
605	3.025707	0.005000	7.689830	-0.196200	-5.688590	0.029851	-0.150671	-0.663000	0.059766	0.040903	0.026407
606	3.030707	0.005000	7.655442	-0.156960	-5.697085	0.029851	-0.150558	-0.662492	0.053183	0.039133	0.018606
607	3.035707	0.005000	7.553413	-0.228996	-5.689800	0.029851	-0.150444	-0.661984	0.039825	0.044037	0.017799
608	3.040707	0.005000	7.534080	-0.244728	-5.641272	0.029851	-0.150330	-0.661476	0.028148	0.052920	0.021172
609	3.045707	0.005000	7.627536	-0.274680	-5.756148	0.029851	-0.150217	-0.660968	0.047929	0.050592	0.022532
610	3.050707	0.005000	7.700328	-0.166248	-5.611320	0.029851	-0.150103	-0.660460	0.055525	0.047396	0.030505
611	3.055707	0.005000	7.787340	-0.274680	-5.611320	0.029851	-0.149989	-0.659952	0.045238	0.045885	0.025379
612	3.060707	0.005000	7.769520	-0.254241	-5.592519	0.029851	-0.149876	-0.659444	0.048672	0.038233	0.028711
613	3.065707	0.005000	7.691040	-0.203038	-5.666761	0.029851	-0.149762	-0.658936	0.049143	0.045269	0.020240
614	3.070707	0.005000	7.638443	-0.183675	-5.663085	0.029851	-0.149648	-0.658428	0.044495	0.032816	0.021581
615	3.075707	0.005000	7.701553	-0.274680	-5.640047	0.029851	-0.149535	-0.657920	0.039709	0.025375	0.017754
616	3.080707	0.005000	7.745619	-0.196200	-5.587419	0.029851	-0.149421	-0.657412	0.054737	0.023760	0.020946
617	3.085707	0.005000	7.813586	-0.269854	-5.616146	0.029851	-0.149307	-0.656904	0.051836	0.016541	0.020537
618	3.090707	0.005000	7.769520	-0.316355	-5.650560	0.029912	-0.149315	-0.656938	0.032632	0.025666	0.023249
619	3.095707	0.005000	7.653025	-0.353160	-5.572897	0.030025	-0.149428	-0.657446	0.051313	0.020814	0.031766
620	3.100707	0.005000	7.612560	-0.241945	-5.575332	0.030139	-0.149542	-0.657954	0.036178	0.018455	0.022225
621	3.105707	0.005000	7.724184	-0.268584	-5.611320	0.030253	-0.149656	-0.658462	0.036846	0.007895	0.030543
622	3.110707	0.005000	7.799820	-0.362100	-5.671920	0.030367	-0.149770	-0.658971	0.049838	0.011711	0.030604
623	3.115707	0.005000	7.624012	-0.369496	-5.678348	0.030480	-0.149883	-0.659479	0.063731	0.016799	0.019574
624	3.120707	0.005000	7.665959	-0.313920	-5.647323	0.030594	-0.149997	-0.659987	0.069000	0.009483	0.035135
625	3.125707	0.005000	7.657034	-0.257677	-5.751277	0.030708	-0.150111	-0.660495	0.052929	0.019588	0.027529
626	3.130707	0.005000	7.748765	-0.215593	-5.670407	0.030822	-0.150225	-0.661004	0.064598	0.008196	0.015019
627	3.135707	0.005000	7.713731	-0.274680	-5.735182	0.030935	-0.150338	-0.661512	0.057299	0.015621	0.019376
628	3.140707	0.005000	7.601638	-0.260521	-5.743199	0.031049	-0.150452	-0.662020	0.060674	0.019190	0.016910
629	3.145707	0.005000	7.651800	-0.246770	-5.729040	0.031163	-0.150566	-0.662528	0.056977	0.014614	0.018918
630	3.150707	0.005000	7.651800	-0.283166	-5.712067	0.031277	-0.150680	-0.663036	0.052595	0.014640	0.015354
631	3.155707	0.005000	7.640515	-0.274680	-5.611320	0.031201	-0.150651	-0.663333	0.047535	0.014109	0.012452
632	3.160707	0.005000	7.534080	-0.311121	-5.656157	0.030860	-0.150424	-0.663333	0.056631	0.017199	0.014564
633	3.165707	0.005000	7.574137	-0.235440	-5.650560	0.030518	-0.150196	-0.663333	0.071629	0.011548	0.012557
634	3.170707	0.005000	7.725409	-0.272245	-5.650560	0.030177	-0.149969	-0.663333	0.067592	0.014926	0.011868
635	3.175707	0.005000	7.667638	-0.308641	-5.752442	0.029836	-0.149741	-0.663333	0.043263	0.018746	0.013647
636	3.180707	0.005000	7.666670	-0.212447	-5.658683	0.029494	-0.149513	-0.663333	0.057291	0.012374	0.013152
637	3.185707	0.005000	7.633811	-0.274680	-5.600695	0.029153	-0.149286	-0.663333	0.060975	0.015688	0.016774
638	3.190707	0.005000	7.625116	-0.339818	-5.650560	0.028812	-0.149058	-0.663333	0.062583	0.013488	-0.001127
639	3.195707	0.005000	7.714094	-0.297734	-5.673614	0.028470	-0.148831	-0.663333	0.073247	0.018573	0.011291
640	3.200707	0.005000	7.691040	-0.275860	-5.710010	0.028129	-0.148603	-0.663333	0.077721	0.015603	0.009498
641	3.205707	0.005000	7.673674	-0.313920	-5.729040	0.027788	-0.148375	-0.663333	0.078090	0.011331	0.006564
642	3.210707	0.005000	7.691040	-0.299228	-5.689800	0.027446	-0.148148	-0.663333	0.064401	0.016839	0.008976
643	3.215707	0.005000	7.648956	-0.259704	-5.716908	0.027105	-0.147920	-0.663333	0.069224	0.017065	0.005686
644	3.220707	0.005000	7.582608	-0.256104	-5.599944	0.026934	-0.147829	-0.663371	0.058957	0.015810	0.008528
645	3.225707	0.005000	7.723836	-0.241884	-5.644116	0.027162	-0.148057	-0.663498	0.064789	0.007615	0.005975
646	3.230707	0.005000	7.726680	-0.192600	-5.689800	0.027389	-0.148284	-0.663625	0.073676	0.012199	0.003020
647	3.235707	0.005000	7.573320	-0.235440	-5.687378	0.027617	-0.148512	-0.663752	0.069416	0.020863	0.004832
648	3.240707	0.005000	7.684777	-0.272592	-5.648472	0.027845	-0.148740	-0.663879	0.064011	0.016004	0.002790
649	3.245707	0.005000	7.612560	-0.235440	-5.615783	0.028072	-0.148967	-0.664007	0.057817	0.019327	0.007690
650	3.250707	0.005000	7.722974	-0.267374	-5.625933	0.028300	-0.149195	-0.664134	0.065349	0.013201	0.005089
651	3.255707	0.005000	7.769520	-0.284830	-5.592381	0.028527	-0.149422	-0.664261	0.056621	0.011888	0.009986
652	3.260707	0.005000	7.559161	-0.274680	-5.730659	0.028755	-0.149650	-0.664388	0.064446	0.001549	0.006928
653	3.265707	0.005000	7.651800	-0.203113	-5.642089	0.028982	-0.149877	-0.664515	0.051947	0.003746	0.011554
654	3.270707	0.005000	7.672812	-0.232657	-5.611320	0.029210	-0.150105	-0.664642	0.055945	0.009319	-0.001361
655	3.275707	0.005000	7.654704	-0.196200	-5.629488	0.029438	-0.150333	-0.664769	0.073763	0.001924	0.011228
656	3.280707	0.005000	7.557996	-0.250764	-5.689800	0.029665	-0.150560	-0.664896	0.070902	0.013459	0.001670
657	3.285707	0.005000	7.559978	-0.235440	-5.663902	0.029851	-0.150746	-0.665000	0.078947	0.006035	-0.003501
658	3.290707	0.005000	7.632770	-0.313920	-5.640455	0.029851	-0.150746	-0.665000	0.063754	0.008550	0.001222
659	3.295707	0.005000	7.754998	-0.242701	-5.729040	0.029851	-0.150746	-0.665000	0.064714	0.013443	0.001207
660	3.300707	0.005000	7.651800	-0.279097	-5.689800	0.029851	-0.150746	-0.665000	0.086329	0.011367	0.008465
661	3.305707	0.005000	7.687894	-0.313920	-5.650560	0.029851	-0.150746	-0.665000	0.055132	0.016431	-0.000986
662	3.310707	0.005000	7.536621	-0.275951	-5.612591	0.029851	-0.150746	-0.665000	0.064129	0.004221	0.002293
663	3.315707	0.005000	7.640863	-0.267389	-5.686154	0.029851	-0.150746	-0.665000	0.058324	0.009779	-0.003561
664	3.320707	0.005000	7.579810	-0.268190	-5.788051	0.029851	-0.150746	-0.665000	0.045050	0.008730	-0.002696
665	3.325707	0.005000	7.494840	-0.235440	-5.678560	0.029851	-0.150746	-0.665000	0.056360	0.003842	0.013146
666	3.330707	0.005000	7.597675	-0.274680	-5.559903	0.029851	-0.150746	-0.665000	0.065801	0.010643	0.002209
667	3.335707	0.005000	7.612560	-0.274680	-5.659757	0.029851	-0.150746	-0.665000	0.064168	0.013619	0.001805
668	3.340707	0.005000	7.558964	-0.256815	-5.589945	0.029851	-0.150746	-0.665000	0.066730	0.009481	-0.001393
669	3.345707	0.005000	7.691040	-0.274680	-5.688055	0.029851	-0.150746	-0.665000	0.064201	0.015451	0.001700
670	3.350707	0.005000	7.589461	-0.258539	-5.650560	0.029820	-0.150761	-0.664915	0.073311	0.014149	-0.003072
671	3.355707	0.005000	7.613210	-0.235440	-5.585377	0.029365	-0.150989	-0.663644	0.067911	0.016930	-0.008767
672	3.360707	0.005000	7.623013	-0.206653	-5.572080	0.028910	-0.151217	-0.662372	0.079754	0.017941	0.001551
673	3.365707	0.005000	7.668213	-0.353160	-5.658169	0.028454	-0.151444	-0.661101	0.075590	0.023221	0.003224
674	3.370707	0.005000	7.573320	-0.313920	-5.655325	0.027999	-0.151672	-0.659830	0.066608	0.009521	0.008889
675	3.375707	0.005000	7.656580	-0.274680	-5.648170	0.027544	-0.151900	-0.658558	0.059692	0.018690	0.003735
676	3.380707	0.005000	7.769066	-0.235894	-5.688892	0.027088	-0.152127	-0.657287	0.062122	0.022174	0.000065
677	3.385707	0.005000	7.651800	-0.271382	-5.686502	0.026633	-0.152355	-0.656016	0.057849	0.016100	0.005642
678	3.390707	0.005000	7.802618	-0.268538	-5.683658	0.026178	-0.152583	-0.654745	0.063638	0.019235	-0.003544
679	3.395707	0.005000	7.651800	-0.274680	-5.650560	0.025722	-0.152810	-0.653473	0.068317	0.015314	0.004434
680	3.400707	0.005000	7.585149	-0.235440	-5.599491	0.025267	-0.153038	-0.652202	0.053785	0.021075	0.007982
681	3.405707	0.005000	7.587706	-0.285148	-5.646642	0.024811	-0.153266	-0.650931	0.074934	0.015273	-0.007176
682	3.410707	0.005000	7.612560	-0.274680	-5.628384	0.024356	-0.153493	-0.649659	0.066095	0.019282	0.009652
683	3.415707	0.005000	7.651225	-0.274680	-5.651135	0.023901	-0.153721	-0.648388	0.057184	0.015295	0.005351
684	3.420707	0.005000	7.769520	-0.218951	-5.634071	0.024534	-0.153513	-0.649669	0.057727	0.015501	0.003205
685	3.425707	0.005000	7.728586	-0.104075	-5.613014	0.025216	-0.153286	-0.651067	0.065889	0.022888	0.002879
686	3.430707	0.005000	7.702310	-0.156960	-5.796250	0.025899	-0.153058	-0.652464	0.053206	0.017715	0.005833
687	3.435707	0.005000	7.761094	-0.260718	-5.751428	0.026581	-0.152831	-0.653861	0.057056	0.012015	-0.001422
688	3.440707	0.005000	7.618142	-0.190618	-5.644978	0.027263	-0.152604	-0.655258	0.068468	0.013981	-0.000978
689	3.445707	0.005000	7.688302	-0.235440	-5.650560	0.027946	-0.152376	-0.656655	0.072144	0.020059	0.009061
690	3.450707	0.005000	7.651800	-0.274574	-5.611426	0.028628	-0.152149	-0.658052	0.057358	0.022953	0.003076
691	3.455707	0.005000	7.696940	-0.350210	-5.729040	0.029311	-0.151921	-0.659449	0.042684	0.008985	0.015628
692	3.460707	0.005000	7.685246	-0.319714	-5.717453	0.029993	-0.151694	-0.660847	0.035736	0.013754	0.010291
693	3.465707	0.005000	7.604021	-0.283219	-5.689800	0.030675	-0.151466	-0.662244	0.052395	0.012549	0.012244
694	3.470707	0.005000	7.651800	-0.274680	-5.628505	0.031358	-0.151239	-0.663641	0.055970	0.009809	0.014043
695	3.475707	0.005000	7.624057	-0.313920	-5.664432	0.032040	-0.151011	-0.665038	0.047225	0.012314	0.011243
696	3.480707	0.005000	7.618369	-0.268871	-5.751564	0.032723	-0.150784	-0.666435	0.044912	0.010644	0.005210
697	3.485707	0.005000	7.710599	-0.294239	-5.650439	0.032361	-0.150841	-0.666561	0.029082	0.005252	0.011069
698	3.490707	0.005000	7.612560	-0.240600	-5.538000	0.031792	-0.150955	-0.666434	0.048764	0.001409	0.005610
699	3.495707	0.005000	7.605561	-0.171256	-5.614969	0.031224	-0.151069	-0.666307	0.047062	0.012953	0.003899
700	3.500707	0.005000	7.730280	-0.191813	-5.650560	0.030655	-0.151182	-0.666180	0.050043	0.010560	0.002579
701	3.505707	0.005000	7.730280	-0.274680	-5.641786	0.030086	-0.151296	-0.666053	0.053756	0.011827	0.011398
702	3.510707	0.005000	7.814690	-0.319850	-5.572080	0.029517	-0.151410	-0.665926	0.058462	0.010486	0.002538
703	3.515707	0.005000	7.838742	-0.310834	-5.614406	0.028948	-0.151524	-0.665798	0.051475	0.013750	0.027359
704	3.520707	0.005000	7.768794	-0.274680	-5.650560	0.028379	-0.151638	-0.665671	0.041979	0.006744	0.007196
705	3.525707	0.005000	7.688438	-0.201404	-5.687198	0.027810	-0.151752	-0.665544	0.057043	0.008552	0.012975
706	3.530707	0.005000	7.617537	-0.274680	-5.694777	0.027241	-0.151865	-0.665417	0.054325	0.003068	0.010879
707	3.535707	0.005000	7.651800	-0.243261	-5.579901	0.026672	-0.151979	-0.665290	0.045978	0.001056	0.004270
708	3.540707	0.005000	7.719615	-0.292591	-5.482935	0.026103	-0.152093	-0.665163	0.051622	0.011502	0.020720
709	3.545707	0.005000	7.666594	-0.289474	-5.546349	0.025534	-0.152207	-0.665036	0.043244	0.015588	0.001612
710	3.550707	0.005000	7.622378	-0.235440	-5.657095	0.025536	-0.152810	-0.664635	0.062926	0.004148	0.004930
711	3.555707	0.005000	7.671844	-0.313920	-5.649713	0.025764	-0.153607	-0.664127	0.043475	0.007104	0.009636
712	3.560707	0.005000	7.691040	-0.318761	-5.633360	0.025991	-0.154403	-0.663619	0.052273	0.005311	0.011980
713	3.565707	0.005000	7.745090	-0.250250	-5.611320	0.026219	-0.155199	-0.663111	0.051326	0.010690	0.015311
714	3.570707	0.005000	7.679074	-0.289989	-5.705109	0.026446	-0.155995	-0.662603	0.047420	0.001397	0.012787
715	3.575707	0.005000	7.660922	-0.235440	-5.641438	0.026674	-0.156791	-0.662095	0.046089	0.000987	0.018773
716	3.580707	0.005000	7.697318	-0.313920	-5.617598	0.026901	-0.157587	-0.661587	0.040235	0.002199	0.010445
717	3.585707	0.005000	7.762652	-0.267812	-5.672631	0.027129	-0.158384	-0.661079	0.052729	-0.000180	0.011121
718	3.590707	0.005000	7.651800	-0.273500	-5.572670	0.027356	-0.159180	-0.660571	0.039883	0.004047	0.008859
719	3.595707	0.005000	7.725772	-0.233186	-5.611320	0.027583	-0.159976	-0.660063	0.047461	0.007316	-0.003611
720	3.600707	0.005000	7.685942	-0.235440	-5.645462	0.027811	-0.160772	-0.659555	0.059955	0.000910	0.011524
721	3.605707	0.005000	7.627506	-0.196200	-5.540313	0.028038	-0.161568	-0.659047	0.059380	0.001063	0.005521
722	3.610707	0.005000	7.612560	-0.196200	-5.658850	0.028266	-0.162365	-0.658539	0.066811	0.007330	0.017412
723	3.615707	0.005000	7.612318	-0.287599	-5.663479	0.028426	-0.162213	-0.658711	0.070973	0.006179	0.016281
724	3.620707	0.005000	7.628565	-0.219435	-5.713035	0.028540	-0.161416	-0.659346	0.047756	-0.000158	0.017665
725	3.625707	0.005000	7.593711	-0.293529	-5.688257	0.028653	-0.160620	-0.659982	0.055754	0.006046	0.017448
726	3.630707	0.005000	7.708588	-0.270535	-5.650560	0.028767	-0.159823	-0.660617	0.042846	0.020089	0.014491
727	3.635707	0.005000	7.739205	-0.220283	-5.683568	0.028881	-0.159027	-0.661253	0.062285	0.000225	0.019252
728	3.640707	0.005000	7.610261	-0.196200	-5.569781	0.028995	-0.158230	-0.661888	0.060980	-0.003710	0.003107
729	3.645707	0.005000	7.760050	-0.205670	-5.777750	0.029109	-0.157434	-0.662523	0.072492	-0.004795	0.011237
730	3.650707	0.005000	7.782257	-0.254803	-5.722414	0.029223	-0.156637	-0.663159	0.051243	0.007141	0.007313
731	3.655707	0.005000	7.573320	-0.199982	-5.678455	0.029336	-0.155841	-0.663794	0.057257	-0.006939	0.011524
732	3.660707	0.005000	7.613509	-0.274680	-5.573978	0.029450	-0.155044	-0.664430	0.055437	-0.000605	0.012772
733	3.665707	0.005000	7.689603	-0.312483	-5.726166	0.029564	-0.154247	-0.665065	0.042805	0.003147	0.010358
734	3.670707	0.005000	7.734561	-0.235440	-5.689800	0.029678	-0.153451	-0.665700	0.051743	0.000185	0.011903
735	3.675707	0.005000	7.666050	-0.235440	-5.586330	0.029792	-0.152654	-0.666336	0.049819	0.002821	0.007352
736	3.680707	0.005000	7.701009	-0.215502	-5.709102	0.029960	-0.152239	-0.666485	0.053856	0.001970	0.017453
737	3.685707	0.005000	7.651800	-0.261867	-5.729040	0.030187	-0.152239	-0.666103	0.057505	0.001513	0.019276
738	3.690707	0.005000	7.683113	-0.266753	-5.642633	0.030415	-0.152239	-0.665722	0.050786	0.001989	0.004471
739	3.695707	0.005000	7.635538	-0.235440	-5.726801	0.030643	-0.152239	-0.665341	0.057063	0.002496	0.013078
740	3.700707	0.005000	7.712385	-0.271231	-5.686351	0.030870	-0.152239	-0.664960	0.063944	-0.000733	0.003700
741	3.705707	0.005000	7.564183	-0.298868	-5.816657	0.031098	-0.152239	-0.664579	0.058926	0.004885	-0.000221
742	3.710707	0.005000	7.612560	-0.262003	-5.768280	0.031325	-0.152239	-0.664197	0.061337	0.005344	0.012932
743	3.715707	0.005000	7.583153	-0.245273	-5.729040	0.031553	-0.152239	-0.663816	0.050578	0.005576	0.002807
744	3.720707	0.005000	7.580309	-0.281669	-5.600035	0.031781	-0.152239	-0.663435	0.062772	-0.003941	0.001133
745	3.725707	0.005000	7.585755	-0.235440	-5.646415	0.032008	-0.152239	-0.663054	0.065633	0.001550	-0.000554
746	3.730707	0.005000	7.613861	-0.272078	-5.727739	0.032236	-0.152239	-0.662673	0.072301	0.003185	0.010474
747	3.735707	0.005000	7.689497	-0.233897	-5.652103	0.032463	-0.152239	-0.662291	0.056241	0.008676	0.007209
748	3.740707	0.005000	7.655779	-0.235440	-5.650560	0.032691	-0.152239	-0.661910	0.062183	0.006407	0.006842
749	3.745707	0.005000	7.665354	-0.267903	-5.650560	0.032754	-0.152239	-0.661575	0.030041	0.005594	0.009181
750	3.750707	0.005000	7.671798	-0.215442	-5.522463	0.032526	-0.152239	-0.661321	0.048049	-0.001065	0.001632
751	3.755707	0.005000	7.639335	-0.235440	-5.702265	0.032298	-0.152239	-0.661067	0.050512	0.003287	0.013005
752	3.760707	0.005000	7.793451	-0.313920	-5.774966	0.032071	-0.152239	-0.660812	0.057597	0.001711	0.005950
753	3.765707	0.005000	7.709193	-0.310985	-5.729040	0.031843	-0.152239	-0.660558	0.060997	-0.007309	-0.000900
754	3.770707	0.005000	7.651800	-0.292923	-5.710797	0.031616	-0.152239	-0.660304	0.047183	0.003365	0.014327
755	3.775707	0.005000	7.691040	-0.290080	-5.548240	0.031388	-0.152239	-0.660050	0.052909	0.002366	0.006590
756	3.780707	0.005000	7.703596	-0.274680	-5.675671	0.031161	-0.152239	-0.659796	0.053101	0.001183	0.006586
757	3.785707	0.005000	7.671617	-0.274680	-5.660272	0.030933	-0.152239	-0.659541	0.054089	0.004334	0.006419
758	3.790707	0.005000	7.691040	-0.320788	-5.636824	0.030705	-0.152239	-0.659287	0.062475	0.002170	0.004691
759	3.795707	0.005000	7.686547	-0.279173	-5.615813	0.030478	-0.152239	-0.659033	0.047959	-0.001508	0.002985
760	3.800707	0.005000	7.692689	-0.274680	-5.612969	0.030250	-0.152239	-0.658779	0.052206	0.001772	-0.000647
761	3.805707	0.005000	7.768325	-0.388815	-5.688605	0.030023	-0.152239	-0.658525	0.051314	-0.001921	0.012610
762	3.810707	0.005000	7.655839	-0.313920	-5.568041	0.029739	-0.152323	-0.658458	0.041292	-0.004211	0.005269
763	3.815707	0.005000	7.723397	-0.320803	-5.676034	0.029284	-0.152664	-0.658966	0.059568	0.002426	0.014033
764	3.820707	0.005000	7.759793	-0.274680	-5.758553	0.028829	-0.153005	-0.659474	0.051468	0.005241	0.013768
765	3.825707	0.005000	7.625131	-0.393928	-5.807520	0.028374	-0.153347	-0.659983	0.061855	0.006991	0.017174
766	3.830707	0.005000	7.525112	-0.313920	-5.753144	0.027919	-0.153688	-0.660491	0.050799	0.003971	0.003488
767	3.835707	0.005000	7.641256	-0.353160	-5.764649	0.027463	-0.154029	-0.660999	0.050015	0.000575	0.001397
768	3.840707	0.005000	7.688983	-0.373809	-5.710449	0.027008	-0.154371	-0.661508	0.056197	0.003559	0.011451
769	3.845707	0.005000	7.636053	-0.353160	-5.674053	0.026553	-0.154712	-0.662016	0.046860	0.009375	0.002999
770	3.850707	0.005000	7.716847	-0.353160	-5.676367	0.026098	-0.155053	-0.662524	0.050579	0.002708	0.017997
771	3.855707	0.005000	7.680977	-0.343097	-5.679737	0.025643	-0.155395	-0.663032	0.046463	0.005188	0.011160
772	3.860707	0.005000	7.730280	-0.274680	-5.665929	0.025188	-0.155736	-0.663541	0.059101	0.002479	0.005110
773	3.865707	0.005000	7.686199	-0.274680	-5.719359	0.024733	-0.156077	-0.664049	0.046599	0.005883	0.009051
774	3.870707	0.005000	7.612560	-0.311923	-5.570083	0.024277	-0.156419	-0.664557	0.048668	0.004635	0.009736
775	3.875707	0.005000	7.612560	-0.313073	-5.648019	0.023969	-0.156628	-0.664967	0.073753	0.005931	0.010331
776	3.880707	0.005000	7.687349	-0.353160	-5.828305	0.024652	-0.155945	-0.664713	0.056810	0.006414	0.011912
777	3.885707	0.005000	7.691040	-0.274680	-5.657095	0.025334	-0.155263	-0.664459	0.052931	-0.002169	0.014798
778	3.890707	0.005000	7.591140	-0.226530	-5.671980	0.026016	-0.154581	-0.664205	0.054730	0.002784	0.008915
779	3.895707	0.005000	7.616538	-0.235440	-5.662314	0.026699	-0.153898	-0.663951	0.040085	0.016417	0.004812
780	3.900707	0.005000	7.705638	-0.299322	-5.660604	0.027381	-0.153216	-0.663697	0.047330	0.007322	0.021552
781	3.905707	0.005000	7.647443	-0.331362	-5.554638	0.028064	-0.152533	-0.663443	0.058948	-0.000912	0.004130
782	3.910707	0.005000	7.612560	-0.255726	-5.612651	0.028746	-0.151851	-0.663189	0.070254	-0.002464	0.009489
783	3.915707	0.005000	7.660891	-0.274680	-5.745150	0.029428	-0.151169	-0.662935	0.062517	0.005945	0.009468
784	3.920707	0.005000	7.678333	-0.274680	-5.637293	0.030111	-0.150486	-0.662681	0.067536	0.009737	0.015126
785	3.925707	0.005000	7.658411	-0.274680	-5.600444	0.030793	-0.149804	-0.662427	0.064097	0.005281	0.006371
786	3.930707	0.005000	7.605450	-0.274680	-5.642527	0.031476	-0.149121	-0.662173	0.051202	0.004433	0.003521
787	3.935707	0.005000	7.680663	-0.274680	-5.684611	0.032158	-0.148439	-0.661919	0.058687	0.005610	0.003792
788	3.940707	0.005000	7.610215	-0.233095	-5.726695	0.032820	-0.147772	-0.661655	0.052723	0.012152	0.014412
789	3.945707	0.005000	7.650802	-0.196200	-5.689800	0.030432	-0.149478	-0.659877	0.045375	-0.004302	0.008009
790	3.950707	0.005000	7.688166	-0.201948	-5.692674	0.028043	-0.151184	-0.658099	0.048142	0.007661	0.008346
791	3.955707	0.005000	7.679604	-0.274680	-5.729040	0.025655	-0.152890	-0.656321	0.056712	0.006363	0.008106
792	3.960707	0.005000	7.621122	-0.266118	-5.650560	0.023266	-0.154597	-0.654543	0.057324	-0.000294	0.009322
793	3.965707	0.005000	7.663206	-0.269658	-5.650560	0.020878	-0.156303	-0.652764	0.054581	0.004231	0.001906
794	3.970707	0.005000	7.644569	-0.235440	-5.661300	0.018489	-0.158009	-0.650986	0.055854	-0.002403	0.001630
795	3.975707	0.005000	7.634706	-0.336066	-5.567028	0.016101	-0.159715	-0.649208	0.054397	0.010255	0.017789
796	3.980707	0.005000	7.612560	-0.274680	-5.552142	0.013712	-0.161421	-0.647430	0.064541	0.007634	0.006810
797	3.985707	0.005000	7.645477	-0.281003	-5.660695	0.011324	-0.163127	-0.645652	0.056382	0.008119	0.017317
798	3.990707	0.005000	7.691040	-0.299852	-5.703868	0.008935	-0.164833	-0.643874	0.047170	0.002250	0.008462
799	3.995707	0.005000	7.735847	-0.308353	-5.689800	0.006547	-0.166539	-0.642096	0.051481	0.000643	0.016862
800	4.000707	0.005000	7.635039	-0.414879	-5.611320	0.004159	-0.168245	-0.640317	0.047908	0.006869	0.005011
801	4.005707	0.005000	7.730280	-0.269143	-5.650560	0.001770	-0.169951	-0.638539	0.061618	-0.000705	0.014403
802	4.010707	0.005000	7.654493	-0.280065	-5.653253	0.002096	-0.169847	-0.638108	0.071426	0.002235	0.010180
803	4.015707	0.005000	7.573774	-0.314071	-5.728889	0.002779	-0.169506	-0.637854	0.056937	0.005263	0.008007
804	4.020707	0.005000	7.618550	-0.268690	-5.686805	0.003461	-0.169165	-0.637600	0.051831	0.001807	0.001768
805	4.025707	0.005000	7.623300	-0.381660	-5.622060	0.004144	-0.168824	-0.637346	0.068480	0.010224	-0.005003
806	4.030707	0.005000	7.682826	-0.344946	-5.642346	0.004826	-0.168483	-0.637092	0.073729	0.001967	0.004909
807	4.035707	0.005000	7.584378	-0.318912	-5.622378	0.005508	-0.168142	-0.636839	0.045144	0.006578	-0.000390
808	4.040707	0.005000	7.665702	-0.274680	-5.701236	0.006191	-0.167800	-0.636585	0.073482	0.003788	0.003703
809	4.045707	0.005000	7.691040	-0.313920	-5.723292	0.006873	-0.167459	-0.636331	0.056505	0.009128	0.004311
810	4.050707	0.005000	7.651800	-0.294330	-5.670150	0.007556	-0.167118	-0.636077	0.054700	0.004437	-0.002952
811	4.055707	0.005000	7.713474	-0.235440	-5.740219	0.008238	-0.166777	-0.635823	0.061360	0.003045	0.007634
812	4.060707	0.005000	7.569266	-0.249871	-5.803466	0.008920	-0.166436	-0.635569	0.060036	0.010878	-0.007090
813	4.065707	0.005000	7.651800	-0.258615	-5.768280	0.009603	-0.166095	-0.635315	0.068185	0.010268	0.006298
814	4.070707	0.005000	7.630047	-0.335673	-5.729040	0.010285	-0.165753	-0.635061	0.062806	0.013199	0.000798
815	4.075707	0.005000	7.539980	-0.274680	-5.734940	0.010968	-0.165239	-0.635968	0.066030	0.011842	-0.000300
816	4.080707	0.005000	7.618671	-0.271624	-5.765224	0.011651	-0.164670	-0.637238	0.066725	0.011185	0.000233
817	4.085707	0.005000	7.730280	-0.196412	-5.690224	0.012333	-0.164101	-0.638509	0.053305	0.015423	-0.008248
818	4.090707	0.005000	7.657064	-0.235440	-5.768280	0.013016	-0.163532	-0.639780	0.061192	0.017672	0.002105
819	4.095707	0.005000	7.651800	-0.303758	-5.734121	0.013699	-0.162963	-0.641050	0.048802	0.022323	0.003624
820	4.100707	0.005000	7.675398	-0.290412	-5.650560	0.014382	-0.162394	-0.642321	0.055371	0.011644	0.002816
821	4.105707	0.005000	7.737390	-0.235440	-5.661270	0.015064	-0.161825	-0.643592	0.057498	0.008542	0.000096
822	4.110707	0.005000	7.730280	-0.288234	-5.612742	0.015747	-0.161256	-0.644863	0.059279	0.002916	0.002561
823	4.115707	0.005000	7.658244	-0.274680	-5.683356	0.016430	-0.160687	-0.646133	0.071463	0.009277	0.005289
824	4.120707	0.005000	7.629639	-0.216667	-5.650560	0.017112	-0.160118	-0.647404	0.057030	0.013780	0.008513
825	4.125707	0.005000	7.573320	-0.331543	-5.689800	0.017795	-0.159549	-0.648675	0.059473	0.003583	0.006719
826	4.130707	0.005000	7.681359	-0.323601	-5.689800	0.018478	-0.158980	-0.649945	0.061978	0.006132	0.003230
827	4.135707	0.005000	7.730280	-0.226939	-5.595951	0.019161	-0.158411	-0.651216	0.052011	0.007906	-0.002894
828	4.140707	0.005000	7.642602	-0.184553	-5.759082	0.019770	-0.157915	-0.651913	0.046269	0.002546	0.002347
829	4.145707	0.005000	7.684339	-0.248843	-5.657261	0.020339	-0.157460	-0.652294	0.054434	0.005803	0.000191
830	4.150707	0.005000	7.647943	-0.313920	-5.615177	0.020908	-0.157005	-0.652675	0.059241	0.002799	-0.001714
831	4.155707	0.005000	7.575347	-0.391386	-5.728026	0.021477	-0.156550	-0.653056	0.054440	0.008700	0.008372
832	4.160707	0.005000	7.689210	-0.390570	-5.577571	0.022046	-0.156095	-0.653438	0.046002	0.007172	0.004304
833	4.165707	0.005000	7.577994	-0.318594	-5.685126	0.022615	-0.155640	-0.653819	0.054419	0.009774	0.002789
834	4.170707	0.005000	7.691040	-0.313920	-5.736089	0.023184	-0.155184	-0.654200	0.049837	0.014786	0.000624
835	4.175707	0.005000	7.661360	-0.294134	-5.699693	0.023753	-0.154729	-0.654581	0.055148	0.009301	0.003167
836	4.180707	0.005000	7.678303	-0.274680	-5.651589	0.024322	-0.154274	-0.654962	0.033817	0.018653	0.004460
837	4.185707	0.005000	7.643722	-0.384897	-5.674219	0.024891	-0.153819	-0.655344	0.063696	0.012764	0.006121
838	4.190707	0.005000	7.594135	-0.392400	-5.689800	0.025460	-0.153364	-0.655725	0.056107	0.016334	0.000995
839	4.195707	0.005000	7.630985	-0.295495	-5.713005	0.026029	-0.152909	-0.656106	0.053303	0.013679	0.013217
840	4.200707	0.005000	7.722202	-0.243518	-5.729040	0.026598	-0.152454	-0.656487	0.055788	0.010590	0.003471
841	4.205707	0.005000	7.650786	-0.236454	-5.625076	0.026926	-0.152419	-0.657003	0.055840	0.001040	0.007257
842	4.210707	0.005000	7.661708	-0.206108	-5.611320	0.027040	-0.152761	-0.657638	0.049251	0.011640	0.017053
843	4.215707	0.005000	7.737427	-0.274680	-5.650560	0.027154	-0.153102	-0.658273	0.050305	0.008025	0.004375
844	4.220707	0.005000	7.785388	-0.274680	-5.719691	0.027267	-0.153443	-0.658909	0.041685	0.005715	0.002645
845	4.225707	0.005000	7.575150	-0.313920	-5.693461	0.027381	-0.153785	-0.659544	0.048407	0.007259	0.012038
846	4.230707	0.005000	7.574334	-0.275694	-5.730054	0.027495	-0.154126	-0.660179	0.041923	0.005590	0.009468
847	4.235707	0.005000	7.679468	-0.239297	-5.729040	0.027609	-0.154467	-0.660815	0.052981	0.004248	0.011374
848	4.240707	0.005000	7.684339	-0.267979	-5.768280	0.027722	-0.154809	-0.661450	0.043066	0.014419	0.009304
849	4.245707	0.005000	7.730280	-0.265135	-5.719495	0.027836	-0.155150	-0.662085	0.046928	0.012810	0.005512
850	4.250707	0.005000	7.610488	-0.249902	-5.729040	0.027950	-0.155491	-0.662721	0.048978	0.016218	0.000325
851	4.255707	0.005000	7.661512	-0.235440	-5.719328	0.028064	-0.155833	-0.663356	0.040986	0.011229	0.007817
852	4.260707	0.005000	7.647776	-0.274680	-5.711432	0.028177	-0.156174	-0.663991	0.051537	0.003549	0.014620
853	4.265707	0.005000	7.689376	-0.274680	-5.746164	0.028291	-0.156515	-0.664627	0.050816	0.016456	0.009926
854	4.270707	0.005000	7.746224	-0.258736	-5.705744	0.028452	-0.156435	-0.665000	0.069513	0.006838	0.006004
855	4.275707	0.005000	7.625600	-0.261640	-5.676700	0.028679	-0.155752	-0.665000	0.042016	0.010079	0.010613
856	4.280707	0.005000	7.662056	-0.303664	-5.669287	0.028907	-0.155069	-0.665000	0.047046	0.007165	0.009418
857	4.285707	0.005000	7.776932	-0.306508	-5.665385	0.029135	-0.154386	-0.665000	0.039356	0.008835	0.011699
858	4.290707	0.005000	7.769520	-0.274680	-5.650560	0.029362	-0.153704	-0.665000	0.049117	0.006092	0.005158
859	4.295707	0.005000	7.728102	-0.313920	-5.761745	0.029590	-0.153021	-0.665000	0.046067	0.010543	0.009568
860	4.300707	0.005000	7.575317	-0.275346	-5.650560	0.029817	-0.152338	-0.665000	0.039773	0.007383	0.009893
861	4.305707	0.005000	7.583849	-0.274680	-5.732550	0.030045	-0.151656	-0.665000	0.048832	-0.000522	0.009417
862	4.310707	0.005000	7.579673	-0.313920	-5.683447	0.030272	-0.150973	-0.665000	0.044608	-0.004901	0.012725
863	4.315707	0.005000	7.552475	-0.274680	-5.749885	0.030500	-0.150290	-0.665000	0.050552	-0.004928	0.010115
864	4.320707	0.005000	7.534080	-0.302208	-5.705615	0.030728	-0.149607	-0.665000	0.051541	-0.007772	0.011356
865	4.325707	0.005000	7.633375	-0.313920	-5.782696	0.030955	-0.148925	-0.665000	0.036858	0.004283	0.008992
866	4.330707	0.005000	7.651800	-0.331180	-5.729040	0.031183	-0.148242	-0.665000	0.038726	-0.002624	0.011818
867	4.335707	0.005000	7.712112	-0.313920	-5.747208	0.031343	-0.147896	-0.665000	0.048441	0.000839	0.009363
868	4.340707	0.005000	7.612560	-0.251732	-5.735696	0.031343	-0.148351	-0.665000	0.049191	-0.002203	0.008426
869	4.345707	0.005000	7.677592	-0.262336	-5.662904	0.031343	-0.148806	-0.665000	0.055190	0.002170	0.004334
870	4.350707	0.005000	7.630592	-0.292712	-5.661164	0.031343	-0.149261	-0.665000	0.059098	0.006524	0.009526
871	4.355707	0.005000	7.596132	-0.251868	-5.720826	0.031343	-0.149716	-0.665000	0.051661	0.006951	0.008877
872	4.360707	0.005000	7.612560	-0.274680	-5.695170	0.031343	-0.150171	-0.665000	0.046498	-0.003299	0.006722
873	4.365707	0.005000	7.617612	-0.272154	-5.765754	0.031343	-0.150626	-0.665000	0.052797	-0.000212	0.009878
874	4.370707	0.005000	7.729962	-0.274362	-5.612273	0.031343	-0.151082	-0.665000	0.038020	0.008090	0.006965
875	4.375707	0.005000	7.736603	-0.238602	-5.650560	0.031343	-0.151537	-0.665000	0.042698	-0.000368	0.007573
876	4.380707	0.005000	7.645794	-0.268674	-5.650560	0.031343	-0.151992	-0.665000	0.042034	0.002413	-0.002274
877	4.385707	0.005000	7.682191	-0.305071	-5.659409	0.031343	-0.152447	-0.665000	0.029740	0.002015	-0.004247
878	4.390707	0.005000	7.651800	-0.341936	-5.678576	0.031343	-0.152902	-0.665000	0.044228	-0.003871	0.001681
879	4.395707	0.005000	7.665868	-0.339092	-5.729040	0.031343	-0.153357	-0.665000	0.032426	0.005748	-0.000078
880	4.400707	0.005000	7.617976	-0.257768	-5.712128	0.031363	-0.153649	-0.664977	0.026702	-0.000068	-0.003731
881	4.405707	0.005000	7.652072	-0.274408	-5.787764	0.031477	-0.153194	-0.664850	0.043374	0.004661	0.004852
882	4.410707	0.005000	7.573320	-0.213041	-5.689800	0.031591	-0.152739	-0.664723	0.048045	0.009345	0.002040
883	4.415707	0.005000	7.509105	-0.328185	-5.714775	0.031705	-0.152284	-0.664596	0.045509	0.001918	-0.001840
884	4.420707	0.005000	7.612560	-0.313920	-5.611320	0.031819	-0.151829	-0.664469	0.043789	0.006576	0.003391
885	4.425707	0.005000	7.595406	-0.313920	-5.619897	0.031933	-0.151374	-0.664342	0.051614	0.002523	0.010045
886	4.430707	0.005000	7.601986	-0.319653	-5.701266	0.032046	-0.150919	-0.664215	0.053105	0.008932	0.005685
887	4.435707	0.005000	7.651800	-0.308141	-5.726151	0.032160	-0.150463	-0.664088	0.056289	0.000560	0.008848
888	4.440707	0.005000	7.690995	-0.274635	-5.650651	0.032274	-0.150008	-0.663960	0.040846	0.001916	0.001797
889	4.445707	0.005000	7.688241	-0.271881	-5.656157	0.032388	-0.149553	-0.663833	0.059299	0.004678	-0.005218
890	4.450707	0.005000	7.607371	-0.274680	-5.666126	0.032502	-0.149098	-0.663706	0.063711	0.000102	0.002568
891	4.455707	0.005000	7.674975	-0.290745	-5.838727	0.032615	-0.148643	-0.663579	0.053001	0.001813	0.002295
892	4.460707	0.005000	7.640924	-0.263804	-5.733306	0.032729	-0.148188	-0.663452	0.052883	0.001424	-0.005596
893	4.465707	0.005000	7.651800	-0.249160	-5.701599	0.032807	-0.147797	-0.663341	0.036055	0.002741	-0.001841
894	4.470707	0.005000	7.668364	-0.336596	-5.797067	0.032352	-0.148366	-0.663468	0.054655	-0.003288	-0.003067
895	4.475707	0.005000	7.573320	-0.254608	-5.688897	0.031897	-0.148935	-0.663595	0.054572	0.000864	-0.013187
896	4.480707	0.005000	7.630017	-0.235440	-5.654886	0.031442	-0.149504	-0.663722	0.054595	0.006706	-0.006797
897	4.485707	0.005000	7.691040	-0.274680	-5.694399	0.030987	-0.150073	-0.663849	0.056028	-0.001214	-0.001504
898	4.490707	0.005000	7.691040	-0.223671	-5.709435	0.030532	-0.150642	-0.663976	0.051120	0.005441	0.001249
899	4.495707	0.005000	7.633950	-0.283605	-5.602395	0.030076	-0.151211	-0.664104	0.040116	0.002067	0.000592
900	4.500707	0.005000	7.657881	-0.359241	-5.638398	0.029621	-0.151780	-0.664231	0.050867	0.004874	0.001973
901	4.505707	0.005000	7.619034	-0.353160	-5.611320	0.029166	-0.152349	-0.664358	0.042583	0.003298	-0.012813
902	4.510707	0.005000	7.730280	-0.274680	-5.611320	0.028711	-0.152918	-0.664485	0.069865	-0.001490	-0.006941
903	4.515707	0.005000	7.767069	-0.348259	-5.648109	0.028256	-0.153487	-0.664612	0.058860	0.010557	-0.002049
904	4.520707	0.005000	7.617457	-0.279577	-5.621115	0.027801	-0.154056	-0.664739	0.060964	-0.000870	0.005916
905	4.525707	0.005000	7.644115	-0.330106	-5.682115	0.027346	-0.154625	-0.664866	0.052625	0.000524	-0.000387
906	4.530707	0.005000	7.505369	-0.371343	-5.661089	0.026890	-0.155194	-0.664993	0.070922	0.001015	-0.000305
907	4.535707	0.005000	7.638428	-0.300548	-5.689800	0.027189	-0.154578	-0.664519	0.056592	-0.010874	-0.004752
908	4.540707	0.005000	7.674824	-0.274680	-5.745256	0.027530	-0.153895	-0.664011	0.048510	0.002309	-0.015599
909	4.545707	0.005000	7.572201	-0.197319	-5.708860	0.027872	-0.153212	-0.663502	0.053228	-0.006609	-0.004830
910	4.550707	0.005000	7.512176	-0.257344	-5.650560	0.028213	-0.152530	-0.662994	0.052611	-0.002947	-0.001268
911	4.555707	0.005000	7.573320	-0.265362	-5.684158	0.028554	-0.151847	-0.662486	0.057704	-0.006250	-0.007182
912	4.560707	0.005000	7.621788	-0.250446	-5.699028	0.028896	-0.151164	-0.661978	0.049964	-0.001071	-0.001301
913	4.565707	0.005000	7.730280	-0.244713	-5.807520	0.029237	-0.150482	-0.661469	0.059063	0.003833	-0.006267
914	4.570707	0.005000	7.691040	-0.235440	-5.689800	0.029578	-0.149799	-0.660961	0.061940	0.004223	-0.004906
915	4.575707	0.005000	7.619730	-0.271095	-5.725455	0.029920	-0.149116	-0.660453	0.057827	0.007741	-0.009460
916	4.580707	0.005000	7.808019	-0.236181	-5.612802	0.030261	-0.148433	-0.659944	0.070414	-0.004154	-0.009646
917	4.585707	0.005000	7.620971	-0.311817	-5.726937	0.030602	-0.147751	-0.659436	0.061836	0.002992	-0.000175
918	4.590707	0.005000	7.686093	-0.274680	-5.738933	0.030944	-0.147068	-0.658928	0.042754	0.006934	-0.008415
919	4.595707	0.005000	7.548900	-0.274680	-5.760870	0.031285	-0.146385	-0.658420	0.050570	0.003464	0.004790
920	4.600707	0.005000	7.523915	-0.235440	-5.737784	0.031154	-0.146458	-0.658122	0.048942	0.004017	-0.006039
921	4.605707	0.005000	7.599762	-0.274680	-5.689800	0.030927	-0.146685	-0.657868	0.053637	0.001879	0.000818
922	4.610707	0.005000	7.612560	-0.290533	-5.729040	0.030699	-0.146913	-0.657614	0.048941	0.010602	0.008624
923	4.615707	0.005000	7.592017	-0.254137	-5.687954	0.030472	-0.147140	-0.657360	0.053823	0.004353	0.006853
924	4.620707	0.005000	7.608718	-0.274680	-5.732882	0.030244	-0.147368	-0.657106	0.055777	0.006367	0.006168
925	4.625707	0.005000	7.715425	-0.274680	-5.695125	0.030017	-0.147595	-0.656852	0.056116	0.006962	0.004356
926	4.630707	0.005000	7.561168	-0.211137	-5.608535	0.029789	-0.147823	-0.656598	0.048962	0.008365	0.003415
927	4.635707	0.005000	7.534080	-0.196200	-5.600943	0.029562	-0.148050	-0.656344	0.035099	0.007997	0.013240
928	4.640707	0.005000	7.566543	-0.242217	-5.637006	0.029334	-0.148278	-0.656090	0.051326	0.005177	0.000335
929	4.645707	0.005000	7.494840	-0.270747	-5.768280	0.029107	-0.148505	-0.655836	0.051553	0.011476	0.003143
930	4.650707	0.005000	7.534080	-0.236998	-5.732156	0.028880	-0.148732	-0.655582	0.053922	0.007360	-0.000369
931	4.655707	0.005000	7.496126	-0.274680	-5.693657	0.028652	-0.148960	-0.655328	0.065061	0.005479	0.005502
932	4.660707	0.005000	7.639411	-0.161090	-5.838501	0.028425	-0.149187	-0.655074	0.042254	0.010380	0.000004
933	4.665707	0.005000	7.651800	-0.299973	-5.715093	0.028358	-0.149173	-0.655449	0.040798	0.008376	-0.000943
934	4.670707	0.005000	7.651800	-0.215835	-5.758462	0.028358	-0.149060	-0.656085	0.052698	0.006566	0.000751
935	4.675707	0.005000	7.573320	-0.235440	-5.674975	0.028358	-0.148946	-0.656720	0.055698	0.004041	-0.000502
936	4.680707	0.005000	7.564183	-0.274680	-5.719903	0.028358	-0.148832	-0.657355	0.048271	0.017754	-0.003467
937	4.685707	0.005000	7.612560	-0.313920	-5.611320	0.028358	-0.148718	-0.657991	0.039292	0.013027	-0.000211
938	4.690707	0.005000	7.534080	-0.295419	-5.731279	0.028358	-0.148604	-0.658626	0.072708	0.001031	0.009358
939	4.695707	0.005000	7.542007	-0.211857	-5.736967	0.028358	-0.148491	-0.659261	0.051472	0.012026	-0.004410
940	4.700707	0.005000	7.599747	-0.261867	-5.703414	0.028358	-0.148377	-0.659897	0.038708	0.003692	0.007114
941	4.705707	0.005000	7.633436	-0.303482	-5.739478	0.028358	-0.148263	-0.660532	0.034744	0.009804	0.002443
942	4.710707	0.005000	7.659394	-0.345566	-5.713852	0.028358	-0.148149	-0.661167	0.052736	0.010464	0.000396
943	4.715707	0.005000	7.647050	-0.274680	-5.733790	0.028358	-0.148035	-0.661802	0.040873	0.007495	0.008720
944	4.720707	0.005000	7.571414	-0.235440	-5.732852	0.028358	-0.147921	-0.662438	0.044986	0.000720	0.004546
945	4.725707	0.005000	7.610684	-0.273742	-5.922426	0.028358	-0.147808	-0.663073	0.054788	0.003480	0.000215
946	4.730707	0.005000	7.655582	-0.310138	-5.811302	0.028156	-0.148097	-0.663408	0.024580	0.005768	0.004511
947	4.735707	0.005000	7.658044	-0.274680	-5.801276	0.027815	-0.148666	-0.663535	0.038958	0.005425	0.008789
948	4.740707	0.005000	7.660801	-0.196200	-5.647323	0.027474	-0.149235	-0.663662	0.041447	0.001280	0.014849
949	4.745707	0.005000	7.706591	-0.223595	-5.689800	0.027132	-0.149804	-0.663789	0.032135	0.003884	0.004777
950	4.750707	0.005000	7.754831	-0.235440	-5.665249	0.026791	-0.150373	-0.663916	0.051575	0.001409	0.012140
951	4.755707	0.005000	7.704397	-0.252972	-5.724865	0.026450	-0.150942	-0.664044	0.048554	0.009727	0.014801
952	4.760707	0.005000	7.572249	-0.236511	-5.711027	0.026108	-0.151511	-0.664171	0.056108	0.003674	0.013199
953	4.765707	0.005000	7.684747	-0.241733	-5.735333	0.025767	-0.152080	-0.664298	0.045970	0.004465	0.010540
954	4.770707	0.005000	7.730280	-0.235440	-5.650560	0.025426	-0.152649	-0.664425	0.040411	0.002296	0.013439
955	4.775707	0.005000	7.651800	-0.324706	-5.789851	0.025084	-0.153218	-0.664552	0.044409	0.003297	0.013132
956	4.780707	0.005000	7.549964	-0.266738	-5.736982	0.024743	-0.153787	-0.664679	0.039248	-0.002902	0.011336
957	4.785707	0.005000	7.573320	-0.308822	-5.679604	0.024402	-0.154356	-0.664806	0.047655	-0.004989	0.008895
958	4.790707	0.005000	7.651800	-0.272399	-5.659685	0.024060	-0.154925	-0.664933	0.040453	0.002782	0.011201
959	4.795707	0.005000	7.690919	-0.274559	-5.729282	0.024043	-0.155008	-0.665000	0.056984	-0.011290	0.008748
960	4.800707	0.005000	7.612560	-0.232475	-5.692765	0.024384	-0.154553	-0.665000	0.041420	-0.003045	0.006492
961	4.805707	0.005000	7.673613	-0.268871	-5.717422	0.024726	-0.154098	-0.665000	0.059716	0.002840	-0.003745
962	4.810707	0.005000	7.752214	-0.187547	-5.711734	0.025067	-0.153643	-0.665000	0.050301	0.007607	0.017415
963	4.815707	0.005000	7.674793	-0.196200	-5.662057	0.025408	-0.153187	-0.665000	0.044349	0.008563	0.017115
964	4.820707	0.005000	7.676699	-0.221099	-5.625661	0.025750	-0.152732	-0.665000	0.052856	0.004600	0.011243
965	4.825707	0.005000	7.584859	-0.274680	-5.650560	0.026091	-0.152277	-0.665000	0.040563	0.013715	0.003544
966	4.830707	0.005000	7.494749	-0.255015	-5.650560	0.026432	-0.151822	-0.665000	0.064373	0.007227	0.014837
967	4.835707	0.005000	7.489243	-0.274680	-5.751459	0.026774	-0.151367	-0.665000	0.050897	0.009674	0.017162
968	4.840707	0.005000	7.626538	-0.274680	-5.756995	0.027115	-0.150912	-0.665000	0.037598	0.004417	0.010483
969	4.845707	0.005000	7.601426	-0.313920	-5.678666	0.027456	-0.150457	-0.665000	0.047892	-0.000160	0.007616
970	4.850707	0.005000	7.486550	-0.344870	-5.658850	0.027798	-0.150001	-0.665000	0.043232	0.008603	0.007396
971	4.855707	0.005000	7.371205	-0.313920	-5.644645	0.028139	-0.149546	-0.665000	0.046227	0.001623	0.015183
972	4.860707	0.005000	7.497911	-0.307778	-5.692871	0.028399	-0.149295	-0.665045	0.066898	-0.001598	0.009306
973	4.865707	0.005000	7.690813	-0.274680	-5.807293	0.028513	-0.149408	-0.665173	0.045302	0.004996	0.001588
974	4.870707	0.005000	7.688423	-0.238057	-5.768280	0.028626	-0.149522	-0.665300	0.054161	0.012823	0.005520
975	4.875707	0.005000	7.651800	-0.229979	-5.729040	0.028740	-0.149636	-0.665427	0.048988	0.008242	0.004499
976	4.880707	0.005000	7.660105	-0.243745	-5.737345	0.028854	-0.149750	-0.665554	0.060307	-0.002976	-0.005787
977	4.885707	0.005000	7.573320	-0.285829	-5.757131	0.028968	-0.149863	-0.665681	0.057054	0.004167	0.006645
978	4.890707	0.005000	7.663645	-0.260983	-5.701645	0.029082	-0.149977	-0.665808	0.069271	0.004438	0.002925
979	4.895707	0.005000	7.628943	-0.258297	-5.689800	0.029196	-0.150091	-0.665935	0.064446	0.003198	0.000647
980	4.900707	0.005000	7.631787	-0.274680	-5.669787	0.029309	-0.150205	-0.666062	0.051416	0.006055	-0.001767
981	4.905707	0.005000	7.499741	-0.279581	-5.684899	0.029423	-0.150318	-0.666189	0.049480	0.007171	0.001394
982	4.910707	0.005000	7.448747	-0.246029	-5.639971	0.029537	-0.150432	-0.666316	0.046479	0.008667	0.004131
983	4.915707	0.005000	7.628837	-0.246922	-5.717558	0.029651	-0.150546	-0.666443	0.049046	0.008533	0.011982
984	4.920707	0.005000	7.629866	-0.300638	-5.729040	0.029765	-0.150660	-0.666571	0.051793	0.007736	0.009082
985	4.925707	0.005000	7.685231	-0.380782	-5.662178	0.029878	-0.150746	-0.666636	0.058947	0.013865	-0.001649
986	4.930707	0.005000	7.721385	-0.268750	-5.768280	0.029992	-0.150746	-0.666509	0.064277	0.004873	0.007213
987	4.935707	0.005000	7.651921	-0.196200	-5.650681	0.030106	-0.150746	-0.666382	0.043987	0.011656	-0.001204
988	4.940707	0.005000	7.727557	-0.196200	-5.689800	0.030220	-0.150746	-0.666255	0.056875	0.009632	-0.004858
989	4.945707	0.005000	7.590020	-0.302786	-5.762713	0.030334	-0.150746	-0.666128	0.042761	0.006072	0.005147
990	4.950707	0.005000	7.682629	-0.305509	-5.712219	0.030447	-0.150746	-0.666001	0.055232	0.014266	-0.001475
991	4.955707	0.005000	7.708678	-0.296282	-5.672162	0.030561	-0.150746	-0.665873	0.051085	0.012943	0.007635
992	4.960707	0.005000	7.639849	-0.261035	-5.664205	0.030675	-0.150746	-0.665746	0.044542	0.016540	0.003432
993	4.965707	0.005000	7.749068	-0.258191	-5.741565	0.030789	-0.150746	-0.665619	0.074090	0.009644	-0.000322
994	4.970707	0.005000	7.710373	-0.235440	-5.689225	0.030903	-0.150746	-0.665492	0.055942	0.019072	0.004106
995	4.975707	0.005000	7.612560	-0.240553	-5.729040	0.031017	-0.150746	-0.665365	0.077172	0.011762	0.004114
996	4.980707	0.005000	7.612560	-0.249660	-5.757479	0.031130	-0.150746	-0.665238	0.051302	0.017783	0.012443
997	4.985707	0.005000	7.596071	-0.291169	-5.655673	0.031244	-0.150746	-0.665110	0.052840	0.011214	0.001865
998	4.990707	0.005000	7.489727	-0.283212	-5.636915	0.031373	-0.150761	-0.664983	0.049610	0.014537	0.009709
999	4.995707	0.005000	7.691040	-0.313920	-5.677486	0.031600	-0.150875	-0.664856	0.049785	0.014576	-0.001662
1000	5.000707	0.005000	7.687727	-0.235440	-5.732353	0.031828	-0.150989	-0.664729	0.060215	0.014093	-0.002878
1001	5.005707	0.005000	7.691040	-0.352691	-5.729040	0.032056	-0.151102	-0.664602	0.064234	0.010550	0.007071
1002	5.010707	0.005000	7.691040	-0.277055	-5.765905	0.032283	-0.151216	-0.664475	0.069472	0.009593	0.001514
1003	5.015707	0.005000	7.730280	-0.128158	-5.616539	0.032511	-0.151330	-0.664348	0.058819	0.012101	0.014852
1004	5.020707	0.005000	7.753394	-0.196200	-5.665612	0.032738	-0.151444	-0.664221	0.054039	0.019570	0.005669
1005	5.025707	0.005000	7.673613	-0.185293	-5.622227	0.032966	-0.151558	-0.664094	0.056629	0.009638	0.004887
1006	5.030707	0.005000	7.589083	-0.300169	-5.662299	0.033193	-0.151672	-0.663967	0.056522	0.012790	0.006725
1007	5.035707	0.005000	7.534080	-0.346579	-5.781442	0.033421	-0.151785	-0.663840	0.057723	0.011088	0.000530
1008	5.040707	0.005000	7.672055	-0.332905	-5.787265	0.033649	-0.151899	-0.663712	0.054175	0.015059	0.010125
1009	5.045707	0.005000	7.573320	-0.257269	-5.685383	0.033876	-0.152013	-0.663585	0.059044	0.008713	0.000357
1010	5.050707	0.005000	7.730280	-0.245545	-5.758175	0.034104	-0.152127	-0.663458	0.048176	0.005216	0.007950
1011	5.055707	0.005000	7.612560	-0.247164	-5.823313	0.034323	-0.152244	-0.663331	0.040296	0.018100	0.002789
1012	5.060707	0.005000	7.573320	-0.313920	-5.729040	0.033982	-0.152585	-0.663204	0.050886	0.004206	-0.002956
1013	5.065707	0.005000	7.612560	-0.353160	-5.873928	0.033640	-0.152927	-0.663077	0.047092	0.016683	0.005752
1014	5.070707	0.005000	7.687379	-0.349499	-5.803859	0.033299	-0.153268	-0.662950	0.040073	0.012279	0.002044
1015	5.075707	0.005000	7.650983	-0.313920	-5.690617	0.032957	-0.153610	-0.662823	0.046282	0.011564	0.003362
1016	5.080707	0.005000	7.612560	-0.351133	-5.654614	0.032616	-0.153951	-0.662696	0.056233	0.013927	0.004823
1017	5.085707	0.005000	7.651800	-0.313920	-5.753667	0.032274	-0.154293	-0.662569	0.058877	0.012885	0.011854
1018	5.090707	0.005000	7.683325	-0.243155	-5.626750	0.031933	-0.154634	-0.662442	0.060205	0.012314	0.017201
1019	5.095707	0.005000	7.651800	-0.313920	-5.611320	0.031591	-0.154976	-0.662315	0.059133	0.011124	0.010307
1020	5.100707	0.005000	7.716877	-0.300517	-5.532840	0.031250	-0.155317	-0.662187	0.052318	0.007465	0.008287
1021	5.105707	0.005000	7.604875	-0.274680	-5.634782	0.030908	-0.155659	-0.662060	0.050344	0.016956	0.009229
1022	5.110707	0.005000	7.689043	-0.256058	-5.731037	0.030567	-0.156000	-0.661933	0.056759	0.007585	0.018052
1023	5.115707	0.005000	7.591094	-0.274680	-5.650560	0.030225	-0.156342	-0.661806	0.052329	0.007875	0.016273
1024	5.120707	0.005000	7.597629	-0.323299	-5.743971	0.029884	-0.156683	-0.661679	0.048099	0.002974	0.009549
1025	5.125707	0.005000	7.546167	-0.262593	-5.753213	0.029542	-0.156201	-0.661897	0.041532	0.012377	0.014737
1026	5.130707	0.005000	7.672555	-0.304677	-5.719797	0.029201	-0.155633	-0.662151	0.049584	0.009739	0.014618
1027	5.135707	0.005000	7.507638	-0.202599	-5.617719	0.028859	-0.155064	-0.662405	0.055176	0.000167	0.010883
1028	5.140707	0.005000	7.573320	-0.317929	-5.615329	0.028518	-0.154495	-0.662659	0.052055	0.008180	0.009526
1029	5.145707	0.005000	7.652965	-0.272350	-5.690965	0.028177	-0.153926	-0.662913	0.047017	0.008319	0.021339
1030	5.150707	0.005000	7.691040	-0.233761	-5.691479	0.027835	-0.153357	-0.663167	0.032420	0.010651	0.009737
1031	5.155707	0.005000	7.647277	-0.209769	-5.689800	0.027494	-0.152788	-0.663421	0.041744	0.005877	0.011862
1032	5.160707	0.005000	7.659167	-0.274680	-5.628459	0.027152	-0.152219	-0.663676	0.030748	0.004101	0.015487
1033	5.165707	0.005000	7.662011	-0.295102	-5.660771	0.026811	-0.151650	-0.663930	0.026962	0.006389	0.007296
1034	5.170707	0.005000	7.691040	-0.248495	-5.715910	0.026470	-0.151081	-0.664184	0.047646	0.010894	0.018718
1035	5.175707	0.005000	7.667416	-0.259064	-5.752664	0.026128	-0.150513	-0.664438	0.041541	0.007743	0.018069
1036	5.180707	0.005000	7.667381	-0.214474	-5.626901	0.025787	-0.149944	-0.664692	0.051907	0.005094	0.006182
1037	5.185707	0.005000	7.591442	-0.253562	-5.635433	0.025445	-0.149375	-0.664946	0.031747	0.014216	0.011909
1038	5.190707	0.005000	7.651800	-0.274680	-5.689800	0.025732	-0.149254	-0.665100	0.016705	0.002537	0.011301
1039	5.195707	0.005000	7.575256	-0.313920	-5.689800	0.026187	-0.149254	-0.665227	0.040586	0.009261	0.008735
1040	5.200707	0.005000	7.602092	-0.274680	-5.660151	0.026642	-0.149254	-0.665354	0.044073	0.005976	0.011382
1041	5.205707	0.005000	7.683839	-0.188999	-5.753879	0.027097	-0.149254	-0.665481	0.052559	0.000143	0.019030
1042	5.210707	0.005000	7.660513	-0.191843	-5.685443	0.027552	-0.149254	-0.665608	0.048551	0.009084	0.014869
1043	5.215707	0.005000	7.728767	-0.199225	-5.729040	0.028007	-0.149254	-0.665736	0.050974	0.005654	0.018690
1044	5.220707	0.005000	7.728949	-0.312589	-5.691131	0.028463	-0.149254	-0.665863	0.048627	0.005436	0.011912
1045	5.225707	0.005000	7.581670	-0.235440	-5.615495	0.028918	-0.149254	-0.665990	0.036656	0.001834	0.009774
1046	5.230707	0.005000	7.612560	-0.260642	-5.604301	0.029373	-0.149254	-0.666117	0.059545	-0.001502	0.018676
1047	5.235707	0.005000	7.651800	-0.284543	-5.719177	0.029828	-0.149254	-0.666244	0.054244	0.012300	0.017228
1048	5.240707	0.005000	7.652919	-0.300094	-5.689800	0.030283	-0.149254	-0.666371	0.064446	0.004810	0.010384
1049	5.245707	0.005000	7.675958	-0.274680	-5.665642	0.030738	-0.149254	-0.666498	0.055481	0.002031	0.006407
1050	5.250707	0.005000	7.615948	-0.160348	-5.636023	0.031193	-0.149254	-0.666625	0.058839	0.002225	0.008643
1051	5.255707	0.005000	7.769520	-0.253910	-5.666731	0.030961	-0.149560	-0.665899	0.058643	0.004734	0.010538
1052	5.260707	0.005000	7.651800	-0.274680	-5.666534	0.030392	-0.150015	-0.664756	0.043930	0.010850	0.008910
1053	5.265707	0.005000	7.677365	-0.261898	-5.676125	0.029823	-0.150470	-0.663612	0.060511	0.010690	0.005791
1054	5.270707	0.005000	7.592450	-0.264625	-5.669690	0.029254	-0.150925	-0.662468	0.046024	0.012772	0.004646
1055	5.275707	0.005000	7.588417	-0.218845	-5.682252	0.028685	-0.151380	-0.661325	0.048264	0.002894	0.011697
1056	5.280707	0.005000	7.534080	-0.309215	-5.685095	0.028117	-0.151835	-0.660181	0.042337	0.007280	0.010565
1057	5.285707	0.005000	7.532204	-0.313920	-5.691676	0.027548	-0.152291	-0.659038	0.045430	0.009437	0.000784
1058	5.290707	0.005000	7.647927	-0.237376	-5.729040	0.026979	-0.152746	-0.657894	0.045599	0.007512	0.014908
1059	5.295707	0.005000	7.541704	-0.270868	-5.654372	0.026410	-0.153201	-0.656750	0.043331	0.009699	0.018511
1060	5.300707	0.005000	7.468912	-0.268024	-5.676488	0.025841	-0.153656	-0.655607	0.038945	0.008656	0.010872
1061	5.305707	0.005000	7.544820	-0.196200	-5.710040	0.025272	-0.154111	-0.654463	0.046268	0.008552	0.010766
1062	5.310707	0.005000	7.624589	-0.262651	-5.686647	0.024703	-0.154566	-0.653320	0.052441	0.004201	0.009188
1063	5.315707	0.005000	7.563548	-0.304148	-5.704534	0.024134	-0.155021	-0.652176	0.068783	0.006394	0.017249
1064	5.320707	0.005000	7.638307	-0.257102	-5.685716	0.023565	-0.155792	-0.651596	0.074989	0.001789	0.009483
1065	5.325707	0.005000	7.612560	-0.293498	-5.707015	0.022996	-0.156817	-0.651469	0.058662	0.007636	0.012002
1066	5.330707	0.005000	7.596586	-0.329894	-5.666534	0.022427	-0.157841	-0.651342	0.063597	0.003939	0.010223
1067	5.335707	0.005000	7.599430	-0.313920	-5.650409	0.021858	-0.158865	-0.651215	0.077753	0.012577	0.015589
1068	5.340707	0.005000	7.605586	-0.324675	-5.711311	0.021289	-0.159889	-0.651088	0.048528	0.007287	0.012977
1069	5.345707	0.005000	7.643888	-0.274680	-5.681888	0.020720	-0.160913	-0.650961	0.051502	0.008021	0.004210
1070	5.350707	0.005000	7.651800	-0.303785	-5.655628	0.020151	-0.161937	-0.650834	0.049162	0.005686	0.007616
1071	5.355707	0.005000	7.691040	-0.270233	-5.617991	0.019582	-0.162961	-0.650707	0.043561	0.005911	0.006180
1072	5.360707	0.005000	7.575181	-0.196200	-5.613181	0.019013	-0.163985	-0.650580	0.067140	0.003998	0.012338
1073	5.365707	0.005000	7.684949	-0.235440	-5.650560	0.018444	-0.165010	-0.650453	0.054742	0.008208	0.014159
1074	5.370707	0.005000	7.612560	-0.207908	-5.762426	0.017875	-0.166034	-0.650326	0.053229	0.012684	0.005618
1075	5.375707	0.005000	7.573320	-0.265982	-5.737738	0.017306	-0.167058	-0.650198	0.056647	0.010269	0.010717
1076	5.380707	0.005000	7.427902	-0.246982	-5.717498	0.016737	-0.168082	-0.650071	0.052668	0.008660	0.004028
1077	5.385707	0.005000	7.467006	-0.260763	-5.742957	0.016418	-0.168707	-0.649944	0.060617	0.005536	0.006817
1078	5.390707	0.005000	7.601517	-0.252201	-5.650560	0.016418	-0.168821	-0.649817	0.060994	0.009804	0.008129
1079	5.395707	0.005000	7.612560	-0.294285	-5.611320	0.016418	-0.168934	-0.649690	0.065856	0.013498	0.013682
1080	5.400707	0.005000	7.590111	-0.285814	-5.583214	0.016418	-0.169048	-0.649563	0.050484	0.010947	0.006131
1081	5.405707	0.005000	7.612560	-0.339213	-5.740385	0.016418	-0.169162	-0.649436	0.062573	0.008470	0.004601
1082	5.410707	0.005000	7.584423	-0.370193	-5.622423	0.016418	-0.169276	-0.649309	0.062080	0.008807	0.010554
1083	5.415707	0.005000	7.612560	-0.297401	-5.720781	0.016418	-0.169389	-0.649182	0.052348	0.008060	0.015606
1084	5.420707	0.005000	7.578736	-0.308504	-5.739871	0.016418	-0.169503	-0.649055	0.052755	0.007935	0.006843
1085	5.425707	0.005000	7.659605	-0.198802	-5.804918	0.016418	-0.169617	-0.648928	0.042166	0.013873	-0.000895
1086	5.430707	0.005000	7.690858	-0.313920	-5.729222	0.016418	-0.169731	-0.648800	0.051141	0.008553	0.010080
1087	5.435707	0.005000	7.724955	-0.277342	-5.768280	0.016418	-0.169844	-0.648673	0.061595	0.010132	0.019510
1088	5.440707	0.005000	7.662813	-0.201706	-5.734546	0.016418	-0.169958	-0.648546	0.053212	0.008572	0.006624
1089	5.445707	0.005000	7.707740	-0.266330	-5.720690	0.016418	-0.170072	-0.648419	0.064420	0.006231	0.000828
1090	5.450707	0.005000	7.612560	-0.274680	-5.757086	0.016601	-0.169746	-0.648497	0.045093	0.018028	-0.000437
1091	5.455707	0.005000	7.612560	-0.260947	-5.754547	0.017170	-0.168494	-0.649005	0.045712	0.010082	0.009287
1092	5.460707	0.005000	7.651800	-0.251853	-5.627733	0.017739	-0.167243	-0.649513	0.045698	0.014072	0.019719
1093	5.465707	0.005000	7.710297	-0.255423	-5.632029	0.018308	-0.165991	-0.650022	0.040484	0.012808	0.011940
1094	5.470707	0.005000	7.595421	-0.274680	-5.729040	0.018877	-0.164739	-0.650530	0.061560	0.010130	0.018244
1095	5.475707	0.005000	7.548844	-0.264968	-5.729040	0.019446	-0.163487	-0.651038	0.052794	0.011705	0.009701
1096	5.480707	0.005000	7.534080	-0.302000	-5.768280	0.020015	-0.162236	-0.651546	0.056238	0.002426	0.015357
