# FOX Logger (IMU file)
# (c) INRIA 2011-2014
# File created from file sensbiotk output
#
# File format:
# id	t	dt	ax	ay	az	mx	my	mz	gx	gy	gz
#
# Units:
#	Time: s
#	Acceleration: m.s^-2
#	Magneto: gauss
#	Gyrometer: rad/s
#
1	0.030640	0.030640	-0.183115	0.209270	-10.450925	-0.185075	0.273134	-0.846667	-0.003250	-0.015611	0.007888
2	0.035640	0.005000	-0.156960	0.078480	-10.437840	-0.185517	0.272251	-0.845557	-0.012325	-0.007719	-0.004126
3	0.040640	0.005000	-0.165687	0.061026	-10.468353	-0.185958	0.271368	-0.844448	-0.012669	-0.018619	-0.006769
4	0.045640	0.005000	-0.189499	0.052643	-10.463677	-0.186400	0.270484	-0.843338	-0.014320	-0.015306	0.007066
5	0.050640	0.005000	-0.082859	0.043619	-10.363739	-0.186841	0.269601	-0.842229	-0.011399	-0.005951	-0.001966
6	0.055640	0.005000	-0.154986	0.115746	-10.437840	-0.187283	0.268718	-0.841119	-0.006058	0.000073	0.009916
7	0.060640	0.005000	-0.078541	0.117690	-10.477050	-0.187725	0.267835	-0.840010	-0.006826	-0.001726	0.005100
8	0.065640	0.005000	-0.193813	0.041627	-10.511545	-0.188166	0.266952	-0.838900	0.001172	-0.018033	0.001009
9	0.070640	0.005000	-0.191465	0.039240	-10.594800	-0.188608	0.266068	-0.837791	-0.006942	-0.005091	0.003360
10	0.075640	0.005000	-0.163696	-0.025767	-10.523056	-0.189049	0.265185	-0.836681	-0.006375	-0.003734	-0.000110
11	0.080640	0.005000	-0.138656	0.129504	-10.516320	-0.189491	0.264302	-0.835572	-0.008156	-0.015197	0.008948
12	0.085640	0.005000	-0.101322	0.122697	-10.460682	-0.189933	0.263419	-0.834462	-0.008971	-0.010786	-0.000514
13	0.090640	0.005000	-0.039240	0.154767	-10.424029	-0.190374	0.262536	-0.833353	-0.007358	-0.012217	0.012593
14	0.095640	0.005000	-0.062564	0.172876	-10.523727	-0.190816	0.261653	-0.832243	-0.004021	-0.002872	-0.000390
15	0.100640	0.005000	-0.138634	0.094219	-10.414339	-0.190833	0.261619	-0.832201	0.003848	-0.007694	-0.003105
16	0.105640	0.005000	-0.175929	0.078480	-10.378329	-0.190391	0.262502	-0.833311	-0.006890	-0.013558	0.003207
17	0.110640	0.005000	-0.235440	0.117720	-10.415159	-0.189949	0.263386	-0.834421	-0.006528	0.001643	0.004419
18	0.115640	0.005000	-0.142514	0.092926	-10.452286	-0.189507	0.264270	-0.835531	0.001382	-0.011335	0.016269
19	0.120640	0.005000	-0.075847	0.063644	-10.425638	-0.189065	0.265153	-0.836641	-0.002162	-0.000106	0.011085
20	0.125640	0.005000	-0.156960	0.107921	-10.457437	-0.188624	0.266037	-0.837751	-0.005952	-0.004731	0.002757
21	0.130640	0.005000	-0.125480	0.086240	-10.524080	-0.188182	0.266920	-0.838861	0.001511	-0.005220	0.009403
22	0.135640	0.005000	-0.185303	0.010897	-10.628592	-0.187740	0.267804	-0.839971	-0.000277	-0.003609	-0.000101
23	0.140640	0.005000	-0.084543	0.075449	-10.594800	-0.187298	0.268687	-0.841081	-0.005497	-0.005957	0.005195
24	0.145640	0.005000	-0.116646	0.077406	-10.553412	-0.186856	0.269571	-0.842191	-0.011471	0.002662	-0.001498
25	0.150640	0.005000	-0.078480	0.153010	-10.401233	-0.186415	0.270455	-0.843301	-0.010702	-0.008921	0.008218
26	0.155640	0.005000	-0.153269	0.185127	-10.370433	-0.185973	0.271338	-0.844411	-0.008900	0.000537	0.010860
27	0.160640	0.005000	-0.117720	0.095514	-10.504964	-0.185531	0.272222	-0.845521	-0.014151	0.002089	0.002999
28	0.165640	0.005000	-0.109636	0.055408	-10.468996	-0.185089	0.273105	-0.846631	-0.012491	-0.011044	0.004227
29	0.170640	0.005000	-0.088857	0.049617	-10.427463	-0.184968	0.272707	-0.846190	-0.007775	-0.008592	-0.006570
30	0.175640	0.005000	-0.117720	0.144518	-10.555560	-0.184858	0.272265	-0.845697	-0.003225	-0.013323	0.014324
31	0.180640	0.005000	-0.039240	0.117720	-10.540709	-0.184747	0.271824	-0.845204	-0.003585	-0.004472	-0.000375
32	0.185640	0.005000	0.022176	0.139896	-10.494144	-0.184637	0.271382	-0.844710	-0.010110	-0.011523	0.000000
33	0.190640	0.005000	-0.020033	0.037587	-10.516320	-0.184526	0.270940	-0.844217	-0.005976	-0.007520	-0.000466
34	0.195640	0.005000	-0.113724	0.000000	-10.498698	-0.184416	0.270499	-0.843724	-0.001592	-0.008649	-0.010401
35	0.200640	0.005000	-0.078480	-0.015505	-10.523596	-0.184306	0.270057	-0.843231	-0.007057	-0.008791	-0.000366
36	0.205640	0.005000	-0.104446	0.039240	-10.463806	-0.184195	0.269616	-0.842738	-0.007182	0.003956	-0.002010
37	0.210640	0.005000	-0.156960	0.106854	-10.544694	-0.184085	0.269174	-0.842245	0.001391	-0.011826	0.009348
38	0.215640	0.005000	-0.187381	0.148141	-10.533958	-0.183974	0.268732	-0.841751	-0.011278	-0.003370	0.008453
39	0.220640	0.005000	-0.228933	0.143946	-10.594800	-0.183864	0.268291	-0.841258	-0.007404	-0.002274	0.002087
40	0.225640	0.005000	-0.239542	0.026935	-10.590698	-0.183753	0.267849	-0.840765	-0.004113	-0.007385	0.011185
41	0.230640	0.005000	-0.196200	0.080164	-10.401968	-0.183643	0.267408	-0.840272	-0.002492	-0.006760	-0.002634
42	0.235640	0.005000	-0.118240	0.117720	-10.438100	-0.183731	0.267214	-0.840221	-0.003644	-0.008206	0.010118
43	0.240640	0.005000	-0.115056	-0.073152	-10.510992	-0.184062	0.267324	-0.840714	-0.003762	0.003249	0.003501
44	0.245640	0.005000	-0.083561	0.063237	-10.482161	-0.184393	0.267434	-0.841207	-0.005548	-0.004427	-0.001993
45	0.250640	0.005000	-0.102926	-0.024446	-10.572608	-0.184724	0.267545	-0.841701	-0.011839	0.000329	0.012424
46	0.255640	0.005000	-0.167907	0.059618	-10.564991	-0.185055	0.267655	-0.842194	-0.006346	-0.011633	0.009303
47	0.260640	0.005000	-0.117720	-0.027532	-10.461257	-0.185387	0.267766	-0.842687	-0.005258	-0.018382	0.009711
48	0.265640	0.005000	-0.194073	0.050902	-10.527982	-0.185718	0.267876	-0.843180	-0.007241	-0.001558	0.008433
49	0.270640	0.005000	-0.104033	0.101522	-10.500122	-0.186049	0.267987	-0.843673	-0.009972	-0.001027	0.012345
50	0.275640	0.005000	-0.018380	0.217060	-10.474599	-0.186380	0.268097	-0.844166	-0.012135	-0.005052	-0.003036
51	0.280640	0.005000	-0.037387	0.177506	-10.475227	-0.186712	0.268207	-0.844659	-0.004660	-0.010526	-0.005724
52	0.285640	0.005000	-0.150287	0.131065	-10.470407	-0.187043	0.268318	-0.845153	-0.009677	-0.012349	0.008781
53	0.290640	0.005000	-0.146068	0.106828	-10.527212	-0.187374	0.268428	-0.845646	-0.005683	-0.005179	-0.001180
54	0.295640	0.005000	-0.129647	0.133107	-10.425913	-0.187705	0.268539	-0.846139	-0.007276	-0.016718	0.012651
55	0.300640	0.005000	-0.205719	0.118883	-10.437840	-0.188036	0.268649	-0.846632	0.000401	0.007148	-0.002685
56	0.305640	0.005000	-0.220464	0.046728	-10.523808	-0.188163	0.268349	-0.846782	-0.012683	-0.007459	0.000485
57	0.310640	0.005000	-0.156960	0.049559	-10.383121	-0.188273	0.268018	-0.846905	-0.009366	-0.011185	0.016379
58	0.315640	0.005000	-0.114543	0.153783	-10.398600	-0.188383	0.267686	-0.847028	-0.010646	-0.013861	0.004698
59	0.320640	0.005000	-0.039240	0.153716	-10.400222	-0.188494	0.267355	-0.847151	-0.001586	-0.009656	0.015995
60	0.325640	0.005000	-0.076892	0.075303	-10.439428	-0.188604	0.267024	-0.847275	-0.017133	0.004016	0.001160
61	0.330640	0.005000	-0.117720	0.078480	-10.441391	-0.188715	0.266692	-0.847398	-0.006366	-0.006601	0.001427
62	0.335640	0.005000	-0.117720	0.039240	-10.398600	-0.188825	0.266361	-0.847521	-0.014013	-0.002994	0.008596
63	0.340640	0.005000	-0.149060	0.055040	-10.500520	-0.188935	0.266029	-0.847645	-0.010522	-0.007798	0.001260
64	0.345640	0.005000	-0.185896	0.000000	-10.487384	-0.189046	0.265698	-0.847768	-0.008858	-0.013289	0.011248
65	0.350640	0.005000	-0.208918	0.092284	-10.385882	-0.189156	0.265367	-0.847891	-0.011973	-0.009688	-0.006316
66	0.355640	0.005000	-0.156960	0.029891	-10.398600	-0.189267	0.265035	-0.848014	-0.014954	-0.011888	0.004983
67	0.360640	0.005000	-0.230342	-0.017071	-10.415671	-0.189377	0.264704	-0.848138	-0.018249	-0.003155	0.001747
68	0.365640	0.005000	-0.057771	0.000000	-10.458549	-0.189487	0.264373	-0.848261	-0.005089	-0.017102	0.017339
69	0.370640	0.005000	-0.074456	0.000000	-10.424256	-0.189460	0.264409	-0.848333	-0.019634	-0.007041	0.003720
70	0.375640	0.005000	-0.078480	0.000000	-10.492482	-0.189239	0.264961	-0.848333	-0.012627	-0.002471	-0.004358
71	0.380640	0.005000	-0.117720	0.012993	-10.463827	-0.189019	0.265513	-0.848333	-0.011000	-0.010452	0.007670
72	0.385640	0.005000	-0.072006	0.106798	-10.555560	-0.188798	0.266065	-0.848333	-0.015272	-0.008704	-0.000729
73	0.390640	0.005000	-0.187565	0.008635	-10.429205	-0.188577	0.266617	-0.848333	-0.010798	-0.009215	-0.001079
74	0.395640	0.005000	-0.210525	0.078480	-10.411058	-0.188356	0.267169	-0.848333	-0.006382	0.001559	0.003140
75	0.400640	0.005000	-0.121956	0.078480	-10.468609	-0.188135	0.267721	-0.848333	-0.007733	-0.004850	0.001206
76	0.405640	0.005000	-0.194332	0.072876	-10.520056	-0.187915	0.268273	-0.848333	-0.002111	-0.008989	0.002007
77	0.410640	0.005000	-0.156960	0.038181	-10.517379	-0.187694	0.268825	-0.848333	-0.008362	-0.004168	-0.008503
78	0.415640	0.005000	-0.120200	-0.002480	-10.479560	-0.187473	0.269377	-0.848333	-0.003789	-0.023578	0.007334
79	0.420640	0.005000	-0.078480	0.009768	-10.408368	-0.187252	0.269929	-0.848333	-0.009740	-0.001666	-0.000569
80	0.425640	0.005000	-0.125020	0.063880	-10.423240	-0.187031	0.270481	-0.848333	-0.010990	-0.010747	0.002496
81	0.430640	0.005000	-0.096967	-0.029996	-10.456327	-0.186811	0.271033	-0.848333	-0.007081	-0.019183	0.004467
82	0.435640	0.005000	-0.156960	-0.039240	-10.421902	-0.186590	0.271585	-0.848333	-0.006087	-0.007832	-0.003203
83	0.440640	0.005000	-0.170862	0.000000	-10.502418	-0.187260	0.270454	-0.845568	0.007202	-0.007008	0.017474
84	0.445640	0.005000	-0.196200	0.108935	-10.555560	-0.188033	0.269128	-0.842485	-0.011095	0.003587	0.002280
85	0.450640	0.005000	-0.177782	0.096898	-10.513916	-0.188807	0.267803	-0.839402	-0.006968	-0.016004	0.006717
86	0.455640	0.005000	-0.156960	0.097132	-10.473207	-0.189580	0.266477	-0.836318	-0.006703	-0.014236	0.004153
87	0.460640	0.005000	-0.094947	0.078480	-10.555560	-0.190353	0.265152	-0.833235	-0.012731	-0.021111	-0.001039
88	0.465640	0.005000	-0.042164	0.103665	-10.437840	-0.191126	0.263826	-0.830152	-0.008199	-0.012699	0.012323
89	0.470640	0.005000	-0.117720	0.063171	-10.531629	-0.191899	0.262501	-0.827068	-0.011502	-0.000660	0.004020
90	0.475640	0.005000	-0.117720	0.097886	-10.585526	-0.192672	0.261175	-0.823985	-0.003196	-0.004746	0.018482
91	0.480640	0.005000	-0.053815	0.125008	-10.445128	-0.193446	0.259850	-0.820902	-0.014791	0.005650	0.007577
92	0.485640	0.005000	-0.078480	0.005343	-10.453870	-0.194219	0.258525	-0.817818	0.000492	-0.014492	0.011748
93	0.490640	0.005000	-0.005879	0.145202	-10.477080	-0.194992	0.257199	-0.814735	-0.005739	-0.012473	0.009749
94	0.495640	0.005000	-0.157943	0.000000	-10.399583	-0.195765	0.255874	-0.811652	-0.014966	-0.002212	-0.002736
95	0.500640	0.005000	-0.082706	0.037831	-10.437840	-0.196538	0.254548	-0.808568	-0.002761	-0.012126	0.010785
96	0.505640	0.005000	-0.121502	0.106375	-10.484644	-0.196846	0.254027	-0.807471	-0.014565	-0.002234	-0.006357
97	0.510640	0.005000	-0.072710	0.229670	-10.443610	-0.196404	0.254800	-0.809566	-0.008537	-0.010430	0.000932
98	0.515640	0.005000	-0.086558	0.094636	-10.547482	-0.195963	0.255573	-0.811662	-0.006575	-0.003824	0.006320
99	0.520640	0.005000	-0.039240	0.059480	-10.496080	-0.195521	0.256346	-0.813758	-0.006096	-0.003971	0.001189
100	0.525640	0.005000	-0.092652	0.131892	-10.448737	-0.195079	0.257119	-0.815853	-0.003562	-0.001340	0.008418
101	0.530640	0.005000	-0.151372	0.063537	-10.398600	-0.194638	0.257891	-0.817949	-0.007045	-0.004385	0.001117
102	0.535640	0.005000	-0.084436	0.016887	-10.499433	-0.194196	0.258664	-0.820045	-0.006127	-0.004419	0.008443
103	0.540640	0.005000	-0.019941	0.137661	-10.536261	-0.193755	0.259437	-0.822141	-0.014617	-0.000587	0.007382
104	0.545640	0.005000	-0.117720	0.060690	-10.494870	-0.193313	0.260210	-0.824236	-0.001564	-0.007203	0.010009
105	0.550640	0.005000	-0.102134	0.039240	-10.539974	-0.192871	0.260983	-0.826332	-0.006344	-0.004148	-0.003100
106	0.555640	0.005000	0.000000	0.130897	-10.477080	-0.192430	0.261755	-0.828428	-0.012080	0.001393	-0.008988
107	0.560640	0.005000	-0.117720	0.146197	-10.448603	-0.191988	0.262528	-0.830524	-0.006395	-0.012428	0.003544
108	0.565640	0.005000	-0.178743	0.061023	-10.446568	-0.191547	0.263301	-0.832619	-0.010402	-0.004691	0.005493
109	0.570640	0.005000	-0.058485	-0.026410	-10.437840	-0.191105	0.264074	-0.834715	-0.006778	-0.010169	0.010601
110	0.575640	0.005000	-0.231430	0.109701	-10.437840	-0.192190	0.263511	-0.834361	-0.004651	0.000538	0.020091
111	0.580640	0.005000	-0.117720	0.152876	-10.481164	-0.193514	0.262738	-0.833621	-0.006767	-0.003750	0.002653
112	0.585640	0.005000	-0.078832	0.039592	-10.438896	-0.194839	0.261966	-0.832882	-0.010257	-0.017495	0.017196
113	0.590640	0.005000	-0.193477	0.078480	-10.482526	-0.196164	0.261193	-0.832142	-0.007802	0.000533	-0.007896
114	0.595640	0.005000	-0.161660	0.142859	-10.511620	-0.197489	0.260420	-0.831402	-0.006344	-0.008194	0.003356
115	0.600640	0.005000	-0.124836	0.039240	-10.477080	-0.198814	0.259647	-0.830662	-0.011617	-0.002753	0.002866
116	0.605640	0.005000	-0.069071	0.147551	-10.466067	-0.200138	0.258874	-0.829923	0.005977	-0.001823	0.002270
117	0.610640	0.005000	-0.050707	0.129187	-10.477080	-0.201463	0.258101	-0.829183	-0.000590	-0.009334	-0.000311
118	0.615640	0.005000	-0.078480	0.039240	-10.398600	-0.202788	0.257329	-0.828443	-0.003419	-0.004001	0.003380
119	0.620640	0.005000	-0.140865	0.055335	-10.398600	-0.204113	0.256556	-0.827704	-0.012161	-0.015103	0.022882
120	0.625640	0.005000	-0.159731	-0.042011	-10.519091	-0.205437	0.255783	-0.826964	-0.017193	-0.016024	0.001473
121	0.630640	0.005000	-0.099125	-0.039240	-10.458485	-0.206762	0.255010	-0.826224	-0.002051	-0.019933	0.008094
122	0.635640	0.005000	-0.095137	0.016657	-10.493737	-0.208087	0.254237	-0.825485	-0.011880	0.002125	0.010332
123	0.640640	0.005000	-0.142712	0.128464	-10.502072	-0.208422	0.254340	-0.825595	-0.016743	-0.004133	-0.006775
124	0.645640	0.005000	-0.102150	0.011835	-10.531890	-0.206876	0.256108	-0.827322	-0.005934	-0.006948	0.016237
125	0.650640	0.005000	-0.147188	0.000000	-10.536016	-0.205329	0.257875	-0.829049	-0.003400	-0.002392	0.006203
126	0.655640	0.005000	-0.117720	-0.007484	-10.452808	-0.203783	0.259642	-0.830775	-0.008858	-0.014495	0.011071
127	0.660640	0.005000	-0.073412	0.078480	-10.477080	-0.202237	0.261409	-0.832502	-0.015557	-0.002900	0.007822
128	0.665640	0.005000	-0.075817	0.117720	-10.443166	-0.200691	0.263177	-0.834229	-0.009775	-0.012669	0.003141
129	0.670640	0.005000	-0.155538	0.155538	-10.594089	-0.199144	0.264944	-0.835955	-0.006940	-0.007489	0.001552
130	0.675640	0.005000	-0.078480	0.003398	-10.405395	-0.197598	0.266711	-0.837682	-0.018313	0.004990	-0.000549
131	0.680640	0.005000	-0.082534	0.066318	-10.468972	-0.196052	0.268478	-0.839409	-0.008726	-0.020727	0.002791
132	0.685640	0.005000	-0.144865	-0.006048	-10.353312	-0.194505	0.270245	-0.841135	-0.008795	-0.007034	0.003674
133	0.690640	0.005000	-0.056166	0.056166	-10.460154	-0.192959	0.272013	-0.842862	-0.008069	-0.010088	0.006172
134	0.695640	0.005000	-0.078480	0.049980	-10.398600	-0.191413	0.273780	-0.844589	-0.012805	-0.004704	0.000840
135	0.700640	0.005000	-0.078480	0.117720	-10.477080	-0.189867	0.275547	-0.846316	-0.008520	-0.001260	0.001696
136	0.705640	0.005000	-0.087265	0.156960	-10.461852	-0.188320	0.277314	-0.848042	-0.000414	-0.008424	0.008380
137	0.710640	0.005000	-0.117720	0.112805	-10.481995	-0.188060	0.277336	-0.848025	-0.008995	-0.012196	0.008788
138	0.715640	0.005000	-0.039240	0.098146	-10.555560	-0.188060	0.277005	-0.847655	-0.001499	-0.008388	0.014849
139	0.720640	0.005000	-0.021723	0.004205	-10.402805	-0.188060	0.276674	-0.847285	-0.006864	-0.006598	0.000475
140	0.725640	0.005000	-0.030620	0.045931	-10.350740	-0.188060	0.276342	-0.846915	-0.007439	-0.010218	-0.002419
141	0.730640	0.005000	-0.144059	0.039240	-10.489446	-0.188060	0.276011	-0.846545	-0.010990	-0.013853	0.012662
142	0.735640	0.005000	-0.146129	0.067649	-10.555560	-0.188060	0.275680	-0.846175	-0.018118	-0.013919	-0.002494
143	0.740640	0.005000	-0.109177	-0.030697	-10.507777	-0.188060	0.275348	-0.845805	0.001710	-0.013433	0.013568
144	0.745640	0.005000	-0.045377	0.123857	-10.359360	-0.188060	0.275017	-0.845435	-0.006985	-0.004449	-0.001574
145	0.750640	0.005000	-0.113575	0.074335	-10.472935	-0.188060	0.274685	-0.845065	-0.000805	-0.000157	0.005636
146	0.755640	0.005000	-0.114168	0.080256	-10.514544	-0.188060	0.274354	-0.844695	-0.019458	-0.005420	0.018052
147	0.760640	0.005000	-0.077860	0.156340	-10.438460	-0.188060	0.274023	-0.844325	-0.010502	-0.011791	0.000556
148	0.765640	0.005000	-0.081490	0.003010	-10.516320	-0.188060	0.273691	-0.843955	-0.000789	-0.010034	0.008936
149	0.770640	0.005000	-0.156960	0.083469	-10.447818	-0.188060	0.273360	-0.843585	-0.007092	-0.001576	-0.008741
150	0.775640	0.005000	-0.235440	0.095536	-10.398600	-0.188095	0.273099	-0.843333	-0.012782	-0.000125	0.005398
151	0.780640	0.005000	-0.127417	0.147263	-10.467383	-0.188206	0.272988	-0.843333	-0.018580	-0.002653	0.007468
152	0.785640	0.005000	-0.160971	0.050983	-10.441851	-0.188316	0.272878	-0.843333	0.000420	-0.009240	-0.004887
153	0.790640	0.005000	-0.210356	0.061094	-10.437840	-0.188426	0.272768	-0.843333	-0.004247	-0.002542	0.007330
154	0.795640	0.005000	-0.173328	0.055608	-10.516320	-0.188537	0.272657	-0.843333	-0.005290	0.001710	-0.008271
155	0.800640	0.005000	-0.115500	0.136230	-10.493370	-0.188647	0.272547	-0.843333	-0.005803	-0.005299	0.008215
156	0.805640	0.005000	-0.099401	0.000000	-10.479682	-0.188758	0.272436	-0.843333	-0.017326	0.003665	0.000583
157	0.810640	0.005000	-0.023054	0.071612	-10.516320	-0.188868	0.272326	-0.843333	-0.008683	-0.006271	0.002145
158	0.815640	0.005000	-0.039240	0.078480	-10.451803	-0.188978	0.272216	-0.843333	-0.013600	-0.009546	0.013771
159	0.820640	0.005000	-0.145405	0.050795	-10.516320	-0.189089	0.272105	-0.843333	-0.000559	0.002374	0.003515
160	0.825640	0.005000	-0.078480	0.106980	-10.594800	-0.189199	0.271995	-0.843333	-0.015677	-0.007150	0.003368
161	0.830640	0.005000	-0.085676	0.142568	-10.562756	-0.189310	0.271884	-0.843333	-0.015726	-0.004504	0.007839
162	0.835640	0.005000	-0.117720	0.147380	-10.590010	-0.189420	0.271774	-0.843333	-0.002592	-0.014471	0.011407
163	0.840640	0.005000	-0.044867	0.072853	-10.440654	-0.189530	0.271664	-0.843333	-0.009117	-0.004279	0.010744
164	0.845640	0.005000	-0.156531	-0.077194	-10.437411	-0.189463	0.271553	-0.843532	-0.007909	-0.015608	0.007374
165	0.850640	0.005000	-0.155009	0.076529	-10.361311	-0.189353	0.271443	-0.843778	-0.009765	-0.015514	0.006378
166	0.855640	0.005000	-0.047079	0.082399	-10.406439	-0.189242	0.271332	-0.844025	-0.012947	-0.006981	-0.001229
167	0.860640	0.005000	-0.051886	0.051886	-10.542914	-0.189132	0.271222	-0.844272	-0.011974	-0.007159	0.002443
168	0.865640	0.005000	-0.117720	0.061205	-10.468442	-0.189021	0.271111	-0.844519	-0.004339	0.002243	0.003939
169	0.870640	0.005000	-0.010682	0.039240	-10.594800	-0.188911	0.271001	-0.844765	-0.000488	-0.012951	-0.004981
170	0.875640	0.005000	-0.078449	0.026150	-10.490170	-0.188801	0.270890	-0.845012	-0.007564	-0.002898	0.004843
171	0.880640	0.005000	-0.235440	0.087072	-10.366092	-0.188690	0.270780	-0.845259	-0.013863	-0.003426	-0.001467
172	0.885640	0.005000	-0.174407	0.135167	-10.315774	-0.188580	0.270669	-0.845505	-0.000741	-0.011688	0.005945
173	0.890640	0.005000	-0.176580	0.156960	-10.437840	-0.188469	0.270559	-0.845752	-0.003861	0.000231	0.009414
174	0.895640	0.005000	-0.174398	0.122083	-10.520683	-0.188359	0.270448	-0.845999	-0.009738	-0.022285	0.005217
175	0.900640	0.005000	-0.156960	0.005846	-10.447023	-0.188249	0.270338	-0.846246	-0.012312	-0.011615	0.002615
176	0.905640	0.005000	-0.222506	0.052612	-10.437840	-0.188138	0.270227	-0.846492	0.000458	-0.007439	0.004930
177	0.910640	0.005000	-0.107049	-0.096378	-10.544889	-0.188060	0.270246	-0.846667	-0.008010	-0.007956	0.007997
178	0.915640	0.005000	-0.148696	0.109456	-10.555560	-0.188060	0.270577	-0.846667	-0.009795	-0.006896	-0.000604
179	0.920640	0.005000	-0.084728	0.084728	-10.365608	-0.188060	0.270908	-0.846667	-0.008283	-0.010605	0.011032
180	0.925640	0.005000	-0.153103	0.039240	-10.480937	-0.188060	0.271239	-0.846667	-0.012467	0.002085	0.006344
181	0.930640	0.005000	-0.155460	0.155460	-10.552559	-0.188060	0.271571	-0.846667	-0.012417	-0.006903	-0.003974
182	0.935640	0.005000	-0.156067	0.002678	-10.477080	-0.188060	0.271902	-0.846667	0.001010	-0.017740	0.009374
183	0.940640	0.005000	-0.159808	0.078480	-10.510625	-0.188060	0.272233	-0.846667	-0.002523	-0.012815	0.003971
184	0.945640	0.005000	-0.151695	0.015794	-10.482345	-0.188060	0.272564	-0.846667	-0.004856	-0.025341	0.009267
185	0.950640	0.005000	-0.046819	0.024083	-10.477080	-0.188060	0.272896	-0.846667	-0.006048	0.002986	-0.003285
186	0.955640	0.005000	-0.078480	0.009615	-10.467465	-0.188060	0.273227	-0.846667	-0.000419	-0.005359	-0.000309
187	0.960640	0.005000	-0.066451	0.024058	-10.449869	-0.188060	0.273558	-0.846667	-0.013076	-0.008207	-0.004425
188	0.965640	0.005000	-0.142695	0.064215	-10.502055	-0.188060	0.273889	-0.846667	-0.006859	-0.011523	-0.007942
189	0.970640	0.005000	-0.202676	-0.062098	-10.545654	-0.188060	0.274221	-0.846667	-0.006031	-0.006505	0.006581
190	0.975640	0.005000	-0.134861	-0.116067	-10.514667	-0.188060	0.274552	-0.846667	-0.008894	-0.003181	-0.006900
191	0.980640	0.005000	-0.057275	0.032902	-10.441009	-0.188060	0.274456	-0.846762	-0.005840	-0.008967	-0.004893
192	0.985640	0.005000	-0.094571	0.117720	-10.382509	-0.188060	0.274236	-0.846885	-0.007085	-0.008532	0.002137
193	0.990640	0.005000	-0.052922	0.052922	-10.398600	-0.188060	0.274015	-0.847009	0.004878	-0.015249	0.003172
194	0.995640	0.005000	-0.094515	0.062445	-10.504717	-0.188060	0.273794	-0.847132	-0.016106	-0.017287	0.008396
195	1.000640	0.005000	0.050508	0.039240	-10.398600	-0.188060	0.273573	-0.847255	-0.018565	-0.003422	-0.002503
196	1.005640	0.005000	-0.006920	0.071560	-10.345520	-0.188060	0.273352	-0.847378	-0.009126	-0.006092	0.000415
197	1.010640	0.005000	-0.069451	-0.064936	-10.398600	-0.188060	0.273132	-0.847502	-0.009135	-0.008060	0.002694
198	1.015640	0.005000	-0.110007	0.083622	-10.322691	-0.188060	0.272911	-0.847625	-0.008658	-0.012021	-0.001718
199	1.020640	0.005000	-0.117567	0.117567	-10.320426	-0.188060	0.272690	-0.847748	-0.006205	-0.012566	0.005174
200	1.025640	0.005000	-0.115929	0.041031	-10.473499	-0.188060	0.272469	-0.847871	-0.003842	-0.014431	0.006853
201	1.030640	0.005000	-0.109330	-0.008390	-10.437840	-0.188060	0.272248	-0.847995	-0.008352	-0.023249	0.013345
202	1.035640	0.005000	-0.143737	-0.032629	-10.470469	-0.188060	0.272028	-0.848118	-0.007645	-0.002329	-0.005345
203	1.040640	0.005000	-0.117720	0.056350	-10.424265	-0.188060	0.271807	-0.848241	-0.007214	-0.020296	0.001219
204	1.045640	0.005000	-0.010962	0.089442	-10.494396	-0.188088	0.271614	-0.848239	-0.016234	-0.008308	-0.000707
205	1.050640	0.005000	-0.065992	-0.025864	-10.554672	-0.188198	0.271504	-0.847869	0.000406	-0.011134	0.011068
206	1.055640	0.005000	-0.086528	0.125768	-10.500724	-0.188309	0.271393	-0.847500	0.001286	-0.012899	0.004091
207	1.060640	0.005000	-0.135449	0.131668	-10.498591	-0.188419	0.271283	-0.847130	-0.005615	-0.007636	-0.002129
208	1.065640	0.005000	-0.019100	0.097580	-10.459021	-0.188529	0.271172	-0.846760	0.002843	-0.013920	0.012828
209	1.070640	0.005000	-0.112395	0.173918	-10.437840	-0.188640	0.271062	-0.846390	-0.007274	-0.007654	0.002482
210	1.075640	0.005000	-0.102976	0.063736	-10.491824	-0.188750	0.270951	-0.846020	-0.008071	-0.014442	0.010342
211	1.080640	0.005000	-0.130381	0.091141	-10.411261	-0.188860	0.270841	-0.845650	-0.003617	-0.008827	0.006106
212	1.085640	0.005000	-0.117720	0.107449	-10.398600	-0.188971	0.270731	-0.845281	-0.017334	-0.006369	-0.001777
213	1.090640	0.005000	-0.109731	-0.062502	-10.445829	-0.189081	0.270620	-0.844911	-0.011301	-0.008087	0.002908
214	1.095640	0.005000	-0.101001	0.005573	-10.437840	-0.189192	0.270510	-0.844541	-0.013744	-0.004691	0.002762
215	1.100640	0.005000	-0.085737	0.149703	-10.405857	-0.189302	0.270399	-0.844171	-0.006550	-0.014296	0.007258
216	1.105640	0.005000	-0.194976	0.039240	-10.402273	-0.189412	0.270289	-0.843801	-0.008860	-0.005877	-0.001379
217	1.110640	0.005000	-0.195480	0.116281	-10.362238	-0.189523	0.270178	-0.843431	0.001827	-0.007325	-0.000108
218	1.115640	0.005000	-0.075343	0.153823	-10.437840	-0.189309	0.270068	-0.843333	-0.010117	-0.013939	0.011015
219	1.120640	0.005000	-0.151484	0.117720	-10.482556	-0.188977	0.269958	-0.843333	-0.011306	-0.008260	-0.004871
220	1.125640	0.005000	-0.117720	0.102747	-10.492053	-0.188646	0.269847	-0.843333	-0.009336	-0.014811	0.013047
221	1.130640	0.005000	-0.156960	0.068578	-10.506418	-0.188315	0.269737	-0.843333	-0.009700	-0.003393	0.003608
222	1.135640	0.005000	-0.093395	0.156960	-10.491995	-0.187984	0.269626	-0.843333	-0.009074	-0.016672	0.006850
223	1.140640	0.005000	-0.092734	0.103466	-10.502066	-0.187652	0.269516	-0.843333	-0.009589	-0.016712	0.001929
224	1.145640	0.005000	-0.101054	0.162867	-10.477080	-0.187321	0.269405	-0.843333	-0.007441	-0.004298	-0.004834
225	1.150640	0.005000	-0.076937	0.116177	-10.362446	-0.186990	0.269295	-0.843333	-0.011678	-0.006521	0.010315
226	1.155640	0.005000	-0.057467	0.042025	-10.495307	-0.186658	0.269185	-0.843333	-0.002745	-0.011510	-0.002684
227	1.160640	0.005000	-0.156960	0.070871	-10.508114	-0.186327	0.269074	-0.843333	-0.010051	-0.015901	0.006711
228	1.165640	0.005000	-0.168789	0.143255	-10.451545	-0.185996	0.268964	-0.843333	-0.010124	-0.000961	0.011522
229	1.170640	0.005000	-0.129183	0.140646	-10.359360	-0.185664	0.268853	-0.843333	-0.003615	-0.010435	-0.005293
230	1.175640	0.005000	-0.117720	0.099623	-10.483082	-0.185333	0.268743	-0.843333	-0.005224	-0.009688	0.012751
231	1.180640	0.005000	-0.156960	0.124739	-10.484099	-0.185099	0.268559	-0.843442	-0.007492	-0.004843	-0.001970
232	1.185640	0.005000	-0.122418	0.087877	-10.536766	-0.185210	0.268118	-0.843935	-0.004605	-0.025056	0.007354
233	1.190640	0.005000	-0.266511	0.078480	-10.440563	-0.185320	0.267676	-0.844428	-0.011181	-0.007629	0.011696
234	1.195640	0.005000	-0.118057	0.039577	-10.437503	-0.185430	0.267235	-0.844921	-0.008251	-0.012103	0.009737
235	1.200640	0.005000	-0.194158	0.078480	-10.435798	-0.185541	0.266793	-0.845415	-0.006319	0.000703	0.005444
236	1.205640	0.005000	-0.196200	0.109697	-10.402611	-0.185651	0.266351	-0.845908	-0.009006	-0.007513	-0.000972
237	1.210640	0.005000	-0.150607	0.156960	-10.404953	-0.185762	0.265910	-0.846401	-0.005144	-0.010883	0.007747
238	1.215640	0.005000	-0.041857	0.173703	-10.446211	-0.185872	0.265468	-0.846894	-0.011293	0.002141	-0.000156
239	1.220640	0.005000	-0.135403	0.071575	-10.494763	-0.185982	0.265027	-0.847387	-0.006997	-0.014505	0.003502
240	1.225640	0.005000	-0.235440	0.078480	-10.542369	-0.186093	0.264585	-0.847880	-0.012302	-0.000696	0.007952
241	1.230640	0.005000	-0.069493	0.054366	-10.461954	-0.186203	0.264143	-0.848373	-0.010720	-0.008317	-0.000119
242	1.235640	0.005000	-0.060475	0.060475	-10.473850	-0.186313	0.263702	-0.848867	-0.004590	-0.010320	0.014855
243	1.240640	0.005000	-0.097540	-0.001119	-10.477080	-0.186424	0.263260	-0.849360	-0.009337	-0.003771	-0.002747
244	1.245640	0.005000	-0.134601	0.000000	-10.443319	-0.186534	0.262819	-0.849853	-0.005699	-0.018935	0.016714
245	1.250640	0.005000	-0.181732	0.028936	-10.491548	-0.186722	0.262609	-0.848009	-0.013546	-0.003863	0.012434
246	1.255640	0.005000	-0.115602	0.066106	-10.503946	-0.186943	0.262499	-0.845172	-0.007873	-0.008886	0.003621
247	1.260640	0.005000	-0.225324	0.068364	-10.526436	-0.187164	0.262388	-0.842336	-0.014608	-0.013971	0.015461
248	1.265640	0.005000	-0.171966	0.101564	-10.493236	-0.187385	0.262278	-0.839499	-0.007114	-0.007256	0.001572
249	1.270640	0.005000	-0.039240	0.000000	-10.589043	-0.187606	0.262168	-0.836662	-0.003758	-0.008881	0.010940
250	1.275640	0.005000	-0.117720	0.081832	-10.473728	-0.187826	0.262057	-0.833826	-0.018709	-0.003549	0.006164
251	1.280640	0.005000	-0.078480	0.042023	-10.558343	-0.188047	0.261947	-0.830989	-0.007677	-0.010954	0.010391
252	1.285640	0.005000	-0.002020	0.079490	-10.519350	-0.188268	0.261836	-0.828152	-0.013780	-0.000607	0.014444
253	1.290640	0.005000	-0.110973	0.003373	-10.545440	-0.188489	0.261726	-0.825316	-0.010193	-0.010519	0.006119
254	1.295640	0.005000	-0.151601	0.078480	-10.516320	-0.188710	0.261615	-0.822479	-0.011319	-0.010296	0.010216
255	1.300640	0.005000	-0.188438	-0.031478	-10.406362	-0.188931	0.261505	-0.819642	-0.011481	-0.011975	0.007267
256	1.305640	0.005000	-0.137839	0.097601	-10.438838	-0.189152	0.261394	-0.816805	-0.012531	-0.013134	0.010786
257	1.310640	0.005000	-0.117720	0.105599	-10.398600	-0.189373	0.261284	-0.813969	-0.019500	0.008442	0.004394
258	1.315640	0.005000	-0.043067	0.018183	-10.516320	-0.189719	0.261194	-0.811876	-0.002886	-0.019657	0.003127
259	1.320640	0.005000	-0.032948	0.072188	-10.516320	-0.190602	0.261194	-0.812986	-0.011461	-0.007031	0.001082
260	1.325640	0.005000	-0.120658	0.079949	-10.437840	-0.191485	0.261194	-0.814095	-0.014180	-0.004017	-0.003696
261	1.330640	0.005000	-0.196200	0.060282	-10.437840	-0.192368	0.261194	-0.815205	-0.003591	-0.005408	0.011391
262	1.335640	0.005000	-0.087237	-0.039240	-10.453839	-0.193252	0.261194	-0.816314	-0.016403	0.002475	-0.000682
263	1.340640	0.005000	-0.182610	0.131310	-10.425780	-0.194135	0.261194	-0.817424	-0.002131	-0.005436	-0.000118
264	1.345640	0.005000	-0.133936	0.145448	-10.442545	-0.195018	0.261194	-0.818533	-0.010530	-0.007730	0.007126
265	1.350640	0.005000	-0.117720	0.126952	-10.400912	-0.195901	0.261194	-0.819643	-0.009774	-0.000840	-0.002252
266	1.355640	0.005000	-0.124921	0.156960	-10.405801	-0.196785	0.261194	-0.820752	-0.005725	-0.011729	0.014006
267	1.360640	0.005000	-0.083362	0.034358	-10.315238	-0.197668	0.261194	-0.821862	-0.007228	-0.002002	-0.009467
268	1.365640	0.005000	-0.078480	0.002465	-10.440305	-0.198551	0.261194	-0.822971	-0.006606	-0.010147	-0.005513
269	1.370640	0.005000	-0.078480	0.076892	-10.477609	-0.199434	0.261194	-0.824081	-0.009724	-0.005437	0.002214
270	1.375640	0.005000	-0.153195	-0.001882	-10.516320	-0.200318	0.261194	-0.825190	-0.006452	-0.011042	0.004948
271	1.380640	0.005000	-0.191964	0.039240	-10.411307	-0.201201	0.261194	-0.826300	-0.009615	-0.006701	0.005996
272	1.385640	0.005000	-0.169422	0.084711	-10.524404	-0.201124	0.261490	-0.827409	-0.022547	-0.000925	-0.000984
273	1.390640	0.005000	-0.165607	0.131019	-10.468433	-0.200572	0.261931	-0.828519	-0.009785	-0.009389	0.014966
274	1.395640	0.005000	-0.167882	0.084954	-10.470606	-0.200020	0.262373	-0.829629	-0.008552	-0.004378	-0.005600
275	1.400640	0.005000	-0.104477	0.130718	-10.280635	-0.199467	0.262814	-0.830738	-0.008462	-0.012383	0.007394
276	1.405640	0.005000	-0.015233	0.063247	-10.437840	-0.198915	0.263256	-0.831848	-0.009554	-0.003271	0.011919
277	1.410640	0.005000	-0.061125	0.061125	-10.332945	-0.198363	0.263697	-0.832957	-0.006347	-0.002896	0.003209
278	1.415640	0.005000	-0.117429	0.078480	-10.457315	-0.197811	0.264139	-0.834067	-0.010074	-0.001733	0.007230
279	1.420640	0.005000	-0.213521	0.091202	-10.481679	-0.197259	0.264581	-0.835176	-0.004458	-0.001123	0.003545
280	1.425640	0.005000	-0.172081	0.000000	-10.431718	-0.196707	0.265022	-0.836286	-0.003723	-0.012217	0.013994
281	1.430640	0.005000	-0.169667	-0.001118	-10.464373	-0.196155	0.265464	-0.837395	-0.001968	0.000203	0.007771
282	1.435640	0.005000	-0.174931	0.089114	-10.448474	-0.195603	0.265905	-0.838505	-0.004253	-0.010700	-0.002974
283	1.440640	0.005000	-0.109361	0.000000	-10.477080	-0.195051	0.266347	-0.839614	-0.011931	-0.016686	0.005898
284	1.445640	0.005000	-0.078480	-0.032902	-10.509982	-0.194499	0.266789	-0.840724	-0.009524	0.000914	0.001100
285	1.450640	0.005000	-0.008019	-0.070461	-10.516320	-0.193980	0.267247	-0.841741	0.006475	-0.022666	0.003724
286	1.455640	0.005000	-0.116128	0.075295	-10.397008	-0.193649	0.267799	-0.842234	-0.009278	0.000396	-0.004036
287	1.460640	0.005000	-0.039592	0.077776	-10.398248	-0.193318	0.268351	-0.842728	-0.013143	-0.007883	0.001393
288	1.465640	0.005000	-0.005446	0.039240	-10.437840	-0.192986	0.268904	-0.843221	-0.008587	-0.008688	0.007401
289	1.470640	0.005000	-0.182099	0.078480	-10.442540	-0.192655	0.269456	-0.843714	-0.003872	-0.008335	0.000803
290	1.475640	0.005000	-0.156960	-0.032124	-10.548444	-0.192323	0.270008	-0.844207	-0.005178	-0.016621	0.007076
291	1.480640	0.005000	-0.117720	0.021120	-10.425780	-0.191992	0.270560	-0.844701	-0.010788	-0.004232	0.001047
292	1.485640	0.005000	-0.089947	0.140655	-10.403438	-0.191661	0.271113	-0.845194	-0.011186	-0.009601	0.001399
293	1.490640	0.005000	-0.051657	0.026823	-10.425423	-0.191329	0.271665	-0.845687	-0.013706	-0.016304	0.012835
294	1.495640	0.005000	-0.196200	0.023415	-10.414425	-0.190998	0.272217	-0.846181	-0.013359	-0.020476	0.006493
295	1.500640	0.005000	-0.099703	-0.003207	-10.480287	-0.190666	0.272770	-0.846674	-0.007941	-0.013444	0.003363
296	1.505640	0.005000	-0.116602	0.098659	-10.535381	-0.190335	0.273322	-0.847167	0.001356	-0.015779	-0.006518
297	1.510640	0.005000	-0.196200	0.067748	-10.538903	-0.190004	0.273874	-0.847661	0.000855	-0.018325	0.016163
298	1.515640	0.005000	-0.156960	0.049054	-10.462367	-0.189672	0.274426	-0.848154	-0.013003	-0.007089	0.007423
299	1.520640	0.005000	-0.210831	0.039240	-10.462449	-0.189341	0.274486	-0.848019	-0.014211	-0.019433	0.000209
300	1.525640	0.005000	-0.186310	0.068590	-10.418059	-0.189010	0.274266	-0.847526	-0.007120	-0.013577	0.000602
301	1.530640	0.005000	-0.188254	0.062588	-10.469134	-0.188679	0.274045	-0.847033	-0.007875	-0.007235	-0.004639
302	1.535640	0.005000	-0.156960	0.005540	-10.443380	-0.188348	0.273824	-0.846540	-0.008961	-0.008801	0.005300
303	1.540640	0.005000	-0.192645	0.035685	-10.469970	-0.188016	0.273603	-0.846047	-0.006552	0.004852	0.001877
304	1.545640	0.005000	-0.039240	-0.036882	-10.473543	-0.187685	0.273382	-0.845554	-0.009448	-0.012837	0.001827
305	1.550640	0.005000	-0.039240	0.039240	-10.397835	-0.187354	0.273162	-0.845061	-0.020207	0.000999	0.005673
306	1.555640	0.005000	-0.003169	0.068972	-10.395431	-0.187023	0.272941	-0.844567	-0.008524	0.006289	0.006720
307	1.560640	0.005000	-0.067437	0.112199	-10.331163	-0.186692	0.272720	-0.844074	-0.000336	-0.010428	0.014504
308	1.565640	0.005000	-0.132779	0.039240	-10.383541	-0.186361	0.272499	-0.843581	-0.015720	0.001583	-0.001954
309	1.570640	0.005000	-0.058607	0.039240	-10.339993	-0.186030	0.272278	-0.843088	-0.008277	-0.016039	0.009870
310	1.575640	0.005000	-0.132545	0.078480	-10.398600	-0.185698	0.272058	-0.842595	-0.011813	-0.003105	-0.001777
311	1.580640	0.005000	-0.156960	0.128391	-10.459182	-0.185367	0.271837	-0.842102	-0.001939	-0.010858	0.006840
312	1.585640	0.005000	-0.156960	0.163192	-10.460576	-0.185062	0.271655	-0.841681	-0.005055	0.003854	0.014964
313	1.590640	0.005000	-0.175601	0.136361	-10.493762	-0.184952	0.271765	-0.841805	-0.001135	0.001825	0.005498
314	1.595640	0.005000	-0.138772	0.021052	-10.456028	-0.184841	0.271876	-0.841928	0.004738	-0.009009	0.003355
315	1.600640	0.005000	-0.117720	0.000000	-10.477080	-0.184731	0.271986	-0.842051	-0.009694	-0.008746	-0.001450
316	1.605640	0.005000	-0.039240	-0.050810	-10.518585	-0.184620	0.272096	-0.842174	-0.004581	-0.012946	0.003225
317	1.610640	0.005000	-0.117720	0.067059	-10.488501	-0.184510	0.272207	-0.842298	-0.015876	-0.005883	0.004753
318	1.615640	0.005000	-0.108356	0.000000	-10.506956	-0.184399	0.272317	-0.842421	-0.008638	-0.017137	0.008514
319	1.620640	0.005000	-0.078480	0.064339	-10.491221	-0.184289	0.272427	-0.842544	-0.001438	-0.009384	0.008619
320	1.625640	0.005000	-0.083134	0.117720	-10.525629	-0.184179	0.272538	-0.842667	-0.014394	-0.004777	-0.001277
321	1.630640	0.005000	-0.039240	0.002710	-10.667860	-0.184068	0.272648	-0.842791	-0.002863	-0.005641	0.005469
322	1.635640	0.005000	-0.039240	0.157266	-10.516626	-0.183958	0.272759	-0.842914	-0.003912	-0.002087	0.000282
323	1.640640	0.005000	-0.076842	0.083395	-10.555560	-0.183847	0.272869	-0.843037	-0.002215	-0.017271	0.001364
324	1.645640	0.005000	-0.047351	0.039240	-10.481136	-0.183737	0.272979	-0.843160	-0.013135	-0.016002	0.006063
325	1.650640	0.005000	-0.144193	0.098569	-10.444224	-0.183626	0.273090	-0.843283	-0.009559	-0.009637	0.005770
326	1.655640	0.005000	-0.126122	0.056044	-10.577996	-0.183714	0.273134	-0.843702	-0.005449	-0.019604	0.013304
327	1.660640	0.005000	-0.117720	0.039240	-10.505511	-0.183935	0.273134	-0.844318	-0.009968	-0.004835	0.005478
328	1.665640	0.005000	-0.170030	0.117750	-10.568630	-0.184156	0.273134	-0.844935	0.002772	-0.011174	0.000334
329	1.670640	0.005000	-0.102554	0.172126	-10.453006	-0.184376	0.273134	-0.845551	-0.014702	0.000754	0.000815
330	1.675640	0.005000	-0.139594	0.056606	-10.455206	-0.184597	0.273134	-0.846168	-0.009850	-0.008225	-0.007889
331	1.680640	0.005000	-0.098236	-0.097964	-10.555832	-0.184818	0.273134	-0.846784	-0.009644	-0.006643	0.018048
332	1.685640	0.005000	-0.135029	-0.004622	-10.459771	-0.185039	0.273134	-0.847401	0.000830	-0.000403	0.000928
333	1.690640	0.005000	-0.220543	0.048686	-10.437840	-0.185260	0.273134	-0.848017	-0.001222	-0.014044	0.009458
334	1.695640	0.005000	-0.144162	0.000000	-10.412245	-0.185480	0.273134	-0.848633	-0.007493	-0.009052	0.006843
335	1.700640	0.005000	-0.164566	-0.028695	-10.388055	-0.185701	0.273134	-0.849250	-0.003728	-0.019677	0.005630
336	1.705640	0.005000	-0.095483	0.117720	-10.398600	-0.185922	0.273134	-0.849866	-0.007101	-0.007182	0.005811
337	1.710640	0.005000	-0.099386	0.138626	-10.365471	-0.186143	0.273134	-0.850483	-0.010117	-0.006863	-0.008799
338	1.715640	0.005000	-0.110160	0.043020	-10.363140	-0.186364	0.273134	-0.851099	-0.008838	-0.013764	0.005312
339	1.720640	0.005000	-0.117720	-0.076665	-10.516320	-0.186558	0.273143	-0.851589	-0.011460	-0.012841	-0.006197
340	1.725640	0.005000	-0.156394	-0.000566	-10.516320	-0.186448	0.273253	-0.850602	-0.012346	-0.010893	-0.003294
341	1.730640	0.005000	-0.156960	0.069631	-10.437840	-0.186337	0.273364	-0.849616	-0.010881	-0.009912	-0.002525
342	1.735640	0.005000	-0.161888	0.117720	-10.427984	-0.186227	0.273474	-0.848629	-0.008597	-0.007594	0.004803
343	1.740640	0.005000	-0.085726	0.060978	-10.437840	-0.186117	0.273585	-0.847642	-0.000018	-0.002796	0.005040
344	1.745640	0.005000	-0.156960	-0.088812	-10.605132	-0.186006	0.273695	-0.846655	-0.005719	-0.007477	0.000344
345	1.750640	0.005000	-0.141105	0.078480	-10.634040	-0.185896	0.273806	-0.845669	-0.007589	-0.012461	0.009680
346	1.755640	0.005000	-0.092412	-0.011376	-10.583424	-0.185785	0.273916	-0.844682	-0.011870	0.010103	0.005911
347	1.760640	0.005000	-0.085630	0.078480	-10.477080	-0.185675	0.274027	-0.843695	-0.004189	-0.014313	0.004902
348	1.765640	0.005000	-0.099263	0.060023	-10.456297	-0.185565	0.274137	-0.842708	-0.004861	-0.009682	0.016397
349	1.770640	0.005000	-0.115723	0.020618	-10.417222	-0.185454	0.274248	-0.841722	0.002724	-0.007086	-0.000687
350	1.775640	0.005000	-0.156960	-0.022812	-10.431456	-0.185344	0.274358	-0.840735	-0.002854	-0.016465	0.003207
351	1.780640	0.005000	-0.168163	0.039240	-10.477080	-0.185233	0.274469	-0.839748	-0.006637	-0.018279	0.011653
352	1.785640	0.005000	-0.117720	0.066545	-10.468579	-0.185123	0.274579	-0.838761	-0.011760	-0.023072	0.003049
353	1.790640	0.005000	-0.156960	0.068222	-10.545899	-0.185075	0.274440	-0.838403	-0.001821	-0.018829	0.006849
354	1.795640	0.005000	-0.156960	0.149321	-10.492358	-0.185075	0.274108	-0.838526	-0.001134	-0.018207	0.002542
355	1.800640	0.005000	-0.190887	0.101782	-10.443153	-0.185075	0.273777	-0.838650	-0.000052	-0.006546	0.010597
356	1.805640	0.005000	-0.114812	0.045056	-10.434932	-0.185075	0.273445	-0.838773	-0.009738	-0.005245	-0.006934
357	1.810640	0.005000	-0.039240	0.077527	-10.399553	-0.185075	0.273114	-0.838896	-0.008578	-0.009740	0.003568
358	1.815640	0.005000	-0.114812	0.039240	-10.513412	-0.185075	0.272783	-0.839020	-0.019658	-0.005387	-0.006895
359	1.820640	0.005000	-0.039240	0.035382	-10.512462	-0.185075	0.272451	-0.839143	-0.005689	-0.015660	0.000310
360	1.825640	0.005000	-0.139552	0.072677	-10.410205	-0.185075	0.272120	-0.839266	-0.010961	-0.008531	0.005659
361	1.830640	0.005000	-0.125938	-0.006367	-10.398600	-0.185075	0.271788	-0.839390	-0.013632	-0.007087	0.005022
362	1.835640	0.005000	-0.067982	0.128218	-10.398600	-0.185075	0.271457	-0.839513	-0.001602	-0.012073	0.011248
363	1.840640	0.005000	-0.065910	0.076949	-10.439371	-0.185075	0.271126	-0.839636	-0.006740	-0.002640	0.006502
364	1.845640	0.005000	-0.147339	0.132530	-10.486701	-0.185075	0.270794	-0.839760	-0.004859	-0.008198	0.009919
365	1.850640	0.005000	-0.039240	-0.039240	-10.488619	-0.185075	0.270463	-0.839883	-0.011968	-0.008960	0.010998
366	1.855640	0.005000	-0.118286	-0.039240	-10.438406	-0.185092	0.270137	-0.840039	-0.017323	-0.000797	0.000122
367	1.860640	0.005000	-0.117720	-0.025247	-10.498576	-0.185424	0.269917	-0.840779	-0.011627	-0.007226	0.009732
368	1.865640	0.005000	-0.117720	0.117720	-10.460796	-0.185755	0.269696	-0.841518	-0.004437	-0.002258	0.000120
369	1.870640	0.005000	-0.117720	0.039240	-10.594800	-0.186086	0.269475	-0.842258	-0.003298	-0.014034	0.005695
370	1.875640	0.005000	-0.078480	0.067407	-10.466007	-0.186417	0.269254	-0.842998	-0.010152	-0.005990	0.005801
371	1.880640	0.005000	-0.117720	0.039240	-10.577224	-0.186748	0.269033	-0.843737	0.002078	-0.007960	-0.001884
372	1.885640	0.005000	-0.117720	0.110958	-10.451364	-0.187079	0.268813	-0.844477	0.000682	-0.005951	0.001482
373	1.890640	0.005000	-0.143645	0.004438	-10.407476	-0.187410	0.268592	-0.845217	-0.006976	-0.013550	0.009614
374	1.895640	0.005000	-0.085877	0.036774	-10.442771	-0.187742	0.268371	-0.845956	-0.007984	-0.021451	0.007268
375	1.900640	0.005000	-0.196200	-0.039163	-10.437763	-0.188073	0.268150	-0.846696	-0.006690	-0.004805	0.002400
376	1.905640	0.005000	-0.196200	-0.036941	-10.398600	-0.188404	0.267929	-0.847436	-0.002393	-0.013795	0.004621
377	1.910640	0.005000	-0.082752	-0.039240	-10.442112	-0.188735	0.267709	-0.848175	-0.013514	-0.006586	0.015189
378	1.915640	0.005000	-0.065259	0.013221	-10.411821	-0.189066	0.267488	-0.848915	-0.009261	-0.006365	0.002187
379	1.920640	0.005000	-0.047872	0.039240	-10.516320	-0.189397	0.267267	-0.849655	-0.011859	-0.008392	0.003314
380	1.925640	0.005000	-0.156960	0.078480	-10.431716	-0.189434	0.267341	-0.850066	-0.002012	0.000522	0.001134
381	1.930640	0.005000	-0.143508	0.143508	-10.490532	-0.189213	0.267672	-0.850189	0.001344	-0.007575	0.012034
382	1.935640	0.005000	-0.078359	0.141288	-10.492752	-0.188993	0.268003	-0.850312	-0.005567	-0.001304	0.005088
383	1.940640	0.005000	-0.142783	0.117720	-10.434211	-0.188772	0.268334	-0.850436	-0.008198	-0.011265	-0.004215
384	1.945640	0.005000	-0.118899	0.021388	-10.475901	-0.188551	0.268666	-0.850559	-0.014418	0.002517	0.005878
385	1.950640	0.005000	-0.151484	0.089886	-10.516320	-0.188330	0.268997	-0.850682	-0.015583	0.001945	-0.000785
386	1.955640	0.005000	-0.156960	0.078480	-10.540883	-0.188109	0.269328	-0.850806	-0.003336	-0.013589	0.012821
387	1.960640	0.005000	-0.078480	-0.040722	-10.451908	-0.187889	0.269659	-0.850929	-0.011078	-0.015648	0.002561
388	1.965640	0.005000	-0.138358	0.057842	-10.458478	-0.187668	0.269990	-0.851052	-0.007669	-0.015908	-0.001666
389	1.970640	0.005000	-0.156960	-0.039240	-10.453665	-0.187447	0.270322	-0.851176	-0.006558	-0.013172	0.002995
390	1.975640	0.005000	-0.111820	0.005900	-10.516320	-0.187226	0.270653	-0.851299	-0.005167	-0.005368	-0.000548
391	1.980640	0.005000	-0.156960	0.078480	-10.512768	-0.187006	0.270984	-0.851422	-0.004050	-0.011081	0.019847
392	1.985640	0.005000	-0.116572	0.039240	-10.399748	-0.186785	0.271315	-0.851545	-0.010091	0.000706	0.001740
393	1.990640	0.005000	-0.193812	0.039240	-10.476284	-0.186573	0.271634	-0.851664	-0.016089	-0.011443	0.007007
394	1.995640	0.005000	-0.156960	0.039240	-10.509892	-0.187015	0.271082	-0.851417	-0.020501	-0.007497	-0.000986
395	2.000640	0.005000	-0.112168	-0.044792	-10.662177	-0.187457	0.270530	-0.851170	-0.007123	-0.004658	0.006963
396	2.005640	0.005000	-0.117720	0.149397	-10.570686	-0.187899	0.269977	-0.850923	-0.008151	-0.003624	0.002767
397	2.010640	0.005000	0.019283	0.176243	-10.417883	-0.188340	0.269425	-0.850677	-0.011498	0.004041	-0.008480
398	2.015640	0.005000	-0.081006	0.129958	-10.425602	-0.188782	0.268873	-0.850430	0.001305	-0.006607	0.009720
399	2.020640	0.005000	-0.107129	0.067889	-10.512586	-0.189224	0.268321	-0.850183	-0.001862	-0.002517	0.010513
400	2.025640	0.005000	-0.156960	0.033068	-10.460546	-0.189666	0.267768	-0.849936	-0.001188	-0.016079	0.003456
401	2.030640	0.005000	-0.097158	0.039240	-10.379922	-0.190108	0.267216	-0.849690	-0.014918	-0.013312	0.004428
402	2.035640	0.005000	-0.018395	0.057635	-10.398600	-0.190549	0.266664	-0.849443	-0.006171	-0.011760	0.007664
403	2.040640	0.005000	-0.023315	0.030704	-10.437840	-0.190991	0.266112	-0.849196	-0.003028	-0.014761	0.013951
404	2.045640	0.005000	-0.117720	-0.050891	-10.530114	-0.191433	0.265559	-0.848950	-0.010555	0.004581	0.009503
405	2.050640	0.005000	-0.062657	-0.039240	-10.504612	-0.191875	0.265007	-0.848703	0.001740	-0.003942	0.002518
406	2.055640	0.005000	-0.020355	0.058125	-10.458195	-0.192316	0.264455	-0.848456	-0.015170	0.004435	0.009584
407	2.060640	0.005000	-0.014055	0.078480	-10.412655	-0.192426	0.264234	-0.847839	0.003206	-0.008831	-0.001712
408	2.065640	0.005000	-0.078480	0.034157	-10.448006	-0.192206	0.264345	-0.846853	-0.001714	-0.004406	0.013851
409	2.070640	0.005000	-0.117720	-0.033884	-10.469045	-0.191985	0.264455	-0.845867	-0.004265	-0.012789	-0.001805
410	2.075640	0.005000	-0.116994	0.040692	-10.398600	-0.191764	0.264566	-0.844880	-0.010767	-0.005166	0.007493
411	2.080640	0.005000	-0.078480	0.080163	-10.511270	-0.191543	0.264676	-0.843894	-0.014726	-0.003826	0.004026
412	2.085640	0.005000	-0.121759	0.000000	-10.449957	-0.191322	0.264786	-0.842908	0.000022	-0.017507	0.000849
413	2.090640	0.005000	-0.111690	0.006030	-10.465020	-0.191102	0.264897	-0.841922	-0.011892	-0.009700	0.003173
414	2.095640	0.005000	-0.218770	0.008335	-10.460410	-0.190881	0.265007	-0.840936	-0.014623	-0.007402	0.001182
415	2.100640	0.005000	-0.185820	-0.057719	-10.448220	-0.190660	0.265118	-0.839949	-0.004633	-0.014905	0.011812
416	2.105640	0.005000	-0.168897	0.026446	-10.424189	-0.190439	0.265228	-0.838963	-0.013622	0.001844	0.003978
417	2.110640	0.005000	-0.181179	0.063459	-10.477080	-0.190218	0.265339	-0.837977	-0.011937	-0.012700	0.007890
418	2.115640	0.005000	-0.235440	0.066278	-10.432895	-0.189998	0.265449	-0.836991	-0.007313	0.002256	0.007200
419	2.120640	0.005000	-0.175718	0.097813	-10.437265	-0.189777	0.265560	-0.836004	-0.000799	-0.009279	0.011113
420	2.125640	0.005000	-0.142987	0.043005	-10.316355	-0.189556	0.265670	-0.835018	-0.009805	-0.011690	0.007051
421	2.130640	0.005000	-0.093805	0.000000	-10.453165	-0.190311	0.265238	-0.833064	-0.004315	-0.004278	0.002884
422	2.135640	0.005000	-0.091278	0.065259	-10.398600	-0.191083	0.264797	-0.831091	-0.002505	-0.003644	0.012720
423	2.140640	0.005000	-0.156960	0.010973	-10.448813	-0.191856	0.264355	-0.829119	-0.011742	0.004139	0.001672
424	2.145640	0.005000	-0.117720	0.069922	-10.507762	-0.192629	0.263913	-0.827146	-0.009545	-0.013640	-0.005006
425	2.150640	0.005000	-0.144655	0.000000	-10.477080	-0.193402	0.263472	-0.825174	-0.000985	-0.015496	0.004914
426	2.155640	0.005000	-0.148539	0.043450	-10.524741	-0.194175	0.263030	-0.823201	0.007116	-0.003646	-0.004001
427	2.160640	0.005000	-0.156960	0.044658	-10.512708	-0.194947	0.262588	-0.821229	-0.006938	-0.008079	0.014189
428	2.165640	0.005000	-0.117858	0.000551	-10.555147	-0.195720	0.262147	-0.819256	-0.006349	-0.005461	0.000898
429	2.170640	0.005000	-0.115164	0.036684	-10.440396	-0.196493	0.261705	-0.817284	-0.005440	-0.018241	0.007568
430	2.175640	0.005000	-0.196200	0.073981	-10.472581	-0.197266	0.261264	-0.815311	-0.010632	-0.007512	0.008717
431	2.180640	0.005000	-0.099195	0.071575	-10.352455	-0.198039	0.260822	-0.813339	-0.003897	-0.008244	0.002978
432	2.185640	0.005000	-0.126932	0.057665	-10.527923	-0.198812	0.260380	-0.811366	-0.010777	-0.000703	0.011785
433	2.190640	0.005000	-0.089744	0.106456	-10.398600	-0.199584	0.259939	-0.809394	-0.008656	0.004157	-0.002257
434	2.195640	0.005000	-0.105824	0.027344	-10.463408	-0.199643	0.259497	-0.809245	-0.002158	-0.020021	0.019517
435	2.200640	0.005000	-0.110277	0.062581	-10.477080	-0.198869	0.259055	-0.811219	-0.008707	0.001171	0.012415
436	2.205640	0.005000	-0.138932	0.078480	-10.316937	-0.198096	0.258613	-0.813192	-0.004052	-0.009173	0.014664
437	2.210640	0.005000	-0.194562	0.018801	-10.420677	-0.197323	0.258171	-0.815165	-0.011741	-0.008324	0.006395
438	2.215640	0.005000	-0.201727	0.016857	-10.493937	-0.196550	0.257730	-0.817139	-0.009346	-0.003032	-0.003766
439	2.220640	0.005000	-0.103273	0.064033	-10.526666	-0.195777	0.257288	-0.819112	-0.019173	-0.008831	0.007025
440	2.225640	0.005000	-0.078480	0.119883	-10.464721	-0.195004	0.256846	-0.821086	-0.002180	-0.009632	0.001549
441	2.230640	0.005000	-0.098682	0.078480	-10.456878	-0.194230	0.256404	-0.823059	-0.002536	-0.017502	-0.001061
442	2.235640	0.005000	-0.086166	-0.031554	-10.413971	-0.193457	0.255962	-0.825032	-0.006544	-0.008612	0.006044
443	2.240640	0.005000	-0.089825	0.039240	-10.437840	-0.192684	0.255521	-0.827006	-0.001560	-0.002288	0.002290
444	2.245640	0.005000	-0.150287	0.045913	-10.522993	-0.191911	0.255079	-0.828979	-0.000475	-0.004887	0.010215
445	2.250640	0.005000	-0.116801	0.041077	-10.552804	-0.191138	0.254637	-0.830953	-0.002295	-0.004282	-0.000092
446	2.255640	0.005000	-0.154909	0.003076	-10.590698	-0.190365	0.254195	-0.832926	-0.005507	-0.016659	-0.002803
447	2.260640	0.005000	-0.163819	0.110861	-10.405459	-0.189591	0.253754	-0.834899	-0.006669	-0.006039	-0.002532
448	2.265640	0.005000	-0.190421	0.111941	-10.437840	-0.189342	0.254883	-0.835585	-0.004481	-0.018515	-0.006491
449	2.270640	0.005000	-0.211780	-0.008081	-10.477080	-0.189122	0.256098	-0.836201	-0.006594	-0.002532	0.004252
450	2.275640	0.005000	-0.030590	0.097327	-10.506123	-0.188901	0.257312	-0.836818	-0.004921	-0.000671	-0.002885
451	2.280640	0.005000	-0.066015	0.051705	-10.528785	-0.188680	0.258527	-0.837434	-0.002999	-0.012038	0.013152
452	2.285640	0.005000	-0.132274	-0.010131	-10.619486	-0.188459	0.259741	-0.838050	-0.011301	-0.000078	0.001813
453	2.290640	0.005000	-0.056204	0.027589	-10.499356	-0.188238	0.260956	-0.838667	-0.011095	-0.009014	0.002681
454	2.295640	0.005000	-0.117720	0.098569	-10.495293	-0.188018	0.262170	-0.839283	-0.011379	-0.011906	0.005353
455	2.300640	0.005000	-0.082292	0.096194	-10.394788	-0.187797	0.263384	-0.839900	-0.011865	-0.011961	-0.004060
456	2.305640	0.005000	-0.039240	0.055646	-10.453358	-0.187576	0.264599	-0.840516	-0.003770	-0.009046	0.001221
457	2.310640	0.005000	-0.130826	0.013106	-10.477080	-0.187355	0.265813	-0.841132	-0.006519	-0.006310	0.003873
458	2.315640	0.005000	-0.163117	0.000000	-10.483237	-0.187134	0.267028	-0.841749	-0.001245	-0.027302	0.014344
459	2.320640	0.005000	-0.078480	0.087234	-10.468326	-0.186914	0.268242	-0.842365	-0.018340	-0.010282	0.002850
460	2.325640	0.005000	-0.124058	0.078480	-10.483418	-0.186693	0.269457	-0.842982	-0.003567	-0.015882	0.010552
461	2.330640	0.005000	-0.113378	0.065455	-10.555560	-0.186567	0.270291	-0.843333	-0.008538	-0.008704	0.010879
462	2.335640	0.005000	-0.117720	0.111751	-10.549591	-0.186567	0.270623	-0.843333	-0.019253	0.000900	0.000342
463	2.340640	0.005000	-0.234169	0.038816	-10.437840	-0.186567	0.270954	-0.843333	-0.002831	-0.012723	0.001990
464	2.345640	0.005000	-0.078480	0.039240	-10.509204	-0.186567	0.271285	-0.843333	-0.016686	-0.002511	0.002003
465	2.350640	0.005000	-0.147406	0.034463	-10.403377	-0.186567	0.271616	-0.843333	-0.009872	-0.013684	0.003482
466	2.355640	0.005000	-0.164070	0.128521	-10.412820	-0.186567	0.271948	-0.843333	-0.010644	-0.007788	0.001383
467	2.360640	0.005000	-0.196200	0.196200	-10.359360	-0.186567	0.272279	-0.843333	-0.000554	-0.010208	-0.005130
468	2.365640	0.005000	-0.173112	0.106176	-10.472472	-0.186567	0.272610	-0.843333	-0.011357	-0.013681	0.004653
469	2.370640	0.005000	-0.131516	0.066832	-10.530116	-0.186567	0.272941	-0.843333	-0.018340	0.000345	-0.001104
470	2.375640	0.005000	-0.125176	0.117720	-10.500428	-0.186567	0.273272	-0.843333	-0.009970	-0.016031	0.009181
471	2.380640	0.005000	-0.036608	0.115088	-10.495384	-0.186567	0.273604	-0.843333	-0.008997	-0.004415	0.002054
472	2.385640	0.005000	-0.059707	0.037546	-10.456613	-0.186567	0.273935	-0.843333	-0.013103	-0.004588	0.002421
473	2.390640	0.005000	-0.084558	0.055821	-10.538979	-0.186567	0.274266	-0.843333	-0.012436	-0.002770	0.004773
474	2.395640	0.005000	-0.152815	0.078480	-10.448157	-0.186567	0.274597	-0.843333	-0.010819	-0.002984	0.003909
475	2.400640	0.005000	-0.027012	0.156960	-10.450068	-0.186668	0.274124	-0.843221	-0.009866	-0.014358	0.012292
476	2.405640	0.005000	-0.088294	0.078480	-10.457452	-0.186778	0.273572	-0.843097	-0.009016	-0.006016	0.001700
477	2.410640	0.005000	-0.117720	0.007775	-10.437840	-0.186889	0.273020	-0.842974	-0.004062	-0.013144	0.001934
478	2.415640	0.005000	-0.089407	0.044704	-10.550096	-0.186999	0.272467	-0.842851	-0.014062	-0.010164	0.012249
479	2.420640	0.005000	-0.039240	0.039240	-10.519367	-0.187110	0.271915	-0.842728	-0.000140	-0.008246	0.007941
480	2.425640	0.005000	0.038151	0.038151	-10.516320	-0.187220	0.271363	-0.842604	-0.000038	-0.008934	0.010881
481	2.430640	0.005000	-0.113816	0.000000	-10.592197	-0.187330	0.270811	-0.842481	-0.010835	0.003179	-0.002985
482	2.435640	0.005000	-0.149608	-0.039240	-10.512644	-0.187441	0.270258	-0.842358	-0.013351	-0.008834	-0.002684
483	2.440640	0.005000	-0.168285	-0.011325	-10.387673	-0.187551	0.269706	-0.842234	-0.010213	0.001689	0.010299
484	2.445640	0.005000	-0.219303	-0.008068	-10.460943	-0.187662	0.269154	-0.842111	-0.009280	-0.006080	0.011156
485	2.450640	0.005000	-0.167307	0.088827	-10.487427	-0.187772	0.268601	-0.841988	-0.008142	-0.008700	0.014980
486	2.455640	0.005000	-0.183783	0.037250	-10.503903	-0.187883	0.268049	-0.841865	-0.007580	-0.007460	-0.000905
487	2.460640	0.005000	-0.054070	0.093310	-10.516320	-0.187993	0.267497	-0.841741	-0.007200	-0.012102	0.012838
488	2.465640	0.005000	-0.145100	0.022207	-10.516320	-0.188104	0.267339	-0.841716	-0.010845	-0.003510	0.001625
489	2.470640	0.005000	-0.077607	0.020056	-10.516320	-0.188214	0.267781	-0.841839	-0.008878	-0.014238	-0.002665
490	2.475640	0.005000	-0.056886	0.160908	-10.459434	-0.188325	0.268223	-0.841963	-0.007301	-0.008851	0.002801
491	2.480640	0.005000	-0.054761	0.023719	-10.508998	-0.188435	0.268665	-0.842086	-0.006726	-0.007802	0.000469
492	2.485640	0.005000	-0.143671	0.000000	-10.542271	-0.188546	0.269107	-0.842209	-0.001903	-0.010239	0.014142
493	2.490640	0.005000	-0.224559	-0.039240	-10.466199	-0.188656	0.269548	-0.842332	-0.010524	-0.002636	0.003938
494	2.495640	0.005000	-0.148126	0.060811	-10.380931	-0.188766	0.269990	-0.842456	-0.008598	-0.021656	0.017087
495	2.500640	0.005000	-0.143916	-0.104676	-10.490124	-0.188877	0.270432	-0.842579	-0.010340	-0.006457	0.004116
496	2.505640	0.005000	-0.161077	0.074363	-10.512203	-0.188987	0.270874	-0.842702	-0.003729	-0.005435	0.004342
497	2.510640	0.005000	-0.156960	0.039240	-10.440013	-0.189098	0.271316	-0.842826	-0.011624	-0.014634	0.014218
498	2.515640	0.005000	-0.156960	0.000242	-10.477080	-0.189208	0.271757	-0.842949	-0.012306	-0.003306	0.004201
499	2.520640	0.005000	-0.161308	-0.078480	-10.479254	-0.189318	0.272199	-0.843072	-0.004383	-0.006294	0.018897
500	2.525640	0.005000	-0.126903	-0.069297	-10.541786	-0.189429	0.272641	-0.843195	-0.008560	0.007503	0.007871
501	2.530640	0.005000	-0.053066	0.000000	-10.502494	-0.189539	0.273083	-0.843319	-0.004086	-0.017112	0.005865
502	2.535640	0.005000	-0.008941	0.108779	-10.459198	-0.189942	0.273036	-0.843660	-0.007529	-0.011461	0.014000
503	2.540640	0.005000	-0.067124	0.140431	-10.493609	-0.190384	0.272926	-0.844030	-0.004327	-0.013319	-0.003100
504	2.545640	0.005000	-0.170559	0.092079	-10.528361	-0.190826	0.272816	-0.844400	-0.002138	-0.011799	0.011027
505	2.550640	0.005000	-0.180492	0.031416	-10.492788	-0.191267	0.272705	-0.844770	-0.009652	-0.010505	0.003725
506	2.555640	0.005000	-0.214320	-0.042240	-10.498200	-0.191709	0.272595	-0.845139	-0.006148	-0.014452	0.012455
507	2.560640	0.005000	-0.175914	-0.018954	-10.477080	-0.192150	0.272485	-0.845509	-0.011606	-0.003027	-0.000603
508	2.565640	0.005000	-0.123431	-0.005711	-10.493845	-0.192592	0.272374	-0.845879	-0.008551	-0.011818	0.000974
509	2.570640	0.005000	-0.117720	0.010529	-10.501965	-0.193034	0.272264	-0.846249	-0.007612	-0.009623	0.013207
510	2.575640	0.005000	-0.090748	0.000000	-10.423136	-0.193475	0.272154	-0.846619	-0.007671	-0.003350	0.003062
511	2.580640	0.005000	-0.107722	0.049238	-10.418595	-0.193917	0.272043	-0.846989	-0.001028	-0.005341	0.016615
512	2.585640	0.005000	-0.125311	0.039240	-10.460613	-0.194358	0.271933	-0.847358	-0.013507	-0.000995	-0.003012
513	2.590640	0.005000	-0.168124	0.145796	-10.561142	-0.194800	0.271822	-0.847728	-0.004254	-0.010221	0.000784
514	2.595640	0.005000	-0.160204	0.035996	-10.519564	-0.195242	0.271712	-0.848098	-0.007539	-0.010435	0.015707
515	2.600640	0.005000	-0.195373	0.038413	-10.437013	-0.195401	0.271642	-0.848333	-0.010465	-0.003855	0.002273
516	2.605640	0.005000	-0.080714	-0.038123	-10.474846	-0.195070	0.271642	-0.848333	-0.004130	-0.012756	0.012668
517	2.610640	0.005000	-0.042761	0.078480	-10.441361	-0.194739	0.271642	-0.848333	-0.013256	-0.006215	-0.001054
518	2.615640	0.005000	-0.073014	0.016397	-10.370291	-0.194407	0.271642	-0.848333	0.001846	-0.011042	0.003523
519	2.620640	0.005000	-0.149078	0.117720	-10.367242	-0.194076	0.271642	-0.848333	-0.014757	-0.003014	0.002067
520	2.625640	0.005000	-0.088305	0.049065	-10.408364	-0.193745	0.271642	-0.848333	-0.000120	-0.003420	-0.001126
521	2.630640	0.005000	-0.171734	0.054014	-10.477080	-0.193413	0.271642	-0.848333	-0.004116	-0.003373	0.018720
522	2.635640	0.005000	-0.156960	0.064003	-10.442030	-0.193082	0.271642	-0.848333	0.004074	-0.006587	0.007448
523	2.640640	0.005000	-0.179610	0.072420	-10.382010	-0.192751	0.271642	-0.848333	-0.000700	-0.006931	0.006298
524	2.645640	0.005000	-0.136493	0.059707	-10.437840	-0.192419	0.271642	-0.848333	-0.009982	0.003536	0.003905
525	2.650640	0.005000	-0.062833	-0.060184	-10.576504	-0.192088	0.271642	-0.848333	-0.002806	-0.008780	0.000513
526	2.655640	0.005000	-0.094366	-0.015886	-10.500434	-0.191757	0.271642	-0.848333	-0.006561	-0.004666	0.012607
527	2.660640	0.005000	-0.168638	0.119823	-10.479183	-0.191425	0.271642	-0.848333	-0.006029	-0.009143	0.006218
528	2.665640	0.005000	-0.106181	0.173121	-10.516320	-0.191094	0.271642	-0.848333	0.002266	-0.017982	0.008689
529	2.670640	0.005000	-0.039240	0.117720	-10.528185	-0.190669	0.271642	-0.848018	-0.002445	-0.003666	0.007479
530	2.675640	0.005000	-0.117720	0.117720	-10.462891	-0.190227	0.271642	-0.847648	-0.002743	-0.013608	0.006271
531	2.680640	0.005000	-0.029690	0.073705	-10.472305	-0.189785	0.271642	-0.847278	-0.015784	-0.004822	0.007150
532	2.685640	0.005000	-0.078480	0.002358	-10.398600	-0.189343	0.271642	-0.846908	0.001763	-0.015312	-0.001122
533	2.690640	0.005000	-0.001653	0.156547	-10.437840	-0.188902	0.271642	-0.846538	-0.006917	-0.006994	0.005222
534	2.695640	0.005000	-0.082413	0.154993	-10.475113	-0.188460	0.271642	-0.846168	-0.005580	-0.003802	-0.004741
535	2.700640	0.005000	-0.078480	0.113785	-10.481015	-0.188018	0.271642	-0.845798	-0.013312	-0.016743	0.004746
536	2.705640	0.005000	-0.072129	0.065778	-10.365711	-0.187576	0.271642	-0.845428	-0.009058	-0.002883	-0.006331
537	2.710640	0.005000	-0.087133	0.047893	-10.608082	-0.187134	0.271642	-0.845058	-0.002403	-0.009179	-0.003376
538	2.715640	0.005000	-0.067778	0.060644	-10.555560	-0.186693	0.271642	-0.844688	-0.003092	-0.007610	0.013165
539	2.720640	0.005000	-0.104604	0.065364	-10.503204	-0.186251	0.271642	-0.844318	-0.010621	-0.008926	0.005685
540	2.725640	0.005000	-0.165522	0.102381	-10.398600	-0.185809	0.271642	-0.843948	-0.005853	-0.015026	0.007618
541	2.730640	0.005000	-0.117720	0.095949	-10.459611	-0.185367	0.271642	-0.843578	-0.009841	-0.005461	-0.001144
542	2.735640	0.005000	-0.039240	0.058607	-10.496953	-0.185187	0.271679	-0.843500	-0.006018	-0.006229	0.005423
543	2.740640	0.005000	-0.134935	-0.039240	-10.499105	-0.185518	0.271790	-0.843993	-0.014078	-0.007984	0.002275
544	2.745640	0.005000	-0.156960	-0.063467	-10.452853	-0.185850	0.271900	-0.844487	-0.006047	-0.011227	-0.003739
545	2.750640	0.005000	-0.170363	0.065561	-10.516320	-0.186181	0.272011	-0.844980	-0.003559	-0.013502	0.001104
546	2.755640	0.005000	-0.067824	0.017928	-10.487736	-0.186512	0.272121	-0.845473	-0.011769	-0.005243	-0.004721
547	2.760640	0.005000	-0.078480	0.117720	-10.530813	-0.186844	0.272231	-0.845967	-0.003668	-0.007084	0.009209
548	2.765640	0.005000	-0.111488	0.123952	-10.477080	-0.187175	0.272342	-0.846460	-0.003737	0.003897	0.000002
549	2.770640	0.005000	-0.086258	0.188422	-10.512431	-0.187506	0.272452	-0.846954	0.003067	-0.013928	0.004227
550	2.775640	0.005000	-0.119205	0.076995	-10.516320	-0.187838	0.272563	-0.847447	-0.010892	-0.003586	0.003772
551	2.780640	0.005000	-0.156960	0.155582	-10.438759	-0.188169	0.272673	-0.847940	-0.007806	-0.000055	-0.002660
552	2.785640	0.005000	-0.050616	0.078480	-10.513476	-0.188500	0.272783	-0.848434	-0.012427	-0.010872	0.009774
553	2.790640	0.005000	-0.147318	0.048882	-10.408242	-0.188831	0.272894	-0.848927	-0.020524	-0.001900	-0.000488
554	2.795640	0.005000	-0.164186	0.046466	-10.509094	-0.189163	0.273004	-0.849420	-0.007415	-0.012844	0.010209
555	2.800640	0.005000	-0.127250	0.068950	-10.555560	-0.189494	0.273115	-0.849914	-0.009815	-0.005461	0.010582
556	2.805640	0.005000	-0.133811	0.000000	-10.500229	-0.189370	0.272952	-0.849491	0.008661	-0.004687	0.018549
557	2.810640	0.005000	-0.037001	0.013826	-10.465493	-0.189149	0.272731	-0.848875	-0.008690	-0.020562	0.002562
558	2.815640	0.005000	-0.063727	0.000000	-10.336052	-0.188928	0.272510	-0.848259	-0.015957	-0.008465	-0.007006
559	2.820640	0.005000	-0.099378	0.002557	-10.398600	-0.188707	0.272289	-0.847642	-0.007156	-0.014463	0.003872
560	2.825640	0.005000	-0.097434	0.040572	-10.458126	-0.188487	0.272069	-0.847026	-0.010794	-0.007582	0.001536
561	2.830640	0.005000	-0.117720	0.055784	-10.398600	-0.188266	0.271848	-0.846409	-0.006641	-0.010027	0.002522
562	2.835640	0.005000	-0.132151	0.039240	-10.462649	-0.188045	0.271627	-0.845793	-0.009015	-0.013738	0.016088
563	2.840640	0.005000	-0.250306	0.027053	-10.477080	-0.187824	0.271406	-0.845177	-0.011970	-0.010546	-0.006670
564	2.845640	0.005000	-0.088259	0.039240	-10.496639	-0.187603	0.271185	-0.844560	-0.007949	-0.009719	0.001887
565	2.850640	0.005000	-0.078480	0.015490	-10.587055	-0.187383	0.270965	-0.843944	-0.010567	-0.008716	0.002649
566	2.855640	0.005000	-0.185360	0.039240	-10.404020	-0.187162	0.270744	-0.843328	-0.006180	-0.013342	-0.001547
567	2.860640	0.005000	-0.049542	0.068178	-10.509452	-0.186941	0.270523	-0.842711	-0.019693	-0.006416	0.015119
568	2.865640	0.005000	-0.155889	0.076337	-10.516320	-0.186720	0.270302	-0.842095	-0.018022	0.000497	0.012038
569	2.870640	0.005000	-0.079811	0.000000	-10.440502	-0.186567	0.269913	-0.841592	-0.010042	-0.008858	0.012448
570	2.875640	0.005000	-0.114444	0.117720	-10.329949	-0.186567	0.269140	-0.841345	-0.008135	-0.006546	0.003244
571	2.880640	0.005000	-0.156960	0.123413	-10.471387	-0.186567	0.268367	-0.841098	-0.005130	-0.010792	0.003766
572	2.885640	0.005000	-0.102487	0.078480	-10.516320	-0.186567	0.267594	-0.840852	-0.012807	-0.006479	-0.000705
573	2.890640	0.005000	-0.146917	0.098567	-10.584757	-0.186567	0.266821	-0.840605	-0.010062	-0.013980	-0.002935
574	2.895640	0.005000	-0.183886	0.051554	-10.528634	-0.186567	0.266048	-0.840358	-0.004661	-0.006339	0.014854
575	2.900640	0.005000	-0.156960	0.028803	-10.491481	-0.186567	0.265276	-0.840112	-0.013785	-0.002292	-0.004624
576	2.905640	0.005000	-0.156960	0.117720	-10.432221	-0.186567	0.264503	-0.839865	-0.009117	-0.011590	0.016222
577	2.910640	0.005000	-0.194960	0.098720	-10.418840	-0.186567	0.263730	-0.839619	-0.007553	-0.003733	0.004555
578	2.915640	0.005000	-0.141977	0.135794	-10.440931	-0.186567	0.262957	-0.839372	-0.004436	-0.014583	0.002148
579	2.920640	0.005000	-0.102058	0.125635	-10.484827	-0.186567	0.262184	-0.839125	-0.016096	-0.009087	0.006021
580	2.925640	0.005000	-0.092034	0.129852	-10.451394	-0.186567	0.261412	-0.838879	-0.013806	-0.008968	0.006636
581	2.930640	0.005000	-0.061860	0.083791	-10.511009	-0.186567	0.260639	-0.838632	-0.012621	-0.007020	0.017638
582	2.935640	0.005000	-0.117720	0.017790	-10.546665	-0.186567	0.259866	-0.838386	-0.007711	-0.003931	0.003727
583	2.940640	0.005000	-0.059843	-0.032372	-10.509452	-0.187436	0.259006	-0.836684	0.000720	-0.013464	0.014717
584	2.945640	0.005000	-0.191653	0.030146	-10.477080	-0.188540	0.258122	-0.834587	-0.006361	0.002053	0.007768
585	2.950640	0.005000	-0.115148	0.000000	-10.524035	-0.189645	0.257239	-0.832490	-0.006624	-0.007637	-0.005950
586	2.955640	0.005000	-0.156761	0.000000	-10.555361	-0.190750	0.256355	-0.830394	-0.004258	-0.005126	0.006697
587	2.960640	0.005000	-0.117720	0.074093	-10.479273	-0.191854	0.255472	-0.828297	-0.010896	0.003467	-0.001331
588	2.965640	0.005000	0.000000	0.074317	-10.442003	-0.192959	0.254588	-0.826200	-0.000964	-0.014661	0.009924
589	2.970640	0.005000	-0.150392	0.111152	-10.490216	-0.194063	0.253704	-0.824103	-0.009529	-0.001613	0.002799
590	2.975640	0.005000	-0.105119	-0.008880	-10.446720	-0.195168	0.252821	-0.822007	0.002842	-0.016998	0.003367
591	2.980640	0.005000	-0.117720	-0.045698	-10.437840	-0.196272	0.251937	-0.819910	-0.010384	0.000065	0.009342
592	2.985640	0.005000	-0.222105	0.091050	-10.502985	-0.197377	0.251054	-0.817813	-0.007552	-0.004549	0.000474
593	2.990640	0.005000	-0.235440	0.102154	-10.453406	-0.198482	0.250170	-0.815717	-0.004037	-0.013054	0.000277
594	2.995640	0.005000	-0.135412	0.117720	-10.480937	-0.199586	0.249286	-0.813620	-0.001897	-0.003048	-0.003906
595	3.000640	0.005000	-0.156960	0.118204	-10.496458	-0.200691	0.248403	-0.811523	-0.005698	-0.014265	0.001381
596	3.005640	0.005000	-0.044093	-0.017193	-10.555560	-0.201342	0.248214	-0.810641	-0.004361	-0.008527	0.004964
597	3.010640	0.005000	-0.087587	0.045200	-10.501253	-0.200790	0.249870	-0.812983	-0.008883	-0.005426	0.005414
598	3.015640	0.005000	-0.038521	0.079199	-10.502760	-0.200238	0.251526	-0.815326	-0.003489	-0.013270	0.008647
599	3.020640	0.005000	-0.185763	-0.028803	-10.495445	-0.199686	0.253182	-0.817668	-0.005389	-0.009887	-0.007339
600	3.025640	0.005000	-0.109324	0.030844	-10.507924	-0.199134	0.254838	-0.820010	-0.009015	-0.017162	0.007067
601	3.030640	0.005000	-0.165809	0.117720	-10.398600	-0.198582	0.256494	-0.822353	-0.014132	-0.004740	0.007364
602	3.035640	0.005000	-0.121393	0.114047	-10.370379	-0.198030	0.258150	-0.824695	-0.016811	-0.016493	0.007019
603	3.040640	0.005000	-0.155251	0.044368	-10.480499	-0.197478	0.259806	-0.827037	-0.008983	-0.004774	0.009144
604	3.045640	0.005000	-0.156271	0.118409	-10.478457	-0.196926	0.261462	-0.829380	-0.009109	-0.000359	-0.001353
605	3.050640	0.005000	-0.160016	0.123831	-10.368527	-0.196374	0.263118	-0.831722	-0.004506	-0.003828	0.004622
606	3.055640	0.005000	-0.049314	0.083517	-10.506246	-0.195822	0.264774	-0.834064	-0.009878	0.000087	-0.001032
607	3.060640	0.005000	-0.095619	0.022101	-10.405967	-0.195270	0.266430	-0.836407	-0.003539	-0.019474	0.003391
608	3.065640	0.005000	-0.166357	0.089530	-10.437840	-0.194718	0.268086	-0.838749	-0.003167	-0.009857	0.007391
609	3.070640	0.005000	-0.156960	0.066676	-10.465276	-0.194166	0.269742	-0.841091	-0.003950	-0.002770	0.006049
610	3.075640	0.005000	-0.131469	0.052989	-10.463331	-0.193530	0.269899	-0.841946	-0.010316	-0.000593	0.006292
611	3.080640	0.005000	-0.069236	0.078480	-10.454001	-0.192868	0.269568	-0.842316	-0.008674	-0.004374	-0.007490
612	3.085640	0.005000	-0.020891	0.057589	-10.492888	-0.192206	0.269237	-0.842686	-0.011016	-0.011606	0.013682
613	3.090640	0.005000	-0.078480	-0.018724	-10.574284	-0.191543	0.268906	-0.843055	0.000048	-0.001961	0.005317
614	3.095640	0.005000	-0.117720	0.105618	-10.561611	-0.190881	0.268575	-0.843425	0.003150	-0.010731	-0.000030
615	3.100640	0.005000	-0.156960	0.117720	-10.541184	-0.190218	0.268243	-0.843795	-0.009347	-0.017680	0.010623
616	3.105640	0.005000	-0.144677	0.026957	-10.555560	-0.189556	0.267912	-0.844165	-0.004619	-0.011225	0.007368
617	3.110640	0.005000	-0.127744	-0.029216	-10.457889	-0.188894	0.267581	-0.844535	-0.011372	-0.013534	0.011606
618	3.115640	0.005000	-0.173373	0.063262	-10.398600	-0.188231	0.267250	-0.844905	-0.011267	0.008062	-0.001101
619	3.120640	0.005000	-0.084145	0.095474	-10.527650	-0.187569	0.266919	-0.845275	-0.008610	-0.012295	0.006940
620	3.125640	0.005000	-0.120980	0.085000	-10.591540	-0.186907	0.266588	-0.845644	-0.008183	-0.010766	0.007822
621	3.130640	0.005000	-0.231537	-0.001301	-10.516320	-0.186244	0.266256	-0.846014	-0.001900	-0.020936	0.005311
622	3.135640	0.005000	-0.079582	0.037036	-10.440044	-0.185582	0.265925	-0.846384	-0.013300	-0.006860	0.008166
623	3.140640	0.005000	-0.153496	0.078480	-10.512856	-0.185127	0.265750	-0.846551	-0.001079	0.001910	0.007891
624	3.145640	0.005000	-0.190750	0.140609	-10.527221	-0.185348	0.266081	-0.846058	-0.004986	-0.020956	0.011980
625	3.150640	0.005000	-0.133453	0.047106	-10.516320	-0.185569	0.266412	-0.845564	-0.019298	-0.006692	-0.000472
626	3.155640	0.005000	-0.098781	0.039240	-10.594800	-0.185790	0.266744	-0.845071	-0.009164	-0.009419	0.005091
627	3.160640	0.005000	-0.117720	0.090698	-10.555560	-0.186010	0.267075	-0.844578	-0.014042	-0.014507	0.004039
628	3.165640	0.005000	-0.171406	0.156960	-10.491526	-0.186231	0.267406	-0.844084	-0.010452	0.003221	0.001291
629	3.170640	0.005000	-0.134286	0.117720	-10.404709	-0.186452	0.267738	-0.843591	-0.003666	-0.013331	0.013136
630	3.175640	0.005000	-0.097457	0.178508	-10.516320	-0.186673	0.268069	-0.843097	-0.012602	-0.004311	0.004826
631	3.180640	0.005000	-0.141878	0.156960	-10.516320	-0.186894	0.268400	-0.842604	-0.000884	-0.010443	0.002709
632	3.185640	0.005000	-0.117720	0.156960	-10.539653	-0.187115	0.268732	-0.842111	-0.002777	-0.011484	0.009243
633	3.190640	0.005000	-0.091978	0.051483	-10.451338	-0.187336	0.269063	-0.841617	-0.004129	-0.013781	0.001112
634	3.195640	0.005000	-0.129275	-0.027685	-10.520896	-0.187557	0.269394	-0.841124	-0.003274	-0.009490	0.008704
635	3.200640	0.005000	-0.057520	0.096760	-10.467940	-0.187778	0.269726	-0.840631	-0.006738	-0.002261	-0.004937
636	3.205640	0.005000	-0.021329	0.110610	-10.523430	-0.187999	0.270057	-0.840137	-0.004997	-0.013078	0.008592
637	3.210640	0.005000	-0.186620	0.112930	-10.398600	-0.188140	0.269910	-0.840534	-0.024084	-0.011146	-0.001485
638	3.215640	0.005000	-0.007119	0.046359	-10.474707	-0.188250	0.269579	-0.841274	-0.015054	-0.008461	0.000533
639	3.220640	0.005000	-0.040087	0.118144	-10.516320	-0.188360	0.269248	-0.842013	-0.001234	0.003305	0.012622
640	3.225640	0.005000	-0.117720	0.156960	-10.516320	-0.188471	0.268917	-0.842753	-0.005963	-0.000312	0.002178
641	3.230640	0.005000	-0.117720	0.047923	-10.485763	-0.188581	0.268585	-0.843493	-0.006471	-0.009311	0.013668
642	3.235640	0.005000	0.032917	0.072157	-10.477080	-0.188691	0.268254	-0.844232	-0.002350	0.003039	-0.000948
643	3.240640	0.005000	-0.139685	0.069842	-10.485718	-0.188802	0.267923	-0.844972	0.001265	-0.015159	0.004357
644	3.245640	0.005000	-0.156960	0.089493	-10.477080	-0.188912	0.267592	-0.845712	-0.012475	-0.008922	0.005402
645	3.250640	0.005000	-0.130810	0.039209	-10.620950	-0.189023	0.267261	-0.846451	-0.006597	-0.011453	-0.002314
646	3.255640	0.005000	-0.150228	0.039240	-10.492404	-0.189133	0.266930	-0.847191	-0.004760	-0.017071	0.007001
647	3.260640	0.005000	-0.139513	0.091580	-10.516320	-0.189243	0.266598	-0.847931	-0.004899	-0.008949	0.005395
648	3.265640	0.005000	-0.176580	0.098100	-10.477080	-0.189354	0.266267	-0.848670	-0.001964	-0.011794	0.006489
649	3.270640	0.005000	-0.152597	-0.021802	-10.533758	-0.189464	0.265936	-0.849410	-0.021897	-0.007015	0.010741
650	3.275640	0.005000	-0.196200	-0.009183	-10.609829	-0.189619	0.265672	-0.849800	-0.000040	-0.006339	0.007030
651	3.280640	0.005000	-0.131092	0.039679	-10.529254	-0.189950	0.265672	-0.848814	-0.002318	-0.007011	0.010099
652	3.285640	0.005000	-0.117720	0.128391	-10.477080	-0.190282	0.265672	-0.847827	-0.009134	-0.002682	0.007460
653	3.290640	0.005000	-0.165224	0.061951	-10.524584	-0.190613	0.265672	-0.846840	-0.005926	-0.020679	0.009376
654	3.295640	0.005000	-0.123968	0.105225	-10.464585	-0.190945	0.265672	-0.845854	-0.010136	-0.011211	0.003609
655	3.300640	0.005000	-0.074576	0.070672	-10.441744	-0.191276	0.265672	-0.844867	-0.007495	-0.019422	0.011393
656	3.305640	0.005000	-0.078480	0.006002	-10.474079	-0.191607	0.265672	-0.843880	-0.011743	-0.006432	-0.000252
657	3.310640	0.005000	-0.117276	0.040571	-10.476192	-0.191939	0.265672	-0.842894	-0.005636	-0.002327	-0.005717
658	3.315640	0.005000	-0.078480	0.081328	-10.395752	-0.192270	0.265672	-0.841907	-0.008385	-0.007070	0.011793
659	3.320640	0.005000	-0.039240	0.000000	-10.516320	-0.192601	0.265672	-0.840920	-0.014184	-0.001719	-0.000965
660	3.325640	0.005000	-0.142543	0.078480	-10.452257	-0.192933	0.265672	-0.839934	-0.014219	-0.006060	0.002926
661	3.330640	0.005000	-0.067740	0.078480	-10.525820	-0.193264	0.265672	-0.838947	-0.011301	-0.007564	0.000198
662	3.335640	0.005000	-0.094602	0.066921	-10.410159	-0.193596	0.265672	-0.837960	-0.011821	-0.015248	0.007088
663	3.340640	0.005000	-0.182227	0.129015	-10.409895	-0.193927	0.265672	-0.836974	-0.010773	-0.010274	0.005637
664	3.345640	0.005000	-0.182464	0.055426	-10.539374	-0.193802	0.265976	-0.836752	-0.021168	0.006579	-0.002049
665	3.350640	0.005000	-0.120307	0.039240	-10.537234	-0.193470	0.266418	-0.836875	-0.002672	-0.010613	0.004886
666	3.355640	0.005000	-0.037006	0.076246	-10.456343	-0.193139	0.266860	-0.836998	-0.012921	0.003151	0.000807
667	3.360640	0.005000	-0.156960	0.091489	-10.499952	-0.192808	0.267301	-0.837122	-0.014813	-0.007909	-0.000241
668	3.365640	0.005000	-0.067533	-0.064333	-10.505373	-0.192477	0.267743	-0.837245	-0.010074	-0.004915	0.008691
669	3.370640	0.005000	-0.168698	0.027502	-10.488818	-0.192146	0.268184	-0.837368	-0.007025	-0.005146	0.002006
670	3.375640	0.005000	-0.255317	0.000000	-10.506639	-0.191814	0.268626	-0.837491	-0.009024	-0.009696	0.017498
671	3.380640	0.005000	-0.188808	0.078480	-10.398600	-0.191483	0.269068	-0.837615	-0.011212	-0.008336	0.006466
672	3.385640	0.005000	-0.117720	0.050011	-10.330891	-0.191152	0.269509	-0.837738	-0.004887	-0.018207	0.007131
673	3.390640	0.005000	-0.081511	0.078480	-10.474049	-0.190821	0.269951	-0.837861	-0.003554	-0.008131	-0.000165
674	3.395640	0.005000	-0.040495	0.078480	-10.476453	-0.190489	0.270392	-0.837984	-0.004997	-0.015666	-0.003442
675	3.400640	0.005000	-0.155643	0.116403	-10.513687	-0.190158	0.270834	-0.838107	-0.002799	-0.002861	0.010434
676	3.405640	0.005000	-0.156960	0.110252	-10.520054	-0.189827	0.271275	-0.838231	-0.009536	-0.009909	0.003006
677	3.410640	0.005000	-0.150894	0.090612	-10.443906	-0.189477	0.271604	-0.838396	-0.002569	-0.019231	0.006602
678	3.415640	0.005000	-0.156960	-0.062312	-10.601705	-0.189035	0.271384	-0.838766	-0.013828	0.000083	-0.003075
679	3.420640	0.005000	-0.109976	-0.099477	-10.448339	-0.188594	0.271163	-0.839136	-0.002741	-0.012406	0.003939
680	3.425640	0.005000	-0.117720	0.024885	-10.373715	-0.188152	0.270942	-0.839505	-0.017888	-0.011101	0.008867
681	3.430640	0.005000	-0.151647	0.048778	-10.428302	-0.187711	0.270721	-0.839875	-0.009389	-0.008327	-0.003891
682	3.435640	0.005000	-0.117720	0.022176	-10.477080	-0.187269	0.270500	-0.840245	-0.006712	-0.014485	0.007142
683	3.440640	0.005000	-0.098513	0.079306	-10.497113	-0.186827	0.270280	-0.840615	-0.009566	-0.001853	-0.002352
684	3.445640	0.005000	-0.096360	0.017880	-10.498440	-0.186386	0.270059	-0.840985	-0.007726	-0.013014	0.009171
685	3.450640	0.005000	-0.156960	0.117720	-10.422153	-0.185944	0.269838	-0.841355	-0.003580	0.001652	0.007465
686	3.455640	0.005000	-0.104446	0.143686	-10.293572	-0.185503	0.269617	-0.841724	-0.009214	-0.010562	0.001272
687	3.460640	0.005000	-0.179348	0.039240	-10.381748	-0.185061	0.269396	-0.842094	-0.007991	-0.024647	0.009280
688	3.465640	0.005000	-0.178562	0.030421	-10.446659	-0.184619	0.269176	-0.842464	-0.006414	0.009690	0.001548
689	3.470640	0.005000	-0.078480	-0.032733	-10.365867	-0.184178	0.268955	-0.842834	-0.003106	-0.012800	0.005775
690	3.475640	0.005000	-0.148757	0.004102	-10.394498	-0.183736	0.268734	-0.843204	-0.010119	-0.015284	0.003314
691	3.480640	0.005000	-0.154827	0.043506	-10.439973	-0.183798	0.268801	-0.843494	-0.011296	-0.019563	0.004897
692	3.485640	0.005000	-0.156700	0.117720	-10.516060	-0.184129	0.269022	-0.843740	-0.012248	-0.003307	0.009157
693	3.490640	0.005000	-0.120352	0.047136	-10.516320	-0.184460	0.269243	-0.843987	-0.009825	-0.010622	-0.000213
694	3.495640	0.005000	-0.112698	0.068436	-10.511298	-0.184792	0.269463	-0.844234	-0.003475	-0.013853	0.007967
695	3.500640	0.005000	-0.156960	0.124745	-10.477080	-0.185123	0.269684	-0.844480	-0.009114	0.005788	-0.005183
696	3.505640	0.005000	-0.216803	0.069162	-10.467762	-0.185455	0.269905	-0.844727	0.003115	-0.014254	0.006601
697	3.510640	0.005000	-0.235440	-0.027865	-10.555560	-0.185786	0.270126	-0.844974	-0.011845	0.003322	0.011286
698	3.515640	0.005000	-0.196200	-0.066818	-10.516320	-0.186117	0.270347	-0.845221	-0.005693	-0.015691	-0.003102
699	3.520640	0.005000	-0.117720	0.064018	-10.500315	-0.186449	0.270568	-0.845467	-0.004634	-0.003649	0.012289
700	3.525640	0.005000	-0.057375	0.063314	-10.471142	-0.186780	0.270789	-0.845714	-0.008775	-0.002295	-0.000491
701	3.530640	0.005000	-0.138266	0.039240	-10.497626	-0.187111	0.271010	-0.845961	-0.010509	-0.013002	0.010300
702	3.535640	0.005000	-0.078480	0.028232	-10.471339	-0.187443	0.271231	-0.846208	-0.008986	-0.001291	0.002733
703	3.540640	0.005000	-0.117720	0.003780	-10.555560	-0.187774	0.271452	-0.846454	0.005798	-0.018013	0.001942
704	3.545640	0.005000	-0.105467	-0.026987	-10.528573	-0.188060	0.271627	-0.846582	-0.000386	-0.007382	0.011828
705	3.550640	0.005000	-0.117720	0.078480	-10.437840	-0.188060	0.271516	-0.845965	-0.003101	-0.002721	0.006886
706	3.555640	0.005000	-0.181049	0.031664	-10.484656	-0.188060	0.271406	-0.845349	-0.006594	-0.019573	0.007166
707	3.560640	0.005000	-0.117720	0.039240	-10.544426	-0.188060	0.271295	-0.844732	-0.007156	-0.001226	0.004798
708	3.565640	0.005000	-0.039240	0.006430	-10.441055	-0.188060	0.271185	-0.844115	-0.008882	-0.011134	0.003317
709	3.570640	0.005000	-0.156960	0.116909	-10.516320	-0.188060	0.271074	-0.843498	-0.020300	-0.008034	0.000482
710	3.575640	0.005000	-0.271281	0.116587	-10.516320	-0.188060	0.270964	-0.842882	-0.006073	-0.016131	-0.002646
711	3.580640	0.005000	-0.156960	0.056993	-10.448492	-0.188060	0.270853	-0.842265	-0.006142	-0.013187	0.009083
712	3.585640	0.005000	-0.055723	0.072986	-10.448828	-0.188060	0.270743	-0.841648	-0.005424	-0.010964	0.003477
713	3.590640	0.005000	-0.070580	0.039240	-10.453640	-0.188060	0.270632	-0.841032	-0.004593	-0.017050	0.011289
714	3.595640	0.005000	-0.107539	0.059601	-10.448021	-0.188060	0.270522	-0.840415	-0.016607	0.003283	-0.002066
715	3.600640	0.005000	-0.105472	-0.026992	-10.464832	-0.188060	0.270411	-0.839798	-0.012688	-0.013074	0.002056
716	3.605640	0.005000	-0.014661	0.142299	-10.398600	-0.188060	0.270301	-0.839181	-0.011913	-0.009817	0.009462
717	3.610640	0.005000	-0.117720	0.016605	-10.398600	-0.188060	0.270190	-0.838565	-0.007826	-0.012279	-0.002602
718	3.615640	0.005000	-0.137945	0.020225	-10.459274	-0.188198	0.269804	-0.838718	-0.002132	-0.022290	0.003073
719	3.620640	0.005000	-0.099658	0.063534	-10.519436	-0.188419	0.269252	-0.839334	-0.001674	-0.009025	0.002624
720	3.625640	0.005000	-0.094350	0.070981	-10.437840	-0.188639	0.268700	-0.839951	-0.011682	-0.012716	0.005704
721	3.630640	0.005000	-0.078480	0.038107	-10.437840	-0.188860	0.268149	-0.840567	-0.011991	-0.010385	0.002818
722	3.635640	0.005000	-0.084743	-0.032977	-10.499831	-0.189081	0.267597	-0.841184	-0.001644	-0.006177	0.003031
723	3.640640	0.005000	-0.090402	0.039240	-10.555560	-0.189302	0.267045	-0.841800	-0.011555	-0.010403	0.006720
724	3.645640	0.005000	-0.052621	0.000000	-10.509629	-0.189523	0.266493	-0.842417	-0.015302	-0.010784	-0.002921
725	3.650640	0.005000	-0.048619	0.078480	-10.373428	-0.189743	0.265941	-0.843033	0.003045	-0.020749	0.008850
726	3.655640	0.005000	-0.117720	0.115378	-10.555560	-0.189964	0.265389	-0.843649	-0.008552	-0.011182	0.003008
727	3.660640	0.005000	-0.078556	0.000151	-10.477231	-0.190185	0.264837	-0.844266	-0.001740	-0.010172	0.001625
728	3.665640	0.005000	-0.039240	0.002006	-10.590789	-0.190406	0.264285	-0.844882	-0.003333	-0.006457	0.011755
729	3.670640	0.005000	-0.039240	-0.043663	-10.516320	-0.190627	0.263733	-0.845499	0.001328	0.001545	0.004920
730	3.675640	0.005000	-0.085227	-0.045987	-10.523067	-0.190847	0.263181	-0.846115	0.006995	-0.010408	0.011373
731	3.680640	0.005000	-0.117720	0.051069	-10.347531	-0.191033	0.262768	-0.846693	-0.009697	0.003454	0.006144
732	3.685640	0.005000	-0.050427	0.011187	-10.465893	-0.190923	0.263541	-0.846940	-0.005939	-0.016841	0.010565
733	3.690640	0.005000	-0.130094	0.051614	-10.413092	-0.190812	0.264314	-0.847186	0.003763	-0.014147	0.007490
734	3.695640	0.005000	-0.196200	-0.008160	-10.500780	-0.190702	0.265087	-0.847433	-0.000716	-0.005192	0.000881
735	3.700640	0.005000	-0.139008	0.024624	-10.552224	-0.190591	0.265861	-0.847679	-0.004006	-0.011682	0.014879
736	3.705640	0.005000	-0.099598	0.117720	-10.536439	-0.190481	0.266634	-0.847926	-0.006798	-0.000859	-0.005467
737	3.710640	0.005000	-0.078480	0.145401	-10.533253	-0.190370	0.267407	-0.848173	-0.009178	-0.008028	0.005174
738	3.715640	0.005000	-0.093004	0.039240	-10.545367	-0.190260	0.268180	-0.848419	-0.024545	0.007755	0.010639
739	3.720640	0.005000	-0.158460	0.039240	-10.516320	-0.190150	0.268953	-0.848666	-0.006565	-0.015344	0.005720
740	3.725640	0.005000	-0.136628	0.008742	-10.448006	-0.190039	0.269726	-0.848913	-0.004177	-0.002103	0.019455
741	3.730640	0.005000	-0.094727	-0.086603	-10.383730	-0.189929	0.270499	-0.849159	-0.006786	-0.001195	0.006428
742	3.735640	0.005000	-0.235440	-0.033422	-10.522138	-0.189818	0.271272	-0.849406	-0.014087	-0.003514	0.006834
743	3.740640	0.005000	-0.121133	0.003413	-10.581149	-0.189708	0.272045	-0.849653	-0.009163	0.005563	0.002040
744	3.745640	0.005000	-0.159898	-0.034832	-10.552622	-0.189597	0.272818	-0.849899	-0.005530	-0.012648	0.003628
745	3.750640	0.005000	-0.158836	0.078480	-10.400476	-0.190271	0.272284	-0.847737	-0.022214	-0.008284	0.004302
746	3.755640	0.005000	-0.117720	0.148283	-10.516320	-0.191486	0.270848	-0.843914	-0.014961	-0.013109	-0.005553
747	3.760640	0.005000	-0.156960	0.117720	-10.584332	-0.192701	0.269413	-0.840090	-0.007131	-0.005897	0.000810
748	3.765640	0.005000	-0.125344	0.031616	-10.492328	-0.193916	0.267977	-0.836267	0.000236	-0.001415	0.005392
749	3.770640	0.005000	-0.137646	0.029583	-10.477692	-0.195131	0.266541	-0.832443	-0.003155	-0.003602	0.010975
750	3.775640	0.005000	-0.156960	0.063080	-10.465160	-0.196346	0.265105	-0.828620	-0.001428	0.005257	0.006606
751	3.780640	0.005000	-0.128942	0.053249	-10.541551	-0.197561	0.263669	-0.824797	-0.006762	-0.017761	0.002011
752	3.785640	0.005000	-0.127744	0.124117	-10.516320	-0.198776	0.262233	-0.820973	-0.014518	-0.006510	0.007462
753	3.790640	0.005000	-0.119747	0.061901	-10.495686	-0.199991	0.260797	-0.817150	-0.014847	-0.002450	-0.012499
754	3.795640	0.005000	-0.159272	0.120032	-10.474768	-0.201206	0.259362	-0.813326	-0.005661	-0.018515	0.003490
755	3.800640	0.005000	-0.101666	0.101666	-10.453894	-0.202421	0.257926	-0.809503	-0.003936	-0.003379	0.001998
756	3.805640	0.005000	-0.196200	0.050585	-10.544215	-0.203636	0.256490	-0.805679	-0.003926	-0.011301	0.002889
757	3.810640	0.005000	-0.145252	0.062655	-10.453665	-0.204851	0.255054	-0.801856	-0.012206	-0.012242	0.001390
758	3.815640	0.005000	-0.117720	-0.029947	-10.387240	-0.205875	0.253792	-0.798537	-0.004429	-0.010515	0.005296
759	3.820640	0.005000	-0.013774	-0.097059	-10.495659	-0.204660	0.254565	-0.801127	-0.003380	-0.005898	0.006521
760	3.825640	0.005000	-0.088367	-0.004943	-10.486967	-0.203445	0.255338	-0.803717	-0.005356	-0.009419	0.000173
761	3.830640	0.005000	-0.159486	0.073428	-10.474554	-0.202230	0.256111	-0.806307	-0.010620	-0.019694	0.007247
762	3.835640	0.005000	-0.196200	0.078358	-10.437840	-0.201015	0.256884	-0.808897	-0.004232	-0.004614	-0.002128
763	3.840640	0.005000	-0.158782	0.001822	-10.475258	-0.199800	0.257658	-0.811487	-0.002446	-0.012222	0.007324
764	3.845640	0.005000	-0.126100	-0.035050	-10.433650	-0.198585	0.258431	-0.814077	-0.008011	-0.005345	0.009777
765	3.850640	0.005000	-0.078480	0.051606	-10.549377	-0.197370	0.259204	-0.816667	-0.009204	0.003984	-0.003962
766	3.855640	0.005000	-0.187611	0.056418	-10.468491	-0.196155	0.259977	-0.819257	-0.008213	-0.010634	0.005823
767	3.860640	0.005000	-0.174447	0.039240	-10.527196	-0.194940	0.260750	-0.821847	-0.015936	-0.001537	0.003057
768	3.865640	0.005000	-0.130667	0.026293	-10.542613	-0.193725	0.261524	-0.824438	-0.004363	-0.019938	-0.001518
769	3.870640	0.005000	-0.117720	0.093836	-10.516320	-0.192510	0.262297	-0.827028	-0.001993	-0.010385	0.009032
770	3.875640	0.005000	-0.039240	0.139397	-10.555560	-0.191295	0.263070	-0.829618	-0.008656	-0.007543	0.009033
771	3.880640	0.005000	-0.117720	0.078480	-10.496616	-0.190080	0.263843	-0.832208	0.001846	-0.011062	0.010962
772	3.885640	0.005000	-0.117720	0.122709	-10.477080	-0.189677	0.264241	-0.833612	-0.011940	-0.005711	0.004443
773	3.890640	0.005000	-0.117720	0.063298	-10.398600	-0.189898	0.264352	-0.834105	0.001833	-0.014902	0.003396
774	3.895640	0.005000	-0.104951	0.040174	-10.436906	-0.190118	0.264462	-0.834598	-0.009890	-0.004117	0.006030
775	3.900640	0.005000	-0.156960	-0.039240	-10.483847	-0.190339	0.264573	-0.835091	-0.001675	-0.023732	-0.005521
776	3.905640	0.005000	-0.047657	0.056075	-10.468663	-0.190560	0.264683	-0.835584	-0.012241	-0.016909	0.013009
777	3.910640	0.005000	-0.156960	0.039240	-10.588401	-0.190781	0.264794	-0.836078	-0.005498	-0.002169	0.008818
778	3.915640	0.005000	-0.192143	0.074423	-10.547446	-0.191002	0.264904	-0.836571	0.000057	-0.012855	0.002635
779	3.920640	0.005000	-0.083439	0.001653	-10.591494	-0.191222	0.265014	-0.837064	-0.011300	-0.007053	-0.002915
780	3.925640	0.005000	-0.118302	0.078189	-10.594218	-0.191443	0.265125	-0.837557	-0.005016	-0.018809	-0.002113
781	3.930640	0.005000	-0.151542	0.078480	-10.440549	-0.191664	0.265235	-0.838050	-0.017731	-0.011019	0.009203
782	3.935640	0.005000	-0.044292	0.078480	-10.516320	-0.191885	0.265346	-0.838543	-0.008699	-0.004335	0.002736
783	3.940640	0.005000	-0.124778	0.117720	-10.587742	-0.192106	0.265456	-0.839036	-0.007679	-0.014009	0.008925
784	3.945640	0.005000	-0.147487	0.037893	-10.546087	-0.192326	0.265567	-0.839530	-0.010176	-0.005603	-0.002746
785	3.950640	0.005000	-0.055003	-0.027501	-10.532083	-0.192527	0.265687	-0.840034	-0.008652	-0.008947	-0.002354
786	3.955640	0.005000	-0.156960	0.101681	-10.477080	-0.192306	0.266019	-0.840774	-0.008275	-0.008782	0.004163
787	3.960640	0.005000	-0.127166	0.085262	-10.493309	-0.192085	0.266350	-0.841514	-0.007311	-0.010840	-0.002587
788	3.965640	0.005000	-0.099295	0.076090	-10.453875	-0.191864	0.266681	-0.842254	-0.007585	-0.006197	0.013446
789	3.970640	0.005000	-0.076552	0.000000	-10.340704	-0.191643	0.267013	-0.842994	-0.008669	0.003516	0.001315
790	3.975640	0.005000	-0.173479	0.055759	-10.359360	-0.191422	0.267344	-0.843734	-0.010177	-0.013952	0.006817
791	3.980640	0.005000	-0.092780	0.053540	-10.423540	-0.191201	0.267675	-0.844474	-0.016128	-0.009819	-0.005708
792	3.985640	0.005000	-0.184309	0.023783	-10.434274	-0.190981	0.268006	-0.845214	0.000161	-0.007167	0.005975
793	3.990640	0.005000	-0.078480	0.058905	-10.437840	-0.190760	0.268338	-0.845954	-0.018419	-0.001551	0.007464
794	3.995640	0.005000	-0.093545	0.134362	-10.477080	-0.190539	0.268669	-0.846694	-0.012597	-0.011223	0.003887
795	4.000640	0.005000	-0.083607	0.000000	-10.555560	-0.190318	0.269000	-0.847434	-0.006366	-0.009831	0.012686
796	4.005640	0.005000	-0.193054	0.000000	-10.516320	-0.190097	0.269332	-0.848174	-0.006254	0.001414	0.008649
797	4.010640	0.005000	-0.195434	0.038474	-10.516320	-0.189876	0.269663	-0.848914	-0.008673	-0.008364	0.005052
798	4.015640	0.005000	-0.081717	0.000000	-10.516320	-0.189655	0.269994	-0.849654	-0.005847	0.004105	0.011248
799	4.020640	0.005000	-0.196200	-0.042823	-10.516320	-0.189552	0.270208	-0.849606	-0.006779	-0.009788	-0.004967
800	4.025640	0.005000	-0.117720	0.084466	-10.443826	-0.189552	0.270318	-0.848866	-0.015171	-0.020985	0.011459
801	4.030640	0.005000	-0.117720	0.000000	-10.367291	-0.189552	0.270429	-0.848126	-0.017339	-0.011325	-0.003728
802	4.035640	0.005000	-0.047443	0.000000	-10.419291	-0.189552	0.270539	-0.847386	-0.001169	-0.018222	0.002189
803	4.040640	0.005000	-0.156960	0.065879	-10.516320	-0.189552	0.270650	-0.846646	-0.006789	0.002565	-0.003360
804	4.045640	0.005000	-0.210898	0.166804	-10.501622	-0.189552	0.270760	-0.845905	-0.008878	-0.010687	0.001263
805	4.050640	0.005000	-0.146920	0.000000	-10.533430	-0.189552	0.270871	-0.845165	-0.008042	-0.007168	0.007081
806	4.055640	0.005000	-0.137673	-0.019287	-10.555560	-0.189552	0.270981	-0.844425	-0.007464	-0.007467	-0.002364
807	4.060640	0.005000	-0.160650	-0.053325	-10.616265	-0.189552	0.271092	-0.843685	-0.009604	-0.003405	0.001391
808	4.065640	0.005000	-0.149003	0.023598	-10.555560	-0.189552	0.271202	-0.842945	-0.009604	-0.008315	-0.005159
809	4.070640	0.005000	-0.104298	-0.012396	-10.489476	-0.189552	0.271313	-0.842205	-0.004540	-0.014484	0.006060
810	4.075640	0.005000	-0.095704	0.067472	-10.459856	-0.189552	0.271423	-0.841465	-0.011350	-0.006922	0.009200
811	4.080640	0.005000	-0.138833	0.117720	-10.555560	-0.189552	0.271534	-0.840725	-0.002260	-0.014723	0.002505
812	4.085640	0.005000	-0.156960	0.189543	-10.398600	-0.189545	0.271633	-0.840010	0.003449	-0.012934	0.012605
813	4.090640	0.005000	-0.161619	0.009318	-10.437840	-0.189214	0.271192	-0.840503	-0.006889	-0.008722	-0.004845
814	4.095640	0.005000	-0.198497	0.073887	-10.405490	-0.188883	0.270750	-0.840996	0.004344	-0.013078	0.003371
815	4.100640	0.005000	-0.235440	0.039134	-10.516320	-0.188552	0.270308	-0.841489	-0.012387	0.003868	-0.003971
816	4.105640	0.005000	-0.047443	0.039240	-10.324222	-0.188221	0.269867	-0.841982	-0.002628	-0.011403	-0.004001
817	4.110640	0.005000	-0.074025	0.034785	-10.354905	-0.187890	0.269425	-0.842476	-0.011965	-0.007208	0.007164
818	4.115640	0.005000	-0.136584	0.006792	-10.516320	-0.187558	0.268984	-0.842969	-0.001618	-0.006674	0.004443
819	4.120640	0.005000	-0.177866	0.108553	-10.416934	-0.187227	0.268542	-0.843462	-0.006192	-0.005475	0.015724
820	4.125640	0.005000	-0.128942	0.022445	-10.454635	-0.186896	0.268101	-0.843955	-0.006995	-0.000320	-0.000180
821	4.130640	0.005000	-0.066197	0.066197	-10.463602	-0.186565	0.267659	-0.844448	-0.004185	-0.017206	0.006979
822	4.135640	0.005000	-0.046739	0.133300	-10.429759	-0.186234	0.267217	-0.844941	-0.010485	-0.013235	0.000000
823	4.140640	0.005000	-0.021251	0.035979	-10.459091	-0.185903	0.266776	-0.845434	-0.011225	-0.015806	-0.000992
824	4.145640	0.005000	-0.039240	0.001089	-10.516320	-0.185572	0.266334	-0.845928	-0.005264	-0.008862	0.013333
825	4.150640	0.005000	-0.061584	-0.039240	-10.555560	-0.185240	0.265893	-0.846421	-0.015698	-0.007699	0.005826
826	4.155640	0.005000	-0.088753	-0.014483	-10.437840	-0.185075	0.266004	-0.846420	-0.000695	-0.017288	0.005776
827	4.160640	0.005000	-0.012389	0.012389	-10.386211	-0.185075	0.266666	-0.845927	-0.010915	0.000394	-0.000942
828	4.165640	0.005000	-0.156960	0.175937	-10.340383	-0.185075	0.267328	-0.845434	0.000124	0.002897	-0.007060
829	4.170640	0.005000	-0.086209	0.133774	-10.359360	-0.185075	0.267991	-0.844941	0.005669	-0.006484	0.007942
830	4.175640	0.005000	-0.112002	0.089916	-10.392882	-0.185075	0.268653	-0.844448	-0.010587	-0.006444	0.000473
831	4.180640	0.005000	-0.081848	0.075112	-10.405336	-0.185075	0.269315	-0.843954	-0.006935	-0.012261	0.006810
832	4.185640	0.005000	-0.041168	0.114828	-10.478044	-0.185075	0.269978	-0.843461	-0.012645	-0.005504	0.004045
833	4.190640	0.005000	-0.117720	0.000000	-10.478060	-0.185075	0.270640	-0.842968	0.002133	-0.012115	0.004372
834	4.195640	0.005000	-0.035842	0.075082	-10.401998	-0.185075	0.271303	-0.842475	-0.011047	-0.002687	0.003654
835	4.200640	0.005000	-0.072747	0.061280	-10.420640	-0.185075	0.271965	-0.841982	-0.011417	-0.014528	-0.001983
836	4.205640	0.005000	-0.133719	0.078480	-10.484827	-0.185075	0.272627	-0.841489	-0.006211	-0.018362	0.010386
837	4.210640	0.005000	-0.068318	0.097396	-10.495996	-0.185075	0.273290	-0.840996	-0.004256	-0.014244	0.001007
838	4.215640	0.005000	-0.037258	0.037258	-10.582381	-0.185075	0.273952	-0.840502	-0.006698	-0.026262	0.006585
839	4.220640	0.005000	-0.142446	-0.053754	-10.584588	-0.185075	0.274615	-0.840009	-0.015914	-0.002149	0.000927
840	4.225640	0.005000	-0.179469	0.050192	-10.505368	-0.185292	0.274410	-0.839758	-0.019787	-0.001766	0.012085
841	4.230640	0.005000	-0.117720	0.020370	-10.437840	-0.185513	0.274189	-0.839511	-0.011375	-0.001887	0.009848
842	4.235640	0.005000	-0.171597	0.078480	-10.437840	-0.185734	0.273968	-0.839265	-0.011035	-0.007503	-0.000483
843	4.240640	0.005000	-0.196200	0.039240	-10.500306	-0.185954	0.273748	-0.839018	0.003363	-0.018637	0.008350
844	4.245640	0.005000	-0.156960	0.117720	-10.516320	-0.186175	0.273527	-0.838771	-0.004215	-0.009138	0.002536
845	4.250640	0.005000	-0.184673	0.066953	-10.583273	-0.186396	0.273306	-0.838525	-0.012953	-0.007436	0.013245
846	4.255640	0.005000	-0.156960	0.048499	-10.456358	-0.186617	0.273085	-0.838278	-0.004672	-0.000312	0.008877
847	4.260640	0.005000	-0.124564	0.071636	-10.477080	-0.186838	0.272864	-0.838031	-0.007729	-0.011593	0.002045
848	4.265640	0.005000	-0.078480	0.078480	-10.369041	-0.187059	0.272643	-0.837785	-0.010087	-0.012080	0.008696
849	4.270640	0.005000	-0.146982	0.039240	-10.513825	-0.187280	0.272422	-0.837538	-0.011411	-0.008434	-0.001345
850	4.275640	0.005000	-0.039393	0.039240	-10.477157	-0.187501	0.272201	-0.837292	-0.005495	-0.014314	0.012946
851	4.280640	0.005000	-0.155093	0.076613	-10.478947	-0.187722	0.271980	-0.837045	-0.011929	-0.008529	0.005376
852	4.285640	0.005000	-0.078480	-0.022154	-10.551288	-0.187942	0.271760	-0.836798	0.000015	-0.015981	0.002873
853	4.290640	0.005000	-0.111504	0.138312	-10.528752	-0.188060	0.271539	-0.836840	0.010181	-0.015862	0.015326
854	4.295640	0.005000	-0.087112	0.047872	-10.529665	-0.188060	0.271318	-0.837210	-0.005602	-0.007304	-0.000682
855	4.300640	0.005000	-0.100557	-0.028201	-10.494243	-0.188060	0.271097	-0.837580	-0.006667	-0.017853	0.006109
856	4.305640	0.005000	-0.026721	0.026721	-10.516320	-0.188060	0.270876	-0.837950	-0.005975	-0.006720	-0.004882
857	4.310640	0.005000	-0.093407	0.005542	-10.477080	-0.188060	0.270655	-0.838320	-0.011032	-0.012353	0.007058
858	4.315640	0.005000	-0.117720	-0.039240	-10.533444	-0.188060	0.270434	-0.838690	-0.006525	-0.005252	0.008043
859	4.320640	0.005000	-0.138373	0.099133	-10.555560	-0.188060	0.270213	-0.839060	-0.012402	-0.001934	0.008653
860	4.325640	0.005000	-0.039240	0.117720	-10.498766	-0.188060	0.269992	-0.839430	-0.001849	-0.008573	0.004966
861	4.330640	0.005000	-0.094090	0.039240	-10.453450	-0.188060	0.269771	-0.839800	-0.020483	-0.004977	-0.002785
862	4.335640	0.005000	-0.091325	-0.013197	-10.424643	-0.188060	0.269551	-0.840170	-0.014937	-0.019400	0.010374
863	4.340640	0.005000	-0.100717	0.095483	-10.443724	-0.188060	0.269330	-0.840540	-0.009536	0.002370	0.005794
864	4.345640	0.005000	-0.169662	0.139268	-10.446686	-0.188060	0.269109	-0.840910	0.000296	-0.010369	0.007332
865	4.350640	0.005000	-0.111290	0.144099	-10.359360	-0.188060	0.268888	-0.841280	-0.006277	-0.007117	0.010803
866	4.355640	0.005000	-0.161392	0.039240	-10.472648	-0.188060	0.268667	-0.841650	-0.014966	-0.008221	0.013608
867	4.360640	0.005000	-0.196200	0.043403	-10.516320	-0.187955	0.268341	-0.841785	-0.001566	-0.010207	0.017068
868	4.365640	0.005000	-0.196200	0.156627	-10.399598	-0.187844	0.268009	-0.841908	-0.020025	-0.005927	-0.002065
869	4.370640	0.005000	-0.083041	-0.036960	-10.590239	-0.187734	0.267678	-0.842031	-0.013040	-0.016512	-0.002119
870	4.375640	0.005000	-0.117720	0.034555	-10.590115	-0.187623	0.267347	-0.842154	-0.007430	-0.003719	0.004300
871	4.380640	0.005000	-0.124739	0.046259	-10.580762	-0.187513	0.267016	-0.842278	-0.008113	-0.010037	0.005709
872	4.385640	0.005000	-0.117720	0.117720	-10.507287	-0.187402	0.266685	-0.842401	-0.004387	-0.007996	0.004135
873	4.390640	0.005000	-0.140615	0.173305	-10.504872	-0.187292	0.266353	-0.842524	-0.001090	-0.000049	-0.002749
874	4.395640	0.005000	-0.066620	0.131410	-10.488940	-0.187181	0.266022	-0.842647	-0.007171	-0.008617	0.008918
875	4.400640	0.005000	-0.133520	0.039761	-10.523960	-0.187071	0.265691	-0.842771	-0.011298	-0.001419	-0.009263
876	4.405640	0.005000	-0.075243	-0.075243	-10.495081	-0.186961	0.265360	-0.842894	-0.009480	-0.014700	0.002103
877	4.410640	0.005000	-0.059396	0.058324	-10.416613	-0.186850	0.265028	-0.843017	-0.016347	-0.013069	0.013612
878	4.415640	0.005000	-0.072586	0.067702	-10.415273	-0.186740	0.264697	-0.843140	-0.010325	-0.008482	0.005599
879	4.420640	0.005000	-0.093032	0.024688	-10.413152	-0.186629	0.264366	-0.843263	-0.002165	-0.014317	0.009331
880	4.425640	0.005000	-0.171560	0.063880	-10.477080	-0.186615	0.264323	-0.843279	-0.007448	-0.002362	-0.001404
881	4.430640	0.005000	-0.088386	0.137149	-10.389077	-0.186726	0.264655	-0.843156	0.004751	-0.015356	0.004883
882	4.435640	0.005000	-0.078480	0.109759	-10.437840	-0.186836	0.264986	-0.843033	-0.012130	-0.007252	0.007946
883	4.440640	0.005000	-0.112165	0.050351	-10.477080	-0.186947	0.265317	-0.842909	0.000820	-0.007400	0.003475
884	4.445640	0.005000	0.032100	0.117720	-10.437840	-0.187057	0.265649	-0.842786	-0.004663	-0.009356	0.017056
885	4.450640	0.005000	-0.082063	0.036852	-10.551977	-0.187168	0.265980	-0.842663	-0.009992	-0.002224	0.001848
886	4.455640	0.005000	-0.196200	-0.001195	-10.437840	-0.187278	0.266312	-0.842540	-0.008622	-0.016401	0.016591
887	4.460640	0.005000	-0.009458	0.036087	-10.467622	-0.187389	0.266643	-0.842416	-0.009648	-0.005713	0.006144
888	4.465640	0.005000	-0.083971	-0.033749	-10.364851	-0.187499	0.266974	-0.842293	-0.003452	-0.007789	-0.004887
889	4.470640	0.005000	-0.062717	-0.007881	-10.469199	-0.187609	0.267306	-0.842170	-0.003248	0.000380	0.009967
890	4.475640	0.005000	-0.049157	-0.009917	-10.516320	-0.187720	0.267637	-0.842046	-0.018299	-0.003174	-0.000935
891	4.480640	0.005000	-0.156960	0.039240	-10.504143	-0.187830	0.267969	-0.841923	-0.002143	-0.014933	0.011155
892	4.485640	0.005000	-0.131989	0.078480	-10.427138	-0.187941	0.268300	-0.841800	-0.008755	-0.003658	0.003504
893	4.490640	0.005000	-0.179518	-0.022558	-10.505515	-0.188051	0.268631	-0.841677	0.000791	-0.010581	-0.000302
894	4.495640	0.005000	-0.215064	0.061129	-10.477080	-0.188060	0.268555	-0.841440	-0.013108	-0.003757	0.003356
895	4.500640	0.005000	-0.156960	0.120552	-10.398600	-0.188060	0.268445	-0.841193	-0.010545	-0.010950	-0.001696
896	4.505640	0.005000	-0.172754	0.094274	-10.437840	-0.188060	0.268334	-0.840946	-0.006323	-0.004979	0.003594
897	4.510640	0.005000	-0.180679	0.078480	-10.608490	-0.188060	0.268224	-0.840700	-0.012235	0.005092	0.001611
898	4.515640	0.005000	-0.101353	0.106283	-10.504883	-0.188060	0.268113	-0.840453	-0.001474	-0.009490	0.009206
899	4.520640	0.005000	-0.108341	0.028137	-10.477080	-0.188060	0.268003	-0.840206	-0.008096	-0.006614	0.016033
900	4.525640	0.005000	-0.156960	0.078480	-10.398600	-0.188060	0.267893	-0.839960	-0.004275	-0.012495	0.001924
901	4.530640	0.005000	-0.161643	0.039240	-10.481763	-0.188060	0.267782	-0.839713	0.000232	-0.003189	0.009453
902	4.535640	0.005000	-0.156960	0.041948	-10.550144	-0.188060	0.267672	-0.839467	-0.007977	-0.012536	0.010286
903	4.540640	0.005000	-0.077837	-0.078802	-10.516963	-0.188060	0.267561	-0.839220	-0.009194	-0.019926	0.008893
904	4.545640	0.005000	-0.074365	-0.080537	-10.594800	-0.188060	0.267451	-0.838973	-0.015351	-0.004861	0.005090
905	4.550640	0.005000	-0.082507	0.035213	-10.520347	-0.188060	0.267340	-0.838727	0.000583	-0.010355	0.002108
906	4.555640	0.005000	-0.144074	-0.045683	-10.470637	-0.188060	0.267230	-0.838480	-0.018169	-0.006421	0.008221
907	4.560640	0.005000	-0.135207	0.013009	-10.446584	-0.188238	0.267075	-0.837885	-0.004406	-0.013053	-0.003164
908	4.565640	0.005000	-0.185406	-0.010794	-10.409394	-0.188680	0.266854	-0.836775	0.001460	-0.008175	0.010711
909	4.570640	0.005000	-0.209255	0.039316	-10.490059	-0.189122	0.266633	-0.835664	-0.003919	-0.001092	0.010805
910	4.575640	0.005000	-0.093631	0.039240	-10.549346	-0.189564	0.266412	-0.834554	-0.012913	-0.002102	0.011631
911	4.580640	0.005000	-0.121838	0.100159	-10.477080	-0.190006	0.266191	-0.833443	-0.007287	-0.003622	0.008727
912	4.585640	0.005000	-0.117478	0.078480	-10.438082	-0.190448	0.265970	-0.832333	-0.009102	-0.010449	0.005195
913	4.590640	0.005000	-0.061156	0.004591	-10.477080	-0.190890	0.265749	-0.831222	-0.007788	-0.015272	0.010538
914	4.595640	0.005000	-0.063568	0.000000	-10.510824	-0.191332	0.265528	-0.830112	-0.015609	-0.013062	-0.003633
915	4.600640	0.005000	-0.078480	-0.039996	-10.517076	-0.191774	0.265307	-0.829001	-0.005965	-0.011061	0.009479
916	4.605640	0.005000	-0.117720	0.107156	-10.401616	-0.192216	0.265086	-0.827891	-0.016594	-0.002241	-0.002167
917	4.610640	0.005000	-0.092170	0.061447	-10.477080	-0.192658	0.264865	-0.826780	-0.008685	-0.009503	-0.002794
918	4.615640	0.005000	-0.117720	0.045454	-10.464653	-0.193100	0.264644	-0.825670	-0.003065	-0.014892	0.005638
919	4.620640	0.005000	-0.149366	0.082277	-10.402397	-0.193542	0.264423	-0.824559	-0.008910	-0.010439	0.001155
920	4.625640	0.005000	-0.039240	0.115890	-10.473419	-0.193984	0.264202	-0.823448	-0.009350	-0.012953	0.004552
921	4.630640	0.005000	-0.039240	0.001102	-10.437289	-0.194624	0.263882	-0.822228	-0.004384	-0.005685	0.003208
922	4.635640	0.005000	-0.002935	0.075545	-10.395665	-0.195286	0.263551	-0.820996	-0.005582	-0.012051	0.005525
923	4.640640	0.005000	-0.112807	0.107895	-10.477080	-0.195948	0.263220	-0.819763	-0.018513	0.002527	-0.000498
924	4.645640	0.005000	-0.024603	0.021955	-10.391282	-0.196611	0.262889	-0.818530	-0.013367	-0.003483	-0.006414
925	4.650640	0.005000	-0.137718	0.078480	-10.428219	-0.197273	0.262557	-0.817297	0.003237	-0.009232	0.004161
926	4.655640	0.005000	-0.113511	0.066803	-10.426163	-0.197935	0.262226	-0.816065	-0.017677	-0.010570	0.001438
927	4.660640	0.005000	-0.078480	0.062052	-10.541643	-0.198598	0.261895	-0.814832	-0.003767	-0.016246	0.011181
928	4.665640	0.005000	-0.048089	0.101690	-10.525169	-0.199260	0.261564	-0.813599	-0.004635	-0.003699	0.007740
929	4.670640	0.005000	-0.078480	0.057673	-10.458647	-0.199923	0.261232	-0.812366	-0.003754	-0.013198	0.005312
930	4.675640	0.005000	-0.175356	0.039240	-10.437840	-0.200585	0.260901	-0.811134	-0.008186	0.000960	0.005706
931	4.680640	0.005000	0.016262	0.022978	-10.431124	-0.201247	0.260570	-0.809901	-0.005770	-0.009223	-0.001015
932	4.685640	0.005000	-0.053279	0.028079	-10.491119	-0.201910	0.260239	-0.808668	-0.013309	-0.015861	0.005296
933	4.690640	0.005000	-0.122066	0.066849	-10.493058	-0.202572	0.259907	-0.807435	-0.013410	-0.004247	-0.002998
934	4.695640	0.005000	-0.147384	-0.020089	-10.536409	-0.202735	0.259784	-0.807550	-0.001178	-0.011367	0.001671
935	4.700640	0.005000	-0.046512	0.046512	-10.494503	-0.202073	0.260005	-0.809892	-0.012122	-0.004181	0.009331
936	4.705640	0.005000	-0.117720	0.078480	-10.452440	-0.201411	0.260226	-0.812234	-0.010407	-0.021649	-0.001633
937	4.710640	0.005000	-0.120609	0.081369	-10.586132	-0.200748	0.260447	-0.814576	-0.002458	-0.013638	0.008630
938	4.715640	0.005000	-0.117720	0.078480	-10.516825	-0.200086	0.260668	-0.816919	-0.010335	-0.007159	0.002033
939	4.720640	0.005000	-0.155084	0.041116	-10.630288	-0.199424	0.260889	-0.819261	-0.009411	-0.014414	0.008426
940	4.725640	0.005000	-0.113877	0.074637	-10.555560	-0.198761	0.261109	-0.821603	-0.011888	-0.011882	0.004004
941	4.730640	0.005000	-0.150701	-0.012519	-10.477080	-0.198099	0.261330	-0.823945	0.006135	-0.016680	0.008345
942	4.735640	0.005000	-0.109158	0.148398	-10.468518	-0.197436	0.261551	-0.826288	-0.011621	-0.007508	0.011079
943	4.740640	0.005000	-0.089090	0.096500	-10.487690	-0.196774	0.261772	-0.828630	-0.008193	0.000884	0.003686
944	4.745640	0.005000	-0.143946	0.130734	-10.451053	-0.196112	0.261993	-0.830972	-0.007518	-0.008382	0.016193
945	4.750640	0.005000	-0.069736	0.054488	-10.468336	-0.195449	0.262214	-0.833314	-0.013272	0.003600	0.004589
946	4.755640	0.005000	-0.056610	0.095850	-10.494450	-0.194787	0.262435	-0.835657	-0.003091	-0.004785	0.004952
947	4.760640	0.005000	-0.019459	0.059021	-10.457299	-0.194124	0.262656	-0.837999	-0.006203	-0.001620	0.002217
948	4.765640	0.005000	0.009258	0.073851	-10.450517	-0.193651	0.262971	-0.838439	-0.010366	-0.005315	-0.001773
949	4.770640	0.005000	-0.156960	0.048269	-10.398600	-0.193209	0.263302	-0.838562	-0.016430	-0.001443	0.008306
950	4.775640	0.005000	-0.078480	0.024221	-10.437840	-0.192768	0.263634	-0.838685	-0.012220	0.004031	-0.003112
951	4.780640	0.005000	-0.096481	-0.007382	-10.505701	-0.192326	0.263965	-0.838809	-0.005287	-0.018563	0.013032
952	4.785640	0.005000	-0.078480	0.053458	-10.533002	-0.191884	0.264296	-0.838932	-0.007121	-0.005973	0.009333
953	4.790640	0.005000	-0.117720	-0.015540	-10.504470	-0.191442	0.264628	-0.839056	0.002264	-0.008394	0.008067
954	4.795640	0.005000	-0.188334	0.117720	-10.449639	-0.191000	0.264959	-0.839179	-0.000637	-0.008536	0.007731
955	4.800640	0.005000	-0.081633	0.001576	-10.478656	-0.190559	0.265290	-0.839302	-0.012939	-0.007101	-0.008959
956	4.805640	0.005000	-0.156960	0.039240	-10.516320	-0.190117	0.265622	-0.839426	-0.011969	-0.006242	0.009153
957	4.810640	0.005000	-0.078480	0.078480	-10.519105	-0.189675	0.265953	-0.839549	-0.013291	0.005942	0.001694
958	4.815640	0.005000	-0.156960	0.039240	-10.374930	-0.189233	0.266284	-0.839672	-0.003570	-0.014543	0.005040
959	4.820640	0.005000	-0.070977	-0.007503	-10.351857	-0.188791	0.266615	-0.839796	-0.007149	-0.003691	0.017129
960	4.825640	0.005000	-0.088018	0.039240	-10.409225	-0.188350	0.266947	-0.839919	-0.010674	-0.003099	-0.000251
961	4.830640	0.005000	-0.011953	0.075098	-10.422505	-0.188022	0.267088	-0.840170	-0.002065	-0.009692	0.004070
962	4.835640	0.005000	-0.092669	0.064291	-10.370221	-0.187912	0.266867	-0.840663	-0.014356	-0.005956	-0.002672
963	4.840640	0.005000	-0.196200	0.108044	-10.382295	-0.187801	0.266646	-0.841156	-0.010190	-0.020419	0.002972
964	4.845640	0.005000	-0.235440	0.057957	-10.437840	-0.187691	0.266426	-0.841649	-0.017054	-0.003866	0.013631
965	4.850640	0.005000	-0.177836	0.080991	-10.458716	-0.187580	0.266205	-0.842142	-0.003148	-0.018843	0.001522
966	4.855640	0.005000	-0.163865	0.140792	-10.483985	-0.187470	0.265984	-0.842636	-0.004689	-0.003622	0.005589
967	4.860640	0.005000	-0.196200	0.039240	-10.544426	-0.187359	0.265763	-0.843129	-0.005896	-0.014935	-0.004565
968	4.865640	0.005000	-0.208015	0.023630	-10.508301	-0.187249	0.265542	-0.843622	-0.000508	-0.014662	0.012901
969	4.870640	0.005000	-0.216639	0.009400	-10.477080	-0.187138	0.265322	-0.844115	-0.001756	-0.014313	0.001595
970	4.875640	0.005000	-0.235440	0.110264	-10.484536	-0.187028	0.265101	-0.844608	-0.007605	-0.008845	0.005763
971	4.880640	0.005000	-0.112670	0.112670	-10.555560	-0.186918	0.264880	-0.845101	-0.016716	0.008045	0.010592
972	4.885640	0.005000	-0.081551	0.114649	-10.443982	-0.186807	0.264659	-0.845594	-0.010354	-0.007929	0.002028
973	4.890640	0.005000	-0.119112	0.117720	-10.397904	-0.186697	0.264438	-0.846088	-0.000478	-0.012399	0.008560
974	4.895640	0.005000	-0.233726	0.155246	-10.471938	-0.186586	0.264218	-0.846581	-0.006288	-0.005284	-0.006022
975	4.900640	0.005000	-0.117720	0.153302	-10.370333	-0.186567	0.264726	-0.846667	-0.005358	-0.018041	0.000680
976	4.905640	0.005000	-0.078480	0.045303	-10.413589	-0.186567	0.265388	-0.846667	0.002401	-0.006618	0.011030
977	4.910640	0.005000	-0.056197	0.156960	-10.463276	-0.186567	0.266051	-0.846667	-0.012185	-0.009928	-0.006627
978	4.915640	0.005000	-0.107298	0.060084	-10.466658	-0.186567	0.266714	-0.846667	-0.010031	-0.002212	0.007710
979	4.920640	0.005000	-0.105640	0.130550	-10.503490	-0.186567	0.267376	-0.846667	-0.017378	-0.005253	-0.005846
980	4.925640	0.005000	-0.181133	0.054307	-10.540493	-0.186567	0.268039	-0.846667	-0.003246	-0.016101	0.009154
981	4.930640	0.005000	-0.174147	-0.004867	-10.538373	-0.186567	0.268702	-0.846667	-0.017153	-0.006251	-0.000938
982	4.935640	0.005000	-0.215797	0.058883	-10.457483	-0.186567	0.269365	-0.846667	-0.004709	-0.002206	0.010781
983	4.940640	0.005000	-0.100233	0.039240	-10.516320	-0.186567	0.270027	-0.846667	-0.005855	-0.003003	0.004711
984	4.945640	0.005000	-0.126382	-0.030578	-10.516320	-0.186567	0.270690	-0.846667	-0.010978	-0.004132	0.000569
985	4.950640	0.005000	-0.170448	0.026364	-10.516320	-0.186567	0.271353	-0.846667	-0.004691	-0.010526	0.024356
986	4.955640	0.005000	-0.106789	0.078480	-10.505389	-0.186567	0.272015	-0.846667	-0.013546	-0.001178	0.007505
987	4.960640	0.005000	0.000000	0.087008	-10.507792	-0.186567	0.272678	-0.846667	-0.012748	-0.014431	0.010508
988	4.965640	0.005000	-0.156960	0.052249	-10.509815	-0.186601	0.273134	-0.846705	-0.019184	-0.001837	0.008206
989	4.970640	0.005000	-0.156960	0.179488	-10.402778	-0.186712	0.273134	-0.846829	-0.003218	-0.016607	0.002317
990	4.975640	0.005000	-0.155199	0.153439	-10.437840	-0.186822	0.273134	-0.846952	-0.005916	-0.013096	0.012937
991	4.980640	0.005000	-0.078664	0.039424	-10.476896	-0.186933	0.273134	-0.847075	-0.006095	-0.007150	0.005150
992	4.985640	0.005000	-0.122833	0.149291	-10.440396	-0.187043	0.273134	-0.847199	-0.005507	-0.007048	0.004668
993	4.990640	0.005000	-0.152428	0.000000	-10.372955	-0.187154	0.273134	-0.847322	-0.015504	-0.005425	-0.003504
994	4.995640	0.005000	-0.046188	0.006948	-10.352412	-0.187264	0.273134	-0.847445	-0.011155	-0.017251	0.007599
995	5.000640	0.005000	-0.108477	0.020755	-10.458595	-0.187375	0.273134	-0.847568	-0.005139	-0.008612	0.007125
996	5.005640	0.005000	-0.089779	0.168259	-10.454482	-0.187485	0.273134	-0.847692	-0.003803	0.004869	-0.007596
997	5.010640	0.005000	-0.025527	0.156960	-10.490793	-0.187596	0.273134	-0.847815	-0.010115	-0.010016	0.014539
998	5.015640	0.005000	-0.117720	0.078480	-10.578871	-0.187706	0.273134	-0.847938	-0.011602	-0.006664	-0.001593
999	5.020640	0.005000	-0.156960	0.039240	-10.534386	-0.187817	0.273134	-0.848062	-0.013522	-0.018838	0.001879
1000	5.025640	0.005000	-0.214963	0.098957	-10.456603	-0.187927	0.273134	-0.848185	-0.016103	-0.005298	0.007836
1001	5.030640	0.005000	-0.117720	0.039240	-10.421215	-0.188038	0.273134	-0.848308	-0.008657	-0.009081	0.000447
1002	5.035640	0.005000	-0.167367	0.142543	-10.423423	-0.188060	0.272958	-0.848235	-0.013582	-0.011329	0.013020
1003	5.040640	0.005000	-0.027237	0.063246	-10.386597	-0.188060	0.272737	-0.848111	-0.009799	-0.006726	-0.001828
1004	5.045640	0.005000	-0.039240	0.127144	-10.427901	-0.188060	0.272516	-0.847988	0.006666	-0.021687	0.011772
1005	5.050640	0.005000	-0.093784	0.141656	-10.501016	-0.188060	0.272295	-0.847865	-0.005772	-0.008750	0.002965
1006	5.055640	0.005000	-0.196200	0.054948	-10.437840	-0.188060	0.272074	-0.847742	-0.006721	-0.002890	-0.000261
1007	5.060640	0.005000	-0.117720	0.153708	-10.552308	-0.188060	0.271854	-0.847618	-0.001886	-0.011792	0.003465
1008	5.065640	0.005000	-0.003551	0.040128	-10.283543	-0.188060	0.271633	-0.847495	-0.003015	-0.009985	0.001367
1009	5.070640	0.005000	-0.081505	0.003025	-10.436327	-0.188060	0.271412	-0.847372	-0.005440	-0.007432	0.010696
1010	5.075640	0.005000	-0.081954	0.068058	-10.519794	-0.188060	0.271191	-0.847249	-0.013913	0.003443	0.005245
1011	5.080640	0.005000	-0.084359	0.033361	-10.465322	-0.188060	0.270970	-0.847125	-0.005233	-0.017521	0.007791
1012	5.085640	0.005000	-0.062082	0.117720	-10.423197	-0.188060	0.270750	-0.847002	-0.011292	-0.008558	0.000620
1013	5.090640	0.005000	-0.138197	0.010239	-10.398600	-0.188060	0.270529	-0.846879	-0.008909	-0.008302	0.002819
1014	5.095640	0.005000	-0.065834	0.026594	-10.373308	-0.188060	0.270308	-0.846756	-0.005144	-0.009543	0.016951
1015	5.100640	0.005000	-0.078480	-0.018243	-10.462021	-0.188245	0.270056	-0.846460	-0.020447	-0.006381	-0.007428
1016	5.105640	0.005000	-0.179206	0.056234	-10.494074	-0.188908	0.269725	-0.845720	-0.006577	-0.017230	0.002979
1017	5.110640	0.005000	-0.137126	-0.078909	-10.398600	-0.189571	0.269394	-0.844980	-0.011983	0.004099	0.004565
1018	5.115640	0.005000	-0.078480	0.017684	-10.437840	-0.190233	0.269063	-0.844240	-0.001468	-0.016129	0.001322
1019	5.120640	0.005000	-0.046436	0.039240	-10.555560	-0.190896	0.268731	-0.843500	-0.011485	-0.012910	0.007152
1020	5.125640	0.005000	-0.170030	0.000000	-10.490150	-0.191559	0.268400	-0.842760	-0.006460	-0.012397	0.003628
1021	5.130640	0.005000	-0.117720	0.145963	-10.477080	-0.192221	0.268069	-0.842020	0.001579	-0.003360	0.003401
1022	5.135640	0.005000	-0.109009	0.078480	-10.477080	-0.192884	0.267737	-0.841280	-0.011301	-0.006566	-0.005649
1023	5.140640	0.005000	-0.012611	0.065869	-10.456756	-0.193547	0.267406	-0.840540	-0.008033	-0.017734	0.009791
1024	5.145640	0.005000	-0.196200	-0.030617	-10.507697	-0.194209	0.267075	-0.839800	-0.011790	-0.008568	0.003498
1025	5.150640	0.005000	-0.192311	0.072647	-10.520209	-0.194872	0.266743	-0.839060	-0.013006	-0.007572	0.007408
1026	5.155640	0.005000	-0.078934	-0.039240	-10.517228	-0.195535	0.266412	-0.838320	-0.005435	-0.019506	0.014719
1027	5.160640	0.005000	-0.154556	0.000000	-10.521127	-0.196197	0.266081	-0.837580	-0.020240	-0.006733	0.004332
1028	5.165640	0.005000	-0.191379	0.044061	-10.442661	-0.196860	0.265749	-0.836840	0.000659	-0.017923	0.014757
1029	5.170640	0.005000	-0.053520	0.057060	-10.605480	-0.196761	0.265080	-0.836951	-0.004149	-0.013722	0.013361
1030	5.175640	0.005000	-0.039240	0.039240	-10.534662	-0.196430	0.264306	-0.837321	-0.005313	-0.012925	0.009460
1031	5.180640	0.005000	-0.090054	0.129294	-10.477080	-0.196098	0.263533	-0.837691	-0.018568	-0.012169	0.011566
1032	5.185640	0.005000	-0.207787	0.117720	-10.437840	-0.195767	0.262760	-0.838061	-0.012851	-0.010465	-0.001546
1033	5.190640	0.005000	-0.188823	0.046617	-10.516320	-0.195436	0.261987	-0.838431	-0.006847	-0.015994	0.003814
1034	5.195640	0.005000	-0.096822	0.156960	-10.495422	-0.195104	0.261214	-0.838801	-0.012586	-0.005716	0.002554
1035	5.200640	0.005000	-0.138233	0.082050	-10.477080	-0.194773	0.260441	-0.839171	-0.004565	-0.006655	-0.002941
1036	5.205640	0.005000	-0.072328	0.055784	-10.375904	-0.194441	0.259667	-0.839541	-0.006354	0.003545	0.002932
1037	5.210640	0.005000	-0.078480	0.095765	-10.362514	-0.194110	0.258894	-0.839911	-0.012352	-0.012915	0.002397
1038	5.215640	0.005000	-0.054397	0.156960	-10.422683	-0.193779	0.258121	-0.840281	0.000465	-0.019853	0.017694
1039	5.220640	0.005000	-0.088382	0.098161	-10.535879	-0.193447	0.257348	-0.840651	-0.006261	-0.013096	-0.003577
1040	5.225640	0.005000	0.000000	0.068697	-10.643823	-0.193116	0.256575	-0.841021	-0.005120	-0.013086	0.014253
1041	5.230640	0.005000	-0.112300	0.129861	-10.521740	-0.192785	0.255802	-0.841391	-0.013421	-0.004622	0.007971
1042	5.235640	0.005000	-0.117720	-0.030195	-10.437840	-0.192481	0.255392	-0.841698	-0.014859	-0.010166	0.001184
1043	5.240640	0.005000	-0.159078	0.041358	-10.362537	-0.192260	0.256054	-0.841821	-0.000733	-0.005701	0.000523
1044	5.245640	0.005000	-0.311226	0.079827	-10.477080	-0.192040	0.256716	-0.841945	-0.013297	-0.003613	0.001493
1045	5.250640	0.005000	-0.160666	0.078480	-10.512614	-0.191819	0.257379	-0.842068	-0.001046	-0.013743	0.000758
1046	5.255640	0.005000	-0.268987	0.017080	-10.522013	-0.191598	0.258041	-0.842191	-0.013579	-0.008558	0.000973
1047	5.260640	0.005000	-0.133918	0.117720	-10.524419	-0.191377	0.258704	-0.842314	-0.007271	-0.018035	-0.000301
1048	5.265640	0.005000	-0.117720	0.117720	-10.340905	-0.191156	0.259366	-0.842438	-0.004795	-0.012276	0.010458
1049	5.270640	0.005000	-0.117720	0.039240	-10.359360	-0.190936	0.260028	-0.842561	-0.000790	-0.008144	0.006688
1050	5.275640	0.005000	-0.054106	0.166468	-10.491946	-0.190715	0.260691	-0.842684	-0.008137	-0.003414	0.001501
1051	5.280640	0.005000	-0.078480	0.073397	-10.437840	-0.190494	0.261353	-0.842807	-0.003511	-0.001770	-0.005192
1052	5.285640	0.005000	-0.117720	0.176978	-10.437840	-0.190273	0.262015	-0.842930	-0.004700	-0.011049	0.012206
1053	5.290640	0.005000	-0.178335	0.099855	-10.555560	-0.190052	0.262678	-0.843054	-0.018877	0.000846	-0.002530
1054	5.295640	0.005000	-0.196200	0.102058	-10.555560	-0.189832	0.263340	-0.843177	-0.009151	-0.004433	-0.002952
1055	5.300640	0.005000	-0.170213	0.104467	-10.450573	-0.189611	0.264003	-0.843300	0.000960	-0.006282	0.013162
1056	5.305640	0.005000	-0.106410	0.106410	-10.449150	-0.189471	0.264260	-0.843152	0.005785	-0.001301	-0.007123
1057	5.310640	0.005000	-0.087375	0.039240	-10.494870	-0.189361	0.264371	-0.842905	-0.000265	-0.017287	0.008879
1058	5.315640	0.005000	-0.117720	0.071991	-10.483569	-0.189250	0.264481	-0.842659	-0.004718	-0.004321	0.001955
1059	5.320640	0.005000	-0.122213	0.078480	-10.511827	-0.189140	0.264592	-0.842412	-0.005845	-0.011282	0.000090
1060	5.325640	0.005000	-0.196200	0.076337	-10.553417	-0.189029	0.264702	-0.842165	-0.014963	-0.004117	-0.001223
1061	5.330640	0.005000	-0.196200	0.117175	-10.555288	-0.188919	0.264812	-0.841919	-0.006246	-0.006383	-0.002621
1062	5.335640	0.005000	-0.198419	0.115501	-10.597019	-0.188809	0.264923	-0.841672	-0.004633	-0.005733	0.007598
1063	5.340640	0.005000	-0.122288	0.009137	-10.481648	-0.188698	0.265033	-0.841425	-0.014517	-0.003288	-0.005401
1064	5.345640	0.005000	-0.085048	0.065344	-10.477080	-0.188588	0.265144	-0.841179	-0.005177	-0.005440	-0.000741
1065	5.350640	0.005000	-0.117720	0.135687	-10.477080	-0.188477	0.265254	-0.840932	-0.011454	-0.004403	0.003685
1066	5.355640	0.005000	-0.106465	0.039240	-10.381869	-0.188367	0.265365	-0.840686	-0.011190	-0.008164	-0.004036
1067	5.360640	0.005000	-0.117720	0.052575	-10.360126	-0.188256	0.265475	-0.840439	-0.012949	-0.002663	0.011188
