# FOX Logger (IMU file)
# (c) INRIA 2011-2014
# File created from file sensbiotk output
#
# File format:
# id	t	dt	ax	ay	az	mx	my	mz	gx	gy	gz
#
# Units:
#	Time: s
#\Acceleration: m.s^-2
#\Magneto: gauss
#\Gyrometer: rad/s
#
1	0.059692	0.059692	-0.060463	1.590823	-9.698694	0.579104	0.097015	0.308333	-0.101377	-0.046646	-0.011966
2	0.064692	0.005000	-0.078480	1.568057	-9.811543	0.579216	0.096903	0.308458	-0.109160	-0.055735	-0.019282
3	0.069692	0.005000	-0.062022	1.520225	-9.731520	0.579327	0.096792	0.308582	-0.106773	-0.047610	-0.011824
4	0.074692	0.005000	0.014083	1.594757	-9.678197	0.579439	0.096680	0.308707	-0.102854	-0.039862	-0.018798
5	0.079692	0.005000	-0.011375	1.613954	-9.653040	0.579550	0.096569	0.308831	-0.104706	-0.017995	-0.008283
6	0.084692	0.005000	-0.048208	1.569600	-9.665375	0.579662	0.096457	0.308956	-0.095684	-0.004804	-0.012300
7	0.089692	0.005000	-0.052189	1.569600	-9.646566	0.579774	0.096345	0.309081	-0.097473	0.001074	-0.028257
8	0.094692	0.005000	-0.117720	1.538559	-9.613800	0.579885	0.096234	0.309205	-0.095374	0.005211	-0.021537
9	0.099692	0.005000	-0.153541	1.567891	-9.606962	0.579997	0.096122	0.309330	-0.090351	0.015414	-0.028888
10	0.104692	0.005000	-0.078480	1.607493	-9.495406	0.580108	0.096011	0.309454	-0.078448	0.009036	-0.015111
11	0.109692	0.005000	-0.081571	1.533451	-9.453749	0.580220	0.095899	0.309579	-0.073427	0.001815	-0.023353
12	0.114692	0.005000	-0.111820	1.569600	-9.417600	0.580332	0.095787	0.309704	-0.072278	0.000599	-0.017178
13	0.119692	0.005000	-0.218891	1.577875	-9.448565	0.580443	0.095676	0.309828	-0.076921	-0.012845	-0.026538
14	0.124692	0.005000	-0.242686	1.598175	-9.378360	0.580555	0.095564	0.309953	-0.072348	-0.034468	-0.033939
15	0.129692	0.005000	-0.170157	1.569600	-9.326275	0.579766	0.094968	0.310541	-0.069173	-0.044602	-0.024038
16	0.134692	0.005000	-0.148941	1.545970	-9.221400	0.578428	0.094076	0.311413	-0.061979	-0.039464	-0.031282
17	0.139692	0.005000	-0.199400	1.569600	-9.303080	0.577090	0.093184	0.312285	-0.064416	-0.063152	-0.019744
18	0.144692	0.005000	-0.196200	1.569600	-9.357929	0.575752	0.092292	0.313156	-0.061793	-0.056287	-0.027707
19	0.149692	0.005000	-0.179999	1.585801	-9.339120	0.574414	0.091400	0.314028	-0.057469	-0.067063	-0.008435
20	0.154692	0.005000	-0.210026	1.661906	-9.415361	0.573076	0.090508	0.314900	-0.050406	-0.051149	-0.012098
21	0.159692	0.005000	-0.196200	1.670952	-9.371855	0.571738	0.089616	0.315771	-0.036701	-0.054253	-0.024196
22	0.164692	0.005000	-0.156960	1.630688	-9.308576	0.570400	0.088724	0.316643	-0.027187	-0.058725	-0.013382
23	0.169692	0.005000	-0.202492	1.530360	-9.299880	0.569062	0.087832	0.317514	-0.017434	-0.043572	-0.028928
24	0.174692	0.005000	-0.196200	1.588812	-9.260640	0.567723	0.086940	0.318386	-0.018014	-0.049161	-0.012857
25	0.179692	0.005000	-0.197652	1.761443	-9.336216	0.566385	0.086048	0.319258	-0.016623	-0.047036	-0.012131
26	0.184692	0.005000	-0.235440	1.724692	-9.184028	0.565047	0.085156	0.320129	-0.007231	-0.051609	-0.011771
27	0.189692	0.005000	-0.202903	1.615543	-9.228103	0.563709	0.084264	0.321001	-0.004320	-0.045505	-0.009735
28	0.194692	0.005000	-0.163117	1.536517	-9.182160	0.562950	0.083793	0.321344	0.005465	-0.050770	-0.018486
29	0.199692	0.005000	-0.139896	1.648080	-9.238464	0.564066	0.084685	0.319973	0.009087	-0.050800	-0.013880
30	0.204692	0.005000	-0.235440	1.591444	-9.243244	0.565181	0.085578	0.318603	0.009577	-0.047426	-0.016395
31	0.209692	0.005000	-0.144635	1.595382	-9.312205	0.566297	0.086470	0.317232	0.021794	-0.054183	-0.013743
32	0.214692	0.005000	-0.180330	1.538731	-9.456840	0.567413	0.087362	0.315862	0.018082	-0.053207	-0.021702
33	0.219692	0.005000	-0.235440	1.548640	-9.517040	0.568528	0.088255	0.314492	0.020932	-0.050932	-0.010805
34	0.224692	0.005000	-0.138411	1.590291	-9.378360	0.569644	0.089147	0.313121	0.025351	-0.050151	-0.001541
35	0.229692	0.005000	-0.133857	1.569600	-9.316017	0.570759	0.090040	0.311751	0.022233	-0.045296	-0.011223
36	0.234692	0.005000	-0.288249	1.543929	-9.417600	0.571875	0.090932	0.310381	0.030014	-0.041139	-0.011563
37	0.239692	0.005000	-0.218558	1.547242	-9.417600	0.572990	0.091825	0.309010	0.035891	-0.044004	-0.011943
38	0.244692	0.005000	-0.313920	1.474248	-9.412104	0.574106	0.092717	0.307640	0.046933	-0.049352	-0.010565
39	0.249692	0.005000	-0.353160	1.491120	-9.568530	0.575222	0.093610	0.306269	0.045598	-0.037570	-0.005376
40	0.254692	0.005000	-0.313920	1.487507	-9.499693	0.576337	0.094502	0.304899	0.041668	-0.022461	-0.006367
41	0.259692	0.005000	-0.313920	1.492329	-9.534111	0.577453	0.095395	0.303529	0.047786	-0.019552	0.001917
42	0.264692	0.005000	-0.313920	1.568405	-9.534125	0.577994	0.095522	0.303653	0.036373	-0.018818	-0.009110
43	0.269692	0.005000	-0.285390	1.419780	-9.610230	0.578440	0.095522	0.304027	0.047416	-0.016756	0.004971
44	0.274692	0.005000	-0.280697	1.473069	-9.719486	0.578886	0.095522	0.304400	0.049037	-0.012233	0.018747
45	0.279692	0.005000	-0.322353	1.538793	-9.762327	0.579332	0.095522	0.304774	0.048988	-0.015770	0.008599
46	0.284692	0.005000	-0.325099	1.519181	-9.770760	0.579778	0.095522	0.305147	0.053206	-0.011424	0.012585
47	0.289692	0.005000	-0.288234	1.634526	-9.704412	0.580224	0.095522	0.305521	0.047378	-0.003172	-0.002510
48	0.294692	0.005000	-0.290624	1.569600	-9.731520	0.580670	0.095522	0.305894	0.045140	0.007504	0.016753
49	0.299692	0.005000	-0.214519	1.587919	-9.752441	0.581116	0.095522	0.306268	0.036925	0.026967	0.013588
50	0.304692	0.005000	-0.196200	1.548649	-9.791711	0.581562	0.095522	0.306642	0.045785	0.032341	0.013198
51	0.309692	0.005000	-0.329607	1.522494	-9.747207	0.582008	0.095522	0.307015	0.041365	0.039700	0.025103
52	0.314692	0.005000	-0.235440	1.582912	-9.731520	0.582454	0.095522	0.307389	0.046330	0.040211	0.020671
53	0.319692	0.005000	-0.252836	1.619762	-9.877558	0.582900	0.095522	0.307762	0.044611	0.032856	0.027341
54	0.324692	0.005000	-0.196200	1.561424	-9.801824	0.583347	0.095522	0.308136	0.032176	0.032904	0.021175
55	0.329692	0.005000	-0.184661	1.563830	-9.782299	0.583687	0.095943	0.307745	0.037400	0.045978	0.025559
56	0.334692	0.005000	-0.271327	1.537066	-9.813353	0.583910	0.096836	0.306499	0.039464	0.035987	0.017729
57	0.339692	0.005000	-0.312044	1.567724	-9.810000	0.584134	0.097728	0.305254	0.048767	0.029004	0.013259
58	0.344692	0.005000	-0.310982	1.491120	-9.810000	0.584357	0.098621	0.304008	0.048208	0.014798	0.018452
59	0.349692	0.005000	-0.200073	1.530360	-9.845367	0.584580	0.099513	0.302762	0.041216	0.016388	0.010114
60	0.354692	0.005000	-0.235440	1.530360	-9.855911	0.584803	0.100406	0.301517	0.045249	-0.000613	0.013088
61	0.359692	0.005000	-0.286736	1.560539	-9.909598	0.585026	0.101298	0.300271	0.035807	0.003779	0.015996
62	0.364692	0.005000	-0.325356	1.625208	-9.849240	0.585249	0.102191	0.299025	0.037027	-0.007697	0.015602
63	0.369692	0.005000	-0.341542	1.544171	-9.904485	0.585472	0.103084	0.297779	0.031265	-0.020685	0.015832
64	0.374692	0.005000	-0.290881	1.578964	-9.989999	0.585695	0.103976	0.296534	0.034996	-0.021263	0.017529
65	0.379692	0.005000	-0.216639	1.470681	-10.006200	0.585918	0.104869	0.295288	0.027148	-0.025619	0.019437
66	0.384692	0.005000	-0.328765	1.527177	-10.081497	0.586142	0.105761	0.294042	0.022345	-0.027966	0.016472
67	0.389692	0.005000	-0.368776	1.514346	-10.218016	0.586365	0.106654	0.292797	0.028325	-0.039617	0.020480
68	0.394692	0.005000	-0.274680	1.648080	-10.228585	0.586577	0.107421	0.291667	0.019099	-0.034163	0.023213
69	0.399692	0.005000	-0.274680	1.580265	-10.238221	0.586689	0.106975	0.291667	0.022667	-0.041216	0.017523
70	0.404692	0.005000	-0.252019	1.639790	-10.109549	0.586800	0.106529	0.291667	0.024222	-0.038216	0.023193
71	0.409692	0.005000	-0.353160	1.569600	-10.208300	0.586912	0.106083	0.291667	0.004858	-0.025780	0.014641
72	0.414692	0.005000	-0.313920	1.641895	-10.202400	0.587024	0.105637	0.291667	0.004412	-0.012793	0.031320
73	0.419692	0.005000	-0.276041	1.610201	-10.203081	0.587135	0.105191	0.291667	0.001055	-0.003164	0.026301
74	0.424692	0.005000	-0.315649	1.649809	-10.166619	0.587247	0.104745	0.291667	0.009735	-0.002630	0.021985
75	0.429692	0.005000	-0.326321	1.749265	-10.315986	0.587358	0.104299	0.291667	-0.006402	0.010021	0.029358
76	0.434692	0.005000	-0.346610	1.746211	-10.208950	0.587470	0.103853	0.291667	-0.011205	0.012054	0.028520
77	0.439692	0.005000	-0.371797	1.726560	-10.250958	0.587581	0.103407	0.291667	0.000202	0.015190	0.027893
78	0.444692	0.005000	-0.313920	1.699013	-10.253333	0.587693	0.102961	0.291667	-0.008197	0.003152	0.028472
79	0.449692	0.005000	-0.378317	1.662163	-10.227557	0.587804	0.102515	0.291667	-0.008084	0.009170	0.026319
80	0.454692	0.005000	-0.409057	1.709903	-10.219057	0.587916	0.102069	0.291667	-0.017372	0.004985	0.031618
81	0.459692	0.005000	-0.334091	1.766902	-10.084680	0.588027	0.101623	0.291667	-0.017231	0.007093	0.022852
82	0.464692	0.005000	-0.270565	1.752352	-10.276765	0.587981	0.101572	0.291843	-0.016192	-0.005188	0.026272
83	0.469692	0.005000	-0.313920	1.696215	-10.289775	0.587869	0.101683	0.292092	-0.032964	0.002759	0.029819
84	0.474692	0.005000	-0.417995	1.687320	-10.228842	0.587758	0.101795	0.292341	-0.035140	-0.007819	0.041080
85	0.479692	0.005000	-0.392400	1.677250	-10.251710	0.587646	0.101906	0.292590	-0.043767	-0.010023	0.044792
86	0.484692	0.005000	-0.392400	1.625389	-10.288444	0.587535	0.102018	0.292839	-0.038504	-0.011090	0.042855
87	0.489692	0.005000	-0.421263	1.619217	-10.197211	0.587423	0.102129	0.293088	-0.043947	-0.008380	0.036849
88	0.494692	0.005000	-0.350361	1.650879	-10.165959	0.587312	0.102241	0.293337	-0.047561	-0.007742	0.043306
89	0.499692	0.005000	-0.391976	1.647656	-10.162736	0.587200	0.102352	0.293586	-0.048261	0.002236	0.059449
90	0.504692	0.005000	-0.463619	1.682479	-10.197559	0.587089	0.102464	0.293835	-0.057245	0.003756	0.051695
91	0.509692	0.005000	-0.367591	1.721750	-10.285690	0.586977	0.102575	0.294084	-0.061853	0.002777	0.053207
92	0.514692	0.005000	-0.345975	1.758615	-10.241640	0.586866	0.102687	0.294333	-0.061460	0.010248	0.053349
93	0.519692	0.005000	-0.392400	1.844280	-10.084680	0.586754	0.102798	0.294582	-0.061967	0.021908	0.055916
94	0.524692	0.005000	-0.326339	1.751399	-10.125902	0.586642	0.102910	0.294831	-0.063276	0.019109	0.061391
95	0.529692	0.005000	-0.338187	1.741533	-10.208080	0.586639	0.102877	0.294839	-0.074831	0.031144	0.068109
96	0.534692	0.005000	-0.209117	1.726560	-10.176077	0.586862	0.102542	0.294341	-0.074041	0.015958	0.065492
97	0.539692	0.005000	-0.254652	1.726560	-10.006200	0.587085	0.102207	0.293842	-0.078704	0.029278	0.062460
98	0.544692	0.005000	-0.179363	1.648080	-9.905317	0.587308	0.101873	0.293344	-0.084554	0.038622	0.065358
99	0.549692	0.005000	-0.249886	1.598493	-9.966960	0.587532	0.101538	0.292846	-0.086250	0.026831	0.068934
100	0.554692	0.005000	-0.271655	1.711463	-9.966960	0.587755	0.101203	0.292347	-0.086116	0.030105	0.069960
101	0.559692	0.005000	-0.313920	1.834944	-9.916487	0.587978	0.100869	0.291849	-0.086890	0.022330	0.068728
102	0.564692	0.005000	-0.281600	1.733480	-9.946199	0.588201	0.100534	0.291351	-0.081890	0.028314	0.069672
103	0.569692	0.005000	-0.335094	1.661630	-9.844723	0.588424	0.100199	0.290852	-0.076453	0.023401	0.066232
104	0.574692	0.005000	-0.318095	1.687320	-9.733608	0.588647	0.099864	0.290354	-0.080011	0.036191	0.069156
105	0.579692	0.005000	-0.314532	1.687320	-9.731826	0.588870	0.099530	0.289856	-0.085896	0.032359	0.066296
106	0.584692	0.005000	-0.313920	1.723850	-9.728810	0.589093	0.099195	0.289357	-0.081961	0.016812	0.077998
107	0.589692	0.005000	-0.269159	1.833237	-9.798957	0.589316	0.098860	0.288859	-0.073747	0.017975	0.071702
108	0.594692	0.005000	-0.235440	1.914848	-9.849240	0.589540	0.098526	0.288361	-0.087649	0.016189	0.061086
109	0.599692	0.005000	-0.138293	1.796660	-9.781047	0.589341	0.098191	0.288804	-0.090220	0.009826	0.074721
110	0.604692	0.005000	-0.156960	1.817865	-9.745110	0.589118	0.097856	0.289302	-0.087291	0.016522	0.075593
111	0.609692	0.005000	-0.093714	1.813813	-9.677046	0.588895	0.097522	0.289800	-0.087503	0.013894	0.077324
112	0.614692	0.005000	-0.117720	1.822686	-9.713874	0.588672	0.097187	0.290298	-0.081707	0.019145	0.060480
113	0.619692	0.005000	-0.097664	1.725687	-9.711464	0.588449	0.096853	0.290797	-0.079433	0.021425	0.066457
114	0.624692	0.005000	-0.101141	1.676822	-9.714941	0.588226	0.096518	0.291295	-0.080329	0.028610	0.069432
115	0.629692	0.005000	-0.078480	1.765800	-9.613800	0.588003	0.096183	0.291793	-0.075533	0.025589	0.065125
116	0.634692	0.005000	-0.089963	1.738043	-9.625283	0.587780	0.095849	0.292292	-0.069765	0.028675	0.065746
117	0.639692	0.005000	-0.117720	1.648080	-9.604725	0.587556	0.095514	0.292790	-0.070115	0.026535	0.056639
118	0.644692	0.005000	-0.156960	1.661400	-9.613800	0.587333	0.095179	0.293288	-0.067344	0.027283	0.065632
119	0.649692	0.005000	-0.152755	1.691525	-9.535320	0.587110	0.094845	0.293787	-0.063067	0.043225	0.061074
120	0.654692	0.005000	-0.114089	1.608840	-9.537135	0.586887	0.094510	0.294285	-0.065077	0.032363	0.078938
121	0.659692	0.005000	-0.077914	1.608840	-9.574560	0.586664	0.094175	0.294783	-0.055024	0.029597	0.062852
122	0.664692	0.005000	-0.039240	1.726560	-9.535320	0.586756	0.094093	0.294789	-0.048208	0.016375	0.066043
123	0.669692	0.005000	-0.078480	1.620397	-9.501859	0.587091	0.094205	0.294415	-0.059351	0.013394	0.065765
124	0.674692	0.005000	-0.039240	1.631743	-9.504249	0.587426	0.094316	0.294041	-0.058100	0.016738	0.054048
125	0.679692	0.005000	-0.067936	1.569600	-9.477927	0.587760	0.094428	0.293668	-0.050349	0.007914	0.063649
126	0.684692	0.005000	-0.078480	1.621774	-9.456401	0.588095	0.094539	0.293294	-0.048470	0.002516	0.060883
127	0.689692	0.005000	-0.078480	1.624149	-9.441531	0.588430	0.094651	0.292920	-0.034566	0.001669	0.055043
128	0.694692	0.005000	-0.096386	1.569600	-9.421028	0.588764	0.094762	0.292546	-0.039394	-0.007452	0.055556
129	0.699692	0.005000	-0.020317	1.608840	-9.378360	0.589099	0.094874	0.292173	-0.043897	-0.012948	0.050778
130	0.704692	0.005000	-0.094802	1.631758	-9.322798	0.589434	0.094985	0.291799	-0.032428	-0.013878	0.053972
131	0.709692	0.005000	-0.025308	1.636704	-9.366984	0.589769	0.095097	0.291425	-0.033136	-0.012523	0.052814
132	0.714692	0.005000	-0.027683	1.675763	-9.373792	0.590103	0.095208	0.291051	-0.018736	-0.026955	0.056336
133	0.719692	0.005000	-0.018334	1.618007	-9.417600	0.590438	0.095320	0.290678	-0.027074	-0.020171	0.056377
134	0.724692	0.005000	0.000000	1.550401	-9.331878	0.590773	0.095431	0.290304	-0.024283	-0.007921	0.049684
135	0.729692	0.005000	0.035246	1.483131	-9.570566	0.590983	0.095439	0.290093	-0.018542	0.002315	0.049096
136	0.734692	0.005000	0.000000	1.492697	-9.574560	0.590648	0.094993	0.290591	-0.018325	0.008470	0.038900
137	0.739692	0.005000	0.038423	1.530360	-9.459291	0.590313	0.094546	0.291090	-0.011463	-0.001102	0.039962
138	0.744692	0.005000	0.006489	1.530360	-9.604067	0.589978	0.094100	0.291588	-0.014629	0.007592	0.040928
139	0.749692	0.005000	0.145661	1.502419	-9.501729	0.589644	0.093654	0.292086	-0.011684	0.009216	0.031178
140	0.754692	0.005000	0.117720	1.671189	-9.535320	0.589309	0.093208	0.292585	-0.000784	0.012291	0.043453
141	0.759692	0.005000	0.050041	1.619641	-9.552958	0.588974	0.092761	0.293083	-0.008951	0.014232	0.028297
142	0.764692	0.005000	0.052431	1.608840	-9.548511	0.588640	0.092315	0.293581	0.002478	0.015937	0.026361
143	0.769692	0.005000	0.054806	1.467446	-9.558994	0.588305	0.091869	0.294079	-0.004620	0.018028	0.024816
144	0.774692	0.005000	0.096646	1.527452	-9.535320	0.587970	0.091423	0.294578	0.002803	0.009107	0.020949
145	0.779692	0.005000	0.022491	1.491120	-9.514743	0.587636	0.090977	0.295076	-0.002738	0.015937	0.015594
146	0.784692	0.005000	0.000000	1.599321	-9.574560	0.587301	0.090530	0.295574	-0.003608	0.012222	0.003839
147	0.789692	0.005000	0.000000	1.516685	-9.547210	0.586966	0.090084	0.296073	-0.004266	0.004305	0.022775
148	0.794692	0.005000	-0.027940	1.592200	-9.507380	0.586631	0.089638	0.296571	-0.002902	0.013069	0.008672
149	0.799692	0.005000	0.000000	1.617750	-9.565650	0.586477	0.089912	0.296466	-0.000315	0.006157	0.009401
150	0.804692	0.005000	0.065380	1.615375	-9.502615	0.586365	0.090359	0.296217	0.006943	-0.001544	0.014920
151	0.809692	0.005000	0.117720	1.569600	-9.496080	0.586254	0.090805	0.295967	0.005057	-0.004083	0.007840
152	0.814692	0.005000	0.077163	1.570917	-9.534003	0.586142	0.091251	0.295718	-0.000819	0.005176	0.014051
153	0.819692	0.005000	0.039240	1.723338	-9.610578	0.586031	0.091697	0.295469	-0.007039	0.005040	-0.005208
154	0.824692	0.005000	0.000000	1.801576	-9.571096	0.585919	0.092143	0.295220	-0.001766	-0.014007	-0.003303
155	0.829692	0.005000	-0.111810	1.738379	-9.568650	0.585808	0.092590	0.294971	0.005330	-0.014279	-0.003741
156	0.834692	0.005000	-0.078480	1.695645	-9.613800	0.585696	0.093036	0.294721	0.011461	-0.021572	-0.002282
157	0.839692	0.005000	-0.067748	1.744335	-9.692280	0.585585	0.093482	0.294472	0.014966	-0.012607	-0.004002
158	0.844692	0.005000	-0.065032	1.687320	-9.653040	0.585473	0.093928	0.294223	0.017397	-0.017950	-0.013484
159	0.849692	0.005000	-0.062642	1.632242	-9.653040	0.585362	0.094375	0.293974	0.022297	-0.019952	-0.013600
160	0.854692	0.005000	-0.039240	1.606026	-9.535320	0.585250	0.094821	0.293725	0.021234	-0.013672	-0.012665
161	0.859692	0.005000	-0.020837	1.608840	-9.556157	0.585139	0.095267	0.293475	0.027861	-0.024356	-0.011974
162	0.864692	0.005000	-0.023247	1.703313	-9.528066	0.585266	0.095331	0.293440	0.022075	-0.012986	-0.005724
163	0.869692	0.005000	-0.064900	1.752220	-9.574560	0.585712	0.094885	0.293689	0.028584	-0.021359	-0.020200
164	0.874692	0.005000	-0.039240	1.698363	-9.602757	0.586159	0.094438	0.293938	0.038073	-0.033187	-0.016223
165	0.879692	0.005000	-0.017306	1.735213	-9.600518	0.586605	0.093992	0.294187	0.040350	-0.032806	-0.011871
166	0.884692	0.005000	-0.111841	1.738318	-9.574560	0.587051	0.093546	0.294437	0.038748	-0.034183	-0.012251
167	0.889692	0.005000	0.075006	1.762326	-9.685332	0.587497	0.093100	0.294686	0.040424	-0.025603	-0.024411
168	0.894692	0.005000	0.000000	1.609896	-9.768647	0.587944	0.092653	0.294935	0.040970	-0.038865	-0.023175
169	0.899692	0.005000	0.000000	1.648080	-9.730189	0.588390	0.092207	0.295184	0.043293	-0.035041	-0.020942
170	0.904692	0.005000	-0.071037	1.687320	-9.731520	0.588836	0.091761	0.295433	0.045950	-0.028494	-0.021510
171	0.909692	0.005000	-0.039240	1.747290	-9.803830	0.589282	0.091315	0.295683	0.044701	-0.023575	-0.030193
172	0.914692	0.005000	-0.069894	1.665251	-9.740106	0.589729	0.090868	0.295932	0.039971	-0.020223	-0.035412
173	0.919692	0.005000	0.017255	1.726560	-9.766029	0.590175	0.090422	0.296181	0.055498	-0.027076	-0.022025
174	0.924692	0.005000	0.039240	1.648080	-9.772636	0.590621	0.089976	0.296430	0.041856	-0.019693	-0.035631
175	0.929692	0.005000	-0.007049	1.631985	-9.904575	0.591051	0.089585	0.296717	0.049535	-0.021435	-0.032688
176	0.934692	0.005000	0.000000	1.687320	-9.830770	0.591162	0.090255	0.297714	0.047075	-0.030202	-0.037464
177	0.939692	0.005000	-0.020860	1.650561	-9.846759	0.591274	0.090925	0.298711	0.056597	-0.033286	-0.052559
178	0.944692	0.005000	0.000000	1.553876	-9.896273	0.591385	0.091594	0.299708	0.046375	-0.040788	-0.048006
179	0.949692	0.005000	0.012600	1.595520	-9.822600	0.591497	0.092264	0.300705	0.036375	-0.046878	-0.046032
180	0.954692	0.005000	-0.060811	1.615723	-9.838454	0.591608	0.092934	0.301702	0.032008	-0.051001	-0.042219
181	0.959692	0.005000	-0.008396	1.561204	-9.927720	0.591720	0.093603	0.302699	0.023054	-0.056006	-0.044230
182	0.964692	0.005000	-0.129761	1.587662	-9.888480	0.591832	0.094273	0.303696	0.032578	-0.051335	-0.045594
183	0.969692	0.005000	-0.117720	1.638438	-9.999772	0.591943	0.094942	0.304693	0.033951	-0.071474	-0.032273
184	0.974692	0.005000	-0.116924	1.609636	-9.966960	0.592055	0.095612	0.305690	0.022217	-0.064616	-0.046212
185	0.979692	0.005000	-0.116132	1.572777	-10.004612	0.592166	0.096282	0.306687	0.016504	-0.067501	-0.046371
186	0.984692	0.005000	-0.262605	1.569600	-9.970985	0.592278	0.096951	0.307684	0.015085	-0.052534	-0.051722
187	0.989692	0.005000	-0.124150	1.484690	-10.078250	0.592389	0.097621	0.308681	0.013262	-0.062267	-0.056380
188	0.994692	0.005000	-0.117720	1.581248	-10.075483	0.592501	0.098291	0.309678	0.012664	-0.046476	-0.046028
189	0.999692	0.005000	-0.168547	1.687320	-10.089158	0.592386	0.098507	0.309494	-0.002521	-0.029214	-0.045170
190	1.004692	0.005000	-0.224125	1.684673	-10.098642	0.592163	0.098507	0.308747	0.009361	-0.026529	-0.045275
191	1.009692	0.005000	-0.251793	1.664433	-10.123920	0.591940	0.098507	0.308000	-0.006662	-0.002641	-0.046442
192	1.014692	0.005000	-0.235440	1.666807	-10.122135	0.591717	0.098507	0.307253	-0.007345	0.006130	-0.041785
193	1.019692	0.005000	-0.256805	1.665955	-10.066805	0.591494	0.098507	0.306506	-0.009908	0.018003	-0.030375
194	1.024692	0.005000	-0.187887	1.742023	-9.951497	0.591271	0.098507	0.305759	-0.015830	0.033425	-0.040400
195	1.029692	0.005000	-0.248494	1.674266	-9.940774	0.591048	0.098507	0.305012	-0.011532	0.034830	-0.027454
196	1.034692	0.005000	-0.164278	1.572922	-9.906439	0.590825	0.098507	0.304264	-0.010079	0.039605	-0.038226
197	1.039692	0.005000	-0.196200	1.656218	-9.810000	0.590602	0.098507	0.303517	-0.011537	0.036016	-0.039829
198	1.044692	0.005000	-0.117720	1.687320	-9.882732	0.590379	0.098507	0.302770	-0.020436	0.017171	-0.029038
199	1.049692	0.005000	-0.196200	1.687320	-9.816747	0.590156	0.098507	0.302023	-0.008170	-0.001768	-0.046592
200	1.054692	0.005000	-0.235976	1.687320	-9.965352	0.589933	0.098507	0.301276	-0.023330	-0.021803	-0.047248
201	1.059692	0.005000	-0.237286	1.687320	-9.849240	0.589710	0.098507	0.300529	-0.016705	-0.043002	-0.054448
202	1.064692	0.005000	-0.196200	1.687320	-9.962724	0.588966	0.097856	0.300764	-0.027484	-0.071616	-0.038480
203	1.069692	0.005000	-0.163571	1.765800	-9.940941	0.586958	0.095624	0.303380	-0.028237	-0.082438	-0.038697
204	1.074692	0.005000	-0.295919	1.678319	-9.966960	0.584950	0.093393	0.305996	-0.023259	-0.095331	-0.045478
205	1.079692	0.005000	-0.246816	1.715184	-9.939096	0.582942	0.091162	0.308612	-0.033097	-0.105003	-0.032978
206	1.084692	0.005000	-0.286066	1.793654	-9.888480	0.580934	0.088931	0.311228	-0.030295	-0.102201	-0.039836
207	1.089692	0.005000	-0.353160	1.742896	-9.927720	0.578926	0.086700	0.313844	-0.020448	-0.105467	-0.033303
208	1.094692	0.005000	-0.274680	1.686049	-9.926449	0.576918	0.084469	0.316460	-0.039527	-0.098999	-0.033108
209	1.099692	0.005000	-0.349650	1.669455	-9.984825	0.574910	0.082238	0.319076	-0.024882	-0.094983	-0.031575
210	1.104692	0.005000	-0.431640	1.726560	-9.881249	0.572902	0.080007	0.321692	-0.028690	-0.078295	-0.031502
211	1.109692	0.005000	-0.405440	1.752760	-9.875380	0.570894	0.077776	0.324308	-0.025942	-0.072386	-0.036288
212	1.114692	0.005000	-0.303540	1.805040	-9.799620	0.568886	0.075544	0.326924	-0.018388	-0.062254	-0.027972
213	1.119692	0.005000	-0.345187	1.852253	-9.880507	0.566878	0.073313	0.329540	-0.027241	-0.033399	-0.024329
214	1.124692	0.005000	-0.313920	1.844280	-9.888480	0.564870	0.071082	0.332156	-0.026865	-0.028139	-0.010708
215	1.129692	0.005000	-0.350044	1.805040	-9.921488	0.562862	0.068851	0.334772	-0.026208	-0.011165	-0.014306
216	1.134692	0.005000	-0.312468	1.765074	-9.849966	0.563603	0.070082	0.332840	-0.019144	-0.005773	-0.025518
217	1.139692	0.005000	-0.385725	1.726560	-9.926051	0.564607	0.071643	0.330474	-0.024209	0.004485	-0.003440
218	1.144692	0.005000	-0.362146	1.726560	-9.818986	0.565610	0.073204	0.328108	-0.023787	0.020740	-0.013875
219	1.149692	0.005000	-0.274680	1.772668	-9.881612	0.566614	0.074765	0.325742	-0.018128	0.012118	-0.001800
220	1.154692	0.005000	-0.313920	1.784316	-9.789276	0.567617	0.076327	0.323377	-0.034214	0.026884	-0.006935
221	1.159692	0.005000	-0.235440	1.761458	-9.825974	0.568621	0.077888	0.321011	-0.031450	0.018395	0.006439
222	1.164692	0.005000	-0.224574	1.765800	-9.720654	0.569624	0.079449	0.318645	-0.036988	0.020540	0.011567
223	1.169692	0.005000	-0.241488	1.889568	-9.720971	0.570628	0.081010	0.316279	-0.036453	0.023106	-0.001184
224	1.174692	0.005000	-0.216432	1.745568	-9.712512	0.571631	0.082571	0.313913	-0.037172	0.004372	0.012634
225	1.179692	0.005000	-0.239464	1.648080	-9.888480	0.572635	0.084132	0.311547	-0.029849	0.011585	0.006446
226	1.184692	0.005000	-0.265906	1.693779	-9.825233	0.573638	0.085693	0.309181	-0.032522	-0.001377	0.012127
227	1.189692	0.005000	-0.261837	1.779354	-9.810000	0.574642	0.087254	0.306816	-0.030185	0.003782	0.017819
228	1.194692	0.005000	-0.285148	1.726560	-9.781228	0.575645	0.088815	0.304450	-0.027687	-0.000425	0.010437
229	1.199692	0.005000	-0.345447	1.765800	-9.849240	0.576472	0.089552	0.303201	-0.031025	-0.004410	0.024125
230	1.204692	0.005000	-0.353160	1.794445	-9.849240	0.577142	0.089552	0.302952	-0.035160	0.013095	0.024070
231	1.209692	0.005000	-0.232581	1.695897	-9.815718	0.577811	0.089552	0.302703	-0.029834	0.005596	0.016442
232	1.214692	0.005000	-0.080825	1.804571	-9.888011	0.578481	0.089552	0.302454	-0.020596	0.015455	0.021563
233	1.219692	0.005000	-0.237369	1.728489	-9.811929	0.579150	0.089552	0.302205	-0.023525	0.015019	0.018079
234	1.224692	0.005000	-0.235440	1.761050	-9.750520	0.579819	0.089552	0.301956	-0.028072	0.021434	0.020564
235	1.229692	0.005000	-0.313920	1.765800	-9.738660	0.580489	0.089552	0.301707	-0.024879	0.021996	0.034398
236	1.234692	0.005000	-0.255650	1.795525	-9.899175	0.581158	0.089552	0.301458	-0.029108	0.020248	0.036832
237	1.239692	0.005000	-0.193093	1.808147	-9.782804	0.581828	0.089552	0.301208	-0.025028	0.025466	0.010768
238	1.244692	0.005000	-0.206534	1.730678	-9.830669	0.582497	0.089552	0.300959	-0.028929	0.016337	0.021998
239	1.249692	0.005000	-0.196200	1.805040	-9.832383	0.583167	0.089552	0.300710	-0.030597	0.025405	0.032107
240	1.254692	0.005000	-0.176943	1.765800	-9.770518	0.583836	0.089552	0.300461	-0.028544	0.029248	0.025831
241	1.259692	0.005000	-0.235440	1.826929	-9.827351	0.584505	0.089552	0.300212	-0.013345	0.027500	0.037071
242	1.264692	0.005000	-0.220464	1.648080	-9.888480	0.585125	0.089602	0.299944	-0.014956	0.035544	0.043329
243	1.269692	0.005000	-0.235440	1.648080	-9.888480	0.585459	0.089937	0.299571	-0.016407	0.044059	0.045901
244	1.274692	0.005000	-0.176480	1.687320	-9.819661	0.585794	0.090271	0.299197	-0.022646	0.053056	0.038140
245	1.279692	0.005000	-0.117720	1.726560	-9.856693	0.586129	0.090606	0.298823	-0.019273	0.052594	0.038513
246	1.284692	0.005000	-0.122697	1.721583	-9.927720	0.586463	0.090941	0.298449	-0.017334	0.058528	0.047037
247	1.289692	0.005000	-0.086286	1.687320	-9.770760	0.586798	0.091275	0.298076	-0.020584	0.061749	0.041466
248	1.294692	0.005000	-0.156960	1.726348	-9.848605	0.587133	0.091610	0.297702	-0.012659	0.061887	0.039159
249	1.299692	0.005000	-0.120352	1.723928	-9.768128	0.587467	0.091945	0.297328	-0.030548	0.060576	0.042322
250	1.304692	0.005000	-0.122727	1.687320	-9.815007	0.587802	0.092280	0.296955	-0.028405	0.059746	0.049471
251	1.309692	0.005000	-0.110236	1.584568	-9.849240	0.588137	0.092614	0.296581	-0.032195	0.056894	0.054082
252	1.314692	0.005000	-0.078480	1.696889	-9.780650	0.588471	0.092949	0.296207	-0.022870	0.053660	0.040316
253	1.319692	0.005000	-0.115394	1.701951	-9.834609	0.588806	0.093284	0.295833	-0.023969	0.042375	0.045758
254	1.324692	0.005000	-0.069252	1.702326	-9.785766	0.589140	0.093618	0.295460	-0.028062	0.041274	0.030808
255	1.329692	0.005000	-0.039240	1.735515	-9.727042	0.589475	0.093953	0.295086	-0.028256	0.030530	0.040900
256	1.334692	0.005000	-0.097949	1.687623	-9.731520	0.589466	0.094116	0.295000	-0.028785	0.045654	0.033932
257	1.339692	0.005000	-0.039240	1.625666	-9.725932	0.589355	0.094227	0.295000	-0.013779	0.034300	0.027206
258	1.344692	0.005000	-0.028844	1.705769	-9.810000	0.589243	0.094339	0.295000	-0.021735	0.034332	0.031938
259	1.349692	0.005000	-0.027226	1.741772	-9.734719	0.589132	0.094450	0.295000	-0.026514	0.018435	0.015556
260	1.354692	0.005000	-0.078480	1.746830	-9.673310	0.589020	0.094562	0.295000	-0.033000	0.010769	0.033025
261	1.359692	0.005000	-0.071370	1.648080	-9.613800	0.588909	0.094673	0.295000	-0.026911	0.015944	0.014838
262	1.364692	0.005000	-0.009439	1.569600	-9.613800	0.588797	0.094785	0.295000	-0.022109	0.007276	0.013536
263	1.369692	0.005000	-0.080378	1.610738	-9.574560	0.588685	0.094897	0.295000	-0.021428	0.001785	0.028219
264	1.374692	0.005000	-0.078979	1.648080	-9.652042	0.588574	0.095008	0.295000	-0.022792	-0.005651	0.022565
265	1.379692	0.005000	-0.078480	1.491120	-9.580339	0.588462	0.095120	0.295000	-0.026389	-0.008065	0.035308
266	1.384692	0.005000	-0.117720	1.608840	-9.754776	0.588351	0.095231	0.295000	-0.021743	0.002472	0.024514
267	1.389692	0.005000	-0.117720	1.679576	-9.786768	0.588239	0.095343	0.295000	-0.026691	0.002323	0.039783
268	1.394692	0.005000	-0.128218	1.737058	-9.909477	0.588128	0.095454	0.295000	-0.021093	0.018061	0.031282
269	1.399692	0.005000	-0.064987	1.712446	-9.822253	0.587973	0.095478	0.294951	-0.015521	0.014506	0.025567
270	1.404692	0.005000	-0.117720	1.569600	-9.770760	0.587750	0.095367	0.294827	-0.015265	0.021430	0.028689
271	1.409692	0.005000	-0.078480	1.669468	-9.813537	0.587526	0.095255	0.294702	-0.022710	0.039717	0.027685
272	1.414692	0.005000	-0.058217	1.648080	-9.887194	0.587303	0.095144	0.294577	-0.022277	0.032474	0.028632
273	1.419692	0.005000	-0.022872	1.576105	-9.872112	0.587080	0.095032	0.294453	-0.032538	0.047890	0.032113
274	1.424692	0.005000	-0.064487	1.636825	-9.837985	0.586857	0.094921	0.294328	-0.030970	0.049450	0.023514
275	1.429692	0.005000	-0.050843	1.675717	-9.837637	0.586634	0.094809	0.294204	-0.022958	0.063582	0.020354
276	1.434692	0.005000	-0.020785	1.687320	-9.837683	0.586411	0.094698	0.294079	-0.027767	0.059208	0.024164
277	1.439692	0.005000	0.012922	1.680859	-9.855701	0.586188	0.094586	0.293954	-0.037684	0.059292	0.034472
278	1.444692	0.005000	0.039240	1.542527	-9.923664	0.585965	0.094475	0.293830	-0.045802	0.070792	0.025171
279	1.449692	0.005000	0.080099	1.726560	-9.806763	0.585742	0.094363	0.293705	-0.043854	0.056331	0.024651
280	1.454692	0.005000	0.079246	1.765034	-9.731520	0.585518	0.094252	0.293581	-0.046160	0.063929	0.023206
281	1.459692	0.005000	0.039240	1.651263	-9.767577	0.585295	0.094140	0.293456	-0.044257	0.054972	0.022427
282	1.464692	0.005000	0.117720	1.670555	-9.692280	0.585078	0.094024	0.293336	-0.046619	0.046168	0.017462
283	1.469692	0.005000	0.110496	1.624848	-9.677052	0.585301	0.093578	0.293585	-0.046358	0.033692	-0.008074
284	1.474692	0.005000	0.146205	1.755045	-9.546075	0.585524	0.093132	0.293834	-0.056976	0.015122	-0.002501
285	1.479692	0.005000	0.130850	1.778930	-9.626779	0.585747	0.092686	0.294083	-0.051078	0.008548	-0.013639
286	1.484692	0.005000	0.219738	1.726560	-9.613800	0.585970	0.092240	0.294332	-0.048311	-0.007312	-0.022464
287	1.489692	0.005000	0.135615	1.687320	-9.510526	0.586193	0.091794	0.294582	-0.053642	-0.037199	-0.020505
288	1.494692	0.005000	0.234109	1.745514	-9.437886	0.586416	0.091348	0.294831	-0.052264	-0.048194	-0.028665
289	1.499692	0.005000	0.202829	1.759171	-9.479775	0.586639	0.090902	0.295080	-0.052726	-0.065420	-0.019792
290	1.504692	0.005000	0.131616	1.751904	-9.482184	0.586862	0.090456	0.295329	-0.050914	-0.083130	-0.046758
291	1.509692	0.005000	0.106237	1.749525	-9.412808	0.587085	0.090010	0.295578	-0.038134	-0.100735	-0.055088
292	1.514692	0.005000	0.096631	1.795965	-9.444826	0.587308	0.089564	0.295827	-0.043576	-0.101564	-0.059142
293	1.519692	0.005000	0.111060	1.791720	-9.587160	0.587531	0.089118	0.296076	-0.049548	-0.116664	-0.060543
294	1.524692	0.005000	0.074275	1.757389	-9.570355	0.587754	0.088672	0.296325	-0.046639	-0.117576	-0.061972
295	1.529692	0.005000	0.039240	1.722929	-9.537135	0.587977	0.088226	0.296574	-0.049567	-0.121080	-0.077263
296	1.534692	0.005000	0.077914	1.648080	-9.651907	0.587990	0.088200	0.296980	-0.052251	-0.140449	-0.083489
297	1.539692	0.005000	-0.068269	1.805040	-9.542127	0.587878	0.088423	0.297478	-0.047252	-0.145725	-0.088503
298	1.544692	0.005000	-0.039240	1.698877	-9.474176	0.587767	0.088646	0.297976	-0.047448	-0.162552	-0.083789
299	1.549692	0.005000	-0.062143	1.805040	-9.440503	0.587655	0.088869	0.298474	-0.045962	-0.159508	-0.076637
300	1.554692	0.005000	-0.107049	1.833609	-9.389031	0.587544	0.089092	0.298973	-0.050252	-0.162158	-0.091538
301	1.559692	0.005000	-0.104332	1.765800	-9.469305	0.587432	0.089316	0.299471	-0.042761	-0.158825	-0.075136
302	1.564692	0.005000	-0.133498	1.891205	-9.582245	0.587320	0.089539	0.299969	-0.054336	-0.151360	-0.094990
303	1.569692	0.005000	-0.078480	1.880585	-9.595647	0.587209	0.089762	0.300467	-0.035635	-0.155756	-0.094764
304	1.574692	0.005000	-0.235440	1.883520	-9.514777	0.587097	0.089985	0.300966	-0.050828	-0.145523	-0.094653
305	1.579692	0.005000	-0.258635	1.899565	-9.433645	0.586986	0.090208	0.301464	-0.038481	-0.148601	-0.091394
306	1.584692	0.005000	-0.196200	1.883520	-9.431236	0.586874	0.090431	0.301962	-0.029167	-0.133124	-0.085538
307	1.589692	0.005000	-0.246528	1.894608	-9.434664	0.586762	0.090654	0.302460	-0.035415	-0.131556	-0.094217
308	1.594692	0.005000	-0.235440	1.931473	-9.474267	0.586651	0.090877	0.302959	-0.030043	-0.143528	-0.082477
309	1.599692	0.005000	-0.302044	1.995302	-9.456840	0.586622	0.090962	0.303209	-0.029567	-0.137109	-0.094016
310	1.604692	0.005000	-0.313920	2.033437	-9.449797	0.586846	0.090627	0.302711	-0.015722	-0.135612	-0.092094
311	1.609692	0.005000	-0.393517	2.077486	-9.380594	0.587069	0.090292	0.302213	-0.019302	-0.139484	-0.083746
312	1.614692	0.005000	-0.507548	2.039194	-9.418886	0.587292	0.089958	0.301714	-0.009858	-0.128484	-0.084989
313	1.619692	0.005000	-0.399722	2.001240	-9.460501	0.587515	0.089623	0.301216	-0.008842	-0.148524	-0.069242
314	1.624692	0.005000	-0.450005	2.007362	-9.496080	0.587738	0.089288	0.300718	-0.004589	-0.144476	-0.088859
315	1.629692	0.005000	-0.440168	1.970528	-9.426128	0.587961	0.088954	0.300220	0.009510	-0.143431	-0.067780
316	1.634692	0.005000	-0.381130	2.012510	-9.417600	0.588184	0.088619	0.299721	0.021470	-0.141164	-0.069403
317	1.639692	0.005000	-0.406045	1.922760	-9.509725	0.588407	0.088284	0.299223	0.015860	-0.129655	-0.076686
318	1.644692	0.005000	-0.369195	1.994070	-9.574560	0.588630	0.087949	0.298725	0.019718	-0.133744	-0.063777
319	1.649692	0.005000	-0.392400	1.941170	-9.671450	0.588854	0.087615	0.298227	0.018170	-0.121741	-0.062585
320	1.654692	0.005000	-0.450080	1.844280	-9.653040	0.589077	0.087280	0.297728	0.031323	-0.110892	-0.054022
321	1.659692	0.005000	-0.517790	1.860065	-9.535320	0.589300	0.086945	0.297230	0.022454	-0.094683	-0.050348
322	1.664692	0.005000	-0.391512	1.974488	-9.587936	0.589523	0.086611	0.296732	0.027741	-0.093733	-0.046993
323	1.669692	0.005000	-0.359514	1.916406	-9.653040	0.589649	0.086955	0.297209	0.034344	-0.083245	-0.037496
324	1.674692	0.005000	-0.308504	1.936632	-9.622256	0.589761	0.087401	0.297831	0.034841	-0.073905	-0.036784
325	1.679692	0.005000	-0.398466	1.805040	-9.731520	0.589872	0.087847	0.298454	0.041797	-0.068040	-0.034808
326	1.684692	0.005000	-0.427949	1.765800	-9.664113	0.589984	0.088294	0.299077	0.034014	-0.048117	-0.027702
327	1.689692	0.005000	-0.470880	1.765800	-9.731520	0.590095	0.088740	0.299700	0.043931	-0.049824	-0.028043
328	1.694692	0.005000	-0.320092	1.803497	-9.731520	0.590207	0.089186	0.300323	0.036275	-0.045940	-0.022151
329	1.699692	0.005000	-0.466962	1.808958	-9.810000	0.590319	0.089632	0.300946	0.030499	-0.031578	-0.021574
330	1.704692	0.005000	-0.444256	1.850588	-9.777068	0.590430	0.090079	0.301569	0.034682	-0.018033	-0.015046
331	1.709692	0.005000	-0.531994	1.822406	-9.731520	0.590542	0.090525	0.302191	0.031444	-0.002640	-0.020127
332	1.714692	0.005000	-0.493285	1.911557	-9.714685	0.590653	0.090971	0.302814	0.042224	0.003648	-0.015148
333	1.719692	0.005000	-0.431640	1.895538	-9.717909	0.590765	0.091417	0.303437	0.034531	0.020778	-0.021046
334	1.724692	0.005000	-0.494096	1.992409	-9.731520	0.590877	0.091863	0.304060	0.032396	0.028601	-0.011423
335	1.729692	0.005000	-0.431640	1.939566	-9.688528	0.590988	0.092310	0.304683	0.038819	0.030015	-0.011125
336	1.734692	0.005000	-0.470880	1.883520	-9.556377	0.591045	0.092592	0.304633	0.038964	0.029624	-0.024041
337	1.739692	0.005000	-0.376875	1.859805	-9.550845	0.591045	0.092703	0.303886	0.049388	0.026824	-0.012977
338	1.744692	0.005000	-0.327036	1.922760	-9.587569	0.591045	0.092815	0.303138	0.033525	0.021636	-0.010757
339	1.749692	0.005000	-0.335324	1.922760	-9.585262	0.591045	0.092927	0.302391	0.044891	-0.000930	-0.005009
340	1.754692	0.005000	-0.305721	1.939158	-9.574560	0.591045	0.093038	0.301643	0.051376	-0.002172	-0.006461
341	1.759692	0.005000	-0.280489	1.956191	-9.586178	0.591045	0.093150	0.300896	0.045330	-0.008321	-0.016136
342	1.764692	0.005000	-0.342858	1.886954	-9.692280	0.591045	0.093261	0.300149	0.048588	-0.020661	-0.006693
343	1.769692	0.005000	-0.392400	1.883520	-9.653040	0.591045	0.093373	0.299401	0.041555	-0.026746	-0.010240
344	1.774692	0.005000	-0.392400	1.846080	-9.615600	0.591045	0.093485	0.298654	0.041539	-0.038760	-0.007641
345	1.779692	0.005000	-0.396575	1.840105	-9.731520	0.591045	0.093596	0.297906	0.035967	-0.040185	0.001119
346	1.784692	0.005000	-0.425075	1.883520	-9.796870	0.591045	0.093708	0.297159	0.047326	-0.022714	-0.011661
347	1.789692	0.005000	-0.341065	1.795992	-9.858288	0.591045	0.093819	0.296411	0.046918	-0.019988	-0.005668
348	1.794692	0.005000	-0.358011	1.809891	-9.793686	0.591045	0.093931	0.295664	0.047503	-0.020320	-0.020303
349	1.799692	0.005000	-0.431640	1.869346	-9.856849	0.591070	0.094018	0.294972	0.046516	-0.011290	-0.012757
350	1.804692	0.005000	-0.398542	1.906211	-9.950411	0.591293	0.093906	0.294723	0.029020	0.002259	-0.010692
351	1.809692	0.005000	-0.391039	1.841557	-9.849240	0.591516	0.093794	0.294474	0.034160	0.007020	-0.001076
352	1.814692	0.005000	-0.392400	1.901188	-9.963056	0.591739	0.093683	0.294225	0.029302	0.005897	0.003702
353	1.819692	0.005000	-0.446898	1.820298	-9.958237	0.591962	0.093571	0.293976	0.035002	0.006465	-0.012001
354	1.824692	0.005000	-0.472045	1.778492	-9.953103	0.592185	0.093460	0.293727	0.033582	0.007899	0.010535
355	1.829692	0.005000	-0.392400	1.687320	-9.977277	0.592409	0.093348	0.293477	0.016027	0.007057	0.000770
356	1.834692	0.005000	-0.321862	1.860164	-9.919778	0.592632	0.093236	0.293228	0.020986	0.006592	0.016829
357	1.839692	0.005000	-0.303605	1.873205	-9.985570	0.592855	0.093125	0.292979	0.016702	0.008761	0.009243
358	1.844692	0.005000	-0.313920	1.763059	-9.930461	0.593078	0.093013	0.292730	0.018067	-0.003324	0.008933
359	1.849692	0.005000	-0.313247	1.726560	-9.967633	0.593301	0.092902	0.292481	0.007149	-0.015879	0.007626
360	1.854692	0.005000	-0.272623	1.726560	-9.933892	0.593524	0.092790	0.292232	0.002447	-0.022836	-0.004042
361	1.859692	0.005000	-0.304948	1.835308	-9.853726	0.593747	0.092678	0.291983	-0.003988	-0.023945	0.004308
362	1.864692	0.005000	-0.399302	1.772702	-10.006200	0.593970	0.092567	0.291734	-0.002832	-0.035575	-0.009165
363	1.869692	0.005000	-0.372493	1.745893	-10.055106	0.593867	0.092782	0.291850	0.003112	-0.027513	0.004665
364	1.874692	0.005000	-0.325961	1.620881	-10.099837	0.593643	0.093117	0.292099	-0.005466	-0.016679	0.003461
365	1.879692	0.005000	-0.324297	1.776177	-10.041386	0.593420	0.093452	0.292348	-0.004339	-0.013034	-0.004238
366	1.884692	0.005000	-0.358787	1.821846	-9.978139	0.593197	0.093786	0.292597	-0.002954	-0.011485	0.018148
367	1.889692	0.005000	-0.373204	1.843433	-10.046287	0.592974	0.094121	0.292846	-0.012012	0.013800	0.000050
368	1.894692	0.005000	-0.427215	1.822448	-10.110937	0.592751	0.094456	0.293095	-0.005230	0.031655	0.006866
369	1.899692	0.005000	-0.480124	1.820038	-10.075436	0.592528	0.094791	0.293344	-0.015858	0.059376	0.004264
370	1.904692	0.005000	-0.563430	1.858350	-9.981030	0.592305	0.095125	0.293593	-0.015958	0.064540	0.001080
371	1.909692	0.005000	-0.470880	1.794980	-9.936781	0.592082	0.095460	0.293843	-0.014568	0.077305	0.009203
372	1.914692	0.005000	-0.447872	1.781139	-9.966960	0.591858	0.095795	0.294092	-0.018607	0.092842	0.012877
373	1.919692	0.005000	-0.313920	1.810335	-10.006200	0.591635	0.096129	0.294341	-0.011858	0.093822	0.026573
374	1.924692	0.005000	-0.401113	1.841376	-10.003296	0.591412	0.096464	0.294590	-0.020361	0.106643	0.014876
375	1.929692	0.005000	-0.430581	1.766329	-9.965372	0.591189	0.096799	0.294839	-0.014271	0.106596	0.013546
376	1.934692	0.005000	-0.390086	1.768114	-9.812314	0.591045	0.096975	0.295132	-0.003074	0.113139	0.025736
377	1.939692	0.005000	-0.466191	1.883520	-9.814689	0.591045	0.096864	0.295506	-0.007709	0.111125	0.014828
378	1.944692	0.005000	-0.438720	1.915680	-9.713519	0.591045	0.096752	0.295880	-0.008417	0.098781	0.028234
379	1.949692	0.005000	-0.422071	1.833747	-9.820533	0.591045	0.096641	0.296253	-0.011344	0.090730	0.015316
380	1.954692	0.005000	-0.407674	1.898794	-9.743503	0.591045	0.096529	0.296627	-0.010945	0.075311	0.023712
381	1.959692	0.005000	-0.481337	1.937152	-9.731520	0.591045	0.096418	0.297001	-0.013299	0.071827	0.032904
382	1.964692	0.005000	-0.404351	1.905696	-9.753696	0.591045	0.096306	0.297375	-0.009727	0.039882	0.019041
383	1.969692	0.005000	-0.294466	1.844280	-9.712399	0.591045	0.096194	0.297748	-0.015360	0.014913	0.035948
384	1.974692	0.005000	-0.218029	1.783211	-9.814417	0.591045	0.096083	0.298122	-0.008567	0.012849	0.029231
385	1.979692	0.005000	-0.205397	1.717363	-9.888480	0.591045	0.095971	0.298496	-0.007230	-0.011752	0.032390
386	1.984692	0.005000	-0.287326	1.818987	-9.888480	0.591045	0.095860	0.298869	-0.012036	-0.013379	0.026820
387	1.989692	0.005000	-0.412234	1.814957	-9.888480	0.591045	0.095748	0.299243	-0.009518	-0.016930	0.028057
388	1.994692	0.005000	-0.416636	1.805040	-9.935222	0.591045	0.095636	0.299617	-0.020976	-0.015659	0.027433
389	1.999692	0.005000	-0.206393	1.781089	-9.927720	0.591045	0.095525	0.299991	-0.026363	-0.012571	0.019900
390	2.004692	0.005000	-0.198879	1.687320	-9.778798	0.589413	0.094326	0.300972	-0.035926	-0.000980	0.033758
391	2.009692	0.005000	-0.235712	1.804768	-9.888480	0.587740	0.093098	0.301968	-0.024479	0.010701	0.025061
392	2.014692	0.005000	-0.237583	1.802897	-9.962675	0.586067	0.091871	0.302965	-0.030273	0.015059	0.027680
393	2.019692	0.005000	-0.313920	1.774894	-9.849240	0.584393	0.090644	0.303961	-0.029236	0.035299	0.026880
394	2.024692	0.005000	-0.235440	1.758849	-9.816951	0.582720	0.089417	0.304958	-0.025146	0.039136	0.007022
395	2.029692	0.005000	-0.225335	1.795328	-9.780472	0.581046	0.088190	0.305955	-0.032278	0.045549	0.029144
396	2.034692	0.005000	-0.169062	1.702356	-9.782862	0.579373	0.086963	0.306951	-0.034489	0.048178	0.022207
397	2.039692	0.005000	-0.132197	1.652270	-9.667517	0.577700	0.085735	0.307948	-0.028488	0.045144	0.026057
398	2.044692	0.005000	-0.257813	1.721054	-9.731520	0.576026	0.084508	0.308944	-0.033461	0.038958	0.015334
399	2.049692	0.005000	-0.313920	1.668835	-9.712278	0.574353	0.083281	0.309941	-0.035154	0.032031	0.018125
400	2.054692	0.005000	-0.257325	1.844280	-9.757935	0.572680	0.082054	0.310937	-0.040280	0.029940	0.018040
401	2.059692	0.005000	-0.313920	1.883520	-9.692280	0.571006	0.080827	0.311934	-0.027594	0.028031	0.004988
402	2.064692	0.005000	-0.326454	1.831746	-9.665574	0.569333	0.079600	0.312931	-0.027845	0.011505	0.015730
403	2.069692	0.005000	-0.303800	1.863280	-9.623920	0.568990	0.078838	0.314076	-0.044850	-0.002504	0.013085
404	2.074692	0.005000	-0.274680	1.758176	-9.660664	0.569547	0.078392	0.315321	-0.029964	-0.014911	0.003396
405	2.079692	0.005000	-0.295616	1.726560	-9.692280	0.570105	0.077946	0.316567	-0.036108	-0.020221	0.013596
406	2.084692	0.005000	-0.423063	1.656657	-9.767901	0.570663	0.077499	0.317813	-0.029248	-0.025846	0.005877
407	2.089692	0.005000	-0.353160	1.883535	-9.731474	0.571220	0.077053	0.319059	-0.027033	-0.030613	0.016819
408	2.094692	0.005000	-0.353160	1.885895	-9.724395	0.571778	0.076607	0.320305	-0.029074	-0.028821	0.007066
409	2.099692	0.005000	-0.205700	1.731310	-9.766010	0.572336	0.076161	0.321550	-0.028623	-0.040026	0.009017
410	2.104692	0.005000	-0.306780	1.719420	-9.692280	0.572894	0.075714	0.322796	-0.037916	-0.031307	0.011225
411	2.109692	0.005000	-0.284195	1.775315	-9.701795	0.573451	0.075268	0.324042	-0.025045	-0.027430	0.014423
412	2.114692	0.005000	-0.317027	1.847387	-9.716369	0.574009	0.074822	0.325288	-0.031447	-0.015719	0.014545
413	2.119692	0.005000	-0.274680	1.780253	-9.681946	0.574567	0.074376	0.326533	-0.033746	-0.006793	0.007720
414	2.124692	0.005000	-0.313920	1.738692	-9.753636	0.575125	0.073930	0.327779	-0.021310	-0.002079	0.017766
415	2.129692	0.005000	-0.333661	1.726560	-9.829741	0.575682	0.073483	0.329025	-0.017294	0.014982	0.008593
416	2.134692	0.005000	-0.296569	1.748449	-9.810000	0.576264	0.073328	0.329594	-0.011894	0.001576	0.009163
417	2.139692	0.005000	-0.250416	1.717272	-9.746496	0.576934	0.074220	0.327726	-0.016229	0.025686	0.028032
418	2.144692	0.005000	-0.313920	1.712492	-9.679694	0.577603	0.075113	0.325857	-0.018477	0.029575	0.009118
419	2.149692	0.005000	-0.264820	1.834420	-9.692280	0.578273	0.076005	0.323988	-0.019631	0.017762	0.023919
420	2.154692	0.005000	-0.196200	1.780706	-9.770760	0.578942	0.076898	0.322120	-0.024790	0.014602	0.017420
421	2.159692	0.005000	-0.230403	1.750689	-9.642966	0.579611	0.077791	0.320251	-0.019655	-0.002569	0.029418
422	2.164692	0.005000	-0.159592	1.687320	-9.577192	0.580281	0.078683	0.318382	-0.013589	0.005335	0.014510
423	2.169692	0.005000	-0.196412	1.765800	-9.613800	0.580950	0.079576	0.316514	-0.016462	-0.009554	0.006128
424	2.174692	0.005000	-0.309541	1.728749	-9.613800	0.581620	0.080468	0.314645	-0.016513	-0.022829	0.015390
425	2.179692	0.005000	-0.309313	1.691927	-9.683067	0.582289	0.081361	0.312776	-0.007032	-0.011965	0.008906
426	2.184692	0.005000	-0.256476	1.719548	-9.535320	0.582959	0.082253	0.310908	-0.008317	-0.020413	0.020069
427	2.189692	0.005000	-0.215055	1.717133	-9.496080	0.583628	0.083146	0.309039	-0.009760	-0.018299	0.022881
428	2.194692	0.005000	-0.277433	1.780715	-9.559645	0.584297	0.084038	0.307171	-0.001090	-0.010213	0.008952
429	2.199692	0.005000	-0.328457	1.712023	-9.574560	0.584967	0.084931	0.305302	-0.003857	0.005584	0.012523
430	2.204692	0.005000	-0.257753	1.743487	-9.591487	0.585262	0.085449	0.304687	-0.009712	0.016363	0.005617
431	2.209692	0.005000	-0.215502	1.747133	-9.515382	0.585485	0.085895	0.304313	-0.002332	0.009024	0.014689
432	2.214692	0.005000	-0.292243	1.787477	-9.613800	0.585708	0.086342	0.303939	-0.007306	0.018845	0.011559
433	2.219692	0.005000	-0.362618	1.775258	-9.574560	0.585931	0.086788	0.303566	0.005638	0.003440	0.020401
434	2.224692	0.005000	-0.313920	1.633796	-9.576367	0.586154	0.087234	0.303192	0.002635	0.009057	0.013048
435	2.229692	0.005000	-0.313920	1.648080	-9.496080	0.586378	0.087680	0.302818	-0.002323	0.004095	0.018566
436	2.234692	0.005000	-0.188636	1.750673	-9.527756	0.586601	0.088126	0.302444	0.007280	0.003309	0.027799
437	2.239692	0.005000	-0.240629	1.745045	-9.516835	0.586824	0.088573	0.302071	0.007562	-0.000952	0.012816
438	2.244692	0.005000	-0.196200	1.692917	-9.611001	0.587047	0.089019	0.301697	0.013843	-0.014471	0.021853
439	2.249692	0.005000	-0.235440	1.688167	-9.496080	0.587270	0.089465	0.301323	0.020853	-0.006852	0.012459
440	2.254692	0.005000	-0.198620	1.839439	-9.532900	0.587493	0.089911	0.300949	0.016582	-0.017149	0.017851
441	2.259692	0.005000	-0.058482	1.736181	-9.638609	0.587716	0.090358	0.300576	0.019635	-0.019172	0.022464
442	2.264692	0.005000	-0.149775	1.758615	-9.581745	0.587939	0.090804	0.300202	0.013382	-0.022570	0.013218
443	2.269692	0.005000	-0.255529	1.756224	-9.722882	0.588111	0.091096	0.299943	0.012313	-0.013622	0.020499
444	2.274692	0.005000	-0.193245	1.738655	-9.613800	0.588223	0.091208	0.299818	0.018780	-0.009241	0.003610
445	2.279692	0.005000	-0.142452	1.701828	-9.613800	0.588334	0.091319	0.299694	0.023034	-0.019672	0.022259
446	2.284692	0.005000	-0.117720	1.726560	-9.535320	0.588446	0.091431	0.299569	0.019629	-0.008712	0.010285
447	2.289692	0.005000	-0.137631	1.824369	-9.594471	0.588557	0.091542	0.299444	0.030661	-0.016639	0.002994
448	2.294692	0.005000	-0.152301	1.748510	-9.631090	0.588669	0.091654	0.299320	0.027146	-0.002631	0.016402
449	2.299692	0.005000	-0.220525	1.593925	-9.667955	0.588780	0.091765	0.299195	0.029590	-0.002731	0.010153
450	2.304692	0.005000	-0.183987	1.608840	-9.680067	0.588892	0.091877	0.299071	0.022340	-0.002138	0.018938
451	2.309692	0.005000	-0.176603	1.677476	-9.653040	0.589003	0.091988	0.298946	0.025370	0.008513	0.011141
452	2.314692	0.005000	-0.093270	1.765800	-9.589350	0.589115	0.092100	0.298821	0.032349	-0.004860	0.008278
453	2.319692	0.005000	-0.269749	1.834417	-9.687349	0.589226	0.092211	0.298697	0.022326	-0.012698	0.011581
454	2.324692	0.005000	-0.193659	1.770883	-9.658123	0.589338	0.092323	0.298572	0.029503	-0.011312	0.006538
455	2.329692	0.005000	-0.157293	1.844613	-9.652874	0.589449	0.092434	0.298448	0.028030	-0.010149	0.020751
456	2.334692	0.005000	-0.272002	1.959322	-9.723487	0.589525	0.092519	0.298313	0.018700	-0.020168	0.008535
457	2.339692	0.005000	-0.259477	1.781003	-9.589763	0.589190	0.092296	0.298064	0.041051	-0.021694	0.015079
458	2.344692	0.005000	-0.267237	1.719117	-9.613800	0.588856	0.092073	0.297815	0.031150	-0.031269	0.007765
459	2.349692	0.005000	-0.215865	1.687320	-9.711855	0.588521	0.091850	0.297566	0.036020	-0.031934	0.003920
460	2.354692	0.005000	-0.210729	1.831925	-9.682099	0.588187	0.091627	0.297316	0.022787	-0.038889	0.005896
461	2.359692	0.005000	-0.171729	1.844280	-9.667809	0.587852	0.091403	0.297067	0.020448	-0.040666	0.009103
462	2.364692	0.005000	-0.179022	1.743738	-9.697164	0.587517	0.091180	0.296818	0.035582	-0.046118	0.012367
463	2.369692	0.005000	-0.196593	1.824857	-9.672857	0.587183	0.090957	0.296569	0.027462	-0.050715	0.011037
464	2.374692	0.005000	-0.152199	1.805040	-9.635801	0.586848	0.090734	0.296320	0.036739	-0.046766	0.004223
465	2.379692	0.005000	-0.156960	1.805040	-9.721597	0.586513	0.090511	0.296071	0.028698	-0.033069	0.005720
466	2.384692	0.005000	-0.154525	1.790336	-9.743788	0.586179	0.090288	0.295822	0.028465	-0.030313	0.000373
467	2.389692	0.005000	-0.254894	1.902974	-9.751306	0.585844	0.090065	0.295573	0.035350	-0.015803	0.003433
468	2.394692	0.005000	-0.171966	1.836777	-9.888480	0.585509	0.089842	0.295323	0.027531	-0.002159	-0.007004
469	2.399692	0.005000	-0.191484	1.682604	-9.962244	0.585175	0.089619	0.295074	0.035981	-0.004759	0.008371
470	2.404692	0.005000	-0.235440	1.724248	-9.849240	0.585310	0.089865	0.295087	0.037453	0.018934	0.000872
471	2.409692	0.005000	-0.196291	1.726469	-9.810091	0.585644	0.090311	0.295212	0.028038	0.019975	0.003359
472	2.414692	0.005000	-0.272199	1.684839	-9.738963	0.585979	0.090758	0.295337	0.036009	0.023860	0.005607
473	2.419692	0.005000	-0.201115	1.736389	-9.834496	0.586314	0.091204	0.295461	0.035615	0.033454	-0.001112
474	2.424692	0.005000	-0.274680	1.655411	-9.785421	0.586648	0.091650	0.295586	0.038633	0.023780	0.006664
475	2.429692	0.005000	-0.176435	1.687320	-9.731520	0.586983	0.092096	0.295710	0.025753	0.029262	0.005343
476	2.434692	0.005000	-0.262528	1.738712	-9.785697	0.587318	0.092542	0.295835	0.026596	0.013584	-0.007230
477	2.439692	0.005000	-0.181345	1.741415	-9.864095	0.587652	0.092989	0.295960	0.022601	0.008231	0.002243
478	2.444692	0.005000	-0.156960	1.809820	-9.765980	0.587987	0.093435	0.296084	0.018317	-0.003700	0.000611
479	2.449692	0.005000	-0.215820	1.824660	-9.829620	0.588321	0.093881	0.296209	0.016616	-0.009438	0.014976
480	2.454692	0.005000	-0.218195	1.844280	-9.753515	0.588656	0.094327	0.296333	0.015727	-0.010881	-0.011232
481	2.459692	0.005000	-0.210770	1.839811	-9.760659	0.588991	0.094774	0.296458	0.031001	-0.024940	-0.009552
482	2.464692	0.005000	-0.196200	1.856436	-9.782916	0.589325	0.095220	0.296583	0.018638	-0.029141	-0.011663
483	2.469692	0.005000	-0.137218	1.805040	-9.751018	0.589408	0.095234	0.296908	0.016685	-0.036003	-0.018059
484	2.474692	0.005000	-0.188954	1.765800	-9.827502	0.588962	0.094341	0.297656	0.032082	-0.036582	0.002972
485	2.479692	0.005000	-0.196200	1.809911	-9.839498	0.588515	0.093448	0.298404	0.021379	-0.036694	-0.011563
486	2.484692	0.005000	-0.272199	1.878558	-9.814962	0.588069	0.092555	0.299152	0.029218	-0.049981	-0.001112
487	2.489692	0.005000	-0.235440	1.805040	-9.966234	0.587622	0.091663	0.299899	0.017954	-0.042560	-0.012969
488	2.494692	0.005000	-0.305706	1.880782	-9.815476	0.587176	0.090770	0.300647	0.027352	-0.040168	-0.010041
489	2.499692	0.005000	-0.250824	1.844280	-9.883352	0.586729	0.089877	0.301395	0.021169	-0.039236	-0.005050
490	2.504692	0.005000	-0.220434	1.741566	-9.905211	0.586283	0.088984	0.302143	0.015473	-0.028003	-0.014452
491	2.509692	0.005000	-0.117720	1.697318	-9.849240	0.585837	0.088091	0.302891	0.019354	-0.026256	-0.004506
492	2.514692	0.005000	-0.171377	1.701737	-9.836828	0.585390	0.087198	0.303638	0.023327	-0.017175	-0.019974
493	2.519692	0.005000	-0.235440	1.720464	-9.927720	0.584944	0.086305	0.304386	0.022781	-0.012061	-0.004011
494	2.524692	0.005000	-0.278946	1.866033	-9.945207	0.584497	0.085413	0.305134	0.012873	-0.006800	-0.002446
495	2.529692	0.005000	-0.274680	1.784649	-9.888994	0.584051	0.084520	0.305882	0.013000	-0.016073	-0.007464
496	2.534692	0.005000	-0.218452	1.805040	-9.816459	0.583604	0.083627	0.306629	0.014494	-0.006109	-0.009246
497	2.539692	0.005000	-0.200753	1.790442	-9.898524	0.584006	0.084324	0.306549	0.018201	-0.008331	-0.006519
498	2.544692	0.005000	-0.247663	1.780594	-9.864034	0.584452	0.085105	0.306424	0.010905	-0.009348	-0.008362
499	2.549692	0.005000	-0.175937	1.855054	-9.888480	0.584898	0.085886	0.306299	0.011789	-0.006724	-0.009256
500	2.554692	0.005000	-0.274680	1.797967	-9.902627	0.585345	0.086667	0.306175	0.009638	-0.013101	-0.009773
501	2.559692	0.005000	-0.265344	1.805040	-10.001532	0.585791	0.087447	0.306050	0.009268	-0.014183	-0.003961
502	2.564692	0.005000	-0.270233	1.733231	-10.003976	0.586237	0.088228	0.305926	0.006930	-0.009813	-0.017710
503	2.569692	0.005000	-0.274374	1.844280	-9.888786	0.586683	0.089009	0.305801	0.005631	-0.014183	-0.011122
504	2.574692	0.005000	-0.201342	1.768371	-9.851811	0.587129	0.089790	0.305676	0.002380	-0.017939	-0.001190
505	2.579692	0.005000	-0.191224	1.834328	-9.810000	0.587576	0.090571	0.305552	0.000794	-0.018459	-0.011728
506	2.584692	0.005000	-0.156960	1.756128	-9.802608	0.588022	0.091352	0.305427	-0.004856	-0.017168	-0.016504
507	2.589692	0.005000	-0.166759	1.873721	-9.849240	0.588468	0.092133	0.305303	-0.001325	-0.017650	-0.013774
508	2.594692	0.005000	-0.262467	1.871307	-9.822213	0.588914	0.092914	0.305178	-0.002932	-0.013880	-0.006200
509	2.599692	0.005000	-0.186761	1.761822	-9.858679	0.589361	0.093695	0.305053	-0.013644	-0.016458	-0.007681
510	2.604692	0.005000	-0.335870	1.949369	-9.888480	0.589552	0.093966	0.304573	-0.010079	-0.033530	-0.009672
511	2.609692	0.005000	-0.274589	1.824705	-9.849240	0.589552	0.093855	0.303826	-0.016165	-0.030007	-0.004592
512	2.614692	0.005000	-0.235440	1.748615	-9.770760	0.589552	0.093743	0.303078	-0.010637	-0.037164	-0.013698
513	2.619692	0.005000	-0.308731	1.825038	-9.795190	0.589552	0.093632	0.302331	-0.009846	-0.036705	-0.015192
514	2.624692	0.005000	-0.301814	1.847203	-9.810000	0.589552	0.093520	0.301583	-0.012103	-0.032750	-0.016398
515	2.629692	0.005000	-0.274680	1.736251	-9.858931	0.589552	0.093408	0.300836	-0.007526	-0.042885	-0.007972
516	2.634692	0.005000	-0.321205	1.858850	-9.903050	0.589552	0.093297	0.300089	-0.024191	-0.052574	-0.005721
517	2.639692	0.005000	-0.353160	1.873899	-9.839619	0.589552	0.093185	0.299341	-0.022800	-0.058302	-0.011877
518	2.644692	0.005000	-0.316355	1.841845	-9.733955	0.589552	0.093074	0.298594	-0.018756	-0.052933	0.002147
519	2.649692	0.005000	-0.274589	1.883429	-9.888389	0.589552	0.092962	0.297846	-0.018836	-0.050551	-0.011218
520	2.654692	0.005000	-0.233082	1.805040	-9.846882	0.589552	0.092850	0.297099	-0.016798	-0.034823	-0.012220
521	2.659692	0.005000	-0.196200	1.805040	-9.775535	0.589552	0.092739	0.296351	-0.013255	-0.025254	-0.001850
522	2.664692	0.005000	-0.306356	1.756814	-9.763196	0.589552	0.092627	0.295604	-0.002259	-0.022068	-0.005354
523	2.669692	0.005000	-0.333797	1.805040	-9.780699	0.589466	0.092473	0.294976	-0.016538	-0.003322	0.003043
524	2.674692	0.005000	-0.313920	1.908177	-9.743849	0.589020	0.092138	0.294851	-0.010663	0.003495	-0.005832
525	2.679692	0.005000	-0.392400	1.868816	-9.716816	0.588574	0.091803	0.294727	0.001385	0.008070	0.001608
526	2.684692	0.005000	-0.375306	1.895561	-9.704321	0.588128	0.091469	0.294602	-0.001064	0.015708	-0.009144
527	2.689692	0.005000	-0.333691	1.805040	-9.633269	0.587681	0.091134	0.294478	0.001641	0.019037	0.005173
528	2.694692	0.005000	-0.353160	1.883520	-9.640884	0.587235	0.090800	0.294353	0.000025	0.010054	0.012180
529	2.699692	0.005000	-0.313920	1.805040	-9.677557	0.586789	0.090465	0.294228	0.006794	0.008594	0.008544
530	2.704692	0.005000	-0.313920	1.883520	-9.743682	0.586343	0.090130	0.294104	-0.004358	0.004581	0.019846
531	2.709692	0.005000	-0.274680	1.844280	-9.682493	0.585896	0.089796	0.293979	0.000502	0.003417	0.017646
532	2.714692	0.005000	-0.313920	1.829486	-9.692280	0.585450	0.089461	0.293855	0.010996	-0.006037	0.013709
533	2.719692	0.005000	-0.303876	1.839258	-9.692280	0.585004	0.089126	0.293730	0.004627	-0.004329	0.016832
534	2.724692	0.005000	-0.196200	1.771064	-9.658304	0.584558	0.088792	0.293605	0.011580	-0.019873	0.019443
535	2.729692	0.005000	-0.274256	1.883308	-9.692492	0.584112	0.088457	0.293481	0.010140	-0.023379	0.016790
536	2.734692	0.005000	-0.201374	1.768387	-9.728933	0.583665	0.088123	0.293356	0.013386	-0.016627	0.019043
537	2.739692	0.005000	-0.303966	1.770777	-9.800046	0.584036	0.087879	0.294447	0.004807	-0.015625	0.031431
538	2.744692	0.005000	-0.203552	1.805040	-9.706984	0.584593	0.087655	0.295818	0.008952	-0.009850	0.019663
539	2.749692	0.005000	-0.205942	1.795026	-9.761018	0.585151	0.087432	0.297188	0.010006	-0.008112	0.025399
540	2.754692	0.005000	-0.196200	1.820046	-9.755754	0.585709	0.087209	0.298558	0.002236	0.015064	0.027034
541	2.759692	0.005000	-0.220763	1.858957	-9.721633	0.586267	0.086986	0.299929	0.006000	0.011020	0.027788
542	2.764692	0.005000	-0.291766	1.743646	-9.731520	0.586825	0.086763	0.301299	0.004057	0.012653	0.035125
543	2.769692	0.005000	-0.235440	1.726560	-9.731520	0.587383	0.086540	0.302670	0.008211	0.016687	0.032403
544	2.774692	0.005000	-0.213324	1.782924	-9.719388	0.587940	0.086317	0.304040	0.004529	0.022528	0.031882
545	2.779692	0.005000	-0.156960	1.741309	-9.707029	0.588498	0.086094	0.305410	0.000674	0.035828	0.028601
546	2.784692	0.005000	-0.183841	1.807203	-9.653040	0.589056	0.085871	0.306781	0.006873	0.017043	0.026894
547	2.789692	0.005000	-0.137003	1.696962	-9.692280	0.589614	0.085647	0.308151	0.009982	0.030788	0.033913
548	2.794692	0.005000	-0.249893	1.701773	-9.645814	0.590172	0.085424	0.309521	0.014778	0.038031	0.027112
549	2.799692	0.005000	-0.196200	1.888341	-9.613800	0.590729	0.085201	0.310892	0.014940	0.029243	0.028737
550	2.804692	0.005000	-0.235440	1.878770	-9.616175	0.590900	0.085123	0.311180	0.023296	0.030653	0.014269
551	2.809692	0.005000	-0.235440	1.805040	-9.692280	0.590565	0.085235	0.310059	0.022354	0.020831	0.017698
552	2.814692	0.005000	-0.269844	1.763382	-9.736356	0.590230	0.085346	0.308938	0.020474	0.024383	0.025688
553	2.819692	0.005000	-0.166605	1.667371	-9.731520	0.589896	0.085458	0.307817	0.012920	0.012376	0.019097
554	2.824692	0.005000	-0.156960	1.687320	-9.731520	0.589561	0.085570	0.306695	0.013357	0.000110	0.019274
555	2.829692	0.005000	-0.078480	1.668078	-9.731520	0.589226	0.085681	0.305574	0.014218	-0.001379	0.015439
556	2.834692	0.005000	-0.103228	1.701812	-9.770760	0.588891	0.085793	0.304453	0.014965	-0.011240	0.014966
557	2.839692	0.005000	-0.088192	1.599128	-9.761048	0.588557	0.085904	0.303332	0.013519	-0.021944	-0.000405
558	2.844692	0.005000	-0.117720	1.574147	-9.766213	0.588222	0.086016	0.302211	0.010459	-0.018853	0.013276
559	2.849692	0.005000	-0.117445	1.608289	-9.770760	0.587887	0.086127	0.301090	0.009247	-0.018737	0.002348
560	2.854692	0.005000	-0.117720	1.709693	-9.709147	0.587553	0.086239	0.299968	0.014273	-0.005573	0.008601
561	2.859692	0.005000	-0.063988	1.726560	-9.799744	0.587218	0.086350	0.298847	0.015085	-0.014160	0.008407
562	2.864692	0.005000	-0.063444	1.711524	-9.785796	0.586883	0.086462	0.297726	0.015987	0.000624	-0.005005
563	2.869692	0.005000	-0.166687	1.766133	-9.829454	0.586579	0.086604	0.296667	0.012384	-0.004200	-0.000379
564	2.874692	0.005000	-0.189237	1.687320	-9.856203	0.586802	0.087273	0.296667	0.010562	0.015577	0.004635
565	2.879692	0.005000	-0.147974	1.717574	-9.923227	0.587026	0.087943	0.296667	0.022765	0.007315	-0.002104
566	2.884692	0.005000	-0.198318	1.645962	-9.807882	0.587249	0.088612	0.296667	0.013521	-0.000282	0.005673
567	2.889692	0.005000	-0.196460	1.764759	-9.887699	0.587472	0.089281	0.296667	0.016655	0.008325	-0.001122
568	2.894692	0.005000	-0.193522	1.799684	-9.888480	0.587695	0.089951	0.296667	0.011603	-0.005343	-0.002726
569	2.899692	0.005000	-0.059572	1.736726	-9.791092	0.587918	0.090620	0.296667	0.005294	0.001200	-0.008141
570	2.904692	0.005000	-0.062748	1.655946	-9.762894	0.588141	0.091289	0.296667	0.002173	-0.006491	-0.009478
571	2.909692	0.005000	-0.175687	1.590113	-9.770760	0.588364	0.091959	0.296667	-0.001741	-0.019473	0.000974
572	2.914692	0.005000	-0.117720	1.753169	-9.875849	0.588587	0.092628	0.296667	0.001780	-0.014886	-0.008482
573	2.919692	0.005000	-0.205397	1.765800	-9.849240	0.588810	0.093297	0.296667	0.003861	-0.014783	-0.003298
574	2.924692	0.005000	-0.270653	1.787433	-9.727493	0.589034	0.093967	0.296667	0.006208	-0.017934	-0.026128
575	2.929692	0.005000	-0.294698	1.785818	-9.731520	0.589257	0.094636	0.296667	0.006714	-0.037200	-0.008463
576	2.934692	0.005000	-0.140149	1.704131	-9.753949	0.589480	0.095305	0.296667	-0.007604	-0.024186	-0.009074
577	2.939692	0.005000	-0.117720	1.698091	-9.770760	0.589703	0.095748	0.296498	0.000168	-0.028661	0.001442
578	2.944692	0.005000	-0.129565	1.620685	-9.810000	0.589926	0.096083	0.296249	0.005648	-0.038132	-0.012665
579	2.949692	0.005000	-0.167791	1.765800	-9.849240	0.590149	0.096418	0.296000	-0.009885	-0.030418	-0.031514
580	2.954692	0.005000	-0.117720	1.783801	-9.777840	0.590372	0.096753	0.295751	-0.002863	-0.033019	-0.013130
581	2.959692	0.005000	-0.156960	1.695894	-9.731520	0.590595	0.097087	0.295502	0.002296	-0.023648	-0.027826
582	2.964692	0.005000	-0.119602	1.724678	-9.694162	0.590818	0.097422	0.295252	0.012916	-0.028150	-0.023736
583	2.969692	0.005000	-0.234381	1.803452	-9.692809	0.591042	0.097757	0.295003	0.001082	-0.019808	-0.021551
584	2.974692	0.005000	-0.232536	1.768704	-9.695184	0.591265	0.098091	0.294754	0.009003	-0.011049	-0.031703
585	2.979692	0.005000	-0.370974	1.765800	-9.765404	0.591488	0.098426	0.294505	0.007495	-0.019337	-0.015595
586	2.984692	0.005000	-0.353160	1.789078	-9.653040	0.591711	0.098761	0.294256	0.000674	-0.015537	-0.021693
587	2.989692	0.005000	-0.274680	1.765800	-9.710493	0.591934	0.099095	0.294006	0.010627	-0.026951	-0.017690
588	2.994692	0.005000	-0.248328	1.792152	-9.665928	0.592157	0.099430	0.293757	0.003792	-0.031108	-0.023790
589	2.999692	0.005000	-0.331286	1.789762	-9.653040	0.592380	0.099765	0.293508	0.012873	-0.039796	-0.017373
590	3.004692	0.005000	-0.331573	1.708907	-9.631453	0.591840	0.099602	0.293852	0.018299	-0.045838	-0.016089
591	3.009692	0.005000	-0.255484	1.707364	-9.691433	0.589497	0.098263	0.295596	0.007797	-0.050049	-0.019149
592	3.014692	0.005000	-0.268541	1.782350	-9.714970	0.587154	0.096924	0.297340	0.004215	-0.049175	-0.004702
593	3.019692	0.005000	-0.485021	1.790899	-9.681322	0.584812	0.095586	0.299084	0.012488	-0.039550	-0.007131
594	3.024692	0.005000	-0.392400	1.793312	-9.810000	0.582469	0.094247	0.300828	0.018334	-0.045505	-0.005740
595	3.029692	0.005000	-0.353160	1.786615	-9.761548	0.580126	0.092908	0.302572	0.006773	-0.037010	-0.007175
596	3.034692	0.005000	-0.339515	1.726560	-9.724698	0.577784	0.091570	0.304316	0.017405	-0.017633	-0.010302
597	3.039692	0.005000	-0.322815	1.853175	-9.653040	0.575441	0.090231	0.306061	0.008959	-0.025861	-0.003509
598	3.044692	0.005000	-0.320092	1.881463	-9.768703	0.573098	0.088892	0.307805	0.009564	-0.002234	-0.007322
599	3.049692	0.005000	-0.316280	1.844280	-9.731520	0.570756	0.087554	0.309549	0.026007	0.002792	-0.007851
600	3.054692	0.005000	-0.317082	1.877197	-9.846078	0.568413	0.086215	0.311293	0.019974	0.014072	0.000508
601	3.059692	0.005000	-0.392400	1.855383	-9.776312	0.566070	0.084876	0.313037	0.025885	0.016869	-0.004403
602	3.064692	0.005000	-0.431640	1.914833	-9.786220	0.563727	0.083538	0.314781	0.014361	0.015520	0.004069
603	3.069692	0.005000	-0.353160	1.825674	-9.838923	0.561385	0.082199	0.316525	0.016907	0.017106	-0.006157
604	3.074692	0.005000	-0.379555	1.648080	-9.744365	0.562526	0.082500	0.315981	0.017876	0.005850	-0.002526
605	3.079692	0.005000	-0.344418	1.648080	-9.786009	0.563975	0.082946	0.315234	0.014617	0.005498	0.000262
606	3.084692	0.005000	-0.338668	1.712068	-9.635129	0.565425	0.083392	0.314486	0.020353	0.000774	0.003839
607	3.089692	0.005000	-0.353160	1.844280	-9.635462	0.566874	0.083838	0.313739	0.014162	-0.003397	0.001833
608	3.094692	0.005000	-0.398511	1.771911	-9.686169	0.568324	0.084284	0.312992	0.026220	-0.006366	-0.002091
609	3.099692	0.005000	-0.395683	1.673146	-9.810000	0.569774	0.084730	0.312245	0.026510	-0.012585	0.004484
610	3.104692	0.005000	-0.435482	1.675521	-9.837441	0.571223	0.085176	0.311498	0.016787	-0.018905	0.008217
611	3.109692	0.005000	-0.313920	1.657140	-9.800940	0.572673	0.085622	0.310751	0.030629	-0.031320	0.016223
612	3.114692	0.005000	-0.235440	1.628774	-9.921075	0.574122	0.086068	0.310004	0.008518	-0.032948	0.001698
613	3.119692	0.005000	-0.278919	1.718081	-9.766521	0.575572	0.086514	0.309257	0.013334	-0.038921	0.010794
614	3.124692	0.005000	-0.469058	1.726560	-9.925898	0.577022	0.086960	0.308510	0.013441	-0.027917	0.011007
615	3.129692	0.005000	-0.431640	1.726560	-9.927145	0.578471	0.087406	0.307763	0.012049	-0.025731	0.012388
616	3.134692	0.005000	-0.395400	1.759801	-9.894479	0.579921	0.087852	0.307015	0.019763	-0.040153	0.012640
617	3.139692	0.005000	-0.420831	1.765800	-9.781569	0.580716	0.088120	0.306268	-0.000085	-0.017907	0.016357
618	3.144692	0.005000	-0.282500	1.765800	-9.778580	0.580939	0.088231	0.305521	0.003563	-0.012133	0.011589
619	3.149692	0.005000	-0.235440	1.854507	-9.888480	0.581162	0.088343	0.304773	0.011980	-0.013689	0.008266
620	3.154692	0.005000	-0.471273	1.831331	-9.848847	0.581385	0.088454	0.304026	0.015621	0.006851	0.018736
621	3.159692	0.005000	-0.416301	1.837503	-9.912381	0.581609	0.088566	0.303278	0.010385	0.015450	0.014402
622	3.164692	0.005000	-0.388588	1.730372	-9.784662	0.581832	0.088677	0.302531	0.013990	0.027769	0.013148
623	3.169692	0.005000	-0.293581	1.805040	-9.732959	0.582055	0.088789	0.301783	0.005505	0.023861	0.020155
624	3.174692	0.005000	-0.336671	1.759538	-9.826489	0.582278	0.088900	0.301036	0.009590	0.041755	0.018459
625	3.179692	0.005000	-0.392400	1.712475	-9.795915	0.582501	0.089012	0.300289	0.020769	0.034208	0.021052
626	3.184692	0.005000	-0.380723	1.636403	-9.805791	0.582724	0.089123	0.299541	0.014076	0.026744	0.025203
627	3.189692	0.005000	-0.265528	1.774952	-9.842720	0.582947	0.089235	0.298794	0.013438	0.024076	0.014852
628	3.194692	0.005000	-0.281457	1.811817	-9.653040	0.583170	0.089346	0.298046	0.015918	0.014172	0.004797
629	3.199692	0.005000	-0.327081	1.726560	-9.666201	0.583393	0.089458	0.297299	0.003990	-0.001079	0.015109
630	3.204692	0.005000	-0.311908	1.763788	-9.694292	0.583634	0.089638	0.296763	0.012102	-0.020460	0.015264
631	3.209692	0.005000	-0.274680	1.803376	-9.731520	0.583969	0.090196	0.297386	0.015825	-0.027950	0.022315
632	3.214692	0.005000	-0.421974	1.762578	-9.734742	0.584303	0.090754	0.298009	0.012724	-0.039913	0.011317
633	3.219692	0.005000	-0.409252	1.726560	-9.731520	0.584638	0.091312	0.298632	0.015481	-0.053476	0.011526
634	3.224692	0.005000	-0.322001	1.859278	-9.708441	0.584973	0.091870	0.299255	0.006764	-0.045336	0.021120
635	3.229692	0.005000	-0.295655	1.784065	-9.642553	0.585307	0.092427	0.299878	0.012334	-0.057411	0.015957
636	3.234692	0.005000	-0.313920	1.818477	-9.692280	0.585642	0.092985	0.300500	0.006441	-0.046285	0.020546
637	3.239692	0.005000	-0.329230	1.717940	-9.803309	0.585977	0.093543	0.301123	0.014139	-0.058915	0.006844
638	3.244692	0.005000	-0.331891	1.705291	-9.831269	0.586311	0.094101	0.301746	0.016401	-0.044092	0.026876
639	3.249692	0.005000	-0.332799	1.649562	-9.888480	0.586646	0.094659	0.302369	0.015290	-0.032265	0.027091
640	3.254692	0.005000	-0.274680	1.625344	-9.950456	0.586981	0.095216	0.302992	0.021759	-0.024103	0.015144
641	3.259692	0.005000	-0.274680	1.714959	-9.823820	0.587316	0.095774	0.303615	0.015823	-0.004887	0.020771
642	3.264692	0.005000	-0.196200	1.692342	-9.832812	0.587650	0.096332	0.304238	0.009130	0.007700	0.017522
643	3.269692	0.005000	-0.126722	1.696322	-9.837007	0.587985	0.096890	0.304860	0.015064	0.014210	0.028087
644	3.274692	0.005000	-0.274680	1.726560	-9.895076	0.587714	0.096582	0.304324	0.018386	0.017708	0.016091
645	3.279692	0.005000	-0.326309	1.722430	-9.853370	0.587268	0.096025	0.303452	0.019688	0.016175	0.021683
646	3.284692	0.005000	-0.428130	1.724805	-9.924210	0.586822	0.095467	0.302580	0.003611	0.028472	0.016197
647	3.289692	0.005000	-0.314563	1.725917	-9.849240	0.586376	0.094910	0.301709	0.008858	0.017715	0.028945
648	3.294692	0.005000	-0.274680	1.611887	-9.918580	0.585930	0.094352	0.300837	0.004974	0.024390	0.033983
649	3.299692	0.005000	-0.286388	1.742383	-9.849240	0.585484	0.093795	0.299966	-0.003588	0.020413	0.022963
650	3.304692	0.005000	-0.274680	1.757556	-9.911231	0.585038	0.093237	0.299094	-0.001633	0.023887	0.024624
651	3.309692	0.005000	-0.370905	1.805040	-9.888480	0.584592	0.092679	0.298222	-0.000557	0.024826	0.026869
652	3.314692	0.005000	-0.431395	1.726560	-9.849240	0.584146	0.092122	0.297351	0.006715	0.016343	0.041691
653	3.319692	0.005000	-0.486450	1.765800	-9.864810	0.583700	0.091564	0.296479	0.003832	0.023653	0.034356
654	3.324692	0.005000	-0.452898	1.744542	-9.845965	0.583254	0.091007	0.295607	0.003051	0.009328	0.031133
655	3.329692	0.005000	-0.430094	1.745407	-9.888480	0.582808	0.090449	0.294736	-0.001011	0.002268	0.035547
656	3.334692	0.005000	-0.376153	1.680573	-9.881733	0.582362	0.089892	0.293864	-0.004571	-0.002514	0.022929
657	3.339692	0.005000	-0.339303	1.779657	-9.900007	0.582221	0.089072	0.293430	0.001318	-0.010277	0.026770
658	3.344692	0.005000	-0.353160	1.782077	-9.832963	0.582555	0.087845	0.293680	-0.008784	-0.000428	0.024374
659	3.349692	0.005000	-0.286646	1.696411	-9.897571	0.582890	0.086618	0.293929	-0.004688	-0.015143	0.039155
660	3.354692	0.005000	-0.202916	1.726560	-9.907571	0.583225	0.085391	0.294178	-0.019621	-0.014972	0.035152
661	3.359692	0.005000	-0.235440	1.687320	-9.845322	0.583559	0.084164	0.294427	-0.012175	-0.004804	0.035930
662	3.364692	0.005000	-0.270179	1.729561	-9.847740	0.583894	0.082937	0.294676	-0.005550	0.003386	0.027455
663	3.369692	0.005000	-0.195307	1.805040	-9.771653	0.584229	0.081710	0.294926	-0.008152	0.012014	0.026021
664	3.374692	0.005000	-0.277947	1.765800	-9.810000	0.584563	0.080482	0.295175	-0.006270	0.025512	0.033344
665	3.379692	0.005000	-0.235440	1.950552	-9.882756	0.584898	0.079255	0.295424	-0.015287	0.046598	0.042841
666	3.384692	0.005000	-0.243570	1.813170	-9.818130	0.585232	0.078028	0.295673	-0.009115	0.055686	0.036534
667	3.389692	0.005000	-0.196200	1.794164	-9.820876	0.585567	0.076801	0.295922	0.002820	0.065163	0.036440
668	3.394692	0.005000	-0.182933	1.791773	-9.718813	0.585902	0.075574	0.296172	-0.000321	0.065508	0.040012
669	3.399692	0.005000	-0.094122	1.726560	-9.692280	0.586236	0.074347	0.296421	0.001661	0.057858	0.039531
670	3.404692	0.005000	-0.196200	1.687320	-9.616977	0.586567	0.073152	0.296670	-0.010944	0.063304	0.035142
671	3.409692	0.005000	-0.233867	1.726560	-9.729947	0.586567	0.074714	0.296919	-0.016218	0.042613	0.030968
672	3.414692	0.005000	-0.196200	1.765800	-9.659927	0.586567	0.076275	0.297168	-0.005362	0.029830	0.032961
673	3.419692	0.005000	-0.131484	1.712796	-9.666804	0.586567	0.077836	0.297417	0.004474	0.014335	0.025756
674	3.424692	0.005000	-0.235440	1.603667	-9.680924	0.586567	0.079397	0.297666	0.004033	-0.001750	0.031154
675	3.429692	0.005000	-0.226499	1.705202	-9.670922	0.586567	0.080958	0.297915	-0.006744	-0.001500	0.031631
676	3.434692	0.005000	-0.189741	1.726560	-9.737979	0.586567	0.082519	0.298164	0.004463	-0.021981	0.034444
677	3.439692	0.005000	-0.117720	1.805040	-9.810000	0.586567	0.084080	0.298413	0.002745	-0.014661	0.026266
678	3.444692	0.005000	-0.080174	1.803346	-9.731520	0.586567	0.085642	0.298662	-0.001020	-0.018577	0.023700
679	3.449692	0.005000	-0.156256	1.804336	-9.731520	0.586567	0.087203	0.298911	0.008209	-0.010197	0.029718
680	3.454692	0.005000	-0.156960	1.687320	-9.763680	0.586567	0.088764	0.299160	0.001461	-0.000810	0.019149
681	3.459692	0.005000	-0.156960	1.608840	-9.843325	0.586567	0.090325	0.299409	0.001608	-0.001748	0.029401
682	3.464692	0.005000	-0.055819	1.639790	-9.739810	0.586567	0.091886	0.299658	-0.000334	0.026917	0.025766
683	3.469692	0.005000	-0.156960	1.619520	-9.792120	0.586567	0.093447	0.299907	0.011098	0.038079	0.013538
684	3.474692	0.005000	-0.156960	1.621970	-9.692280	0.586427	0.093890	0.299844	0.001717	0.055437	0.028029
685	3.479692	0.005000	-0.148971	1.593214	-9.645051	0.586204	0.093667	0.299595	0.014124	0.068502	0.032402
686	3.484692	0.005000	-0.075311	1.633214	-9.616969	0.585981	0.093444	0.299346	0.017621	0.066112	0.024251
687	3.489692	0.005000	-0.098926	1.668526	-9.671834	0.585758	0.093221	0.299096	0.008295	0.077192	0.020567
688	3.494692	0.005000	-0.084956	1.693796	-9.662946	0.585535	0.092998	0.298847	0.005271	0.068152	0.029189
689	3.499692	0.005000	-0.053213	1.594867	-9.731520	0.585312	0.092775	0.298598	0.011645	0.078000	0.033634
690	3.504692	0.005000	-0.117720	1.625238	-9.692280	0.585088	0.092551	0.298349	0.017169	0.071741	0.027101
691	3.509692	0.005000	-0.099628	1.617886	-9.643994	0.584865	0.092328	0.298100	0.012915	0.066671	0.022296
692	3.514692	0.005000	-0.019968	1.719904	-9.653040	0.584642	0.092105	0.297851	0.010788	0.072949	0.018705
693	3.519692	0.005000	-0.082338	1.691178	-9.755327	0.584419	0.091882	0.297602	0.016271	0.068671	0.023829
694	3.524692	0.005000	-0.079934	1.764346	-9.576014	0.584196	0.091659	0.297353	0.017665	0.079681	0.007526
695	3.529692	0.005000	-0.041146	1.573412	-9.613800	0.583973	0.091436	0.297103	0.022858	0.074113	0.022254
696	3.534692	0.005000	-0.078480	1.566272	-9.653040	0.583750	0.091213	0.296854	0.017204	0.080044	0.030646
697	3.539692	0.005000	-0.112002	1.709406	-9.613800	0.583610	0.091128	0.296791	0.017581	0.083129	0.020377
698	3.544692	0.005000	-0.179818	1.710178	-9.613800	0.583721	0.091463	0.297289	0.020962	0.090182	0.025830
699	3.549692	0.005000	-0.167566	1.666108	-9.592588	0.583833	0.091797	0.297787	0.020442	0.097247	0.025329
700	3.554692	0.005000	-0.182873	1.765800	-9.678953	0.583944	0.092132	0.298285	0.029912	0.084642	0.033860
701	3.559692	0.005000	-0.109884	1.726560	-9.590262	0.584056	0.092467	0.298784	0.028901	0.084258	0.024570
702	3.564692	0.005000	-0.018077	1.744637	-9.616886	0.584168	0.092801	0.299282	0.031070	0.072321	0.023568
703	3.569692	0.005000	-0.078480	1.726560	-9.653040	0.584279	0.093136	0.299780	0.028167	0.073656	0.037225
704	3.574692	0.005000	-0.094878	1.687320	-9.685836	0.584391	0.093470	0.300278	0.021786	0.061392	0.032235
705	3.579692	0.005000	-0.117720	1.712847	-9.835527	0.584502	0.093805	0.300777	0.027140	0.059741	0.023467
706	3.584692	0.005000	-0.101078	1.687320	-9.888480	0.584614	0.094140	0.301275	0.023407	0.063641	0.031968
707	3.589692	0.005000	-0.130285	1.805040	-9.897372	0.584726	0.094474	0.301773	0.024404	0.072531	0.030460
708	3.594692	0.005000	-0.072004	1.720084	-9.934196	0.584837	0.094809	0.302271	0.022187	0.080985	0.031312
709	3.599692	0.005000	-0.086528	1.765800	-10.006200	0.584949	0.095144	0.302769	0.019412	0.103918	0.037592
710	3.604692	0.005000	-0.114453	1.876985	-9.929354	0.585060	0.095478	0.303268	0.017971	0.118935	0.041644
711	3.609692	0.005000	-0.039240	1.726560	-10.043940	0.584396	0.095231	0.303008	0.025056	0.134370	0.023588
712	3.614692	0.005000	-0.117720	1.805040	-10.114416	0.583615	0.094897	0.302635	0.027270	0.141616	0.037690
713	3.619692	0.005000	0.028094	1.760227	-10.045440	0.582834	0.094562	0.302261	0.018053	0.148973	0.047225
714	3.624692	0.005000	0.000000	1.914410	-9.966960	0.582054	0.094227	0.301887	0.027452	0.175245	0.026099
715	3.629692	0.005000	0.017759	1.872780	-9.863702	0.581273	0.093893	0.301513	0.020769	0.173687	0.030523
716	3.634692	0.005000	-0.039240	1.896529	-9.927720	0.580492	0.093558	0.301140	0.016867	0.191336	0.032848
717	3.639692	0.005000	-0.039240	1.899207	-9.825687	0.579711	0.093223	0.300766	0.022702	0.192129	0.043016
718	3.644692	0.005000	0.018097	1.904663	-9.906577	0.578930	0.092889	0.300392	0.017944	0.205474	0.039666
719	3.649692	0.005000	0.039240	1.922760	-9.983939	0.578149	0.092554	0.300018	0.025612	0.217398	0.028711
720	3.654692	0.005000	0.013917	1.899661	-9.863157	0.577368	0.092219	0.299645	0.023523	0.246122	0.035148
721	3.659692	0.005000	-0.103969	1.869769	-9.876741	0.576587	0.091885	0.299271	0.027596	0.252988	0.032313
722	3.664692	0.005000	-0.067441	1.844280	-9.949797	0.575806	0.091550	0.298897	0.030517	0.259750	0.034472
723	3.669692	0.005000	0.056503	1.922760	-10.006200	0.575025	0.091216	0.298524	0.024812	0.304793	0.035464
724	3.674692	0.005000	0.066197	1.922760	-9.979243	0.574244	0.091154	0.298638	0.034107	0.307752	0.038609
725	3.679692	0.005000	0.043007	1.965767	-10.077147	0.573463	0.091377	0.299261	0.041844	0.325589	0.022299
726	3.684692	0.005000	0.000000	1.883520	-9.969713	0.572682	0.091601	0.299884	0.033292	0.335670	0.033292
727	3.689692	0.005000	0.000000	1.883520	-10.083213	0.571901	0.091824	0.300507	0.036841	0.339004	0.036715
728	3.694692	0.005000	0.035398	1.918918	-10.053125	0.571120	0.092047	0.301130	0.038685	0.339102	0.032119
729	3.699692	0.005000	-0.020543	1.889752	-10.123920	0.570340	0.092270	0.301753	0.047166	0.327663	0.037640
730	3.704692	0.005000	-0.069873	1.796433	-10.185185	0.569559	0.092493	0.302376	0.039003	0.319524	0.028559
731	3.709692	0.005000	-0.021995	1.787795	-10.365608	0.568778	0.092716	0.302999	0.033028	0.305160	0.037527
732	3.714692	0.005000	0.064946	1.779334	-10.294414	0.567997	0.092939	0.303622	0.027165	0.304163	0.035096
733	3.719692	0.005000	0.055187	1.703267	-10.343413	0.567216	0.093162	0.304245	0.024782	0.293850	0.022882
734	3.724692	0.005000	0.057846	1.705926	-10.359360	0.566435	0.093385	0.304868	0.024490	0.296242	0.026868
735	3.729692	0.005000	0.078480	1.700133	-10.359360	0.565654	0.093609	0.305490	0.016814	0.309189	0.022841
736	3.734692	0.005000	0.125223	1.812543	-10.328485	0.564873	0.093832	0.306113	0.010151	0.315709	0.030405
737	3.739692	0.005000	0.208453	1.725320	-10.478320	0.564117	0.094067	0.306750	-0.004095	0.347441	0.030005
738	3.744692	0.005000	0.078480	1.625873	-10.555560	0.563559	0.094402	0.307497	0.000610	0.380071	0.034073
739	3.749692	0.005000	0.173679	1.633918	-10.485439	0.563002	0.094736	0.308244	0.004212	0.409456	0.039749
740	3.754692	0.005000	0.274680	1.759844	-10.561516	0.562444	0.095071	0.308991	-0.005926	0.483278	0.037949
741	3.759692	0.005000	0.349650	1.723050	-10.545031	0.561887	0.095405	0.309738	0.005663	0.509710	0.056652
742	3.764692	0.005000	0.196200	1.687320	-10.396361	0.561329	0.095740	0.310486	0.011030	0.555418	0.049645
743	3.769692	0.005000	0.234169	1.535443	-10.358089	0.560772	0.096074	0.311233	0.010763	0.590499	0.046108
744	3.774692	0.005000	0.342095	1.601463	-10.245328	0.560214	0.096409	0.311980	0.006193	0.605677	0.047618
745	3.779692	0.005000	0.380213	1.648080	-10.142200	0.559656	0.096743	0.312727	-0.003692	0.619807	0.034769
746	3.784692	0.005000	0.383891	1.586618	-10.202400	0.559099	0.097078	0.313474	0.005634	0.614633	0.036074
747	3.789692	0.005000	0.477372	1.552192	-10.095596	0.558541	0.097412	0.314221	-0.013994	0.605952	0.032043
748	3.794692	0.005000	0.484510	1.596859	-9.941350	0.557984	0.097746	0.314968	-0.020333	0.594589	0.037224
749	3.799692	0.005000	0.415620	1.530360	-9.833220	0.557426	0.098081	0.315715	-0.008229	0.564899	0.044434
750	3.804692	0.005000	0.413023	1.652091	-9.807994	0.556869	0.098415	0.316462	-0.018907	0.543706	0.024405
751	3.809692	0.005000	0.452668	1.669108	-9.867452	0.555420	0.098264	0.316215	-0.013815	0.518130	0.033034
752	3.814692	0.005000	0.478520	1.663880	-9.951160	0.553635	0.097929	0.315592	-0.032475	0.486633	0.011074
753	3.819692	0.005000	0.484271	1.830889	-9.901871	0.551850	0.097595	0.314969	-0.021861	0.448464	0.012597
754	3.824692	0.005000	0.538514	1.765800	-9.938566	0.550065	0.097260	0.314346	-0.020923	0.455417	0.026244
755	3.829692	0.005000	0.487822	1.774271	-9.936191	0.548280	0.096925	0.313723	-0.031298	0.448088	0.018932
756	3.834692	0.005000	0.497958	1.844280	-9.933801	0.546495	0.096591	0.313100	-0.034013	0.465033	0.034512
757	3.839692	0.005000	0.478292	1.883520	-10.017319	0.544710	0.096256	0.312477	-0.028785	0.497814	0.038006
758	3.844692	0.005000	0.507458	1.840286	-10.276886	0.542925	0.095922	0.311854	-0.029181	0.535716	0.043507
759	3.849692	0.005000	0.356185	1.688833	-10.049978	0.541140	0.095587	0.311231	-0.025592	0.590938	0.040703
760	3.854692	0.005000	0.498412	1.648080	-10.123920	0.539356	0.095252	0.310608	-0.031789	0.647676	0.044923
761	3.859692	0.005000	0.609007	1.753244	-10.064273	0.537571	0.094918	0.309985	-0.026596	0.715210	0.045627
762	3.864692	0.005000	0.588600	1.883520	-9.975628	0.535786	0.094583	0.309362	-0.014227	0.777704	0.047220
763	3.869692	0.005000	0.566247	1.894696	-10.084680	0.534001	0.094248	0.308740	-0.013439	0.821830	0.065621
764	3.874692	0.005000	0.522180	1.740150	-9.941310	0.532216	0.094069	0.308420	0.012862	0.881065	0.057955
765	3.879692	0.005000	0.657489	1.719874	-9.803314	0.530431	0.094180	0.308669	-0.007551	0.917696	0.073136
766	3.884692	0.005000	0.685732	1.666732	-9.826716	0.528646	0.094292	0.308918	-0.002257	0.960207	0.076046
767	3.889692	0.005000	0.721674	1.762956	-9.731520	0.526861	0.094403	0.309167	0.002778	0.981520	0.057763
768	3.894692	0.005000	0.824040	1.844280	-9.825823	0.525076	0.094515	0.309416	-0.003148	0.997167	0.072340
769	3.899692	0.005000	0.784800	1.922760	-9.809847	0.523291	0.094626	0.309666	0.003221	1.010012	0.081577
770	3.904692	0.005000	0.734843	1.844280	-9.631606	0.521506	0.094738	0.309915	0.010614	1.006605	0.094432
771	3.909692	0.005000	0.714534	1.867092	-9.723306	0.519721	0.094849	0.310164	0.014195	1.003208	0.094084
772	3.914692	0.005000	0.763032	1.805040	-9.653040	0.517936	0.094961	0.310413	0.022665	0.994583	0.096557
773	3.919692	0.005000	0.912867	1.769249	-9.613800	0.516151	0.095072	0.310662	0.018618	0.996077	0.110285
774	3.924692	0.005000	1.059480	1.843221	-9.655158	0.514366	0.095184	0.310912	0.029920	0.984608	0.115933
775	3.929692	0.005000	1.135296	1.729224	-9.769428	0.512581	0.095295	0.311161	0.027893	0.981868	0.121029
776	3.934692	0.005000	1.142120	1.796720	-9.700600	0.510796	0.095407	0.311410	0.011719	0.991373	0.118569
777	3.939692	0.005000	1.216440	1.916210	-9.731520	0.509011	0.095518	0.311659	0.018203	1.012214	0.134755
778	3.944692	0.005000	1.255680	1.862346	-9.710346	0.504742	0.095090	0.312873	0.020996	1.050950	0.130420
779	3.949692	0.005000	1.334160	1.888450	-9.641603	0.500391	0.094644	0.314119	0.027817	1.090045	0.135772
780	3.954692	0.005000	1.267219	1.911221	-9.678430	0.496040	0.094197	0.315365	0.027800	1.128056	0.138539
781	3.959692	0.005000	1.350419	1.876799	-9.721982	0.491689	0.093751	0.316610	0.034082	1.184886	0.143852
782	3.964692	0.005000	1.395867	1.705991	-9.710951	0.487338	0.093305	0.317856	0.049244	1.237243	0.148644
783	3.969692	0.005000	1.509061	1.594257	-9.695638	0.482987	0.092859	0.319102	0.055939	1.300801	0.165502
784	3.974692	0.005000	1.601382	1.585166	-9.598234	0.478637	0.092413	0.320348	0.054223	1.360009	0.168462
785	3.979692	0.005000	1.635209	1.700191	-9.627298	0.474286	0.091966	0.321593	0.052120	1.410495	0.169667
786	3.984692	0.005000	1.561731	1.716103	-9.475166	0.469935	0.091520	0.322839	0.068492	1.453812	0.158931
787	3.989692	0.005000	1.648080	1.726560	-9.299880	0.465584	0.091074	0.324085	0.075363	1.472236	0.173518
788	3.994692	0.005000	1.692887	1.614407	-9.148487	0.461233	0.090628	0.325330	0.080351	1.482493	0.188921
789	3.999692	0.005000	1.808232	1.690512	-9.172584	0.456882	0.090181	0.326576	0.086798	1.472106	0.181576
790	4.004692	0.005000	1.923562	1.609642	-9.023597	0.452532	0.089735	0.327822	0.081490	1.467289	0.201070
791	4.009692	0.005000	1.962000	1.685278	-8.872324	0.449036	0.089420	0.328480	0.065423	1.438564	0.194328
792	4.014692	0.005000	2.223429	1.656914	-8.863823	0.446135	0.089197	0.328729	0.082259	1.395897	0.199988
793	4.019692	0.005000	2.223066	1.687320	-8.796567	0.443235	0.088974	0.328978	0.092393	1.374331	0.208547
794	4.024692	0.005000	2.296796	1.708196	-8.877422	0.440334	0.088751	0.329228	0.098178	1.325383	0.212618
795	4.029692	0.005000	2.398163	1.698892	-9.025200	0.437434	0.088528	0.329477	0.085256	1.294133	0.210739
796	4.034692	0.005000	2.522368	1.648080	-9.011084	0.434533	0.088305	0.329726	0.095520	1.258852	0.213847
797	4.039692	0.005000	2.612560	1.664600	-9.008680	0.431633	0.088082	0.329975	0.089002	1.239053	0.212991
798	4.044692	0.005000	2.767109	1.608840	-9.105057	0.428732	0.087859	0.330224	0.102886	1.243631	0.225344
799	4.049692	0.005000	2.786040	1.680430	-9.242742	0.425832	0.087636	0.330473	0.102000	1.264397	0.228784
800	4.054692	0.005000	2.901824	1.617463	-9.284571	0.422931	0.087412	0.330723	0.106049	1.309126	0.230600
801	4.059692	0.005000	3.139200	1.556681	-9.325717	0.420031	0.087189	0.330972	0.117021	1.361255	0.235321
802	4.064692	0.005000	3.110504	1.420249	-9.286402	0.417130	0.086966	0.331221	0.107540	1.431510	0.235017
803	4.069692	0.005000	3.194020	1.224230	-9.033281	0.414230	0.086743	0.331470	0.127142	1.484422	0.221915
804	4.074692	0.005000	3.306908	1.261054	-8.795134	0.411541	0.086919	0.331431	0.120830	1.518333	0.225959
805	4.079692	0.005000	3.422684	1.252745	-8.708345	0.409645	0.088592	0.330310	0.133436	1.549073	0.221305
806	4.084692	0.005000	3.491815	1.333615	-8.632800	0.407750	0.090264	0.329190	0.143406	1.551209	0.211281
807	4.089692	0.005000	3.340958	1.332307	-8.595413	0.405854	0.091937	0.328069	0.140487	1.524377	0.215890
808	4.094692	0.005000	3.331130	1.115800	-8.488650	0.403958	0.093610	0.326948	0.150585	1.490619	0.209912
809	4.099692	0.005000	3.302835	1.372589	-8.338906	0.402063	0.095282	0.325828	0.148644	1.446424	0.211255
810	4.104692	0.005000	3.445163	1.608840	-8.397360	0.400167	0.096955	0.324707	0.138702	1.405020	0.216726
811	4.109692	0.005000	3.680482	1.251928	-8.224819	0.398271	0.098628	0.323586	0.191508	1.342626	0.223759
812	4.114692	0.005000	3.570840	1.280716	-8.433227	0.396376	0.100300	0.322466	0.138250	1.291171	0.215883
813	4.119692	0.005000	3.632531	1.160212	-8.537531	0.394480	0.101973	0.321345	0.166446	1.234245	0.209989
814	4.124692	0.005000	3.670203	1.219808	-8.712964	0.392584	0.103645	0.320224	0.150555	1.201459	0.216201
815	4.129692	0.005000	3.714760	1.377787	-8.859587	0.390689	0.105318	0.319104	0.122282	1.165631	0.233653
816	4.134692	0.005000	3.797113	1.156294	-8.515080	0.388793	0.106991	0.317983	0.175484	1.140234	0.238260
817	4.139692	0.005000	3.792363	1.317732	-8.761926	0.386898	0.108663	0.316862	0.122354	1.125331	0.243841
818	4.144692	0.005000	3.775420	1.439687	-8.678514	0.384541	0.109416	0.314507	0.149768	1.098763	0.253309
819	4.149692	0.005000	4.779750	1.166916	-8.786577	0.382086	0.109973	0.311891	0.146680	1.096363	0.278512
820	4.154692	0.005000	4.692463	0.951865	-8.706228	0.379632	0.110531	0.309275	0.159774	1.104020	0.242388
821	4.159692	0.005000	4.402913	1.200375	-8.881628	0.377178	0.111089	0.306659	0.092467	1.137566	0.260589
822	4.164692	0.005000	4.629745	0.784513	-8.631363	0.374723	0.111647	0.304043	0.184374	1.190394	0.260407
823	4.169692	0.005000	4.588967	1.042578	-8.585109	0.372269	0.112205	0.301427	0.133050	1.232586	0.251643
824	4.174692	0.005000	4.674491	1.049829	-8.726074	0.369815	0.112762	0.298811	0.136859	1.296569	0.251555
825	4.179692	0.005000	4.598402	0.723595	-8.294283	0.367360	0.113320	0.296195	0.198075	1.333921	0.236904
826	4.184692	0.005000	4.630320	1.216894	-8.485537	0.364906	0.113878	0.293579	0.111520	1.365037	0.240976
827	4.189692	0.005000	4.593636	1.069152	-8.291868	0.362452	0.114436	0.290962	0.207527	1.367375	0.228393
828	4.194692	0.005000	4.537203	1.147927	-8.338814	0.359997	0.114994	0.288346	0.137386	1.387237	0.246618
829	4.199692	0.005000	4.539163	1.006353	-8.475840	0.357543	0.115552	0.285730	0.177326	1.391240	0.242851
830	4.204692	0.005000	4.610776	0.882824	-8.495233	0.355089	0.116109	0.283114	0.177621	1.378895	0.251701
831	4.209692	0.005000	4.524868	1.042311	-8.654871	0.352834	0.116219	0.281500	0.146992	1.392707	0.255738
832	4.214692	0.005000	4.571203	0.995779	-8.647579	0.350826	0.115772	0.281126	0.177343	1.400305	0.259868
833	4.219692	0.005000	4.618240	1.186279	-8.675041	0.348818	0.115326	0.280753	0.142620	1.401483	0.274516
834	4.224692	0.005000	4.610975	1.138511	-8.632249	0.346810	0.114880	0.280379	0.148181	1.408230	0.279130
835	4.229692	0.005000	4.659348	1.123446	-8.672040	0.344802	0.114434	0.280005	0.151643	1.411003	0.296069
836	4.234692	0.005000	4.762426	0.996263	-8.696894	0.342794	0.113988	0.279631	0.126146	1.420412	0.300085
837	4.239692	0.005000	4.909841	0.946601	-8.436600	0.340786	0.113541	0.279258	0.143703	1.412145	0.310770
838	4.244692	0.005000	4.983541	1.098659	-8.397390	0.338778	0.113095	0.278884	0.110422	1.412545	0.314985
839	4.249692	0.005000	5.135694	0.909639	-8.436600	0.336770	0.112649	0.278510	0.120938	1.400676	0.315817
840	4.254692	0.005000	5.253370	0.775220	-8.328460	0.334762	0.112203	0.278137	0.119766	1.372344	0.307346
841	4.259692	0.005000	5.399963	0.760717	-8.294797	0.332754	0.111756	0.277763	0.096303	1.328664	0.306106
842	4.264692	0.005000	5.522886	0.735606	-8.211114	0.330746	0.111310	0.277389	0.090218	1.276579	0.312525
843	4.269692	0.005000	5.559736	0.850936	-8.279640	0.328738	0.110864	0.277015	0.061155	1.231698	0.310810
844	4.274692	0.005000	5.469257	0.687427	-8.328326	0.326722	0.110584	0.276523	0.055239	1.174103	0.300847
845	4.279692	0.005000	5.510909	0.667080	-8.475840	0.324603	0.112592	0.274406	0.043681	1.127247	0.310311
846	4.284692	0.005000	5.473880	0.627840	-8.417279	0.322483	0.114600	0.272288	0.018457	1.102047	0.304680
847	4.289692	0.005000	5.409704	0.644752	-8.475840	0.320363	0.116608	0.270170	0.018449	1.087341	0.303602
848	4.294692	0.005000	5.425316	0.838562	-8.446796	0.318244	0.118616	0.268052	0.003283	1.103531	0.306584
849	4.299692	0.005000	5.403301	0.863280	-8.358120	0.316124	0.120624	0.265934	-0.005537	1.136786	0.308216
850	4.304692	0.005000	5.267572	0.824040	-8.348708	0.314004	0.122632	0.263817	0.005892	1.189560	0.322490
851	4.309692	0.005000	5.304397	0.863280	-8.272643	0.311885	0.124640	0.261699	-0.008007	1.241011	0.319042
852	4.314692	0.005000	5.288324	0.971924	-8.187546	0.309765	0.126648	0.259581	-0.002403	1.304938	0.354597
853	4.319692	0.005000	5.264604	0.856836	-8.116236	0.307645	0.128656	0.257463	-0.006680	1.386655	0.363810
854	4.324692	0.005000	5.414890	0.784570	-7.965950	0.305526	0.130664	0.255345	-0.013022	1.435731	0.371888
855	4.329692	0.005000	5.605178	0.827111	-7.811831	0.303406	0.132672	0.253228	-0.009842	1.493223	0.392754
856	4.334692	0.005000	5.650560	0.886183	-7.696486	0.301286	0.134680	0.251110	-0.005011	1.543027	0.392117
857	4.339692	0.005000	5.917465	0.941760	-7.510512	0.299167	0.136688	0.248992	0.002284	1.575566	0.420675
858	4.344692	0.005000	5.826091	0.873614	-7.437029	0.296355	0.137620	0.247046	-0.007027	1.603623	0.430278
859	4.349692	0.005000	5.978223	0.758308	-7.349634	0.293232	0.138067	0.245177	0.002043	1.634839	0.437186
860	4.354692	0.005000	6.106283	0.721477	-7.163068	0.290108	0.138513	0.243309	-0.009702	1.663279	0.436103
861	4.359692	0.005000	6.221591	0.702218	-7.084871	0.286984	0.138959	0.241440	-0.005576	1.664903	0.434101
862	4.364692	0.005000	6.335490	0.608810	-7.044170	0.283861	0.139406	0.239571	0.001487	1.666544	0.435248
863	4.369692	0.005000	6.429430	0.621910	-6.906240	0.280737	0.139852	0.237703	-0.010653	1.657697	0.423709
864	4.374692	0.005000	6.463890	0.613575	-6.906240	0.277613	0.140298	0.235834	-0.006414	1.627486	0.429146
865	4.379692	0.005000	6.670800	0.655521	-6.850878	0.274490	0.140745	0.233965	-0.006808	1.619071	0.426447
866	4.384692	0.005000	6.689104	0.579448	-6.927176	0.271366	0.141191	0.232097	0.002152	1.586133	0.424952
867	4.389692	0.005000	6.952216	0.549360	-6.749280	0.268242	0.141637	0.230228	-0.007971	1.540832	0.414051
868	4.394692	0.005000	7.154673	0.510120	-6.622898	0.265119	0.142083	0.228360	-0.009085	1.482909	0.408215
869	4.399692	0.005000	7.259400	0.512011	-6.553080	0.261995	0.142530	0.226491	-0.019994	1.436463	0.411406
870	4.404692	0.005000	7.298150	0.433110	-6.436830	0.258871	0.142976	0.224622	-0.013901	1.375580	0.388445
871	4.409692	0.005000	7.301548	0.504304	-6.510932	0.256197	0.143146	0.222754	-0.026843	1.307724	0.390182
872	4.414692	0.005000	7.405735	0.340483	-6.547767	0.254524	0.142699	0.220885	-0.045837	1.269683	0.375772
873	4.419692	0.005000	7.439414	0.313920	-6.521933	0.252851	0.142253	0.219017	-0.044417	1.224473	0.369196
874	4.424692	0.005000	7.570627	0.360951	-6.610594	0.251177	0.141807	0.217148	-0.062753	1.206757	0.368525
875	4.429692	0.005000	7.638942	0.523644	-6.605178	0.249504	0.141360	0.215279	-0.062089	1.202836	0.354564
876	4.434692	0.005000	7.691040	0.477339	-6.646793	0.247830	0.140914	0.213411	-0.061345	1.206376	0.355171
877	4.439692	0.005000	7.790931	0.488709	-6.670800	0.246157	0.140468	0.211542	-0.055812	1.223218	0.340209
878	4.444692	0.005000	7.750520	0.334160	-6.670800	0.244484	0.140022	0.209674	-0.048391	1.244496	0.325828
879	4.449692	0.005000	7.825158	0.326808	-6.670800	0.242810	0.139575	0.207805	-0.049430	1.282528	0.332138
880	4.454692	0.005000	7.884457	0.299912	-6.589537	0.241137	0.139129	0.205936	-0.052109	1.338898	0.322183
881	4.459692	0.005000	7.910506	0.212174	-6.525473	0.239464	0.138683	0.204068	-0.049726	1.374162	0.331652
882	4.464692	0.005000	7.992395	0.235440	-6.544188	0.237790	0.138236	0.202199	-0.044017	1.439902	0.331134
883	4.469692	0.005000	8.194761	0.307521	-6.409765	0.236117	0.137790	0.200331	-0.049474	1.485764	0.325779
884	4.474692	0.005000	8.217255	0.231416	-6.219041	0.234443	0.137344	0.198462	-0.038945	1.533304	0.324692
885	4.479692	0.005000	8.364655	0.235440	-6.002086	0.231939	0.138144	0.196245	-0.033988	1.558473	0.311463
886	4.484692	0.005000	8.592060	0.273930	-5.810521	0.229373	0.139036	0.194003	-0.036126	1.580650	0.302425
887	4.489692	0.005000	8.593560	0.124056	-5.663232	0.226807	0.139929	0.191761	-0.030976	1.595770	0.287010
888	4.494692	0.005000	8.666065	0.223489	-5.544791	0.224242	0.140822	0.189518	-0.037084	1.592221	0.279115
889	4.499692	0.005000	8.719630	0.221251	-5.415120	0.221676	0.141714	0.187276	-0.033713	1.597038	0.259236
890	4.504692	0.005000	8.732761	0.213959	-5.358121	0.219110	0.142607	0.185034	-0.026166	1.583056	0.241503
891	4.509692	0.005000	8.698006	0.196200	-5.192954	0.216544	0.143499	0.182791	-0.029908	1.565902	0.238550
892	4.514692	0.005000	8.734833	0.180513	-5.132574	0.213978	0.144392	0.180549	-0.031944	1.547699	0.222507
893	4.519692	0.005000	8.871287	0.316967	-5.101200	0.211412	0.145284	0.178307	-0.028364	1.512557	0.214088
894	4.524692	0.005000	8.907480	0.316129	-4.946449	0.208847	0.146177	0.176064	-0.038129	1.497570	0.201495
895	4.529692	0.005000	8.969819	0.212341	-4.856578	0.206281	0.147069	0.173822	-0.030169	1.461553	0.203151
896	4.534692	0.005000	9.025200	0.327671	-4.879511	0.203715	0.147962	0.171579	-0.036270	1.434170	0.188793
897	4.539692	0.005000	9.075816	0.358273	-4.888511	0.201149	0.148854	0.169337	-0.020942	1.410955	0.171990
898	4.544692	0.005000	9.173528	0.274680	-4.874392	0.199137	0.149254	0.167025	-0.023213	1.389569	0.157752
899	4.549692	0.005000	9.163512	0.280896	-4.832736	0.197575	0.149254	0.164657	-0.036306	1.376922	0.144742
900	4.554692	0.005000	9.174627	0.321453	-4.869527	0.196012	0.149254	0.162290	-0.035291	1.363783	0.139259
901	4.559692	0.005000	9.182160	0.392400	-4.976597	0.194449	0.149254	0.159922	-0.036033	1.365276	0.132300
902	4.564692	0.005000	9.258619	0.315941	-4.634362	0.192887	0.149254	0.157554	-0.029908	1.361200	0.121246
903	4.569692	0.005000	9.224828	0.274680	-4.644033	0.191324	0.149254	0.155186	-0.036670	1.356045	0.113462
904	4.574692	0.005000	9.254408	0.419175	-4.570537	0.189762	0.149254	0.152818	-0.044110	1.346430	0.107690
905	4.579692	0.005000	9.330513	0.322527	-4.686775	0.188199	0.149254	0.150450	-0.040673	1.340149	0.107156
906	4.584692	0.005000	9.328123	0.291925	-4.580083	0.186637	0.149254	0.148082	-0.032209	1.349616	0.098989
907	4.589692	0.005000	9.326625	0.235440	-4.565212	0.185074	0.149254	0.145714	-0.041810	1.321233	0.084512
908	4.594692	0.005000	9.449494	0.212147	-4.505254	0.183511	0.149254	0.143346	-0.051282	1.306021	0.074822
909	4.599692	0.005000	9.438483	0.274680	-4.358166	0.181949	0.149254	0.140978	-0.047654	1.285513	0.061475
910	4.604692	0.005000	9.438368	0.276976	-4.143263	0.180386	0.149254	0.138610	-0.057025	1.250742	0.051961
911	4.609692	0.005000	9.464343	0.258812	-4.033355	0.178844	0.149274	0.136354	-0.054032	1.215509	0.029108
912	4.614692	0.005000	9.378360	0.117720	-3.963240	0.177394	0.149386	0.134610	-0.059923	1.159371	0.023683
913	4.619692	0.005000	9.372430	0.156960	-3.912897	0.175943	0.149497	0.132866	-0.066569	1.110807	0.007121
914	4.624692	0.005000	9.471002	0.212919	-3.876401	0.174493	0.149609	0.131122	-0.063169	1.053697	-0.001686
915	4.629692	0.005000	9.339120	0.247351	-3.761084	0.173043	0.149720	0.129378	-0.072366	1.008926	-0.013476
916	4.634692	0.005000	9.407071	0.303391	-3.727800	0.171593	0.149832	0.127634	-0.084241	0.982192	-0.032558
917	4.639692	0.005000	9.261759	0.237679	-3.612319	0.170142	0.149943	0.125890	-0.085724	0.944206	-0.013907
918	4.644692	0.005000	9.337849	0.275951	-3.650591	0.168692	0.150055	0.124146	-0.073817	0.941928	-0.045660
919	4.649692	0.005000	9.217712	0.338407	-3.542665	0.167242	0.150166	0.122402	-0.061830	0.931363	-0.046175
920	4.654692	0.005000	9.293390	0.385910	-3.498850	0.165792	0.150278	0.120657	-0.068203	0.939407	-0.050737
921	4.659692	0.005000	9.278369	0.305055	-3.453120	0.164341	0.150389	0.118913	-0.057689	0.949727	-0.056656
922	4.664692	0.005000	9.299880	0.302665	-3.531600	0.162891	0.150501	0.117169	-0.042001	0.971765	-0.054369
923	4.669692	0.005000	9.325490	0.235440	-3.389918	0.161441	0.150612	0.115425	-0.028771	1.008727	-0.063873
924	4.674692	0.005000	9.362153	0.320746	-3.266301	0.159990	0.150724	0.113681	-0.030234	1.028753	-0.072785
925	4.679692	0.005000	9.316492	0.390394	-3.197057	0.158897	0.150210	0.111937	-0.036642	1.055994	-0.068163
926	4.684692	0.005000	9.335883	0.359634	-3.027954	0.157893	0.149541	0.110193	-0.020740	1.044922	-0.072168
927	4.689692	0.005000	9.362749	0.164977	-2.825280	0.156889	0.148872	0.108449	-0.003439	1.028632	-0.072137
928	4.694692	0.005000	9.417600	0.104484	-2.641847	0.155885	0.148202	0.106705	0.005496	1.013946	-0.088336
929	4.699692	0.005000	9.527622	0.028726	-2.547784	0.154882	0.147533	0.104961	0.001429	0.969467	-0.088400
930	4.704692	0.005000	9.597602	0.000000	-2.322004	0.153878	0.146864	0.103217	-0.002443	0.942619	-0.095909
931	4.709692	0.005000	9.658733	0.000000	-2.197440	0.152874	0.146194	0.101473	-0.005335	0.896891	-0.104004
932	4.714692	0.005000	9.731520	0.003237	-2.148488	0.151870	0.145525	0.099729	0.003055	0.881474	-0.103847
933	4.719692	0.005000	9.846653	0.120307	-2.039618	0.150866	0.144856	0.097985	0.001619	0.862739	-0.112376
934	4.724692	0.005000	9.731520	0.160022	-2.001240	0.149862	0.144186	0.096241	0.009999	0.843623	-0.106041
935	4.729692	0.005000	9.727572	0.227543	-1.962000	0.148858	0.143517	0.094497	0.023011	0.853666	-0.126661
936	4.734692	0.005000	9.627293	0.131213	-1.981000	0.147854	0.142847	0.092753	0.035444	0.861603	-0.126510
937	4.739692	0.005000	9.565438	0.187078	-2.019483	0.146850	0.142178	0.091009	0.046419	0.893162	-0.122570
938	4.744692	0.005000	9.479864	0.353160	-2.179121	0.145611	0.141885	0.088845	0.057395	0.904408	-0.130657
939	4.749692	0.005000	9.367229	0.313920	-2.275920	0.144050	0.142108	0.086106	0.065381	0.939804	-0.119164
940	4.754692	0.005000	9.237867	0.336693	-2.213907	0.142489	0.142331	0.083366	0.079526	0.980208	-0.122898
941	4.759692	0.005000	9.063442	0.392400	-2.198438	0.140927	0.142554	0.080627	0.103305	1.024490	-0.116030
942	4.764692	0.005000	8.911232	0.435392	-2.158200	0.139366	0.142777	0.077887	0.105306	1.067825	-0.119899
943	4.769692	0.005000	8.446841	0.486234	-2.284452	0.137805	0.143000	0.075148	0.121357	1.088299	-0.123270
944	4.774692	0.005000	8.032794	0.627840	-2.134132	0.136244	0.143223	0.072409	0.119963	1.121751	-0.111023
945	4.779692	0.005000	7.918001	0.390625	-1.893774	0.134683	0.143446	0.069669	0.159763	1.151253	-0.091604
946	4.784692	0.005000	7.957881	0.345321	-1.860004	0.133122	0.143669	0.066930	0.145751	1.167365	-0.081322
947	4.789692	0.005000	7.798020	0.196200	-1.715820	0.131560	0.143892	0.064190	0.140027	1.187998	-0.070512
948	4.794692	0.005000	7.721340	0.084440	-1.551720	0.129999	0.144115	0.061451	0.172503	1.206197	-0.044934
949	4.799692	0.005000	7.653010	0.356185	-1.374005	0.128438	0.144338	0.058712	0.143637	1.229407	-0.036163
950	4.804692	0.005000	7.730280	0.624228	-1.412640	0.126877	0.144561	0.055972	0.165708	1.265834	-0.020108
951	4.809692	0.005000	7.812970	0.658659	-1.259890	0.125336	0.144800	0.053233	0.194978	1.277395	0.008328
952	4.814692	0.005000	7.743533	0.732307	-1.216440	0.124332	0.145470	0.050492	0.205249	1.295435	0.021179
953	4.819692	0.005000	8.006670	0.844515	-1.225822	0.123328	0.146139	0.047752	0.226284	1.302348	0.030492
954	4.824692	0.005000	8.189391	0.824040	-1.177200	0.122324	0.146808	0.045011	0.214409	1.294196	0.051928
955	4.829692	0.005000	8.430216	0.916664	-1.163056	0.121320	0.147478	0.042270	0.231017	1.275505	0.066502
956	4.834692	0.005000	8.711280	0.873642	-1.171028	0.120316	0.148147	0.039530	0.235366	1.262884	0.080341
957	4.839692	0.005000	8.770622	0.959933	-1.020240	0.119312	0.148816	0.036789	0.247789	1.232555	0.070943
958	4.844692	0.005000	8.956698	0.845588	-1.077172	0.118308	0.149486	0.034049	0.251472	1.190543	0.075529
959	4.849692	0.005000	9.127640	0.769520	-1.168519	0.117304	0.150155	0.031308	0.251125	1.143169	0.089007
960	4.854692	0.005000	9.169289	0.758431	-1.242809	0.116300	0.150824	0.028568	0.249311	1.091640	0.093394
961	4.859692	0.005000	9.252396	0.776556	-1.226772	0.115296	0.151494	0.025827	0.248681	1.042227	0.094152
962	4.864692	0.005000	9.370403	0.839409	-1.286963	0.114292	0.152163	0.023086	0.247897	1.001225	0.103530
963	4.869692	0.005000	9.333553	0.745560	-1.222007	0.113288	0.152832	0.020346	0.251908	0.979428	0.114948
964	4.874692	0.005000	9.381116	0.667080	-1.258436	0.112284	0.153502	0.017605	0.251305	0.963598	0.108570
965	4.879692	0.005000	9.456136	0.667432	-1.215736	0.111500	0.153731	0.014947	0.255404	0.935297	0.106158
966	4.884692	0.005000	9.415558	0.631924	-1.212356	0.110830	0.153731	0.012331	0.252884	0.930715	0.110247
967	4.889692	0.005000	9.526486	0.518954	-1.142377	0.110161	0.153731	0.009715	0.241220	0.938122	0.116935
968	4.894692	0.005000	9.606993	0.496506	-1.079902	0.109492	0.153731	0.007098	0.250762	0.943606	0.115142
969	4.899692	0.005000	9.643747	0.410987	-1.050187	0.108822	0.153731	0.004482	0.254540	0.965583	0.119080
970	4.904692	0.005000	9.621391	0.368985	-0.953468	0.108153	0.153731	0.001866	0.265028	0.985050	0.115274
971	4.909692	0.005000	9.653040	0.481288	-0.763985	0.107484	0.153731	-0.000750	0.262701	1.016012	0.102087
972	4.914692	0.005000	9.737178	0.611049	-0.487671	0.106814	0.153731	-0.003366	0.285058	1.004962	0.087465
973	4.919692	0.005000	9.791741	0.489139	-0.332179	0.106145	0.153731	-0.005982	0.292793	1.008834	0.099897
974	4.924692	0.005000	9.806127	0.400145	-0.182389	0.105476	0.153731	-0.008598	0.300724	0.985238	0.095340
975	4.929692	0.005000	9.849240	0.189514	-0.102411	0.104806	0.153731	-0.011214	0.307265	0.953245	0.092110
976	4.934692	0.005000	9.836629	0.156960	0.064461	0.104137	0.153731	-0.013830	0.302629	0.920173	0.075531
977	4.939692	0.005000	9.789851	0.098629	0.118779	0.103468	0.153731	-0.016446	0.311380	0.861394	0.060343
978	4.944692	0.005000	9.864640	0.149260	0.258539	0.102456	0.153544	-0.018055	0.295862	0.797616	0.053354
979	4.949692	0.005000	9.938339	0.146341	0.358470	0.100560	0.152875	-0.017059	0.312773	0.720575	0.040198
980	4.954692	0.005000	10.035458	0.159456	0.468384	0.098663	0.152206	-0.016062	0.312118	0.661271	0.040100
981	4.959692	0.005000	9.810092	0.235348	0.392216	0.096767	0.151536	-0.015065	0.316734	0.590973	0.025313
982	4.964692	0.005000	9.849240	0.233141	0.313920	0.094870	0.150867	-0.014069	0.324515	0.521839	0.009538
983	4.969692	0.005000	9.923046	0.196200	0.127069	0.092974	0.150198	-0.013072	0.322537	0.471363	0.005607
984	4.974692	0.005000	9.920573	0.196200	0.014294	0.091077	0.149528	-0.012076	0.330664	0.399745	-0.003699
985	4.979692	0.005000	9.849240	0.166514	-0.137853	0.089181	0.148859	-0.011079	0.325713	0.353765	0.000132
986	4.984692	0.005000	9.861208	0.023936	-0.196200	0.087284	0.148190	-0.010083	0.340102	0.310547	-0.016007
987	4.989692	0.005000	10.001420	0.049133	-0.230660	0.085388	0.147520	-0.009086	0.328903	0.262375	-0.021073
988	4.994692	0.005000	10.067632	0.095528	-0.291728	0.083491	0.146851	-0.008090	0.327599	0.237201	-0.033142
989	4.999692	0.005000	10.123920	0.058678	-0.235440	0.081595	0.146182	-0.007093	0.341298	0.198866	-0.040752
990	5.004692	0.005000	10.141347	0.191813	-0.309533	0.079699	0.145512	-0.006096	0.325270	0.172696	-0.058387
991	5.009692	0.005000	10.192667	0.210953	-0.250193	0.077802	0.144843	-0.005100	0.330086	0.131523	-0.085764
992	5.014692	0.005000	10.202400	0.414912	-0.208550	0.077612	0.144475	-0.004888	0.328882	0.085257	-0.093940
993	5.019692	0.005000	10.123920	0.637658	-0.274680	0.077612	0.144140	-0.004763	0.315336	0.041552	-0.108176
994	5.024692	0.005000	10.123920	0.644752	-0.360603	0.077612	0.143806	-0.004639	0.312935	-0.029412	-0.112550
995	5.029692	0.005000	10.113815	0.578495	-0.629020	0.077612	0.143471	-0.004514	0.281497	-0.091107	-0.128500
996	5.034692	0.005000	9.998167	0.462847	-1.036305	0.077612	0.143136	-0.004389	0.268420	-0.183920	-0.131388
997	5.039692	0.005000	9.888480	0.235939	-1.568269	0.077612	0.142802	-0.004265	0.201917	-0.250325	-0.137503
998	5.044692	0.005000	9.778429	0.237996	-2.255468	0.077612	0.142467	-0.004140	0.159759	-0.327959	-0.152110
999	5.049692	0.005000	9.633526	0.161891	-2.800623	0.077612	0.142132	-0.004016	0.102730	-0.383073	-0.146906
1000	5.054692	0.005000	9.613800	0.164282	-3.480349	0.077612	0.141798	-0.003891	0.056106	-0.415160	-0.139583
1001	5.059692	0.005000	9.486281	0.156960	-4.090743	0.077612	0.141463	-0.003766	0.010157	-0.415740	-0.122656
1002	5.064692	0.005000	9.324336	0.105492	-4.689455	0.077612	0.141129	-0.003642	-0.057415	-0.375306	-0.105374
1003	5.069692	0.005000	9.172193	0.132357	-5.106497	0.077612	0.140794	-0.003517	-0.104418	-0.300716	-0.099634
1004	5.074692	0.005000	9.037877	0.174266	-5.429007	0.077612	0.140459	-0.003393	-0.154815	-0.190886	-0.066824
1005	5.079692	0.005000	9.025049	0.156809	-5.493903	0.077728	0.140706	-0.004177	-0.206760	-0.037433	-0.035518
1006	5.084692	0.005000	8.985960	0.240875	-5.280498	0.077951	0.141487	-0.005796	-0.229906	0.140265	-0.009859
1007	5.089692	0.005000	8.996214	0.220947	-5.117468	0.078174	0.142268	-0.007416	-0.267393	0.338913	0.013635
1008	5.094692	0.005000	8.946720	0.341080	-4.675562	0.078398	0.143048	-0.009035	-0.277973	0.525834	0.029130
1009	5.099692	0.005000	9.103680	0.235440	-4.062717	0.078621	0.143829	-0.010655	-0.289412	0.721964	0.051371
1010	5.104692	0.005000	9.150090	0.189030	-3.452727	0.078844	0.144610	-0.012274	-0.304604	0.897434	0.067471
1011	5.109692	0.005000	9.157306	0.230645	-2.581127	0.079067	0.145391	-0.013894	-0.303335	1.051353	0.091157
1012	5.114692	0.005000	9.341095	0.153010	-1.855870	0.079290	0.146172	-0.015513	-0.308715	1.186633	0.098522
1013	5.119692	0.005000	9.417176	0.000847	-0.907179	0.079513	0.146953	-0.017133	-0.296586	1.289653	0.107288
1014	5.124692	0.005000	9.493266	0.078480	-0.297189	0.079736	0.147733	-0.018752	-0.297197	1.362178	0.112081
1015	5.129692	0.005000	9.579811	0.101966	0.277160	0.079959	0.148514	-0.020372	-0.292801	1.377704	0.112916
1016	5.134692	0.005000	9.645373	0.093815	0.982806	0.080182	0.149295	-0.021991	-0.292476	1.385828	0.116081
1017	5.139692	0.005000	9.662058	0.039240	1.381361	0.080406	0.150076	-0.023610	-0.275315	1.360330	0.109466
1018	5.144692	0.005000	9.692280	0.039240	1.821079	0.080613	0.150778	-0.025442	-0.268371	1.287988	0.093909
1019	5.149692	0.005000	9.604935	0.117720	2.167065	0.080724	0.151001	-0.028557	-0.265575	1.206561	0.089977
1020	5.154692	0.005000	9.596237	0.078480	2.362629	0.080836	0.151224	-0.031671	-0.240622	1.103236	0.081346
1021	5.159692	0.005000	9.633087	0.156960	2.471454	0.080948	0.151447	-0.034785	-0.228631	1.003947	0.072084
1022	5.164692	0.005000	9.625711	0.084436	2.573198	0.081059	0.151670	-0.037900	-0.214123	0.882653	0.054438
1023	5.169692	0.005000	9.563786	0.160419	2.618306	0.081171	0.151893	-0.041014	-0.201057	0.759447	0.046900
1024	5.174692	0.005000	9.625619	0.223621	2.774221	0.081282	0.152116	-0.044129	-0.179373	0.645977	0.037480
1025	5.179692	0.005000	9.623103	0.214806	2.804646	0.081394	0.152339	-0.047243	-0.149785	0.525399	0.026370
1026	5.184692	0.005000	9.613800	0.274680	2.818367	0.081506	0.152563	-0.050357	-0.145533	0.414830	0.020060
1027	5.189692	0.005000	9.717906	0.322996	2.947538	0.081617	0.152786	-0.053472	-0.120881	0.299648	-0.005112
1028	5.194692	0.005000	9.653040	0.466584	2.901612	0.081729	0.153009	-0.056586	-0.093175	0.194203	0.000245
1029	5.199692	0.005000	9.575952	0.430944	2.864520	0.081840	0.153232	-0.059701	-0.072747	0.098963	-0.018929
1030	5.204692	0.005000	9.610729	0.359302	2.900689	0.081952	0.153455	-0.062815	-0.043625	-0.005717	-0.028369
1031	5.209692	0.005000	9.512417	0.538468	2.707560	0.082064	0.153678	-0.065930	-0.030394	-0.089924	-0.030298
1032	5.214692	0.005000	9.401868	0.415908	2.589840	0.082601	0.153901	-0.066002	-0.004333	-0.172731	-0.047286
1033	5.219692	0.005000	9.320549	0.303586	2.395737	0.083270	0.154124	-0.065130	0.014310	-0.260220	-0.053735
1034	5.224692	0.005000	9.339120	0.353160	2.157205	0.083939	0.154347	-0.064258	0.038295	-0.337517	-0.050970
1035	5.229692	0.005000	9.315325	0.242535	1.803784	0.084608	0.154570	-0.063387	0.040956	-0.388689	-0.042789
1036	5.234692	0.005000	9.260640	0.256860	1.430460	0.085277	0.154793	-0.062515	0.043073	-0.430500	-0.057019
1037	5.239692	0.005000	9.240430	0.255650	1.161710	0.085946	0.155016	-0.061644	0.065508	-0.462529	-0.040786
1038	5.244692	0.005000	9.243985	0.218785	0.841830	0.086615	0.155239	-0.060772	0.072223	-0.475250	-0.034839
1039	5.249692	0.005000	9.299880	0.131985	0.531540	0.087284	0.155462	-0.059900	0.068348	-0.473166	-0.031214
1040	5.254692	0.005000	9.299880	0.196200	0.200762	0.087953	0.155685	-0.059029	0.066211	-0.454177	-0.026081
1041	5.259692	0.005000	9.369314	0.232384	-0.075424	0.088622	0.155908	-0.058157	0.066831	-0.432047	-0.025843
1042	5.264692	0.005000	9.273952	0.326536	-0.314616	0.089291	0.156131	-0.057285	0.060795	-0.388920	-0.004890
1043	5.269692	0.005000	9.304161	0.204762	-0.553641	0.089960	0.156354	-0.056414	0.063194	-0.335206	-0.007055
1044	5.274692	0.005000	9.298426	0.316828	-0.591508	0.090629	0.156577	-0.055542	0.049125	-0.293457	-0.003218
1045	5.279692	0.005000	9.375501	0.315826	-0.781941	0.091003	0.156547	-0.055094	0.040766	-0.240581	0.008934
1046	5.284692	0.005000	9.456840	0.389072	-0.967688	0.090891	0.156101	-0.055343	0.039834	-0.181440	0.006148
1047	5.289692	0.005000	9.451055	0.274680	-0.925660	0.090780	0.155655	-0.055592	0.030022	-0.137331	0.017703
1048	5.294692	0.005000	9.705834	0.336036	-1.011678	0.090668	0.155209	-0.055842	0.005485	-0.084501	0.017068
1049	5.299692	0.005000	9.507017	0.268251	-1.087783	0.090556	0.154762	-0.056091	-0.001679	-0.051704	0.020711
1050	5.304692	0.005000	9.508666	0.209527	-0.994327	0.090445	0.154316	-0.056340	-0.012776	-0.003163	0.026524
1051	5.309692	0.005000	9.574560	0.290382	-1.020240	0.090333	0.153870	-0.056589	-0.019768	0.027393	0.023314
1052	5.314692	0.005000	9.634963	0.292757	-0.878271	0.090222	0.153424	-0.056838	-0.029573	0.056931	0.036346
1053	5.319692	0.005000	9.692280	0.332453	-0.789146	0.090110	0.152977	-0.057087	-0.034701	0.108075	0.038606
1054	5.324692	0.005000	9.747642	0.360157	-0.595597	0.089998	0.152531	-0.057336	-0.045097	0.132686	0.048922
1055	5.329692	0.005000	9.719388	0.366714	-0.247572	0.089887	0.152085	-0.057585	-0.050329	0.173624	0.054435
1056	5.334692	0.005000	9.810000	0.448552	-0.050404	0.089775	0.151639	-0.057835	-0.045013	0.201738	0.052865
1057	5.339692	0.005000	9.840451	0.274680	-0.060902	0.089664	0.151193	-0.058084	-0.049086	0.230320	0.048852
1058	5.344692	0.005000	9.783558	0.307521	0.136916	0.089552	0.150746	-0.058333	-0.041069	0.249406	0.051446
1059	5.349692	0.005000	9.881284	0.345964	0.403194	0.089552	0.151192	-0.057960	-0.039589	0.256818	0.052283
1060	5.354692	0.005000	9.889674	0.239021	0.630227	0.089552	0.151638	-0.057586	-0.040623	0.268798	0.041789
1061	5.359692	0.005000	9.965750	0.315130	0.744350	0.089552	0.152084	-0.057212	-0.042928	0.259549	0.054362
1062	5.364692	0.005000	9.895737	0.388771	0.816783	0.089552	0.152531	-0.056838	-0.028234	0.249978	0.052268
1063	5.369692	0.005000	10.000155	0.338101	0.981000	0.089552	0.152977	-0.056465	-0.015114	0.234821	0.046711
1064	5.374692	0.005000	9.975411	0.322371	1.098720	0.089552	0.153423	-0.056091	-0.005120	0.210868	0.047717
1065	5.379692	0.005000	9.955766	0.302726	1.233292	0.089552	0.153869	-0.055717	-0.001023	0.183336	0.032085
1066	5.384692	0.005000	9.941304	0.313920	1.359816	0.089552	0.154315	-0.055344	0.014107	0.129313	0.031818
1067	5.389692	0.005000	9.904439	0.306598	1.514401	0.089552	0.154762	-0.054970	0.021991	0.093057	0.027043
1068	5.394692	0.005000	9.948611	0.214549	1.488579	0.089552	0.155208	-0.054596	0.029177	0.040844	0.028226
1069	5.399692	0.005000	9.927720	0.138695	1.376110	0.089552	0.155654	-0.054222	0.038502	-0.013977	0.027237
1070	5.404692	0.005000	9.888480	0.196200	1.232301	0.089552	0.156100	-0.053849	0.039038	-0.074382	0.014029
1071	5.409692	0.005000	9.862537	0.143663	1.177850	0.089552	0.156547	-0.053475	0.050740	-0.130925	0.011004
1072	5.414692	0.005000	9.781667	0.196200	1.127053	0.089760	0.156785	-0.053488	0.047720	-0.166335	0.002994
1073	5.419692	0.005000	9.871416	0.261035	1.090188	0.090095	0.156897	-0.053737	0.068782	-0.208186	0.002917
1074	5.424692	0.005000	9.797717	0.313920	1.047197	0.090429	0.157009	-0.053986	0.063141	-0.222781	-0.006109
1075	5.429692	0.005000	9.770760	0.281355	0.784800	0.090764	0.157120	-0.054236	0.073250	-0.250063	-0.016753
1076	5.434692	0.005000	9.692280	0.236363	0.624149	0.091099	0.157232	-0.054485	0.086739	-0.262020	-0.002955
1077	5.439692	0.005000	9.654525	0.387946	0.319858	0.091434	0.157343	-0.054734	0.083344	-0.259329	-0.008844
1078	5.444692	0.005000	9.617689	0.306142	0.235440	0.091769	0.157455	-0.054983	0.097944	-0.266841	-0.012507
1079	5.449692	0.005000	9.653040	0.346855	0.012611	0.092104	0.157567	-0.055233	0.098044	-0.249454	-0.012375
1080	5.454692	0.005000	9.692280	0.304844	0.009076	0.092439	0.157678	-0.055482	0.093018	-0.232458	-0.001695
1081	5.459692	0.005000	9.703731	0.302469	-0.228875	0.092773	0.157790	-0.055731	0.087179	-0.202799	-0.002402
1082	5.464692	0.005000	9.706121	0.325477	-0.429356	0.093108	0.157902	-0.055981	0.085159	-0.183316	0.003951
1083	5.469692	0.005000	9.754347	0.346745	-0.549360	0.093443	0.158013	-0.056230	0.087198	-0.164700	0.008940
1084	5.474692	0.005000	9.733112	0.293504	-0.728327	0.093778	0.158125	-0.056479	0.075354	-0.131900	-0.005241
1085	5.479692	0.005000	9.870690	0.256890	-0.627840	0.093975	0.158237	-0.056729	0.078304	-0.121270	-0.003200
1086	5.484692	0.005000	9.833825	0.235440	-0.667080	0.093752	0.158348	-0.056978	0.063590	-0.093480	0.010446
1087	5.489692	0.005000	9.823025	0.274680	-0.667080	0.093529	0.158460	-0.057227	0.057752	-0.080180	-0.001328
1088	5.494692	0.005000	9.888480	0.206504	-0.724952	0.093305	0.158571	-0.057476	0.048192	-0.063814	0.001657
1089	5.499692	0.005000	9.896377	0.337366	-0.596497	0.093082	0.158683	-0.057725	0.034695	-0.042865	0.003730
1090	5.504692	0.005000	9.888480	0.235440	-0.616979	0.092859	0.158794	-0.057974	0.027086	-0.024558	0.007707
1091	5.509692	0.005000	9.816081	0.316961	-0.464799	0.092636	0.158906	-0.058223	0.026258	0.003190	0.005197
1092	5.514692	0.005000	9.886483	0.392400	-0.392400	0.092413	0.159017	-0.058473	0.015359	0.008814	0.000567
1093	5.519692	0.005000	9.808255	0.392400	-0.317409	0.092190	0.159129	-0.058722	0.015727	0.016295	0.011097
1094	5.524692	0.005000	9.888480	0.505552	-0.240008	0.091967	0.159240	-0.058971	0.016339	0.024384	-0.007714
1095	5.529692	0.005000	9.763817	0.431640	0.018410	0.091744	0.159352	-0.059220	0.009536	0.017888	0.004983
1096	5.534692	0.005000	9.800667	0.371827	0.069147	0.091521	0.159463	-0.059469	0.010043	0.010812	0.005547
1097	5.539692	0.005000	9.770760	0.313920	0.172500	0.091297	0.159575	-0.059718	0.013994	0.000585	-0.005635
1098	5.544692	0.005000	9.742233	0.260416	0.210464	0.091074	0.159686	-0.059967	0.007181	-0.015717	0.004632
1099	5.549692	0.005000	9.731520	0.274680	0.313920	0.091239	0.159604	-0.059784	0.027833	-0.024751	0.001973
1100	5.554692	0.005000	9.652435	0.353160	0.236045	0.091462	0.159493	-0.059535	0.012732	-0.027586	0.002331
1101	5.559692	0.005000	9.539495	0.374868	0.174492	0.091685	0.159381	-0.059286	0.006982	-0.041732	-0.004030
1102	5.564692	0.005000	9.580792	0.440565	0.141803	0.091908	0.159270	-0.059037	0.017977	-0.045891	0.011700
1103	5.569692	0.005000	9.547778	0.313920	0.156960	0.092131	0.159158	-0.058788	0.012251	-0.052096	0.022514
1104	5.574692	0.005000	9.466763	0.323843	0.166883	0.092354	0.159047	-0.058539	0.018783	-0.051694	0.016928
1105	5.579692	0.005000	9.628897	0.368257	0.196200	0.092577	0.158935	-0.058290	0.024116	-0.045404	0.019919
1106	5.584692	0.005000	9.624117	0.358318	0.191042	0.092800	0.158824	-0.058041	0.028925	-0.039069	0.018499
1107	5.589692	0.005000	9.766075	0.318605	0.120062	0.093023	0.158712	-0.057792	0.027518	-0.044623	0.020711
1108	5.594692	0.005000	9.613921	0.353221	0.156960	0.093246	0.158601	-0.057543	0.023239	-0.035045	0.013628
1109	5.599692	0.005000	9.729069	0.311469	0.117720	0.093469	0.158489	-0.057294	0.033686	-0.050557	0.021343
