# FOX Logger (IMU file)
# (c) INRIA 2011-2014
# File created from file sensbiotk output
#
# File format:
# id	t	dt	ax	ay	az	mx	my	mz	gx	gy	gz
#
# Units:
#	Time: s
#	Acceleration: m.s^-2
#	Magneto: gauss
#	Gyrometer: rad/s
#
1	0.038727	0.038727	9.172932	-2.555214	1.652694	0.535821	-0.002985	-0.290000	0.002138	-0.001222	0.011912
2	0.043727	0.005000	9.103680	-2.545226	1.728351	0.536156	-0.002985	-0.289626	-0.004188	-0.011132	0.014003
3	0.048727	0.005000	9.180950	-2.471515	1.765800	0.536490	-0.002985	-0.289253	0.007873	-0.004186	0.015261
4	0.053727	0.005000	9.263635	-2.475115	1.690315	0.536825	-0.002985	-0.288879	0.013483	-0.003904	0.006109
5	0.058727	0.005000	9.260640	-2.545230	1.721190	0.537160	-0.002985	-0.288505	0.007232	-0.007451	0.007655
6	0.063727	0.005000	9.213640	-2.519120	1.702841	0.537495	-0.002985	-0.288131	0.011597	-0.013673	0.002317
7	0.068727	0.005000	9.308714	-2.502526	1.648080	0.537829	-0.002985	-0.287758	0.004184	-0.013298	0.009261
8	0.073727	0.005000	9.247978	-2.472120	1.661997	0.538164	-0.002985	-0.287384	0.007313	-0.006448	0.004179
9	0.078727	0.005000	9.299880	-2.496285	1.633005	0.538499	-0.002985	-0.287010	0.005381	-0.005809	-0.001873
10	0.083727	0.005000	9.278124	-2.511360	1.630596	0.538833	-0.002985	-0.286636	0.001651	-0.006922	0.006385
11	0.088727	0.005000	9.221951	-2.510809	1.726009	0.539168	-0.002985	-0.286263	0.007121	-0.014728	0.007534
12	0.093727	0.005000	9.238333	-2.438254	1.748867	0.539503	-0.002985	-0.285889	0.005420	-0.007616	0.008884
13	0.098727	0.005000	9.231929	-2.472120	1.672964	0.539838	-0.002985	-0.285515	-0.001773	-0.003619	0.000396
14	0.103727	0.005000	9.170194	-2.511360	1.660046	0.540172	-0.002985	-0.285142	-0.000917	-0.011297	0.004272
15	0.108727	0.005000	9.260640	-2.500892	1.716969	0.540091	-0.003193	-0.285000	-0.016407	-0.012314	0.001543
16	0.113727	0.005000	9.260640	-2.550600	1.694521	0.539757	-0.003527	-0.285000	0.005361	-0.013672	0.008675
17	0.118727	0.005000	9.173341	-2.511360	1.691729	0.539422	-0.003862	-0.285000	0.009672	-0.004896	0.011982
18	0.123727	0.005000	9.180155	-2.587835	1.689325	0.539088	-0.004196	-0.285000	0.007843	-0.006414	0.005523
19	0.128727	0.005000	9.142920	-2.628263	1.687728	0.538753	-0.004531	-0.285000	0.008385	-0.009560	0.013198
20	0.133727	0.005000	9.294313	-2.516927	1.653647	0.538418	-0.004866	-0.285000	0.004828	-0.003463	0.011458
21	0.138727	0.005000	9.226574	-2.511360	1.682146	0.538084	-0.005200	-0.285000	0.011793	-0.013618	0.006965
22	0.143727	0.005000	9.174612	-2.487217	1.687320	0.537749	-0.005535	-0.285000	0.002503	-0.006154	0.006249
23	0.148727	0.005000	9.182160	-2.521299	1.697259	0.537415	-0.005869	-0.285000	0.007461	-0.000942	0.002723
24	0.153727	0.005000	9.196475	-2.472120	1.714098	0.537080	-0.006204	-0.285000	0.009332	-0.003220	0.003112
25	0.158727	0.005000	9.211892	-2.418014	1.702186	0.536746	-0.006538	-0.285000	-0.002330	0.000263	0.005276
26	0.163727	0.005000	9.103680	-2.511360	1.626118	0.536411	-0.006873	-0.285000	0.001643	-0.006906	0.000443
27	0.168727	0.005000	9.260502	-2.570151	1.726698	0.536077	-0.007207	-0.285000	0.005452	-0.003652	0.007267
28	0.173727	0.005000	9.282739	-2.572699	1.643121	0.535847	-0.007331	-0.285000	0.003702	-0.012292	0.009534
29	0.178727	0.005000	9.245912	-2.565328	1.741288	0.535959	-0.006773	-0.285000	0.002828	-0.005550	0.013282
30	0.183727	0.005000	9.248463	-2.614195	1.765800	0.536070	-0.006216	-0.285000	0.003399	-0.002575	0.008926
31	0.188727	0.005000	9.231278	-2.570175	1.638293	0.536182	-0.005658	-0.285000	0.015435	-0.006782	0.008526
32	0.193727	0.005000	9.103680	-2.675732	1.655492	0.536293	-0.005100	-0.285000	0.012672	-0.007915	0.008544
33	0.198727	0.005000	9.221400	-2.629080	1.692342	0.536405	-0.004542	-0.285000	0.006904	-0.012447	0.016564
34	0.203727	0.005000	9.265935	-2.558542	1.687320	0.536516	-0.003984	-0.285000	0.009970	-0.004015	0.013483
35	0.208727	0.005000	9.221990	-2.512147	1.726363	0.536628	-0.003427	-0.285000	0.010608	-0.007184	0.001864
36	0.213727	0.005000	9.179573	-2.587253	1.765800	0.536739	-0.002869	-0.285000	0.009819	-0.005982	0.011779
37	0.218727	0.005000	9.216438	-2.545638	1.731522	0.536851	-0.002311	-0.285000	0.005831	-0.006517	-0.001353
38	0.223727	0.005000	9.125735	-2.597192	1.726560	0.536963	-0.001753	-0.285000	0.011406	-0.009858	-0.001392
39	0.228727	0.005000	9.201711	-2.599684	1.765800	0.537074	-0.001195	-0.285000	0.008850	-0.011027	0.004707
40	0.233727	0.005000	9.209141	-2.562859	1.699579	0.537186	-0.000637	-0.285000	0.012386	-0.008158	0.001094
41	0.238727	0.005000	9.309786	-2.589840	1.628269	0.537297	-0.000080	-0.285000	0.005175	-0.010344	0.006301
42	0.243727	0.005000	9.216319	-2.589840	1.714561	0.536740	0.000382	-0.285640	0.006932	-0.006827	0.004083
43	0.248727	0.005000	9.143132	-2.550812	1.687532	0.536070	0.000828	-0.286388	-0.003764	-0.012993	0.007561
44	0.253727	0.005000	9.228616	-2.567739	1.755877	0.535401	0.001274	-0.287135	-0.000204	-0.019240	0.001146
45	0.258727	0.005000	9.285116	-2.565364	1.814752	0.534732	0.001720	-0.287882	-0.002459	-0.017330	-0.005547
46	0.263727	0.005000	9.287506	-2.538226	1.778174	0.534063	0.002166	-0.288629	-0.003365	-0.012133	0.007797
47	0.268727	0.005000	9.289881	-2.472120	1.716561	0.533394	0.002612	-0.289376	0.000212	-0.007755	0.004781
48	0.273727	0.005000	9.267879	-2.447358	1.623318	0.532725	0.003058	-0.290123	0.000727	-0.013795	0.003410
49	0.278727	0.005000	9.290235	-2.580195	1.696965	0.532056	0.003504	-0.290870	0.000798	-0.006720	-0.005515
50	0.283727	0.005000	9.223818	-2.548182	1.648080	0.531387	0.003951	-0.291617	0.012583	-0.013132	0.005617
51	0.288727	0.005000	9.260640	-2.511360	1.687320	0.530718	0.004397	-0.292364	0.005385	-0.004101	0.007721
52	0.293727	0.005000	9.145295	-2.550600	1.650455	0.530049	0.004843	-0.293111	0.012957	-0.005385	0.009999
53	0.298727	0.005000	9.265461	-2.619438	1.726560	0.529380	0.005289	-0.293859	0.009899	-0.005508	0.018215
54	0.303727	0.005000	9.214174	-2.504134	1.640854	0.528711	0.005735	-0.294606	0.015601	-0.005174	-0.004195
55	0.308727	0.005000	9.250998	-2.521002	1.657722	0.528674	0.005759	-0.294589	0.026157	-0.016104	0.011356
56	0.313727	0.005000	9.194209	-2.629080	1.768893	0.529342	0.005314	-0.293717	0.013901	-0.010086	0.005266
57	0.318727	0.005000	9.216393	-2.589840	1.638338	0.530011	0.004868	-0.292846	0.012947	-0.005891	0.002655
58	0.323727	0.005000	9.182160	-2.562777	1.787901	0.530680	0.004422	-0.291975	0.001654	-0.005346	0.009977
59	0.328727	0.005000	9.123406	-2.609566	1.687320	0.531349	0.003976	-0.291104	0.008713	-0.011431	0.005491
60	0.333727	0.005000	9.182160	-2.629080	1.748464	0.532017	0.003530	-0.290232	0.008446	-0.013169	0.019043
61	0.338727	0.005000	9.157587	-2.604507	1.736466	0.532686	0.003085	-0.289361	-0.000616	-0.014646	0.010947
62	0.343727	0.005000	9.118403	-2.523619	1.699579	0.533355	0.002639	-0.288490	-0.004546	-0.017020	0.009522
63	0.348727	0.005000	9.152776	-2.491832	1.687320	0.534024	0.002193	-0.287619	-0.004708	-0.013768	0.009204
64	0.353727	0.005000	9.142920	-2.660879	1.743478	0.534692	0.001747	-0.286747	-0.012207	-0.012983	-0.004300
65	0.358727	0.005000	9.152990	-2.629080	1.706420	0.535361	0.001301	-0.285876	-0.011276	-0.009731	0.010477
66	0.363727	0.005000	9.223987	-2.545426	1.616600	0.536030	0.000856	-0.285005	-0.017736	-0.007941	-0.003593
67	0.368727	0.005000	9.181525	-2.511572	1.608840	0.536698	0.000410	-0.284134	-0.005803	-0.009674	0.007822
68	0.373727	0.005000	9.138512	-2.550600	1.645876	0.537250	-0.000108	-0.283182	0.007174	-0.007989	-0.002661
69	0.378727	0.005000	9.216792	-2.515968	1.648080	0.536469	-0.001447	-0.281313	-0.005622	-0.014498	-0.003086
70	0.383727	0.005000	9.168111	-2.518385	1.687320	0.535688	-0.002786	-0.279444	-0.009398	-0.006898	0.012504
71	0.388727	0.005000	9.299880	-2.521147	1.677533	0.534907	-0.004124	-0.277576	0.000648	-0.003008	0.000967
72	0.393727	0.005000	9.284965	-2.523522	1.660242	0.534126	-0.005463	-0.275707	-0.000159	-0.003184	0.007654
73	0.398727	0.005000	9.270775	-2.472120	1.658215	0.533345	-0.006802	-0.273839	0.006899	0.001477	0.003258
74	0.403727	0.005000	9.238327	-2.533673	1.760415	0.532565	-0.008141	-0.271970	0.010571	-0.000523	0.001547
75	0.408727	0.005000	9.220795	-2.492043	1.648080	0.531784	-0.009479	-0.270101	0.013711	0.003987	0.002410
76	0.413727	0.005000	9.221400	-2.533052	1.638822	0.531003	-0.010818	-0.268233	0.014178	-0.003451	0.005602
77	0.418727	0.005000	9.221400	-2.481045	1.632923	0.530222	-0.012157	-0.266364	0.018189	-0.008657	0.008584
78	0.423727	0.005000	9.195835	-2.445662	1.673645	0.529441	-0.013495	-0.264495	0.021515	-0.003647	-0.000494
79	0.428727	0.005000	9.242185	-2.461728	1.854672	0.528660	-0.014834	-0.262627	0.018554	-0.007900	0.004600
80	0.433727	0.005000	9.299880	-2.472120	1.765800	0.527879	-0.016173	-0.260758	0.008381	0.001072	0.000375
81	0.438727	0.005000	9.327835	-2.483405	1.760158	0.527099	-0.017511	-0.258889	0.007073	-0.006373	0.006384
82	0.443727	0.005000	9.254977	-2.472120	1.718066	0.526474	-0.017832	-0.258770	0.015179	0.005526	0.012587
83	0.448727	0.005000	9.104093	-2.471707	1.764560	0.525917	-0.017720	-0.259393	0.011717	-0.004237	0.010908
84	0.453727	0.005000	9.180193	-2.507427	1.648080	0.525359	-0.017609	-0.260015	0.009481	-0.017484	0.017212
85	0.458727	0.005000	9.247570	-2.550600	1.748373	0.524802	-0.017497	-0.260638	-0.001725	-0.002856	0.007405
86	0.463727	0.005000	9.221400	-2.439612	1.765800	0.524244	-0.017386	-0.261261	-0.004334	-0.001798	0.002317
87	0.468727	0.005000	9.299880	-2.520482	1.784043	0.523687	-0.017274	-0.261883	-0.002760	-0.007017	0.005399
88	0.473727	0.005000	9.205153	-2.550600	1.777297	0.523129	-0.017163	-0.262506	-0.000067	-0.000470	0.000313
89	0.478727	0.005000	9.156969	-2.536551	1.776941	0.522572	-0.017051	-0.263129	-0.002092	-0.011640	0.010607
90	0.483727	0.005000	9.182160	-2.488578	1.788582	0.522014	-0.016940	-0.263751	-0.004448	0.000828	0.005714
91	0.488727	0.005000	9.182160	-2.472120	1.726560	0.521456	-0.016829	-0.264374	-0.005449	-0.008242	0.007533
92	0.493727	0.005000	9.182160	-2.472120	1.705279	0.520899	-0.016717	-0.264997	-0.007146	0.002495	0.012079
93	0.498727	0.005000	9.134778	-2.535051	1.663629	0.520341	-0.016606	-0.265619	-0.001672	-0.004327	0.006772
94	0.503727	0.005000	9.273776	-2.511528	1.595704	0.519784	-0.016494	-0.266242	0.000383	-0.013218	0.012062
95	0.508727	0.005000	9.260640	-2.500756	1.648080	0.519686	-0.016206	-0.266904	0.001257	-0.008740	0.007530
96	0.513727	0.005000	9.229614	-2.606268	1.664508	0.520577	-0.015537	-0.267651	0.004973	-0.013080	0.018364
97	0.518727	0.005000	9.333281	-2.611563	1.726560	0.521469	-0.014868	-0.268397	0.002374	-0.002953	0.016768
98	0.523727	0.005000	9.189058	-2.586391	1.683871	0.522361	-0.014200	-0.269144	0.009262	-0.015005	0.011774
99	0.528727	0.005000	9.219252	-2.512434	1.649154	0.523252	-0.013531	-0.269891	0.003487	-0.018145	0.006965
100	0.533727	0.005000	9.218767	-2.550600	1.763167	0.524144	-0.012862	-0.270638	0.006398	-0.013115	0.002931
101	0.538727	0.005000	9.146654	-2.546866	1.687320	0.525036	-0.012194	-0.271384	-0.002331	-0.014147	0.014068
102	0.543727	0.005000	9.214865	-2.583305	1.720025	0.525927	-0.011525	-0.272131	0.002137	-0.014866	0.004630
103	0.548727	0.005000	9.221400	-2.598750	1.747980	0.526819	-0.010856	-0.272878	0.012343	-0.021013	0.003095
104	0.553727	0.005000	9.198800	-2.533960	1.816340	0.527710	-0.010187	-0.273625	0.005732	-0.010770	0.007364
105	0.558727	0.005000	9.221400	-2.576165	1.752125	0.528602	-0.009519	-0.274371	0.001317	-0.007752	0.013549
106	0.563727	0.005000	9.260640	-2.589840	1.726560	0.529494	-0.008850	-0.275118	0.011870	-0.012217	0.011488
107	0.568727	0.005000	9.242200	-2.566680	1.648080	0.530385	-0.008181	-0.275865	0.003994	-0.008139	0.001988
108	0.573727	0.005000	9.179740	-2.589840	1.629670	0.531277	-0.007512	-0.276612	0.018695	-0.016216	0.006052
109	0.578727	0.005000	9.127166	-2.605594	1.734583	0.531653	-0.007050	-0.277821	-0.006423	-0.012789	0.006448
110	0.583727	0.005000	9.168815	-2.550600	1.635531	0.531988	-0.006604	-0.279066	0.000353	-0.012126	0.009577
111	0.588727	0.005000	9.221400	-2.511360	1.800554	0.532322	-0.006157	-0.280312	-0.001173	-0.007666	0.008872
112	0.593727	0.005000	9.252116	-2.472120	1.695844	0.532657	-0.005711	-0.281558	-0.003276	-0.001575	0.000168
113	0.598727	0.005000	9.269701	-2.562672	1.786933	0.532992	-0.005265	-0.282803	0.007569	-0.009193	0.009611
114	0.603727	0.005000	9.182160	-2.589840	1.694642	0.533326	-0.004819	-0.284049	-0.000737	-0.002538	0.005719
115	0.608727	0.005000	9.218859	-2.627809	1.727831	0.533661	-0.004372	-0.285295	0.008756	-0.009632	0.004247
116	0.613727	0.005000	9.181042	-2.666085	1.803922	0.533996	-0.003926	-0.286540	0.005316	-0.011896	0.004258
117	0.618727	0.005000	9.182160	-2.632615	1.730095	0.534331	-0.003480	-0.287786	0.009451	-0.008569	0.005500
118	0.623727	0.005000	9.221400	-2.538719	1.687320	0.534665	-0.003034	-0.289032	0.008409	-0.007688	0.009139
119	0.628727	0.005000	9.308224	-2.620736	1.704008	0.535000	-0.002588	-0.290278	0.004795	0.001459	-0.003006
120	0.633727	0.005000	9.243576	-2.561688	1.754712	0.535335	-0.002141	-0.291523	0.011245	-0.007289	0.002360
121	0.638727	0.005000	9.142920	-2.486793	1.700798	0.535669	-0.001695	-0.292769	-0.005327	-0.010394	-0.007661
122	0.643727	0.005000	9.182160	-2.511360	1.726560	0.535882	-0.001432	-0.293197	-0.012996	-0.014768	-0.008396
123	0.648727	0.005000	9.142920	-2.508607	1.723807	0.535993	-0.001320	-0.292948	-0.000940	-0.009396	0.011818
124	0.653727	0.005000	9.260640	-2.513357	1.687320	0.536105	-0.001209	-0.292699	-0.001364	-0.011345	0.008378
125	0.658727	0.005000	9.260640	-2.504045	1.749838	0.536216	-0.001097	-0.292450	0.000045	-0.014517	0.013888
126	0.663727	0.005000	9.325570	-2.524910	1.740110	0.536328	-0.000986	-0.292201	0.001876	-0.007151	0.004402
127	0.668727	0.005000	9.210259	-2.489077	1.765800	0.536439	-0.000874	-0.291952	0.009988	-0.009935	0.002121
128	0.673727	0.005000	9.182160	-2.502269	1.717469	0.536551	-0.000763	-0.291703	0.004139	-0.005983	0.007109
129	0.678727	0.005000	9.221400	-2.556921	1.699961	0.536662	-0.000651	-0.291454	-0.005813	-0.015281	-0.001739
130	0.683727	0.005000	9.225304	-2.550600	1.761896	0.536774	-0.000540	-0.291205	-0.000306	-0.011270	0.002167
131	0.688727	0.005000	9.221400	-2.591340	1.690320	0.536885	-0.000428	-0.290956	0.002737	-0.009995	0.007432
132	0.693727	0.005000	9.374729	-2.552415	1.765800	0.536997	-0.000317	-0.290707	0.012540	-0.018421	0.004187
133	0.698727	0.005000	9.185443	-2.550600	1.615405	0.537108	-0.000205	-0.290458	0.005119	-0.006336	-0.006766
134	0.703727	0.005000	9.249295	-2.556273	1.603167	0.537220	-0.000093	-0.290209	0.012708	-0.003569	0.005217
135	0.708727	0.005000	9.229448	-2.550600	1.648080	0.537331	0.000018	-0.289899	0.002658	-0.010917	0.014550
136	0.713727	0.005000	9.231960	-2.482680	1.726560	0.537443	0.000130	-0.289276	0.008954	-0.008054	0.009774
137	0.718727	0.005000	9.260640	-2.472120	1.739523	0.537554	0.000241	-0.288653	0.009323	-0.005142	0.014508
138	0.723727	0.005000	9.221400	-2.441377	1.702691	0.537666	0.000353	-0.288030	0.007989	-0.009038	0.005848
139	0.728727	0.005000	9.256967	-2.529143	1.648080	0.537777	0.000464	-0.287408	0.009025	-0.010933	0.013499
140	0.733727	0.005000	9.163114	-2.550600	1.589794	0.537889	0.000576	-0.286785	0.003960	-0.014633	0.012167
141	0.738727	0.005000	9.221400	-2.573204	1.625476	0.538001	0.000688	-0.286162	0.006965	-0.009950	0.004965
142	0.743727	0.005000	9.221400	-2.475549	1.648080	0.538112	0.000799	-0.285539	0.010632	-0.018395	0.022833
143	0.748727	0.005000	9.233078	-2.472120	1.632196	0.538224	0.000911	-0.284916	0.001010	-0.000364	0.007065
144	0.753727	0.005000	9.163584	-2.481408	1.726560	0.538335	0.001022	-0.284293	0.006665	-0.013610	0.005858
145	0.758727	0.005000	9.195986	-2.511360	1.615753	0.538447	0.001134	-0.283671	0.004112	0.001131	-0.006792
146	0.763727	0.005000	9.221400	-2.589840	1.613363	0.538559	0.001246	-0.283048	0.004661	-0.008322	0.007179
147	0.768727	0.005000	9.219252	-2.666172	1.573896	0.538670	0.001357	-0.282425	0.004208	-0.011363	0.010622
148	0.773727	0.005000	9.143165	-2.590085	1.570090	0.538782	0.001469	-0.281802	0.005126	-0.001946	0.004703
149	0.778727	0.005000	9.146006	-2.550600	1.714216	0.538806	0.001231	-0.282252	0.021710	-0.009442	0.009482
150	0.783727	0.005000	9.288958	-2.550600	1.659002	0.538806	0.000896	-0.283000	0.007094	-0.000717	-0.001314
151	0.788727	0.005000	9.292029	-2.479971	1.648080	0.538806	0.000561	-0.283747	0.008919	0.000592	0.004427
152	0.793727	0.005000	9.231626	-2.482346	1.656642	0.538806	0.000227	-0.284495	0.005466	-0.003038	0.007106
153	0.798727	0.005000	9.273256	-2.525368	1.767192	0.538806	-0.000108	-0.285242	0.001292	-0.005498	0.002244
154	0.803727	0.005000	9.245649	-2.535609	1.726560	0.538806	-0.000443	-0.285990	0.002565	-0.014745	0.016353
155	0.808727	0.005000	9.160286	-2.611714	1.648080	0.538806	-0.000777	-0.286737	-0.001906	-0.003610	-0.000273
156	0.813727	0.005000	9.221128	-2.609596	1.647535	0.538806	-0.001112	-0.287485	0.007322	-0.011937	0.002816
157	0.818727	0.005000	9.177138	-2.685429	1.743669	0.538806	-0.001447	-0.288232	-0.003298	-0.007711	0.018288
158	0.823727	0.005000	9.285448	-2.643512	1.672888	0.538806	-0.001782	-0.288979	0.009089	-0.009754	0.012580
159	0.828727	0.005000	9.146105	-2.577822	1.632877	0.538806	-0.002116	-0.289727	0.002520	-0.011911	0.010154
160	0.833727	0.005000	9.152531	-2.629080	1.687320	0.538806	-0.002451	-0.290474	-0.002460	-0.016197	-0.001033
161	0.838727	0.005000	9.174964	-2.604232	1.690581	0.538806	-0.002786	-0.291222	-0.007087	-0.017316	0.001550
162	0.843727	0.005000	9.230980	-2.585050	1.652870	0.538761	-0.002895	-0.291465	-0.007026	-0.006838	-0.001961
163	0.848727	0.005000	9.334374	-2.474493	1.643334	0.538649	-0.002672	-0.290967	-0.005910	-0.014143	-0.003134
164	0.853727	0.005000	9.260640	-2.550570	1.451971	0.538538	-0.002449	-0.290469	0.003965	-0.005288	0.002355
165	0.858727	0.005000	9.223820	-2.513780	1.574441	0.538426	-0.002225	-0.289971	0.002710	-0.009240	-0.003841
166	0.863727	0.005000	9.255845	-2.555395	1.608840	0.538315	-0.002002	-0.289472	-0.002197	-0.004921	0.011193
167	0.868727	0.005000	9.214215	-2.472120	1.694505	0.538203	-0.001779	-0.288974	0.005852	-0.013782	0.005175
168	0.873727	0.005000	9.299880	-2.541040	1.677760	0.538091	-0.001556	-0.288476	0.002911	-0.010136	0.009096
169	0.878727	0.005000	9.178772	-2.550600	1.781139	0.537980	-0.001333	-0.287977	0.004746	0.001519	-0.001163
170	0.883727	0.005000	9.206901	-2.507104	1.652336	0.537868	-0.001110	-0.287479	0.013210	-0.006998	-0.009253
171	0.888727	0.005000	9.159831	-2.528271	1.731978	0.537757	-0.000887	-0.286981	0.010346	-0.008495	0.005154
172	0.893727	0.005000	9.123001	-2.491441	1.648677	0.537645	-0.000664	-0.286482	0.009639	-0.006643	0.001913
173	0.898727	0.005000	9.199675	-2.397850	1.691530	0.537533	-0.000441	-0.285984	0.017502	-0.008311	0.008501
174	0.903727	0.005000	9.236505	-2.493301	1.608840	0.537422	-0.000217	-0.285486	0.007860	-0.009502	0.005594
175	0.908727	0.005000	9.129064	-2.458264	1.674628	0.537321	-0.000008	-0.284997	0.005246	-0.009461	0.011893
176	0.913727	0.005000	9.299880	-2.540316	1.627511	0.537656	-0.000343	-0.284872	-0.005679	-0.001311	0.005647
177	0.918727	0.005000	9.236951	-2.456206	1.655855	0.537991	-0.000678	-0.284748	-0.009373	-0.005258	-0.007104
178	0.923727	0.005000	9.255240	-2.539799	1.642680	0.538325	-0.001012	-0.284623	-0.002807	-0.014307	0.011002
179	0.928727	0.005000	9.263650	-2.550600	1.572610	0.538660	-0.001347	-0.284499	0.000218	0.000378	0.012702
180	0.933727	0.005000	9.300515	-2.589205	1.766435	0.538994	-0.001681	-0.284374	0.002190	-0.009953	0.009058
181	0.938727	0.005000	9.264191	-2.475671	1.730111	0.539329	-0.002016	-0.284250	-0.004725	-0.008955	0.004133
182	0.943727	0.005000	9.230597	-2.511360	1.691919	0.539663	-0.002350	-0.284125	-0.010220	-0.004817	0.006591
183	0.948727	0.005000	9.163841	-2.532281	1.694294	0.539998	-0.002685	-0.284000	-0.001527	-0.008007	0.002632
184	0.953727	0.005000	9.122407	-2.559964	1.636931	0.540332	-0.003019	-0.283876	-0.006727	-0.003293	-0.005264
185	0.958727	0.005000	9.064440	-2.523099	1.691344	0.540667	-0.003354	-0.283751	0.000751	-0.015328	0.009690
186	0.963727	0.005000	9.232382	-2.547454	1.619822	0.541002	-0.003689	-0.283627	-0.000512	-0.006372	0.001035
187	0.968727	0.005000	9.299880	-2.635312	1.658351	0.541336	-0.004023	-0.283502	0.009904	-0.009749	0.011502
188	0.973727	0.005000	9.301332	-2.610186	1.566696	0.541671	-0.004358	-0.283378	0.001204	-0.011297	0.003001
189	0.978727	0.005000	9.281909	-2.575167	1.566302	0.541577	-0.004264	-0.283174	0.004966	-0.007159	-0.004538
190	0.983727	0.005000	9.221400	-2.535019	1.695398	0.541242	-0.003929	-0.282925	0.005762	-0.010701	0.008289
191	0.988727	0.005000	9.208194	-2.615874	1.674114	0.540908	-0.003595	-0.282676	0.008907	-0.015479	0.005596
192	0.993727	0.005000	9.153751	-2.611502	1.619671	0.540573	-0.003260	-0.282427	0.012337	-0.004910	0.012073
193	0.998727	0.005000	9.190601	-2.581399	1.695761	0.540239	-0.002926	-0.282177	0.008071	0.000982	0.010823
194	1.003727	0.005000	9.233532	-2.550600	1.732626	0.539904	-0.002591	-0.281928	0.006974	-0.007680	0.002045
195	1.008727	0.005000	9.260640	-2.546924	1.805040	0.539569	-0.002256	-0.281679	0.013573	-0.002688	0.010491
196	1.013727	0.005000	9.104522	-2.548074	1.689004	0.539235	-0.001922	-0.281430	-0.003217	-0.006875	0.001454
197	1.018727	0.005000	9.218314	-2.470577	1.765800	0.538900	-0.001587	-0.281181	0.003115	-0.013442	0.008037
198	1.023727	0.005000	9.178227	-2.515293	1.687320	0.538566	-0.001253	-0.280932	0.004184	-0.008813	0.010313
199	1.028727	0.005000	9.182160	-2.511360	1.641772	0.538231	-0.000918	-0.280683	0.004178	-0.013698	0.008518
200	1.033727	0.005000	9.151618	-2.511360	1.669924	0.537897	-0.000584	-0.280434	0.000884	-0.002658	0.011474
201	1.038727	0.005000	9.299880	-2.494534	1.659287	0.537562	-0.000249	-0.280185	0.005851	-0.009821	0.007158
202	1.043727	0.005000	9.274261	-2.588218	1.543981	0.537342	0.000029	-0.280191	0.004856	-0.008407	0.011902
203	1.048727	0.005000	9.205370	-2.645110	1.599991	0.537453	0.000140	-0.280938	0.001526	-0.002138	-0.000307
204	1.053727	0.005000	9.297523	-2.552957	1.687320	0.537565	0.000252	-0.281686	0.004039	-0.015226	0.004378
205	1.058727	0.005000	9.278808	-2.511360	1.705488	0.537676	0.000363	-0.282433	-0.005371	-0.000675	0.006773
206	1.063727	0.005000	9.221400	-2.511360	1.742353	0.537788	0.000475	-0.283181	0.004537	-0.000403	0.005011
207	1.068727	0.005000	9.182160	-2.497957	1.752397	0.537899	0.000586	-0.283928	0.002214	-0.016753	0.011851
208	1.073727	0.005000	9.288852	-2.472120	1.687320	0.538011	0.000698	-0.284676	0.007233	-0.010445	-0.005331
209	1.078727	0.005000	9.212762	-2.519998	1.687320	0.538123	0.000810	-0.285423	0.007931	-0.006565	0.006937
210	1.083727	0.005000	9.109943	-2.596103	1.772063	0.538234	0.000921	-0.286171	0.008119	-0.012508	0.007606
211	1.088727	0.005000	9.225288	-2.621305	1.687320	0.538346	0.001033	-0.286918	0.008903	-0.009029	0.006576
212	1.093727	0.005000	9.143976	-2.587728	1.763688	0.538457	0.001144	-0.287665	0.002387	-0.003043	0.010193
213	1.098727	0.005000	9.295841	-2.587147	1.649426	0.538569	0.001256	-0.288413	0.001798	-0.001730	0.010080
214	1.103727	0.005000	9.256919	-2.593561	1.758357	0.538681	0.001368	-0.289160	0.009468	-0.003595	0.008894
215	1.108727	0.005000	9.254529	-2.484343	1.859074	0.538792	0.001479	-0.289908	0.006840	-0.006780	0.005803
216	1.113727	0.005000	9.199133	-2.511360	1.844280	0.538513	0.001102	-0.290109	0.014934	-0.012762	0.004440
217	1.118727	0.005000	9.193036	-2.561476	1.698196	0.538178	0.000655	-0.290234	0.002353	-0.011988	0.022631
218	1.123727	0.005000	9.195411	-2.511360	1.661331	0.537843	0.000209	-0.290358	0.009575	-0.014847	0.006971
219	1.128727	0.005000	9.244998	-2.566242	1.624482	0.537508	-0.000237	-0.290483	0.015299	-0.016055	0.007344
220	1.133727	0.005000	9.146127	-2.532583	1.666097	0.537174	-0.000683	-0.290608	0.011333	-0.000398	0.001527
221	1.138727	0.005000	9.200755	-2.589840	1.689371	0.536839	-0.001130	-0.290732	0.012169	-0.005248	0.010560
222	1.143727	0.005000	9.339120	-2.582966	1.641206	0.536504	-0.001576	-0.290857	0.007787	0.000035	0.006610
223	1.148727	0.005000	9.168386	-2.538908	1.765800	0.536170	-0.002022	-0.290981	0.006103	-0.005670	0.015065
224	1.153727	0.005000	9.221400	-2.589840	1.687320	0.535835	-0.002469	-0.291106	0.006047	-0.007503	0.007408
225	1.158727	0.005000	9.221400	-2.580991	1.656929	0.535500	-0.002915	-0.291231	0.000159	-0.006834	-0.000084
226	1.163727	0.005000	9.221400	-2.517819	1.726560	0.535166	-0.003361	-0.291355	-0.001415	-0.012635	0.018326
227	1.168727	0.005000	9.370191	-2.515444	1.761716	0.534831	-0.003807	-0.291480	0.003324	-0.010134	0.001831
228	1.173727	0.005000	9.258945	-2.548905	1.765800	0.534496	-0.004254	-0.291604	-0.000611	-0.015456	0.003676
229	1.178727	0.005000	9.221400	-2.472809	1.650146	0.534439	-0.004256	-0.291791	-0.018387	-0.010656	0.007872
230	1.183727	0.005000	9.224493	-2.469027	1.611933	0.534662	-0.003810	-0.292040	-0.000258	-0.012163	0.000803
231	1.188727	0.005000	9.221400	-2.550600	1.608840	0.534885	-0.003363	-0.292289	0.004317	-0.023042	0.017154
232	1.193727	0.005000	9.213485	-2.519275	1.554106	0.535108	-0.002917	-0.292538	-0.006112	-0.011030	0.000618
233	1.198727	0.005000	9.242729	-2.568511	1.676655	0.535331	-0.002471	-0.292787	-0.003674	-0.017095	0.013431
234	1.203727	0.005000	9.182160	-2.589840	1.713505	0.535555	-0.002024	-0.293037	0.009013	-0.007830	0.001783
235	1.208727	0.005000	9.103680	-2.629080	1.624270	0.535778	-0.001578	-0.293286	0.009989	-0.008143	0.006787
236	1.213727	0.005000	9.121500	-2.589840	1.687320	0.536001	-0.001132	-0.293535	-0.000877	-0.012963	0.017280
237	1.218727	0.005000	9.182160	-2.570795	1.707515	0.536224	-0.000686	-0.293784	0.012054	-0.007681	0.003756
238	1.223727	0.005000	9.271365	-2.606495	1.709905	0.536447	-0.000239	-0.294033	0.014879	-0.010981	0.015532
239	1.228727	0.005000	9.299880	-2.586240	1.715880	0.536670	0.000207	-0.294282	0.006848	-0.006105	0.009312
240	1.233727	0.005000	9.232970	-2.617510	1.687320	0.536893	0.000653	-0.294531	0.007484	-0.009479	0.006691
241	1.238727	0.005000	9.221400	-2.481275	1.684702	0.537116	0.001100	-0.294780	0.008693	-0.011607	0.007919
242	1.243727	0.005000	9.318873	-2.543851	1.713062	0.537300	0.001453	-0.294956	0.001803	-0.008161	-0.000495
243	1.248727	0.005000	9.177827	-2.581174	1.652413	0.537188	0.001119	-0.294582	0.005897	-0.012086	0.008615
244	1.253727	0.005000	9.182160	-2.552528	1.653865	0.537077	0.000784	-0.294208	0.004322	-0.007620	0.011026
245	1.258727	0.005000	9.104648	-2.589840	1.727044	0.536965	0.000449	-0.293834	0.009021	-0.018895	0.000324
246	1.263727	0.005000	9.106539	-2.508501	1.648080	0.536854	0.000114	-0.293461	0.001495	-0.009436	0.003079
247	1.268727	0.005000	9.210805	-2.448772	1.710668	0.536742	-0.000220	-0.293087	0.006549	-0.010915	0.007970
248	1.273727	0.005000	9.221400	-2.542887	1.765800	0.536631	-0.000555	-0.292713	0.012008	-0.001688	0.014322
249	1.278727	0.005000	9.252804	-2.589840	1.726560	0.536519	-0.000890	-0.292340	0.005099	-0.001695	-0.000439
250	1.283727	0.005000	9.300591	-2.524203	1.608840	0.536408	-0.001224	-0.291966	0.013145	-0.009371	0.006527
251	1.288727	0.005000	9.299880	-2.535367	1.672087	0.536296	-0.001559	-0.291592	-0.000784	-0.008935	0.012148
252	1.293727	0.005000	9.217376	-2.532992	1.748192	0.536185	-0.001894	-0.291218	-0.001611	-0.014620	0.006513
253	1.298727	0.005000	9.241398	-2.589840	1.785042	0.536073	-0.002228	-0.290845	0.001769	-0.007232	0.014015
254	1.303727	0.005000	9.244044	-2.579291	1.670724	0.535962	-0.002563	-0.290471	0.010276	-0.008375	-0.000957
255	1.308727	0.005000	9.182160	-2.536413	1.569600	0.535850	-0.002898	-0.290097	-0.000471	-0.013896	0.008495
256	1.313727	0.005000	9.154694	-2.538826	1.632387	0.536069	-0.002903	-0.289908	0.009865	-0.008491	0.006538
257	1.318727	0.005000	9.152286	-2.490852	1.696686	0.536403	-0.002791	-0.289783	0.000747	-0.011855	0.006230
258	1.323727	0.005000	9.149871	-2.536698	1.622742	0.536738	-0.002680	-0.289659	0.002650	-0.009025	0.012642
259	1.328727	0.005000	9.225945	-2.467575	1.648080	0.537072	-0.002568	-0.289534	0.007672	-0.012842	0.003671
260	1.333727	0.005000	9.221400	-2.550600	1.641696	0.537407	-0.002457	-0.289410	0.004686	-0.006720	0.006498
261	1.338727	0.005000	9.182432	-2.511632	1.569328	0.537741	-0.002345	-0.289285	0.008102	-0.003965	-0.006046
262	1.343727	0.005000	9.226725	-2.511360	1.611502	0.538076	-0.002234	-0.289161	0.009227	-0.005580	0.002725
263	1.348727	0.005000	9.187258	-2.550600	1.642982	0.538410	-0.002122	-0.289036	-0.001352	-0.007298	0.001548
264	1.353727	0.005000	9.268154	-2.582326	1.735743	0.538745	-0.002011	-0.288912	0.008530	-0.007478	0.007456
265	1.358727	0.005000	9.162762	-2.668320	1.775721	0.539079	-0.001899	-0.288787	0.014037	-0.001992	0.009468
266	1.363727	0.005000	9.221400	-2.575249	1.726560	0.539414	-0.001788	-0.288662	0.006246	-0.006497	-0.001747
267	1.368727	0.005000	9.221400	-2.604578	1.633342	0.539749	-0.001676	-0.288538	0.006933	-0.008346	0.004317
268	1.373727	0.005000	9.221400	-2.663903	1.587011	0.540083	-0.001565	-0.288413	0.003749	-0.003975	-0.001916
269	1.378727	0.005000	9.299547	-2.530814	1.687320	0.539943	-0.001889	-0.287582	0.017021	-0.010014	0.007514
270	1.383727	0.005000	9.255527	-2.533536	1.692433	0.538939	-0.003004	-0.285465	0.000421	-0.008162	0.013541
271	1.388727	0.005000	9.265466	-2.526049	1.554911	0.537936	-0.004119	-0.283348	0.004195	0.000416	-0.004159
272	1.393727	0.005000	9.196803	-2.550600	1.608840	0.536932	-0.005234	-0.281232	-0.004110	-0.004276	0.017645
273	1.398727	0.005000	9.240793	-2.609687	1.667927	0.535929	-0.006349	-0.279115	-0.006414	-0.004173	0.003220
274	1.403727	0.005000	9.221400	-2.683387	1.640547	0.534925	-0.007464	-0.276998	0.001080	-0.012494	0.004055
275	1.408727	0.005000	9.295134	-2.619588	1.682574	0.533921	-0.008579	-0.274881	-0.003451	-0.005563	-0.000291
276	1.413727	0.005000	9.221400	-2.550600	1.650422	0.532918	-0.009694	-0.272765	-0.003047	-0.008016	0.007544
277	1.418727	0.005000	9.221400	-2.550600	1.648156	0.531914	-0.010809	-0.270648	-0.010436	-0.006474	0.008682
278	1.423727	0.005000	9.145371	-2.631531	1.611291	0.530911	-0.011924	-0.268531	-0.008739	-0.008041	0.005697
279	1.428727	0.005000	9.216559	-2.589840	1.672798	0.529907	-0.013039	-0.266414	0.002100	-0.008435	0.007358
280	1.433727	0.005000	9.299880	-2.629080	1.576816	0.528903	-0.014154	-0.264297	-0.005368	-0.003146	-0.001237
281	1.438727	0.005000	9.270246	-2.550600	1.687320	0.527900	-0.015269	-0.262181	-0.004423	-0.007394	0.003665
282	1.443727	0.005000	9.130939	-2.487398	1.660061	0.526896	-0.016384	-0.260064	0.004572	0.004872	0.001274
283	1.448727	0.005000	9.246101	-2.550600	1.608840	0.526650	-0.015877	-0.261329	0.006211	-0.002851	0.006563
284	1.453727	0.005000	9.226743	-2.545257	1.648080	0.526427	-0.015319	-0.262699	0.001376	-0.006376	0.013654
285	1.458727	0.005000	9.221400	-2.569952	1.668504	0.526203	-0.014761	-0.264069	0.000700	-0.005803	0.008010
286	1.463727	0.005000	9.238877	-2.533123	1.783277	0.525980	-0.014204	-0.265440	0.015805	-0.000260	0.011904
287	1.468727	0.005000	9.299880	-2.511360	1.732516	0.525757	-0.013646	-0.266810	0.009669	-0.008142	-0.001387
288	1.473727	0.005000	9.287223	-2.550600	1.701247	0.525534	-0.013088	-0.268180	0.010914	-0.004624	0.002605
289	1.478727	0.005000	9.240155	-2.608595	1.687320	0.525311	-0.012530	-0.269551	0.019472	-0.009364	-0.000312
290	1.483727	0.005000	9.182160	-2.519196	1.648080	0.525088	-0.011972	-0.270921	0.009118	-0.004247	0.005618
291	1.488727	0.005000	9.187580	-2.516780	1.642660	0.524865	-0.011415	-0.272291	0.005044	-0.006855	0.011430
292	1.493727	0.005000	9.257660	-2.547620	1.687320	0.524642	-0.010857	-0.273661	0.000519	-0.010736	0.004176
293	1.498727	0.005000	9.260050	-2.472710	1.686730	0.524419	-0.010299	-0.275032	0.015775	-0.010487	0.005117
294	1.503727	0.005000	9.333700	-2.548793	1.722947	0.524195	-0.009741	-0.276402	-0.000549	-0.009774	0.001557
295	1.508727	0.005000	9.299880	-2.594064	1.695768	0.523972	-0.009183	-0.277772	0.009251	-0.011374	0.002327
296	1.513727	0.005000	9.195419	-2.576581	1.661339	0.524276	-0.008626	-0.278921	-0.007878	-0.002906	0.003884
297	1.518727	0.005000	9.212355	-2.541555	1.717515	0.524945	-0.008069	-0.279917	-0.005166	-0.007051	-0.005635
298	1.523727	0.005000	9.248856	-2.460336	1.750128	0.525614	-0.007511	-0.280913	-0.001433	-0.011966	0.013771
299	1.528727	0.005000	9.299880	-2.522282	1.712401	0.526282	-0.006954	-0.281909	-0.001746	-0.009410	0.002868
300	1.533727	0.005000	9.355669	-2.629080	1.681178	0.526951	-0.006397	-0.282904	-0.000212	-0.008164	-0.001659
301	1.538727	0.005000	9.260640	-2.550600	1.626372	0.527620	-0.005840	-0.283900	0.001245	-0.004253	0.007776
302	1.543727	0.005000	9.281947	-2.553975	1.644705	0.528288	-0.005282	-0.284896	-0.002751	-0.010224	-0.002356
303	1.548727	0.005000	9.158194	-2.550600	1.711286	0.528957	-0.004725	-0.285891	0.005081	-0.008413	0.003081
304	1.553727	0.005000	9.195021	-2.602701	1.648738	0.529626	-0.004168	-0.286887	-0.000305	-0.010232	0.004274
305	1.558727	0.005000	9.357454	-2.639533	1.655962	0.530295	-0.003611	-0.287883	0.004395	-0.014847	-0.000007
306	1.563727	0.005000	9.291842	-2.629080	1.656118	0.530963	-0.003053	-0.288879	-0.000823	-0.002345	0.011732
307	1.568727	0.005000	9.260640	-2.544968	1.648080	0.531632	-0.002496	-0.289874	0.003297	-0.005847	-0.001957
308	1.573727	0.005000	9.182160	-2.475335	1.801825	0.532301	-0.001939	-0.290870	-0.000261	-0.004074	0.007883
309	1.578727	0.005000	9.221400	-2.512982	1.687320	0.532814	-0.001471	-0.291617	0.000724	-0.009163	-0.000487
310	1.583727	0.005000	9.221400	-2.476885	1.800275	0.532702	-0.001359	-0.291368	0.004958	-0.012819	0.013647
311	1.588727	0.005000	9.260640	-2.397603	1.769763	0.532591	-0.001248	-0.291119	0.008568	-0.011422	-0.000529
312	1.593727	0.005000	9.299880	-2.445587	1.726560	0.532479	-0.001136	-0.290870	0.004244	-0.016580	0.001471
313	1.598727	0.005000	9.308714	-2.511360	1.744228	0.532367	-0.001024	-0.290620	0.016171	-0.016981	0.002008
314	1.603727	0.005000	9.299880	-2.539351	1.670577	0.532256	-0.000913	-0.290371	0.010761	-0.007329	-0.003547
315	1.608727	0.005000	9.182160	-2.562527	1.661737	0.532144	-0.000801	-0.290122	0.007801	-0.015940	0.006249
316	1.613727	0.005000	9.205331	-2.550600	1.655181	0.532033	-0.000690	-0.289873	0.012467	-0.004221	-0.000666
317	1.618727	0.005000	9.242161	-2.566798	1.705799	0.531921	-0.000578	-0.289624	0.019925	-0.013191	0.009705
318	1.623727	0.005000	9.221400	-2.529498	1.626978	0.531809	-0.000466	-0.289374	0.014020	-0.011271	0.011155
319	1.628727	0.005000	9.315627	-2.511360	1.655825	0.531698	-0.000355	-0.289125	0.005534	-0.006145	0.004713
320	1.633727	0.005000	9.260640	-2.537228	1.661452	0.531586	-0.000243	-0.288876	0.006056	-0.015092	0.012050
321	1.638727	0.005000	9.153917	-2.500363	1.709315	0.531475	-0.000132	-0.288627	0.002952	-0.012601	0.014606
322	1.643727	0.005000	9.269247	-2.502753	1.717953	0.531363	-0.000020	-0.288378	0.005929	-0.014384	0.012627
323	1.648727	0.005000	9.273105	-2.445345	1.693552	0.531618	-0.000092	-0.287822	-0.004264	0.000101	0.007211
324	1.653727	0.005000	9.256798	-2.511360	1.648080	0.531952	-0.000203	-0.287199	-0.006503	-0.002284	0.003288
325	1.658727	0.005000	9.261650	-2.550600	1.649090	0.532287	-0.000315	-0.286577	0.000572	-0.009433	0.011838
326	1.663727	0.005000	9.224153	-2.550600	1.611593	0.532621	-0.000426	-0.285954	-0.000418	-0.003998	0.001339
327	1.668727	0.005000	9.185927	-2.660787	1.758267	0.532956	-0.000538	-0.285332	-0.001623	-0.010215	0.009056
328	1.673727	0.005000	9.215258	-2.562883	1.732702	0.533290	-0.000649	-0.284709	-0.002887	-0.000249	0.008609
329	1.678727	0.005000	9.129275	-2.589840	1.661725	0.533625	-0.000761	-0.284087	0.001932	-0.004882	0.008933
330	1.683727	0.005000	9.199587	-2.533173	1.648080	0.533959	-0.000872	-0.283464	-0.005046	-0.002750	0.016291
331	1.688727	0.005000	9.195457	-2.550600	1.674023	0.534294	-0.000984	-0.282842	0.004827	-0.008113	0.004451
332	1.693727	0.005000	9.205728	-2.527032	1.624512	0.534629	-0.001095	-0.282219	-0.006527	-0.005288	0.008260
333	1.698727	0.005000	9.302574	-2.589840	1.585180	0.534963	-0.001207	-0.281596	0.005799	-0.001793	0.000698
334	1.703727	0.005000	9.239956	-2.550600	1.666636	0.535298	-0.001319	-0.280974	0.015936	-0.010685	0.009102
335	1.708727	0.005000	9.166014	-2.573694	1.655028	0.535632	-0.001430	-0.280351	0.008477	-0.002893	0.006274
336	1.713727	0.005000	9.193934	-2.589840	1.634347	0.535967	-0.001493	-0.280380	0.004505	-0.011863	0.006391
337	1.718727	0.005000	9.182160	-2.589840	1.608840	0.536302	-0.001493	-0.281252	0.010427	-0.010062	0.013196
338	1.723727	0.005000	9.073351	-2.572019	1.669499	0.536636	-0.001493	-0.282124	0.005015	-0.002390	0.000825
339	1.728727	0.005000	9.083727	-2.583411	1.608840	0.536971	-0.001493	-0.282996	0.014154	-0.000161	-0.005564
340	1.733727	0.005000	9.217346	-2.507306	1.699482	0.537306	-0.001493	-0.283868	0.016432	-0.005746	-0.002926
341	1.738727	0.005000	9.221400	-2.514688	1.685656	0.537640	-0.001493	-0.284740	0.020426	-0.013210	0.005230
342	1.743727	0.005000	9.105839	-2.589840	1.609560	0.537975	-0.001493	-0.285612	0.019371	-0.005270	0.009426
343	1.748727	0.005000	9.179023	-2.547463	1.684183	0.538310	-0.001493	-0.286484	0.011750	0.003899	0.003127
344	1.753727	0.005000	9.249555	-2.617995	1.732102	0.538645	-0.001493	-0.287356	0.011578	-0.007106	0.016311
345	1.758727	0.005000	9.323204	-2.589840	1.671955	0.538979	-0.001493	-0.288229	0.011473	0.001787	0.006405
346	1.763727	0.005000	9.271350	-2.522070	1.608840	0.539314	-0.001493	-0.289101	0.007513	-0.001453	0.005498
347	1.768727	0.005000	9.221400	-2.550600	1.674235	0.539649	-0.001493	-0.289973	0.005775	-0.004935	0.002645
348	1.773727	0.005000	9.166685	-2.566075	1.711085	0.539983	-0.001493	-0.290845	0.009213	-0.012066	0.007916
349	1.778727	0.005000	9.160770	-2.507820	1.687320	0.540286	-0.001480	-0.291667	-0.005707	-0.012241	0.008847
350	1.783727	0.005000	9.140439	-2.413880	1.726560	0.540063	-0.001257	-0.291667	-0.005498	-0.017735	0.006323
351	1.788727	0.005000	9.142920	-2.466130	1.642090	0.539840	-0.001034	-0.291667	-0.004705	-0.008441	0.007110
352	1.793727	0.005000	9.299880	-2.589840	1.687320	0.539617	-0.000811	-0.291667	-0.003253	-0.011697	0.002316
353	1.798727	0.005000	9.182160	-2.577980	1.711039	0.539394	-0.000588	-0.291667	-0.009087	-0.010269	-0.003092
354	1.803727	0.005000	9.230521	-2.520481	1.636204	0.539171	-0.000365	-0.291667	-0.007518	-0.006178	0.001055
355	1.808727	0.005000	9.260640	-2.543894	1.569600	0.538948	-0.000142	-0.291667	-0.004470	-0.010216	-0.005546
356	1.813727	0.005000	9.221400	-2.463519	1.691620	0.538725	0.000081	-0.291667	0.005682	-0.005661	0.012602
357	1.818727	0.005000	9.184043	-2.395523	1.651846	0.538502	0.000304	-0.291667	-0.000727	0.000884	0.005138
358	1.823727	0.005000	9.143949	-2.432880	1.649109	0.538279	0.000527	-0.291667	0.006967	-0.010369	0.012635
359	1.828727	0.005000	9.257751	-2.544821	1.650969	0.538055	0.000751	-0.291667	0.003004	-0.005811	0.008088
360	1.833727	0.005000	9.294601	-2.584561	1.721281	0.537832	0.000974	-0.291667	0.010804	-0.004773	-0.003692
361	1.838727	0.005000	9.236709	-2.479774	1.608840	0.537609	0.001197	-0.291667	0.014355	-0.005565	0.013266
362	1.843727	0.005000	9.240551	-2.501316	1.540404	0.537386	0.001420	-0.291667	0.014986	-0.006744	-0.003348
363	1.848727	0.005000	9.180178	-2.523779	1.635661	0.537313	0.001268	-0.291583	0.028497	-0.010761	0.018254
364	1.853727	0.005000	9.167350	-2.526170	1.633270	0.537313	0.000934	-0.291459	0.006320	-0.001172	0.003732
365	1.858727	0.005000	9.243455	-2.528545	1.731431	0.537313	0.000599	-0.291334	0.002501	-0.011068	0.006919
366	1.863727	0.005000	9.241065	-2.550600	1.805040	0.537313	0.000265	-0.291210	0.001006	-0.008457	0.006359
367	1.868727	0.005000	9.260640	-2.594499	1.691979	0.537313	-0.000070	-0.291085	0.006764	-0.000067	0.006362
368	1.873727	0.005000	9.197060	-2.535700	1.687320	0.537313	-0.000405	-0.290961	0.007169	-0.001349	0.014338
369	1.878727	0.005000	9.326595	-2.472120	1.701509	0.537313	-0.000739	-0.290836	0.002804	0.000140	0.001470
370	1.883727	0.005000	9.308714	-2.472120	1.677185	0.537313	-0.001074	-0.290712	-0.000452	-0.003553	0.009718
371	1.888727	0.005000	9.221400	-2.447639	1.648080	0.537313	-0.001408	-0.290587	-0.003844	-0.010419	0.001559
372	1.893727	0.005000	9.299880	-2.482860	1.614210	0.537313	-0.001743	-0.290462	-0.011113	-0.010056	0.003728
373	1.898727	0.005000	9.221400	-2.589840	1.614830	0.537313	-0.002077	-0.290338	-0.009196	-0.013534	0.016399
374	1.903727	0.005000	9.260035	-2.589840	1.725350	0.537313	-0.002412	-0.290213	-0.006036	-0.005137	0.005968
375	1.908727	0.005000	9.295402	-2.552839	1.796085	0.537313	-0.002746	-0.290089	0.012473	-0.003642	0.015272
376	1.913727	0.005000	9.147534	-2.550600	1.717332	0.537345	-0.003049	-0.290000	0.003571	-0.003387	0.014505
377	1.918727	0.005000	9.149909	-2.407618	1.676035	0.537457	-0.003272	-0.290000	0.001876	-0.010891	0.009824
378	1.923727	0.005000	9.202642	-2.501981	1.648080	0.537568	-0.003495	-0.290000	0.006344	-0.003206	0.007405
379	1.928727	0.005000	9.193914	-2.523114	1.710828	0.537680	-0.003718	-0.290000	0.006644	-0.007617	0.004882
380	1.933727	0.005000	9.282544	-2.586648	1.737512	0.537791	-0.003941	-0.290000	0.009609	-0.020182	0.007253
381	1.938727	0.005000	9.215198	-2.589840	1.648080	0.537903	-0.004164	-0.290000	0.008415	-0.006687	0.001823
382	1.943727	0.005000	9.163030	-2.571689	1.726560	0.538014	-0.004387	-0.290000	0.010795	-0.005889	-0.003069
383	1.948727	0.005000	9.264483	-2.607539	1.748101	0.538126	-0.004610	-0.290000	0.003569	-0.006913	0.008166
384	1.953727	0.005000	9.221400	-2.559262	1.672031	0.538237	-0.004833	-0.290000	0.008477	-0.011156	0.010397
385	1.958727	0.005000	9.287004	-2.484996	1.595964	0.538349	-0.005056	-0.290000	0.004135	-0.013325	0.004301
386	1.963727	0.005000	9.297248	-2.500892	1.569600	0.538460	-0.005279	-0.290000	-0.002141	-0.002279	0.002040
387	1.968727	0.005000	9.244534	-2.519413	1.656133	0.538572	-0.005502	-0.290000	0.002296	-0.016071	0.011257
388	1.973727	0.005000	9.142920	-2.517007	1.676025	0.538684	-0.005725	-0.290000	-0.001413	-0.011101	0.011787
389	1.978727	0.005000	9.182160	-2.475350	1.687320	0.538795	-0.005948	-0.290000	0.001769	-0.018416	-0.007080
390	1.983727	0.005000	9.180507	-2.589840	1.688146	0.538404	-0.005668	-0.289888	-0.000489	-0.010648	0.010968
391	1.988727	0.005000	9.103680	-2.589840	1.726560	0.537957	-0.005334	-0.289763	0.013518	-0.009091	0.009008
392	1.993727	0.005000	9.221400	-2.550600	1.600944	0.537511	-0.004999	-0.289638	0.009366	-0.011595	0.013756
393	1.998727	0.005000	9.247963	-2.511360	1.615178	0.537065	-0.004664	-0.289514	0.005846	-0.006676	0.010273
394	2.003727	0.005000	9.299880	-2.620367	1.726560	0.536619	-0.004330	-0.289389	0.008120	-0.006688	0.000990
395	2.008727	0.005000	9.316675	-2.472120	1.704115	0.536172	-0.003995	-0.289265	0.012754	-0.004855	0.010353
396	2.013727	0.005000	9.247004	-2.550600	1.688988	0.535726	-0.003660	-0.289140	0.008092	-0.008837	0.009862
397	2.018727	0.005000	9.276685	-2.464970	1.717665	0.535280	-0.003326	-0.289015	0.010385	-0.008148	0.010005
398	2.023727	0.005000	9.182160	-2.453663	1.742691	0.534834	-0.002991	-0.288891	-0.000880	-0.004326	0.006697
399	2.028727	0.005000	9.242268	-2.568972	1.645584	0.534388	-0.002657	-0.288766	0.002817	-0.011669	0.011151
400	2.033727	0.005000	9.151013	-2.597525	1.648080	0.533941	-0.002322	-0.288642	0.004961	-0.006518	0.008656
401	2.038727	0.005000	9.233865	-2.485508	1.661468	0.533495	-0.001987	-0.288517	0.004833	-0.008676	-0.000328
402	2.043727	0.005000	9.125705	-2.611865	1.787825	0.533049	-0.001653	-0.288392	0.004679	-0.011870	0.006580
403	2.048727	0.005000	9.208028	-2.541977	1.813663	0.533011	-0.001376	-0.288203	-0.007561	-0.005511	0.003408
404	2.053727	0.005000	9.241897	-2.589840	1.772048	0.533345	-0.001153	-0.287954	0.000191	-0.010472	0.003034
405	2.058727	0.005000	9.260640	-2.661433	1.723117	0.533680	-0.000930	-0.287705	0.002237	-0.002771	0.005884
406	2.063727	0.005000	9.183186	-2.550600	1.689372	0.534014	-0.000707	-0.287456	0.001961	-0.015131	0.011583
407	2.068727	0.005000	9.145643	-2.550600	1.879436	0.534349	-0.000484	-0.287207	-0.000484	-0.003802	0.011047
408	2.073727	0.005000	9.213897	-2.518863	1.844280	0.534683	-0.000261	-0.286958	-0.003360	-0.006234	0.001930
409	2.078727	0.005000	9.287627	-2.622953	1.798913	0.535018	-0.000038	-0.286709	0.011103	-0.002571	0.001662
410	2.083727	0.005000	9.269157	-2.572807	1.687320	0.535352	0.000185	-0.286460	0.002801	-0.003862	0.000942
411	2.088727	0.005000	9.210508	-2.539708	1.754908	0.535687	0.000408	-0.286211	0.010147	-0.011252	0.006486
412	2.093727	0.005000	9.247373	-2.550600	1.727120	0.536021	0.000631	-0.285962	0.005535	-0.006115	0.008595
413	2.098727	0.005000	9.158577	-2.534943	1.726560	0.536356	0.000855	-0.285713	0.009966	-0.002975	0.008870
414	2.103727	0.005000	9.224141	-2.472120	1.765800	0.536690	0.001078	-0.285464	0.001833	-0.009955	0.001311
415	2.108727	0.005000	9.182160	-2.511360	1.784379	0.537025	0.001301	-0.285215	0.006889	-0.002070	0.004649
416	2.113727	0.005000	9.198328	-2.511360	1.717297	0.537313	0.001447	-0.285034	0.009105	-0.007771	0.007236
417	2.118727	0.005000	9.219365	-2.499637	1.740318	0.537313	0.001112	-0.285284	0.008539	-0.014299	-0.000441
418	2.123727	0.005000	9.232745	-2.511360	1.765800	0.537313	0.000777	-0.285533	0.008102	-0.006098	-0.005731
419	2.128727	0.005000	9.290942	-2.607715	1.708685	0.537313	0.000443	-0.285782	0.011904	-0.007101	0.006079
420	2.133727	0.005000	9.188604	-2.629080	1.660968	0.537313	0.000108	-0.286031	0.003890	-0.001678	-0.002878
421	2.138727	0.005000	9.178091	-2.550600	1.800971	0.537313	-0.000227	-0.286280	0.004887	-0.001599	0.008228
422	2.143727	0.005000	9.221400	-2.509681	1.801682	0.537313	-0.000561	-0.286529	0.003382	-0.004759	0.002128
423	2.148727	0.005000	9.221400	-2.549191	1.688024	0.537313	-0.000896	-0.286778	0.006526	-0.004614	0.010179
424	2.153727	0.005000	9.260640	-2.514482	1.729682	0.537313	-0.001231	-0.287027	-0.006942	-0.000921	0.010528
425	2.158727	0.005000	9.221400	-2.589840	1.580654	0.537313	-0.001566	-0.287276	0.002441	-0.012315	-0.002913
426	2.163727	0.005000	9.198046	-2.542657	1.632194	0.537313	-0.001900	-0.287526	0.008607	-0.008388	0.006673
427	2.168727	0.005000	9.192855	-2.522055	1.619535	0.537313	-0.002235	-0.287775	0.000222	-0.009207	0.012197
428	2.173727	0.005000	9.247600	-2.550600	1.674220	0.537313	-0.002570	-0.288024	0.003515	-0.011992	0.003767
429	2.178727	0.005000	9.236860	-2.550600	1.734880	0.537313	-0.002904	-0.288273	0.005926	-0.004942	0.005688
430	2.183727	0.005000	9.185730	-2.511360	1.591005	0.537228	-0.002985	-0.288333	0.009204	-0.000549	0.001919
431	2.188727	0.005000	9.241610	-2.589840	1.648080	0.537117	-0.002985	-0.288333	0.000655	-0.008050	-0.001702
432	2.193727	0.005000	9.283240	-2.595800	1.552960	0.537005	-0.002985	-0.288333	-0.004880	-0.001854	0.002491
433	2.198727	0.005000	9.260640	-2.522070	1.648080	0.536894	-0.002985	-0.288333	-0.003946	-0.007100	0.006878
434	2.203727	0.005000	9.288005	-2.550600	1.687320	0.536783	-0.002985	-0.288333	-0.000456	-0.009176	0.006664
435	2.208727	0.005000	9.224079	-2.598980	1.744840	0.536671	-0.002985	-0.288333	0.005489	-0.010479	0.006096
436	2.213727	0.005000	9.241602	-2.576372	1.745598	0.536560	-0.002985	-0.288333	0.006810	-0.004793	0.008204
437	2.218727	0.005000	9.217083	-2.576888	1.643763	0.536448	-0.002985	-0.288333	0.017100	-0.007849	0.005445
438	2.223727	0.005000	9.182160	-2.507534	1.689233	0.536337	-0.002985	-0.288333	0.013228	-0.001834	0.015820
439	2.228727	0.005000	9.104678	-2.471621	1.726560	0.536225	-0.002985	-0.288333	0.009782	-0.006278	0.007668
440	2.233727	0.005000	9.252017	-2.393640	1.729434	0.536114	-0.002985	-0.288333	0.004570	-0.013377	0.011529
441	2.238727	0.005000	9.260640	-2.500831	1.697849	0.536002	-0.002985	-0.288333	0.010644	-0.005607	0.013265
442	2.243727	0.005000	9.253001	-2.589840	1.679681	0.535891	-0.002985	-0.288333	0.011823	-0.008959	0.006515
443	2.248727	0.005000	9.221400	-2.560629	1.736589	0.535863	-0.003027	-0.288193	0.021599	-0.012435	0.015228
444	2.253727	0.005000	9.168029	-2.577286	1.673189	0.535974	-0.003138	-0.287820	0.004470	-0.015126	0.004148
445	2.258727	0.005000	9.152225	-2.595503	1.633112	0.536086	-0.003250	-0.287446	0.010875	-0.003635	0.009669
446	2.263727	0.005000	9.108166	-2.506874	1.665457	0.536197	-0.003362	-0.287072	0.002283	-0.005954	-0.001249
447	2.268727	0.005000	9.162372	-2.511023	1.648080	0.536309	-0.003473	-0.286698	0.005642	-0.012182	0.003553
448	2.273727	0.005000	9.238440	-2.516520	1.748760	0.536420	-0.003585	-0.286325	0.006466	-0.013382	0.014760
449	2.278727	0.005000	9.270607	-2.486757	1.741197	0.536532	-0.003696	-0.285951	0.001983	-0.010076	0.006575
450	2.283727	0.005000	9.248412	-2.481792	1.817268	0.536643	-0.003808	-0.285577	0.002350	-0.010076	0.005731
451	2.288727	0.005000	9.172010	-2.570447	1.805040	0.536755	-0.003919	-0.285203	-0.001833	-0.010780	0.000386
452	2.293727	0.005000	9.221400	-2.597162	1.719238	0.536866	-0.004031	-0.284830	-0.005077	-0.016493	0.001523
453	2.298727	0.005000	9.231263	-2.579977	1.716697	0.536978	-0.004143	-0.284456	-0.012126	-0.017008	0.008822
454	2.303727	0.005000	9.145476	-2.589840	1.645524	0.537089	-0.004254	-0.284082	-0.003326	-0.005518	0.007694
455	2.308727	0.005000	9.104013	-2.628747	1.648246	0.537201	-0.004366	-0.283709	0.002298	-0.016054	0.014754
456	2.313727	0.005000	9.219165	-2.587605	1.650315	0.537312	-0.004477	-0.283335	-0.002388	-0.009541	-0.001835
457	2.318727	0.005000	9.182160	-2.633732	1.691972	0.535759	-0.005810	-0.281349	-0.006960	-0.016117	0.010969
458	2.323727	0.005000	9.221400	-2.503917	1.812483	0.534197	-0.007149	-0.279356	-0.003943	-0.016578	0.008665
459	2.328727	0.005000	9.290407	-2.619607	1.745507	0.532635	-0.008488	-0.277363	0.006338	-0.017756	0.000830
460	2.333727	0.005000	9.272848	-2.589840	1.621048	0.531073	-0.009826	-0.275370	-0.004956	-0.005723	0.007157
461	2.338727	0.005000	9.206817	-2.575257	1.726560	0.529512	-0.011165	-0.273377	0.007741	-0.009303	0.005422
462	2.343727	0.005000	9.310469	-2.550600	1.731855	0.527950	-0.012504	-0.271384	0.016157	-0.010235	0.009081
463	2.348727	0.005000	9.260095	-2.472120	1.687320	0.526388	-0.013842	-0.269391	0.011924	-0.014267	0.004758
464	2.353727	0.005000	9.142920	-2.528862	1.687320	0.524826	-0.015181	-0.267398	0.014029	-0.016069	0.002888
465	2.358727	0.005000	9.197287	-2.511360	1.623967	0.523265	-0.016520	-0.265404	0.012515	-0.003989	0.007037
466	2.363727	0.005000	9.287453	-2.577413	1.594454	0.521703	-0.017858	-0.263411	0.007679	-0.014137	0.008464
467	2.368727	0.005000	9.270653	-2.589840	1.697333	0.520141	-0.019197	-0.261418	0.005848	0.000053	0.004296
468	2.373727	0.005000	9.323902	-2.582231	1.765800	0.518579	-0.020536	-0.259425	-0.001573	-0.004935	-0.003309
469	2.378727	0.005000	9.226603	-2.589840	1.726560	0.517017	-0.021874	-0.257432	0.005099	-0.016306	0.009391
470	2.383727	0.005000	9.229759	-2.545027	1.692893	0.516899	-0.021907	-0.257358	0.005236	-0.005866	0.005055
471	2.388727	0.005000	9.260640	-2.511743	1.765035	0.517680	-0.021126	-0.258478	0.006860	-0.012017	0.006535
472	2.393727	0.005000	9.297868	-2.476144	1.761776	0.518460	-0.020346	-0.259599	0.000562	-0.009342	0.004846
473	2.398727	0.005000	9.291000	-2.515800	1.835400	0.519241	-0.019565	-0.260720	0.007034	-0.008108	-0.000360
474	2.403727	0.005000	9.339120	-2.504504	1.687320	0.520021	-0.018785	-0.261840	0.005380	-0.013132	0.004467
475	2.408727	0.005000	9.260640	-2.481383	1.696583	0.520802	-0.018004	-0.262961	-0.003084	0.003360	0.000896
476	2.413727	0.005000	9.221400	-2.523037	1.710674	0.521582	-0.017224	-0.264081	0.003886	-0.007911	-0.005266
477	2.418727	0.005000	9.131851	-2.483189	1.648080	0.522363	-0.016443	-0.265202	0.000234	-0.009544	0.003847
478	2.423727	0.005000	9.086919	-2.533839	1.709799	0.523144	-0.015662	-0.266323	0.005179	-0.004358	0.009742
479	2.428727	0.005000	9.183098	-2.472120	1.686382	0.523924	-0.014882	-0.267443	0.007793	-0.008656	0.009163
480	2.433727	0.005000	9.182160	-2.532886	1.648080	0.524705	-0.014101	-0.268564	0.002464	-0.000507	0.006957
481	2.438727	0.005000	9.182160	-2.502768	1.608840	0.525485	-0.013321	-0.269685	0.008388	-0.009741	0.005834
482	2.443727	0.005000	9.273589	-2.524309	1.609233	0.526266	-0.012540	-0.270805	-0.004321	-0.000194	0.003822
483	2.448727	0.005000	9.281086	-2.531806	1.608840	0.526995	-0.011837	-0.271869	0.010967	-0.003625	0.004075
484	2.453727	0.005000	9.308064	-2.612712	1.734744	0.527553	-0.011391	-0.272741	0.005192	-0.008745	0.004774
485	2.458727	0.005000	9.260640	-2.550600	1.754995	0.528110	-0.010944	-0.273613	0.012923	-0.004444	0.001863
486	2.463727	0.005000	9.218400	-2.550600	1.654079	0.528668	-0.010498	-0.274485	0.012219	0.000459	0.010996
487	2.468727	0.005000	9.221400	-2.511942	1.648080	0.529226	-0.010052	-0.275357	0.009586	-0.002659	0.002050
488	2.473727	0.005000	9.258840	-2.550600	1.573200	0.529784	-0.009606	-0.276228	0.003101	-0.007519	0.004468
489	2.478727	0.005000	9.221400	-2.472120	1.652270	0.530341	-0.009159	-0.277100	-0.001655	-0.009968	0.003332
490	2.483727	0.005000	9.227965	-2.517925	1.615405	0.530899	-0.008713	-0.277972	0.000672	-0.017430	0.005133
491	2.488727	0.005000	9.182160	-2.571720	1.726560	0.531457	-0.008267	-0.278844	0.005793	-0.012806	0.013990
492	2.493727	0.005000	9.221400	-2.578373	1.687320	0.532015	-0.007821	-0.279716	0.000288	-0.009889	0.002092
493	2.498727	0.005000	9.272118	-2.449164	1.583481	0.532572	-0.007375	-0.280588	0.004533	-0.010269	0.017150
494	2.503727	0.005000	9.182160	-2.478780	1.638450	0.533130	-0.006928	-0.281460	-0.004111	-0.000657	0.006794
495	2.508727	0.005000	9.279342	-2.550600	1.664945	0.533688	-0.006482	-0.282332	0.005351	-0.012010	0.008712
496	2.513727	0.005000	9.182160	-2.514345	1.687320	0.534246	-0.006036	-0.283204	0.008310	-0.011801	0.005307
497	2.518727	0.005000	9.284344	-2.495824	1.624376	0.534423	-0.005590	-0.283864	0.013336	-0.016362	0.008244
498	2.523727	0.005000	9.325974	-2.459171	1.608840	0.534535	-0.005144	-0.284486	0.008048	-0.013117	0.013016
499	2.528727	0.005000	9.192931	-2.539829	1.637309	0.534646	-0.004698	-0.285109	0.006441	-0.009857	-0.004788
500	2.533727	0.005000	9.190540	-2.550600	1.648080	0.534758	-0.004252	-0.285732	0.006837	-0.017185	0.004505
501	2.538727	0.005000	9.266646	-2.538589	1.581611	0.534869	-0.003806	-0.286354	-0.004431	-0.007057	0.008904
502	2.543727	0.005000	9.328274	-2.550600	1.687320	0.534981	-0.003360	-0.286977	0.012074	-0.005035	-0.001023
503	2.548727	0.005000	9.297399	-2.432880	1.687320	0.535092	-0.002914	-0.287600	0.013134	-0.006142	0.008013
504	2.553727	0.005000	9.259037	-2.508153	1.687320	0.535204	-0.002468	-0.288222	0.006103	-0.001323	0.007995
505	2.558727	0.005000	9.291923	-2.515338	1.718603	0.535315	-0.002022	-0.288845	0.009559	-0.015284	0.009320
506	2.563727	0.005000	9.299880	-2.550600	1.720191	0.535427	-0.001576	-0.289467	0.012016	-0.008033	0.006512
507	2.568727	0.005000	9.221400	-2.541751	1.687320	0.535539	-0.001130	-0.290090	0.014980	-0.002662	0.006966
508	2.573727	0.005000	9.260640	-2.589840	1.737824	0.535650	-0.000684	-0.290713	0.006124	-0.005187	0.012475
509	2.578727	0.005000	9.235072	-2.550600	1.661752	0.535762	-0.000238	-0.291335	0.008221	-0.001796	0.005539
510	2.583727	0.005000	9.182160	-2.527445	1.747772	0.535873	-0.000104	-0.291609	0.013555	0.001298	0.012893
511	2.588727	0.005000	9.186661	-2.509109	1.745055	0.535985	-0.000327	-0.291484	0.007656	-0.006700	0.000725
512	2.593727	0.005000	9.223971	-2.451214	1.768371	0.536096	-0.000550	-0.291360	0.004331	-0.006470	-0.001083
513	2.598727	0.005000	9.158843	-2.495437	1.679925	0.536208	-0.000773	-0.291235	0.004071	-0.002647	0.006652
514	2.603727	0.005000	9.208043	-2.485477	1.739085	0.536319	-0.000996	-0.291111	-0.000418	-0.004231	0.003376
515	2.608727	0.005000	9.193127	-2.517698	1.586906	0.536430	-0.001219	-0.290986	0.014078	-0.001319	0.005836
516	2.613727	0.005000	9.260640	-2.480712	1.626025	0.536542	-0.001442	-0.290862	-0.000915	-0.005245	0.000572
517	2.618727	0.005000	9.182160	-2.550600	1.753396	0.536653	-0.001665	-0.290737	0.008638	-0.015301	0.014174
518	2.623727	0.005000	9.149718	-2.511360	1.755603	0.536765	-0.001888	-0.290612	0.007959	-0.007444	0.009998
519	2.628727	0.005000	9.298885	-2.550600	1.726560	0.536876	-0.002111	-0.290488	0.007715	-0.006939	0.013162
520	2.633727	0.005000	9.260640	-2.588433	1.688727	0.536988	-0.002334	-0.290363	0.004606	-0.005384	0.005709
521	2.638727	0.005000	9.185942	-2.511360	1.722778	0.537099	-0.002557	-0.290239	0.006850	0.000371	-0.005689
522	2.643727	0.005000	9.182160	-2.478292	1.753456	0.537211	-0.002780	-0.290114	0.003725	-0.008320	0.003326
523	2.648727	0.005000	9.173613	-2.581293	1.835733	0.537304	-0.002957	-0.289990	0.005649	-0.007177	0.002138
524	2.653727	0.005000	9.153974	-2.589840	1.844280	0.537192	-0.002623	-0.289865	0.008827	-0.019822	0.009438
525	2.658727	0.005000	9.207932	-2.602145	1.753495	0.537081	-0.002288	-0.289741	0.009017	-0.010614	0.004022
526	2.663727	0.005000	9.229790	-2.558087	1.671443	0.536969	-0.001953	-0.289616	-0.003051	-0.012366	-0.001867
527	2.668727	0.005000	9.161209	-2.508697	1.687320	0.536858	-0.001619	-0.289491	-0.000272	-0.007987	0.004100
528	2.673727	0.005000	9.200701	-2.509201	1.629539	0.536746	-0.001284	-0.289367	-0.008408	-0.014139	0.000343
529	2.678727	0.005000	9.237531	-2.511360	1.631949	0.536635	-0.000949	-0.289242	0.002732	-0.012136	0.010103
530	2.683727	0.005000	9.326988	-2.511360	1.673766	0.536523	-0.000614	-0.289118	-0.001509	-0.005166	0.003508
531	2.688727	0.005000	9.221400	-2.533718	1.659259	0.536412	-0.000280	-0.288993	0.001542	-0.012986	0.001231
532	2.693727	0.005000	9.278218	-2.581051	1.696109	0.536300	0.000055	-0.288868	0.003724	-0.017511	0.022051
533	2.698727	0.005000	9.260640	-2.550600	1.648080	0.536189	0.000390	-0.288744	-0.013086	-0.021222	-0.001871
534	2.703727	0.005000	9.186184	-2.523432	1.722536	0.536077	0.000724	-0.288619	0.001259	-0.022800	0.016493
535	2.708727	0.005000	9.263028	-2.512554	1.688514	0.535966	0.001059	-0.288495	0.000824	-0.009347	0.005552
536	2.713727	0.005000	9.263030	-2.512555	1.764605	0.535854	0.001394	-0.288370	0.005504	-0.022748	0.003207
537	2.718727	0.005000	9.221400	-2.504190	1.694490	0.535821	0.001336	-0.288684	-0.008717	-0.016958	0.004685
538	2.723727	0.005000	9.254680	-2.484040	1.642120	0.535821	0.001113	-0.289182	-0.004043	-0.013543	0.005478
539	2.728727	0.005000	9.308230	-2.651620	1.617190	0.535821	0.000890	-0.289680	0.001690	-0.015618	0.010446
540	2.733727	0.005000	9.221400	-2.600565	1.608840	0.535821	0.000666	-0.290178	-0.009299	-0.004251	0.001029
541	2.738727	0.005000	9.247525	-2.589734	1.674205	0.535821	0.000443	-0.290677	-0.002730	-0.013420	0.012434
542	2.743727	0.005000	9.197838	-2.550600	1.695205	0.535821	0.000220	-0.291175	-0.000828	-0.005991	0.014030
543	2.748727	0.005000	9.103680	-2.568681	1.645003	0.535821	-0.000003	-0.291673	0.001376	-0.010767	0.002725
544	2.753727	0.005000	9.083188	-2.490868	1.665083	0.535821	-0.000226	-0.292172	-0.000227	-0.006563	0.014818
545	2.758727	0.005000	9.198496	-2.495024	1.602272	0.535821	-0.000450	-0.292670	0.008635	-0.004230	-0.001941
546	2.763727	0.005000	9.184700	-2.525287	1.648080	0.535821	-0.000673	-0.293168	0.010732	-0.014861	0.012797
547	2.768727	0.005000	9.232776	-2.534111	1.737936	0.535821	-0.000896	-0.293667	0.012492	-0.007833	0.012665
548	2.773727	0.005000	9.182160	-2.541599	1.717559	0.535821	-0.001119	-0.294165	0.009808	-0.010023	0.006288
549	2.778727	0.005000	9.156141	-2.472120	1.700541	0.535821	-0.001342	-0.294663	0.012933	-0.005491	0.010138
550	2.783727	0.005000	9.186396	-2.437116	1.730796	0.535749	-0.001493	-0.294879	0.011468	-0.006494	0.005192
551	2.788727	0.005000	9.296189	-2.477657	1.803194	0.535526	-0.001493	-0.294505	0.011470	-0.005285	0.012029
552	2.793727	0.005000	9.298808	-2.551136	1.649688	0.535303	-0.001493	-0.294132	0.007296	-0.006492	0.005934
553	2.798727	0.005000	9.188067	-2.589840	1.687320	0.535080	-0.001493	-0.293758	0.008028	-0.000328	0.017885
554	2.803727	0.005000	9.192877	-2.550600	1.794323	0.534857	-0.001493	-0.293385	0.011766	-0.011804	0.000661
555	2.808727	0.005000	9.134782	-2.519498	1.726560	0.534634	-0.001493	-0.293011	0.006172	-0.007718	0.005938
556	2.813727	0.005000	9.182160	-2.561129	1.726560	0.534411	-0.001493	-0.292637	0.001557	-0.003857	0.007636
557	2.818727	0.005000	9.208496	-2.524264	1.648080	0.534188	-0.001493	-0.292264	0.001763	-0.002049	-0.000591
558	2.823727	0.005000	9.284586	-2.535306	1.624134	0.533965	-0.001493	-0.291890	0.005516	-0.012831	0.009794
559	2.828727	0.005000	9.299880	-2.632555	1.723085	0.533742	-0.001493	-0.291517	0.002485	-0.004711	0.004322
560	2.833727	0.005000	9.279594	-2.611458	1.629126	0.533519	-0.001493	-0.291143	0.001579	-0.019138	0.004114
561	2.838727	0.005000	9.244096	-2.567144	1.625384	0.533296	-0.001493	-0.290770	0.001257	-0.011525	0.012388
562	2.843727	0.005000	9.182160	-2.564731	1.659057	0.533073	-0.001493	-0.290396	-0.001408	-0.012563	0.009960
563	2.848727	0.005000	9.182160	-2.589840	1.671526	0.532850	-0.001493	-0.290023	0.001990	-0.009616	0.010385
564	2.853727	0.005000	9.290571	-2.571223	1.696629	0.533150	-0.002331	-0.289532	0.011491	-0.003371	0.012209
565	2.858727	0.005000	9.189062	-2.529893	1.705853	0.533485	-0.003223	-0.289034	0.006010	-0.013141	0.005673
566	2.863727	0.005000	9.108166	-2.441852	1.657052	0.533819	-0.004115	-0.288536	-0.002935	-0.009986	0.003491
567	2.868727	0.005000	9.219343	-2.550600	1.807097	0.534154	-0.005007	-0.288038	0.001468	-0.013962	0.007118
568	2.873727	0.005000	9.259967	-2.550600	1.844280	0.534488	-0.005899	-0.287540	0.010247	-0.006241	0.013830
569	2.878727	0.005000	9.182160	-2.589840	1.878039	0.534823	-0.006791	-0.287042	0.001202	-0.011764	0.002678
570	2.883727	0.005000	9.182160	-2.521675	1.658395	0.535157	-0.007683	-0.286544	0.008145	-0.015941	-0.001366
571	2.888727	0.005000	9.197286	-2.613954	1.584726	0.535492	-0.008575	-0.286045	0.009937	-0.011869	0.004995
572	2.893727	0.005000	9.132942	-2.511360	1.696625	0.535826	-0.009467	-0.285547	0.011705	-0.012519	0.002076
573	2.898727	0.005000	9.156746	-2.511360	1.686201	0.536161	-0.010359	-0.285049	-0.001906	-0.022611	0.015817
574	2.903727	0.005000	9.094604	-2.595846	1.639004	0.536495	-0.011251	-0.284551	0.003730	-0.016727	0.007650
575	2.908727	0.005000	9.147216	-2.493888	1.683024	0.536829	-0.012143	-0.284053	0.005518	-0.021135	0.007636
576	2.913727	0.005000	9.181706	-2.551054	1.570054	0.537164	-0.013036	-0.283555	-0.003557	-0.004350	0.006278
577	2.918727	0.005000	9.344354	-2.567603	1.659849	0.537189	-0.013186	-0.283402	0.010455	-0.014713	0.010615
578	2.923727	0.005000	9.296129	-2.525690	1.829950	0.536966	-0.012739	-0.283527	-0.001025	-0.000338	0.013830
579	2.928727	0.005000	9.158307	-2.617153	1.663467	0.536743	-0.012293	-0.283651	-0.008214	-0.005674	0.002089
580	2.933727	0.005000	9.152439	-2.492322	1.579119	0.536520	-0.011847	-0.283776	-0.000565	-0.015295	0.010257
581	2.938727	0.005000	9.182160	-2.529288	1.569600	0.536297	-0.011401	-0.283900	-0.007278	-0.001265	0.000995
582	2.943727	0.005000	9.161714	-2.467422	1.544455	0.536074	-0.010954	-0.284025	0.000469	-0.021428	0.004065
583	2.948727	0.005000	9.336839	-2.515922	1.657205	0.535851	-0.010508	-0.284150	0.002929	-0.011632	0.005498
584	2.953727	0.005000	9.338999	-2.511602	1.687683	0.535628	-0.010062	-0.284274	0.009774	-0.009674	0.009511
585	2.958727	0.005000	9.380871	-2.548089	1.729071	0.535404	-0.009616	-0.284399	0.011654	-0.006315	0.008874
586	2.963727	0.005000	9.236236	-2.516305	1.697210	0.535181	-0.009170	-0.284523	0.006042	-0.005615	0.003900
587	2.968727	0.005000	9.189521	-2.503999	1.711837	0.534958	-0.008723	-0.284648	0.017360	-0.012713	0.009345
588	2.973727	0.005000	9.250872	-2.599776	1.716792	0.534735	-0.008277	-0.284773	0.015299	-0.004502	0.004263
589	2.978727	0.005000	9.197036	-2.523542	1.846974	0.534512	-0.007831	-0.284897	0.022661	-0.007476	0.005265
590	2.983727	0.005000	9.157511	-2.511360	1.878988	0.534348	-0.007385	-0.284978	0.009623	-0.009586	0.000490
591	2.988727	0.005000	9.265360	-2.550600	1.827020	0.534459	-0.006939	-0.284854	0.014610	-0.008452	-0.001550
592	2.993727	0.005000	9.299941	-2.550539	1.687381	0.534571	-0.006493	-0.284729	0.016347	-0.011651	0.006607
593	2.998727	0.005000	9.221400	-2.572625	1.743775	0.534682	-0.006047	-0.284605	0.007878	-0.010996	-0.005079
594	3.003727	0.005000	9.172569	-2.526185	1.859105	0.534794	-0.005601	-0.284480	0.013418	-0.019842	0.004275
595	3.008727	0.005000	9.258749	-2.447221	1.805040	0.534905	-0.005155	-0.284355	-0.003290	-0.005542	0.005597
596	3.013727	0.005000	9.192220	-2.511360	1.794980	0.535017	-0.004709	-0.284231	-0.003954	-0.016576	0.000884
597	3.018727	0.005000	9.213715	-2.511360	1.695005	0.535128	-0.004263	-0.284106	0.005906	-0.014839	0.008061
598	3.023727	0.005000	9.221400	-2.516670	1.648080	0.535240	-0.003817	-0.283982	-0.003854	-0.009657	-0.001334
599	3.028727	0.005000	9.185080	-2.475040	1.696079	0.535351	-0.003370	-0.283857	-0.001054	-0.012336	0.014663
600	3.033727	0.005000	9.182237	-2.550523	1.687243	0.535463	-0.002924	-0.283733	-0.001725	-0.008929	0.000469
601	3.038727	0.005000	9.258341	-2.548301	1.685021	0.535575	-0.002478	-0.283608	-0.002304	-0.018848	0.003349
602	3.043727	0.005000	9.255951	-2.550600	1.648080	0.535686	-0.002032	-0.283484	-0.011462	-0.010413	0.013339
603	3.048727	0.005000	9.239447	-2.607887	1.641016	0.535798	-0.001586	-0.283359	-0.003114	-0.013955	0.000420
604	3.053727	0.005000	9.191615	-2.520815	1.569600	0.535821	-0.001405	-0.283727	-0.016905	-0.013263	0.002955
605	3.058727	0.005000	9.193989	-2.578011	1.659909	0.535821	-0.001293	-0.284225	-0.007287	-0.002048	0.000639
606	3.063727	0.005000	9.217981	-2.539799	1.737361	0.535821	-0.001182	-0.284723	-0.004618	-0.011156	0.005260
607	3.068727	0.005000	9.283085	-2.472120	1.580746	0.535821	-0.001070	-0.285221	-0.004879	0.004007	0.003633
608	3.073727	0.005000	9.279847	-2.472120	1.667287	0.535821	-0.000959	-0.285719	-0.004515	-0.004249	0.006747
609	3.078727	0.005000	9.243018	-2.532978	1.555974	0.535821	-0.000847	-0.286217	0.003197	0.002194	0.019482
610	3.083727	0.005000	9.245428	-2.526572	1.624052	0.535821	-0.000736	-0.286715	0.011072	0.000308	0.010754
611	3.088727	0.005000	9.168519	-2.511360	1.674521	0.535821	-0.000624	-0.287213	0.018795	-0.005509	0.021674
612	3.093727	0.005000	9.182160	-2.532143	1.569600	0.535821	-0.000512	-0.287712	0.007166	-0.002430	0.009660
613	3.098727	0.005000	9.182160	-2.519337	1.640103	0.535821	-0.000401	-0.288210	0.020523	-0.009833	0.008206
614	3.103727	0.005000	9.176654	-2.477626	1.491120	0.535821	-0.000289	-0.288708	0.011328	-0.004713	0.013157
615	3.108727	0.005000	9.142920	-2.475236	1.542825	0.535821	-0.000178	-0.289206	0.015928	-0.006200	-0.004490
616	3.113727	0.005000	9.142179	-2.472861	1.725078	0.535821	-0.000066	-0.289704	0.021548	-0.006725	0.016183
617	3.118727	0.005000	9.141267	-2.548947	1.723253	0.535821	-0.000045	-0.289949	0.012686	0.003892	0.009718
618	3.123727	0.005000	9.260640	-2.589840	1.757658	0.535821	-0.000157	-0.289825	0.012979	0.004939	0.011637
619	3.128727	0.005000	9.221400	-2.589840	1.693796	0.535821	-0.000268	-0.289700	0.007097	0.008556	0.011068
620	3.133727	0.005000	9.230292	-2.541708	1.696212	0.535821	-0.000380	-0.289576	0.014730	0.007781	0.006849
621	3.138727	0.005000	9.204758	-2.601139	1.715261	0.535821	-0.000492	-0.289451	0.006041	0.000874	0.016652
622	3.143727	0.005000	9.221400	-2.575832	1.726560	0.535821	-0.000603	-0.289326	0.005983	0.003749	0.008046
623	3.148727	0.005000	9.260640	-2.527758	1.664478	0.535821	-0.000715	-0.289202	0.003666	0.003665	0.015576
624	3.153727	0.005000	9.241867	-2.588146	1.627613	0.535821	-0.000826	-0.289077	-0.011199	0.003055	0.012932
625	3.158727	0.005000	9.321043	-2.511360	1.762714	0.535821	-0.000938	-0.288953	0.003201	-0.005702	0.007952
626	3.163727	0.005000	9.292014	-2.527062	1.750098	0.535821	-0.001050	-0.288828	0.001922	-0.009333	0.003735
627	3.168727	0.005000	9.286568	-2.459504	1.739176	0.535821	-0.001161	-0.288703	-0.001939	-0.002417	0.002006
628	3.173727	0.005000	9.221400	-2.550600	1.726560	0.535821	-0.001273	-0.288579	0.000069	-0.005890	0.001441
629	3.178727	0.005000	9.213212	-2.542412	1.796852	0.535821	-0.001384	-0.288454	-0.005501	-0.003531	0.000477
630	3.183727	0.005000	9.187932	-2.472120	1.732332	0.535830	-0.001490	-0.288307	-0.002441	-0.006899	-0.006900
631	3.188727	0.005000	9.107047	-2.439614	1.837546	0.536164	-0.001378	-0.287310	0.004849	-0.001901	0.000114
632	3.193727	0.005000	9.222349	-2.513258	1.689218	0.536499	-0.001267	-0.286314	0.001879	-0.010827	0.005741
633	3.198727	0.005000	9.185034	-2.514234	1.727997	0.536834	-0.001155	-0.285318	0.000604	-0.019667	0.004350
634	3.203727	0.005000	9.260640	-2.621456	1.694944	0.537168	-0.001044	-0.284322	-0.008186	-0.006439	0.008822
635	3.208727	0.005000	9.163336	-2.563149	1.786216	0.537503	-0.000932	-0.283326	0.006349	-0.019788	0.013655
636	3.213727	0.005000	9.212719	-2.511360	1.696001	0.537837	-0.000821	-0.282330	0.012217	-0.008786	-0.001912
637	3.218727	0.005000	9.271736	-2.489169	1.743609	0.538172	-0.000709	-0.281334	0.008531	-0.008062	0.010100
638	3.223727	0.005000	9.194393	-2.432880	1.725289	0.538506	-0.000598	-0.280338	0.012188	-0.011095	0.010892
639	3.228727	0.005000	9.228807	-2.542091	1.781716	0.538841	-0.000486	-0.279341	0.013239	-0.007388	0.002067
640	3.233727	0.005000	9.242314	-2.589840	1.765800	0.539175	-0.000375	-0.278345	0.010202	-0.012786	0.014264
641	3.238727	0.005000	9.163871	-2.571551	1.708271	0.539510	-0.000263	-0.277349	0.004170	-0.015252	0.005254
642	3.243727	0.005000	9.142920	-2.511360	1.844280	0.539845	-0.000152	-0.276353	0.012716	-0.018465	0.019047
643	3.248727	0.005000	9.195684	-2.537076	1.764469	0.540179	-0.000040	-0.275357	0.012035	-0.018449	0.014901
644	3.253727	0.005000	9.182160	-2.511360	1.698454	0.540013	-0.000215	-0.275240	0.016826	-0.020936	0.003645
645	3.258727	0.005000	9.198940	-2.567380	1.743340	0.539566	-0.000549	-0.275614	0.004266	-0.015508	0.012311
646	3.263727	0.005000	9.221400	-2.577872	1.765800	0.539120	-0.000884	-0.275987	0.011301	-0.020181	0.007134
647	3.268727	0.005000	9.249938	-2.589840	1.797905	0.538674	-0.001219	-0.276361	0.005804	-0.012726	0.007807
648	3.273727	0.005000	9.141757	-2.627917	1.688483	0.538227	-0.001554	-0.276735	0.005803	-0.016536	0.004437
649	3.278727	0.005000	9.255678	-2.589840	1.764560	0.537781	-0.001888	-0.277108	-0.000785	-0.021200	0.001335
650	3.283727	0.005000	9.189391	-2.664705	1.737406	0.537335	-0.002223	-0.277482	-0.004411	-0.015042	0.010719
651	3.288727	0.005000	9.203383	-2.635086	1.642074	0.536889	-0.002558	-0.277856	-0.008277	-0.018644	0.006092
652	3.293727	0.005000	9.260640	-2.567361	1.687320	0.536442	-0.002892	-0.278230	0.008574	-0.021662	0.003538
653	3.298727	0.005000	9.267614	-2.472120	1.648080	0.535996	-0.003227	-0.278603	-0.001880	-0.013759	0.003364
654	3.303727	0.005000	9.208451	-2.472120	1.752654	0.535550	-0.003562	-0.278977	0.003400	-0.015683	0.010094
655	3.308727	0.005000	9.221400	-2.464296	1.805040	0.535103	-0.003897	-0.279351	0.005289	-0.016413	0.004255
656	3.313727	0.005000	9.182160	-2.490240	1.729560	0.534657	-0.004231	-0.279724	0.004126	-0.023235	-0.001716
657	3.318727	0.005000	9.182160	-2.474389	1.765800	0.534240	-0.004683	-0.279771	0.026549	-0.023663	0.014712
658	3.323727	0.005000	9.260640	-2.456010	1.749690	0.533906	-0.005464	-0.278899	0.011301	-0.015886	0.012225
659	3.328727	0.005000	9.142920	-2.513281	1.636281	0.533571	-0.006244	-0.278028	0.019740	-0.017107	0.009540
660	3.333727	0.005000	9.154265	-2.606389	1.620185	0.533237	-0.007025	-0.277156	0.009144	-0.015410	0.001971
661	3.338727	0.005000	9.212445	-2.511360	1.705231	0.532902	-0.007805	-0.276284	0.015569	-0.015992	0.010388
662	3.343727	0.005000	9.188740	-2.603001	1.798460	0.532568	-0.008586	-0.275413	0.012674	-0.022228	0.006032
663	3.348727	0.005000	9.243879	-2.668320	1.648080	0.532233	-0.009366	-0.274541	0.006346	-0.016561	0.004098
664	3.353727	0.005000	9.182160	-2.706197	1.687320	0.531899	-0.010147	-0.273669	0.003801	-0.017234	0.019855
665	3.358727	0.005000	9.143949	-2.553686	1.572686	0.531564	-0.010927	-0.272798	-0.003920	-0.010059	0.007804
666	3.363727	0.005000	9.146339	-2.547181	1.566181	0.531230	-0.011708	-0.271926	-0.008341	-0.015969	0.002005
667	3.368727	0.005000	9.215606	-2.511360	1.642286	0.530895	-0.012488	-0.271054	0.003150	-0.018001	0.011323
668	3.373727	0.005000	9.190344	-2.566968	1.546728	0.530561	-0.013269	-0.270183	-0.001362	-0.015335	0.007864
669	3.378727	0.005000	9.299880	-2.529482	1.462439	0.530226	-0.014049	-0.269311	-0.003343	-0.014136	0.008627
670	3.383727	0.005000	9.286931	-2.550993	1.543702	0.529892	-0.014830	-0.268440	-0.005923	-0.001071	0.009929
671	3.388727	0.005000	9.236724	-2.502768	1.569600	0.529851	-0.014435	-0.269098	-0.010715	-0.012022	0.019590
672	3.393727	0.005000	9.203487	-2.532687	1.548273	0.529851	-0.013878	-0.269971	-0.000179	-0.006019	0.014623
673	3.398727	0.005000	9.142920	-2.627672	1.510036	0.529851	-0.013320	-0.270843	0.005096	-0.012077	-0.003957
674	3.403727	0.005000	9.103680	-2.612576	1.569600	0.529851	-0.012762	-0.271715	0.004329	-0.006510	0.008542
675	3.408727	0.005000	9.145966	-2.603935	1.555505	0.529851	-0.012204	-0.272587	0.005532	-0.005449	0.002794
676	3.413727	0.005000	9.182160	-2.656638	1.581282	0.529851	-0.011647	-0.273459	0.006998	-0.005416	0.002127
677	3.418727	0.005000	9.230674	-2.599114	1.648080	0.529851	-0.011089	-0.274331	0.013251	0.007528	-0.001950
678	3.423727	0.005000	9.247086	-2.576286	1.595286	0.529851	-0.010531	-0.275203	0.011393	0.004193	0.004720
679	3.428727	0.005000	9.186562	-2.520164	1.574002	0.529851	-0.009973	-0.276075	0.003849	0.007886	0.005998
680	3.433727	0.005000	9.221400	-2.589840	1.610852	0.529851	-0.009416	-0.276947	0.004045	0.006472	-0.003607
681	3.438727	0.005000	9.221400	-2.667585	1.570335	0.529851	-0.008858	-0.277819	0.000158	-0.002748	0.000379
682	3.443727	0.005000	9.148491	-2.699204	1.491120	0.529851	-0.008300	-0.278691	-0.007588	0.004433	-0.006823
683	3.448727	0.005000	9.221400	-2.629080	1.564410	0.529851	-0.007743	-0.279563	-0.002721	0.006686	0.002278
684	3.453727	0.005000	9.260640	-2.668320	1.561628	0.530073	-0.007129	-0.280186	-0.008173	0.012399	0.003454
685	3.458727	0.005000	9.171798	-2.579478	1.666596	0.530519	-0.006461	-0.280560	0.011838	0.026325	-0.008808
686	3.463727	0.005000	9.116417	-2.693794	1.582337	0.530965	-0.005792	-0.280933	-0.002128	0.011931	0.003788
687	3.468727	0.005000	9.103680	-2.565727	1.530360	0.531411	-0.005123	-0.281306	0.009613	0.028533	-0.007108
688	3.473727	0.005000	9.103680	-2.568102	1.608840	0.531857	-0.004454	-0.281680	0.010327	0.014153	0.003619
689	3.478727	0.005000	9.161723	-2.550055	1.628732	0.532302	-0.003785	-0.282053	0.012787	0.026244	-0.000092
690	3.483727	0.005000	9.199133	-2.533627	1.631107	0.532748	-0.003117	-0.282427	0.013491	0.024521	-0.002357
691	3.488727	0.005000	9.314478	-2.653722	1.559556	0.533194	-0.002448	-0.282800	0.012684	0.029144	0.007734
692	3.493727	0.005000	9.275465	-2.629080	1.608840	0.533640	-0.001779	-0.283173	0.008732	0.024122	-0.006356
693	3.498727	0.005000	9.270117	-2.550600	1.618317	0.534086	-0.001110	-0.283547	0.005441	0.027811	0.001354
694	3.503727	0.005000	9.221400	-2.550600	1.751659	0.534532	-0.000441	-0.283920	0.002935	0.034819	0.004873
695	3.508727	0.005000	9.265294	-2.545946	1.696629	0.534977	0.000227	-0.284293	0.013801	0.026410	-0.000908
696	3.513727	0.005000	9.179910	-2.583091	1.772549	0.535423	0.000896	-0.284667	0.006831	0.028735	-0.001726
697	3.518727	0.005000	9.299214	-2.433046	1.922594	0.535869	0.001493	-0.285040	0.001556	0.028117	-0.017700
698	3.523727	0.005000	9.339120	-2.472120	1.883520	0.536315	0.001493	-0.285414	0.009205	0.024752	-0.004972
699	3.528727	0.005000	9.182160	-2.496566	1.849211	0.536761	0.001493	-0.285787	0.008814	0.028045	-0.011872
700	3.533727	0.005000	9.221400	-2.525973	1.883520	0.537207	0.001493	-0.286161	0.010947	0.021475	-0.001138
701	3.538727	0.005000	9.172010	-2.521057	1.834583	0.537653	0.001493	-0.286534	0.014514	0.023174	0.003787
702	3.543727	0.005000	9.197257	-2.487217	1.937857	0.538099	0.001493	-0.286908	0.009863	0.015767	0.000897
703	3.548727	0.005000	9.231717	-2.432880	1.947538	0.538545	0.001493	-0.287282	0.019788	0.018598	-0.000611
704	3.553727	0.005000	9.182160	-2.472120	1.900826	0.538991	0.001493	-0.287655	0.021005	0.010690	0.000658
705	3.558727	0.005000	9.162372	-2.451995	1.864068	0.539437	0.001493	-0.288029	0.024266	0.010809	0.000156
706	3.563727	0.005000	9.216914	-2.511360	1.883520	0.539883	0.001493	-0.288402	0.021861	0.002003	0.007941
707	3.568727	0.005000	9.329827	-2.541307	1.976973	0.540329	0.001493	-0.288776	0.005359	-0.007289	0.010218
708	3.573727	0.005000	9.337574	-2.589840	2.027915	0.540775	0.001493	-0.289149	-0.002212	0.003270	0.016376
709	3.578727	0.005000	9.368331	-2.530541	1.951971	0.541221	0.001493	-0.289523	0.005576	-0.007729	-0.009256
710	3.583727	0.005000	9.229054	-2.472120	1.922760	0.541667	0.001493	-0.289896	0.005984	-0.018631	0.004937
711	3.588727	0.005000	9.265904	-2.443409	1.899313	0.541388	0.001493	-0.290180	-0.014313	-0.016973	-0.001436
712	3.593727	0.005000	9.266419	-2.508471	1.953332	0.540830	0.001493	-0.290429	-0.005630	-0.025703	0.014988
713	3.598727	0.005000	9.260640	-2.433379	1.922261	0.540272	0.001493	-0.290678	-0.001183	-0.020327	0.006312
714	3.603727	0.005000	9.223745	-2.435225	1.883520	0.539714	0.001493	-0.290927	0.000209	-0.023856	0.000981
715	3.608727	0.005000	9.226120	-2.462681	1.927480	0.539157	0.001493	-0.291177	0.001996	-0.030919	0.005459
716	3.613727	0.005000	9.221400	-2.511360	1.858500	0.538599	0.001493	-0.291426	-0.009439	-0.025798	-0.002845
717	3.618727	0.005000	9.201130	-2.511360	1.824010	0.538041	0.001493	-0.291675	-0.003207	-0.036744	0.012828
718	3.623727	0.005000	9.139305	-2.523235	1.844280	0.537483	0.001493	-0.291924	-0.007944	-0.030123	0.011920
719	3.628727	0.005000	9.221400	-2.511360	1.869270	0.536925	0.001493	-0.292173	0.000099	-0.040850	0.007842
720	3.633727	0.005000	9.182160	-2.556560	1.821680	0.536368	0.001493	-0.292422	0.000495	-0.040012	0.025899
721	3.638727	0.005000	9.220190	-2.610065	1.745575	0.535810	0.001493	-0.292671	0.006158	-0.034291	0.016974
722	3.643727	0.005000	9.221400	-2.572255	1.769871	0.535252	0.001493	-0.292920	0.001453	-0.043450	0.011523
723	3.648727	0.005000	9.245468	-2.520255	1.672148	0.534694	0.001493	-0.293170	-0.014293	-0.040661	0.002225
724	3.653727	0.005000	9.274353	-2.536887	1.635316	0.534328	0.001378	-0.293247	0.003678	-0.047549	0.027113
725	3.658727	0.005000	9.299880	-2.668320	1.697670	0.534328	0.001043	-0.292998	-0.002444	-0.039451	0.005752
726	3.663727	0.005000	9.331269	-2.629080	1.577451	0.534328	0.000709	-0.292749	-0.010980	-0.037421	0.011735
727	3.668727	0.005000	9.255164	-2.545124	1.659032	0.534328	0.000374	-0.292500	0.000622	-0.046813	0.012661
728	3.673727	0.005000	9.179074	-2.469034	1.572686	0.534328	0.000040	-0.292251	-0.009774	-0.042277	0.009957
729	3.678727	0.005000	9.182160	-2.511360	1.647369	0.534328	-0.000295	-0.292002	-0.008369	-0.044846	0.018592
730	3.683727	0.005000	9.182160	-2.586442	1.608840	0.534328	-0.000629	-0.291753	-0.005827	-0.034059	0.012943
731	3.688727	0.005000	9.178057	-2.593943	1.530360	0.534328	-0.000964	-0.291504	-0.004919	-0.040508	0.016658
732	3.693727	0.005000	9.214880	-2.583320	1.536880	0.534328	-0.001298	-0.291255	-0.002305	-0.032830	0.015696
733	3.698727	0.005000	9.217863	-2.489972	1.560674	0.534328	-0.001633	-0.291006	-0.007264	-0.035165	0.011988
734	3.703727	0.005000	9.249300	-2.444220	1.569600	0.534328	-0.001968	-0.290757	0.003504	-0.032634	0.011197
735	3.708727	0.005000	9.207651	-2.472120	1.555851	0.534328	-0.002302	-0.290508	-0.003408	-0.021688	0.009827
736	3.713727	0.005000	9.142920	-2.409801	1.569600	0.534328	-0.002637	-0.290259	-0.002563	-0.024887	0.007325
737	3.718727	0.005000	9.120154	-2.474217	1.491120	0.534328	-0.002971	-0.290010	-0.001963	-0.012957	0.001669
738	3.723727	0.005000	9.221400	-2.547454	1.587647	0.534649	-0.002557	-0.290000	0.009021	-0.021240	0.012293
739	3.728727	0.005000	9.237057	-2.581913	1.546017	0.534984	-0.002111	-0.290000	0.003809	-0.009633	-0.000544
740	3.733727	0.005000	9.182160	-2.472120	1.543642	0.535318	-0.001665	-0.290000	0.004654	-0.006686	-0.000053
741	3.738727	0.005000	9.132028	-2.522252	1.547817	0.535653	-0.001218	-0.290000	0.009323	-0.008504	0.009251
742	3.743727	0.005000	9.142920	-2.637597	1.485946	0.535988	-0.000772	-0.290000	-0.001081	-0.001594	0.002088
743	3.748727	0.005000	9.176033	-2.622953	1.641953	0.536322	-0.000326	-0.290000	0.005495	0.001310	0.004573
744	3.753727	0.005000	9.257318	-2.553922	1.680675	0.536657	0.000120	-0.290000	0.011078	0.008470	0.001028
745	3.758727	0.005000	9.182160	-2.551519	1.570519	0.536992	0.000566	-0.290000	0.004934	0.003721	-0.002693
746	3.763727	0.005000	9.257705	-2.665385	1.608840	0.537327	0.001013	-0.290000	0.007864	0.004011	0.009398
747	3.768727	0.005000	9.146777	-2.554457	1.573457	0.537661	0.001459	-0.290000	0.004246	0.009825	-0.003010
748	3.773727	0.005000	9.182160	-2.530057	1.674855	0.537996	0.001905	-0.290000	0.014328	0.013107	0.012029
749	3.778727	0.005000	9.160367	-2.581117	1.617563	0.538331	0.002351	-0.290000	0.011615	0.020940	0.005381
750	3.783727	0.005000	9.114811	-2.522491	1.580731	0.538665	0.002797	-0.290000	0.010678	0.013281	-0.004138
751	3.788727	0.005000	9.129376	-2.485664	1.596688	0.538741	0.002856	-0.290072	0.014496	0.012099	0.000079
752	3.793727	0.005000	9.150254	-2.573887	1.632127	0.538630	0.002633	-0.290197	0.014234	0.016410	-0.002075
753	3.798727	0.005000	9.161285	-2.550600	1.708195	0.538518	0.002409	-0.290321	0.012865	0.005411	0.001379
754	3.803727	0.005000	9.163696	-2.569064	1.664232	0.538407	0.002186	-0.290446	0.011948	0.013636	0.005714
755	3.808727	0.005000	9.228903	-2.652452	1.671452	0.538295	0.001963	-0.290571	0.005798	0.012065	-0.003040
756	3.813727	0.005000	9.130963	-2.550600	1.714603	0.538183	0.001740	-0.290695	0.014269	0.012436	0.003018
757	3.818727	0.005000	9.142920	-2.455347	1.743333	0.538072	0.001517	-0.290820	0.009215	0.016583	0.003284
758	3.823727	0.005000	9.212581	-2.472120	1.774619	0.537960	0.001294	-0.290944	0.014039	0.012688	0.008412
759	3.828727	0.005000	9.161935	-2.472120	1.739237	0.537849	0.001071	-0.291069	0.010808	0.011270	-0.002259
760	3.833727	0.005000	9.221400	-2.472120	1.718664	0.537737	0.000848	-0.291194	0.017396	0.008539	-0.005361
761	3.838727	0.005000	9.142920	-2.473693	1.726560	0.537625	0.000624	-0.291318	0.015690	0.013451	0.000472
762	3.843727	0.005000	9.142920	-2.472946	1.688146	0.537514	0.000401	-0.291443	0.013151	0.012473	0.005380
763	3.848727	0.005000	9.146150	-2.547370	1.733021	0.537402	0.000178	-0.291567	0.006835	-0.000495	0.012091
764	3.853727	0.005000	9.182160	-2.595876	1.693356	0.537335	0.000000	-0.291417	0.000652	0.009601	-0.004177
765	3.858727	0.005000	9.269051	-2.589840	1.687320	0.537447	0.000000	-0.290172	0.001118	0.001408	-0.001388
766	3.863727	0.005000	9.260640	-2.511360	1.783438	0.537559	0.000000	-0.288926	-0.001126	-0.001280	0.004144
767	3.868727	0.005000	9.299880	-2.498184	1.791864	0.537670	0.000000	-0.287681	0.010806	0.001821	-0.006813
768	3.873727	0.005000	9.174052	-2.503252	1.765800	0.537782	0.000000	-0.286436	-0.000134	-0.001849	0.004871
769	3.878727	0.005000	9.182160	-2.511360	1.844280	0.537893	0.000000	-0.285191	0.001708	0.004833	-0.000564
770	3.883727	0.005000	9.241969	-2.511360	1.864849	0.538005	0.000000	-0.283946	0.005867	-0.004694	0.008149
771	3.888727	0.005000	9.244381	-2.534341	1.733281	0.538116	0.000000	-0.282700	0.006265	0.000082	0.005059
772	3.893727	0.005000	9.168310	-2.536750	1.765800	0.538228	0.000000	-0.281455	0.006221	-0.007660	0.007926
773	3.898727	0.005000	9.159287	-2.601277	1.793603	0.538339	0.000000	-0.280210	0.005977	0.004393	0.008384
774	3.903727	0.005000	9.151949	-2.589840	1.796011	0.538451	0.000000	-0.278965	0.008966	0.001051	0.010632
775	3.908727	0.005000	9.221400	-2.465506	1.831496	0.538562	0.000000	-0.277720	0.001895	-0.011464	0.014007
776	3.913727	0.005000	9.217240	-2.546440	1.805040	0.538674	0.000000	-0.276474	-0.001628	0.001678	0.005308
777	3.918727	0.005000	9.180390	-2.588070	1.683780	0.538785	0.000000	-0.275229	0.009887	-0.010631	0.013563
778	3.923727	0.005000	9.220175	-2.511972	1.647468	0.538533	-0.000091	-0.275914	0.002048	-0.002527	0.006186
779	3.928727	0.005000	9.221400	-2.511360	1.762770	0.538198	-0.000203	-0.277035	0.010089	-0.006788	0.008367
780	3.933727	0.005000	9.182160	-2.404510	1.760365	0.537864	-0.000314	-0.278156	0.007610	-0.013068	0.008762
781	3.938727	0.005000	9.307731	-2.417178	1.875669	0.537529	-0.000426	-0.279276	0.002836	-0.015732	0.002411
782	3.943727	0.005000	9.269119	-2.511360	1.776054	0.537195	-0.000537	-0.280397	0.013925	-0.016594	0.019515
783	3.948727	0.005000	9.221400	-2.563262	1.753138	0.536860	-0.000649	-0.281518	0.007724	-0.015895	0.005283
784	3.953727	0.005000	9.212868	-2.504538	1.741914	0.536526	-0.000760	-0.282638	0.011833	-0.025640	0.009927
785	3.958727	0.005000	9.221400	-2.472120	1.769552	0.536191	-0.000872	-0.283759	0.003056	-0.020357	0.019906
786	3.963727	0.005000	9.260640	-2.394638	1.844280	0.535857	-0.000983	-0.284880	0.011614	-0.022804	0.009893
787	3.968727	0.005000	9.254861	-2.499803	1.732339	0.535522	-0.001095	-0.286000	0.004053	-0.016434	0.021476
788	3.973727	0.005000	9.207044	-2.653964	1.701676	0.535187	-0.001206	-0.287121	0.002670	-0.017695	0.017446
789	3.978727	0.005000	9.236709	-2.538634	1.753834	0.534853	-0.001318	-0.288242	0.009096	-0.028110	0.012357
790	3.983727	0.005000	9.191751	-2.511360	1.668139	0.534518	-0.001430	-0.289362	-0.007304	-0.024548	0.021129
791	3.988727	0.005000	9.253439	-2.536199	1.694521	0.534424	-0.001878	-0.289946	0.003980	-0.033423	0.011563
792	3.993727	0.005000	9.251821	-2.480939	1.796221	0.534647	-0.002770	-0.289822	0.001222	-0.023323	0.017055
793	3.998727	0.005000	9.186170	-2.472120	1.689325	0.534870	-0.003663	-0.289697	-0.006323	-0.029224	0.014907
794	4.003727	0.005000	9.182977	-2.472120	1.610065	0.535093	-0.004555	-0.289573	-0.001992	-0.029824	0.021527
795	4.008727	0.005000	9.257857	-2.477687	1.718210	0.535317	-0.005447	-0.289448	-0.005293	-0.028512	0.020242
796	4.013727	0.005000	9.182160	-2.555774	1.794693	0.535540	-0.006340	-0.289323	0.007416	-0.027508	0.008453
797	4.018727	0.005000	9.159515	-2.543052	1.694868	0.535763	-0.007232	-0.289199	-0.005689	-0.033055	0.014415
798	4.023727	0.005000	9.211461	-2.560539	1.677896	0.535986	-0.008125	-0.289074	-0.001849	-0.022952	0.006550
799	4.028727	0.005000	9.209086	-2.538286	1.662693	0.536209	-0.009017	-0.288950	-0.005812	-0.026899	0.019163
800	4.033727	0.005000	9.270503	-2.526049	1.716697	0.536432	-0.009910	-0.288825	0.007221	-0.021670	0.011702
801	4.038727	0.005000	9.339120	-2.555683	1.726560	0.536655	-0.010802	-0.288700	0.009013	-0.029676	0.020129
802	4.043727	0.005000	9.201614	-2.609294	1.608507	0.536878	-0.011695	-0.288576	0.003066	-0.021781	0.015200
803	4.048727	0.005000	9.199556	-2.589840	1.569600	0.537101	-0.012587	-0.288451	-0.000592	-0.021246	0.004470
804	4.053727	0.005000	9.245619	-2.619883	1.578797	0.537301	-0.013398	-0.288314	0.009383	-0.019905	0.012751
805	4.058727	0.005000	9.221400	-2.602160	1.439560	0.537078	-0.012729	-0.287940	0.014669	-0.015736	0.009295
806	4.063727	0.005000	9.280069	-2.619174	1.501026	0.536855	-0.012060	-0.287566	0.006298	-0.021577	0.018940
807	4.068727	0.005000	9.228899	-2.526358	1.577099	0.536632	-0.011391	-0.287193	-0.003217	-0.012004	0.004267
808	4.073727	0.005000	9.211234	-2.634163	1.682237	0.536409	-0.010722	-0.286819	0.000222	-0.020112	0.003351
809	4.078727	0.005000	9.148276	-2.592518	1.650758	0.536186	-0.010053	-0.286446	0.007451	-0.010078	0.009126
810	4.083727	0.005000	9.260380	-2.629080	1.686799	0.535963	-0.009384	-0.286072	0.009357	-0.010924	0.007807
811	4.088727	0.005000	9.221400	-2.554836	1.534596	0.535740	-0.008715	-0.285699	0.000495	-0.012204	0.018561
812	4.093727	0.005000	9.260640	-2.524884	1.678304	0.535517	-0.008046	-0.285325	0.001460	-0.011249	0.010251
813	4.098727	0.005000	9.214517	-2.446646	1.661846	0.535294	-0.007377	-0.284952	0.007259	-0.016131	0.012452
814	4.103727	0.005000	9.133647	-2.532054	1.648080	0.535071	-0.006708	-0.284578	-0.002604	-0.013775	-0.003260
815	4.108727	0.005000	9.221400	-2.589840	1.597192	0.534848	-0.006039	-0.284204	0.000162	-0.006616	-0.008644
816	4.113727	0.005000	9.246602	-2.564638	1.712522	0.534625	-0.005370	-0.283831	0.002474	-0.001662	0.015101
817	4.118727	0.005000	9.165747	-2.494947	1.670907	0.534402	-0.004701	-0.283457	0.003446	0.003396	0.003971
818	4.123727	0.005000	9.200948	-2.589840	1.668532	0.534551	-0.004180	-0.283832	0.012793	-0.009046	0.006505
819	4.128727	0.005000	9.164098	-2.550600	1.765800	0.534886	-0.003734	-0.284579	-0.002242	-0.007051	0.007087
820	4.133727	0.005000	9.204528	-2.495958	1.789638	0.535221	-0.003288	-0.285326	0.007073	-0.002042	0.004486
821	4.138727	0.005000	9.208407	-2.498367	1.687320	0.535555	-0.002841	-0.286074	0.014996	0.003010	0.003647
822	4.143727	0.005000	9.124839	-2.461541	1.765800	0.535890	-0.002395	-0.286821	0.004509	0.006908	-0.003148
823	4.148727	0.005000	9.237745	-2.542428	1.703665	0.536225	-0.001949	-0.287569	0.009598	-0.005918	-0.000191
824	4.153727	0.005000	9.249264	-2.528424	1.754424	0.536560	-0.001502	-0.288316	0.011669	0.004644	-0.007379
825	4.158727	0.005000	9.182160	-2.625767	1.576226	0.536894	-0.001056	-0.289064	0.002487	-0.006427	0.000455
826	4.163727	0.005000	9.223246	-2.548754	1.608840	0.537229	-0.000610	-0.289811	0.006720	0.004581	0.002443
827	4.168727	0.005000	9.299880	-2.509890	1.684380	0.537564	-0.000164	-0.290559	0.013493	-0.003008	0.000899
828	4.173727	0.005000	9.268415	-2.519135	1.648080	0.537898	0.000283	-0.291306	0.011448	0.001788	0.009785
829	4.178727	0.005000	9.221400	-2.596132	1.681028	0.538233	0.000729	-0.292054	0.012279	0.010376	0.001714
830	4.183727	0.005000	9.260640	-2.441941	1.765800	0.538568	0.001175	-0.292801	0.013594	0.005803	0.005264
831	4.188727	0.005000	9.288429	-2.472120	1.703657	0.538806	0.001397	-0.293261	-0.004584	-0.001463	0.002853
832	4.193727	0.005000	9.299880	-2.509121	1.751974	0.538806	0.001062	-0.293012	-0.000294	0.002432	0.004374
833	4.198727	0.005000	9.159136	-2.449096	1.742776	0.538806	0.000727	-0.292763	0.001964	-0.004913	0.006746
834	4.203727	0.005000	9.241824	-2.530176	1.726560	0.538806	0.000393	-0.292514	0.007140	0.004313	-0.005153
835	4.208727	0.005000	9.296666	-2.571827	1.823053	0.538806	0.000058	-0.292265	0.002309	0.000861	0.000655
836	4.213727	0.005000	9.237001	-2.534999	1.820641	0.538806	-0.000276	-0.292016	0.001934	-0.001460	-0.004781
837	4.218727	0.005000	9.156117	-2.472120	1.791843	0.538806	-0.000611	-0.291767	-0.001683	-0.007896	0.007149
838	4.223727	0.005000	9.189032	-2.482909	1.776589	0.538806	-0.000945	-0.291518	-0.002770	-0.001109	0.000118
839	4.228727	0.005000	9.207284	-2.589840	1.726560	0.538806	-0.001280	-0.291269	-0.009746	-0.005242	0.004673
840	4.233727	0.005000	9.215431	-2.550600	1.714623	0.538806	-0.001614	-0.291020	0.000663	-0.004840	0.010622
841	4.238727	0.005000	9.189264	-2.465016	1.687320	0.538806	-0.001949	-0.290771	-0.000031	-0.015632	0.008741
842	4.243727	0.005000	9.258371	-2.398178	1.727695	0.538806	-0.002284	-0.290522	-0.001057	-0.009369	0.020294
843	4.248727	0.005000	9.144190	-2.550600	1.765800	0.538806	-0.002618	-0.290273	-0.000561	-0.011752	0.006925
844	4.253727	0.005000	9.146594	-2.515034	1.797691	0.538806	-0.002953	-0.290024	0.002999	-0.009617	0.015864
845	4.258727	0.005000	9.169978	-2.544509	1.687320	0.537597	-0.004294	-0.287076	-0.004441	-0.008693	0.017909
846	4.263727	0.005000	9.243646	-2.572846	1.718063	0.536259	-0.005744	-0.283839	0.004487	-0.004173	0.002205
847	4.268727	0.005000	9.182160	-2.618168	1.648080	0.534921	-0.007194	-0.280601	0.005322	0.000138	0.012747
848	4.273727	0.005000	9.208080	-2.537280	1.596240	0.533583	-0.008643	-0.277364	0.008241	-0.007705	0.010804
849	4.278727	0.005000	9.221400	-2.519318	1.522402	0.532245	-0.010093	-0.274126	0.012425	-0.012760	0.000421
850	4.283727	0.005000	9.137010	-2.511360	1.648080	0.530907	-0.011542	-0.270889	0.001269	-0.002965	0.009348
851	4.288727	0.005000	9.219533	-2.670187	1.724693	0.529569	-0.012992	-0.267651	0.006755	-0.006125	0.012217
852	4.293727	0.005000	9.283800	-2.573760	1.687320	0.528231	-0.014442	-0.264414	0.003133	-0.005939	0.011742
853	4.298727	0.005000	9.207695	-2.629080	1.595135	0.526893	-0.015891	-0.261177	0.003381	0.001721	-0.001684
854	4.303727	0.005000	9.165824	-2.589840	1.643196	0.525555	-0.017341	-0.257939	0.011895	-0.010552	0.009712
855	4.308727	0.005000	9.142920	-2.580900	1.678380	0.524217	-0.018790	-0.254702	0.004190	-0.005270	0.013136
856	4.313727	0.005000	9.208270	-2.557165	1.504250	0.522879	-0.020240	-0.251464	0.012516	-0.009266	0.006514
857	4.318727	0.005000	9.147095	-2.515535	1.643905	0.521541	-0.021690	-0.248227	0.011869	-0.007705	0.002294
858	4.323727	0.005000	9.184855	-2.511360	1.726560	0.520896	-0.021926	-0.247829	-0.001347	-0.018313	0.000510
859	4.328727	0.005000	9.222444	-2.587752	1.802952	0.520896	-0.021033	-0.250071	0.008673	-0.014827	0.001770
860	4.333727	0.005000	9.328818	-2.632514	1.687320	0.520896	-0.020141	-0.252314	0.001772	-0.012706	-0.000256
861	4.338727	0.005000	9.187969	-2.595649	1.787613	0.520896	-0.019248	-0.254556	0.004584	-0.014831	0.004839
862	4.343727	0.005000	9.236043	-2.496717	1.751157	0.520896	-0.018356	-0.256798	0.002505	-0.015700	0.005634
863	4.348727	0.005000	9.200252	-2.490212	1.747708	0.520896	-0.017463	-0.259041	-0.003361	-0.011683	0.005955
864	4.353727	0.005000	9.208436	-2.589840	1.687320	0.520896	-0.016571	-0.261283	0.003407	-0.016289	0.013322
865	4.358727	0.005000	9.323781	-2.589840	1.765800	0.520896	-0.015678	-0.263525	0.007482	-0.009593	-0.005782
866	4.363727	0.005000	9.260640	-2.571903	1.662650	0.520896	-0.014786	-0.265768	0.006409	-0.010246	0.002860
867	4.368727	0.005000	9.219946	-2.512814	1.627733	0.520896	-0.013894	-0.268010	0.010631	-0.013190	-0.002358
868	4.373727	0.005000	9.316363	-2.583565	1.726560	0.520896	-0.013001	-0.270252	0.006100	-0.014058	0.004317
869	4.378727	0.005000	9.296910	-2.589840	1.662150	0.520896	-0.012109	-0.272494	0.002854	-0.012513	0.006399
870	4.383727	0.005000	9.182160	-2.589840	1.636553	0.520896	-0.011216	-0.274737	-0.004074	-0.010488	-0.000785
871	4.388727	0.005000	9.212263	-2.640909	1.666354	0.520974	-0.010448	-0.276702	-0.001200	-0.016954	0.009608
872	4.393727	0.005000	9.175398	-2.518122	1.805040	0.521531	-0.010448	-0.276951	0.003406	-0.011776	-0.002973
873	4.398727	0.005000	9.234520	-2.537480	1.691693	0.522089	-0.010448	-0.277200	0.004822	-0.019057	0.003180
874	4.403727	0.005000	9.291893	-2.511360	1.720570	0.522646	-0.010448	-0.277449	0.002730	-0.009222	0.009803
875	4.408727	0.005000	9.220634	-2.550217	1.647697	0.523204	-0.010448	-0.277698	0.010808	-0.012887	0.001649
876	4.413727	0.005000	9.224201	-2.472120	1.642479	0.523761	-0.010448	-0.277947	0.005909	-0.016540	0.009503
877	4.418727	0.005000	9.294675	-2.477325	1.710944	0.524319	-0.010448	-0.278196	0.004666	-0.014404	0.000819
878	4.423727	0.005000	9.331499	-2.503739	1.694941	0.524876	-0.010448	-0.278445	0.004120	-0.014360	0.011197
879	4.428727	0.005000	9.269795	-2.482148	1.608840	0.525434	-0.010448	-0.278694	0.002877	-0.005087	0.001766
880	4.433727	0.005000	9.312322	-2.564955	1.662435	0.525991	-0.010448	-0.278943	0.016756	-0.013728	0.004776
881	4.438727	0.005000	9.197011	-2.599378	1.780651	0.526548	-0.010448	-0.279192	0.006853	-0.015398	0.004969
882	4.443727	0.005000	9.204137	-2.572577	1.704583	0.527106	-0.010448	-0.279441	-0.004395	-0.009284	0.005765
883	4.448727	0.005000	9.221400	-2.570166	1.785366	0.527663	-0.010448	-0.279690	0.001921	-0.021120	0.012962
884	4.453727	0.005000	9.339120	-2.550600	1.608840	0.528221	-0.010448	-0.279939	0.016652	-0.020615	0.006221
885	4.458727	0.005000	9.221400	-2.589840	1.637975	0.528947	-0.009943	-0.280658	0.014215	-0.017339	0.005275
886	4.463727	0.005000	9.275495	-2.565455	1.648080	0.529728	-0.009274	-0.281530	-0.001534	-0.009769	0.014959
887	4.468727	0.005000	9.250838	-2.511360	1.736362	0.530509	-0.008605	-0.282402	0.008781	-0.012354	0.003841
888	4.473727	0.005000	9.285025	-2.543173	1.704278	0.531290	-0.007935	-0.283274	-0.002051	-0.010800	0.007428
889	4.478727	0.005000	9.255603	-2.516397	1.687320	0.532071	-0.007266	-0.284146	-0.008602	-0.002208	0.004673
890	4.483727	0.005000	9.224062	-2.621093	1.645418	0.532852	-0.006597	-0.285018	0.000542	-0.012819	0.010931
891	4.488727	0.005000	9.339120	-2.589840	1.569313	0.533633	-0.005927	-0.285890	0.004470	-0.012467	0.007177
892	4.493727	0.005000	9.264895	-2.626953	1.678811	0.534413	-0.005258	-0.286762	0.010759	-0.014063	-0.001312
893	4.498727	0.005000	9.147452	-2.515892	1.682788	0.535194	-0.004589	-0.287634	0.008367	-0.005593	0.007725
894	4.503727	0.005000	9.189482	-2.565243	1.655402	0.535975	-0.003919	-0.288506	0.004472	-0.010018	-0.004386
895	4.508727	0.005000	9.113392	-2.501648	1.716848	0.536756	-0.003250	-0.289378	0.005136	-0.018118	0.007744
896	4.513727	0.005000	9.236467	-2.523447	1.648080	0.537537	-0.002581	-0.290250	0.012568	-0.008597	0.010040
897	4.518727	0.005000	9.260640	-2.476310	1.573790	0.538318	-0.001911	-0.291122	0.009599	-0.018353	0.006965
898	4.523727	0.005000	9.238252	-2.494508	1.670468	0.538806	-0.001451	-0.291667	0.010330	-0.013294	0.013617
899	4.528727	0.005000	9.142164	-2.531358	1.687320	0.538806	-0.001340	-0.291667	0.013859	-0.008556	-0.000091
900	4.533727	0.005000	9.103680	-2.450503	1.787417	0.538806	-0.001228	-0.291667	0.008847	-0.004887	0.001765
901	4.538727	0.005000	9.015864	-2.496408	1.765800	0.538806	-0.001117	-0.291667	0.003901	-0.003290	0.000255
902	4.543727	0.005000	9.207238	-2.445419	1.714021	0.538806	-0.001005	-0.291667	0.016378	-0.011407	-0.001464
903	4.548727	0.005000	9.231531	-2.492383	1.687320	0.538806	-0.000893	-0.291667	0.005435	-0.001123	0.001995
904	4.553727	0.005000	9.245207	-2.550600	1.742651	0.538806	-0.000782	-0.291667	0.002260	-0.003135	-0.003080
905	4.558727	0.005000	9.203402	-2.545289	1.619461	0.538806	-0.000670	-0.291667	-0.005803	-0.015147	0.003960
906	4.563727	0.005000	9.173583	-2.472120	1.684461	0.538806	-0.000559	-0.291667	0.003407	-0.005310	0.002834
907	4.568727	0.005000	9.104648	-2.512812	1.647596	0.538806	-0.000447	-0.291667	-0.000853	-0.008552	0.001094
908	4.573727	0.005000	9.256783	-2.591768	1.608840	0.538806	-0.000336	-0.291667	-0.004783	-0.006168	0.003367
909	4.578727	0.005000	9.142920	-2.554933	1.691653	0.538806	-0.000224	-0.291667	-0.005377	-0.004713	0.009134
910	4.583727	0.005000	9.149656	-2.504624	1.570779	0.538806	-0.000113	-0.291667	0.004408	-0.007900	0.004425
911	4.588727	0.005000	9.290728	-2.493056	1.608840	0.538806	-0.000001	-0.291667	-0.000244	-0.003237	0.001834
912	4.593727	0.005000	9.267637	-2.483679	1.715001	0.538585	-0.000111	-0.291667	-0.003944	-0.010717	0.003200
913	4.598727	0.005000	9.235373	-2.486093	1.676025	0.538362	-0.000222	-0.291667	0.003809	-0.009176	0.002207
914	4.603727	0.005000	9.260640	-2.511360	1.687320	0.538139	-0.000334	-0.291667	0.007940	-0.002090	0.007841
915	4.608727	0.005000	9.163130	-2.491150	1.649260	0.537916	-0.000445	-0.291667	0.001698	-0.002082	0.005582
916	4.613727	0.005000	9.242820	-2.532780	1.687320	0.537693	-0.000557	-0.291667	0.015354	-0.007538	0.003719
917	4.618727	0.005000	9.260640	-2.519710	1.781245	0.537470	-0.000668	-0.291667	0.012907	-0.008238	0.005751
918	4.623727	0.005000	9.260640	-2.537470	1.700375	0.537246	-0.000780	-0.291667	0.012479	-0.006370	0.008029
919	4.628727	0.005000	9.182160	-2.618400	1.705200	0.537023	-0.000892	-0.291667	0.019772	-0.007518	0.002458
920	4.633727	0.005000	9.229328	-2.566455	1.679392	0.536800	-0.001003	-0.291667	0.012380	-0.004631	0.004798
921	4.638727	0.005000	9.215888	-2.516872	1.614352	0.536577	-0.001115	-0.291667	0.000433	-0.008581	0.003222
922	4.643727	0.005000	9.221400	-2.553707	1.690427	0.536354	-0.001226	-0.291667	0.005684	-0.006790	0.009952
923	4.648727	0.005000	9.374915	-2.589151	1.727249	0.536131	-0.001338	-0.291667	0.014638	-0.006659	0.001160
924	4.653727	0.005000	9.182160	-2.550600	1.765800	0.535908	-0.001450	-0.291667	0.010937	-0.005532	0.016380
925	4.658727	0.005000	9.111849	-2.581671	1.761716	0.535753	-0.001561	-0.291591	0.005506	-0.005114	-0.001814
926	4.663727	0.005000	9.214941	-2.511360	1.634677	0.535641	-0.001673	-0.291466	-0.000680	-0.010674	-0.000430
927	4.668727	0.005000	9.269489	-2.411339	1.726560	0.535530	-0.001784	-0.291342	-0.002649	-0.009824	0.009775
928	4.673727	0.005000	9.232760	-2.555760	1.715200	0.535418	-0.001896	-0.291217	-0.012352	-0.011496	0.006060
929	4.678727	0.005000	9.325356	-2.564364	1.648080	0.535307	-0.002007	-0.291093	-0.002136	-0.017113	0.011588
930	4.683727	0.005000	9.253753	-2.589840	1.703497	0.535195	-0.002118	-0.290968	-0.008469	-0.013146	-0.006776
931	4.688727	0.005000	9.198680	-2.668320	1.648080	0.535084	-0.002230	-0.290844	0.000270	-0.015570	0.007724
932	4.693727	0.005000	9.203157	-2.532357	1.666323	0.534972	-0.002341	-0.290719	0.007845	-0.007016	0.003544
933	4.698727	0.005000	9.190412	-2.511360	1.585431	0.534860	-0.002453	-0.290595	0.010193	-0.016422	0.006457
934	4.703727	0.005000	9.287173	-2.511360	1.687880	0.534749	-0.002564	-0.290470	0.008274	-0.009547	0.003777
935	4.708727	0.005000	9.221400	-2.511360	1.687320	0.534637	-0.002676	-0.290345	-0.000436	-0.015532	0.005831
936	4.713727	0.005000	9.260640	-2.502859	1.670317	0.534526	-0.002787	-0.290221	0.007315	-0.011755	0.012247
937	4.718727	0.005000	9.221400	-2.472120	1.681209	0.534414	-0.002899	-0.290096	0.005314	-0.002360	0.001617
938	4.723727	0.005000	9.264376	-2.511360	1.616313	0.534429	-0.002909	-0.290056	0.016413	-0.013961	0.003565
939	4.728727	0.005000	9.339120	-2.511360	1.687320	0.534875	-0.002575	-0.290306	0.004071	-0.005859	0.009729
940	4.733727	0.005000	9.263635	-2.511360	1.687320	0.535322	-0.002240	-0.290555	0.009978	-0.005283	0.011279
941	4.738727	0.005000	9.331375	-2.503615	1.612713	0.535768	-0.001905	-0.290804	-0.001323	-0.012877	0.012813
942	4.743727	0.005000	9.365835	-2.563125	1.674795	0.536214	-0.001570	-0.291053	0.017141	-0.005493	0.003928
943	4.748727	0.005000	9.277915	-2.502722	1.634753	0.536661	-0.001236	-0.291302	0.014726	-0.006976	0.000830
944	4.753727	0.005000	9.243455	-2.595997	1.591655	0.537107	-0.000901	-0.291551	0.005116	-0.005617	0.004065
945	4.758727	0.005000	9.182160	-2.577405	1.621275	0.537553	-0.000566	-0.291800	0.015505	-0.001625	0.006267
946	4.763727	0.005000	9.205607	-2.550600	1.718422	0.537999	-0.000232	-0.292049	0.011262	-0.007785	0.007313
947	4.768727	0.005000	9.242472	-2.529528	1.729464	0.538446	0.000103	-0.292298	0.008646	-0.000874	0.002999
948	4.773727	0.005000	9.260640	-2.589840	1.726560	0.538892	0.000438	-0.292548	0.013813	-0.010947	0.017410
949	4.778727	0.005000	9.214238	-2.566639	1.694482	0.539338	0.000773	-0.292797	0.006828	-0.007921	0.005154
950	4.783727	0.005000	9.221400	-2.511360	1.765800	0.539785	0.001107	-0.293046	0.008234	-0.011369	0.010855
951	4.788727	0.005000	9.232618	-2.589840	1.659298	0.540231	0.001442	-0.293295	0.008536	-0.009294	0.011345
952	4.793727	0.005000	9.239007	-2.541797	1.587207	0.540015	0.001304	-0.292594	0.000255	-0.002869	0.008415
953	4.798727	0.005000	9.234194	-2.550600	1.660874	0.539681	0.001081	-0.291722	0.003711	-0.014311	0.010517
954	4.803727	0.005000	9.221400	-2.546667	1.867788	0.539346	0.000857	-0.290850	-0.001561	-0.008165	0.001391
955	4.808727	0.005000	9.183718	-2.591398	1.684204	0.539011	0.000634	-0.289978	0.008507	-0.013744	0.009142
956	4.813727	0.005000	9.183002	-2.590682	1.724035	0.538677	0.000411	-0.289106	-0.004913	-0.006360	0.005636
957	4.818727	0.005000	9.182160	-2.593086	1.808286	0.538342	0.000188	-0.288234	-0.000961	-0.010275	0.006224
958	4.823727	0.005000	9.182160	-2.544937	1.659405	0.538007	-0.000035	-0.287362	0.000352	-0.013585	0.009920
959	4.828727	0.005000	9.213332	-2.519428	1.679252	0.537672	-0.000258	-0.286490	-0.000817	-0.012004	0.009902
960	4.833727	0.005000	9.171677	-2.461637	1.648080	0.537338	-0.000482	-0.285618	0.002077	-0.018391	0.015269
961	4.838727	0.005000	9.169269	-2.511360	1.674429	0.537003	-0.000705	-0.284746	-0.003360	-0.007346	0.012073
962	4.843727	0.005000	9.166579	-2.511360	1.773878	0.536668	-0.000928	-0.283874	0.011128	-0.006477	0.011673
963	4.848727	0.005000	9.160891	-2.550600	1.765800	0.536334	-0.001151	-0.283002	0.006265	-0.008202	0.002093
964	4.853727	0.005000	9.161814	-2.472120	1.707666	0.535999	-0.001374	-0.282130	0.008996	-0.003841	0.010128
965	4.858727	0.005000	9.165641	-2.511360	1.703839	0.535873	-0.001336	-0.281900	-0.000634	-0.007969	0.000761
966	4.863727	0.005000	9.131938	-2.536471	1.698302	0.535985	-0.001001	-0.282399	0.007493	-0.006191	0.000285
967	4.868727	0.005000	9.170406	-2.499606	1.687320	0.536096	-0.000667	-0.282897	0.013228	-0.019442	0.009369
968	4.873727	0.005000	9.152284	-2.629080	1.677956	0.536208	-0.000332	-0.283395	0.010660	-0.010665	0.005828
969	4.878727	0.005000	9.182160	-2.511360	1.648080	0.536319	0.000003	-0.283893	0.012969	-0.010990	0.004634
970	4.883727	0.005000	9.248060	-2.585647	1.648080	0.536431	0.000337	-0.284392	0.009720	-0.011282	0.002370
971	4.888727	0.005000	9.262416	-2.550600	1.724784	0.536542	0.000672	-0.284890	0.009168	-0.001756	-0.002591
972	4.893727	0.005000	9.222640	-2.627840	1.725940	0.536654	0.001007	-0.285388	0.013510	-0.010873	0.004506
973	4.898727	0.005000	9.224410	-2.586830	1.657111	0.536765	0.001341	-0.285886	0.005966	-0.004005	0.001693
974	4.903727	0.005000	9.159076	-2.550600	1.687320	0.536877	0.001676	-0.286385	0.007470	-0.017863	0.002363
975	4.908727	0.005000	9.205667	-2.487853	1.757934	0.536988	0.002011	-0.286883	0.008201	-0.012575	0.006799
976	4.913727	0.005000	9.132647	-2.432880	1.687320	0.537100	0.002346	-0.287381	0.005929	-0.008811	-0.001911
977	4.918727	0.005000	9.196026	-2.524047	1.766978	0.537211	0.002680	-0.287879	-0.001259	-0.014095	0.005729
978	4.923727	0.005000	9.245544	-2.511360	1.663176	0.537263	0.002955	-0.288344	-0.002373	-0.014522	0.003486
979	4.928727	0.005000	9.260640	-2.533092	1.669812	0.536706	0.002620	-0.288469	0.005133	-0.008228	0.007147
980	4.933727	0.005000	9.201481	-2.609161	1.687320	0.536148	0.002286	-0.288593	0.002913	-0.005639	0.002584
981	4.938727	0.005000	9.182160	-2.629080	1.664991	0.535591	0.001951	-0.288718	0.004547	-0.010639	0.009842
982	4.943727	0.005000	9.182160	-2.585584	1.829781	0.535033	0.001617	-0.288842	0.004220	-0.007174	0.009412
983	4.948727	0.005000	9.221400	-2.577745	1.648080	0.534476	0.001282	-0.288967	0.005953	-0.012171	0.009640
984	4.953727	0.005000	9.250127	-2.481696	1.608840	0.533918	0.000948	-0.289091	0.016546	-0.003249	0.007445
985	4.958727	0.005000	9.324749	-2.504175	1.694505	0.533361	0.000613	-0.289216	0.005603	-0.001119	0.001024
986	4.963727	0.005000	9.182160	-2.555410	1.574410	0.532803	0.000279	-0.289340	0.011786	-0.004879	0.008528
987	4.968727	0.005000	9.150181	-2.550600	1.721719	0.532246	-0.000056	-0.289465	0.006237	-0.011626	0.006765
988	4.973727	0.005000	9.143011	-2.472211	1.608749	0.531688	-0.000391	-0.289590	0.015529	-0.005543	-0.003629
989	4.978727	0.005000	9.257841	-2.514159	1.712567	0.531131	-0.000725	-0.289714	0.008666	-0.012020	0.011667
990	4.983727	0.005000	9.284314	-2.613514	1.653269	0.530573	-0.001060	-0.289839	0.003082	-0.010994	0.000080
991	4.988727	0.005000	9.236527	-2.574713	1.537924	0.530016	-0.001394	-0.289963	0.000267	-0.008449	0.003888
992	4.993727	0.005000	9.231354	-2.482074	1.657459	0.530087	-0.001414	-0.290176	0.010922	-0.014865	0.008673
993	4.998727	0.005000	9.312358	-2.539929	1.714082	0.530421	-0.001303	-0.290425	-0.000744	-0.019042	0.004219
994	5.003727	0.005000	9.142920	-2.565491	1.696778	0.530756	-0.001191	-0.290674	0.001258	-0.009738	0.014565
995	5.008727	0.005000	9.299880	-2.555239	1.704621	0.531091	-0.001080	-0.290923	0.007324	-0.009732	0.004970
996	5.013727	0.005000	9.280352	-2.511360	1.648080	0.531425	-0.000968	-0.291172	-0.004143	-0.017772	0.001852
997	5.018727	0.005000	9.204283	-2.528477	1.687320	0.531760	-0.000856	-0.291421	-0.002400	-0.013434	0.000197
998	5.023727	0.005000	9.157457	-2.501195	1.765800	0.532095	-0.000745	-0.291670	-0.001435	-0.011342	0.001993
999	5.028727	0.005000	9.366213	-2.532856	1.620987	0.532429	-0.000633	-0.291919	-0.001226	-0.005784	0.005531
1000	5.033727	0.005000	9.368588	-2.599612	1.657852	0.532764	-0.000522	-0.292169	-0.001676	-0.003219	0.009171
1001	5.038727	0.005000	9.245876	-2.589840	1.694702	0.533098	-0.000410	-0.292418	0.003638	-0.013006	0.010157
1002	5.043727	0.005000	9.152934	-2.555607	1.608840	0.533433	-0.000298	-0.292667	0.001136	-0.012685	-0.001861
1003	5.048727	0.005000	9.221400	-2.623816	1.645448	0.533768	-0.000187	-0.292916	0.004931	-0.013711	0.010924
1004	5.053727	0.005000	9.182160	-2.511118	1.531086	0.534102	-0.000075	-0.293165	-0.000664	-0.006439	0.007047
1005	5.058727	0.005000	9.182160	-2.546283	1.610999	0.534473	0.000036	-0.293252	0.013866	-0.007674	-0.001083
1006	5.063727	0.005000	9.191312	-2.550600	1.731136	0.534920	0.000148	-0.293003	0.010765	-0.009731	0.008182
1007	5.068727	0.005000	9.228767	-2.543233	1.782939	0.535366	0.000260	-0.292754	0.011373	-0.010019	-0.002594
1008	5.073727	0.005000	9.251243	-2.520757	1.765800	0.535812	0.000371	-0.292504	0.007332	-0.008818	0.002140
1009	5.078727	0.005000	9.237032	-2.523164	1.753996	0.536259	0.000483	-0.292255	0.002200	-0.009531	0.011178
1010	5.083727	0.005000	9.217987	-2.450510	1.665710	0.536705	0.000594	-0.292006	0.010635	-0.007553	0.018298
1011	5.088727	0.005000	9.221400	-2.579199	1.676679	0.537151	0.000706	-0.291757	0.004708	-0.010066	0.007749
1012	5.093727	0.005000	9.260640	-2.510664	1.608144	0.537597	0.000818	-0.291508	0.004684	-0.007667	0.002169
1013	5.098727	0.005000	9.186244	-2.550600	1.648080	0.538044	0.000929	-0.291259	0.010831	-0.007344	0.009335
1014	5.103727	0.005000	9.188529	-2.589840	1.702523	0.538490	0.001041	-0.291010	0.009414	-0.010510	-0.002484
1015	5.108727	0.005000	9.234213	-2.497746	1.712946	0.538936	0.001152	-0.290761	0.005804	-0.007427	-0.001319
1016	5.113727	0.005000	9.171722	-2.511360	1.726560	0.539383	0.001264	-0.290511	0.005339	-0.003546	0.004769
1017	5.118727	0.005000	9.150968	-2.503312	1.718512	0.539829	0.001375	-0.290262	0.000217	-0.010128	-0.001495
1018	5.123727	0.005000	9.294207	-2.511360	1.810713	0.540275	0.001487	-0.290013	0.004798	-0.013819	0.007606
1019	5.128727	0.005000	9.221400	-2.468837	1.876955	0.540088	0.000965	-0.290000	-0.010281	-0.002872	0.000698
1020	5.133727	0.005000	9.184883	-2.510452	1.804132	0.539865	0.000408	-0.290000	0.002672	-0.003788	0.001831
1021	5.138727	0.005000	9.262576	-2.472120	1.803104	0.539642	-0.000150	-0.290000	-0.005460	-0.005271	-0.005843
1022	5.143727	0.005000	9.260640	-2.537666	1.691631	0.539419	-0.000708	-0.290000	0.009484	-0.012025	-0.002796
1023	5.148727	0.005000	9.202264	-2.550600	1.648080	0.539195	-0.001265	-0.290000	0.002746	-0.010648	0.012660
1024	5.153727	0.005000	9.290804	-2.598916	1.726560	0.538972	-0.001823	-0.290000	0.002046	-0.008028	0.010125
1025	5.158727	0.005000	9.182160	-2.566907	1.742867	0.538749	-0.002380	-0.290000	0.010148	-0.009575	0.009973
1026	5.163727	0.005000	9.182160	-2.564609	1.765800	0.538526	-0.002938	-0.290000	0.007872	-0.000688	0.001716
1027	5.168727	0.005000	9.260640	-2.589840	1.703741	0.538303	-0.003495	-0.290000	0.004230	0.004043	0.014722
1028	5.173727	0.005000	9.260640	-2.591417	1.668488	0.538080	-0.004053	-0.290000	0.008263	0.005878	0.010734
1029	5.178727	0.005000	9.242642	-2.575087	1.859033	0.537857	-0.004611	-0.290000	0.012306	0.001355	0.008468
1030	5.183727	0.005000	9.252199	-2.535200	1.781200	0.537634	-0.005168	-0.290000	0.009468	-0.008405	0.015829
1031	5.188727	0.005000	9.234425	-2.616055	1.778991	0.537411	-0.005726	-0.290000	0.017836	0.000951	0.003830
1032	5.193727	0.005000	9.267977	-2.686291	1.705291	0.537125	-0.006158	-0.289090	0.010657	-0.002167	-0.000868
1033	5.198727	0.005000	9.204881	-2.542341	1.664599	0.536790	-0.006493	-0.287471	0.011783	0.000935	0.004925
1034	5.203727	0.005000	9.243032	-2.550600	1.681451	0.536456	-0.006827	-0.285851	0.007118	-0.005674	0.000383
1035	5.208727	0.005000	9.260640	-2.586346	1.683826	0.536121	-0.007162	-0.284232	0.007839	-0.009332	0.013235
1036	5.213727	0.005000	9.220742	-2.551258	1.805040	0.535786	-0.007497	-0.282612	0.005260	-0.002568	0.006221
1037	5.218727	0.005000	9.182160	-2.589840	1.655039	0.535452	-0.007832	-0.280993	0.003982	-0.003280	0.015328
1038	5.223727	0.005000	9.182160	-2.624965	1.683205	0.535117	-0.008166	-0.279373	-0.001052	-0.001933	0.004990
1039	5.228727	0.005000	9.182160	-2.563579	1.680830	0.534783	-0.008501	-0.277754	0.004501	-0.007138	0.007337
1040	5.233727	0.005000	9.251760	-2.481000	1.796160	0.534448	-0.008836	-0.276134	-0.006485	-0.009297	0.014441
1041	5.238727	0.005000	9.176684	-2.539345	1.726560	0.534113	-0.009170	-0.274515	-0.004472	-0.007516	0.004385
1042	5.243727	0.005000	9.193791	-2.497556	1.816671	0.533779	-0.009505	-0.272895	0.005934	-0.003708	0.006155
1043	5.248727	0.005000	9.237420	-2.550600	1.758599	0.533444	-0.009840	-0.271276	-0.005056	-0.004335	-0.004901
1044	5.253727	0.005000	9.260640	-2.593819	1.670684	0.533109	-0.010175	-0.269656	-0.001421	-0.015669	0.003517
1045	5.258727	0.005000	9.320916	-2.650116	1.747596	0.532693	-0.010530	-0.268105	-0.002134	-0.014978	0.007697
1046	5.263727	0.005000	9.275944	-2.550600	1.742354	0.531913	-0.010976	-0.266860	-0.004407	-0.005442	-0.006971
1047	5.268727	0.005000	9.260640	-2.588937	1.778278	0.531132	-0.011422	-0.265615	0.004958	-0.008928	0.002981
1048	5.273727	0.005000	9.243346	-2.561573	1.715587	0.530351	-0.011868	-0.264370	0.003563	-0.009670	-0.006824
1049	5.278727	0.005000	9.260640	-2.612168	1.608840	0.529571	-0.012314	-0.263125	0.008012	-0.008951	0.000541
1050	5.283727	0.005000	9.149001	-2.466039	1.614921	0.528790	-0.012760	-0.261880	0.008975	-0.005127	0.006657
1051	5.288727	0.005000	9.182160	-2.515051	1.691011	0.528010	-0.013206	-0.260635	0.007797	-0.021070	0.001415
1052	5.293727	0.005000	9.220084	-2.588524	1.765800	0.527229	-0.013652	-0.259389	0.011614	-0.006496	0.006980
1053	5.298727	0.005000	9.144007	-2.703214	1.651340	0.526449	-0.014098	-0.258144	0.007544	-0.007849	-0.001652
1054	5.303727	0.005000	9.146411	-2.668320	1.612331	0.525668	-0.014544	-0.256899	0.007412	-0.005928	0.003803
1055	5.308727	0.005000	9.188067	-2.583933	1.681413	0.524888	-0.014990	-0.255654	0.004887	-0.012914	-0.006500
1056	5.313727	0.005000	9.212717	-2.541917	1.704686	0.524107	-0.015436	-0.254409	0.000812	-0.019443	-0.001906
1057	5.318727	0.005000	9.265632	-2.578782	1.721568	0.523326	-0.015882	-0.253164	-0.002714	-0.005134	-0.001838
1058	5.323727	0.005000	9.339120	-2.564033	1.699694	0.522546	-0.016328	-0.251919	-0.006725	-0.005496	-0.002754
1059	5.328727	0.005000	9.260640	-2.503766	1.679726	0.522922	-0.015973	-0.253455	0.019005	-0.006190	0.008911
1060	5.333727	0.005000	9.302724	-2.553444	1.669122	0.523591	-0.015416	-0.255696	-0.006477	-0.003338	0.003784
1061	5.338727	0.005000	9.240052	-2.571188	1.747148	0.524260	-0.014858	-0.257938	-0.004655	-0.019325	0.005445
1062	5.343727	0.005000	9.299880	-2.488397	1.654766	0.524929	-0.014300	-0.260179	-0.001152	-0.005640	-0.002228
1063	5.348727	0.005000	9.234990	-2.589840	1.687320	0.525598	-0.013743	-0.262420	-0.000545	-0.004533	-0.002317
1064	5.353727	0.005000	9.221400	-2.567487	1.709673	0.526267	-0.013185	-0.264662	0.007370	-0.006776	0.009445
1065	5.358727	0.005000	9.238939	-2.511360	1.709021	0.526936	-0.012628	-0.266903	0.007479	-0.002723	-0.001653
1066	5.363727	0.005000	9.339120	-2.530421	1.648080	0.527605	-0.012070	-0.269144	0.011416	-0.003400	0.003280
1067	5.368727	0.005000	9.264543	-2.621274	1.765800	0.528274	-0.011513	-0.271386	0.005546	-0.000300	0.002958
1068	5.373727	0.005000	9.221400	-2.626055	1.806553	0.528943	-0.010955	-0.273627	0.022023	-0.002375	0.004070
1069	5.378727	0.005000	9.221400	-2.550600	1.767545	0.529612	-0.010398	-0.275868	0.013165	-0.002016	0.004535
1070	5.383727	0.005000	9.116842	-2.586550	1.837699	0.530281	-0.009840	-0.278110	0.009273	-0.005803	0.019301
1071	5.388727	0.005000	9.182160	-2.622984	1.726560	0.530950	-0.009282	-0.280351	0.013074	-0.008871	0.012552
1072	5.393727	0.005000	9.265995	-2.511360	1.748858	0.531481	-0.008725	-0.281667	0.005221	-0.006440	0.008269
1073	5.398727	0.005000	9.175504	-2.493843	1.698181	0.531816	-0.008167	-0.281667	0.005392	-0.011108	0.006012
1074	5.403727	0.005000	9.208164	-2.498124	1.700556	0.532151	-0.007609	-0.281667	0.004094	-0.006109	0.003493
1075	5.408727	0.005000	9.182160	-2.527169	1.655701	0.532485	-0.007052	-0.281667	0.004124	-0.015231	0.001751
1076	5.413727	0.005000	9.163941	-2.553402	1.684518	0.532820	-0.006494	-0.281667	0.001257	-0.012504	0.008092
1077	5.418727	0.005000	9.221400	-2.552606	1.666697	0.533155	-0.005936	-0.281667	-0.004130	-0.009099	0.007662
1078	5.423727	0.005000	9.244433	-2.518186	1.602014	0.533489	-0.005378	-0.281667	0.001301	-0.014884	0.009558
1079	5.428727	0.005000	9.299880	-2.485750	1.622470	0.533824	-0.004821	-0.281667	-0.006751	-0.004778	0.001545
1080	5.433727	0.005000	9.260640	-2.589840	1.659335	0.534159	-0.004263	-0.281667	0.003736	-0.018376	0.006415
1081	5.438727	0.005000	9.151785	-2.480985	1.669591	0.534494	-0.003705	-0.281667	-0.004523	-0.011931	0.004451
1082	5.443727	0.005000	9.142920	-2.544110	1.687320	0.534828	-0.003147	-0.281667	-0.002852	-0.012208	0.014740
1083	5.448727	0.005000	9.256541	-2.589840	1.639881	0.535163	-0.002590	-0.281667	0.010620	-0.012158	0.015882
1084	5.453727	0.005000	9.217588	-2.472120	1.611381	0.535498	-0.002032	-0.281667	0.024126	-0.006008	0.004437
1085	5.458727	0.005000	9.103680	-2.586482	1.649199	0.535825	-0.001485	-0.281688	-0.001004	-0.002129	0.012644
1086	5.463727	0.005000	9.217890	-2.550600	1.580129	0.535936	-0.001262	-0.282311	0.013330	-0.005746	0.009539
1087	5.468727	0.005000	9.248871	-2.656551	1.648080	0.536048	-0.001039	-0.282934	0.015616	-0.007306	0.004417
1088	5.473727	0.005000	9.291605	-2.589840	1.670771	0.536159	-0.000816	-0.283557	0.011336	-0.021899	0.013753
1089	5.478727	0.005000	9.232050	-2.561250	1.648080	0.536271	-0.000593	-0.284180	0.008916	-0.009527	0.006843
1090	5.483727	0.005000	9.208544	-2.589840	1.582792	0.536382	-0.000369	-0.284802	0.021995	-0.013153	0.013381
1091	5.488727	0.005000	9.182160	-2.550600	1.726560	0.536494	-0.000146	-0.285425	0.019878	-0.014656	0.009458
1092	5.493727	0.005000	9.142920	-2.553814	1.765800	0.536605	0.000077	-0.286048	0.020839	-0.006347	0.005667
1093	5.498727	0.005000	9.142920	-2.531784	1.670111	0.536717	0.000300	-0.286671	0.017283	-0.009419	0.000847
1094	5.503727	0.005000	9.182160	-2.495144	1.703536	0.536828	0.000523	-0.287294	0.023203	-0.013309	0.003267
1095	5.508727	0.005000	9.168319	-2.488246	1.648080	0.536940	0.000746	-0.287917	0.020226	-0.012601	0.008053
1096	5.513727	0.005000	9.193611	-2.589840	1.625177	0.537051	0.000970	-0.288539	0.003668	-0.016412	0.004757
1097	5.518727	0.005000	9.281727	-2.550600	1.536502	0.537163	0.001193	-0.289162	0.003080	-0.016632	0.004947
