# FOX Logger (IMU file)
# (c) INRIA 2011-2014
# File created from file sensbiotk output
#
# File format:
# id	t	dt	ax	ay	az	mx	my	mz	gx	gy	gz
#
# Units:
#	Time: s
#	Acceleration: m.s^-2
#	Magneto: gauss
#	Gyrometer: rad/s
#
1	0.019745	0.019745	0.289632	9.667992	2.520696	-0.744776	-0.588060	0.725000	0.013032	-0.008905	0.008983
2	0.024745	0.005000	0.353160	9.783299	2.563139	-0.744447	-0.587840	0.724877	0.008845	-0.011528	-0.000168
3	0.029745	0.005000	0.264085	9.760165	2.579245	-0.744118	-0.587621	0.724755	0.014702	-0.015299	0.001308
4	0.034745	0.005000	0.210877	9.692280	2.472120	-0.743788	-0.587401	0.724632	0.022318	-0.015240	0.000864
5	0.039745	0.005000	0.156960	9.646796	2.556844	-0.743459	-0.587182	0.724510	0.020261	-0.001900	0.005008
6	0.044745	0.005000	0.125375	9.653040	2.511360	-0.743130	-0.586962	0.724387	0.020483	-0.007329	0.011104
7	0.049745	0.005000	0.156960	9.731520	2.623498	-0.742801	-0.586743	0.724264	0.022141	-0.014741	0.006399
8	0.054745	0.005000	0.118241	9.692801	2.472641	-0.742471	-0.586523	0.724142	0.025152	-0.015638	0.004137
9	0.059745	0.005000	0.230510	9.768295	2.553065	-0.742142	-0.586304	0.724019	0.014418	-0.020652	0.005936
10	0.064745	0.005000	0.279549	9.765891	2.472120	-0.741813	-0.586084	0.723897	0.022824	-0.016248	0.003827
11	0.069745	0.005000	0.235440	9.745146	2.583027	-0.741484	-0.585865	0.723774	0.019860	-0.022715	-0.000591
12	0.074745	0.005000	0.186972	9.752303	2.511360	-0.741155	-0.585645	0.723652	0.020790	-0.005046	-0.002950
13	0.079745	0.005000	0.196200	9.743017	2.550600	-0.740825	-0.585426	0.723529	0.026671	-0.022522	0.005803
14	0.084745	0.005000	0.339580	9.628881	2.577760	-0.740496	-0.585206	0.723406	0.013851	-0.015154	0.004264
15	0.089745	0.005000	0.235440	9.661231	2.605365	-0.740519	-0.585075	0.723284	0.012454	-0.013422	-0.001994
16	0.094745	0.005000	0.374463	9.774127	2.454183	-0.741068	-0.585075	0.723161	0.016104	-0.010497	-0.004104
17	0.099745	0.005000	0.353160	9.692800	2.570480	-0.741616	-0.585075	0.723039	0.022955	-0.004024	0.001645
18	0.104745	0.005000	0.274680	9.669988	2.522047	-0.742165	-0.585075	0.722916	0.020955	-0.016755	0.004379
19	0.109745	0.005000	0.299095	9.815234	2.462529	-0.742713	-0.585075	0.722794	0.015955	-0.013270	0.001689
20	0.114745	0.005000	0.222845	9.797405	2.497311	-0.743262	-0.585075	0.722672	0.015724	-0.012790	0.003250
21	0.119745	0.005000	0.264151	9.760231	2.432880	-0.743810	-0.585075	0.722549	0.016215	-0.005402	0.002385
22	0.124745	0.005000	0.173434	9.715046	2.511360	-0.744359	-0.585075	0.722427	0.006338	-0.006804	0.002104
23	0.129745	0.005000	0.235440	9.725288	2.399872	-0.744907	-0.585075	0.722304	0.009935	-0.011268	0.007885
24	0.134745	0.005000	0.270791	9.696169	2.444546	-0.745456	-0.585075	0.722182	0.007569	-0.006125	0.000497
25	0.139745	0.005000	0.235440	9.694201	2.470199	-0.746004	-0.585075	0.722059	0.012025	-0.013102	0.001495
26	0.144745	0.005000	0.196659	9.653959	2.471661	-0.746552	-0.585075	0.721937	0.007573	-0.014045	-0.003290
27	0.149745	0.005000	0.274680	9.653040	2.508516	-0.747101	-0.585075	0.721814	0.011352	-0.004347	0.002109
28	0.154745	0.005000	0.279501	9.653040	2.432880	-0.747649	-0.585075	0.721692	0.011574	-0.016722	0.002312
29	0.159745	0.005000	0.281820	9.749340	2.561280	-0.747324	-0.584900	0.721667	0.021380	-0.016840	0.001527
30	0.164745	0.005000	0.283851	9.731520	2.559771	-0.746776	-0.584681	0.721667	0.023568	-0.019569	0.005337
31	0.169745	0.005000	0.286131	9.703731	2.506474	-0.746228	-0.584462	0.721667	0.013073	-0.006184	0.000828
32	0.174745	0.005000	0.223258	9.717991	2.446409	-0.745680	-0.584242	0.721667	0.011841	-0.013317	-0.004551
33	0.179745	0.005000	0.235440	9.684535	2.464375	-0.745131	-0.584023	0.721667	0.014649	-0.014783	-0.002065
34	0.184745	0.005000	0.313920	9.713638	2.375758	-0.744583	-0.583804	0.721667	0.015844	-0.010100	0.006799
35	0.189745	0.005000	0.255733	9.692280	2.489720	-0.744035	-0.583584	0.721667	0.017368	-0.021033	0.002790
36	0.194745	0.005000	0.257677	9.653040	2.516594	-0.743487	-0.583365	0.721667	0.015302	-0.001492	-0.006865
37	0.199745	0.005000	0.284739	9.682221	2.560659	-0.742938	-0.583146	0.721667	0.009856	-0.018450	0.008155
38	0.204745	0.005000	0.235440	9.692280	2.550600	-0.742390	-0.582926	0.721667	0.021617	-0.009908	0.002563
39	0.209745	0.005000	0.245683	9.781003	2.559112	-0.741842	-0.582707	0.721667	0.009307	-0.005818	-0.000534
40	0.214745	0.005000	0.266481	9.801801	2.581641	-0.741294	-0.582488	0.721667	0.013926	-0.010814	0.005742
41	0.219745	0.005000	0.223656	9.731520	2.589840	-0.740745	-0.582269	0.721667	0.006986	-0.008484	0.001676
42	0.224745	0.005000	0.192297	9.688377	2.550600	-0.740319	-0.582212	0.721667	0.010530	-0.007941	0.008211
43	0.229745	0.005000	0.197731	9.693811	2.585247	-0.740429	-0.582871	0.721667	-0.000709	-0.005090	0.000646
44	0.234745	0.005000	0.273818	9.731520	2.510498	-0.740539	-0.583529	0.721667	0.008053	-0.009774	0.000364
45	0.239745	0.005000	0.241074	9.767943	2.472120	-0.740649	-0.584188	0.721667	0.007225	-0.011471	0.006473
46	0.244745	0.005000	0.274680	9.731520	2.506599	-0.740758	-0.584846	0.721667	0.002237	-0.011690	-0.002237
47	0.249745	0.005000	0.242618	9.788467	2.646787	-0.740868	-0.585505	0.721667	0.010835	-0.005394	0.000497
48	0.254745	0.005000	0.186730	9.789699	2.560070	-0.740978	-0.586163	0.721667	0.018219	-0.008601	0.005348
49	0.259745	0.005000	0.180017	9.759231	2.562129	-0.741087	-0.586822	0.721667	0.029350	-0.014678	0.009962
50	0.264745	0.005000	0.247118	9.745301	2.523038	-0.741197	-0.587481	0.721667	0.028674	-0.007503	0.000879
51	0.269745	0.005000	0.274680	9.676403	2.566477	-0.741307	-0.588139	0.721667	0.025311	-0.009845	0.004793
52	0.274745	0.005000	0.298929	9.773846	2.547514	-0.741417	-0.588798	0.721667	0.027782	-0.010223	0.000749
53	0.279745	0.005000	0.334152	9.674497	2.491128	-0.741526	-0.589456	0.721667	0.021514	0.000676	-0.004124
54	0.284745	0.005000	0.240552	9.675216	2.489184	-0.741636	-0.590115	0.721667	0.022621	-0.002660	-0.004242
55	0.289745	0.005000	0.225504	9.623736	2.678256	-0.741746	-0.590773	0.721667	0.016941	-0.007409	0.006720
56	0.294745	0.005000	0.313920	9.731520	2.550600	-0.741791	-0.590981	0.721883	0.014177	-0.005441	0.005081
57	0.299745	0.005000	0.313920	9.692280	2.600140	-0.741791	-0.590871	0.722250	0.007654	-0.003648	0.015543
58	0.304745	0.005000	0.274680	9.706452	2.699204	-0.741791	-0.590761	0.722618	0.007270	-0.005577	0.007932
59	0.309745	0.005000	0.274680	9.513901	2.623140	-0.741791	-0.590651	0.722985	0.011139	-0.011030	0.006844
60	0.314745	0.005000	0.270684	9.731520	2.593836	-0.741791	-0.590542	0.723353	0.019045	-0.005629	0.002890
61	0.319745	0.005000	0.310737	9.731520	2.549008	-0.741791	-0.590432	0.723720	0.018037	-0.003377	-0.002222
62	0.324745	0.005000	0.274328	9.692632	2.511360	-0.741791	-0.590322	0.724088	0.007227	-0.010032	0.001785
63	0.329745	0.005000	0.235440	9.728750	2.505820	-0.741791	-0.590212	0.724455	-0.001321	-0.010078	-0.001380
64	0.334745	0.005000	0.274680	9.770760	2.482346	-0.741791	-0.590103	0.724823	0.015577	-0.010376	0.006055
65	0.339745	0.005000	0.288913	9.756527	2.582724	-0.741791	-0.589993	0.725190	0.002424	-0.011269	-0.002749
66	0.344745	0.005000	0.284089	9.770760	2.580431	-0.741791	-0.589883	0.725558	0.006084	-0.015172	0.003659
67	0.349745	0.005000	0.302453	9.770760	2.455815	-0.741791	-0.589773	0.725925	0.006628	-0.006888	-0.003146
68	0.354745	0.005000	0.339440	9.743319	2.497640	-0.741791	-0.589664	0.726293	-0.000639	-0.011078	-0.007997
69	0.359745	0.005000	0.258855	9.731520	2.487945	-0.741791	-0.589554	0.726661	0.001308	-0.011536	0.002711
70	0.364745	0.005000	0.374383	9.752743	2.553807	-0.741683	-0.589337	0.726306	0.000102	-0.005175	0.003603
71	0.369745	0.005000	0.312802	9.752816	2.492299	-0.741574	-0.589117	0.725939	0.003161	-0.011835	-0.001675
72	0.374745	0.005000	0.313920	9.669691	2.505422	-0.741464	-0.588898	0.725571	-0.007201	-0.001370	-0.013356
73	0.379745	0.005000	0.313920	9.716813	2.472120	-0.741354	-0.588679	0.725204	0.006720	-0.014782	0.002356
74	0.384745	0.005000	0.299268	9.731520	2.629080	-0.741245	-0.588459	0.724837	0.005417	-0.013120	-0.005839
75	0.389745	0.005000	0.332461	9.642690	2.591999	-0.741135	-0.588240	0.724469	0.016241	-0.005285	-0.012058
76	0.394745	0.005000	0.266737	9.700223	2.629080	-0.741026	-0.588021	0.724102	0.015230	-0.016466	-0.007198
77	0.399745	0.005000	0.296130	9.731520	2.623150	-0.740916	-0.587801	0.723735	0.013989	-0.004528	-0.013710
78	0.404745	0.005000	0.242633	9.774356	2.696771	-0.740806	-0.587582	0.723367	0.009926	-0.018141	-0.003293
79	0.409745	0.005000	0.274680	9.692280	2.550600	-0.740697	-0.587363	0.723000	0.006184	-0.017355	-0.005839
80	0.414745	0.005000	0.274680	9.769230	2.589075	-0.740587	-0.587143	0.722633	0.001520	-0.019754	-0.003158
81	0.419745	0.005000	0.201618	9.768051	2.595258	-0.740478	-0.586924	0.722265	0.013250	-0.011189	0.007941
82	0.424745	0.005000	0.162074	9.839013	2.526701	-0.740368	-0.586705	0.721898	0.006032	-0.014420	0.003662
83	0.429745	0.005000	0.235440	9.817058	2.568666	-0.740258	-0.586485	0.722168	0.018127	-0.021299	-0.001351
84	0.434745	0.005000	0.284153	9.830293	2.589840	-0.740148	-0.586266	0.723516	0.008539	-0.005870	-0.004170
85	0.439745	0.005000	0.274680	9.742937	2.606246	-0.740039	-0.586046	0.724864	0.012900	-0.022015	-0.002107
86	0.444745	0.005000	0.247030	9.770760	2.552835	-0.739929	-0.585827	0.726212	0.016379	-0.006592	0.005528
87	0.449745	0.005000	0.290449	9.731520	2.432880	-0.739819	-0.585607	0.727561	0.015760	-0.018265	0.003115
88	0.454745	0.005000	0.253621	9.671221	2.472120	-0.739709	-0.585388	0.728909	0.004782	-0.019480	0.010065
89	0.459745	0.005000	0.253545	9.712405	2.413765	-0.739599	-0.585168	0.730257	0.010218	-0.014515	0.006749
90	0.464745	0.005000	0.218737	9.731520	2.399473	-0.739490	-0.584949	0.731605	0.014767	-0.019348	-0.001748
91	0.469745	0.005000	0.210959	9.741242	2.481842	-0.739380	-0.584729	0.732953	0.014059	-0.014575	-0.000401
92	0.474745	0.005000	0.247795	9.772934	2.575311	-0.739270	-0.584510	0.734301	0.011658	-0.020835	-0.001176
93	0.479745	0.005000	0.342873	9.721233	2.521647	-0.739160	-0.584290	0.735650	0.018887	-0.008700	0.000428
94	0.484745	0.005000	0.250668	9.723516	2.589840	-0.739051	-0.584071	0.736998	0.007086	-0.001526	0.006532
95	0.489745	0.005000	0.202260	9.764700	2.556660	-0.738941	-0.583851	0.738346	0.021248	-0.018229	0.001364
96	0.494745	0.005000	0.196200	9.806356	2.511360	-0.738831	-0.583632	0.739694	0.020185	0.000546	0.003760
97	0.499745	0.005000	0.390721	9.810000	2.434559	-0.740333	-0.584261	0.740095	0.019497	-0.014213	0.003175
98	0.504745	0.005000	0.314624	9.771464	2.549191	-0.742309	-0.585139	0.740217	0.017964	-0.005909	0.001608
99	0.509745	0.005000	0.235440	9.773409	2.579245	-0.744284	-0.586017	0.740340	0.008633	-0.007076	0.008456
100	0.514745	0.005000	0.308854	9.878349	2.555666	-0.746260	-0.586895	0.740463	0.018483	-0.010079	0.005498
101	0.519745	0.005000	0.299901	9.641837	2.479129	-0.748236	-0.587773	0.740585	0.012144	-0.003952	0.006627
102	0.524745	0.005000	0.274680	9.711112	2.421887	-0.750211	-0.588651	0.740708	0.019570	-0.012258	0.015294
103	0.529745	0.005000	0.408253	9.774920	2.393640	-0.752187	-0.589529	0.740830	0.016461	-0.010608	0.002925
104	0.534745	0.005000	0.290535	9.756986	2.562292	-0.754163	-0.590407	0.740953	0.018961	-0.007878	0.000281
105	0.539745	0.005000	0.267419	9.747509	2.464859	-0.756138	-0.591285	0.741075	0.021859	-0.013352	0.001618
106	0.544745	0.005000	0.253560	9.731520	2.369521	-0.758114	-0.592163	0.741198	0.027428	-0.002565	0.000489
107	0.549745	0.005000	0.331543	9.770760	2.470789	-0.760090	-0.593041	0.741321	0.019282	-0.012843	-0.001272
108	0.554745	0.005000	0.369925	9.787525	2.337635	-0.762065	-0.593919	0.741443	0.032729	0.000503	0.001965
109	0.559745	0.005000	0.348471	9.746163	2.467431	-0.764041	-0.594797	0.741566	0.029484	-0.015940	0.002544
110	0.564745	0.005000	0.365572	9.717103	2.523772	-0.765404	-0.595388	0.741496	0.017349	-0.015087	0.009164
111	0.569745	0.005000	0.313920	9.770760	2.452875	-0.763869	-0.594621	0.740516	0.022173	-0.006341	0.001440
112	0.574745	0.005000	0.274680	9.692280	2.503307	-0.762334	-0.593853	0.739537	0.017403	-0.010579	0.005180
113	0.579745	0.005000	0.341865	9.798705	2.539305	-0.760798	-0.593085	0.738557	0.017410	-0.009264	0.002997
114	0.584745	0.005000	0.306513	9.802593	2.425473	-0.759263	-0.592318	0.737577	0.012111	-0.020325	0.002281
115	0.589745	0.005000	0.196200	9.730234	2.317732	-0.757728	-0.591550	0.736598	0.011656	-0.010365	-0.000216
116	0.594745	0.005000	0.234782	9.692280	2.432222	-0.756193	-0.590783	0.735618	0.007600	-0.013681	-0.000866
117	0.599745	0.005000	0.268629	9.731520	2.475145	-0.754657	-0.590015	0.734639	0.002180	-0.012303	0.001921
118	0.604745	0.005000	0.279686	9.765754	2.472120	-0.753122	-0.589248	0.733659	0.003291	-0.006286	-0.002252
119	0.609745	0.005000	0.274680	9.724198	2.479442	-0.751587	-0.588480	0.732679	0.002590	-0.011050	-0.004589
120	0.614745	0.005000	0.255971	9.722165	2.393640	-0.750052	-0.587713	0.731700	-0.005991	-0.001446	-0.002101
121	0.619745	0.005000	0.376426	9.770760	2.527334	-0.748516	-0.586945	0.730720	0.009134	-0.017013	-0.003923
122	0.624745	0.005000	0.276578	9.821815	2.536887	-0.746981	-0.586178	0.729740	0.004969	-0.006349	-0.001915
123	0.629745	0.005000	0.337231	9.849240	2.432880	-0.745446	-0.585410	0.728761	0.009533	-0.005920	0.003054
124	0.634745	0.005000	0.310812	9.707238	2.496402	-0.744652	-0.585013	0.728126	0.017570	-0.008587	-0.000244
125	0.639745	0.005000	0.294920	9.712520	2.550600	-0.744433	-0.584903	0.727758	0.006095	-0.004732	0.005158
126	0.644745	0.005000	0.263462	9.753941	2.629080	-0.744214	-0.584794	0.727391	0.023588	-0.011537	0.000858
127	0.649745	0.005000	0.264254	9.692280	2.521786	-0.743994	-0.584684	0.727023	0.008665	-0.015144	0.000874
128	0.654745	0.005000	0.288995	9.665502	2.591693	-0.743775	-0.584574	0.726656	0.011067	-0.013841	0.006033
129	0.659745	0.005000	0.284735	9.653040	2.579785	-0.743555	-0.584464	0.726288	0.012428	-0.014879	0.004922
130	0.664745	0.005000	0.322031	9.762649	2.550600	-0.743336	-0.584355	0.725921	0.011236	-0.008308	-0.000735
131	0.669745	0.005000	0.274680	9.731520	2.415794	-0.743116	-0.584245	0.725553	0.010375	-0.012482	0.008903
132	0.674745	0.005000	0.392400	9.774511	2.436631	-0.742897	-0.584135	0.725186	0.006223	-0.010871	-0.001276
133	0.679745	0.005000	0.308531	9.770760	2.588493	-0.742678	-0.584025	0.724818	0.007462	-0.012078	-0.000403
134	0.684745	0.005000	0.156960	9.770760	2.473314	-0.742458	-0.583916	0.724451	0.012693	-0.011875	0.002464
135	0.689745	0.005000	0.268678	9.659042	2.402642	-0.742239	-0.583806	0.724083	0.002740	-0.008645	0.002268
136	0.694745	0.005000	0.274680	9.589396	2.432880	-0.742019	-0.583696	0.723716	0.010599	-0.019300	-0.000476
137	0.699745	0.005000	0.242801	9.645679	2.432880	-0.741800	-0.583587	0.723348	0.011365	-0.008345	-0.008481
138	0.704745	0.005000	0.186895	9.722215	2.462815	-0.741686	-0.583687	0.723333	0.024202	-0.010535	-0.001409
139	0.709745	0.005000	0.168532	9.719948	2.495265	-0.741576	-0.583797	0.723333	0.019820	-0.006375	0.000387
140	0.714745	0.005000	0.196200	9.821927	2.458463	-0.741466	-0.583907	0.723333	0.019544	-0.001799	-0.000168
141	0.719745	0.005000	0.313920	9.763659	2.518461	-0.741357	-0.584017	0.723333	0.021157	-0.015574	-0.003790
142	0.724745	0.005000	0.238654	9.788773	2.454107	-0.741247	-0.584126	0.723333	0.020342	-0.003907	-0.013136
143	0.729745	0.005000	0.274680	9.712704	2.552208	-0.741137	-0.584236	0.723333	0.023862	-0.010652	-0.002975
144	0.734745	0.005000	0.330792	9.737016	2.533728	-0.741028	-0.584346	0.723333	0.012951	-0.003871	-0.001605
145	0.739745	0.005000	0.349013	9.681965	2.515507	-0.740918	-0.584456	0.723333	0.013958	-0.016538	-0.003374
146	0.744745	0.005000	0.353160	9.692280	2.523884	-0.740808	-0.584566	0.723333	0.012030	-0.009240	0.001983
147	0.749745	0.005000	0.313920	9.702396	2.618964	-0.740698	-0.584675	0.723333	0.011847	-0.010737	-0.000611
148	0.754745	0.005000	0.259957	9.801828	2.542428	-0.740589	-0.584785	0.723333	0.016940	-0.009386	0.006099
149	0.759745	0.005000	0.341647	9.692280	2.511360	-0.740479	-0.584895	0.723333	0.008435	-0.003801	-0.006651
150	0.764745	0.005000	0.274680	9.727708	2.405077	-0.740369	-0.585005	0.723333	0.023580	-0.016493	-0.005356
151	0.769745	0.005000	0.273272	9.613800	2.587024	-0.740220	-0.585035	0.723465	0.010240	-0.012257	0.002143
152	0.774745	0.005000	0.158032	9.613800	2.588768	-0.740000	-0.584926	0.723833	0.016903	-0.015911	-0.000967
153	0.779745	0.005000	0.162799	9.764921	2.514280	-0.739781	-0.584816	0.724200	0.021595	-0.008207	0.003926
154	0.784745	0.005000	0.299228	9.775657	2.609491	-0.739561	-0.584706	0.724568	0.014852	-0.007214	-0.000690
155	0.789745	0.005000	0.313920	9.770760	2.629080	-0.739342	-0.584597	0.724935	0.026409	-0.012269	-0.006429
156	0.794745	0.005000	0.283927	9.692280	2.481367	-0.739123	-0.584487	0.725303	0.019679	-0.010745	-0.007777
157	0.799745	0.005000	0.329836	9.731520	2.444542	-0.738903	-0.584377	0.725670	0.025791	-0.023746	0.000517
158	0.804745	0.005000	0.378795	9.717915	2.460091	-0.738684	-0.584267	0.726038	0.009834	-0.010676	0.001450
159	0.809745	0.005000	0.283483	9.692280	2.456106	-0.738464	-0.584158	0.726406	0.009950	-0.009369	-0.000840
160	0.814745	0.005000	0.174912	9.674328	2.450832	-0.738245	-0.584048	0.726773	0.024836	-0.017983	-0.002696
161	0.819745	0.005000	0.274680	9.693765	2.511360	-0.738025	-0.583938	0.727141	0.013099	-0.006724	-0.005418
162	0.824745	0.005000	0.274680	9.686906	2.449813	-0.737806	-0.583828	0.727508	0.008104	-0.005996	-0.004198
163	0.829745	0.005000	0.249964	9.702473	2.643604	-0.737586	-0.583719	0.727876	0.003276	-0.009996	0.005387
164	0.834745	0.005000	0.262100	9.731520	2.615000	-0.737367	-0.583609	0.728243	0.007414	-0.014397	-0.001611
165	0.839745	0.005000	0.245606	9.760594	2.637822	-0.737479	-0.583913	0.728426	0.005113	-0.009555	-0.007769
166	0.844745	0.005000	0.274680	9.621923	2.495113	-0.737698	-0.584352	0.728548	0.009181	-0.011654	-0.007912
167	0.849745	0.005000	0.380769	9.692280	2.438696	-0.737918	-0.584791	0.728671	0.007404	-0.019835	0.002028
168	0.854745	0.005000	0.310093	9.766933	2.546773	-0.738137	-0.585230	0.728793	0.006460	-0.007376	-0.014139
169	0.859745	0.005000	0.276134	9.731520	2.432880	-0.738357	-0.585669	0.728916	0.014990	-0.010030	-0.006036
170	0.864745	0.005000	0.236419	9.692770	2.510381	-0.738576	-0.586108	0.729038	0.011296	-0.014953	-0.000196
171	0.869745	0.005000	0.238334	9.728626	2.429986	-0.738796	-0.586546	0.729161	0.008916	-0.008020	-0.007323
172	0.874745	0.005000	0.196200	9.692280	2.501684	-0.739015	-0.586985	0.729283	0.004295	-0.013419	-0.002512
173	0.879745	0.005000	0.228186	9.706788	2.511360	-0.739235	-0.587424	0.729406	0.013413	-0.008976	-0.001493
174	0.884745	0.005000	0.166146	9.683094	2.670816	-0.739454	-0.587863	0.729528	0.003549	-0.014502	-0.002468
175	0.889745	0.005000	0.263079	9.625401	2.534561	-0.739674	-0.588302	0.729651	0.004248	-0.013606	-0.003167
176	0.894745	0.005000	0.260839	9.703837	2.548316	-0.739893	-0.588740	0.729773	0.005533	-0.015534	-0.000098
177	0.899745	0.005000	0.235440	9.692280	2.504026	-0.740113	-0.589179	0.729896	0.012075	-0.008727	-0.000542
178	0.904745	0.005000	0.274680	9.631953	2.411793	-0.740249	-0.589486	0.729889	0.000787	-0.006447	-0.009385
179	0.909745	0.005000	0.332851	9.711211	2.491051	-0.739920	-0.589047	0.729154	0.006877	-0.013099	-0.006285
180	0.914745	0.005000	0.330711	9.748311	2.477778	-0.739591	-0.588608	0.728419	0.011168	0.000752	-0.005752
181	0.919745	0.005000	0.353160	9.799911	2.437366	-0.739262	-0.588169	0.727684	0.007141	-0.013452	0.001695
182	0.924745	0.005000	0.289586	9.770760	2.447786	-0.738933	-0.587731	0.726949	0.003060	-0.010534	-0.005132
183	0.929745	0.005000	0.196200	9.789790	2.492330	-0.738604	-0.587292	0.726214	0.012478	-0.015425	-0.004454
184	0.934745	0.005000	0.227632	9.684472	2.472120	-0.738275	-0.586853	0.725479	0.005065	-0.013861	0.003769
185	0.939745	0.005000	0.241304	9.719792	2.572249	-0.737945	-0.586414	0.724744	0.001182	-0.011110	-0.004278
186	0.944745	0.005000	0.306175	9.731520	2.558345	-0.737616	-0.585975	0.724009	0.004581	-0.019215	0.004462
187	0.949745	0.005000	0.193169	9.770760	2.511360	-0.737287	-0.585537	0.723274	0.009952	-0.012383	0.005893
188	0.954745	0.005000	0.195343	9.770760	2.433737	-0.736958	-0.585098	0.722539	0.015122	-0.015644	-0.000169
189	0.959745	0.005000	0.235440	9.770760	2.517025	-0.736629	-0.584659	0.721804	0.013847	-0.019267	0.005650
190	0.964745	0.005000	0.200977	9.662594	2.516137	-0.736300	-0.584220	0.721069	0.004903	-0.017443	-0.001041
191	0.969745	0.005000	0.139299	9.667426	2.432880	-0.735970	-0.583781	0.720334	0.001222	-0.015540	0.001527
192	0.974745	0.005000	0.294950	9.722035	2.462635	-0.736121	-0.583702	0.720134	0.008524	-0.015674	-0.006665
193	0.979745	0.005000	0.235440	9.743064	2.578296	-0.736669	-0.583921	0.720379	0.008489	-0.027973	-0.001260
194	0.984745	0.005000	0.286328	9.756964	2.629080	-0.737218	-0.584141	0.720624	0.009304	-0.015209	0.004206
195	0.989745	0.005000	0.298019	9.708181	2.605741	-0.737766	-0.584360	0.720869	0.008525	-0.016986	0.000396
196	0.994745	0.005000	0.292772	9.674188	2.493268	-0.738315	-0.584579	0.721114	0.019116	-0.018476	0.004656
197	0.999745	0.005000	0.332905	9.731520	2.472120	-0.738863	-0.584799	0.721359	0.012716	-0.003935	-0.005231
198	1.004745	0.005000	0.258106	9.737611	2.567174	-0.739412	-0.585018	0.721604	0.015555	-0.008554	-0.003172
199	1.009745	0.005000	0.240092	9.657692	2.462142	-0.739960	-0.585238	0.721849	0.017490	-0.007847	0.000750
200	1.014745	0.005000	0.211005	9.770760	2.472120	-0.740509	-0.585457	0.722094	0.007826	-0.009990	0.000895
201	1.019745	0.005000	0.227053	9.760476	2.492689	-0.741058	-0.585676	0.722339	0.010590	-0.007516	0.001090
202	1.024745	0.005000	0.274680	9.723651	2.550600	-0.741606	-0.585896	0.722584	0.005225	-0.005633	-0.004468
203	1.029745	0.005000	0.241365	9.710055	2.544675	-0.742155	-0.586115	0.722829	0.003702	-0.015208	0.002275
204	1.034745	0.005000	0.281720	9.699320	2.500800	-0.742703	-0.586335	0.723074	0.003132	-0.001836	-0.006941
205	1.039745	0.005000	0.353160	9.731520	2.474351	-0.743252	-0.586554	0.723319	0.005720	-0.011405	0.002845
206	1.044745	0.005000	0.353160	9.654704	2.435376	-0.743594	-0.586774	0.722987	0.000414	-0.009488	0.003665
207	1.049745	0.005000	0.241011	9.717593	2.477691	-0.743923	-0.586993	0.722619	0.003989	-0.006763	-0.004573
208	1.054745	0.005000	0.201390	9.726330	2.579460	-0.744252	-0.587213	0.722252	0.008183	-0.012474	0.001584
209	1.059745	0.005000	0.210469	9.692280	2.543465	-0.744582	-0.587432	0.721884	0.011231	-0.012344	-0.006000
210	1.064745	0.005000	0.284230	9.721970	2.501810	-0.744911	-0.587652	0.721516	0.012878	-0.013071	0.000386
211	1.069745	0.005000	0.274680	9.720027	2.467360	-0.745240	-0.587871	0.721149	0.007307	-0.007411	-0.005068
212	1.074745	0.005000	0.288582	9.694745	2.460683	-0.745569	-0.588091	0.720781	0.005696	-0.009215	-0.013435
213	1.079745	0.005000	0.384852	9.723222	2.495514	-0.745898	-0.588310	0.720413	0.007422	-0.019175	-0.002855
214	1.084745	0.005000	0.374142	9.728796	2.474844	-0.746228	-0.588530	0.720045	0.012488	-0.011515	-0.004799
215	1.089745	0.005000	0.334114	9.673234	2.392492	-0.746557	-0.588749	0.719678	0.001962	-0.023971	0.002138
216	1.094745	0.005000	0.291316	9.675644	2.544631	-0.746886	-0.588969	0.719310	-0.004357	-0.018937	-0.004876
217	1.099745	0.005000	0.284536	9.643184	2.609552	-0.747215	-0.589188	0.718942	0.011964	-0.015816	0.004820
218	1.104745	0.005000	0.233036	9.743799	2.577561	-0.747545	-0.589408	0.718575	0.008072	-0.015274	-0.001192
219	1.109745	0.005000	0.274680	9.731520	2.550600	-0.747611	-0.589439	0.718375	0.023475	-0.006794	-0.009942
220	1.114745	0.005000	0.305992	9.731520	2.511360	-0.747172	-0.589110	0.718498	0.010296	-0.012057	-0.004048
221	1.119745	0.005000	0.280595	9.837411	2.505445	-0.746733	-0.588781	0.718620	0.018684	-0.012425	0.005855
222	1.124745	0.005000	0.235440	9.656607	2.579138	-0.746294	-0.588452	0.718743	0.017952	-0.015053	0.010795
223	1.129745	0.005000	0.199407	9.656247	2.508153	-0.745855	-0.588123	0.718865	0.015554	-0.006770	-0.000348
224	1.134745	0.005000	0.274680	9.693061	2.432880	-0.745417	-0.587794	0.718988	0.020766	-0.011491	0.003821
225	1.139745	0.005000	0.204376	9.608350	2.472120	-0.744978	-0.587465	0.719110	0.023243	-0.013729	-0.000759
226	1.144745	0.005000	0.269538	9.692280	2.477262	-0.744539	-0.587136	0.719233	0.016924	-0.009171	-0.004049
227	1.149745	0.005000	0.313920	9.731520	2.511360	-0.744100	-0.586807	0.719355	0.017292	-0.014290	-0.004512
228	1.154745	0.005000	0.274680	9.692280	2.462628	-0.743661	-0.586478	0.719478	0.016736	-0.009788	-0.001070
229	1.159745	0.005000	0.274680	9.719766	2.483874	-0.743223	-0.586149	0.719600	0.013566	-0.019839	-0.000488
230	1.164745	0.005000	0.235440	9.745360	2.497520	-0.742784	-0.585819	0.719723	0.010531	-0.014795	0.004948
231	1.169745	0.005000	0.188086	9.731520	2.519474	-0.742345	-0.585490	0.719845	0.004464	-0.007996	-0.000658
232	1.174745	0.005000	0.313920	9.713323	2.526710	-0.741906	-0.585161	0.719968	0.010944	-0.013439	0.003512
233	1.179745	0.005000	0.293780	9.653040	2.532541	-0.741710	-0.585237	0.720362	0.013948	-0.006289	-0.003167
234	1.184745	0.005000	0.297232	9.714832	2.449568	-0.741600	-0.585456	0.720852	0.017661	-0.006477	0.002047
235	1.189745	0.005000	0.235440	9.716776	2.511360	-0.741491	-0.585676	0.721342	0.014375	-0.006060	0.005308
236	1.194745	0.005000	0.262345	9.665375	2.538265	-0.741381	-0.585895	0.721832	0.017260	-0.013670	0.001798
237	1.199745	0.005000	0.245832	9.692280	2.443272	-0.741271	-0.586115	0.722322	0.010715	-0.011479	-0.003514
238	1.204745	0.005000	0.243417	9.731520	2.401617	-0.741162	-0.586334	0.722812	0.016604	-0.009427	-0.011477
239	1.209745	0.005000	0.262760	9.716120	2.466160	-0.741052	-0.586553	0.723302	0.020935	-0.013834	0.000872
240	1.214745	0.005000	0.239067	9.767133	2.578959	-0.740942	-0.586773	0.723792	0.011275	0.006466	0.001070
241	1.219745	0.005000	0.351496	9.733184	2.506368	-0.740833	-0.586992	0.724282	0.024973	-0.006231	-0.001803
242	1.224745	0.005000	0.159838	9.732240	2.432160	-0.740723	-0.587212	0.724772	0.027242	-0.007108	-0.003414
243	1.229745	0.005000	0.232339	9.616901	2.439082	-0.740613	-0.587431	0.725262	0.011975	-0.006892	-0.005829
244	1.234745	0.005000	0.196200	9.677037	2.467039	-0.740504	-0.587650	0.725752	0.021731	-0.008314	0.003665
245	1.239745	0.005000	0.235440	9.770760	2.550600	-0.740394	-0.587870	0.726242	0.023972	-0.005760	-0.004014
246	1.244745	0.005000	0.295058	9.750382	2.580409	-0.740532	-0.588148	0.726846	0.014375	-0.019596	0.007693
247	1.249745	0.005000	0.302075	9.676731	2.526909	-0.742288	-0.588806	0.728194	0.015961	-0.014687	-0.004544
248	1.254745	0.005000	0.328003	9.706363	2.589840	-0.744043	-0.589464	0.729541	0.013918	-0.008263	0.002237
249	1.259745	0.005000	0.196200	9.708478	2.652122	-0.745798	-0.590122	0.730889	0.016699	-0.013094	0.000294
250	1.264745	0.005000	0.256285	9.632195	2.506459	-0.747554	-0.590780	0.732236	0.022256	-0.006650	0.004561
251	1.269745	0.005000	0.216754	9.671726	2.511360	-0.749309	-0.591439	0.733584	0.023216	-0.013316	-0.002165
252	1.274745	0.005000	0.202342	9.636491	2.544458	-0.751064	-0.592097	0.734932	0.011754	-0.006283	0.006023
253	1.279745	0.005000	0.156960	9.681701	2.497030	-0.752819	-0.592755	0.736279	0.010786	-0.019316	0.009268
254	1.284745	0.005000	0.220676	9.707044	2.423168	-0.754575	-0.593413	0.737627	0.010717	-0.012833	0.006819
255	1.289745	0.005000	0.294644	9.682298	2.393640	-0.756330	-0.594072	0.738974	0.013365	-0.007182	-0.005591
256	1.294745	0.005000	0.368311	9.675767	2.518936	-0.758085	-0.594730	0.740322	0.014050	-0.010164	0.004274
257	1.299745	0.005000	0.381266	9.776327	2.617946	-0.759841	-0.595388	0.741669	0.009348	-0.003409	0.000774
258	1.304745	0.005000	0.277895	9.767545	2.547385	-0.761596	-0.596046	0.743017	0.016353	-0.003971	0.004940
259	1.309745	0.005000	0.351904	9.730264	2.551856	-0.763351	-0.596705	0.744364	0.011291	-0.007686	0.002664
260	1.314745	0.005000	0.352027	9.768494	2.513626	-0.763309	-0.596609	0.744223	0.009059	-0.007867	0.000041
261	1.319745	0.005000	0.241595	9.731520	2.508283	-0.761664	-0.595841	0.742753	0.006879	-0.013685	0.004462
262	1.324745	0.005000	0.269186	9.793517	2.539612	-0.760018	-0.595073	0.741283	0.014080	0.002620	0.004044
263	1.329745	0.005000	0.337549	9.700086	2.589840	-0.758373	-0.594305	0.739813	0.015849	-0.010790	0.003287
264	1.334745	0.005000	0.304076	9.731520	2.579996	-0.756727	-0.593537	0.738343	0.005867	-0.008631	-0.004699
265	1.339745	0.005000	0.340901	9.640781	2.484379	-0.755081	-0.592769	0.736873	0.011740	-0.019376	0.001624
266	1.344745	0.005000	0.367652	9.653040	2.521616	-0.753436	-0.592001	0.735403	0.002675	-0.012300	0.007384
267	1.349745	0.005000	0.291292	9.659057	2.589840	-0.751790	-0.591233	0.733933	0.002557	-0.009697	-0.000167
268	1.354745	0.005000	0.252609	9.712717	2.550600	-0.750145	-0.590465	0.732463	0.011955	-0.010080	0.002007
269	1.359745	0.005000	0.214473	9.770760	2.532327	-0.748499	-0.589698	0.730993	0.009726	-0.004822	-0.009789
270	1.364745	0.005000	0.242939	9.699779	2.479619	-0.746854	-0.588930	0.729523	0.016079	-0.016418	-0.002024
271	1.369745	0.005000	0.288446	9.627566	2.432880	-0.745208	-0.588162	0.728052	0.007854	-0.011135	-0.000612
272	1.374745	0.005000	0.263167	9.625313	2.472120	-0.743562	-0.587394	0.726582	0.013738	-0.018855	0.001862
273	1.379745	0.005000	0.235440	9.701735	2.541145	-0.741917	-0.586626	0.725112	0.011749	-0.014641	0.005218
274	1.384745	0.005000	0.217687	9.724358	2.418555	-0.741487	-0.586263	0.724661	-0.002572	-0.015947	0.002973
275	1.389745	0.005000	0.313920	9.820317	2.432880	-0.741158	-0.585934	0.724293	0.003707	-0.019096	0.007597
276	1.394745	0.005000	0.316722	9.728718	2.396442	-0.740829	-0.585605	0.723926	0.006414	-0.006418	-0.003940
277	1.399745	0.005000	0.275078	9.653438	2.394834	-0.740500	-0.585276	0.723558	0.008651	-0.020846	0.004636
278	1.404745	0.005000	0.276226	9.805361	2.398279	-0.740170	-0.584947	0.723190	0.007422	-0.018653	-0.005331
279	1.409745	0.005000	0.278598	9.770760	2.389722	-0.739841	-0.584618	0.722823	0.006591	-0.012396	-0.004464
280	1.414745	0.005000	0.235440	9.698187	2.550600	-0.739512	-0.584289	0.722455	0.007363	-0.012558	0.000909
281	1.419745	0.005000	0.187887	9.613800	2.511360	-0.739183	-0.583960	0.722088	0.002610	-0.007470	-0.008413
282	1.424745	0.005000	0.264422	9.770760	2.403898	-0.738854	-0.583630	0.721720	0.007739	-0.019515	0.000219
283	1.429745	0.005000	0.221544	9.731520	2.459448	-0.738525	-0.583301	0.721353	0.003530	-0.008530	-0.002262
284	1.434745	0.005000	0.274680	9.755860	2.496460	-0.738196	-0.582972	0.720985	0.008452	-0.011347	-0.009951
285	1.439745	0.005000	0.235440	9.731520	2.595043	-0.737866	-0.582643	0.720618	0.018248	-0.009887	-0.006604
286	1.444745	0.005000	0.274680	9.672851	2.569646	-0.737537	-0.582314	0.720250	0.009163	-0.015928	-0.009656
287	1.449745	0.005000	0.256813	9.788627	2.529227	-0.737453	-0.582090	0.720195	0.015411	-0.022131	0.005126
288	1.454745	0.005000	0.211657	9.794543	2.497096	-0.737892	-0.582090	0.720808	0.011500	-0.013149	-0.002813
289	1.459745	0.005000	0.209557	9.783285	2.511360	-0.738331	-0.582090	0.721420	0.008484	-0.015961	-0.001856
290	1.464745	0.005000	0.252480	9.770760	2.500260	-0.738770	-0.582090	0.722033	0.007636	-0.004550	0.002372
291	1.469745	0.005000	0.265987	9.770760	2.472120	-0.739209	-0.582090	0.722645	0.005742	-0.006841	0.001466
292	1.474745	0.005000	0.307249	9.784102	2.518031	-0.739647	-0.582090	0.723258	0.018812	-0.009173	0.001662
293	1.479745	0.005000	0.392400	9.775093	2.581174	-0.740086	-0.582090	0.723870	0.011946	-0.005738	-0.002995
294	1.484745	0.005000	0.353160	9.773120	2.589840	-0.740525	-0.582090	0.724483	0.006321	-0.019732	-0.003464
295	1.489745	0.005000	0.313935	9.731551	2.550615	-0.740964	-0.582090	0.725095	0.004960	-0.003785	-0.004817
296	1.494745	0.005000	0.394805	9.694685	2.550600	-0.741403	-0.582090	0.725708	0.006719	-0.009747	0.004707
297	1.499745	0.005000	0.279057	9.696657	2.472120	-0.741842	-0.582090	0.726320	0.006022	-0.011989	0.002676
298	1.504745	0.005000	0.281381	9.757357	2.557301	-0.742281	-0.582090	0.726933	-0.001955	-0.009386	-0.003712
299	1.509745	0.005000	0.235440	9.762037	2.629080	-0.742720	-0.582090	0.727545	-0.000124	-0.012713	0.001023
300	1.514745	0.005000	0.218461	9.703411	2.561731	-0.743159	-0.582090	0.728158	0.001394	0.002384	0.001726
301	1.519745	0.005000	0.261292	9.821542	2.549677	-0.743127	-0.582012	0.727983	-0.000060	-0.014791	0.003007
302	1.524745	0.005000	0.376912	9.731520	2.598104	-0.742908	-0.581902	0.727493	0.004144	-0.014182	0.001124
303	1.529745	0.005000	0.231567	9.709964	2.485931	-0.742688	-0.581792	0.727003	0.007274	-0.005561	0.002566
304	1.534745	0.005000	0.254838	9.750918	2.432436	-0.742469	-0.581682	0.726513	0.011439	-0.011651	0.010562
305	1.539745	0.005000	0.213188	9.804735	2.472120	-0.742250	-0.581573	0.726023	0.008164	-0.004831	0.004943
306	1.544745	0.005000	0.196200	9.810000	2.520860	-0.742030	-0.581463	0.725533	0.011793	-0.003568	-0.000056
307	1.549745	0.005000	0.235440	9.758129	2.564578	-0.741811	-0.581353	0.725043	0.008824	-0.005556	0.000014
308	1.554745	0.005000	0.225217	9.741743	2.472120	-0.741591	-0.581243	0.724553	0.013220	-0.008216	0.000044
309	1.559745	0.005000	0.282960	9.731520	2.480400	-0.741372	-0.581134	0.724063	0.015700	-0.008306	0.012372
310	1.564745	0.005000	0.308056	9.725656	2.489711	-0.741153	-0.581024	0.723573	0.014562	-0.005736	0.001460
311	1.569745	0.005000	0.203945	9.696153	2.550600	-0.740933	-0.580914	0.723083	0.019076	-0.018323	0.003848
312	1.574745	0.005000	0.273164	9.731520	2.626049	-0.740714	-0.580804	0.722593	0.020334	-0.002037	-0.000713
313	1.579745	0.005000	0.274251	9.731520	2.511789	-0.740494	-0.580695	0.722103	0.027374	-0.015367	-0.003360
314	1.584745	0.005000	0.238272	9.616632	2.435712	-0.740275	-0.580633	0.721734	0.025010	-0.015219	0.001100
315	1.589745	0.005000	0.274680	9.726743	2.403194	-0.740056	-0.580962	0.722346	0.020767	-0.015942	-0.000185
316	1.594745	0.005000	0.306727	9.667426	2.521828	-0.739836	-0.581291	0.722958	0.016969	-0.016055	0.004975
317	1.599745	0.005000	0.294950	9.682795	2.531630	-0.739617	-0.581620	0.723571	0.013899	-0.013255	-0.001782
318	1.604745	0.005000	0.297768	9.676128	2.589840	-0.739397	-0.581949	0.724183	0.022763	-0.016152	0.010450
319	1.609745	0.005000	0.260884	9.717724	2.485916	-0.739178	-0.582278	0.724795	0.012136	-0.003685	0.005049
320	1.614745	0.005000	0.329821	9.715619	2.543162	-0.738959	-0.582607	0.725407	0.017930	-0.009093	0.001783
321	1.619745	0.005000	0.332231	9.692280	2.469502	-0.738739	-0.582936	0.726020	0.012498	-0.004548	0.006992
322	1.624745	0.005000	0.293665	9.672025	2.451865	-0.738520	-0.583265	0.726632	0.007129	-0.001343	-0.000782
323	1.629745	0.005000	0.369734	9.698371	2.426789	-0.738301	-0.583594	0.727244	0.013744	-0.005437	0.013930
324	1.634745	0.005000	0.353160	9.642723	2.457658	-0.738081	-0.583923	0.727856	0.018484	-0.003881	-0.006611
325	1.639745	0.005000	0.355747	9.665258	2.393640	-0.737862	-0.584252	0.728469	0.024706	-0.013473	0.003784
326	1.644745	0.005000	0.294292	9.741334	2.403454	-0.737642	-0.584581	0.729081	0.022131	0.001398	0.010031
327	1.649745	0.005000	0.251179	9.684411	2.487859	-0.737423	-0.584910	0.729693	0.011789	-0.008245	0.003601
328	1.654745	0.005000	0.269216	9.731520	2.511360	-0.737587	-0.584966	0.729817	0.004154	-0.000574	0.006504
329	1.659745	0.005000	0.271160	9.660080	2.507840	-0.738135	-0.584746	0.729449	0.014503	-0.004670	0.004440
330	1.664745	0.005000	0.273578	9.729315	2.475427	-0.738684	-0.584527	0.729082	0.018003	-0.006961	0.005602
331	1.669745	0.005000	0.158643	9.653040	2.628238	-0.739232	-0.584307	0.728714	0.005711	-0.003963	0.004109
332	1.674745	0.005000	0.268188	9.767514	2.593086	-0.739781	-0.584088	0.728347	0.011518	-0.007193	0.007313
333	1.679745	0.005000	0.313920	9.741900	2.676419	-0.740329	-0.583869	0.727979	0.018531	-0.008967	0.010783
334	1.684745	0.005000	0.313920	9.755548	2.502545	-0.740878	-0.583649	0.727612	0.018698	-0.008906	-0.002807
335	1.689745	0.005000	0.205750	9.761210	2.492260	-0.741426	-0.583430	0.727244	0.018142	-0.002397	0.007061
336	1.694745	0.005000	0.262723	9.746845	2.605165	-0.741975	-0.583210	0.726877	0.015051	-0.006287	-0.003397
337	1.699745	0.005000	0.288582	9.731520	2.483557	-0.742524	-0.582991	0.726509	0.015176	-0.013038	-0.001685
338	1.704745	0.005000	0.235440	9.793686	2.465509	-0.743072	-0.582772	0.726142	0.006628	-0.006944	0.001632
339	1.709745	0.005000	0.237679	9.694519	2.474359	-0.743621	-0.582552	0.725774	0.007965	-0.011190	0.003054
340	1.714745	0.005000	0.293259	9.712941	2.608419	-0.744169	-0.582333	0.725407	0.017467	-0.014340	0.000987
341	1.719745	0.005000	0.251883	9.764407	2.612637	-0.744718	-0.582113	0.725039	0.018742	-0.015682	0.000632
342	1.724745	0.005000	0.299697	9.692280	2.432880	-0.744580	-0.582188	0.724781	0.018088	-0.020186	0.013251
343	1.729745	0.005000	0.286495	9.743335	2.534990	-0.744360	-0.582298	0.724536	0.019276	-0.013844	0.009876
344	1.734745	0.005000	0.274680	9.662911	2.530858	-0.744141	-0.582407	0.724291	0.023590	-0.010736	0.003203
345	1.739745	0.005000	0.242896	9.716608	2.503904	-0.743922	-0.582517	0.724046	0.019748	-0.011659	0.001488
346	1.744745	0.005000	0.280192	9.653040	2.539577	-0.743702	-0.582627	0.723801	0.012454	-0.004409	-0.001660
347	1.749745	0.005000	0.313920	9.653040	2.514467	-0.743483	-0.582736	0.723556	0.020607	-0.012177	-0.006620
348	1.754745	0.005000	0.275843	9.695769	2.511360	-0.743263	-0.582846	0.723311	0.002933	-0.000097	-0.001971
349	1.759745	0.005000	0.351920	9.734001	2.511360	-0.743044	-0.582956	0.723066	0.005839	-0.008885	0.000196
350	1.764745	0.005000	0.392400	9.728321	2.547401	-0.742825	-0.583065	0.722821	0.005200	-0.005058	-0.003175
351	1.769745	0.005000	0.319524	9.653040	2.516964	-0.742605	-0.583175	0.722576	-0.000542	-0.005099	-0.007860
352	1.774745	0.005000	0.306372	9.684732	2.511360	-0.742386	-0.583285	0.722331	0.003762	-0.012449	0.003641
353	1.779745	0.005000	0.313920	9.663003	2.432880	-0.742166	-0.583394	0.722086	-0.007385	-0.004611	-0.010687
354	1.784745	0.005000	0.235440	9.653040	2.460224	-0.741947	-0.583504	0.721841	0.000031	-0.018662	0.003296
355	1.789745	0.005000	0.274680	9.613800	2.497051	-0.741728	-0.583582	0.721738	0.000666	-0.007785	0.003105
356	1.794745	0.005000	0.212453	9.692280	2.518094	-0.741508	-0.583582	0.721983	0.006750	-0.004881	0.004535
357	1.799745	0.005000	0.235440	9.750183	2.531937	-0.741289	-0.583582	0.722228	0.005405	-0.016345	0.001610
358	1.804745	0.005000	0.274680	9.714863	2.529992	-0.741069	-0.583582	0.722473	0.007800	-0.007223	0.006546
359	1.809745	0.005000	0.274680	9.676058	2.596635	-0.740850	-0.583582	0.722718	0.004753	-0.011405	0.009049
360	1.814745	0.005000	0.274680	9.706394	2.668320	-0.740631	-0.583582	0.722963	0.004327	-0.004615	-0.006170
361	1.819745	0.005000	0.329429	9.731520	2.608993	-0.740411	-0.583582	0.723208	0.022574	-0.014059	-0.006137
362	1.824745	0.005000	0.206002	9.810000	2.491755	-0.740192	-0.583582	0.723453	0.020201	-0.014973	0.003054
363	1.829745	0.005000	0.211229	9.770760	2.440394	-0.739972	-0.583582	0.723698	0.014088	-0.002176	-0.003475
364	1.834745	0.005000	0.284877	9.765662	2.427782	-0.739753	-0.583582	0.723943	0.019142	-0.006365	-0.006704
365	1.839745	0.005000	0.274680	9.737828	2.517668	-0.739533	-0.583582	0.724188	0.005413	-0.003418	-0.005192
366	1.844745	0.005000	0.313920	9.693030	2.551350	-0.739314	-0.583582	0.724433	0.007924	-0.016218	0.004544
367	1.849745	0.005000	0.313920	9.731520	2.551794	-0.739095	-0.583582	0.724678	0.002825	-0.011836	0.005183
368	1.854745	0.005000	0.164070	9.692280	2.411414	-0.738875	-0.583582	0.724923	0.013373	-0.015969	0.005991
369	1.859745	0.005000	0.263595	9.742605	2.573213	-0.739106	-0.583507	0.724832	0.011741	-0.016422	0.000895
370	1.864745	0.005000	0.157511	9.723562	2.440838	-0.739545	-0.583397	0.724587	0.007433	-0.009107	-0.001230
371	1.869745	0.005000	0.293438	9.700797	2.480637	-0.739984	-0.583288	0.724342	0.015843	-0.016630	0.005199
372	1.874745	0.005000	0.286989	9.626109	2.577531	-0.740423	-0.583178	0.724097	0.013151	-0.015252	-0.000700
373	1.879745	0.005000	0.284815	9.653040	2.525912	-0.740862	-0.583068	0.723852	0.011080	-0.018496	0.003697
374	1.884745	0.005000	0.297254	9.613800	2.573174	-0.741300	-0.582959	0.723607	0.008325	-0.012431	0.000930
375	1.889745	0.005000	0.312833	9.633964	2.550600	-0.741739	-0.582849	0.723362	0.011190	-0.011675	-0.003148
376	1.894745	0.005000	0.311118	9.650238	2.508558	-0.742178	-0.582739	0.723117	0.008737	-0.017845	0.002338
377	1.899745	0.005000	0.376591	9.715711	2.574031	-0.742617	-0.582630	0.722872	0.013385	-0.011655	-0.002220
378	1.904745	0.005000	0.313920	9.692280	2.536895	-0.743056	-0.582520	0.722627	0.014525	-0.011268	0.002240
379	1.909745	0.005000	0.313920	9.742972	2.527696	-0.743494	-0.582410	0.722382	0.009603	-0.014433	0.004793
380	1.914745	0.005000	0.253530	9.731520	2.450970	-0.743933	-0.582301	0.722137	0.010054	-0.014561	0.002537
381	1.919745	0.005000	0.346141	9.692280	2.589840	-0.744372	-0.582191	0.721892	0.014690	-0.009206	0.003209
382	1.924745	0.005000	0.304523	9.696978	2.550600	-0.744767	-0.582081	0.721804	0.013743	-0.011155	-0.001487
383	1.929745	0.005000	0.240886	9.759868	2.553323	-0.744658	-0.581972	0.723519	0.014971	-0.015787	0.002973
384	1.934745	0.005000	0.273670	9.614137	2.472457	-0.744548	-0.581862	0.725234	0.018822	-0.003311	-0.005754
385	1.939745	0.005000	0.119762	9.690238	2.548558	-0.744438	-0.581752	0.726949	0.017183	-0.012375	0.002947
386	1.944745	0.005000	0.200211	9.731520	2.476131	-0.744329	-0.581642	0.728664	0.018720	-0.012871	0.004414
387	1.949745	0.005000	0.274680	9.725092	2.459264	-0.744219	-0.581533	0.730379	0.025255	-0.013053	0.001071
388	1.954745	0.005000	0.322648	9.722792	2.607297	-0.744109	-0.581423	0.732094	0.023742	-0.020181	-0.002151
389	1.959745	0.005000	0.381622	9.770760	2.561378	-0.744000	-0.581313	0.733809	0.026469	-0.020068	0.003097
390	1.964745	0.005000	0.353160	9.665896	2.550600	-0.743890	-0.581203	0.735524	0.022734	-0.019320	0.002955
391	1.969745	0.005000	0.289816	9.794864	2.565736	-0.743780	-0.581094	0.737239	0.012910	-0.016360	0.002073
392	1.974745	0.005000	0.235440	9.784156	2.542302	-0.743671	-0.580984	0.738954	0.018917	-0.009183	-0.003527
393	1.979745	0.005000	0.294194	9.692492	2.452394	-0.743561	-0.580874	0.740669	0.018021	-0.007318	-0.008459
394	1.984745	0.005000	0.279241	9.709620	2.442001	-0.743451	-0.580764	0.742384	0.025345	-0.008085	0.003889
395	1.989745	0.005000	0.265876	9.770760	2.511360	-0.743342	-0.580655	0.744099	0.022559	-0.013616	0.014930
396	1.994745	0.005000	0.313920	9.822993	2.537607	-0.743701	-0.581118	0.745058	0.006947	-0.001914	0.006817
397	1.999745	0.005000	0.313920	9.810000	2.450961	-0.744578	-0.582214	0.745181	0.022753	-0.004235	-0.004122
398	2.004745	0.005000	0.296856	9.630864	2.480652	-0.745455	-0.583311	0.745303	0.011833	-0.002642	-0.005345
399	2.009745	0.005000	0.247898	9.764531	2.511360	-0.746332	-0.584407	0.745426	0.010367	-0.007837	-0.005839
400	2.014745	0.005000	0.310108	9.699904	2.518984	-0.747209	-0.585504	0.745548	0.015089	-0.008944	0.003788
401	2.019745	0.005000	0.237286	9.810000	2.507669	-0.748087	-0.586600	0.745671	0.016712	-0.009391	-0.005381
402	2.024745	0.005000	0.313384	9.810000	2.471584	-0.748964	-0.587697	0.745793	0.007636	-0.011193	-0.004187
403	2.029745	0.005000	0.277160	9.734000	2.506400	-0.749841	-0.588794	0.745915	0.001917	-0.009894	-0.003793
404	2.034745	0.005000	0.343365	9.731520	2.609491	-0.750718	-0.589890	0.746038	0.022362	-0.009063	-0.001034
405	2.039745	0.005000	0.306704	9.802784	2.557816	-0.751596	-0.590987	0.746160	0.010611	-0.011814	0.002443
406	2.044745	0.005000	0.313920	9.740767	2.490615	-0.752473	-0.592083	0.746283	0.005826	-0.009713	0.005801
407	2.049745	0.005000	0.263153	9.653040	2.455934	-0.753350	-0.593180	0.746405	0.006405	-0.014313	0.012100
408	2.054745	0.005000	0.313920	9.627405	2.432880	-0.754227	-0.594276	0.746528	0.010417	-0.012973	-0.000014
409	2.059745	0.005000	0.297906	9.699491	2.486542	-0.755105	-0.595373	0.746650	0.009672	-0.014070	0.001093
410	2.064745	0.005000	0.235440	9.713322	2.408994	-0.755319	-0.595332	0.745396	0.016138	-0.009583	-0.009988
411	2.069745	0.005000	0.197685	9.711157	2.412517	-0.755429	-0.595113	0.743926	0.013364	-0.014756	-0.005267
412	2.074745	0.005000	0.218973	9.675813	2.511360	-0.755538	-0.594893	0.742455	0.017027	-0.018038	0.004009
413	2.079745	0.005000	0.235440	9.682087	2.443073	-0.755648	-0.594674	0.740984	0.010079	-0.011558	0.003054
414	2.084745	0.005000	0.223330	9.719410	2.339381	-0.755758	-0.594454	0.739513	0.012764	-0.018291	0.003283
415	2.089745	0.005000	0.293831	9.721476	2.501316	-0.755867	-0.594235	0.738043	0.009812	-0.007263	0.006937
416	2.094745	0.005000	0.243199	9.700039	2.542841	-0.755977	-0.594015	0.736572	0.012828	-0.016023	0.001352
417	2.099745	0.005000	0.308172	9.686532	2.399388	-0.756087	-0.593796	0.735101	0.012393	-0.016917	-0.001960
418	2.104745	0.005000	0.307122	9.692280	2.485715	-0.756197	-0.593576	0.733630	0.012280	-0.018008	-0.012280
419	2.109745	0.005000	0.196200	9.770760	2.552037	-0.756306	-0.593357	0.732160	0.011637	-0.017735	0.002888
420	2.114745	0.005000	0.311072	9.770760	2.513258	-0.756416	-0.593137	0.730689	0.010832	-0.005313	-0.006325
421	2.119745	0.005000	0.206184	9.734848	2.547272	-0.756526	-0.592918	0.729218	0.017219	-0.014597	0.005014
422	2.124745	0.005000	0.219508	9.692280	2.555911	-0.756635	-0.592698	0.727747	0.010338	-0.006285	0.002925
423	2.129745	0.005000	0.313920	9.613800	2.495269	-0.756425	-0.592391	0.726537	0.012971	-0.008015	-0.003217
424	2.134745	0.005000	0.245097	9.721863	2.491434	-0.755328	-0.591843	0.726047	0.007273	-0.017350	-0.000525
425	2.139745	0.005000	0.262616	9.707391	2.472120	-0.754231	-0.591294	0.725557	0.003576	-0.009118	0.002119
426	2.144745	0.005000	0.288689	9.795991	2.525369	-0.753134	-0.590746	0.725067	0.012465	-0.013335	0.004852
427	2.149745	0.005000	0.264656	9.708701	2.393640	-0.752037	-0.590198	0.724577	-0.001236	-0.010052	-0.000550
428	2.154745	0.005000	0.316430	9.692280	2.412005	-0.750940	-0.589649	0.724087	0.012220	-0.004650	-0.000508
429	2.159745	0.005000	0.334696	9.692280	2.430568	-0.749843	-0.589101	0.723597	0.009528	-0.009038	0.002435
430	2.164745	0.005000	0.202401	9.692280	2.488640	-0.748746	-0.588552	0.723107	0.004988	-0.006957	-0.008615
431	2.169745	0.005000	0.232349	9.810000	2.522379	-0.747649	-0.588004	0.722617	0.005890	-0.015629	0.007939
432	2.174745	0.005000	0.247607	9.758593	2.474859	-0.746551	-0.587455	0.722127	0.008456	-0.007007	0.006930
433	2.179745	0.005000	0.343407	9.731520	2.472120	-0.745454	-0.586907	0.721636	0.012968	-0.013112	-0.001585
434	2.184745	0.005000	0.220010	9.723805	2.550600	-0.744357	-0.586358	0.721146	0.004956	-0.012422	-0.000198
435	2.189745	0.005000	0.162362	9.810000	2.427478	-0.743260	-0.585810	0.720656	0.007863	-0.012074	-0.007344
436	2.194745	0.005000	0.349741	9.695699	2.518198	-0.742163	-0.585261	0.720166	0.009558	-0.012966	0.007912
437	2.199745	0.005000	0.310797	9.731520	2.551641	-0.741719	-0.585365	0.720162	0.016932	-0.012891	0.004755
438	2.204745	0.005000	0.271987	9.655733	2.589840	-0.741609	-0.585804	0.720407	0.018091	-0.014222	0.008008
439	2.209745	0.005000	0.268069	9.656346	2.517971	-0.741499	-0.586243	0.720652	0.010941	-0.011362	0.000209
440	2.214745	0.005000	0.162602	9.720235	2.466478	-0.741390	-0.586681	0.720897	0.012040	-0.012821	-0.002329
441	2.219745	0.005000	0.149305	9.699935	2.432880	-0.741280	-0.587120	0.721142	0.012734	-0.018083	0.004298
442	2.224745	0.005000	0.186130	9.770760	2.511360	-0.741170	-0.587559	0.721387	0.020090	-0.013643	0.004208
443	2.229745	0.005000	0.235440	9.743849	2.459791	-0.741061	-0.587998	0.721632	0.020555	-0.012912	0.014169
444	2.234745	0.005000	0.235440	9.745942	2.393640	-0.740951	-0.588437	0.721877	0.009751	-0.019725	-0.008465
445	2.239745	0.005000	0.167640	9.714880	2.455480	-0.740841	-0.588875	0.722122	0.019540	-0.017991	0.010720
446	2.244745	0.005000	0.098942	9.733203	2.412418	-0.740732	-0.589314	0.722367	0.012898	-0.010042	0.008787
447	2.249745	0.005000	0.175264	9.728888	2.472120	-0.740622	-0.589753	0.722612	0.014431	-0.007850	-0.002805
448	2.254745	0.005000	0.212306	9.786866	2.479147	-0.740512	-0.590192	0.722857	0.015458	-0.013001	0.011251
449	2.259745	0.005000	0.224185	9.717527	2.343145	-0.740403	-0.590631	0.723102	0.009504	-0.009970	-0.002080
450	2.264745	0.005000	0.196200	9.735499	2.440655	-0.740293	-0.591033	0.723326	0.013988	-0.009775	0.002279
451	2.269745	0.005000	0.293358	9.742742	2.474003	-0.740183	-0.590813	0.723204	0.012366	-0.004664	0.009492
452	2.274745	0.005000	0.228033	9.660447	2.447694	-0.740073	-0.590594	0.723081	0.001320	-0.007308	-0.002771
453	2.279745	0.005000	0.230449	9.692280	2.374364	-0.739964	-0.590374	0.722959	0.014261	-0.005498	0.005263
454	2.284745	0.005000	0.274680	9.538367	2.595933	-0.739854	-0.590155	0.722836	0.009583	-0.003939	0.003839
455	2.289745	0.005000	0.236083	9.693566	2.550600	-0.739744	-0.589936	0.722714	0.007171	-0.009584	0.000360
456	2.294745	0.005000	0.274680	9.732821	2.588539	-0.739634	-0.589716	0.722591	0.008793	-0.010422	-0.000871
457	2.299745	0.005000	0.353160	9.767041	2.518798	-0.739525	-0.589497	0.722469	0.007972	-0.010110	0.002608
458	2.304745	0.005000	0.341058	9.665142	2.505309	-0.739415	-0.589277	0.722346	0.002711	-0.007090	0.012180
459	2.309745	0.005000	0.305852	9.692280	2.511360	-0.739305	-0.589058	0.722224	0.015017	-0.008851	0.003573
460	2.314745	0.005000	0.342798	9.721158	2.422518	-0.739195	-0.588839	0.722102	0.020297	-0.014159	-0.004525
461	2.319745	0.005000	0.260294	9.704707	2.391681	-0.739086	-0.588619	0.721979	0.021771	-0.003295	-0.001548
462	2.324745	0.005000	0.260022	9.653040	2.560523	-0.738976	-0.588400	0.721857	0.025671	-0.008745	-0.006511
463	2.329745	0.005000	0.252220	9.714740	2.567380	-0.738866	-0.588180	0.721734	0.013634	-0.008541	-0.001258
464	2.334745	0.005000	0.334826	9.653040	2.609889	-0.738905	-0.587961	0.721722	0.018989	-0.011376	-0.003020
465	2.339745	0.005000	0.313920	9.653040	2.511360	-0.739124	-0.587742	0.721845	0.018107	-0.010575	0.000924
466	2.344745	0.005000	0.258978	9.645204	2.464284	-0.739344	-0.587522	0.721967	0.020863	-0.005939	-0.001727
467	2.349745	0.005000	0.223399	9.693838	2.538559	-0.739563	-0.587303	0.722090	0.022683	-0.014832	0.000841
468	2.354745	0.005000	0.297370	9.692280	2.488670	-0.739783	-0.587083	0.722212	0.020300	-0.007207	-0.006629
469	2.359745	0.005000	0.323208	9.740808	2.432880	-0.740002	-0.586864	0.722335	0.019845	-0.015726	0.001082
470	2.364745	0.005000	0.313920	9.731520	2.407628	-0.740221	-0.586645	0.722457	0.013221	-0.008552	-0.003622
471	2.369745	0.005000	0.279672	9.741504	2.437872	-0.740441	-0.586425	0.722579	0.006337	-0.007865	-0.009297
472	2.374745	0.005000	0.235440	9.843973	2.553233	-0.740660	-0.586206	0.722702	0.010178	-0.008050	0.000828
473	2.379745	0.005000	0.234759	9.770079	2.549239	-0.740880	-0.585986	0.722824	0.008343	-0.005889	-0.014441
474	2.384745	0.005000	0.233725	9.731520	2.509645	-0.741099	-0.585767	0.722947	0.013671	-0.011399	-0.005571
475	2.389745	0.005000	0.345842	9.660358	2.436539	-0.741318	-0.585548	0.723069	0.012790	-0.012053	-0.004371
476	2.394745	0.005000	0.307844	9.731520	2.583764	-0.741538	-0.585328	0.723192	0.015894	-0.017000	0.000700
477	2.399745	0.005000	0.305540	9.700660	2.533839	-0.741757	-0.585109	0.723314	0.015083	-0.021809	-0.002857
478	2.404745	0.005000	0.196200	9.760334	2.561026	-0.741977	-0.585075	0.723229	0.018565	-0.012762	0.000407
479	2.409745	0.005000	0.197396	9.758079	2.473316	-0.742196	-0.585075	0.723107	0.009552	-0.014661	-0.003152
480	2.414745	0.005000	0.181426	9.810000	2.359483	-0.742416	-0.585075	0.722984	0.004242	-0.003271	0.005767
481	2.419745	0.005000	0.235440	9.765893	2.376453	-0.742635	-0.585075	0.722862	0.005225	-0.013153	0.005282
482	2.424745	0.005000	0.235440	9.652061	2.452010	-0.742855	-0.585075	0.722739	0.001990	-0.014512	0.003351
483	2.429745	0.005000	0.296221	9.631499	2.464434	-0.743074	-0.585075	0.722617	0.010553	-0.006737	0.002009
484	2.434745	0.005000	0.251194	9.708034	2.550600	-0.743294	-0.585075	0.722494	0.003879	-0.008331	0.001787
485	2.439745	0.005000	0.366505	9.731520	2.524705	-0.743513	-0.585075	0.722372	0.002138	-0.008120	0.005303
486	2.444745	0.005000	0.286082	9.731520	2.578438	-0.743733	-0.585075	0.722249	0.017597	-0.013809	0.003370
487	2.449745	0.005000	0.244427	9.758481	2.571866	-0.743952	-0.585075	0.722127	0.013667	-0.008366	0.001317
488	2.454745	0.005000	0.274680	9.849240	2.504401	-0.744172	-0.585075	0.722004	0.020954	-0.011566	-0.005325
489	2.459745	0.005000	0.313920	9.800726	2.451429	-0.744391	-0.585075	0.721882	0.014152	-0.016173	-0.000656
490	2.464745	0.005000	0.164947	9.694942	2.550600	-0.744611	-0.585075	0.721759	0.011610	-0.016258	-0.008786
491	2.469745	0.005000	0.313920	9.692280	2.511360	-0.744776	-0.585102	0.721758	0.016619	-0.016405	-0.000787
492	2.474745	0.005000	0.313920	9.803692	2.474223	-0.744776	-0.585212	0.722126	0.006071	-0.014376	0.007638
493	2.479745	0.005000	0.239513	9.731520	2.507287	-0.744776	-0.585322	0.722493	0.007295	-0.014020	0.010109
494	2.484745	0.005000	0.261728	9.803524	2.439356	-0.744776	-0.585431	0.722861	-0.001227	-0.013799	0.006576
495	2.489745	0.005000	0.204621	9.700701	2.472120	-0.744776	-0.585541	0.723228	0.012776	-0.007325	-0.003517
496	2.494745	0.005000	0.235440	9.703115	2.550600	-0.744776	-0.585651	0.723596	0.004613	-0.007793	-0.002201
497	2.499745	0.005000	0.287750	9.679210	2.537545	-0.744776	-0.585760	0.723963	0.009221	-0.000580	-0.001971
498	2.504745	0.005000	0.283545	9.731520	2.589840	-0.744776	-0.585870	0.724331	0.017648	-0.007836	-0.001005
499	2.509745	0.005000	0.257080	9.731520	2.515400	-0.744776	-0.585980	0.724698	0.021216	-0.012156	0.000348
500	2.514745	0.005000	0.235287	9.692280	2.530903	-0.744776	-0.586089	0.725066	0.020400	-0.012580	0.003864
501	2.519745	0.005000	0.200870	9.748805	2.450165	-0.744776	-0.586199	0.725433	0.017379	-0.005954	0.011026
502	2.524745	0.005000	0.181043	9.707437	2.489970	-0.744776	-0.586309	0.725801	0.009700	-0.012906	0.004995
503	2.529745	0.005000	0.209576	9.731520	2.393196	-0.744776	-0.586418	0.726168	0.012253	-0.008955	0.005228
504	2.534745	0.005000	0.227754	9.663558	2.550600	-0.744776	-0.586528	0.726536	0.009868	-0.014274	-0.006691
505	2.539745	0.005000	0.213347	9.770760	2.472120	-0.744564	-0.586355	0.727455	0.011018	-0.005316	0.005487
506	2.544745	0.005000	0.262345	9.725352	2.445215	-0.744235	-0.586026	0.728680	0.012808	-0.000685	0.000801
507	2.549745	0.005000	0.227090	9.770760	2.498835	-0.743906	-0.585697	0.729905	0.018312	-0.011112	0.005542
508	2.554745	0.005000	0.196200	9.733341	2.399104	-0.743577	-0.585368	0.731130	0.006866	-0.014906	0.000697
509	2.559745	0.005000	0.196200	9.770760	2.627310	-0.743248	-0.585039	0.732355	0.014554	-0.016617	-0.001634
510	2.564745	0.005000	0.240521	9.731520	2.516441	-0.742919	-0.584710	0.733580	0.017200	-0.015997	0.003245
511	2.569745	0.005000	0.264908	9.692280	2.540828	-0.742590	-0.584381	0.734805	0.015452	-0.008600	0.002867
512	2.574745	0.005000	0.307030	9.731520	2.582950	-0.742261	-0.584052	0.736030	0.014674	-0.014902	-0.003149
513	2.579745	0.005000	0.244745	9.662345	2.659015	-0.741932	-0.583723	0.737255	0.004386	-0.015766	-0.000342
514	2.584745	0.005000	0.291423	9.602551	2.561849	-0.741603	-0.583394	0.738480	0.008909	-0.011536	0.000566
515	2.589745	0.005000	0.261023	9.680353	2.603497	-0.741274	-0.583065	0.739705	0.013610	-0.017927	0.001657
516	2.594745	0.005000	0.290281	9.676679	2.503322	-0.740945	-0.582736	0.740930	0.004590	-0.014447	-0.004309
517	2.599745	0.005000	0.274680	9.731520	2.550600	-0.740615	-0.582406	0.742155	0.015837	-0.020542	0.002665
518	2.604745	0.005000	0.275799	9.672100	2.608900	-0.740316	-0.582098	0.743272	0.014116	-0.016303	-0.008375
519	2.609745	0.005000	0.218568	9.664415	2.550600	-0.740754	-0.582318	0.741680	0.012067	-0.014961	-0.005101
520	2.614745	0.005000	0.289429	9.658047	2.580098	-0.741193	-0.582537	0.740088	0.010690	-0.024953	-0.002490
521	2.619745	0.005000	0.274680	9.704804	2.629080	-0.741632	-0.582756	0.738496	0.011065	-0.015611	-0.006660
522	2.624745	0.005000	0.225324	9.653040	2.608848	-0.742070	-0.582976	0.736905	0.014468	-0.021991	-0.004920
523	2.629745	0.005000	0.235440	9.590716	2.550600	-0.742509	-0.583195	0.735313	0.010261	-0.013710	-0.001392
524	2.634745	0.005000	0.246953	9.725763	2.634837	-0.742948	-0.583414	0.733721	0.018507	-0.017046	0.002071
525	2.639745	0.005000	0.227907	9.723987	2.518893	-0.743386	-0.583634	0.732129	0.016153	-0.016118	0.004424
526	2.644745	0.005000	0.199016	9.690872	2.511360	-0.743825	-0.583853	0.730537	0.017715	-0.010150	0.001457
527	2.649745	0.005000	0.351163	9.691282	2.434877	-0.744263	-0.584072	0.728945	0.020725	-0.013003	0.003010
528	2.654745	0.005000	0.353160	9.770760	2.580979	-0.744702	-0.584292	0.727354	0.005585	-0.003483	-0.002097
529	2.659745	0.005000	0.353160	9.736815	2.545305	-0.745141	-0.584511	0.725762	0.020668	-0.010427	0.003659
530	2.664745	0.005000	0.281983	9.770760	2.614474	-0.745579	-0.584730	0.724170	0.012975	-0.008215	0.002828
531	2.669745	0.005000	0.274680	9.682562	2.511360	-0.746018	-0.584949	0.722578	0.013328	-0.006663	-0.001471
532	2.674745	0.005000	0.302258	9.731520	2.499698	-0.746222	-0.585075	0.721772	0.025799	-0.011136	0.002321
533	2.679745	0.005000	0.325020	9.745590	2.446950	-0.746112	-0.585075	0.722017	0.013780	-0.004995	-0.002965
534	2.684745	0.005000	0.251454	9.645829	2.307949	-0.746003	-0.585075	0.722262	0.017822	-0.008189	-0.003145
535	2.689745	0.005000	0.237844	9.710698	2.377626	-0.745893	-0.585075	0.722507	0.009418	-0.007539	-0.001209
536	2.694745	0.005000	0.274680	9.731520	2.472120	-0.745783	-0.585075	0.722752	0.011730	-0.004154	0.001833
537	2.699745	0.005000	0.297453	9.816305	2.511360	-0.745673	-0.585075	0.722997	0.013097	-0.004850	0.002954
538	2.704745	0.005000	0.260156	9.716996	2.368924	-0.745564	-0.585075	0.723242	0.010125	0.001197	0.004631
539	2.709745	0.005000	0.262570	9.653040	2.496341	-0.745454	-0.585075	0.723487	0.012055	-0.010014	0.003656
540	2.714745	0.005000	0.225396	9.682236	2.412791	-0.745344	-0.585075	0.723732	0.003378	0.000411	-0.006741
541	2.719745	0.005000	0.274680	9.739279	2.479879	-0.745234	-0.585075	0.723977	0.009070	-0.013059	-0.001141
542	2.724745	0.005000	0.274680	9.698028	2.562097	-0.745125	-0.585075	0.724222	-0.001245	-0.003939	0.008346
543	2.729745	0.005000	0.232041	9.695679	2.511360	-0.745015	-0.585075	0.724467	0.008527	0.005398	-0.005183
544	2.734745	0.005000	0.275675	9.732515	2.550600	-0.744905	-0.585075	0.724712	0.006574	-0.009425	-0.002443
545	2.739745	0.005000	0.313920	9.694178	2.435728	-0.744795	-0.585075	0.724957	0.005122	-0.004511	-0.005549
546	2.744745	0.005000	0.242096	9.695608	2.426224	-0.745318	-0.585797	0.726513	0.027815	-0.013072	0.001141
547	2.749745	0.005000	0.240751	9.804689	2.448812	-0.745976	-0.586675	0.728351	0.029513	-0.007619	0.002539
548	2.754745	0.005000	0.306296	9.699904	2.488488	-0.746635	-0.587554	0.730190	0.023032	-0.014855	0.002626
549	2.759745	0.005000	0.265023	9.761103	2.501703	-0.747293	-0.588432	0.732028	0.018681	-0.017796	0.000100
550	2.764745	0.005000	0.259569	9.743584	2.526471	-0.747952	-0.589310	0.733866	0.019801	-0.015560	-0.003743
551	2.769745	0.005000	0.274680	9.767069	2.629080	-0.748610	-0.590188	0.735705	0.021342	-0.012820	-0.001371
552	2.774745	0.005000	0.313920	9.708701	2.567021	-0.749269	-0.591066	0.737543	0.017038	-0.014375	0.001428
553	2.779745	0.005000	0.293286	9.733547	2.534021	-0.749927	-0.591944	0.739382	0.024792	-0.014186	0.000266
554	2.784745	0.005000	0.311608	9.791536	2.566752	-0.750586	-0.592822	0.741220	0.021342	-0.017165	0.003290
555	2.789745	0.005000	0.297598	9.754438	2.501633	-0.751245	-0.593700	0.743058	0.022463	-0.010412	-0.001222
556	2.794745	0.005000	0.274680	9.706390	2.461101	-0.751903	-0.594578	0.744897	0.024427	-0.013640	0.009849
557	2.799745	0.005000	0.262654	9.704306	2.511360	-0.752562	-0.595456	0.746735	0.013182	-0.012124	0.001295
558	2.804745	0.005000	0.206182	9.712015	2.511590	-0.753220	-0.596334	0.748574	0.020011	-0.017953	0.006997
559	2.809745	0.005000	0.211630	9.653040	2.439929	-0.754075	-0.597040	0.749753	0.021003	-0.016269	0.004300
560	2.814745	0.005000	0.313920	9.692280	2.472120	-0.755611	-0.597149	0.748650	0.027690	-0.010947	0.008618
561	2.819745	0.005000	0.313920	9.656459	2.504522	-0.757147	-0.597259	0.747548	0.022457	-0.017971	0.007330
562	2.824745	0.005000	0.234399	9.770760	2.551641	-0.758683	-0.597369	0.746445	0.018109	-0.009163	0.001165
563	2.829745	0.005000	0.234552	9.732408	2.551488	-0.760219	-0.597478	0.745343	0.023564	-0.009975	0.009405
564	2.834745	0.005000	0.235440	9.581171	2.593146	-0.761755	-0.597588	0.744240	0.025192	-0.002894	-0.003446
565	2.839745	0.005000	0.235440	9.619442	2.595482	-0.763291	-0.597698	0.743137	0.031161	-0.014857	0.010168
566	2.844745	0.005000	0.203855	9.747795	2.479775	-0.764827	-0.597807	0.742035	0.017396	-0.010884	-0.001750
567	2.849745	0.005000	0.235440	9.741474	2.521314	-0.766363	-0.597917	0.740932	0.018330	-0.005397	-0.006567
568	2.854745	0.005000	0.262666	9.773959	2.577826	-0.767899	-0.598027	0.739830	0.013875	-0.011957	0.005347
569	2.859745	0.005000	0.274680	9.824250	2.543369	-0.769435	-0.598136	0.738727	0.017064	-0.007556	-0.002537
570	2.864745	0.005000	0.313920	9.754393	2.504853	-0.770971	-0.598246	0.737625	0.022770	-0.014092	0.007370
571	2.869745	0.005000	0.214761	9.653040	2.490681	-0.772506	-0.598356	0.736522	0.012197	-0.010157	0.002295
572	2.874745	0.005000	0.311716	9.687872	2.566914	-0.774042	-0.598465	0.735420	0.018927	-0.014289	0.001886
573	2.879745	0.005000	0.346133	9.770760	2.527466	-0.773608	-0.597895	0.734545	0.024644	-0.002278	0.006676
574	2.884745	0.005000	0.324836	9.756598	2.536438	-0.771962	-0.596908	0.733810	0.023607	-0.003038	0.002876
575	2.889745	0.005000	0.235440	9.747253	2.511360	-0.770317	-0.595921	0.733075	0.036864	-0.008812	0.008887
576	2.894745	0.005000	0.264530	9.692280	2.393640	-0.768671	-0.594934	0.732340	0.015168	-0.008136	0.011756
577	2.899745	0.005000	0.370178	9.755946	2.486934	-0.767025	-0.593946	0.731605	0.019558	-0.007353	0.011855
578	2.904745	0.005000	0.347696	9.726056	2.516824	-0.765380	-0.592959	0.730870	0.020837	-0.007174	0.008650
579	2.909745	0.005000	0.313920	9.656087	2.553647	-0.763734	-0.591972	0.730135	0.023606	-0.013807	-0.002106
580	2.914745	0.005000	0.350982	9.771849	2.511360	-0.762089	-0.590984	0.729399	0.027025	-0.011447	0.006082
581	2.919745	0.005000	0.160864	9.772061	2.473421	-0.760443	-0.589997	0.728664	0.021792	-0.016124	0.005391
582	2.924745	0.005000	0.235440	9.734766	2.396886	-0.758797	-0.589010	0.727929	0.022098	-0.019416	0.003966
583	2.929745	0.005000	0.269017	9.720195	2.432880	-0.757152	-0.588022	0.727194	0.015789	-0.022897	0.003076
584	2.934745	0.005000	0.211412	9.699886	2.496148	-0.755506	-0.587035	0.726459	0.020402	-0.019851	0.010017
585	2.939745	0.005000	0.264667	9.789974	2.579827	-0.753861	-0.586048	0.725724	0.018606	-0.014127	0.013449
586	2.944745	0.005000	0.365443	9.807610	2.535927	-0.752226	-0.585077	0.724995	0.007923	-0.013636	-0.004007
587	2.949745	0.005000	0.289051	9.692280	2.461621	-0.751349	-0.585186	0.724627	0.019049	-0.017807	0.001284
588	2.954745	0.005000	0.291259	9.714941	2.416301	-0.750471	-0.585296	0.724260	0.029072	-0.010310	-0.014466
589	2.959745	0.005000	0.254164	9.671764	2.473911	-0.749593	-0.585406	0.723892	0.032092	-0.023213	0.001545
590	2.964745	0.005000	0.277191	9.692280	2.553111	-0.748716	-0.585515	0.723525	0.024275	-0.016188	0.000476
591	2.969745	0.005000	0.274680	9.747688	2.409808	-0.747838	-0.585625	0.723157	0.019648	-0.014467	-0.006508
592	2.974745	0.005000	0.311000	9.824053	2.435800	-0.746960	-0.585735	0.722789	0.019788	-0.021632	0.003985
593	2.979745	0.005000	0.180590	9.707890	2.562415	-0.746083	-0.585844	0.722422	0.020587	-0.014211	-0.006198
594	2.984745	0.005000	0.186800	9.632601	2.490921	-0.745205	-0.585954	0.722054	0.029231	-0.023122	0.001006
595	2.989745	0.005000	0.211112	9.785672	2.472120	-0.744327	-0.586064	0.721687	0.034077	-0.008797	-0.003875
596	2.994745	0.005000	0.308870	9.804950	2.432880	-0.743450	-0.586173	0.721319	0.042011	-0.014726	-0.003929
597	2.999745	0.005000	0.271573	9.770760	2.547493	-0.742572	-0.586283	0.720952	0.045562	-0.004559	0.007975
598	3.004745	0.005000	0.196889	9.808622	2.472120	-0.741694	-0.586393	0.720584	0.043481	-0.007765	-0.002591
599	3.009745	0.005000	0.197455	9.693535	2.396150	-0.740817	-0.586502	0.720217	0.028475	-0.005757	0.001693
600	3.014745	0.005000	0.231825	9.585406	2.482966	-0.740299	-0.586657	0.720201	0.008380	0.004957	0.002749
601	3.019745	0.005000	0.235440	9.546527	2.410451	-0.740299	-0.586876	0.720691	0.001053	0.002087	0.007009
602	3.024745	0.005000	0.266661	9.597761	2.354400	-0.740299	-0.587096	0.721181	-0.025266	-0.000897	0.010781
603	3.029745	0.005000	0.245742	9.681978	2.461818	-0.740299	-0.587315	0.721671	-0.015560	0.010464	-0.000375
604	3.034745	0.005000	0.274680	9.719149	2.445251	-0.740299	-0.587535	0.722161	-0.014934	-0.001656	0.003891
605	3.039745	0.005000	0.274680	9.677682	2.472120	-0.740299	-0.587754	0.722651	-0.011641	0.004336	-0.005535
606	3.044745	0.005000	0.280483	9.770760	2.410359	-0.740299	-0.587973	0.723141	-0.001467	0.000252	-0.001051
607	3.049745	0.005000	0.313920	9.732499	2.335270	-0.740299	-0.588193	0.723631	0.012399	-0.005060	-0.001147
608	3.054745	0.005000	0.232532	9.788926	2.466304	-0.740299	-0.588412	0.724121	0.016054	-0.012111	-0.000698
609	3.059745	0.005000	0.235440	9.778492	2.385908	-0.740299	-0.588632	0.724611	0.023126	-0.010775	0.003591
610	3.064745	0.005000	0.235440	9.772949	2.435069	-0.740299	-0.588851	0.725101	0.023623	-0.012201	0.004487
611	3.069745	0.005000	0.212637	9.798598	2.421478	-0.740299	-0.589070	0.725591	0.030941	-0.014418	0.005325
612	3.074745	0.005000	0.175657	9.858589	2.412337	-0.740299	-0.589290	0.726081	0.026633	-0.010712	-0.002332
613	3.079745	0.005000	0.306877	9.777803	2.439923	-0.740299	-0.589509	0.726572	0.030196	-0.016201	0.002439
614	3.084745	0.005000	0.201237	9.702355	2.432880	-0.740829	-0.589287	0.726470	0.024128	-0.015303	0.005284
615	3.089745	0.005000	0.274680	9.770760	2.247454	-0.741488	-0.588958	0.726224	0.021470	-0.016637	-0.000305
616	3.094745	0.005000	0.197682	9.770760	2.355882	-0.742146	-0.588628	0.725979	0.007396	-0.018392	0.000464
617	3.099745	0.005000	0.199536	9.770760	2.470452	-0.742805	-0.588299	0.725734	0.001475	-0.013428	0.000199
618	3.104745	0.005000	0.345964	9.703074	2.472120	-0.743463	-0.587970	0.725489	-0.000770	-0.009501	0.006068
619	3.109745	0.005000	0.353160	9.671084	2.348385	-0.744122	-0.587641	0.725244	-0.000384	-0.005105	0.003264
620	3.114745	0.005000	0.291320	9.644720	2.424560	-0.744780	-0.587312	0.724999	0.016344	-0.007921	-0.003838
621	3.119745	0.005000	0.274680	9.653040	2.482485	-0.745439	-0.586982	0.724753	0.012602	-0.011886	-0.003736
622	3.124745	0.005000	0.274680	9.731520	2.498729	-0.746097	-0.586653	0.724508	0.011427	-0.015829	-0.007528
623	3.129745	0.005000	0.323715	9.746243	2.526083	-0.746756	-0.586324	0.724263	0.015414	-0.017156	0.002086
624	3.134745	0.005000	0.370087	9.692280	2.572913	-0.747414	-0.585995	0.724018	0.021902	-0.013023	-0.001156
625	3.139745	0.005000	0.274680	9.710269	2.608916	-0.748073	-0.585665	0.723773	0.025260	-0.021407	-0.005156
626	3.144745	0.005000	0.210964	9.692280	2.475357	-0.748732	-0.585336	0.723528	0.016634	-0.015241	-0.004056
627	3.149745	0.005000	0.290489	9.708089	2.487929	-0.749186	-0.585075	0.723384	0.014479	-0.021523	-0.006463
628	3.154745	0.005000	0.247887	9.718124	2.432880	-0.748857	-0.585075	0.723629	0.010487	-0.021380	0.002609
629	3.159745	0.005000	0.207515	9.748130	2.522675	-0.748527	-0.585075	0.723874	0.012745	-0.017636	0.010223
630	3.164745	0.005000	0.256590	9.731520	2.589840	-0.748198	-0.585075	0.724119	0.011989	-0.027837	-0.009551
631	3.169745	0.005000	0.235440	9.842611	2.583211	-0.747869	-0.585075	0.724364	0.020726	-0.018771	-0.005031
632	3.174745	0.005000	0.200898	9.805302	2.550600	-0.747539	-0.585075	0.724610	0.012938	-0.021392	0.002404
633	3.179745	0.005000	0.233159	9.729239	2.509079	-0.747210	-0.585075	0.724855	0.033061	-0.013805	-0.001425
634	3.184745	0.005000	0.275017	9.653377	2.511023	-0.746881	-0.585075	0.725100	0.029984	-0.007241	0.001281
635	3.189745	0.005000	0.239524	9.729478	2.434922	-0.746552	-0.585075	0.725345	0.030558	-0.012313	0.014228
636	3.194745	0.005000	0.235440	9.770760	2.468109	-0.746222	-0.585075	0.725590	0.037311	-0.017193	0.004646
637	3.199745	0.005000	0.196200	9.770760	2.517788	-0.745893	-0.585075	0.725835	0.038418	-0.011951	-0.006056
638	3.204745	0.005000	0.226712	9.709737	2.402368	-0.745564	-0.585075	0.726081	0.024240	-0.005332	-0.000026
639	3.209745	0.005000	0.253123	9.770760	2.539822	-0.745234	-0.585075	0.726326	0.018541	-0.006253	-0.005337
640	3.214745	0.005000	0.274680	9.744560	2.458959	-0.744905	-0.585075	0.726571	0.025174	-0.013938	0.000227
641	3.219745	0.005000	0.274680	9.683312	2.448016	-0.744709	-0.585208	0.726443	0.021463	-0.005408	-0.009066
642	3.224745	0.005000	0.235440	9.753215	2.380244	-0.744600	-0.585428	0.726076	0.030791	-0.013040	0.004535
643	3.229745	0.005000	0.294170	9.790250	2.393900	-0.744490	-0.585647	0.725708	0.033598	-0.002497	0.005995
644	3.234745	0.005000	0.326699	9.831900	2.567940	-0.744380	-0.585867	0.725340	0.038580	-0.016418	0.009104
645	3.239745	0.005000	0.322724	9.716302	2.637884	-0.744270	-0.586086	0.724973	0.042135	-0.010031	0.009401
646	3.244745	0.005000	0.287933	9.639787	2.511360	-0.744161	-0.586306	0.724605	0.035381	-0.000215	0.006777
647	3.249745	0.005000	0.285602	9.781682	2.432880	-0.744051	-0.586526	0.724237	0.031116	-0.011711	0.013858
648	3.254745	0.005000	0.244075	9.792730	2.511360	-0.743941	-0.586745	0.723870	0.026533	-0.006080	0.002116
649	3.259745	0.005000	0.346931	9.737749	2.550600	-0.743832	-0.586965	0.723502	0.028445	-0.010067	0.010411
650	3.264745	0.005000	0.388115	9.762190	2.624795	-0.743722	-0.587184	0.723134	0.033510	-0.001671	0.003995
651	3.269745	0.005000	0.198068	9.770760	2.507624	-0.743612	-0.587404	0.722767	0.030562	-0.009672	0.008540
652	3.274745	0.005000	0.196277	9.770760	2.354553	-0.743502	-0.587623	0.722399	0.034850	-0.014479	0.013486
653	3.279745	0.005000	0.161861	9.770760	2.469669	-0.743393	-0.587843	0.722031	0.029787	-0.007210	0.005667
654	3.284745	0.005000	0.265831	9.849240	2.363249	-0.743290	-0.588056	0.721669	0.040595	-0.009700	0.003444
655	3.289745	0.005000	0.267918	9.770760	2.426118	-0.743948	-0.587617	0.721914	0.037662	-0.004622	0.009435
656	3.294745	0.005000	0.265895	9.709849	2.432880	-0.744607	-0.587178	0.722159	0.040601	-0.013823	0.002885
657	3.299745	0.005000	0.291537	9.664232	2.472120	-0.745265	-0.586739	0.722404	0.036661	-0.013190	0.011109
658	3.304745	0.005000	0.354264	9.718072	2.432880	-0.745923	-0.586301	0.722649	0.039652	-0.020135	0.006723
659	3.309745	0.005000	0.274680	9.763380	2.401800	-0.746581	-0.585862	0.722894	0.045828	-0.009502	0.013521
660	3.314745	0.005000	0.292424	9.792256	2.411384	-0.747240	-0.585423	0.723139	0.036637	-0.001783	0.004943
661	3.319745	0.005000	0.275231	9.809449	2.432329	-0.747898	-0.584984	0.723384	0.052241	-0.017436	0.004564
662	3.324745	0.005000	0.201574	9.798441	2.465935	-0.748556	-0.584545	0.723629	0.047006	-0.009379	0.002609
663	3.329745	0.005000	0.274680	9.707269	2.399366	-0.749214	-0.584107	0.723874	0.042225	-0.009000	0.000926
664	3.334745	0.005000	0.328000	9.706360	2.432880	-0.749872	-0.583668	0.724119	0.041655	-0.011756	0.004952
665	3.339745	0.005000	0.235440	9.674067	2.364913	-0.750531	-0.583229	0.724364	0.032568	-0.009199	-0.002812
666	3.344745	0.005000	0.220865	9.739742	2.604415	-0.751189	-0.582790	0.724609	0.028366	-0.015707	0.002996
667	3.349745	0.005000	0.247844	9.810000	2.354400	-0.751847	-0.582351	0.724854	0.019981	-0.010185	0.001989
668	3.354745	0.005000	0.266936	9.766888	2.279792	-0.751840	-0.582268	0.725099	0.033188	-0.011746	0.003924
669	3.359745	0.005000	0.353160	9.730066	2.351491	-0.750852	-0.582706	0.725344	0.027563	-0.010364	0.010837
670	3.364745	0.005000	0.314410	9.731030	2.353421	-0.749865	-0.583145	0.725589	0.022951	-0.008018	0.003496
671	3.369745	0.005000	0.235440	9.807567	2.315160	-0.748877	-0.583584	0.725834	0.026066	-0.014346	0.013458
672	3.374745	0.005000	0.309082	9.775598	2.211954	-0.747890	-0.584023	0.726079	0.029578	-0.004462	0.004329
673	3.379745	0.005000	0.313920	9.667381	2.222339	-0.746903	-0.584462	0.726324	0.036404	-0.003990	-0.003042
674	3.384745	0.005000	0.304734	9.692280	2.227494	-0.745915	-0.584900	0.726569	0.043827	-0.009810	0.005144
675	3.389745	0.005000	0.274680	9.798534	2.331467	-0.744928	-0.585339	0.726814	0.037842	-0.004276	-0.006541
676	3.394745	0.005000	0.300376	9.810000	2.366552	-0.743941	-0.585778	0.727059	0.032376	0.003852	-0.000462
677	3.399745	0.005000	0.313920	9.739568	2.307112	-0.742953	-0.586217	0.727304	0.023616	0.008580	0.001112
678	3.404745	0.005000	0.335262	9.688835	2.293818	-0.741966	-0.586656	0.727549	0.016094	-0.000216	-0.005479
679	3.409745	0.005000	0.333994	9.554486	2.354400	-0.740978	-0.587095	0.727794	0.003294	0.002720	-0.001486
680	3.414745	0.005000	0.296932	9.603271	2.231415	-0.739991	-0.587533	0.728039	-0.021804	-0.001581	0.000598
681	3.419745	0.005000	0.353160	9.770760	2.290495	-0.739004	-0.587972	0.728284	-0.032202	0.002407	-0.004008
682	3.424745	0.005000	0.379769	9.744151	2.329138	-0.739157	-0.587533	0.728137	-0.035000	0.007488	-0.012278
683	3.429745	0.005000	0.313920	9.789554	2.315160	-0.739596	-0.586875	0.727892	-0.025846	-0.011078	-0.008653
684	3.434745	0.005000	0.243720	9.770760	2.360522	-0.740035	-0.586216	0.727647	-0.020110	-0.005325	-0.010936
685	3.439745	0.005000	0.241304	9.764896	2.242544	-0.740474	-0.585557	0.727402	-0.000635	-0.013417	-0.015536
686	3.444745	0.005000	0.313920	9.692280	2.350481	-0.740913	-0.584899	0.727157	-0.002157	-0.007616	-0.018841
687	3.449745	0.005000	0.239987	9.695311	2.351369	-0.741352	-0.584240	0.726911	-0.023086	-0.012073	-0.028596
688	3.454745	0.005000	0.353160	9.770760	2.237109	-0.741791	-0.583582	0.726666	-0.036975	-0.016216	-0.010209
689	3.459745	0.005000	0.316752	9.734352	2.415886	-0.742230	-0.582923	0.726421	-0.050112	-0.013960	-0.011252
690	3.464745	0.005000	0.245817	9.647851	2.372885	-0.742669	-0.582264	0.726176	-0.056458	-0.023563	-0.008860
691	3.469745	0.005000	0.267487	9.653040	2.332821	-0.743108	-0.581606	0.725931	-0.081421	-0.016145	-0.022072
692	3.474745	0.005000	0.244925	9.731520	2.285405	-0.743547	-0.580947	0.725686	-0.096608	-0.018669	-0.012003
693	3.479745	0.005000	0.279288	9.731520	2.275920	-0.743986	-0.580289	0.725441	-0.098264	-0.016813	-0.010903
694	3.484745	0.005000	0.235440	9.759112	2.368196	-0.744425	-0.579630	0.725196	-0.111611	-0.027740	-0.017282
695	3.489745	0.005000	0.219539	9.849240	2.472120	-0.744798	-0.579259	0.724951	-0.083855	-0.029171	-0.014758
696	3.494745	0.005000	0.256588	9.810000	2.414788	-0.744908	-0.580027	0.724706	-0.056463	-0.021806	-0.020931
697	3.499745	0.005000	0.235440	9.789745	2.451865	-0.745018	-0.580795	0.724460	-0.040251	-0.033053	-0.020398
698	3.504745	0.005000	0.213037	9.832403	2.601110	-0.745127	-0.581564	0.724215	-0.028261	-0.045542	-0.014508
699	3.509745	0.005000	0.220809	9.810000	2.736822	-0.745237	-0.582332	0.723970	-0.021171	-0.034804	-0.025797
700	3.514745	0.005000	0.193613	9.795195	2.783453	-0.745347	-0.583100	0.723725	-0.022225	-0.038952	-0.015212
701	3.519745	0.005000	0.293589	9.789669	2.804949	-0.745457	-0.583868	0.723480	-0.023050	-0.040928	-0.019347
702	3.524745	0.005000	0.211939	9.778629	2.691821	-0.745567	-0.584637	0.723235	-0.030720	-0.044947	-0.013407
703	3.529745	0.005000	0.286388	9.782468	2.623226	-0.745676	-0.585405	0.722990	-0.024732	-0.045041	-0.008106
704	3.534745	0.005000	0.235440	9.806480	2.514880	-0.745786	-0.586173	0.722745	-0.027764	-0.043714	-0.006105
705	3.539745	0.005000	0.233882	9.806884	2.627522	-0.745896	-0.586942	0.722500	-0.033573	-0.038831	-0.004648
706	3.544745	0.005000	0.119403	9.769918	2.551442	-0.746006	-0.587710	0.722255	-0.018574	-0.038403	-0.011628
707	3.549745	0.005000	0.159745	9.734305	2.623509	-0.746116	-0.588478	0.722010	0.005989	-0.030423	0.004773
708	3.554745	0.005000	0.191010	9.765570	2.765279	-0.746225	-0.589247	0.721764	0.032253	-0.031484	0.000924
709	3.559745	0.005000	0.196200	9.739038	2.651635	-0.747260	-0.589750	0.723143	0.048595	-0.022527	-0.001496
710	3.564745	0.005000	0.176060	9.653040	2.786040	-0.748905	-0.590079	0.725592	0.060301	-0.010664	-0.004712
711	3.569745	0.005000	0.129677	9.707605	2.840605	-0.750550	-0.590408	0.728041	0.065916	-0.018607	-0.011836
712	3.574745	0.005000	0.168397	9.720083	2.811378	-0.752195	-0.590737	0.730490	0.068315	-0.019211	0.011223
713	3.579745	0.005000	0.242051	9.708594	2.864520	-0.753840	-0.591066	0.732939	0.054062	-0.011589	-0.007811
714	3.584745	0.005000	0.274680	9.749778	2.749524	-0.755485	-0.591395	0.735388	0.061663	-0.015272	-0.004718
715	3.589745	0.005000	0.254019	9.731520	2.804619	-0.757129	-0.591724	0.737837	0.064711	-0.009464	0.001997
716	3.594745	0.005000	0.297477	9.777113	2.775950	-0.758774	-0.592053	0.740286	0.053615	-0.007879	0.005302
717	3.599745	0.005000	0.260457	9.692280	2.704131	-0.760419	-0.592382	0.742735	0.055214	-0.005541	0.007857
718	3.604745	0.005000	0.220464	9.822132	2.746800	-0.762064	-0.592711	0.745184	0.055818	0.005650	0.013898
719	3.609745	0.005000	0.088351	9.731520	2.599466	-0.763709	-0.593040	0.747633	0.059168	-0.002344	0.016849
720	3.614745	0.005000	0.156960	9.707192	2.614168	-0.765354	-0.593369	0.750082	0.072742	0.001131	0.004810
721	3.619745	0.005000	0.224417	9.731520	2.438392	-0.766999	-0.593698	0.752531	0.086135	0.005189	0.014311
722	3.624745	0.005000	0.274680	9.692280	2.508253	-0.768644	-0.594027	0.754980	0.090226	0.009249	0.011126
723	3.629745	0.005000	0.274680	9.768461	2.590990	-0.768330	-0.594465	0.755243	0.075136	0.011257	0.013760
724	3.634745	0.005000	0.274680	9.730265	2.629080	-0.768001	-0.594904	0.755488	0.077658	0.016825	0.024347
725	3.639745	0.005000	0.303074	9.656655	2.440111	-0.767672	-0.595343	0.755733	0.075034	0.020775	0.014044
726	3.644745	0.005000	0.274680	9.725916	2.505756	-0.767343	-0.595782	0.755978	0.073907	0.021334	0.016625
727	3.649745	0.005000	0.305993	9.723593	2.456267	-0.767013	-0.596221	0.756223	0.062895	0.025521	0.015261
728	3.654745	0.005000	0.353160	9.800037	2.452806	-0.766684	-0.596660	0.756469	0.061698	0.020810	0.017730
729	3.659745	0.005000	0.260181	9.704651	2.498989	-0.766355	-0.597099	0.756714	0.064765	0.024901	0.024821
730	3.664745	0.005000	0.348607	9.677682	2.462076	-0.766025	-0.597538	0.756959	0.060629	0.020690	0.023740
731	3.669745	0.005000	0.291399	9.737323	2.404556	-0.765696	-0.597977	0.757204	0.060233	0.007842	0.023397
732	3.674745	0.005000	0.213687	9.731520	2.315160	-0.765367	-0.598416	0.757449	0.048257	0.015600	0.020392
733	3.679745	0.005000	0.274680	9.713354	2.291178	-0.765037	-0.598856	0.757694	0.054046	0.006417	0.015277
734	3.684745	0.005000	0.298166	9.770760	2.275920	-0.764708	-0.599295	0.757939	0.033462	0.011424	0.018411
735	3.689745	0.005000	0.313920	9.731520	2.271541	-0.764379	-0.599734	0.758184	0.031271	0.008324	0.027409
736	3.694745	0.005000	0.353160	9.703682	2.220243	-0.763618	-0.599612	0.757322	0.036573	0.000484	0.014510
737	3.699745	0.005000	0.392400	9.800651	2.188091	-0.762192	-0.598625	0.754749	0.030106	0.005897	0.007227
738	3.704745	0.005000	0.346117	9.763717	2.190397	-0.760766	-0.597637	0.752177	0.036561	0.002485	0.012118
739	3.709745	0.005000	0.308883	9.760685	2.207515	-0.759340	-0.596650	0.749604	0.037748	-0.000271	0.014506
740	3.714745	0.005000	0.313920	9.731520	2.231293	-0.757914	-0.595662	0.747031	0.034050	-0.008716	0.009269
741	3.719745	0.005000	0.313920	9.731796	2.159302	-0.756487	-0.594675	0.744459	0.030243	-0.006318	0.007645
742	3.724745	0.005000	0.313920	9.808332	2.315160	-0.755061	-0.593688	0.741886	0.020769	-0.008401	0.002906
743	3.729745	0.005000	0.345015	9.739665	2.284065	-0.753635	-0.592700	0.739313	0.021573	-0.016771	0.001145
744	3.734745	0.005000	0.320319	9.770760	2.256724	-0.752209	-0.591713	0.736741	0.007767	-0.018799	0.000604
745	3.739745	0.005000	0.406378	9.770760	2.245101	-0.750783	-0.590725	0.734168	0.010995	-0.015882	0.003968
746	3.744745	0.005000	0.363870	9.702990	2.311560	-0.749356	-0.589738	0.731595	0.000395	-0.013187	-0.001675
747	3.749745	0.005000	0.393303	9.797221	2.170076	-0.747930	-0.588751	0.729023	-0.000358	-0.021918	-0.003474
748	3.754745	0.005000	0.377212	9.668228	2.182252	-0.746504	-0.587763	0.726450	0.002369	-0.025886	0.003514
749	3.759745	0.005000	0.348184	9.692280	2.219548	-0.745078	-0.586776	0.723877	-0.006618	-0.016291	-0.012011
750	3.764745	0.005000	0.294223	9.633497	2.315160	-0.744603	-0.586567	0.724106	-0.000509	-0.019284	-0.006286
751	3.769745	0.005000	0.353160	9.592108	2.350255	-0.744384	-0.586567	0.725086	-0.003851	-0.023186	-0.009921
752	3.774745	0.005000	0.377059	9.692280	2.330501	-0.744164	-0.586567	0.726066	-0.009865	-0.028741	-0.008069
753	3.779745	0.005000	0.353160	9.692280	2.367636	-0.743945	-0.586567	0.727046	-0.002139	-0.028402	-0.003665
754	3.784745	0.005000	0.313920	9.703268	2.332423	-0.743725	-0.586567	0.728026	-0.006645	-0.023523	-0.010009
755	3.789745	0.005000	0.322494	9.770760	2.337253	-0.743506	-0.586567	0.729006	-0.005126	-0.040037	0.000677
756	3.794745	0.005000	0.287939	9.770760	2.347771	-0.743287	-0.586567	0.729986	-0.009050	-0.027978	-0.009920
757	3.799745	0.005000	0.313920	9.774986	2.358626	-0.743067	-0.586567	0.730966	-0.006109	-0.033905	-0.002133
758	3.804745	0.005000	0.311666	9.727012	2.395894	-0.742848	-0.586567	0.731946	-0.003733	-0.031551	0.000676
759	3.809745	0.005000	0.274680	9.653040	2.432880	-0.742628	-0.586567	0.732927	-0.015962	-0.024196	-0.014608
760	3.814745	0.005000	0.232929	9.729009	2.393640	-0.742409	-0.586567	0.733907	-0.004658	-0.026035	-0.008629
761	3.819745	0.005000	0.274680	9.740488	2.463152	-0.742190	-0.586567	0.734887	-0.016394	-0.024030	-0.009062
762	3.824745	0.005000	0.339546	9.581367	2.361207	-0.741970	-0.586567	0.735867	-0.016237	-0.024450	-0.012780
763	3.829745	0.005000	0.283514	9.653040	2.384806	-0.741831	-0.586567	0.736509	-0.019700	-0.024429	-0.015273
764	3.834745	0.005000	0.302671	9.697774	2.488863	-0.742051	-0.586567	0.735652	-0.012842	-0.023185	-0.007984
765	3.839745	0.005000	0.248632	9.626992	2.433217	-0.742270	-0.586567	0.734794	-0.018946	-0.022911	-0.000300
766	3.844745	0.005000	0.219839	9.661078	2.385602	-0.742490	-0.586567	0.733936	-0.015464	-0.018535	-0.013214
767	3.849745	0.005000	0.217895	9.727371	2.537204	-0.742709	-0.586567	0.733078	-0.010504	-0.016226	-0.003714
768	3.854745	0.005000	0.215483	9.731520	2.512033	-0.742929	-0.586567	0.732220	-0.011431	-0.009040	-0.005017
769	3.859745	0.005000	0.274680	9.692280	2.489460	-0.743148	-0.586567	0.731362	-0.009150	-0.015286	-0.008231
770	3.864745	0.005000	0.298702	9.770760	2.613862	-0.743368	-0.586567	0.730504	-0.019674	-0.017759	-0.006954
771	3.869745	0.005000	0.327173	9.797007	2.550600	-0.743587	-0.586567	0.729646	-0.021143	-0.011615	-0.009081
772	3.874745	0.005000	0.246362	9.799078	2.500438	-0.743807	-0.586567	0.728788	-0.007330	-0.013287	0.007032
773	3.879745	0.005000	0.165595	9.722885	2.629080	-0.744026	-0.586567	0.727930	-0.022090	-0.012726	-0.002336
774	3.884745	0.005000	0.280909	9.580789	2.523818	-0.744246	-0.586567	0.727072	-0.012337	-0.013195	-0.007106
775	3.889745	0.005000	0.309635	9.696565	2.441450	-0.744465	-0.586567	0.726214	0.001229	-0.010082	0.005649
776	3.894745	0.005000	0.196200	9.729652	2.513228	-0.744685	-0.586567	0.725356	0.008773	-0.017228	-0.005313
777	3.899745	0.005000	0.157037	9.692280	2.550600	-0.744969	-0.586503	0.724928	0.003553	-0.014241	-0.004698
778	3.904745	0.005000	0.196200	9.689829	2.582488	-0.745298	-0.586393	0.724806	0.007500	-0.012299	-0.001974
779	3.909745	0.005000	0.200625	9.731520	2.485394	-0.745627	-0.586284	0.724683	0.006175	-0.021262	-0.001326
780	3.914745	0.005000	0.131402	9.803159	2.543759	-0.745956	-0.586174	0.724561	0.015111	-0.005401	0.005263
781	3.919745	0.005000	0.208029	9.761623	2.619943	-0.746285	-0.586064	0.724438	0.017708	-0.013444	0.002755
782	3.924745	0.005000	0.229775	9.810000	2.550600	-0.746614	-0.585955	0.724316	0.009807	-0.012577	-0.000136
783	3.929745	0.005000	0.235440	9.784208	2.564048	-0.746943	-0.585845	0.724193	0.024687	-0.012015	-0.001743
784	3.934745	0.005000	0.305760	9.707820	2.464740	-0.747273	-0.585735	0.724071	0.017945	-0.015730	0.012676
785	3.939745	0.005000	0.359833	9.688944	2.493408	-0.747602	-0.585626	0.723948	0.020611	-0.005390	0.009179
786	3.944745	0.005000	0.314471	9.672385	2.510809	-0.747931	-0.585516	0.723826	0.032963	-0.007961	0.007096
787	3.949745	0.005000	0.257747	9.709213	2.410573	-0.748260	-0.585406	0.723703	0.024903	-0.002904	0.002307
788	3.954745	0.005000	0.225819	9.716710	2.614270	-0.748589	-0.585297	0.723580	0.031025	-0.003589	-0.005423
789	3.959745	0.005000	0.208780	9.704860	2.589840	-0.748918	-0.585187	0.723458	0.031561	0.001963	0.016087
790	3.964745	0.005000	0.224927	9.721007	2.636780	-0.749247	-0.585077	0.723335	0.031543	0.002900	0.004549
791	3.969745	0.005000	0.235440	9.715077	2.573397	-0.749039	-0.585720	0.723693	0.039646	0.001243	0.012444
792	3.974745	0.005000	0.280882	9.665444	2.517562	-0.748819	-0.586379	0.724061	0.027942	0.015324	0.001344
793	3.979745	0.005000	0.278552	9.802256	2.468248	-0.748600	-0.587038	0.724429	0.041554	-0.004568	-0.000608
794	3.984745	0.005000	0.312014	9.731520	2.477838	-0.748380	-0.587696	0.724796	0.045383	0.002563	0.006397
795	3.989745	0.005000	0.197179	9.731520	2.512339	-0.748161	-0.588355	0.725164	0.035572	-0.002001	0.006971
796	3.994745	0.005000	0.238299	9.728661	2.505642	-0.747941	-0.589013	0.725532	0.044747	-0.003282	0.012670
797	3.999745	0.005000	0.196200	9.736358	2.462444	-0.747722	-0.589672	0.725900	0.044590	0.005384	0.003768
798	4.004745	0.005000	0.235440	9.802746	2.518614	-0.747502	-0.590330	0.726267	0.047796	0.001908	0.012420
799	4.009745	0.005000	0.226254	9.800814	2.412012	-0.747283	-0.590989	0.726635	0.051486	0.007785	0.007047
800	4.014745	0.005000	0.184599	9.719919	2.322322	-0.747063	-0.591647	0.727003	0.055105	-0.004748	0.005835
801	4.019745	0.005000	0.288521	9.703837	2.446721	-0.746844	-0.592306	0.727370	0.052534	-0.003562	0.015170
802	4.024745	0.005000	0.251393	9.692280	2.386306	-0.746624	-0.592964	0.727738	0.054953	0.007773	0.010833
803	4.029745	0.005000	0.214565	9.713155	2.456265	-0.746405	-0.593623	0.728106	0.043657	-0.000103	0.002045
804	4.034745	0.005000	0.194823	9.653040	2.395017	-0.746311	-0.593695	0.728333	0.043652	0.008223	0.002925
805	4.039745	0.005000	0.196200	9.741839	2.354400	-0.746420	-0.592818	0.728333	0.045489	0.000031	0.007043
806	4.044745	0.005000	0.210775	9.785335	2.305071	-0.746530	-0.591941	0.728333	0.048816	0.011315	0.015582
807	4.049745	0.005000	0.299014	9.770760	2.315160	-0.746640	-0.591064	0.728333	0.038535	0.004127	0.007025
808	4.054745	0.005000	0.363383	9.770760	2.238333	-0.746749	-0.590186	0.728333	0.038395	0.001905	0.007036
809	4.059745	0.005000	0.345352	9.739328	2.393640	-0.746859	-0.589309	0.728333	0.030111	-0.003854	0.005293
810	4.064745	0.005000	0.313920	9.731520	2.326888	-0.746969	-0.588432	0.728333	0.026803	-0.008552	0.015974
811	4.069745	0.005000	0.281598	9.734979	2.286296	-0.747078	-0.587555	0.728333	0.019707	-0.001685	0.013293
812	4.074745	0.005000	0.312422	9.731520	2.355898	-0.747188	-0.586677	0.728333	0.025648	-0.004313	0.009252
813	4.079745	0.005000	0.274680	9.769872	2.470344	-0.747297	-0.585800	0.728333	0.037060	0.000513	0.012832
814	4.084745	0.005000	0.308255	9.804335	2.508528	-0.747407	-0.584923	0.728333	0.026692	0.005275	0.010519
815	4.089745	0.005000	0.245939	9.697529	2.359649	-0.747517	-0.584046	0.728333	0.026066	-0.008846	0.004386
816	4.094745	0.005000	0.259553	9.699844	2.378513	-0.747626	-0.583168	0.728333	0.026287	-0.006895	0.004806
817	4.099745	0.005000	0.224998	9.761161	2.334359	-0.747736	-0.582291	0.728333	0.026844	-0.013400	-0.002743
818	4.104745	0.005000	0.246984	9.782304	2.292072	-0.747254	-0.582513	0.728050	0.022229	-0.009223	0.009190
819	4.109745	0.005000	0.260723	9.692280	2.407597	-0.746595	-0.583061	0.727682	0.005855	-0.015831	-0.003767
820	4.114745	0.005000	0.290851	9.669211	2.275920	-0.745937	-0.583610	0.727315	0.011632	-0.013568	-0.005054
821	4.119745	0.005000	0.337467	9.713209	2.315160	-0.745279	-0.584158	0.726947	0.009079	-0.003523	-0.008172
822	4.124745	0.005000	0.353160	9.692280	2.395365	-0.744621	-0.584707	0.726580	0.011274	-0.015325	-0.004488
823	4.129745	0.005000	0.274680	9.810000	2.259346	-0.743963	-0.585255	0.726212	0.000917	-0.019852	-0.003512
824	4.134745	0.005000	0.299458	9.770760	2.387468	-0.743304	-0.585804	0.725845	0.005799	-0.022920	0.005304
825	4.139745	0.005000	0.235440	9.707085	2.435467	-0.742646	-0.586352	0.725477	0.001579	-0.022216	0.002265
826	4.144745	0.005000	0.322664	9.663205	2.393640	-0.741988	-0.586901	0.725110	-0.008479	-0.015179	-0.007551
827	4.149745	0.005000	0.235440	9.739389	2.448619	-0.741330	-0.587449	0.724742	-0.007681	-0.026010	-0.001074
828	4.154745	0.005000	0.235440	9.804536	2.472120	-0.740671	-0.587998	0.724375	0.000611	-0.016451	-0.009774
829	4.159745	0.005000	0.199720	9.770760	2.315160	-0.740013	-0.588546	0.724007	-0.001850	-0.022575	-0.005224
830	4.164745	0.005000	0.197302	9.732622	2.431778	-0.739355	-0.589095	0.723640	0.000804	-0.025287	0.008057
831	4.169745	0.005000	0.273838	9.732362	2.470437	-0.738806	-0.589588	0.723435	-0.009519	-0.023012	-0.004833
832	4.174745	0.005000	0.199446	9.695526	2.514606	-0.738806	-0.589808	0.724047	-0.013609	-0.021000	-0.003600
833	4.179745	0.005000	0.201390	9.765570	2.404020	-0.738806	-0.590027	0.724660	0.000796	-0.015403	-0.010279
834	4.184745	0.005000	0.274680	9.770760	2.582234	-0.738806	-0.590247	0.725272	0.009608	-0.020106	-0.006406
835	4.189745	0.005000	0.205750	9.810000	2.373500	-0.738806	-0.590466	0.725885	0.005037	-0.011141	-0.001836
836	4.194745	0.005000	0.180875	9.728152	2.444837	-0.738806	-0.590685	0.726498	0.005831	-0.016868	-0.001003
837	4.199745	0.005000	0.167791	9.692280	2.432880	-0.738806	-0.590905	0.727110	0.001858	-0.015593	-0.005353
838	4.204745	0.005000	0.297606	9.731520	2.455806	-0.738806	-0.591124	0.727723	-0.003052	-0.014740	-0.000327
839	4.209745	0.005000	0.274680	9.671764	2.571116	-0.738806	-0.591344	0.728335	-0.007839	-0.010644	0.007636
840	4.214745	0.005000	0.216861	9.615881	2.529939	-0.738806	-0.591563	0.728948	-0.016017	-0.005918	-0.005432
841	4.219745	0.005000	0.235440	9.669208	2.465215	-0.738806	-0.591783	0.729561	-0.008261	-0.014026	-0.007944
842	4.224745	0.005000	0.235440	9.756537	2.365194	-0.738806	-0.592002	0.730173	-0.006988	-0.004331	0.006376
843	4.229745	0.005000	0.196200	9.664855	2.432880	-0.738806	-0.592221	0.730786	-0.008350	-0.004589	-0.001373
844	4.234745	0.005000	0.206071	9.702151	2.315160	-0.738806	-0.592441	0.731398	-0.003447	-0.004599	0.005959
845	4.239745	0.005000	0.211112	9.724064	2.361856	-0.738929	-0.592106	0.731598	-0.006624	-0.004664	0.005708
846	4.244745	0.005000	0.381377	9.798977	2.359912	-0.739149	-0.591337	0.731476	0.003342	-0.013485	0.006662
847	4.249745	0.005000	0.274680	9.803786	2.402960	-0.739368	-0.590569	0.731353	-0.005204	-0.007202	-0.003180
848	4.254745	0.005000	0.235440	9.771923	2.472120	-0.739588	-0.589801	0.731230	0.004461	-0.011504	-0.001388
849	4.259745	0.005000	0.235440	9.810000	2.472120	-0.739807	-0.589033	0.731108	-0.000091	-0.012320	-0.001512
850	4.264745	0.005000	0.382804	9.737917	2.508161	-0.740027	-0.588265	0.730985	0.003194	-0.004804	0.007289
851	4.269745	0.005000	0.313920	9.686676	2.472120	-0.740246	-0.587496	0.730863	0.009504	-0.006506	0.008682
852	4.274745	0.005000	0.196200	9.715667	2.370253	-0.740466	-0.586728	0.730740	0.016937	-0.015357	-0.003002
853	4.279745	0.005000	0.235440	9.741483	2.393640	-0.740685	-0.585960	0.730618	0.021644	-0.014363	-0.000629
854	4.284745	0.005000	0.328714	9.782983	2.366623	-0.740905	-0.585192	0.730495	0.017813	-0.007586	-0.000813
855	4.289745	0.005000	0.328229	9.692280	2.358088	-0.741124	-0.584423	0.730372	0.025644	-0.010436	-0.002471
856	4.294745	0.005000	0.291399	9.708999	2.399443	-0.741344	-0.583655	0.730250	0.020664	-0.015940	0.006785
857	4.299745	0.005000	0.214863	9.593223	2.513274	-0.741563	-0.582887	0.730127	0.024389	-0.013963	-0.001712
858	4.304745	0.005000	0.295754	9.746778	2.456862	-0.741783	-0.582119	0.730005	0.026161	-0.009637	0.002956
859	4.309745	0.005000	0.313920	9.810000	2.511360	-0.743163	-0.583673	0.730943	0.013136	-0.008996	0.001854
860	4.314745	0.005000	0.258681	9.717710	2.472120	-0.744589	-0.585318	0.731923	0.016810	-0.014121	-0.005121
861	4.319745	0.005000	0.219931	9.692280	2.405505	-0.746014	-0.586963	0.732902	0.015565	-0.009799	-0.001023
862	4.324745	0.005000	0.304462	9.701738	2.472120	-0.747440	-0.588608	0.733882	0.008035	-0.010893	-0.000737
863	4.329745	0.005000	0.274680	9.738947	2.535745	-0.748865	-0.590253	0.734861	0.019259	-0.012521	0.003306
864	4.334745	0.005000	0.313920	9.721323	2.472120	-0.750291	-0.591898	0.735841	0.013908	-0.003802	-0.000232
865	4.339745	0.005000	0.353160	9.656156	2.351284	-0.751717	-0.593543	0.736820	0.024417	-0.013722	-0.000021
866	4.344745	0.005000	0.314670	9.693030	2.317410	-0.753142	-0.595187	0.737800	0.006593	-0.009672	0.008095
867	4.349745	0.005000	0.315114	9.769566	2.356788	-0.754568	-0.596832	0.738780	0.010846	-0.007464	0.005949
868	4.354745	0.005000	0.310322	9.849240	2.354400	-0.755993	-0.598477	0.739759	0.014199	-0.008783	0.007852
869	4.359745	0.005000	0.168850	9.804055	2.393640	-0.757419	-0.600122	0.740739	0.018639	-0.014346	0.004894
870	4.364745	0.005000	0.164918	9.802042	2.370316	-0.758844	-0.601767	0.741718	0.022091	-0.012603	0.011647
871	4.369745	0.005000	0.274680	9.838999	2.364641	-0.760270	-0.603412	0.742698	0.016853	-0.007090	0.001876
872	4.374745	0.005000	0.220819	9.702278	2.369021	-0.760731	-0.604246	0.742988	0.019079	-0.012231	-0.000312
873	4.379745	0.005000	0.186405	9.662835	2.388712	-0.759414	-0.603588	0.742008	0.023109	-0.013513	0.002461
874	4.384745	0.005000	0.241347	9.708946	2.371066	-0.758097	-0.602929	0.741027	0.022066	-0.019784	0.003971
875	4.389745	0.005000	0.274680	9.769673	2.413804	-0.756780	-0.602271	0.740047	0.029841	-0.016272	0.004016
876	4.394745	0.005000	0.292899	9.770760	2.354400	-0.755462	-0.601612	0.739066	0.013206	-0.013098	0.000790
877	4.399745	0.005000	0.219631	9.754951	2.346779	-0.754145	-0.600953	0.738086	0.021658	-0.016782	0.007303
878	4.404745	0.005000	0.288385	9.705985	2.444709	-0.752828	-0.600295	0.737105	0.014200	-0.018431	0.001977
879	4.409745	0.005000	0.274680	9.742972	2.382188	-0.751511	-0.599636	0.736125	0.015141	-0.009968	-0.002213
880	4.414745	0.005000	0.313920	9.713430	2.402685	-0.750194	-0.598978	0.735144	0.010472	-0.005049	0.008235
881	4.419745	0.005000	0.353160	9.653040	2.322179	-0.748877	-0.598319	0.734164	0.003860	-0.004484	0.005605
882	4.424745	0.005000	0.309222	9.579258	2.423483	-0.747560	-0.597660	0.733183	0.024359	-0.004648	0.002891
883	4.429745	0.005000	0.277403	9.731520	2.278643	-0.746243	-0.597002	0.732203	0.016564	-0.008557	0.003177
884	4.434745	0.005000	0.275017	9.771097	2.315834	-0.744926	-0.596343	0.731222	0.020591	-0.008408	0.003826
885	4.439745	0.005000	0.351118	9.772802	2.393640	-0.743609	-0.595685	0.730242	0.015623	-0.004224	0.002060
886	4.444745	0.005000	0.317931	9.684257	2.503337	-0.743367	-0.595026	0.730554	0.017555	0.008366	0.002111
887	4.449745	0.005000	0.392400	9.659393	2.537893	-0.743476	-0.594368	0.731289	0.035229	-0.004753	0.001407
888	4.454745	0.005000	0.291423	9.762389	2.410383	-0.743586	-0.593710	0.732024	0.016946	-0.010651	-0.001840
889	4.459745	0.005000	0.313920	9.770760	2.454437	-0.743696	-0.593052	0.732759	0.023820	-0.003366	-0.005190
890	4.464745	0.005000	0.261957	9.823794	2.380917	-0.743805	-0.592393	0.733494	0.017896	-0.001629	-0.001369
891	4.469745	0.005000	0.329056	9.746656	2.354400	-0.743915	-0.591735	0.734229	0.015112	-0.007546	-0.002284
892	4.474745	0.005000	0.262681	9.753680	2.354400	-0.744025	-0.591077	0.734964	0.018350	-0.018280	0.004009
893	4.479745	0.005000	0.294170	9.731780	2.334910	-0.744134	-0.590419	0.735699	0.013223	-0.009097	0.000661
894	4.484745	0.005000	0.310291	9.770760	2.315160	-0.744244	-0.589760	0.736434	0.023516	-0.016886	0.000553
895	4.489745	0.005000	0.313920	9.748392	2.502924	-0.744354	-0.589102	0.737169	0.011104	-0.019250	0.000921
896	4.494745	0.005000	0.288138	9.666498	2.511360	-0.744463	-0.588444	0.737904	0.007161	-0.023446	-0.002522
897	4.499745	0.005000	0.268589	9.731520	2.382590	-0.744573	-0.587786	0.738639	0.009893	-0.018763	-0.000079
898	4.504745	0.005000	0.344054	9.731520	2.384534	-0.744683	-0.587128	0.739374	0.010079	-0.009492	-0.005891
899	4.509745	0.005000	0.313920	9.770760	2.426189	-0.744711	-0.586551	0.739854	0.009774	-0.014450	-0.000065
900	4.514745	0.005000	0.304541	9.726831	2.476809	-0.744272	-0.586441	0.738874	0.011445	-0.006774	-0.001897
901	4.519745	0.005000	0.272338	9.692280	2.469778	-0.743833	-0.586331	0.737894	0.011901	-0.019449	0.004219
902	4.524745	0.005000	0.313920	9.730733	2.432093	-0.743394	-0.586222	0.736913	0.016438	-0.011076	0.006078
903	4.529745	0.005000	0.202260	9.615820	2.428840	-0.742955	-0.586112	0.735933	0.005547	-0.012987	-0.010524
904	4.534745	0.005000	0.196200	9.692280	2.424136	-0.742516	-0.586002	0.734952	0.011099	-0.013985	0.008191
905	4.539745	0.005000	0.340422	9.725151	2.400009	-0.742077	-0.585892	0.733972	0.004865	-0.009575	-0.003054
906	4.544745	0.005000	0.283363	9.753394	2.393640	-0.741638	-0.585783	0.732991	0.011108	-0.014569	-0.000350
907	4.549745	0.005000	0.196200	9.703008	2.365128	-0.741199	-0.585673	0.732011	0.001253	-0.007619	-0.005501
908	4.554745	0.005000	0.209179	9.731520	2.472423	-0.740760	-0.585563	0.731030	-0.002548	-0.007134	-0.004101
909	4.559745	0.005000	0.235440	9.716439	2.330241	-0.740321	-0.585454	0.730050	-0.001873	-0.006003	0.000207
910	4.564745	0.005000	0.279369	9.770760	2.359089	-0.739882	-0.585344	0.729069	-0.006166	-0.006910	0.002849
911	4.569745	0.005000	0.274297	9.731520	2.354400	-0.739443	-0.585234	0.728089	-0.004634	-0.011912	0.006173
912	4.574745	0.005000	0.156960	9.653040	2.415479	-0.739004	-0.585124	0.727108	-0.001553	-0.002720	-0.001997
913	4.579745	0.005000	0.235440	9.723195	2.354400	-0.738927	-0.585497	0.726802	-0.002173	-0.013954	0.005306
914	4.584745	0.005000	0.274680	9.796956	2.288964	-0.739146	-0.586265	0.727047	0.001527	-0.003352	0.000672
915	4.589745	0.005000	0.235440	9.720420	2.309220	-0.739365	-0.587032	0.727291	0.002780	-0.006720	-0.005637
916	4.594745	0.005000	0.235440	9.709666	2.472120	-0.739585	-0.587800	0.727536	0.008597	-0.012974	-0.003516
917	4.599745	0.005000	0.242111	9.750747	2.439551	-0.739804	-0.588567	0.727781	0.005617	-0.011114	0.002138
918	4.604745	0.005000	0.305254	9.727187	2.476453	-0.740023	-0.589335	0.728026	0.005665	-0.013879	-0.003485
919	4.609745	0.005000	0.274680	9.697000	2.474480	-0.740242	-0.590102	0.728271	0.004960	-0.011554	0.000049
920	4.614745	0.005000	0.274680	9.770760	2.511360	-0.740462	-0.590870	0.728516	0.010985	-0.011851	0.001150
921	4.619745	0.005000	0.315880	9.731520	2.438759	-0.740681	-0.591637	0.728761	0.017189	-0.014480	-0.002088
922	4.624745	0.005000	0.235440	9.735897	2.398017	-0.740900	-0.592405	0.729006	0.021408	-0.008890	-0.012740
923	4.629745	0.005000	0.228739	9.764059	2.413744	-0.741120	-0.593173	0.729250	0.020423	-0.014672	-0.002679
924	4.634745	0.005000	0.265957	9.709727	2.393640	-0.741339	-0.593940	0.729495	-0.006637	-0.009282	-0.004709
925	4.639745	0.005000	0.235440	9.703277	2.454875	-0.741558	-0.594708	0.729740	0.008122	-0.011892	-0.003100
926	4.644745	0.005000	0.104630	9.718445	2.432880	-0.741778	-0.595475	0.729985	0.011112	-0.012364	0.004604
927	4.649745	0.005000	0.204823	9.692280	2.432880	-0.741791	-0.595316	0.729770	0.003267	-0.008479	-0.002056
928	4.654745	0.005000	0.178769	9.770760	2.419826	-0.741791	-0.595096	0.729525	0.011865	-0.012170	-0.001687
929	4.659745	0.005000	0.333555	9.790365	2.354400	-0.741791	-0.594877	0.729280	0.006057	-0.010502	-0.002129
930	4.664745	0.005000	0.257435	9.731520	2.410885	-0.741791	-0.594657	0.729035	0.009138	-0.011090	-0.001237
931	4.669745	0.005000	0.226288	9.746564	2.354400	-0.741791	-0.594438	0.728789	0.009231	-0.004245	0.005168
932	4.674745	0.005000	0.209239	9.770699	2.393640	-0.741791	-0.594218	0.728544	0.003360	-0.009984	-0.001398
933	4.679745	0.005000	0.224753	9.702967	2.461433	-0.741791	-0.593999	0.728299	0.003588	-0.013143	0.001965
934	4.684745	0.005000	0.156960	9.692280	2.480758	-0.741791	-0.593779	0.728054	-0.000568	-0.004819	0.000226
935	4.689745	0.005000	0.229104	9.731520	2.459448	-0.741791	-0.593560	0.727809	0.011723	-0.013924	0.006974
936	4.694745	0.005000	0.239782	9.727178	2.428538	-0.741791	-0.593340	0.727564	0.004018	-0.010837	-0.000240
937	4.699745	0.005000	0.233450	9.768770	2.507381	-0.741791	-0.593121	0.727319	0.009500	-0.015205	0.009093
938	4.704745	0.005000	0.196200	9.731520	2.355247	-0.741791	-0.592901	0.727074	0.002655	-0.012100	0.002302
939	4.709745	0.005000	0.274680	9.844496	2.317532	-0.741791	-0.592682	0.726829	0.005541	-0.013532	0.010266
940	4.714745	0.005000	0.200920	9.810000	2.453241	-0.741940	-0.592462	0.726625	0.017685	-0.015800	0.002428
941	4.719745	0.005000	0.235440	9.666482	2.556234	-0.742379	-0.592243	0.726503	0.009524	-0.002482	-0.001428
942	4.724745	0.005000	0.274680	9.692280	2.442017	-0.742818	-0.592024	0.726380	0.021015	-0.018118	0.004222
943	4.729745	0.005000	0.313920	9.759680	2.393640	-0.743256	-0.591804	0.726258	0.009125	-0.011544	0.002166
944	4.734745	0.005000	0.288168	9.731520	2.393640	-0.743695	-0.591585	0.726135	0.024347	-0.011257	0.005104
945	4.739745	0.005000	0.290397	9.747237	2.417163	-0.744133	-0.591366	0.726013	0.019998	-0.007572	0.007363
946	4.744745	0.005000	0.171254	9.695831	2.457826	-0.744572	-0.591146	0.725890	0.012523	-0.004276	-0.004650
947	4.749745	0.005000	0.274680	9.652253	2.491347	-0.745011	-0.590927	0.725768	0.018687	-0.011079	0.015245
948	4.754745	0.005000	0.257640	9.709320	2.438040	-0.745449	-0.590708	0.725645	0.008579	-0.002849	0.000478
949	4.759745	0.005000	0.250355	9.716605	2.393640	-0.745888	-0.590489	0.725523	0.009763	-0.006436	0.005485
950	4.764745	0.005000	0.222748	9.693444	2.484812	-0.746327	-0.590269	0.725401	0.001833	-0.007514	-0.004480
951	4.769745	0.005000	0.274680	9.742139	2.422261	-0.746765	-0.590050	0.725278	0.004675	-0.004299	-0.000376
952	4.774745	0.005000	0.344819	9.723179	2.340182	-0.747204	-0.589831	0.725156	0.022938	-0.006033	-0.002443
953	4.779745	0.005000	0.268755	9.719670	2.411415	-0.747642	-0.589611	0.725033	0.015935	-0.005063	0.001376
954	4.784745	0.005000	0.274680	9.661001	2.397621	-0.748001	-0.590673	0.725089	0.019709	-0.011333	0.009774
955	4.789745	0.005000	0.274680	9.653040	2.355976	-0.748330	-0.592209	0.725212	0.018343	-0.010926	0.007715
956	4.794745	0.005000	0.274680	9.769658	2.277022	-0.748659	-0.593744	0.725334	0.015261	-0.008335	-0.002831
957	4.799745	0.005000	0.311135	9.695065	2.317945	-0.748989	-0.595280	0.725457	0.015690	-0.009102	0.004087
958	4.804745	0.005000	0.269951	9.726791	2.472120	-0.749318	-0.596816	0.725580	0.019261	-0.008268	0.002854
959	4.809745	0.005000	0.313920	9.724385	2.454284	-0.749647	-0.598352	0.725702	0.019187	-0.011779	0.009199
960	4.814745	0.005000	0.254319	9.751881	2.432880	-0.749976	-0.599888	0.725825	0.009749	-0.008257	-0.003672
961	4.819745	0.005000	0.235440	9.676027	2.349640	-0.750305	-0.601424	0.725947	0.006993	-0.006095	-0.004001
962	4.824745	0.005000	0.274680	9.692280	2.354400	-0.750634	-0.602960	0.726070	0.006735	-0.007698	-0.001609
963	4.829745	0.005000	0.227892	9.676434	2.377794	-0.750963	-0.604496	0.726192	0.012473	-0.004226	0.002256
964	4.834745	0.005000	0.313920	9.770760	2.429734	-0.751293	-0.606032	0.726315	0.011338	-0.012290	0.005498
965	4.839745	0.005000	0.352012	9.750566	2.413834	-0.751622	-0.607568	0.726437	0.007059	-0.001789	0.000762
966	4.844745	0.005000	0.274680	9.810000	2.422213	-0.751951	-0.609104	0.726560	0.016037	-0.006495	0.005149
967	4.849745	0.005000	0.313920	9.643184	2.432880	-0.752143	-0.610215	0.726713	0.018507	-0.009856	-0.002205
968	4.854745	0.005000	0.196200	9.758481	2.420601	-0.751375	-0.608349	0.727081	0.017894	-0.003725	-0.002123
969	4.859745	0.005000	0.235440	9.731520	2.432880	-0.750606	-0.606483	0.727448	0.017884	-0.005169	0.008688
970	4.864745	0.005000	0.212055	9.770760	2.464192	-0.749838	-0.604618	0.727816	0.017780	-0.005071	-0.000528
971	4.869745	0.005000	0.274680	9.692280	2.342432	-0.749070	-0.602752	0.728184	0.020919	-0.013831	0.005419
972	4.874745	0.005000	0.303218	9.692280	2.350833	-0.748302	-0.600886	0.728551	0.012581	-0.000414	-0.002052
973	4.879745	0.005000	0.237063	9.769137	2.354400	-0.747533	-0.599020	0.728919	0.014448	-0.012071	-0.000628
974	4.884745	0.005000	0.274680	9.731520	2.315931	-0.746765	-0.597154	0.729287	0.026323	-0.009530	0.000681
975	4.889745	0.005000	0.204376	9.734245	2.469395	-0.745997	-0.595288	0.729654	0.024059	-0.010502	-0.004323
976	4.894745	0.005000	0.313920	9.775843	2.467037	-0.745228	-0.593422	0.730022	0.025942	-0.006731	0.004643
977	4.899745	0.005000	0.346074	9.738606	2.497188	-0.744460	-0.591557	0.730390	0.008905	-0.006663	-0.003858
978	4.904745	0.005000	0.342397	9.791015	2.472120	-0.743692	-0.589691	0.730757	0.020700	-0.010574	0.003358
979	4.909745	0.005000	0.274680	9.810000	2.467177	-0.742923	-0.587825	0.731125	0.017521	-0.010563	-0.001855
980	4.914745	0.005000	0.274680	9.745360	2.315160	-0.742155	-0.585959	0.731493	0.013976	-0.013860	0.000385
981	4.919745	0.005000	0.329705	9.786545	2.338615	-0.741791	-0.585190	0.731538	0.018011	-0.010441	0.005451
982	4.924745	0.005000	0.332117	9.728673	2.453923	-0.741791	-0.585410	0.731293	0.021423	-0.011774	0.005036
983	4.929745	0.005000	0.254319	9.711159	2.357365	-0.741791	-0.585629	0.731048	0.024641	-0.013746	0.005748
984	4.934745	0.005000	0.274680	9.708968	2.331848	-0.741791	-0.585849	0.730803	0.019092	-0.012898	-0.002256
985	4.939745	0.005000	0.338881	9.706559	2.379361	-0.741791	-0.586068	0.730558	0.024807	-0.014106	-0.000467
986	4.944745	0.005000	0.233206	9.770760	2.393640	-0.741791	-0.586287	0.730313	0.025209	-0.010716	0.003184
987	4.949745	0.005000	0.313920	9.770760	2.491518	-0.741791	-0.586507	0.730068	0.018194	-0.010006	-0.001664
988	4.954745	0.005000	0.235440	9.739497	2.401617	-0.741791	-0.586726	0.729823	0.020742	-0.003838	0.001629
989	4.959745	0.005000	0.280251	9.731520	2.421739	-0.741791	-0.586946	0.729578	0.018291	-0.007598	0.003766
990	4.964745	0.005000	0.310335	9.656625	2.393640	-0.741791	-0.587165	0.729333	0.013807	-0.016745	0.001281
991	4.969745	0.005000	0.466042	9.731520	2.432880	-0.741791	-0.587385	0.729087	0.012401	-0.008316	0.001128
992	4.974745	0.005000	0.275400	9.731520	2.355839	-0.741791	-0.587604	0.728842	0.015353	-0.010601	-0.000916
993	4.979745	0.005000	0.232339	9.734621	2.357501	-0.741791	-0.587823	0.728597	0.012480	-0.004908	0.001371
994	4.984745	0.005000	0.235440	9.702442	2.432880	-0.741791	-0.588043	0.728352	0.010482	-0.004235	0.004178
995	4.989745	0.005000	0.338187	9.699767	2.361887	-0.741488	-0.588161	0.728333	0.010202	-0.007252	-0.000696
996	4.994745	0.005000	0.304133	9.702067	2.364187	-0.741159	-0.588271	0.728333	0.014000	-0.007636	0.001222
997	4.999745	0.005000	0.262835	9.692280	2.342555	-0.740829	-0.588380	0.728333	0.019801	-0.008816	0.003987
998	5.004745	0.005000	0.260597	9.742593	2.250763	-0.740500	-0.588490	0.728333	0.012499	-0.007760	0.010721
999	5.009745	0.005000	0.288367	9.731520	2.289607	-0.740171	-0.588600	0.728333	0.008465	-0.007978	0.001297
1000	5.014745	0.005000	0.353160	9.689829	2.372795	-0.739842	-0.588709	0.728333	0.004652	-0.012921	0.008147
1001	5.019745	0.005000	0.336341	9.710966	2.391773	-0.739513	-0.588819	0.728333	0.013744	-0.007330	-0.001562
1002	5.024745	0.005000	0.313920	9.724829	2.472120	-0.739184	-0.588929	0.728333	0.006277	-0.006783	0.006694
1003	5.029745	0.005000	0.380891	9.770760	2.402792	-0.738855	-0.589038	0.728333	0.003339	-0.002399	0.007107
1004	5.034745	0.005000	0.419718	9.770760	2.299764	-0.738525	-0.589148	0.728333	0.009858	-0.003616	-0.002052
1005	5.039745	0.005000	0.294905	9.711295	2.451895	-0.738196	-0.589258	0.728333	0.000609	-0.009481	0.006156
1006	5.044745	0.005000	0.259529	9.755609	2.479696	-0.737867	-0.589367	0.728333	0.002780	-0.005899	0.002074
1007	5.049745	0.005000	0.133199	9.697440	2.461801	-0.737538	-0.589477	0.728333	0.004311	-0.013056	0.001212
1008	5.054745	0.005000	0.274680	9.758053	2.436057	-0.738147	-0.589760	0.728992	0.012349	-0.001248	-0.002160
1009	5.059745	0.005000	0.273058	9.733142	2.468064	-0.740780	-0.590419	0.731075	0.019459	-0.017897	-0.009039
1010	5.064745	0.005000	0.234307	9.810000	2.390241	-0.743413	-0.591077	0.733158	-0.005110	-0.006177	-0.002070
1011	5.069745	0.005000	0.156960	9.695831	2.482772	-0.746046	-0.591735	0.735240	0.001795	-0.005602	-0.004948
1012	5.074745	0.005000	0.117720	9.669523	2.365388	-0.748679	-0.592393	0.737323	-0.001670	-0.008695	0.007104
1013	5.079745	0.005000	0.298120	9.676480	2.378100	-0.751312	-0.593052	0.739406	0.000571	-0.005666	-0.006332
1014	5.084745	0.005000	0.264484	9.653040	2.373249	-0.753945	-0.593710	0.741488	-0.004235	-0.012223	0.005621
1015	5.089745	0.005000	0.313920	9.667763	2.369123	-0.756578	-0.594368	0.743571	-0.001201	-0.008296	0.000532
1016	5.094745	0.005000	0.284936	9.688044	2.482376	-0.759211	-0.595026	0.745654	0.010050	-0.008936	0.006399
1017	5.099745	0.005000	0.307903	9.731520	2.416268	-0.761844	-0.595684	0.747736	0.004283	-0.013041	-0.002678
1018	5.104745	0.005000	0.313920	9.731520	2.454291	-0.764477	-0.596343	0.749819	0.007966	-0.002319	-0.001641
1019	5.109745	0.005000	0.313920	9.731520	2.511360	-0.767110	-0.597001	0.751902	0.008423	-0.013913	0.004940
1020	5.114745	0.005000	0.258810	9.770760	2.456250	-0.769743	-0.597659	0.753985	0.008645	-0.004437	-0.001030
1021	5.119745	0.005000	0.209966	9.756994	2.393640	-0.772376	-0.598317	0.756067	0.010312	-0.019963	-0.000419
1022	5.124745	0.005000	0.207713	9.680767	2.416667	-0.771572	-0.598038	0.755271	0.024043	-0.018283	0.006327
1023	5.129745	0.005000	0.274680	9.653040	2.522236	-0.769378	-0.597380	0.753311	-0.001114	-0.012559	0.002524
1024	5.134745	0.005000	0.313920	9.660202	2.336647	-0.767184	-0.596722	0.751351	0.005449	-0.020827	0.002484
1025	5.139745	0.005000	0.235440	9.770760	2.359558	-0.764990	-0.596064	0.749391	0.001527	-0.010860	-0.001111
1026	5.144745	0.005000	0.232638	9.767958	2.432880	-0.762796	-0.595405	0.747431	0.005490	-0.016752	0.003897
1027	5.149745	0.005000	0.274680	9.731520	2.433676	-0.760601	-0.594747	0.745471	0.009877	-0.005524	0.002443
1028	5.154745	0.005000	0.236986	9.693826	2.511360	-0.758407	-0.594089	0.743511	0.015331	-0.011252	0.000534
1029	5.159745	0.005000	0.192282	9.692280	2.350482	-0.756213	-0.593431	0.741551	0.017621	-0.009614	-0.005684
1030	5.164745	0.005000	0.241347	9.658947	2.454398	-0.754019	-0.592773	0.739590	0.012190	-0.003468	-0.007600
1031	5.169745	0.005000	0.252067	9.669667	2.371027	-0.751825	-0.592114	0.737630	0.016303	-0.010385	-0.008590
1032	5.174745	0.005000	0.216716	9.750244	2.443138	-0.749631	-0.591456	0.735670	0.013373	-0.007028	0.000853
1033	5.179745	0.005000	0.183528	9.810000	2.393640	-0.747437	-0.590798	0.733710	0.028300	-0.013382	0.006955
1034	5.184745	0.005000	0.211100	9.722081	2.369300	-0.745243	-0.590140	0.731750	0.016947	-0.009135	0.001045
1035	5.189745	0.005000	0.274680	9.670058	2.398843	-0.743308	-0.589528	0.729961	0.018948	-0.006529	0.005205
1036	5.194745	0.005000	0.353160	9.711476	2.393640	-0.743527	-0.589309	0.729593	0.018206	-0.010396	0.006437
1037	5.199745	0.005000	0.392400	9.692280	2.336533	-0.743747	-0.589089	0.729225	0.007598	-0.004654	0.003407
1038	5.204745	0.005000	0.274680	9.747252	2.291652	-0.743966	-0.588870	0.728858	0.022967	-0.005626	0.004351
1039	5.209745	0.005000	0.313920	9.849240	2.485634	-0.744186	-0.588650	0.728490	0.023053	-0.002321	-0.004019
1040	5.214745	0.005000	0.313920	9.759324	2.432880	-0.744405	-0.588431	0.728122	0.025585	-0.014293	-0.000947
1041	5.219745	0.005000	0.304765	9.740675	2.490431	-0.744625	-0.588211	0.727754	0.017194	-0.017706	0.002525
1042	5.224745	0.005000	0.281429	9.784258	2.497862	-0.744844	-0.587992	0.727387	0.012301	-0.006360	0.005469
1043	5.229745	0.005000	0.313920	9.805194	2.398446	-0.745064	-0.587772	0.727019	0.014221	-0.013496	0.005647
1044	5.234745	0.005000	0.309143	9.844463	2.435268	-0.745283	-0.587553	0.726651	0.018299	-0.016405	-0.007976
1045	5.239745	0.005000	0.275119	9.809561	2.510483	-0.745503	-0.587333	0.726284	0.022211	-0.018273	-0.007326
1046	5.244745	0.005000	0.239359	9.733480	2.432880	-0.745722	-0.587114	0.725916	0.013436	-0.002424	0.002674
1047	5.249745	0.005000	0.306112	9.696184	2.468216	-0.745942	-0.586894	0.725548	0.006956	-0.002668	0.004151
1048	5.254745	0.005000	0.227739	9.692280	2.459504	-0.746161	-0.586675	0.725181	0.015572	-0.003477	0.006318
1049	5.259745	0.005000	0.226817	9.762137	2.402263	-0.746102	-0.586623	0.724938	0.007006	-0.005471	-0.007925
1050	5.264745	0.005000	0.292586	9.731520	2.354400	-0.745772	-0.586733	0.724815	0.013807	-0.006843	0.003910
1051	5.269745	0.005000	0.301001	9.731520	2.380721	-0.745443	-0.586842	0.724693	0.004331	-0.001175	0.000305
1052	5.274745	0.005000	0.353160	9.707299	2.432880	-0.745114	-0.586952	0.724570	0.018311	-0.005136	0.003450
1053	5.279745	0.005000	0.392400	9.709711	2.437257	-0.744785	-0.587062	0.724448	0.010645	-0.002735	0.000611
1054	5.284745	0.005000	0.294285	9.751155	2.472059	-0.744456	-0.587172	0.724325	0.011165	0.003416	-0.003582
1055	5.289745	0.005000	0.178746	9.731520	2.450334	-0.744127	-0.587281	0.724202	0.008835	-0.004028	-0.000973
1056	5.294745	0.005000	0.226848	9.707604	2.408964	-0.743798	-0.587391	0.724080	0.015883	-0.012279	0.000733
1057	5.299745	0.005000	0.313920	9.731520	2.419841	-0.743468	-0.587501	0.723957	0.007116	-0.009102	-0.002635
1058	5.304745	0.005000	0.285367	9.742207	2.382953	-0.743139	-0.587610	0.723835	0.002900	-0.006299	0.000898
1059	5.309745	0.005000	0.244182	9.862254	2.441622	-0.742810	-0.587720	0.723712	-0.002734	-0.005162	-0.002341
1060	5.314745	0.005000	0.313920	9.764424	2.420208	-0.742481	-0.587830	0.723590	0.007996	-0.012164	0.001598
1061	5.319745	0.005000	0.309578	9.770760	2.476462	-0.742152	-0.587940	0.723467	0.003972	-0.015178	0.000800
1062	5.324745	0.005000	0.347191	9.729530	2.393640	-0.741823	-0.588049	0.723345	0.005767	-0.012636	0.002671
1063	5.329745	0.005000	0.274256	9.692280	2.393640	-0.742088	-0.587862	0.723444	-0.004316	-0.007452	0.000622
1064	5.334745	0.005000	0.311548	9.770760	2.430508	-0.742418	-0.587642	0.723566	0.006240	-0.015179	-0.000131
1065	5.339745	0.005000	0.200977	9.697057	2.349623	-0.742747	-0.587423	0.723689	0.015861	-0.014553	-0.004947
1066	5.344745	0.005000	0.274680	9.756540	2.393640	-0.743076	-0.587203	0.723811	0.023467	-0.016245	-0.005574
1067	5.349745	0.005000	0.313920	9.752487	2.372673	-0.743405	-0.586984	0.723934	0.020313	-0.018688	0.000615
1068	5.354745	0.005000	0.313920	9.754608	2.264376	-0.743734	-0.586765	0.724056	0.009860	-0.001825	-0.002478
1069	5.359745	0.005000	0.249236	9.692280	2.432880	-0.744063	-0.586545	0.724179	0.007496	-0.014757	-0.002727
1070	5.364745	0.005000	0.321358	9.715619	2.440318	-0.744393	-0.586326	0.724301	0.004696	-0.008131	0.002024
1071	5.369745	0.005000	0.271624	9.770760	2.411732	-0.744722	-0.586106	0.724424	0.014232	-0.005097	0.000569
1072	5.374745	0.005000	0.194929	9.751775	2.434151	-0.745051	-0.585887	0.724547	0.017664	-0.012956	0.003352
1073	5.379745	0.005000	0.245923	9.708854	2.387549	-0.745380	-0.585668	0.724669	0.017190	-0.004706	0.008600
1074	5.384745	0.005000	0.284658	9.677649	2.442858	-0.745709	-0.585448	0.724792	0.003801	-0.008875	-0.006178
1075	5.389745	0.005000	0.169178	9.662670	2.329965	-0.746038	-0.585229	0.724914	0.007286	-0.007488	-0.000528
1076	5.394745	0.005000	0.196200	9.751851	2.374731	-0.746302	-0.585108	0.725220	-0.004010	-0.001064	-0.005120
1077	5.399745	0.005000	0.266811	9.802131	2.425011	-0.746411	-0.585217	0.725955	0.008661	-0.007812	0.010125
1078	5.404745	0.005000	0.235440	9.804146	2.326868	-0.746521	-0.585327	0.726690	0.005782	-0.003732	-0.001106
1079	5.409745	0.005000	0.274680	9.806480	2.400680	-0.746631	-0.585437	0.727425	0.004969	-0.009289	0.007575
1080	5.414745	0.005000	0.313920	9.847682	2.431322	-0.746740	-0.585546	0.728160	0.000702	0.001164	0.008494
1081	5.419745	0.005000	0.313920	9.810000	2.470437	-0.746850	-0.585656	0.728895	0.000132	-0.000562	-0.000742
1082	5.424745	0.005000	0.271473	9.764346	2.403261	-0.746960	-0.585766	0.729630	0.006486	-0.006160	0.004594
1083	5.429745	0.005000	0.279870	9.844050	2.472120	-0.747069	-0.585875	0.730365	0.012878	-0.006707	-0.004959
1084	5.434745	0.005000	0.291365	9.739038	2.559767	-0.747179	-0.585985	0.731100	0.014230	-0.011176	0.005900
1085	5.439745	0.005000	0.265130	9.770760	2.402149	-0.747289	-0.586095	0.731835	0.016975	-0.011335	0.001065
1086	5.444745	0.005000	0.313920	9.782717	2.432880	-0.747398	-0.586204	0.732570	0.029995	-0.012029	0.005992
1087	5.449745	0.005000	0.341723	9.720083	2.486022	-0.747508	-0.586314	0.733305	0.030570	-0.011042	0.002193
1088	5.454745	0.005000	0.330234	9.747834	2.455806	-0.747618	-0.586424	0.734040	0.023731	-0.006279	0.007073
1089	5.459745	0.005000	0.214701	9.733759	2.490621	-0.747727	-0.586533	0.734775	0.035281	-0.013018	0.005341
1090	5.464745	0.005000	0.194119	9.791421	2.315160	-0.747456	-0.586567	0.734575	0.025137	-0.006368	0.000952
1091	5.469745	0.005000	0.206290	9.715077	2.380933	-0.747017	-0.586567	0.733962	0.027940	-0.014323	0.010583
1092	5.474745	0.005000	0.224646	9.734949	2.422086	-0.746579	-0.586567	0.733350	0.011417	-0.013752	0.010657
1093	5.479745	0.005000	0.286495	9.849240	2.354400	-0.746140	-0.586567	0.732737	0.013187	-0.016142	0.010431
1094	5.484745	0.005000	0.313920	9.810000	2.384014	-0.745701	-0.586567	0.732125	0.019823	-0.016246	0.008689
1095	5.489745	0.005000	0.274680	9.707192	2.425424	-0.745262	-0.586567	0.731512	0.026401	-0.007021	0.010204
1096	5.494745	0.005000	0.274680	9.653040	2.416543	-0.744823	-0.586567	0.730900	0.024047	-0.003214	0.002900
1097	5.499745	0.005000	0.277787	9.737734	2.324480	-0.744385	-0.586567	0.730287	0.028346	-0.004332	0.006240
1098	5.504745	0.005000	0.352010	9.768461	2.394790	-0.743946	-0.586567	0.729675	0.034575	-0.014473	0.009039
1099	5.509745	0.005000	0.313920	9.768250	2.394895	-0.743507	-0.586567	0.729062	0.029930	-0.008975	0.001634
1100	5.514745	0.005000	0.238639	9.734719	2.400037	-0.743068	-0.586567	0.728450	0.024589	-0.006039	0.003412
1101	5.519745	0.005000	0.274680	9.697884	2.416069	-0.742629	-0.586567	0.727837	0.018619	-0.014235	0.001132
1102	5.524745	0.005000	0.250536	9.739068	2.307612	-0.742190	-0.586567	0.727225	0.017554	-0.007662	0.004544
1103	5.529745	0.005000	0.245403	9.740871	2.325123	-0.741791	-0.586577	0.726656	0.018463	-0.011999	0.003499
1104	5.534745	0.005000	0.355288	9.717021	2.368899	-0.741791	-0.586687	0.726533	0.013896	-0.002075	-0.001557
