# FOX Logger (IMU file)
# (c) INRIA 2011-2014
# File created from file sensbiotk output
#
# File format:
# id	t	dt	ax	ay	az	mx	my	mz	gx	gy	gz
#
# Units:
#	Time: s
#	Acceleration: m.s^-2
#	Magneto: gauss
#	Gyrometer: rad/s
#
1	0.043610	0.043610	1.069410	-9.486150	-0.210855	-0.500000	0.116418	-0.383333	0.000097	0.019568	-0.015488
2	0.048610	0.005000	1.051011	-9.432985	-0.093865	-0.498645	0.117773	-0.385856	-0.005828	0.020087	-0.008850
3	0.053610	0.005000	1.239460	-9.440620	-0.179980	-0.497289	0.119129	-0.388378	-0.004778	0.015526	-0.010910
4	0.058610	0.005000	1.155202	-9.474082	-0.178958	-0.495934	0.120484	-0.390901	-0.007086	0.012646	-0.026248
5	0.063610	0.005000	1.216440	-9.496080	-0.138955	-0.494578	0.121840	-0.393424	-0.003937	0.015397	-0.002642
6	0.068610	0.005000	1.196007	-9.594993	-0.177393	-0.493223	0.123195	-0.395946	-0.016080	0.017339	-0.010114
7	0.073610	0.005000	1.079309	-9.534902	-0.196618	-0.491868	0.124550	-0.398469	-0.005578	0.004550	-0.003510
8	0.078610	0.005000	1.177200	-9.613800	-0.078480	-0.490512	0.125906	-0.400991	-0.004495	0.018683	-0.010025
9	0.083610	0.005000	1.255680	-9.549619	-0.296074	-0.489157	0.127261	-0.403514	-0.009081	0.024532	-0.013111
10	0.088610	0.005000	1.177200	-9.574560	-0.196200	-0.487802	0.128616	-0.406037	-0.003731	0.008178	-0.001461
11	0.093610	0.005000	1.130323	-9.558759	-0.204364	-0.486446	0.129972	-0.408559	-0.005233	0.018754	-0.013949
12	0.098610	0.005000	1.105211	-9.496080	-0.235440	-0.485091	0.131327	-0.411082	-0.008288	0.009778	-0.017669
13	0.103610	0.005000	1.205642	-9.456840	-0.274680	-0.483735	0.132683	-0.413605	-0.014190	0.013336	-0.007626
14	0.108610	0.005000	1.150446	-9.456840	-0.196200	-0.482380	0.134038	-0.416127	-0.015108	0.022508	-0.021569
15	0.113610	0.005000	1.137960	-9.442276	-0.196200	-0.482090	0.134239	-0.416865	0.004556	0.008866	-0.007352
16	0.118610	0.005000	1.137960	-9.551292	-0.050874	-0.482090	0.134126	-0.417117	-0.010002	0.020592	-0.020666
17	0.123610	0.005000	1.177200	-9.563948	-0.028628	-0.482090	0.134013	-0.417370	-0.008826	0.014420	-0.011608
18	0.128610	0.005000	1.205968	-9.554498	-0.186611	-0.482090	0.133901	-0.417622	-0.003519	0.003379	-0.005190
19	0.133610	0.005000	1.276826	-9.613800	-0.126767	-0.482090	0.133788	-0.417874	-0.001596	0.004470	-0.006900
20	0.138610	0.005000	1.082671	-9.589726	-0.125745	-0.482090	0.133675	-0.418126	-0.002761	0.019317	-0.008642
21	0.143610	0.005000	1.080486	-9.542322	-0.170964	-0.482090	0.133562	-0.418379	-0.011099	0.018698	-0.011452
22	0.148610	0.005000	1.189308	-9.541374	-0.178039	-0.482090	0.133449	-0.418631	-0.013044	0.012675	-0.006784
23	0.153610	0.005000	1.137960	-9.608362	-0.240878	-0.482090	0.133336	-0.418883	-0.014550	0.017060	-0.017064
24	0.158610	0.005000	1.142375	-9.544150	-0.117720	-0.482090	0.133223	-0.419135	-0.010356	0.006957	-0.014298
25	0.163610	0.005000	1.213007	-9.613800	0.025507	-0.482090	0.133110	-0.419388	-0.014380	0.017545	-0.015836
26	0.168610	0.005000	1.135124	-9.577396	-0.117720	-0.482090	0.132997	-0.419640	-0.015467	0.013957	-0.020999
27	0.173610	0.005000	1.141616	-9.574560	-0.041068	-0.482090	0.132884	-0.419892	-0.004180	0.009388	-0.006912
28	0.178610	0.005000	1.137154	-9.652234	-0.197006	-0.482155	0.132965	-0.419495	-0.019130	0.015173	-0.013551
29	0.183610	0.005000	1.137743	-9.574777	-0.235440	-0.482267	0.133191	-0.418612	0.001104	0.007340	-0.013578
30	0.188610	0.005000	1.062578	-9.533771	-0.118495	-0.482380	0.133417	-0.417729	-0.006692	0.022521	-0.012525
31	0.193610	0.005000	1.139757	-9.608409	-0.271086	-0.482493	0.133643	-0.416846	-0.001719	0.016343	-0.017231
32	0.198610	0.005000	1.180019	-9.613800	-0.269041	-0.482606	0.133869	-0.415963	0.009112	0.010863	-0.008331
33	0.203610	0.005000	1.134558	-9.646236	-0.264474	-0.482719	0.134095	-0.415081	-0.007634	0.016266	-0.011199
34	0.208610	0.005000	1.203288	-9.565792	-0.161344	-0.482832	0.134321	-0.414198	0.003600	0.013284	-0.008731
35	0.213610	0.005000	1.278700	-9.506893	-0.224627	-0.482945	0.134546	-0.413315	-0.001398	0.009058	-0.010843
36	0.218610	0.005000	1.222462	-9.508125	-0.235440	-0.483058	0.134772	-0.412432	-0.005192	0.014171	-0.012430
37	0.223610	0.005000	1.267035	-9.470782	-0.242411	-0.483171	0.134998	-0.411549	-0.014342	0.014498	-0.003951
38	0.228610	0.005000	1.145954	-9.574560	-0.212187	-0.483284	0.135224	-0.410666	-0.002714	0.009601	-0.006587
39	0.233610	0.005000	1.155992	-9.553352	-0.205216	-0.483397	0.135450	-0.409783	0.002819	0.012007	0.002223
40	0.238610	0.005000	1.255680	-9.525762	-0.197207	-0.483509	0.135676	-0.408900	-0.002399	0.023378	-0.019365
41	0.243610	0.005000	1.273759	-9.563979	-0.242938	-0.483622	0.135740	-0.408333	-0.005665	0.021949	-0.005317
42	0.248610	0.005000	1.216440	-9.496080	-0.219406	-0.483735	0.135514	-0.408333	-0.008293	0.025314	-0.004760
43	0.253610	0.005000	1.282613	-9.496080	-0.183893	-0.483848	0.135288	-0.408333	-0.009151	0.020348	-0.009270
44	0.258610	0.005000	1.255680	-9.600369	-0.104816	-0.483961	0.135062	-0.408333	-0.006035	0.014538	-0.009800
45	0.263610	0.005000	1.152150	-9.638850	-0.117720	-0.484074	0.134837	-0.408333	-0.009986	0.015242	-0.020584
46	0.268610	0.005000	1.161987	-9.589773	-0.078480	-0.484187	0.134611	-0.408333	0.001739	-0.002149	-0.003634
47	0.273610	0.005000	1.239910	-9.598030	-0.141190	-0.484300	0.134385	-0.408333	0.002713	0.015343	-0.012783
48	0.278610	0.005000	1.154753	-9.552113	-0.151306	-0.484413	0.134159	-0.408333	-0.004353	0.011403	-0.026397
49	0.283610	0.005000	1.216440	-9.556745	-0.064274	-0.484526	0.133933	-0.408333	0.004573	0.007111	-0.011737
50	0.288610	0.005000	1.274257	-9.574560	-0.057817	-0.484639	0.133707	-0.408333	-0.006412	0.017179	-0.017259
51	0.293610	0.005000	1.157340	-9.476220	-0.097860	-0.484752	0.133481	-0.408333	0.000364	0.013740	-0.014219
52	0.298610	0.005000	1.238407	-9.478807	-0.158525	-0.484865	0.133255	-0.408333	-0.005589	0.015465	-0.011439
53	0.303610	0.005000	1.195015	-9.513895	-0.057055	-0.484978	0.133029	-0.408333	-0.007631	0.006180	-0.010206
54	0.308610	0.005000	1.238407	-9.653040	-0.200894	-0.485270	0.132658	-0.407935	0.006533	0.006789	-0.014147
55	0.313610	0.005000	1.239429	-9.643528	-0.251691	-0.486624	0.131416	-0.405161	-0.001222	0.007072	-0.009159
56	0.318610	0.005000	1.201212	-9.559332	-0.141732	-0.487979	0.130174	-0.402388	-0.006462	0.012782	-0.010995
57	0.323610	0.005000	1.177200	-9.520938	-0.103338	-0.489334	0.128932	-0.399614	-0.000293	0.013213	-0.016094
58	0.328610	0.005000	1.257431	-9.588224	-0.182536	-0.490689	0.127690	-0.396841	-0.010063	0.008717	-0.018674
59	0.333610	0.005000	1.216440	-9.679639	-0.222799	-0.492043	0.126448	-0.394067	-0.001123	0.009369	-0.014404
60	0.338610	0.005000	1.216440	-9.625419	-0.212203	-0.493398	0.125206	-0.391294	-0.004349	0.004771	-0.014375
61	0.343610	0.005000	1.284193	-9.574560	-0.178415	-0.494753	0.123964	-0.388520	-0.003276	0.017219	-0.010984
62	0.348610	0.005000	1.158068	-9.535320	-0.186146	-0.496108	0.122723	-0.385747	-0.009347	0.009996	-0.015976
63	0.353610	0.005000	1.294920	-9.544352	-0.308002	-0.497462	0.121481	-0.382973	-0.008304	0.009807	-0.002789
64	0.358610	0.005000	1.216440	-9.636830	-0.094690	-0.498817	0.120239	-0.380200	-0.004580	0.026098	-0.020025
65	0.363610	0.005000	1.248229	-9.567109	-0.110269	-0.500172	0.118997	-0.377426	0.007109	0.012153	-0.005655
66	0.368610	0.005000	1.144389	-9.463269	-0.091338	-0.501526	0.117755	-0.374653	-0.006383	0.020779	-0.012907
67	0.373610	0.005000	1.210553	-9.496080	-0.111833	-0.502881	0.116513	-0.371879	-0.002028	0.020245	-0.012852
68	0.378610	0.005000	1.177200	-9.579424	-0.156960	-0.502881	0.116835	-0.372948	-0.008546	0.016857	-0.009629
69	0.383610	0.005000	1.220282	-9.566876	-0.188516	-0.502768	0.117287	-0.374336	-0.016280	0.017029	-0.019040
70	0.388610	0.005000	1.180054	-9.538174	-0.123429	-0.502655	0.117739	-0.375723	-0.007966	0.009991	-0.010297
71	0.393610	0.005000	1.251125	-9.496080	-0.156960	-0.502542	0.118191	-0.377110	-0.003626	0.014308	-0.003161
72	0.398610	0.005000	1.175945	-9.536575	-0.234185	-0.502429	0.118642	-0.378498	-0.009806	0.013586	-0.003750
73	0.403610	0.005000	1.137725	-9.496551	-0.156489	-0.502316	0.119094	-0.379885	-0.013938	0.016174	-0.004831
74	0.408610	0.005000	1.059790	-9.496700	-0.195271	-0.502203	0.119546	-0.381272	-0.013050	0.014961	-0.009794
75	0.413610	0.005000	1.058148	-9.612468	-0.194868	-0.502090	0.119998	-0.382660	-0.009436	0.006696	-0.000366
76	0.418610	0.005000	1.135605	-9.613800	-0.083189	-0.501977	0.120450	-0.384047	-0.012272	0.022224	-0.017228
77	0.423610	0.005000	1.098720	-9.498992	-0.235440	-0.501865	0.120901	-0.385435	-0.009359	0.008993	-0.005209
78	0.428610	0.005000	1.130090	-9.566690	-0.129525	-0.501752	0.121353	-0.386822	-0.014140	0.025069	-0.019941
79	0.433610	0.005000	1.182142	-9.491138	-0.201142	-0.501639	0.121805	-0.388209	-0.003577	0.011360	-0.015184
80	0.438610	0.005000	1.210875	-9.434296	-0.117720	-0.501526	0.122257	-0.389597	-0.003148	0.015241	-0.010327
81	0.443610	0.005000	1.222962	-9.417600	-0.078480	-0.500852	0.123029	-0.390984	-0.003244	0.020275	-0.032021
82	0.448610	0.005000	1.137960	-9.535320	-0.188656	-0.499948	0.123933	-0.392372	-0.006720	0.008735	-0.012402
83	0.453610	0.005000	1.146147	-9.543507	-0.173334	-0.499045	0.124836	-0.393759	-0.010636	0.021434	-0.014032
84	0.458610	0.005000	1.068589	-9.625713	-0.117720	-0.498141	0.125740	-0.395146	-0.006301	0.017856	-0.021795
85	0.463610	0.005000	1.088589	-9.564429	-0.194914	-0.497237	0.126643	-0.396534	-0.006751	0.011533	-0.006915
86	0.468610	0.005000	1.087566	-9.585714	-0.207354	-0.496334	0.127547	-0.397921	-0.014513	0.013821	-0.019941
87	0.473610	0.005000	1.055328	-9.558712	-0.090176	-0.495430	0.128450	-0.399308	-0.011005	0.005799	-0.006855
88	0.478610	0.005000	1.073283	-9.574560	-0.156960	-0.494526	0.129354	-0.400696	-0.010046	0.011977	-0.007246
89	0.483610	0.005000	1.190941	-9.588301	-0.209941	-0.493623	0.130258	-0.402083	-0.013087	0.009435	-0.009171
90	0.488610	0.005000	1.216440	-9.599340	-0.068160	-0.492719	0.131161	-0.403471	-0.016838	0.016016	-0.012790
91	0.493610	0.005000	1.225069	-9.613800	-0.189523	-0.491815	0.132065	-0.404858	-0.015626	0.014693	-0.028297
92	0.498610	0.005000	1.216440	-9.574560	-0.242024	-0.490912	0.132968	-0.406245	-0.016579	0.022146	-0.024637
93	0.503610	0.005000	1.282109	-9.618339	-0.230901	-0.490008	0.133872	-0.407633	-0.022337	0.016788	-0.025270
94	0.508610	0.005000	1.116628	-9.674372	-0.153536	-0.489608	0.133993	-0.408708	-0.030356	0.006385	-0.017568
95	0.513610	0.005000	1.178579	-9.671971	-0.098789	-0.489721	0.133315	-0.409464	-0.024374	0.022485	-0.021486
96	0.518610	0.005000	1.195844	-9.574560	-0.137665	-0.489834	0.132638	-0.410220	-0.022668	0.013984	-0.006673
97	0.523610	0.005000	1.156485	-9.613800	-0.214725	-0.489947	0.131960	-0.410977	-0.032405	0.012750	-0.018885
98	0.528610	0.005000	1.216440	-9.656835	-0.196200	-0.490060	0.131283	-0.411733	-0.030314	0.024474	-0.026267
99	0.533610	0.005000	1.317460	-9.552020	-0.072640	-0.490173	0.130606	-0.412490	-0.027895	0.010244	-0.010787
100	0.538610	0.005000	1.311078	-9.551478	-0.062322	-0.490286	0.129928	-0.413246	-0.024147	0.015254	-0.021415
101	0.543610	0.005000	1.231575	-9.496080	-0.069510	-0.490398	0.129251	-0.414003	-0.025169	0.010593	-0.011634
102	0.548610	0.005000	1.255680	-9.431713	-0.199298	-0.490511	0.128574	-0.414759	-0.025186	0.014895	-0.013791
103	0.553610	0.005000	1.216440	-9.535320	-0.274680	-0.490624	0.127896	-0.415515	-0.021516	0.016015	-0.023948
104	0.558610	0.005000	1.268228	-9.472579	-0.260536	-0.490737	0.127219	-0.416272	-0.008878	0.009758	0.001131
105	0.563610	0.005000	1.244154	-9.456840	-0.274680	-0.490850	0.126541	-0.417028	-0.012548	0.014517	-0.021380
106	0.568610	0.005000	1.294920	-9.613800	-0.256698	-0.490963	0.125864	-0.417785	-0.017268	0.013348	-0.021046
107	0.573610	0.005000	1.187149	-9.535320	-0.264731	-0.490827	0.125155	-0.418160	-0.010638	0.012926	-0.006446
108	0.578610	0.005000	1.307344	-9.505019	-0.313920	-0.490036	0.124364	-0.417529	-0.009243	0.004950	-0.001833
109	0.583610	0.005000	1.263691	-9.613800	-0.297898	-0.489245	0.123573	-0.416898	-0.013765	0.007905	-0.004195
110	0.588610	0.005000	1.263038	-9.589277	-0.228082	-0.488454	0.122782	-0.416267	-0.017946	0.011073	-0.013151
111	0.593610	0.005000	1.222776	-9.673272	-0.274680	-0.487663	0.121991	-0.415636	-0.012663	0.009617	-0.015561
112	0.598610	0.005000	1.171821	-9.501459	-0.240819	-0.486872	0.121200	-0.415005	-0.022634	0.021525	-0.020673
113	0.603610	0.005000	1.098720	-9.456840	-0.205743	-0.486081	0.120409	-0.414374	-0.011979	0.012431	-0.009354
114	0.608610	0.005000	1.102469	-9.456840	-0.199949	-0.485290	0.119618	-0.413743	-0.014357	0.024890	-0.016536
115	0.613610	0.005000	1.250227	-9.423053	-0.198927	-0.484499	0.118827	-0.413112	-0.011706	0.015636	-0.020253
116	0.618610	0.005000	1.175016	-9.500449	-0.200569	-0.483708	0.118036	-0.412481	0.002426	0.010435	-0.002155
117	0.623610	0.005000	1.176038	-9.653040	-0.193876	-0.482917	0.117245	-0.411850	-0.001583	0.019588	-0.022721
118	0.628610	0.005000	1.255401	-9.574560	-0.196061	-0.482126	0.116454	-0.411220	0.002521	0.021528	-0.021239
119	0.633610	0.005000	1.138843	-9.574560	-0.233674	-0.481335	0.115663	-0.410589	0.005605	0.017486	-0.017901
120	0.638610	0.005000	1.294920	-9.538170	-0.159810	-0.480605	0.115016	-0.410042	-0.001873	0.018836	-0.017622
121	0.643610	0.005000	1.184543	-9.498528	-0.085823	-0.480718	0.116371	-0.410673	0.000927	0.016063	-0.011999
122	0.648610	0.005000	1.252210	-9.606860	-0.235440	-0.480831	0.117727	-0.411303	0.004834	0.020126	-0.021441
123	0.653610	0.005000	1.150043	-9.531292	-0.270652	-0.480944	0.119082	-0.411934	-0.004123	0.013593	-0.013592
124	0.658610	0.005000	1.074631	-9.608750	-0.196200	-0.481057	0.120438	-0.412565	-0.011577	0.010515	-0.002313
125	0.663610	0.005000	1.294920	-9.462900	-0.274680	-0.481169	0.121793	-0.413195	-0.011138	0.009541	-0.015470
126	0.668610	0.005000	1.190430	-9.607185	-0.130950	-0.481282	0.123148	-0.413826	-0.010809	0.010055	-0.017874
127	0.673610	0.005000	1.279645	-9.582197	-0.156960	-0.481395	0.124504	-0.414457	0.000682	-0.000122	-0.010087
128	0.678610	0.005000	1.264340	-9.543980	-0.156960	-0.481508	0.125859	-0.415087	-0.000383	0.015068	0.004325
129	0.683610	0.005000	1.177200	-9.615776	-0.136352	-0.481621	0.127215	-0.415718	-0.010079	0.024302	-0.014041
130	0.688610	0.005000	1.255680	-9.595009	-0.107496	-0.481734	0.128570	-0.416348	-0.010074	-0.000201	-0.008469
131	0.693610	0.005000	1.322913	-9.597054	-0.140214	-0.481847	0.129926	-0.416979	-0.018298	0.011164	-0.024898
132	0.698610	0.005000	1.177200	-9.571125	-0.141590	-0.481960	0.131281	-0.417610	-0.018363	0.013553	-0.018567
133	0.703610	0.005000	1.242869	-9.627417	-0.104909	-0.482073	0.132636	-0.418240	-0.012368	0.010907	0.001050
134	0.708610	0.005000	1.202606	-9.560726	-0.196200	-0.482090	0.132643	-0.417688	-0.012577	0.009719	-0.019380
135	0.713610	0.005000	1.073872	-9.549712	-0.196200	-0.482090	0.132418	-0.416932	-0.003531	0.002902	-0.002310
136	0.718610	0.005000	1.098720	-9.566129	-0.078480	-0.482090	0.132192	-0.416175	-0.002407	0.020504	-0.012077
137	0.723610	0.005000	1.059480	-9.479659	-0.179779	-0.482090	0.131966	-0.415419	-0.017641	0.022539	-0.021386
138	0.728610	0.005000	1.126264	-9.619083	-0.173939	-0.482090	0.131740	-0.414662	-0.012713	0.014221	-0.018531
139	0.733610	0.005000	1.137960	-9.631801	-0.277918	-0.482090	0.131514	-0.413906	-0.012726	0.011132	-0.015339
140	0.738610	0.005000	1.195031	-9.475864	-0.254464	-0.482090	0.131289	-0.413149	-0.009063	0.020208	-0.006982
141	0.743610	0.005000	1.177308	-9.554994	-0.176417	-0.482090	0.131063	-0.412393	-0.009802	0.015948	-0.010759
142	0.748610	0.005000	1.237028	-9.613800	-0.196200	-0.482090	0.130837	-0.411637	-0.016145	0.018922	-0.009474
143	0.753610	0.005000	1.177200	-9.609819	-0.156960	-0.482090	0.130611	-0.410880	-0.021724	0.025163	-0.018613
144	0.758610	0.005000	1.143575	-9.580175	-0.100907	-0.482090	0.130386	-0.410124	-0.019025	0.005934	-0.013439
145	0.763610	0.005000	1.130849	-9.528209	-0.196200	-0.482090	0.130160	-0.409367	-0.019063	0.015412	-0.005582
146	0.768610	0.005000	1.158889	-9.589602	-0.202087	-0.482090	0.129934	-0.408611	-0.021002	0.027751	-0.019359
147	0.773610	0.005000	1.191685	-9.603529	-0.313920	-0.482090	0.129780	-0.408493	-0.014583	0.001656	-0.010320
148	0.778610	0.005000	1.137960	-9.665325	-0.209678	-0.482090	0.129667	-0.408745	-0.022414	0.019150	-0.014848
149	0.783610	0.005000	1.086265	-9.588890	-0.158834	-0.482090	0.129554	-0.408997	-0.008638	0.011539	-0.006423
150	0.788610	0.005000	1.177200	-9.574560	-0.140860	-0.482090	0.129441	-0.409250	-0.006414	0.009594	-0.005237
151	0.793610	0.005000	1.305795	-9.496080	-0.196200	-0.482090	0.129328	-0.409502	-0.015430	0.015277	-0.018342
152	0.798610	0.005000	1.226293	-9.476545	-0.127573	-0.482090	0.129215	-0.409754	-0.007300	0.008113	0.000877
153	0.803610	0.005000	1.303860	-9.635161	-0.235440	-0.482090	0.129102	-0.410006	-0.011605	0.018454	-0.014091
154	0.808610	0.005000	1.371200	-9.566272	-0.274680	-0.482090	0.128989	-0.410259	-0.002918	0.015505	-0.016757
155	0.813610	0.005000	1.184466	-9.510611	-0.235440	-0.482090	0.128876	-0.410511	-0.004056	0.016756	-0.011407
156	0.818610	0.005000	1.255680	-9.535320	-0.243078	-0.482090	0.128763	-0.410763	-0.006139	0.015163	-0.018520
157	0.823610	0.005000	1.283518	-9.546722	-0.156960	-0.482090	0.128650	-0.411016	-0.019601	0.018077	-0.022240
158	0.828610	0.005000	1.285563	-9.648362	-0.161638	-0.482090	0.128537	-0.411268	-0.020080	0.016641	-0.022670
159	0.833610	0.005000	1.223752	-9.653040	-0.156960	-0.482090	0.128424	-0.411520	-0.017985	0.012998	-0.011407
160	0.838610	0.005000	1.288692	-9.649926	-0.189972	-0.482043	0.128547	-0.411825	-0.015249	0.018159	-0.015548
161	0.843610	0.005000	1.251497	-9.648857	-0.196200	-0.481930	0.128999	-0.412204	0.001111	0.001917	-0.003139
162	0.848610	0.005000	1.175062	-9.535320	-0.238647	-0.481817	0.129451	-0.412582	-0.015054	0.021443	-0.009372
163	0.853610	0.005000	1.137960	-9.497614	-0.196711	-0.481704	0.129902	-0.412961	-0.013381	0.019206	-0.011416
164	0.858610	0.005000	1.176689	-9.613800	-0.157982	-0.481591	0.130354	-0.413339	-0.004887	0.000179	0.000185
165	0.863610	0.005000	1.139479	-9.535320	-0.122276	-0.481478	0.130806	-0.413717	-0.016407	0.019734	-0.012498
166	0.868610	0.005000	1.177200	-9.570408	-0.121872	-0.481365	0.131258	-0.414096	-0.006388	0.006301	-0.006492
167	0.873610	0.005000	1.288723	-9.541517	-0.190003	-0.481252	0.131710	-0.414474	0.006597	0.004887	-0.013580
168	0.878610	0.005000	1.189562	-9.531199	-0.161081	-0.481139	0.132161	-0.414852	0.007411	0.010017	-0.010313
169	0.883610	0.005000	1.211777	-9.574560	-0.226114	-0.481026	0.132613	-0.415231	-0.009890	0.012571	-0.013500
170	0.888610	0.005000	1.110091	-9.653040	-0.241125	-0.480913	0.133065	-0.415609	-0.000258	0.016962	-0.019733
171	0.893610	0.005000	1.065708	-9.580788	-0.163188	-0.480800	0.133517	-0.415988	-0.007772	0.011755	-0.002362
172	0.898610	0.005000	1.177200	-9.503330	-0.252930	-0.480687	0.133969	-0.416366	-0.003329	0.019257	-0.012630
173	0.903610	0.005000	1.137960	-9.456840	-0.251243	-0.480620	0.134351	-0.416538	-0.001444	0.011742	-0.013987
174	0.908610	0.005000	1.116380	-9.517660	-0.096140	-0.480733	0.134464	-0.415907	-0.015700	0.025578	-0.009845
175	0.913610	0.005000	1.216440	-9.525467	-0.176495	-0.480846	0.134577	-0.415277	-0.007937	0.018473	-0.017378
176	0.918610	0.005000	1.098720	-9.585084	-0.196200	-0.480959	0.134690	-0.414646	-0.010792	0.015170	-0.009061
177	0.923610	0.005000	1.126543	-9.602383	-0.224023	-0.481072	0.134803	-0.414015	-0.012986	0.022248	-0.018179
178	0.928610	0.005000	1.162839	-9.574560	-0.156960	-0.481185	0.134916	-0.413385	-0.011054	0.008739	-0.014964
179	0.933610	0.005000	1.098720	-9.548463	-0.222297	-0.481298	0.135029	-0.412754	-0.013192	0.020922	-0.010251
180	0.938610	0.005000	1.202436	-9.560556	-0.145729	-0.481411	0.135142	-0.412123	-0.017117	0.019083	-0.017404
181	0.943610	0.005000	1.152987	-9.511107	-0.156960	-0.481524	0.135255	-0.411493	-0.010641	0.006501	0.001849
182	0.948610	0.005000	1.192962	-9.590322	-0.149244	-0.481637	0.135368	-0.410862	-0.008657	0.015748	-0.007415
183	0.953610	0.005000	1.154551	-9.591151	-0.117720	-0.481750	0.135481	-0.410231	-0.011018	0.017345	-0.004035
184	0.958610	0.005000	1.177200	-9.552934	-0.121732	-0.481863	0.135594	-0.409600	-0.002761	0.019242	-0.013972
185	0.963610	0.005000	1.174303	-9.535320	-0.235440	-0.481976	0.135707	-0.408970	-0.010494	0.015275	-0.017604
186	0.968610	0.005000	1.216440	-9.556218	-0.156108	-0.482089	0.135820	-0.408339	-0.016830	0.020348	-0.005098
187	0.973610	0.005000	1.156984	-9.515104	-0.137936	-0.481866	0.135597	-0.408958	-0.009791	0.008264	-0.009831
188	0.978610	0.005000	1.216440	-9.517312	-0.253448	-0.481640	0.135371	-0.409588	-0.011195	0.009044	0.001872
189	0.983610	0.005000	1.142282	-9.513539	-0.274680	-0.481414	0.135145	-0.410219	-0.013328	0.015057	-0.014094
190	0.988610	0.005000	1.115156	-9.669476	-0.235440	-0.481188	0.134920	-0.410850	-0.009985	0.011959	-0.011088
191	0.993610	0.005000	1.185612	-9.644628	-0.211614	-0.480962	0.134694	-0.411480	-0.004629	0.018458	-0.012565
192	0.998610	0.005000	1.231312	-9.589432	-0.220568	-0.480736	0.134468	-0.412111	-0.007637	0.014022	-0.009772
193	1.003610	0.005000	1.177200	-9.535320	-0.182351	-0.480510	0.134242	-0.412742	-0.005499	0.006445	-0.010110
194	1.008610	0.005000	1.164214	-9.496080	-0.143692	-0.480284	0.134016	-0.413372	-0.003623	0.020135	-0.025649
195	1.013610	0.005000	1.231110	-9.549990	-0.117720	-0.480058	0.133790	-0.414003	-0.012322	0.005493	-0.007079
196	1.018610	0.005000	1.266942	-9.585822	-0.140245	-0.479832	0.133564	-0.414634	-0.011737	0.019460	-0.008145
197	1.023610	0.005000	1.205735	-9.642335	-0.206905	-0.479607	0.133338	-0.415264	-0.013291	0.019377	-0.014969
198	1.028610	0.005000	1.186882	-9.535320	-0.235440	-0.479381	0.133112	-0.415895	0.003727	0.014968	-0.010378
199	1.033610	0.005000	1.207777	-9.565897	-0.174286	-0.479155	0.132887	-0.416526	-0.006363	0.019098	-0.016400
200	1.038610	0.005000	1.208695	-9.543065	-0.250929	-0.479104	0.133011	-0.416765	-0.008258	0.017268	-0.009813
201	1.043610	0.005000	1.216440	-9.560370	-0.292635	-0.479104	0.133237	-0.416891	-0.012186	0.018005	-0.012005
202	1.048610	0.005000	1.204295	-9.574560	-0.163033	-0.479104	0.133463	-0.417017	-0.006072	0.011702	-0.005683
203	1.053610	0.005000	1.172087	-9.559222	-0.206426	-0.479104	0.133689	-0.417143	-0.013162	0.025417	-0.018092
204	1.058610	0.005000	1.255680	-9.496080	-0.165976	-0.479104	0.133915	-0.417269	-0.011441	0.012383	-0.012209
205	1.063610	0.005000	1.098720	-9.496080	-0.196200	-0.479104	0.134141	-0.417395	-0.005823	0.018059	-0.015184
206	1.068610	0.005000	1.142886	-9.498543	-0.156960	-0.479104	0.134367	-0.417521	-0.007313	0.016863	-0.023105
207	1.073610	0.005000	1.173358	-9.492238	-0.233519	-0.479104	0.134593	-0.417647	0.002973	0.012161	-0.005479
208	1.078610	0.005000	1.137960	-9.455941	-0.195301	-0.479104	0.134818	-0.417773	0.006154	0.021644	-0.017376
209	1.083610	0.005000	1.177076	-9.495832	-0.117844	-0.479104	0.135044	-0.417900	0.003390	0.005825	-0.015455
210	1.088610	0.005000	1.097574	-9.537613	-0.158106	-0.479104	0.135270	-0.418026	0.000300	0.009938	-0.010596
211	1.093610	0.005000	1.139649	-9.688902	-0.117720	-0.479104	0.135496	-0.418152	-0.009191	0.027239	-0.017532
212	1.098610	0.005000	1.174489	-9.464973	-0.193489	-0.479104	0.135722	-0.418278	-0.003510	0.012242	-0.003056
213	1.103610	0.005000	1.255680	-9.574560	-0.160693	-0.479167	0.135631	-0.418333	0.004627	0.010254	-0.016140
214	1.108610	0.005000	1.133669	-9.543902	-0.348869	-0.479280	0.135292	-0.418333	-0.007656	0.016267	-0.011222
215	1.113610	0.005000	1.109347	-9.496080	-0.313920	-0.479393	0.134953	-0.418333	-0.012313	0.015905	-0.007974
216	1.118610	0.005000	1.170864	-9.574560	-0.268344	-0.479506	0.134614	-0.418333	-0.010123	0.017231	-0.004946
217	1.123610	0.005000	1.126233	-9.581438	-0.267802	-0.479619	0.134275	-0.418333	-0.008289	0.019160	-0.004169
218	1.128610	0.005000	1.130059	-9.566659	-0.227539	-0.479732	0.133936	-0.418333	-0.010459	0.016419	-0.020549
219	1.133610	0.005000	1.186123	-9.565637	-0.105249	-0.479845	0.133597	-0.418333	-0.008744	0.005110	-0.009840
220	1.138610	0.005000	1.078645	-9.613800	-0.265097	-0.479958	0.133258	-0.418333	-0.007022	0.017751	-0.024671
221	1.143610	0.005000	1.048992	-9.506568	-0.303432	-0.480071	0.132919	-0.418333	-0.008737	0.011604	-0.009954
222	1.148610	0.005000	1.248879	-9.551540	-0.219220	-0.480184	0.132581	-0.418333	-0.015104	0.007818	-0.002321
223	1.153610	0.005000	1.291837	-9.610717	-0.247492	-0.480297	0.132242	-0.418333	-0.016276	0.018039	-0.016333
224	1.158610	0.005000	1.255680	-9.535305	-0.235425	-0.480410	0.131903	-0.418333	-0.016640	0.002652	-0.001331
225	1.163610	0.005000	1.112817	-9.518171	-0.260583	-0.480523	0.131564	-0.418333	-0.012906	0.014557	-0.018843
226	1.168610	0.005000	1.123305	-9.535320	-0.161685	-0.480676	0.131422	-0.418289	-0.012471	0.017635	-0.020871
227	1.173610	0.005000	1.130075	-9.527435	-0.180523	-0.480902	0.131648	-0.418163	-0.004826	0.016673	-0.026308
228	1.178610	0.005000	1.154660	-9.535320	-0.235440	-0.481127	0.131873	-0.418037	-0.009415	0.014850	-0.021427
229	1.183610	0.005000	1.120511	-9.496080	-0.252889	-0.481353	0.132099	-0.417911	0.000933	0.012009	-0.011554
230	1.188610	0.005000	1.096009	-9.598247	-0.274680	-0.481579	0.132325	-0.417785	-0.009653	0.013471	-0.010834
231	1.193610	0.005000	1.119339	-9.593847	-0.234108	-0.481805	0.132551	-0.417659	-0.005833	0.015550	-0.020760
232	1.198610	0.005000	1.098720	-9.613382	-0.215611	-0.482031	0.132777	-0.417533	-0.009369	0.008662	-0.015074
233	1.203610	0.005000	1.213977	-9.595412	-0.154497	-0.482257	0.133003	-0.417407	-0.012066	0.012569	-0.013130
234	1.208610	0.005000	1.294920	-9.578638	-0.174541	-0.482483	0.133229	-0.417281	-0.008640	0.021498	-0.013251
235	1.213610	0.005000	1.199616	-9.529728	-0.179376	-0.482709	0.133455	-0.417154	-0.010925	0.022646	-0.020941
236	1.218610	0.005000	1.224077	-9.613800	-0.156960	-0.482935	0.133681	-0.417028	-0.002212	0.016801	-0.010926
237	1.223610	0.005000	1.231396	-9.598844	-0.235440	-0.483160	0.133906	-0.416902	-0.013274	0.028711	-0.019153
238	1.228610	0.005000	1.187998	-9.588781	-0.181979	-0.483386	0.134132	-0.416776	-0.005248	0.010552	-0.008857
239	1.233610	0.005000	1.150802	-9.587402	-0.143405	-0.483673	0.134252	-0.416667	-0.001586	0.013469	-0.015056
240	1.238610	0.005000	1.098720	-9.626138	-0.103156	-0.484350	0.133688	-0.416667	-0.004744	0.021242	-0.030904
241	1.243610	0.005000	1.082748	-9.574560	-0.263046	-0.485028	0.133123	-0.416667	-0.009877	0.008619	-0.004209
242	1.248610	0.005000	1.148572	-9.535320	-0.214217	-0.485706	0.132558	-0.416667	-0.008655	0.022193	-0.023573
243	1.253610	0.005000	1.226509	-9.506149	-0.206269	-0.486383	0.131994	-0.416667	-0.013504	0.018566	-0.014346
244	1.258610	0.005000	1.198346	-9.574560	-0.196200	-0.487061	0.131429	-0.416667	-0.008309	0.015285	0.000623
245	1.263610	0.005000	1.067604	-9.543444	-0.117720	-0.487739	0.130864	-0.416667	-0.011858	0.012379	-0.017175
246	1.268610	0.005000	1.169718	-9.464322	-0.125202	-0.488417	0.130300	-0.416667	-0.006468	0.012889	-0.011958
247	1.273610	0.005000	1.242760	-9.535320	-0.215580	-0.489094	0.129735	-0.416667	-0.008541	0.006036	-0.017410
248	1.278610	0.005000	1.250242	-9.467715	-0.196200	-0.489772	0.129170	-0.416667	-0.021912	0.006355	-0.008966
249	1.283610	0.005000	1.129024	-9.570092	-0.209604	-0.490450	0.128605	-0.416667	-0.013189	0.014619	-0.018980
250	1.288610	0.005000	1.114150	-9.468412	-0.310063	-0.491127	0.128041	-0.416667	-0.014616	0.011744	-0.006740
251	1.293610	0.005000	1.244336	-9.535320	-0.271844	-0.491805	0.127476	-0.416667	-0.005694	0.019212	-0.002374
252	1.298610	0.005000	1.100570	-9.611950	-0.156960	-0.492483	0.126911	-0.416667	-0.006603	0.012431	-0.014022
253	1.303610	0.005000	1.139230	-9.575830	-0.235440	-0.493472	0.126139	-0.413767	-0.012828	0.004096	-0.007039
254	1.308610	0.005000	1.255680	-9.575056	-0.313176	-0.494489	0.125348	-0.410613	-0.018152	0.015458	-0.014555
255	1.313610	0.005000	1.217215	-9.614575	-0.234665	-0.495505	0.124557	-0.407460	-0.001617	0.011174	-0.009580
256	1.318610	0.005000	1.254363	-9.497397	-0.194883	-0.496522	0.123767	-0.404307	-0.000464	0.008390	-0.014408
257	1.323610	0.005000	1.064158	-9.572221	-0.193861	-0.497538	0.122976	-0.401154	-0.022319	0.019395	-0.010385
258	1.328610	0.005000	1.102082	-9.577922	-0.228717	-0.498555	0.122185	-0.398001	-0.012145	0.012251	-0.000707
259	1.333610	0.005000	1.126103	-9.570608	-0.306016	-0.499571	0.121395	-0.394847	-0.002080	0.021010	-0.011407
260	1.338610	0.005000	1.142886	-9.505933	-0.196200	-0.500588	0.120604	-0.391694	-0.009802	0.006525	-0.013300
261	1.343610	0.005000	1.183149	-9.502029	-0.235440	-0.501604	0.119813	-0.388541	-0.012959	0.014262	-0.015403
262	1.348610	0.005000	1.164031	-9.607216	-0.228856	-0.502621	0.119023	-0.385388	-0.004795	0.013215	-0.020362
263	1.353610	0.005000	1.208927	-9.518620	-0.164473	-0.503638	0.118232	-0.382235	-0.014073	0.017593	-0.015145
264	1.358610	0.005000	1.247144	-9.465376	-0.226904	-0.504654	0.117441	-0.379082	-0.008190	0.017757	-0.015072
265	1.363610	0.005000	1.195387	-9.526226	-0.087574	-0.505671	0.116651	-0.375928	-0.014963	0.005196	-0.011816
266	1.368610	0.005000	1.108836	-9.506196	-0.196200	-0.505811	0.116498	-0.376601	-0.021942	0.008079	-0.020572
267	1.373610	0.005000	1.109858	-9.552283	-0.207338	-0.505585	0.116610	-0.378870	-0.010554	0.005086	-0.010130
268	1.378610	0.005000	1.204279	-9.601639	-0.156960	-0.505359	0.116723	-0.381140	-0.009170	0.017477	-0.018074
269	1.383610	0.005000	1.164497	-9.430303	-0.222737	-0.505133	0.116836	-0.383409	-0.005729	0.010566	-0.022283
270	1.388610	0.005000	1.124235	-9.494144	-0.119656	-0.504908	0.116949	-0.385678	-0.009718	0.011248	-0.010222
271	1.393610	0.005000	1.137960	-9.378360	-0.196200	-0.504682	0.117062	-0.387947	-0.014494	0.023058	-0.020917
272	1.398610	0.005000	1.161720	-9.441360	-0.148679	-0.504456	0.117175	-0.390217	-0.007862	0.017426	-0.000483
273	1.403610	0.005000	1.223055	-9.463455	-0.202815	-0.504230	0.117288	-0.392486	-0.020275	0.024931	-0.027448
274	1.408610	0.005000	1.273015	-9.478745	-0.196200	-0.504004	0.117400	-0.394755	-0.013782	0.016540	-0.019376
275	1.413610	0.005000	1.134917	-9.535320	-0.193157	-0.503779	0.117513	-0.397024	-0.011246	0.014373	-0.002155
276	1.418610	0.005000	1.198981	-9.496080	-0.175860	-0.503553	0.117626	-0.399294	-0.021589	0.022108	-0.019429
277	1.423610	0.005000	1.216440	-9.554638	-0.216122	-0.503327	0.117739	-0.401563	-0.014756	0.016700	-0.007877
278	1.428610	0.005000	1.234955	-9.461261	-0.161381	-0.503101	0.117852	-0.403832	-0.014791	0.016072	-0.011297
279	1.433610	0.005000	1.177200	-9.456840	-0.174698	-0.502546	0.118294	-0.405184	-0.018755	0.010235	-0.010047
280	1.438610	0.005000	1.132164	-9.552042	-0.179478	-0.501642	0.119085	-0.405562	-0.019327	0.010225	-0.004923
281	1.443610	0.005000	1.216440	-9.480183	-0.204650	-0.500738	0.119876	-0.405941	-0.015541	0.011808	-0.006580
282	1.448610	0.005000	1.192351	-9.550471	-0.123932	-0.499834	0.120667	-0.406319	-0.015574	0.015883	-0.006113
283	1.453610	0.005000	1.205457	-9.496080	-0.103592	-0.498930	0.121458	-0.406698	-0.007718	0.018688	0.001527
284	1.458610	0.005000	1.124374	-9.560974	-0.158478	-0.498026	0.122249	-0.407077	-0.014749	0.015193	0.002079
285	1.463610	0.005000	1.189764	-9.613800	-0.222876	-0.497122	0.123040	-0.407455	-0.022567	0.017985	-0.017787
286	1.468610	0.005000	1.216440	-9.512238	-0.145419	-0.496218	0.123831	-0.407834	-0.012368	0.011213	-0.004810
287	1.473610	0.005000	1.155902	-9.478138	-0.235440	-0.495314	0.124622	-0.408212	-0.007781	0.013966	-0.009016
288	1.478610	0.005000	1.147937	-9.516033	-0.215487	-0.494410	0.125413	-0.408591	-0.006077	0.017296	-0.021941
289	1.483610	0.005000	1.159292	-9.583514	-0.287058	-0.493506	0.126204	-0.408969	-0.007025	0.002989	0.001637
290	1.488610	0.005000	1.129933	-9.566533	-0.173013	-0.492602	0.126995	-0.409348	-0.008858	0.017355	-0.011045
291	1.493610	0.005000	1.091346	-9.496080	-0.235440	-0.491698	0.127786	-0.409726	0.001644	0.006295	-0.013187
292	1.498610	0.005000	1.098720	-9.535320	-0.235440	-0.490888	0.128483	-0.410210	-0.008757	0.009937	-0.001065
293	1.503610	0.005000	1.098720	-9.535320	-0.297886	-0.490324	0.128935	-0.410967	-0.016105	0.015075	-0.017958
294	1.508610	0.005000	1.093933	-9.540107	-0.132081	-0.489759	0.129387	-0.411723	-0.009436	0.014080	-0.012580
295	1.513610	0.005000	1.177200	-9.507373	-0.270916	-0.489194	0.129839	-0.412480	-0.003680	0.017608	-0.017533
296	1.518610	0.005000	1.101462	-9.540804	-0.238182	-0.488629	0.130291	-0.413237	-0.021659	0.026697	-0.012123
297	1.523610	0.005000	1.252198	-9.538802	-0.158701	-0.488064	0.130742	-0.413994	-0.014909	0.022082	-0.014163
298	1.528610	0.005000	1.061835	-9.614977	-0.038063	-0.487500	0.131194	-0.414751	-0.009389	0.017727	-0.004910
299	1.533610	0.005000	1.059945	-9.574560	-0.156650	-0.486935	0.131646	-0.415507	-0.017723	0.013031	-0.011523
300	1.538610	0.005000	1.100455	-9.612932	-0.193597	-0.486370	0.132098	-0.416264	-0.016128	0.009288	-0.013548
301	1.543610	0.005000	1.172971	-9.501719	-0.199019	-0.485805	0.132549	-0.417021	-0.005189	0.009549	-0.012754
302	1.548610	0.005000	1.137960	-9.537752	-0.159392	-0.485241	0.133001	-0.417778	-0.008316	0.018196	-0.021625
303	1.553610	0.005000	1.177200	-9.459851	-0.313920	-0.484676	0.133453	-0.418534	-0.008640	0.009558	-0.011745
304	1.558610	0.005000	1.137960	-9.429590	-0.321914	-0.484111	0.133905	-0.419291	-0.000800	0.017756	-0.013250
305	1.563610	0.005000	1.216440	-9.540339	-0.182056	-0.483568	0.134335	-0.419984	-0.007003	0.027523	-0.019921
306	1.568610	0.005000	1.222084	-9.608156	-0.123364	-0.483342	0.134448	-0.419732	0.005328	0.013542	-0.014763
307	1.573610	0.005000	1.255680	-9.574560	-0.183001	-0.483116	0.134561	-0.419480	-0.016151	0.013200	-0.020102
308	1.578610	0.005000	1.153204	-9.535320	-0.220196	-0.482890	0.134674	-0.419228	-0.012361	0.004351	-0.013613
309	1.583610	0.005000	1.154490	-9.527055	-0.336630	-0.482665	0.134787	-0.418976	-0.001175	0.019557	-0.004220
310	1.588610	0.005000	1.068666	-9.634667	-0.244626	-0.482439	0.134900	-0.418723	-0.007044	0.012409	-0.017424
311	1.593610	0.005000	1.206591	-9.545169	-0.127569	-0.482213	0.135013	-0.418471	-0.008543	0.017839	-0.018330
312	1.598610	0.005000	1.255680	-9.574560	-0.156960	-0.481987	0.135126	-0.418219	-0.014311	0.014224	-0.016031
313	1.603610	0.005000	1.122267	-9.519627	-0.290373	-0.481761	0.135239	-0.417967	-0.013912	0.010078	-0.014080
314	1.608610	0.005000	1.113002	-9.496080	-0.288962	-0.481536	0.135352	-0.417715	-0.014911	0.021730	-0.015407
315	1.613610	0.005000	1.176425	-9.587124	-0.326484	-0.481310	0.135464	-0.417463	-0.010813	0.015577	-0.015151
316	1.618610	0.005000	1.177200	-9.613800	-0.278522	-0.481084	0.135577	-0.417211	-0.011639	0.022940	-0.008748
317	1.623610	0.005000	1.105629	-9.605326	-0.220057	-0.480858	0.135690	-0.416959	-0.010821	0.014105	-0.018018
318	1.628610	0.005000	1.177200	-9.542678	-0.133661	-0.480632	0.135803	-0.416707	-0.006179	0.012623	-0.011805
319	1.633610	0.005000	1.182514	-9.540634	-0.123034	-0.480883	0.135916	-0.416242	0.001142	0.025775	-0.020609
320	1.638610	0.005000	1.177200	-9.553042	-0.196200	-0.481222	0.136029	-0.415737	0.003634	0.013846	-0.011767
321	1.643610	0.005000	1.098720	-9.516792	-0.134064	-0.481560	0.136142	-0.415233	-0.019004	0.014916	-0.008591
322	1.648610	0.005000	1.079170	-9.515491	-0.215890	-0.481899	0.136255	-0.414728	-0.016538	0.018024	-0.017754
323	1.653610	0.005000	1.097775	-9.437692	-0.197145	-0.482238	0.136368	-0.414224	-0.009095	0.007858	-0.008864
324	1.658610	0.005000	1.180190	-9.550455	-0.156960	-0.482577	0.136481	-0.413719	-0.016543	0.018604	-0.024807
325	1.663610	0.005000	1.137960	-9.591868	-0.169643	-0.482916	0.136594	-0.413214	-0.015560	0.009156	-0.016051
326	1.668610	0.005000	1.232991	-9.529183	-0.218889	-0.483255	0.136707	-0.412710	-0.015249	0.006392	-0.018726
327	1.673610	0.005000	1.161662	-9.527946	-0.211738	-0.483594	0.136819	-0.412205	-0.014820	0.009836	-0.017524
328	1.678610	0.005000	1.177200	-9.456840	-0.166821	-0.483933	0.136932	-0.411701	-0.020233	0.016962	-0.019548
329	1.683610	0.005000	1.179834	-9.549278	-0.089804	-0.484272	0.137045	-0.411196	-0.022535	0.013439	-0.014327
330	1.688610	0.005000	1.269049	-9.600431	-0.038806	-0.484610	0.137158	-0.410692	-0.027557	0.007229	-0.004039
331	1.693610	0.005000	1.231559	-9.589679	-0.169021	-0.484949	0.137271	-0.410187	-0.012683	0.014355	-0.014109
332	1.698610	0.005000	1.121462	-9.529077	-0.179702	-0.484862	0.137029	-0.410079	-0.010175	0.004715	-0.009870
333	1.703610	0.005000	1.109068	-9.564212	-0.264332	-0.484523	0.136577	-0.410206	-0.018662	0.019891	-0.015625
334	1.708610	0.005000	1.098720	-9.535320	-0.166766	-0.484184	0.136125	-0.410332	-0.012177	0.017350	-0.020537
335	1.713610	0.005000	1.164311	-9.583344	-0.187416	-0.483845	0.135673	-0.410458	-0.002705	0.008666	-0.005908
336	1.718610	0.005000	1.145721	-9.597844	-0.125481	-0.483506	0.135222	-0.410584	0.003654	0.018787	-0.011210
337	1.723610	0.005000	1.184022	-9.567738	-0.196200	-0.483167	0.134770	-0.410710	0.000007	0.011400	-0.010794
338	1.728610	0.005000	1.249483	-9.483687	-0.117720	-0.482829	0.134318	-0.410836	-0.009048	0.013639	-0.011138
339	1.733610	0.005000	1.284572	-9.506428	-0.117720	-0.482490	0.133866	-0.410962	-0.007306	0.016356	-0.014184
340	1.738610	0.005000	1.142576	-9.579176	-0.182351	-0.482151	0.133415	-0.411089	-0.008338	0.013969	-0.017461
341	1.743610	0.005000	1.141554	-9.531726	-0.189012	-0.481812	0.132963	-0.411215	-0.005857	0.008341	-0.013932
342	1.748610	0.005000	1.137960	-9.459412	-0.083623	-0.481473	0.132511	-0.411341	-0.012639	0.012213	-0.002343
343	1.753610	0.005000	1.177200	-9.527202	-0.192141	-0.481134	0.132059	-0.411467	-0.004142	0.015151	-0.014362
344	1.758610	0.005000	1.177200	-9.343148	-0.119734	-0.480795	0.131607	-0.411593	-0.003896	0.007214	-0.013515
345	1.763610	0.005000	1.216425	-9.496080	-0.156975	-0.480691	0.131249	-0.411876	-0.022002	0.021659	-0.019383
346	1.768610	0.005000	1.137960	-9.613800	-0.118849	-0.480917	0.131023	-0.412381	-0.018251	0.023409	-0.009458
347	1.773610	0.005000	1.139540	-9.460000	-0.194620	-0.481142	0.130798	-0.412885	-0.001831	0.017749	-0.003868
348	1.778610	0.005000	1.253077	-9.496080	-0.193597	-0.481368	0.130572	-0.413390	-0.009158	0.018523	-0.019422
349	1.783610	0.005000	1.141106	-9.646748	-0.199346	-0.481594	0.130346	-0.413894	0.000040	0.006399	-0.009560
350	1.788610	0.005000	1.177200	-9.591229	-0.051742	-0.481820	0.130120	-0.414399	-0.004067	0.017584	-0.008319
351	1.793610	0.005000	1.167637	-9.544883	-0.068917	-0.482046	0.129894	-0.414903	-0.012345	0.013910	-0.017783
352	1.798610	0.005000	1.204945	-9.546815	-0.162707	-0.482272	0.129668	-0.415408	-0.001957	0.018788	-0.009038
353	1.803610	0.005000	1.236749	-9.489310	-0.170500	-0.482498	0.129442	-0.415912	-0.011927	0.022130	-0.009815
354	1.808610	0.005000	1.216440	-9.574560	-0.100416	-0.482724	0.129216	-0.416416	-0.018727	0.019756	-0.016583
355	1.813610	0.005000	1.053578	-9.504414	-0.202102	-0.482950	0.128990	-0.416921	-0.006456	0.020227	-0.016736
356	1.818610	0.005000	1.128973	-9.583547	-0.235440	-0.483176	0.128764	-0.417425	0.004456	0.011849	0.004732
357	1.823610	0.005000	1.245781	-9.564661	-0.264781	-0.483401	0.128539	-0.417930	0.001316	0.019576	-0.013055
358	1.828610	0.005000	1.238283	-9.563638	-0.196200	-0.483537	0.128449	-0.418156	-0.005122	0.018666	-0.014198
359	1.833610	0.005000	1.161848	-9.535320	-0.168904	-0.483311	0.128901	-0.417273	-0.014036	0.020487	-0.012040
360	1.838610	0.005000	1.243178	-9.537055	-0.169462	-0.483085	0.129352	-0.416390	-0.016834	0.021377	-0.027055
361	1.843610	0.005000	1.151469	-9.574560	-0.170469	-0.482859	0.129804	-0.415507	0.001026	0.010648	-0.005612
362	1.848610	0.005000	1.137960	-9.524550	-0.181965	-0.482633	0.130256	-0.414624	-0.009363	0.023878	-0.015097
363	1.853610	0.005000	1.128897	-9.535320	-0.181111	-0.482407	0.130708	-0.413742	-0.018568	0.008762	-0.019500
364	1.858610	0.005000	1.098720	-9.574560	-0.103685	-0.482181	0.131159	-0.412859	-0.010357	0.014804	-0.017466
365	1.863610	0.005000	1.182721	-9.574560	-0.078480	-0.481955	0.131611	-0.411976	-0.017339	0.022009	-0.020549
366	1.868610	0.005000	1.259568	-9.496080	-0.174636	-0.481729	0.132063	-0.411093	-0.020789	0.019975	-0.015989
367	1.873610	0.005000	1.195898	-9.632498	-0.177502	-0.481504	0.132515	-0.410210	-0.022896	0.020779	-0.021262
368	1.878610	0.005000	1.157721	-9.554799	-0.196200	-0.481278	0.132967	-0.409327	-0.011671	0.012763	-0.007998
369	1.883610	0.005000	1.217726	-9.593537	-0.175937	-0.481052	0.133418	-0.408445	-0.009488	0.014966	-0.011660
370	1.888610	0.005000	1.201816	-9.559936	-0.156960	-0.480826	0.133870	-0.407562	-0.006834	0.014073	-0.028390
371	1.893610	0.005000	1.181646	-9.500526	-0.174357	-0.480600	0.134322	-0.406679	-0.010986	0.010987	-0.013744
372	1.898610	0.005000	1.183660	-9.417600	-0.150500	-0.481265	0.133660	-0.406418	-0.004147	0.012928	-0.025782
373	1.903610	0.005000	1.209577	-9.535320	-0.102352	-0.481943	0.132982	-0.406166	-0.005852	0.008698	-0.009500
374	1.908610	0.005000	1.201923	-9.456840	-0.142443	-0.482620	0.132305	-0.405914	-0.016979	0.024129	-0.018340
375	1.913610	0.005000	1.047815	-9.456840	-0.170747	-0.483297	0.131628	-0.405662	-0.004398	0.016615	-0.012950
376	1.918610	0.005000	1.085010	-9.548085	-0.235440	-0.483975	0.130950	-0.405409	-0.004679	0.015609	-0.012477
377	1.923610	0.005000	1.134384	-9.598336	-0.219976	-0.484652	0.130273	-0.405157	-0.010500	0.021024	-0.016614
378	1.928610	0.005000	1.216440	-9.641840	-0.156960	-0.485330	0.129595	-0.404905	-0.000370	0.007248	-0.004862
379	1.933610	0.005000	1.236796	-9.584738	-0.167138	-0.486007	0.128918	-0.404653	-0.015551	0.019527	-0.019476
380	1.938610	0.005000	1.216440	-9.584893	-0.186564	-0.486684	0.128241	-0.404401	-0.012225	0.015890	-0.014919
381	1.943610	0.005000	1.216440	-9.579347	-0.218213	-0.487362	0.127563	-0.404148	0.001046	0.011485	-0.013771
382	1.948610	0.005000	1.287238	-9.456840	-0.133084	-0.488039	0.126886	-0.403896	-0.010255	0.018495	-0.033247
383	1.953610	0.005000	1.280848	-9.542356	-0.110684	-0.488716	0.126209	-0.403644	-0.013296	0.012660	-0.001260
384	1.958610	0.005000	1.204388	-9.574560	-0.202226	-0.489394	0.125531	-0.403392	0.001453	0.020363	-0.013630
385	1.963610	0.005000	1.093656	-9.613800	-0.235440	-0.489033	0.125979	-0.404203	-0.013751	0.011301	-0.014574
386	1.968610	0.005000	1.142406	-9.574560	-0.161406	-0.488355	0.126770	-0.405338	-0.010855	0.019827	-0.020655
387	1.973610	0.005000	1.213016	-9.528473	-0.225169	-0.487677	0.127560	-0.406473	-0.007362	0.012297	-0.007918
388	1.978610	0.005000	1.184404	-9.459241	-0.235440	-0.487000	0.128351	-0.407608	-0.010106	0.009539	-0.013291
389	1.983610	0.005000	1.289343	-9.610082	-0.194341	-0.486322	0.129142	-0.408744	-0.011630	0.014024	-0.022577
390	1.988610	0.005000	1.097047	-9.496080	-0.118557	-0.485644	0.129932	-0.409879	-0.005005	0.013437	-0.012073
391	1.993610	0.005000	1.098348	-9.613242	-0.117906	-0.484966	0.130723	-0.411014	-0.013977	0.017035	-0.016915
392	1.998610	0.005000	1.175726	-9.537531	-0.235440	-0.484289	0.131514	-0.412149	-0.011727	0.009156	-0.012899
393	2.003610	0.005000	1.211188	-9.533569	-0.231939	-0.483611	0.132304	-0.413284	-0.011588	0.011941	-0.011922
394	2.008610	0.005000	1.146279	-9.608254	-0.308374	-0.482933	0.133095	-0.414419	-0.007172	0.022297	-0.015147
395	2.013610	0.005000	1.173405	-9.539115	-0.203791	-0.482256	0.133886	-0.415555	-0.002005	0.010393	-0.012566
396	2.018610	0.005000	1.177200	-9.461178	-0.313920	-0.481578	0.134676	-0.416690	-0.000033	0.012396	-0.013117
397	2.023610	0.005000	1.132600	-9.574560	-0.196200	-0.480900	0.135467	-0.417825	-0.010075	0.007349	-0.007763
398	2.028610	0.005000	1.098720	-9.541703	-0.124103	-0.480597	0.135696	-0.417915	0.001764	0.015481	-0.013938
399	2.033610	0.005000	1.130937	-9.574560	-0.235440	-0.480597	0.135470	-0.417158	0.000043	0.010554	-0.017915
400	2.038610	0.005000	1.137960	-9.605837	-0.243403	-0.480597	0.135244	-0.416401	-0.006060	0.008541	-0.016092
401	2.043610	0.005000	1.146930	-9.662010	-0.274680	-0.480597	0.135019	-0.415645	0.000680	0.010422	-0.020664
402	2.048610	0.005000	1.177200	-9.662567	-0.265153	-0.480597	0.134793	-0.414888	-0.008704	0.011922	-0.004078
403	2.053610	0.005000	1.137960	-9.459799	-0.224890	-0.480597	0.134567	-0.414131	-0.008089	0.021297	-0.021519
404	2.058610	0.005000	1.311016	-9.523748	-0.219344	-0.480597	0.134341	-0.413374	-0.005925	0.006590	-0.012506
405	2.063610	0.005000	1.228554	-9.574560	-0.208314	-0.480597	0.134115	-0.412618	-0.011606	0.011747	-0.020942
406	2.068610	0.005000	1.203303	-9.561423	-0.130686	-0.480597	0.133889	-0.411861	-0.014649	0.023128	-0.018733
407	2.073610	0.005000	1.216440	-9.563638	-0.210359	-0.480597	0.133663	-0.411104	-0.005253	0.013789	-0.004992
408	2.078610	0.005000	1.105025	-9.478327	-0.165837	-0.480597	0.133437	-0.410347	-0.006160	0.020100	-0.019221
409	2.083610	0.005000	1.082996	-9.566628	-0.133444	-0.480597	0.133211	-0.409591	-0.003978	0.001865	-0.013769
410	2.088610	0.005000	1.154706	-9.473586	-0.224441	-0.480597	0.132985	-0.408834	-0.007603	0.023058	-0.011319
411	2.093610	0.005000	1.134258	-9.496080	-0.253209	-0.480597	0.132836	-0.408376	-0.012743	0.017570	-0.014828
412	2.098610	0.005000	1.234758	-9.517002	-0.235440	-0.480597	0.132836	-0.408502	-0.004584	0.008390	-0.003126
413	2.103610	0.005000	1.157293	-9.456840	-0.254773	-0.480597	0.132836	-0.408628	-0.010754	0.016531	-0.019555
414	2.108610	0.005000	1.196084	-9.532377	-0.196200	-0.480597	0.132836	-0.408754	-0.005197	0.011611	-0.020827
415	2.113610	0.005000	1.158874	-9.459427	-0.240614	-0.480597	0.132836	-0.408880	-0.001691	0.006514	-0.011606
416	2.118610	0.005000	1.164528	-9.626472	-0.183528	-0.480597	0.132836	-0.409006	-0.014833	0.007399	-0.004059
417	2.123610	0.005000	1.082237	-9.591043	-0.134203	-0.480597	0.132836	-0.409133	-0.014189	0.012948	-0.007090
418	2.128610	0.005000	1.090959	-9.433339	-0.094219	-0.480597	0.132836	-0.409259	-0.016280	0.010354	-0.012981
419	2.133610	0.005000	1.152677	-9.486274	-0.181483	-0.480597	0.132836	-0.409385	-0.019676	0.010294	-0.006395
420	2.138610	0.005000	1.163506	-9.417600	-0.235440	-0.480597	0.132836	-0.409511	-0.014533	0.019610	-0.015400
421	2.143610	0.005000	1.111655	-9.417600	-0.287832	-0.480597	0.132836	-0.409637	-0.008682	0.009848	-0.009748
422	2.148610	0.005000	1.071610	-9.498930	-0.184070	-0.480597	0.132836	-0.409763	-0.019543	0.025022	-0.009920
423	2.153610	0.005000	1.048239	-9.496080	-0.168201	-0.480597	0.132836	-0.409889	-0.006169	0.013601	-0.020527
424	2.158610	0.005000	1.012696	-9.506645	-0.203744	-0.480583	0.132850	-0.410063	0.000297	0.011884	-0.001714
425	2.163610	0.005000	1.137960	-9.486537	-0.166503	-0.480470	0.132963	-0.410567	-0.016877	0.023780	-0.013161
426	2.168610	0.005000	1.194241	-9.543840	-0.078480	-0.480357	0.133076	-0.411072	-0.003464	0.018847	-0.009986
427	2.173610	0.005000	1.145548	-9.574560	-0.196200	-0.480244	0.133189	-0.411576	-0.014064	0.023267	-0.016822
428	2.178610	0.005000	1.241800	-9.535320	-0.249320	-0.480131	0.133302	-0.412081	-0.005410	0.018812	-0.016518
429	2.183610	0.005000	1.116480	-9.607880	-0.302080	-0.480018	0.133415	-0.412585	-0.006342	0.015061	-0.011201
430	2.188610	0.005000	1.216440	-9.603049	-0.196200	-0.479905	0.133527	-0.413090	-0.010315	0.013960	-0.018511
431	2.193610	0.005000	1.142313	-9.570207	-0.104661	-0.479792	0.133640	-0.413594	-0.014524	0.012986	-0.011344
432	2.198610	0.005000	1.213109	-9.571229	-0.202861	-0.479679	0.133753	-0.414099	-0.018073	0.014050	-0.023256
433	2.203610	0.005000	1.211824	-9.574560	-0.270064	-0.479566	0.133866	-0.414603	-0.016426	0.013872	-0.016830
434	2.208610	0.005000	1.214674	-9.613800	-0.119486	-0.479453	0.133979	-0.415108	-0.010613	0.023800	-0.019217
435	2.213610	0.005000	1.177200	-9.535320	-0.040727	-0.479340	0.134092	-0.415613	-0.011932	0.013449	-0.007446
436	2.218610	0.005000	1.177200	-9.574281	-0.117720	-0.479227	0.134205	-0.416117	-0.007257	0.012101	-0.003279
437	2.223610	0.005000	1.178501	-9.612499	-0.236741	-0.479114	0.134318	-0.416622	-0.006907	0.018637	-0.010910
438	2.228610	0.005000	1.210910	-9.611957	-0.237283	-0.479310	0.134431	-0.416552	-0.013136	-0.002053	-0.007223
439	2.233610	0.005000	1.292054	-9.650174	-0.241172	-0.479535	0.134544	-0.416426	-0.021954	0.018885	-0.018314
440	2.238610	0.005000	1.181088	-9.621577	-0.270792	-0.479761	0.134657	-0.416300	-0.011651	0.010433	-0.015282
441	2.243610	0.005000	1.181632	-9.657472	-0.161392	-0.479987	0.134770	-0.416174	-0.012241	0.017783	-0.012407
442	2.248610	0.005000	1.205534	-9.580013	-0.039240	-0.480213	0.134883	-0.416048	-0.019386	0.018757	-0.027058
443	2.253610	0.005000	1.116968	-9.469005	-0.156960	-0.480439	0.134995	-0.415922	-0.007653	0.012833	-0.014209
444	2.258610	0.005000	1.130927	-9.496080	-0.182134	-0.480665	0.135108	-0.415796	-0.012965	0.015647	-0.012439
445	2.263610	0.005000	1.200329	-9.558449	-0.156960	-0.480891	0.135221	-0.415670	-0.009868	0.023518	-0.026627
446	2.268610	0.005000	1.185798	-9.543918	-0.187602	-0.481116	0.135334	-0.415543	-0.006204	0.013188	-0.017473
447	2.273610	0.005000	1.217199	-9.584180	-0.166580	-0.481342	0.135447	-0.415417	-0.016441	0.012253	-0.009966
448	2.278610	0.005000	1.137960	-9.545963	-0.285323	-0.481568	0.135560	-0.415291	-0.004946	0.015064	-0.007972
449	2.283610	0.005000	1.042610	-9.456840	-0.207385	-0.481794	0.135673	-0.415165	-0.014004	0.014228	-0.025214
450	2.288610	0.005000	1.071687	-9.523113	-0.262473	-0.482020	0.135786	-0.415039	-0.017077	0.013877	-0.009309
451	2.293610	0.005000	1.176751	-9.561330	-0.091710	-0.483726	0.134574	-0.413434	-0.018303	0.013582	-0.016748
452	2.298610	0.005000	1.151747	-9.627587	-0.207865	-0.486098	0.132767	-0.411164	-0.006720	0.005688	-0.020152
453	2.303610	0.005000	1.152754	-9.638246	-0.220646	-0.488470	0.130960	-0.408893	-0.017371	0.016779	-0.010336
454	2.308610	0.005000	1.114256	-9.559024	-0.204368	-0.490842	0.129153	-0.406623	-0.019956	0.016434	-0.018197
455	2.313610	0.005000	1.121585	-9.535320	-0.196200	-0.493214	0.127345	-0.404353	-0.011290	0.008912	-0.003577
456	2.318610	0.005000	1.260126	-9.535320	-0.191754	-0.495586	0.125538	-0.402083	-0.013799	0.016907	-0.012062
457	2.323610	0.005000	1.177200	-9.553481	-0.235440	-0.497958	0.123731	-0.399812	-0.001382	0.006690	-0.012162
458	2.328610	0.005000	1.197478	-9.594838	-0.257035	-0.500330	0.121924	-0.397542	-0.006725	0.011469	-0.013236
459	2.333610	0.005000	1.235696	-9.515336	-0.196928	-0.502701	0.120117	-0.395272	-0.008931	0.014573	-0.015417
460	2.338610	0.005000	1.214627	-9.516606	-0.115907	-0.505073	0.118309	-0.393001	0.004585	0.009535	-0.013104
461	2.343610	0.005000	1.194891	-9.531463	-0.217749	-0.507445	0.116502	-0.390731	-0.009312	0.017829	-0.010913
462	2.348610	0.005000	1.199771	-9.529418	-0.179531	-0.509817	0.114695	-0.388461	-0.009774	0.012972	-0.005096
463	2.353610	0.005000	1.177200	-9.629911	-0.283774	-0.512189	0.112888	-0.386191	-0.003735	0.012281	-0.012163
464	2.358610	0.005000	1.222513	-9.646967	-0.344128	-0.512734	0.112047	-0.385660	-0.001205	0.015158	-0.019097
465	2.363610	0.005000	1.241598	-9.613800	-0.235440	-0.511265	0.112273	-0.387048	-0.010545	0.021733	-0.019820
466	2.368610	0.005000	1.320944	-9.561344	-0.261464	-0.509796	0.112499	-0.388436	-0.012246	0.023388	-0.022166
467	2.373610	0.005000	1.164698	-9.456840	-0.144458	-0.508327	0.112725	-0.389824	-0.007514	0.010507	-0.008567
468	2.378610	0.005000	1.126481	-9.535320	-0.117720	-0.506858	0.112951	-0.391212	-0.006831	0.017048	-0.013801
469	2.383610	0.005000	1.098720	-9.535320	-0.217373	-0.505389	0.113177	-0.392600	-0.002885	0.013125	-0.009019
470	2.388610	0.005000	1.059480	-9.564645	-0.254851	-0.503920	0.113403	-0.393988	-0.013493	0.013703	-0.022189
471	2.393610	0.005000	1.137960	-9.544212	-0.117720	-0.502451	0.113629	-0.395376	-0.008808	0.025036	-0.014808
472	2.398610	0.005000	1.199740	-9.552020	-0.126070	-0.500982	0.113855	-0.396764	-0.000440	0.008653	-0.004921
473	2.403610	0.005000	1.152615	-9.535320	-0.196200	-0.499513	0.114081	-0.398152	-0.002884	0.020692	-0.006922
474	2.408610	0.005000	1.092415	-9.496080	-0.202505	-0.498044	0.114307	-0.399540	-0.009130	0.014901	-0.008616
475	2.413610	0.005000	1.075524	-9.597756	-0.162308	-0.496575	0.114533	-0.400928	-0.001896	0.011889	-0.003681
476	2.418610	0.005000	1.103460	-9.565079	-0.175922	-0.495106	0.114759	-0.402316	-0.015295	0.015967	-0.011510
477	2.423610	0.005000	1.184636	-9.503516	-0.306484	-0.494000	0.115106	-0.403569	-0.010085	0.008852	-0.003078
478	2.428610	0.005000	1.132569	-9.467622	-0.277376	-0.493887	0.115784	-0.404452	-0.014608	0.014470	-0.021613
479	2.433610	0.005000	1.065893	-9.607387	-0.194062	-0.493774	0.116462	-0.405335	-0.011909	0.005652	-0.014047
480	2.438610	0.005000	1.178315	-9.533089	-0.196200	-0.493661	0.117140	-0.406218	-0.010424	0.009534	-0.018729
481	2.443610	0.005000	1.216533	-9.496266	-0.117534	-0.493548	0.117817	-0.407101	-0.009423	0.012436	-0.012017
482	2.448610	0.005000	1.217354	-9.497908	-0.077566	-0.493435	0.118495	-0.407984	-0.008777	0.016232	-0.011544
483	2.453610	0.005000	1.100192	-9.573088	-0.079952	-0.493322	0.119173	-0.408867	-0.001402	0.010241	-0.016624
484	2.458610	0.005000	1.216440	-9.613800	-0.122708	-0.493209	0.119851	-0.409750	-0.010155	0.014338	-0.016569
485	2.463610	0.005000	1.216440	-9.542353	-0.121237	-0.493096	0.120528	-0.410633	-0.017401	0.025896	-0.026192
486	2.468610	0.005000	1.137960	-9.605582	-0.169287	-0.492983	0.121206	-0.411516	-0.007848	0.003173	-0.012523
487	2.473610	0.005000	1.221521	-9.579641	-0.127882	-0.492870	0.121884	-0.412399	-0.009040	0.008227	-0.021047
488	2.478610	0.005000	1.216440	-9.586767	-0.117720	-0.492757	0.122562	-0.413281	-0.013473	0.016211	-0.017320
489	2.483610	0.005000	1.353215	-9.431056	-0.182744	-0.492644	0.123240	-0.414164	-0.007109	0.013437	-0.011052
490	2.488610	0.005000	1.310257	-9.598463	-0.180863	-0.492507	0.123917	-0.415014	-0.020990	0.018965	-0.020459
491	2.493610	0.005000	1.194581	-9.653040	-0.274680	-0.491942	0.124595	-0.415266	-0.010976	0.008512	-0.009312
492	2.498610	0.005000	1.216440	-9.653040	-0.244688	-0.491377	0.125273	-0.415518	-0.008422	0.017651	-0.012773
493	2.503610	0.005000	1.206181	-9.584819	-0.146701	-0.490813	0.125950	-0.415770	-0.014962	0.019802	-0.014291
494	2.508610	0.005000	1.127017	-9.574560	-0.139605	-0.490248	0.126628	-0.416022	-0.011390	0.012090	-0.004771
495	2.513610	0.005000	1.180933	-9.613800	-0.090316	-0.489683	0.127306	-0.416275	-0.011080	0.005888	-0.009954
496	2.518610	0.005000	1.177200	-9.548844	-0.104862	-0.489119	0.127983	-0.416527	-0.004836	0.010334	-0.012980
497	2.523610	0.005000	1.150400	-9.535320	-0.196200	-0.488554	0.128661	-0.416779	-0.009799	0.014636	-0.021568
498	2.528610	0.005000	1.191623	-9.574560	-0.206595	-0.487989	0.129339	-0.417031	-0.010332	-0.001161	-0.005255
499	2.533610	0.005000	1.144171	-9.598650	-0.148020	-0.487424	0.130016	-0.417284	-0.013588	0.022742	-0.012836
500	2.538610	0.005000	1.153947	-9.613800	-0.149694	-0.486860	0.130694	-0.417536	-0.016445	0.013649	-0.011206
501	2.543610	0.005000	1.260901	-9.540541	-0.139950	-0.486295	0.131372	-0.417788	-0.018653	0.007824	-0.006147
502	2.548610	0.005000	1.276888	-9.538496	-0.235440	-0.485730	0.132049	-0.418040	-0.028981	0.018251	-0.023541
503	2.553610	0.005000	1.311449	-9.535320	-0.256090	-0.485166	0.132727	-0.418292	-0.018498	0.000068	-0.014868
504	2.558610	0.005000	1.177169	-9.515715	-0.156929	-0.484885	0.132931	-0.418439	-0.015653	0.006700	-0.013943
505	2.563610	0.005000	1.196044	-9.514924	-0.232336	-0.484659	0.133044	-0.418565	-0.022915	0.012206	-0.012477
506	2.568610	0.005000	1.177200	-9.550269	-0.259731	-0.484434	0.133157	-0.418691	-0.010790	0.006855	-0.003625
507	2.573610	0.005000	1.199399	-9.557519	-0.174001	-0.484208	0.133270	-0.418817	-0.014893	0.012495	-0.011782
508	2.578610	0.005000	1.209633	-9.535320	-0.251657	-0.483982	0.133382	-0.418944	-0.012702	0.010318	-0.016903
509	2.583610	0.005000	1.233016	-9.449652	-0.228252	-0.483756	0.133495	-0.419070	-0.013307	0.020071	-0.029018
510	2.588610	0.005000	1.137960	-9.485747	-0.235440	-0.483530	0.133608	-0.419196	-0.003002	0.007635	-0.021316
511	2.593610	0.005000	1.140454	-9.535320	-0.196200	-0.483304	0.133721	-0.419322	0.001762	0.019940	-0.012991
512	2.598610	0.005000	1.203551	-9.613800	-0.169849	-0.483078	0.133834	-0.419448	-0.002499	0.017761	-0.017901
513	2.603610	0.005000	1.258894	-9.553756	-0.196200	-0.482852	0.133947	-0.419574	0.003147	0.005813	-0.010402
514	2.608610	0.005000	1.194087	-9.529609	-0.235440	-0.482626	0.134060	-0.419700	-0.009453	0.015343	-0.025337
515	2.613610	0.005000	1.148246	-9.584846	-0.206486	-0.482401	0.134173	-0.419827	-0.003521	0.009456	-0.008515
516	2.618610	0.005000	1.195759	-9.613800	-0.226161	-0.482175	0.134286	-0.419953	-0.006326	0.020173	-0.013715
517	2.623610	0.005000	1.216440	-9.666115	-0.213643	-0.482019	0.133268	-0.419448	-0.012406	0.013331	-0.017688
518	2.628610	0.005000	1.255680	-9.511479	-0.274680	-0.481906	0.131574	-0.418565	-0.002778	0.015152	-0.001288
519	2.633610	0.005000	1.216440	-9.509599	-0.196200	-0.481793	0.129880	-0.417682	-0.014769	0.016744	-0.018813
520	2.638610	0.005000	1.171065	-9.568425	-0.235440	-0.481680	0.128186	-0.416799	-0.003890	0.004922	-0.013494
521	2.643610	0.005000	1.172088	-9.461952	-0.230328	-0.481567	0.126491	-0.415916	-0.002350	0.020845	-0.007271
522	2.648610	0.005000	1.181290	-9.574560	-0.231350	-0.481454	0.124797	-0.415033	-0.007081	0.016996	-0.003757
523	2.653610	0.005000	1.177200	-9.610252	-0.089123	-0.481341	0.123103	-0.414150	-0.002457	0.011260	-0.008533
524	2.658610	0.005000	1.182250	-9.535320	-0.269630	-0.481228	0.121409	-0.413267	-0.001333	0.016967	-0.011190
525	2.663610	0.005000	1.178703	-9.574560	-0.235440	-0.481115	0.119715	-0.412385	0.005058	0.016436	-0.013439
526	2.668610	0.005000	1.254735	-9.533430	-0.116775	-0.481002	0.118020	-0.411502	0.002394	0.022370	-0.014212
527	2.673610	0.005000	1.255603	-9.496003	-0.039317	-0.480889	0.116326	-0.410619	0.000792	0.016117	-0.002574
528	2.678610	0.005000	1.139044	-9.534236	-0.118804	-0.480777	0.114632	-0.409736	-0.001971	0.021532	-0.022372
529	2.683610	0.005000	1.100362	-9.535320	-0.117720	-0.480664	0.112938	-0.408853	0.002183	0.005101	-0.011427
530	2.688610	0.005000	1.064809	-9.537985	-0.159625	-0.480504	0.112033	-0.408385	-0.006963	0.013520	0.000564
531	2.693610	0.005000	1.210027	-9.492873	-0.192993	-0.480278	0.112259	-0.408511	-0.010022	0.017381	-0.011635
532	2.698610	0.005000	1.102949	-9.613800	-0.152731	-0.480052	0.112485	-0.408637	-0.006928	0.004270	-0.003761
533	2.703610	0.005000	1.054228	-9.428103	-0.258925	-0.479826	0.112711	-0.408763	-0.008186	0.016848	-0.012143
534	2.708610	0.005000	1.199059	-9.401535	-0.235440	-0.479601	0.112936	-0.408889	-0.002104	0.018666	-0.010550
535	2.713610	0.005000	1.248864	-9.456840	-0.332711	-0.479375	0.113162	-0.409016	-0.001218	0.015818	-0.015958
536	2.718610	0.005000	1.137960	-9.480403	-0.235440	-0.479149	0.113388	-0.409142	-0.005858	0.012846	-0.010452
537	2.723610	0.005000	1.199647	-9.417600	-0.165356	-0.478923	0.113614	-0.409268	-0.004431	0.000844	-0.003049
538	2.728610	0.005000	1.078318	-9.496080	-0.216602	-0.478697	0.113840	-0.409394	-0.007072	0.008380	-0.012570
539	2.733610	0.005000	1.098720	-9.506160	-0.206280	-0.478471	0.114066	-0.409520	-0.003731	0.009141	-0.007177
540	2.738610	0.005000	1.148943	-9.524337	-0.139687	-0.478245	0.114292	-0.409646	-0.009555	0.015147	-0.011733
541	2.743610	0.005000	1.177200	-9.487296	-0.172188	-0.478019	0.114518	-0.409773	0.002596	0.008667	-0.013211
542	2.748610	0.005000	1.136831	-9.534191	-0.117720	-0.477793	0.114744	-0.409899	-0.001578	0.009242	-0.009641
543	2.753610	0.005000	1.073051	-9.496080	-0.194728	-0.477657	0.115237	-0.410149	-0.005856	0.014411	-0.019396
544	2.758610	0.005000	1.088666	-9.549913	-0.235440	-0.477882	0.116818	-0.410906	0.001402	0.004701	-0.004500
545	2.763610	0.005000	1.044053	-9.487693	-0.211627	-0.478108	0.118399	-0.411663	-0.002183	0.016728	-0.024692
546	2.768610	0.005000	1.154118	-9.535320	-0.117720	-0.478334	0.119981	-0.412419	0.000638	0.004225	-0.016113
547	2.773610	0.005000	1.093840	-9.557380	-0.044120	-0.478560	0.121562	-0.413176	0.008752	0.008742	-0.015109
548	2.778610	0.005000	1.120010	-9.535320	-0.139010	-0.478786	0.123143	-0.413933	-0.000245	0.016979	-0.025642
549	2.783610	0.005000	1.156720	-9.554080	-0.076760	-0.479012	0.124725	-0.414690	0.018310	0.010078	-0.008892
550	2.788610	0.005000	1.118185	-9.555095	-0.156960	-0.479238	0.126306	-0.415446	0.019234	0.010174	-0.023086
551	2.793610	0.005000	1.156875	-9.516405	-0.177285	-0.479464	0.127887	-0.416203	0.006806	0.005480	-0.013156
552	2.798610	0.005000	1.191638	-9.578015	-0.124629	-0.479690	0.129469	-0.416960	0.016737	0.020086	-0.006449
553	2.803610	0.005000	1.272550	-9.591430	-0.140090	-0.479915	0.131050	-0.417717	0.025372	0.009865	-0.014737
554	2.808610	0.005000	1.239352	-9.646456	-0.150376	-0.480141	0.132631	-0.418474	0.015708	0.008418	-0.021621
555	2.813610	0.005000	1.122654	-9.613800	-0.180894	-0.480367	0.134213	-0.419230	-0.001994	0.010467	-0.024004
556	2.818610	0.005000	1.152243	-9.599517	-0.064197	-0.480593	0.135794	-0.419987	0.000409	0.005028	-0.014228
557	2.823610	0.005000	1.137960	-9.587821	-0.013803	-0.480264	0.135710	-0.419008	0.000895	0.017543	-0.021695
558	2.828610	0.005000	1.110354	-9.509883	-0.130439	-0.479925	0.135597	-0.417999	0.012381	0.001951	-0.008491
559	2.833610	0.005000	1.137960	-9.440992	-0.184504	-0.479586	0.135484	-0.416990	0.006818	0.019854	-0.017194
560	2.838610	0.005000	1.127286	-9.556667	-0.174853	-0.479247	0.135371	-0.415981	0.011418	0.014389	-0.016906
561	2.843610	0.005000	1.225332	-9.593568	-0.175968	-0.478908	0.135258	-0.414972	0.002674	-0.000216	-0.011841
562	2.848610	0.005000	1.216440	-9.505189	-0.078480	-0.478569	0.135145	-0.413963	0.000751	0.007356	-0.025962
563	2.853610	0.005000	1.129873	-9.527233	-0.173133	-0.478231	0.135032	-0.412954	0.013494	0.009484	-0.014363
564	2.858610	0.005000	1.106249	-9.669693	-0.252093	-0.477892	0.134919	-0.411945	0.010566	0.005547	-0.020819
565	2.863610	0.005000	1.190213	-9.528814	-0.202706	-0.477553	0.134806	-0.410936	0.004966	0.010514	-0.017734
566	2.868610	0.005000	1.250196	-9.496080	-0.313920	-0.477214	0.134693	-0.409927	0.012220	0.004984	-0.006356
567	2.873610	0.005000	1.137960	-9.470391	-0.344126	-0.476875	0.134580	-0.408918	0.018232	0.010349	-0.019699
568	2.878610	0.005000	1.024159	-9.535320	-0.278599	-0.476536	0.134467	-0.407909	0.022112	0.002886	-0.020896
569	2.883610	0.005000	1.182994	-9.577457	-0.350263	-0.476197	0.134354	-0.406900	0.031680	0.012958	-0.026400
570	2.888610	0.005000	1.141709	-9.537194	-0.233566	-0.476553	0.134328	-0.407637	0.036660	0.018631	-0.020207
571	2.893610	0.005000	1.253015	-9.613800	-0.274680	-0.477118	0.134328	-0.408898	0.044079	0.019503	-0.020553
572	2.898610	0.005000	1.177510	-9.613180	-0.195890	-0.477683	0.134328	-0.410159	0.044600	0.023887	-0.020166
573	2.903610	0.005000	1.216440	-9.612375	-0.234015	-0.478248	0.134328	-0.411420	0.046144	0.018922	-0.020721
574	2.908610	0.005000	1.215185	-9.612545	-0.198710	-0.478812	0.134328	-0.412682	0.039665	0.020262	-0.026960
575	2.913610	0.005000	1.211885	-9.576837	-0.233163	-0.479377	0.134328	-0.413943	0.056183	0.008906	-0.012314
576	2.918610	0.005000	1.180500	-9.496080	-0.192900	-0.479942	0.134328	-0.415204	0.039285	0.014971	-0.016774
577	2.923610	0.005000	1.177200	-9.609896	-0.125527	-0.480507	0.134328	-0.416465	0.042585	0.012932	-0.026408
578	2.928610	0.005000	1.216440	-9.466600	-0.152080	-0.481071	0.134328	-0.417727	0.043448	0.007773	-0.013679
579	2.933610	0.005000	1.238013	-9.456840	-0.302142	-0.481636	0.134328	-0.418988	0.033775	0.018742	-0.021388
580	2.938610	0.005000	1.170678	-9.450318	-0.156960	-0.482201	0.134328	-0.420249	0.040224	0.011229	-0.010674
581	2.943610	0.005000	1.130493	-9.473679	-0.110253	-0.482766	0.134328	-0.421510	0.028723	0.013253	-0.007902
582	2.948610	0.005000	1.277941	-9.490797	-0.025468	-0.483331	0.134328	-0.422771	0.036131	0.006791	-0.016390
583	2.953610	0.005000	1.192149	-9.544352	-0.138897	-0.483770	0.134391	-0.423403	0.037754	0.008506	-0.004192
584	2.958610	0.005000	1.197308	-9.554452	-0.136852	-0.484109	0.134504	-0.423529	0.030588	0.007554	-0.011726
585	2.963610	0.005000	1.351247	-9.630887	-0.106644	-0.484448	0.134617	-0.423655	0.028919	0.000928	-0.007304
586	2.968610	0.005000	1.267443	-9.625563	-0.007810	-0.484787	0.134730	-0.423781	0.024307	0.002113	-0.015093
587	2.973610	0.005000	1.268321	-9.653040	-0.132995	-0.485126	0.134843	-0.423908	0.017174	0.007880	-0.017471
588	2.978610	0.005000	1.204527	-9.692280	-0.145047	-0.485464	0.134956	-0.424034	0.016798	0.022131	-0.015412
589	2.983610	0.005000	1.148758	-9.628021	-0.156960	-0.485803	0.135069	-0.424160	0.017600	0.008339	-0.004696
590	2.988610	0.005000	1.240436	-9.613800	-0.132964	-0.486142	0.135182	-0.424286	0.014389	0.016209	-0.006641
591	2.993610	0.005000	1.239705	-9.669015	-0.133695	-0.486481	0.135295	-0.424412	0.004261	0.017169	-0.013349
592	2.998610	0.005000	1.233248	-9.613800	-0.067233	-0.486820	0.135408	-0.424538	0.006182	0.006560	-0.003668
593	3.003610	0.005000	1.216440	-9.553151	0.082059	-0.487159	0.135521	-0.424665	-0.003757	0.019977	-0.018153
594	3.008610	0.005000	1.255680	-9.595199	-0.041279	-0.487498	0.135634	-0.424791	-0.003164	0.014689	-0.017492
595	3.013610	0.005000	1.295369	-9.574111	-0.019845	-0.487837	0.135746	-0.424917	0.007611	0.012034	-0.011711
596	3.018610	0.005000	1.236858	-9.574560	0.018822	-0.487868	0.135783	-0.424742	0.004466	0.013068	-0.017632
597	3.023610	0.005000	1.234240	-9.592360	-0.025081	-0.487303	0.135670	-0.423985	0.016739	0.007249	-0.007099
598	3.028610	0.005000	1.216440	-9.574560	-0.011716	-0.486738	0.135557	-0.423229	0.021769	0.013116	-0.018459
599	3.033610	0.005000	1.098720	-9.558325	-0.101485	-0.486173	0.135444	-0.422472	0.016010	0.016438	-0.022078
600	3.038610	0.005000	1.059480	-9.544135	-0.072082	-0.485609	0.135331	-0.421715	0.011885	0.009390	-0.006839
601	3.043610	0.005000	1.127100	-9.599610	-0.078480	-0.485044	0.135218	-0.420958	0.014723	0.011408	-0.022777
602	3.048610	0.005000	1.163552	-9.586504	-0.051184	-0.484479	0.135105	-0.420202	0.007673	0.014494	-0.021305
603	3.053610	0.005000	1.178563	-9.561934	-0.092469	-0.483914	0.134992	-0.419445	0.005871	0.011840	-0.019702
604	3.058610	0.005000	1.177200	-9.472874	-0.027637	-0.483349	0.134879	-0.418688	0.009074	0.006803	-0.009874
605	3.063610	0.005000	1.234265	-9.506788	-0.021415	-0.482785	0.134766	-0.417931	0.010069	0.016088	-0.015687
606	3.068610	0.005000	1.147983	-9.623823	0.019194	-0.482220	0.134653	-0.417175	0.003678	0.005155	-0.014926
607	3.073610	0.005000	1.146961	-9.635039	-0.135721	-0.481655	0.134540	-0.416418	-0.008113	0.009197	-0.022325
608	3.078610	0.005000	1.146049	-9.535320	-0.188111	-0.481090	0.134427	-0.415661	-0.011198	0.012647	-0.029772
609	3.083610	0.005000	1.238748	-9.542756	-0.164396	-0.480554	0.134299	-0.415032	-0.008764	-0.000431	-0.010682
610	3.088610	0.005000	1.235680	-9.613800	-0.078480	-0.480215	0.134074	-0.415284	-0.016381	0.017786	-0.019485
611	3.093610	0.005000	1.193373	-9.529929	-0.133893	-0.479876	0.133848	-0.415536	-0.017818	0.008213	-0.006557
612	3.098610	0.005000	1.339009	-9.461689	-0.112871	-0.479537	0.133622	-0.415789	-0.020019	0.019717	-0.015232
613	3.103610	0.005000	1.283441	-9.386013	-0.078480	-0.479199	0.133396	-0.416041	-0.034593	0.015303	-0.023375
614	3.108610	0.005000	1.168788	-9.501688	-0.154156	-0.478860	0.133170	-0.416293	-0.021144	0.003780	-0.011100
615	3.113610	0.005000	1.173593	-9.576364	-0.192593	-0.478521	0.132944	-0.416545	-0.027857	0.017107	-0.024190
616	3.118610	0.005000	1.140439	-9.501037	-0.078480	-0.478182	0.132718	-0.416798	-0.011690	0.008102	-0.012490
617	3.123610	0.005000	1.138177	-9.535320	-0.117937	-0.477843	0.132492	-0.417050	-0.014555	0.013357	-0.015298
618	3.128610	0.005000	1.177200	-9.573754	-0.118526	-0.477504	0.132266	-0.417302	-0.015497	0.016152	-0.009098
619	3.133610	0.005000	1.215077	-9.532593	-0.117720	-0.477165	0.132040	-0.417554	-0.014415	0.010575	-0.006604
620	3.138610	0.005000	1.218810	-9.611430	-0.117720	-0.476826	0.131815	-0.417806	-0.018014	0.017433	-0.017895
621	3.143610	0.005000	1.219833	-9.499473	-0.042633	-0.476488	0.131589	-0.418059	-0.013137	0.012310	-0.017820
622	3.148610	0.005000	1.294920	-9.535320	-0.007901	-0.476149	0.131363	-0.418311	-0.015845	0.024111	-0.022088
623	3.153610	0.005000	1.260653	-9.525374	-0.142042	-0.476325	0.131961	-0.418448	-0.007507	0.011859	-0.017193
624	3.158610	0.005000	1.294920	-9.607805	-0.162955	-0.476551	0.132639	-0.418574	-0.018285	0.020049	-0.014317
625	3.163610	0.005000	1.223445	-9.581565	-0.156960	-0.476777	0.133317	-0.418700	-0.018930	0.013574	-0.013992
626	3.168610	0.005000	1.240560	-9.613800	-0.132840	-0.477003	0.133995	-0.418827	-0.019974	0.012038	-0.015392
627	3.173610	0.005000	1.247098	-9.583142	-0.156960	-0.477229	0.134672	-0.418953	-0.017655	0.019996	-0.027291
628	3.178610	0.005000	1.246075	-9.564955	-0.117720	-0.477455	0.135350	-0.419079	-0.006241	0.003139	-0.013961
629	3.183610	0.005000	1.137960	-9.642767	-0.059785	-0.477680	0.136028	-0.419205	-0.022426	0.015083	-0.020775
630	3.188610	0.005000	1.261412	-9.613800	-0.056141	-0.477906	0.136706	-0.419331	-0.024914	0.011893	-0.022616
631	3.193610	0.005000	1.228632	-9.574560	-0.117720	-0.478132	0.137384	-0.419457	-0.012586	0.012052	-0.011530
632	3.198610	0.005000	1.190656	-9.601473	-0.196765	-0.478358	0.138061	-0.419583	-0.020868	0.015731	-0.014163
633	3.203610	0.005000	1.255680	-9.639284	-0.207927	-0.478584	0.138739	-0.419710	-0.018937	0.005524	-0.010319
634	3.208610	0.005000	1.265362	-9.540417	-0.098356	-0.478810	0.139417	-0.419836	-0.012736	0.006251	-0.010738
635	3.213610	0.005000	1.216440	-9.621999	-0.204399	-0.479036	0.140095	-0.419962	-0.008846	0.009863	-0.012585
636	3.218610	0.005000	1.193559	-9.545157	-0.189678	-0.479183	0.139905	-0.420000	-0.001168	0.020324	-0.010013
637	3.223610	0.005000	1.137960	-9.552686	-0.196200	-0.479296	0.139340	-0.420000	-0.002071	0.009457	-0.015422
638	3.228610	0.005000	1.219403	-9.574560	-0.220264	-0.479409	0.138775	-0.420000	0.001842	0.016806	-0.013130
639	3.233610	0.005000	1.197494	-9.536668	-0.216494	-0.479522	0.138210	-0.420000	0.014446	0.018769	-0.011767
640	3.238610	0.005000	1.314889	-9.496777	-0.235440	-0.479635	0.137645	-0.420000	0.008957	0.010968	-0.008840
641	3.243610	0.005000	1.255680	-9.493338	-0.138711	-0.479748	0.137081	-0.420000	0.008768	0.021273	-0.019906
642	3.248610	0.005000	1.334160	-9.592267	-0.182320	-0.479861	0.136516	-0.420000	0.006384	0.011352	-0.008901
643	3.253610	0.005000	1.238996	-9.557876	-0.117720	-0.479974	0.135951	-0.420000	0.008887	0.023437	-0.010240
644	3.258610	0.005000	1.192862	-9.582476	-0.235440	-0.480087	0.135386	-0.420000	0.005105	0.021889	-0.018864
645	3.263610	0.005000	1.131841	-9.598680	-0.235440	-0.480200	0.134822	-0.420000	0.017315	0.012381	-0.000838
646	3.268610	0.005000	1.163103	-9.535320	-0.182103	-0.480313	0.134257	-0.420000	0.008818	0.025524	-0.005060
647	3.273610	0.005000	1.190275	-9.535320	-0.156960	-0.480426	0.133692	-0.420000	0.012906	0.010871	-0.011524
648	3.278610	0.005000	1.112916	-9.535320	-0.117720	-0.480539	0.133127	-0.420000	0.023113	0.005931	-0.003660
649	3.283610	0.005000	1.142669	-9.500789	-0.173180	-0.481745	0.132125	-0.418412	0.018433	0.016402	-0.014355
650	3.288610	0.005000	1.156224	-9.456840	-0.217176	-0.484117	0.130657	-0.415133	0.017066	0.011420	-0.010011
651	3.293610	0.005000	1.128381	-9.584139	-0.236365	-0.486489	0.129188	-0.411854	0.015859	0.014401	-0.007345
652	3.298610	0.005000	1.068388	-9.504988	-0.156960	-0.488861	0.127720	-0.408574	0.013501	0.006845	-0.006237
653	3.303610	0.005000	1.161616	-9.535320	-0.039240	-0.491233	0.126252	-0.405295	0.018191	0.012217	-0.011545
654	3.308610	0.005000	1.223305	-9.574560	-0.078480	-0.493605	0.124783	-0.402016	0.019310	0.010482	-0.007117
655	3.313610	0.005000	1.137960	-9.580881	-0.091121	-0.495977	0.123315	-0.398737	0.021603	0.013171	-0.007179
656	3.318610	0.005000	1.205844	-9.619098	-0.055134	-0.498349	0.121847	-0.395457	0.018920	0.018425	-0.019836
657	3.323610	0.005000	1.146617	-9.530991	-0.122049	-0.500721	0.120378	-0.392178	0.022760	0.017190	-0.013449
658	3.328610	0.005000	1.244480	-9.578293	-0.188733	-0.503093	0.118910	-0.388899	0.015235	0.020027	-0.010710
659	3.333610	0.005000	1.098720	-9.577271	-0.002711	-0.505465	0.117442	-0.385619	0.022286	0.015671	-0.007860
660	3.338610	0.005000	1.064608	-9.492661	-0.076771	-0.507837	0.115973	-0.382340	0.013005	0.015913	-0.010767
661	3.343610	0.005000	1.098720	-9.572267	-0.073895	-0.510208	0.114505	-0.379061	0.006396	0.016319	-0.016239
662	3.348610	0.005000	1.176952	-9.496080	0.000000	-0.511910	0.113707	-0.377178	0.010145	0.007907	-0.002477
663	3.353610	0.005000	1.176322	-9.534881	-0.116403	-0.511797	0.114724	-0.379070	-0.002116	0.016478	-0.009103
664	3.358610	0.005000	1.101632	-9.494624	0.075568	-0.511684	0.115741	-0.380962	-0.003409	0.010997	-0.011180
665	3.363610	0.005000	1.211483	-9.498559	-0.041719	-0.511571	0.116757	-0.382854	0.004547	0.008662	-0.009273
666	3.368610	0.005000	1.173714	-9.499566	-0.039240	-0.511458	0.117774	-0.384746	-0.005756	0.017137	-0.018695
667	3.373610	0.005000	1.177200	-9.570517	0.074437	-0.511345	0.118790	-0.386637	0.001486	0.009857	-0.009253
668	3.378610	0.005000	1.216440	-9.501146	0.005066	-0.511232	0.119807	-0.388529	0.001397	0.019074	-0.009244
669	3.383610	0.005000	1.282744	-9.450752	0.138696	-0.511119	0.120823	-0.390421	-0.008280	0.012896	-0.009230
670	3.388610	0.005000	1.288290	-9.593909	0.124350	-0.511006	0.121840	-0.392313	-0.007139	0.016448	-0.016810
671	3.393610	0.005000	1.160918	-9.606147	0.086133	-0.510893	0.122857	-0.394205	-0.010568	0.008490	-0.012887
672	3.398610	0.005000	1.208143	-9.683983	0.148663	-0.510780	0.123873	-0.396097	-0.016682	0.010475	-0.015626
673	3.403610	0.005000	1.343377	-9.583777	0.235440	-0.510667	0.124890	-0.397989	-0.017787	0.014403	-0.006850
674	3.408610	0.005000	1.187440	-9.555800	0.127960	-0.510555	0.125906	-0.399881	-0.023672	0.009065	-0.003582
675	3.413610	0.005000	1.188127	-9.591946	0.224513	-0.510372	0.126872	-0.401702	-0.032576	0.013213	-0.008862
676	3.418610	0.005000	1.153560	-9.653040	0.078480	-0.509016	0.126985	-0.402333	-0.012607	0.004929	-0.002203
677	3.423610	0.005000	1.217184	-9.639464	0.104888	-0.507660	0.127098	-0.402964	-0.024391	0.017433	-0.011654
678	3.428610	0.005000	1.216440	-9.653040	0.117720	-0.506304	0.127211	-0.403595	-0.032659	0.007388	-0.017387
679	3.433610	0.005000	1.191607	-9.617781	0.039240	-0.504948	0.127324	-0.404226	-0.027220	0.010036	-0.014125
680	3.438610	0.005000	1.123011	-9.598851	-0.048581	-0.503592	0.127437	-0.404857	-0.036139	0.016301	-0.020747
681	3.443610	0.005000	1.161228	-9.512052	-0.031943	-0.502236	0.127550	-0.405488	-0.028818	0.009343	-0.023051
682	3.448610	0.005000	1.059480	-9.529535	-0.016728	-0.500880	0.127663	-0.406119	-0.031286	0.013903	-0.017399
683	3.453610	0.005000	1.137960	-9.592096	0.100184	-0.499523	0.127776	-0.406750	-0.030290	0.001955	-0.011371
684	3.458610	0.005000	1.214318	-9.556001	0.094916	-0.498167	0.127889	-0.407380	-0.027892	0.009850	-0.021471
685	3.463610	0.005000	1.137960	-9.535243	0.058821	-0.496811	0.128002	-0.408011	-0.028258	0.013814	-0.022343
686	3.468610	0.005000	1.176162	-9.553383	0.097581	-0.495455	0.128115	-0.408642	-0.032545	0.009261	-0.003497
687	3.473610	0.005000	1.134877	-9.595721	-0.054236	-0.494099	0.128228	-0.409273	-0.041445	0.019095	-0.019801
688	3.478610	0.005000	1.077016	-9.500247	-0.113553	-0.492743	0.128341	-0.409904	-0.043944	0.008014	-0.004579
689	3.483610	0.005000	1.131748	-9.535320	-0.179686	-0.491771	0.128837	-0.410749	-0.048251	0.014465	-0.015691
690	3.488610	0.005000	1.153643	-9.590243	-0.156960	-0.490867	0.129402	-0.411632	-0.051749	0.018732	-0.018461
691	3.493610	0.005000	1.162251	-9.574560	0.000000	-0.489964	0.129966	-0.412515	-0.042000	0.011091	-0.010142
692	3.498610	0.005000	1.084626	-9.596665	-0.131814	-0.489060	0.130531	-0.413397	-0.050471	0.015577	-0.018627
693	3.503610	0.005000	1.086218	-9.573692	-0.169462	-0.488156	0.131096	-0.414280	-0.049986	0.026672	-0.023309
694	3.508610	0.005000	1.098720	-9.471356	-0.169322	-0.487253	0.131661	-0.415163	-0.057468	0.024548	-0.034613
695	3.513610	0.005000	1.087244	-9.456840	-0.117720	-0.486349	0.132226	-0.416046	-0.051847	0.016304	-0.031794
696	3.518610	0.005000	1.059480	-9.496080	-0.121608	-0.485446	0.132790	-0.416929	-0.047193	0.028626	-0.020256
697	3.523610	0.005000	1.039759	-9.535320	-0.235440	-0.484542	0.133355	-0.417812	-0.045172	0.027267	-0.020972
698	3.528610	0.005000	1.086016	-9.526475	-0.169664	-0.483639	0.133920	-0.418695	-0.025517	0.023547	-0.014054
699	3.533610	0.005000	1.090525	-9.496080	-0.243635	-0.482735	0.134485	-0.419578	-0.029190	0.035072	-0.035078
700	3.538610	0.005000	1.066653	-9.528147	-0.321093	-0.481831	0.135049	-0.420461	-0.023057	0.014959	-0.013429
701	3.543610	0.005000	1.053330	-9.456840	-0.256230	-0.480928	0.135614	-0.421344	-0.023979	0.038191	-0.026463
702	3.548610	0.005000	1.025848	-9.490472	-0.241048	-0.480669	0.135821	-0.421507	-0.017157	0.034554	-0.038890
703	3.553610	0.005000	1.241924	-9.521564	-0.205371	-0.480782	0.135821	-0.421255	-0.004821	0.022162	-0.000884
704	3.558610	0.005000	1.137960	-9.603111	-0.299668	-0.480895	0.135821	-0.421002	-0.018381	0.028962	-0.024079
705	3.563610	0.005000	1.179741	-9.566938	-0.348079	-0.481008	0.135821	-0.420750	-0.010192	0.027381	-0.009840
706	3.568610	0.005000	1.255680	-9.531323	-0.196200	-0.481121	0.135821	-0.420498	0.004843	0.031961	-0.012261
707	3.573610	0.005000	1.257632	-9.495104	-0.274680	-0.481234	0.135821	-0.420246	0.003792	0.033456	-0.011017
708	3.578610	0.005000	1.334160	-9.574421	-0.235486	-0.481347	0.135821	-0.419993	0.013597	0.030247	-0.009163
709	3.583610	0.005000	1.295524	-9.496684	-0.314524	-0.481460	0.135821	-0.419741	0.013396	0.030014	-0.016296
710	3.588610	0.005000	1.329280	-9.492827	-0.312293	-0.481573	0.135821	-0.419489	0.012212	0.027078	-0.011694
711	3.593610	0.005000	1.376049	-9.462138	-0.311271	-0.481685	0.135821	-0.419236	0.021690	0.029405	-0.013818
712	3.598610	0.005000	1.340543	-9.381551	-0.268297	-0.481798	0.135821	-0.418984	0.022986	0.019985	-0.012470
713	3.603610	0.005000	1.356545	-9.479225	-0.313920	-0.481911	0.135821	-0.418732	0.016249	0.024434	-0.008033
714	3.608610	0.005000	1.279212	-9.496080	-0.353160	-0.482024	0.135821	-0.418479	0.026759	0.016620	-0.006792
715	3.613610	0.005000	1.361700	-9.574560	-0.252990	-0.482137	0.135489	-0.418333	0.028443	0.018789	-0.013605
716	3.618610	0.005000	1.301721	-9.653040	-0.242241	-0.482250	0.134698	-0.418333	0.027460	0.010816	-0.012024
717	3.623610	0.005000	1.341983	-9.550966	-0.274680	-0.482363	0.133908	-0.418333	0.034752	-0.000723	0.004684
718	3.628610	0.005000	1.272618	-9.456840	-0.213138	-0.482476	0.133117	-0.418333	0.025237	0.005979	-0.000686
719	3.633610	0.005000	1.205364	-9.565172	-0.127108	-0.482589	0.132326	-0.418333	0.033587	-0.004273	-0.000662
720	3.638610	0.005000	1.323750	-9.564150	-0.136139	-0.482702	0.131536	-0.418333	0.034456	0.001508	0.002072
721	3.643610	0.005000	1.317119	-9.557519	-0.168059	-0.482815	0.130745	-0.418333	0.032284	0.006613	-0.003523
722	3.648610	0.005000	1.306910	-9.511339	-0.196200	-0.482928	0.129954	-0.418333	0.045485	-0.008081	-0.001642
723	3.653610	0.005000	1.294920	-9.482845	-0.091483	-0.483041	0.129164	-0.418333	0.046563	-0.006867	0.002601
724	3.658610	0.005000	1.267485	-9.547125	-0.027435	-0.483154	0.128373	-0.418333	0.050396	-0.009785	0.005242
725	3.663610	0.005000	1.284835	-9.599222	-0.053818	-0.483266	0.127582	-0.418333	0.050764	-0.005939	0.005038
726	3.668610	0.005000	1.184760	-9.558960	-0.015600	-0.483379	0.126792	-0.418333	0.054483	-0.006229	-0.002892
727	3.673610	0.005000	1.239058	-9.568565	0.022618	-0.483492	0.126001	-0.418333	0.050718	-0.014959	0.005780
728	3.678610	0.005000	1.133049	-9.591725	-0.061315	-0.483466	0.125327	-0.418281	0.058286	-0.008428	0.004130
729	3.683610	0.005000	1.056614	-9.571694	-0.042106	-0.482901	0.125101	-0.418029	0.041502	-0.011170	0.008132
730	3.688610	0.005000	1.059480	-9.516359	-0.037923	-0.482336	0.124875	-0.417777	0.041671	-0.011687	-0.006322
731	3.693610	0.005000	1.039992	-9.496343	-0.000527	-0.481772	0.124649	-0.417524	0.047102	-0.007610	0.009520
732	3.698610	0.005000	1.001774	-9.512238	0.080788	-0.481207	0.124423	-0.417272	0.034707	-0.005735	0.004829
733	3.703610	0.005000	1.098720	-9.578495	0.021587	-0.480642	0.124197	-0.417020	0.027146	-0.006055	-0.008284
734	3.708610	0.005000	1.081828	-9.552212	0.028330	-0.480077	0.123971	-0.416768	0.028054	-0.007684	-0.001302
735	3.713610	0.005000	1.020240	-9.597921	0.141081	-0.479512	0.123745	-0.416516	0.012940	0.008794	-0.011403
736	3.718610	0.005000	1.059480	-9.637719	0.015321	-0.478948	0.123519	-0.416263	0.017890	-0.001265	0.001003
737	3.723610	0.005000	1.073779	-9.624443	0.174915	-0.478383	0.123293	-0.416011	0.017798	0.000223	-0.001177
738	3.728610	0.005000	1.098720	-9.627076	0.274680	-0.477818	0.123068	-0.415759	0.011379	0.002332	-0.007766
739	3.733610	0.005000	0.927988	-9.653040	0.261946	-0.477253	0.122842	-0.415507	0.008898	0.004408	-0.003720
740	3.738610	0.005000	1.043663	-9.586272	0.231335	-0.476689	0.122616	-0.415254	0.007581	0.015549	-0.015840
741	3.743610	0.005000	1.159338	-9.653040	0.381711	-0.476124	0.122390	-0.415002	0.003698	0.008985	-0.015855
742	3.748610	0.005000	1.137960	-9.671986	0.225293	-0.476455	0.123731	-0.415750	-0.003826	0.015934	-0.006496
743	3.753610	0.005000	1.098720	-9.622925	0.223574	-0.476794	0.125086	-0.416506	0.005760	0.010794	-0.004105
744	3.758610	0.005000	1.059480	-9.676076	0.313920	-0.477132	0.126441	-0.417263	-0.005821	0.017857	-0.010696
745	3.763610	0.005000	1.113809	-9.589649	0.203744	-0.477471	0.127796	-0.418019	-0.020848	0.017741	-0.023694
746	3.768610	0.005000	1.066017	-9.613800	0.124257	-0.477810	0.129151	-0.418776	-0.025058	0.020012	-0.014492
747	3.773610	0.005000	1.064995	-9.653040	0.128750	-0.478148	0.130506	-0.419532	-0.035865	0.024658	-0.023994
748	3.778610	0.005000	1.020240	-9.535320	0.039240	-0.478487	0.131860	-0.420289	-0.037143	0.013307	-0.014158
749	3.783610	0.005000	1.098720	-9.500015	0.086350	-0.478826	0.133215	-0.421045	-0.038435	0.025439	-0.017527
750	3.788610	0.005000	1.180148	-9.613800	0.156960	-0.479165	0.134570	-0.421801	-0.042875	0.026669	-0.024472
751	3.793610	0.005000	1.174830	-9.576930	0.043980	-0.479503	0.135925	-0.422558	-0.038006	0.025367	-0.009342
752	3.798610	0.005000	1.140689	-9.613800	0.043333	-0.479842	0.137280	-0.423314	-0.055493	0.036932	-0.031552
753	3.803610	0.005000	1.215634	-9.534514	0.119331	-0.480181	0.138634	-0.424071	-0.057741	0.042078	-0.034610
754	3.808610	0.005000	1.216223	-9.613149	0.118154	-0.480520	0.139989	-0.424827	-0.062655	0.032946	-0.020362
755	3.813610	0.005000	1.217679	-9.496080	-0.038001	-0.480946	0.140038	-0.424611	-0.043930	0.027184	-0.026099
756	3.818610	0.005000	1.216440	-9.574560	-0.114083	-0.481397	0.139699	-0.424106	-0.048439	0.033530	-0.023480
757	3.823610	0.005000	1.250041	-9.610981	-0.086938	-0.481849	0.139360	-0.423602	-0.051884	0.035462	-0.026158
758	3.828610	0.005000	1.255680	-9.574560	-0.179190	-0.482301	0.139021	-0.423097	-0.047618	0.036914	-0.011201
759	3.833610	0.005000	1.185968	-9.578944	-0.126488	-0.482753	0.138682	-0.422593	-0.058816	0.043012	-0.020742
760	3.838610	0.005000	1.171793	-9.653040	-0.146147	-0.483204	0.138343	-0.422088	-0.053933	0.024292	-0.014106
761	3.843610	0.005000	1.222462	-9.468885	-0.129765	-0.483656	0.138004	-0.421584	-0.053674	0.032867	-0.018803
762	3.848610	0.005000	1.262651	-9.574560	-0.085451	-0.484108	0.137665	-0.421079	-0.048725	0.036138	-0.023971
763	3.853610	0.005000	1.216440	-9.574560	-0.258693	-0.484560	0.137327	-0.420575	-0.044825	0.032027	-0.012479
764	3.858610	0.005000	1.246664	-9.544336	-0.235440	-0.485012	0.136988	-0.420070	-0.045824	0.033516	-0.033250
765	3.863610	0.005000	1.266245	-9.486522	-0.313920	-0.485463	0.136649	-0.419565	-0.038812	0.018360	-0.024767
766	3.868610	0.005000	1.248182	-9.585141	-0.238523	-0.485915	0.136310	-0.419061	-0.032415	0.027116	-0.022466
767	3.873610	0.005000	1.172769	-9.519286	-0.235440	-0.486367	0.135971	-0.418556	-0.045087	0.025495	-0.031721
768	3.878610	0.005000	1.191827	-9.574560	-0.223133	-0.486504	0.135192	-0.418192	-0.025863	0.020775	-0.019712
769	3.883610	0.005000	1.281752	-9.600632	-0.196200	-0.486391	0.134062	-0.417940	-0.029301	0.032716	-0.028245
770	3.888610	0.005000	1.334160	-9.627990	-0.182010	-0.486278	0.132933	-0.417688	-0.034959	0.017356	-0.018412
771	3.893610	0.005000	1.285529	-9.496080	-0.196200	-0.486165	0.131803	-0.417436	-0.020488	0.018124	-0.012149
772	3.898610	0.005000	1.216440	-9.551090	-0.337390	-0.486052	0.130674	-0.417184	-0.022242	0.019578	-0.013573
773	3.903610	0.005000	1.160407	-9.512873	-0.313920	-0.485940	0.129544	-0.416931	-0.030385	0.020000	-0.029150
774	3.908610	0.005000	1.137960	-9.538930	-0.335345	-0.485827	0.128415	-0.416679	-0.020861	0.015513	-0.023329
775	3.913610	0.005000	1.218525	-9.636548	-0.254017	-0.485714	0.127285	-0.416427	-0.013557	0.015301	-0.014562
776	3.918610	0.005000	1.275060	-9.515460	-0.314400	-0.485601	0.126156	-0.416175	-0.010113	0.013431	-0.009901
777	3.923610	0.005000	1.218005	-9.536885	-0.315485	-0.485488	0.125026	-0.415922	-0.004541	0.004475	-0.001679
778	3.928610	0.005000	1.200794	-9.459489	-0.217145	-0.485375	0.123897	-0.415670	-0.013048	0.018161	-0.003670
779	3.933610	0.005000	1.115993	-9.500774	-0.196200	-0.485262	0.122768	-0.415418	-0.000057	0.003141	-0.019837
780	3.938610	0.005000	1.265796	-9.473292	-0.251892	-0.485149	0.121638	-0.415166	0.010629	0.000667	-0.009586
781	3.943610	0.005000	1.224263	-9.496080	-0.133428	-0.484998	0.121322	-0.415173	0.003687	0.002194	-0.015285
782	3.948610	0.005000	1.216440	-9.618618	-0.122538	-0.484772	0.122565	-0.415678	0.005588	-0.006428	0.000188
783	3.953610	0.005000	1.165287	-9.588224	-0.194449	-0.484546	0.123807	-0.416182	0.013399	0.001485	-0.010245
784	3.958610	0.005000	1.242652	-9.626828	-0.130826	-0.484320	0.125049	-0.416687	0.010954	-0.001078	-0.009379
785	3.963610	0.005000	1.282837	-9.601717	-0.102647	-0.484094	0.126292	-0.417191	0.021176	-0.001042	-0.005349
786	3.968610	0.005000	1.188265	-9.552429	-0.185135	-0.483868	0.127534	-0.417696	0.023894	0.005855	-0.011039
787	3.973610	0.005000	1.226959	-9.485561	-0.088999	-0.483642	0.128777	-0.418200	0.016879	0.000292	-0.010421
788	3.978610	0.005000	1.166449	-9.535320	-0.177207	-0.483416	0.130019	-0.418705	0.015694	0.005065	-0.012459
789	3.983610	0.005000	1.294920	-9.526846	-0.064662	-0.483190	0.131261	-0.419209	0.013910	-0.003469	-0.012182
790	3.988610	0.005000	1.357537	-9.582492	-0.039240	-0.482964	0.132504	-0.419714	0.004400	0.010653	-0.010484
791	3.993610	0.005000	1.195712	-9.560742	-0.039240	-0.482739	0.133746	-0.420218	0.016676	-0.002505	-0.014230
792	3.998610	0.005000	1.059480	-9.501967	-0.027466	-0.482513	0.134988	-0.420723	0.006026	0.001181	-0.002062
793	4.003610	0.005000	1.171855	-9.574560	-0.130237	-0.482287	0.136231	-0.421228	0.003302	0.005882	-0.011310
794	4.008610	0.005000	1.220762	-9.648718	-0.034918	-0.482119	0.137313	-0.421667	0.013843	-0.006927	-0.005595
795	4.013610	0.005000	1.154458	-9.538620	0.045839	-0.482345	0.137313	-0.421667	0.011530	0.009768	-0.010061
796	4.018610	0.005000	1.252938	-9.616542	0.002742	-0.482571	0.137313	-0.421667	0.008241	0.009035	-0.010086
797	4.023610	0.005000	1.178920	-9.612080	0.000000	-0.482797	0.137313	-0.421667	0.016022	0.006050	-0.004968
798	4.028610	0.005000	1.294199	-9.689395	0.041403	-0.483023	0.137313	-0.421667	-0.001387	0.009215	-0.009702
799	4.033610	0.005000	1.216285	-9.495925	0.000465	-0.483249	0.137313	-0.421667	0.003463	0.010056	-0.004256
800	4.038610	0.005000	1.100455	-9.495212	0.079348	-0.483475	0.137313	-0.421667	0.004734	0.009164	-0.015495
801	4.043610	0.005000	1.213586	-9.574560	0.158387	-0.483700	0.137313	-0.421667	0.001454	0.007550	-0.005307
802	4.048610	0.005000	1.145257	-9.429761	0.073616	-0.483926	0.137313	-0.421667	0.007552	0.007492	-0.010464
803	4.053610	0.005000	1.166836	-9.531865	0.110811	-0.484152	0.137313	-0.421667	-0.001996	0.009122	-0.007906
804	4.058610	0.005000	1.181677	-9.496080	0.034763	-0.484378	0.137313	-0.421667	0.004494	0.009059	0.000698
805	4.063610	0.005000	1.137960	-9.545483	0.000000	-0.484604	0.137313	-0.421667	-0.005546	0.019494	-0.014485
806	4.068610	0.005000	1.150043	-9.535320	-0.051323	-0.484830	0.137313	-0.421667	-0.007007	0.016097	-0.005458
807	4.073610	0.005000	1.177200	-9.496080	0.032176	-0.485056	0.137313	-0.421667	-0.008392	0.019693	-0.007187
808	4.078610	0.005000	1.059480	-9.613800	0.055340	-0.484972	0.136073	-0.421205	-0.012977	0.015776	-0.012878
809	4.083610	0.005000	1.168568	-9.605168	0.131063	-0.484859	0.134717	-0.420700	-0.012101	0.021655	-0.013206
810	4.088610	0.005000	1.098720	-9.584211	0.028954	-0.484746	0.133361	-0.420196	-0.020120	0.025923	-0.024723
811	4.093610	0.005000	1.235017	-9.603469	0.136297	-0.484632	0.132005	-0.419691	-0.009852	0.018306	-0.008099
812	4.098610	0.005000	1.188431	-9.625031	0.078480	-0.484519	0.130649	-0.419186	-0.025292	0.024817	-0.023210
813	4.103610	0.005000	1.071734	-9.599068	0.147185	-0.484406	0.129293	-0.418681	-0.015059	0.022585	-0.010351
814	4.108610	0.005000	1.177200	-9.587515	0.091435	-0.484293	0.127937	-0.418177	-0.009799	0.020609	-0.013236
815	4.113610	0.005000	1.241862	-9.562957	-0.011603	-0.484180	0.126581	-0.417672	-0.021437	0.030464	-0.020070
816	4.118610	0.005000	1.113561	-9.535320	-0.127278	-0.484067	0.125225	-0.417167	-0.008290	0.020457	-0.011073
817	4.123610	0.005000	1.247330	-9.410087	-0.070967	-0.483954	0.123869	-0.416662	-0.022154	0.016724	-0.025456
818	4.128610	0.005000	1.222869	-9.440434	0.068503	-0.483841	0.122513	-0.416158	-0.024985	0.017773	-0.015529
819	4.133610	0.005000	1.177200	-9.430644	0.017428	-0.483728	0.121157	-0.415653	-0.020732	0.027110	-0.018835
820	4.138610	0.005000	1.093045	-9.498918	0.042078	-0.483615	0.119801	-0.415148	-0.026445	0.021186	-0.013597
821	4.143610	0.005000	1.099975	-9.535320	-0.120230	-0.483662	0.120361	-0.415357	-0.026433	0.022288	-0.000831
822	4.148610	0.005000	1.177990	-9.515305	-0.117720	-0.483775	0.121716	-0.415861	-0.024728	0.017293	-0.015615
823	4.153610	0.005000	1.234643	-9.454005	-0.102352	-0.483888	0.123072	-0.416366	-0.020933	0.017947	-0.004371
824	4.158610	0.005000	1.234085	-9.592205	-0.035290	-0.484001	0.124427	-0.416870	-0.027132	0.023765	-0.018861
825	4.163610	0.005000	1.193822	-9.479458	-0.190205	-0.484114	0.125783	-0.417375	-0.015286	0.016968	-0.005990
826	4.168610	0.005000	1.169172	-9.527292	-0.219834	-0.484227	0.127138	-0.417879	-0.020919	0.025658	-0.009187
827	4.173610	0.005000	1.294920	-9.539960	-0.093248	-0.484340	0.128493	-0.418384	-0.025185	0.025425	-0.018584
828	4.178610	0.005000	1.320125	-9.549355	-0.103685	-0.484453	0.129849	-0.418888	-0.014933	0.018293	-0.008479
829	4.183610	0.005000	1.229654	-9.548333	-0.104707	-0.484566	0.131204	-0.419393	-0.027106	0.024967	-0.018592
830	4.188610	0.005000	1.189190	-9.520061	-0.250699	-0.484679	0.132559	-0.419897	-0.011972	0.018118	-0.003595
831	4.193610	0.005000	1.182095	-9.641592	-0.173304	-0.484792	0.133915	-0.420402	-0.008386	0.023383	-0.017056
832	4.198610	0.005000	1.109146	-9.613800	-0.088906	-0.484905	0.135270	-0.420907	-0.020768	0.025941	-0.025169
833	4.203610	0.005000	1.177200	-9.583963	-0.138153	-0.485018	0.136626	-0.421411	-0.014349	0.013920	-0.010905
834	4.208610	0.005000	1.224925	-9.566075	-0.126205	-0.485075	0.137257	-0.421543	-0.026346	0.015430	-0.020148
835	4.213610	0.005000	1.263519	-9.464679	-0.156960	-0.485075	0.137144	-0.421290	-0.025198	0.009616	-0.009773
836	4.218610	0.005000	1.248864	-9.535320	-0.189384	-0.485075	0.137032	-0.421038	-0.020341	0.016989	-0.002794
837	4.223610	0.005000	1.243953	-9.535320	-0.145233	-0.485075	0.136919	-0.420786	-0.028495	0.004887	-0.015272
838	4.228610	0.005000	1.216440	-9.569308	-0.128223	-0.485075	0.136806	-0.420533	-0.027354	0.017159	-0.007214
839	4.233610	0.005000	1.137960	-9.531091	-0.191971	-0.485075	0.136693	-0.420281	-0.026149	0.015796	-0.017191
840	4.238610	0.005000	1.246060	-9.571353	-0.114513	-0.485075	0.136580	-0.420029	-0.020578	0.016659	-0.006114
841	4.243610	0.005000	1.216440	-9.498290	-0.041450	-0.485075	0.136467	-0.419777	-0.013661	0.016845	-0.024259
842	4.248610	0.005000	1.216440	-9.574560	-0.075227	-0.485075	0.136354	-0.419524	-0.010119	0.007843	-0.003923
843	4.253610	0.005000	1.177804	-9.535320	-0.040448	-0.485075	0.136241	-0.419272	-0.017064	0.016293	-0.012469
844	4.258610	0.005000	1.216440	-9.535320	-0.117720	-0.485075	0.136128	-0.419020	-0.008627	0.015222	-0.012947
845	4.263610	0.005000	1.331244	-9.534348	-0.079452	-0.485075	0.136015	-0.418767	-0.014871	0.008678	-0.017026
846	4.268610	0.005000	1.181166	-9.458823	-0.119703	-0.485075	0.135902	-0.418515	-0.025399	0.021367	-0.018523
847	4.273610	0.005000	1.216440	-9.496080	-0.126736	-0.485641	0.135506	-0.417419	-0.003219	0.007596	-0.011475
848	4.278610	0.005000	1.141508	-9.460388	-0.149865	-0.487674	0.134377	-0.414140	-0.011997	0.022947	-0.015295
849	4.283610	0.005000	1.142530	-9.491510	-0.191630	-0.489708	0.133247	-0.410861	-0.010142	0.011007	-0.004774
850	4.288610	0.005000	1.188385	-9.568968	-0.039240	-0.491741	0.132118	-0.407581	-0.016853	0.010175	-0.001179
851	4.293610	0.005000	1.216440	-9.508501	-0.156960	-0.493774	0.130988	-0.404302	-0.009972	0.009726	-0.017910
852	4.298610	0.005000	1.170043	-9.613800	-0.196200	-0.495807	0.129859	-0.401023	-0.022604	0.020923	-0.017969
853	4.303610	0.005000	1.137960	-9.613800	-0.219081	-0.497840	0.128729	-0.397743	-0.017956	0.014494	-0.022425
854	4.308610	0.005000	1.147162	-9.505282	-0.186998	-0.499873	0.127600	-0.394464	-0.014993	0.012185	-0.018649
855	4.313610	0.005000	1.196719	-9.545080	-0.058961	-0.501906	0.126470	-0.391185	-0.012112	0.013323	-0.020022
856	4.318610	0.005000	1.144900	-9.513787	-0.010767	-0.503939	0.125341	-0.387905	-0.012308	0.010501	-0.006204
857	4.323610	0.005000	1.165411	-9.617673	-0.145171	-0.505972	0.124211	-0.384626	-0.000253	0.019303	-0.015568
858	4.328610	0.005000	1.216440	-9.522825	-0.130215	-0.508005	0.123082	-0.381347	-0.000374	0.015302	-0.019691
859	4.333610	0.005000	1.307422	-9.444338	-0.105218	-0.510038	0.121953	-0.378067	-0.001087	0.008755	-0.009874
860	4.338610	0.005000	1.191592	-9.506537	-0.196200	-0.511874	0.120911	-0.375122	-0.008037	0.017800	-0.011430
861	4.343610	0.005000	1.162266	-9.568999	-0.087852	-0.510857	0.121137	-0.377016	0.001720	0.003800	-0.012569
862	4.348610	0.005000	1.216440	-9.519364	-0.196200	-0.509839	0.121363	-0.378910	0.000279	0.015210	-0.000057
863	4.353610	0.005000	1.334160	-9.434579	-0.173939	-0.508822	0.121589	-0.380803	-0.005257	0.016917	-0.017513
864	4.358610	0.005000	1.216440	-9.539606	-0.113434	-0.507804	0.121815	-0.382697	0.005758	0.003423	-0.006378
865	4.363610	0.005000	1.177200	-9.559564	-0.135799	-0.506787	0.122041	-0.384591	-0.001369	0.017603	-0.016177
866	4.368610	0.005000	1.198377	-9.573522	-0.138897	-0.505769	0.122267	-0.386484	0.007092	0.005159	-0.007263
867	4.373610	0.005000	1.138477	-9.555199	-0.215561	-0.504752	0.122493	-0.388378	0.006359	0.013343	-0.016120
868	4.378610	0.005000	1.137960	-9.535320	-0.218957	-0.503734	0.122719	-0.390272	-0.016929	0.017925	-0.021801
869	4.383610	0.005000	1.190616	-9.561144	-0.100168	-0.502717	0.122946	-0.392165	-0.008624	0.020736	-0.005543
870	4.388610	0.005000	1.126171	-9.535320	-0.156960	-0.501699	0.123172	-0.394059	0.000935	0.020421	-0.013696
871	4.393610	0.005000	1.137960	-9.487358	-0.187478	-0.500682	0.123398	-0.395953	-0.004090	0.014693	-0.013079
872	4.398610	0.005000	1.177200	-9.535320	-0.220475	-0.499664	0.123624	-0.397846	-0.007370	0.015933	-0.021041
873	4.403610	0.005000	1.181228	-9.588983	-0.206595	-0.498647	0.123850	-0.399740	-0.007331	0.014966	-0.016954
874	4.408610	0.005000	1.204000	-9.587960	-0.065080	-0.499579	0.122907	-0.398694	-0.002039	0.021649	-0.011028
875	4.413610	0.005000	1.137960	-9.576667	-0.078480	-0.500821	0.121777	-0.397181	-0.005377	0.023570	-0.016943
876	4.418610	0.005000	1.244325	-9.479551	-0.083654	-0.502064	0.120648	-0.395667	-0.012271	0.013406	-0.011950
877	4.423610	0.005000	1.205642	-9.524522	-0.106922	-0.503306	0.119518	-0.394154	-0.018212	0.023352	-0.019937
878	4.428610	0.005000	1.167297	-9.545099	-0.049019	-0.504549	0.118388	-0.392640	-0.005996	0.007733	-0.006141
879	4.433610	0.005000	1.216440	-9.626420	-0.105100	-0.505791	0.117259	-0.391127	-0.003904	0.022002	-0.015282
880	4.438610	0.005000	1.208229	-9.535320	-0.179779	-0.507034	0.116129	-0.389613	-0.006431	0.003720	-0.026360
881	4.443610	0.005000	1.184388	-9.442464	-0.103344	-0.508276	0.115000	-0.388100	-0.004006	0.002979	-0.001232
882	4.448610	0.005000	1.216440	-9.456840	-0.078480	-0.509519	0.113870	-0.386586	-0.002228	0.013107	-0.012549
883	4.453610	0.005000	1.216440	-9.428847	-0.117720	-0.510761	0.112741	-0.385072	-0.002993	0.007822	-0.014997
884	4.458610	0.005000	1.211839	-9.535320	-0.004601	-0.512003	0.111611	-0.383559	-0.003831	0.013189	-0.024018
885	4.463610	0.005000	1.248434	-9.432092	0.039240	-0.513246	0.110481	-0.382045	-0.010723	0.005478	-0.020186
886	4.468610	0.005000	1.098720	-9.571524	0.033167	-0.514488	0.109352	-0.380532	-0.001252	0.008380	-0.022092
887	4.473610	0.005000	1.065522	-9.502122	-0.037226	-0.513313	0.110200	-0.382045	-0.002586	0.012523	-0.017817
888	4.478610	0.005000	1.216440	-9.574560	-0.041223	-0.510829	0.112121	-0.385198	-0.012622	0.014292	-0.013502
889	4.483610	0.005000	1.216006	-9.535754	-0.079348	-0.508344	0.114041	-0.388352	-0.006478	0.019189	-0.019190
890	4.488610	0.005000	1.177200	-9.497227	-0.079627	-0.505859	0.115961	-0.391505	-0.006053	0.014968	-0.008600
891	4.493610	0.005000	1.288537	-9.533724	-0.076884	-0.503374	0.117881	-0.394658	-0.007108	0.017228	-0.014142
892	4.498610	0.005000	1.140139	-9.496080	-0.115541	-0.500889	0.119801	-0.397811	-0.002172	0.011623	-0.017147
893	4.503610	0.005000	1.216440	-9.538496	-0.042416	-0.498404	0.121721	-0.400964	-0.003641	0.011847	-0.001657
894	4.508610	0.005000	1.216440	-9.526924	0.026645	-0.495920	0.123641	-0.404118	-0.007944	0.026057	-0.022109
895	4.513610	0.005000	1.289699	-9.564119	0.005221	-0.493435	0.125561	-0.407271	-0.002014	0.007747	-0.013757
896	4.518610	0.005000	1.261443	-9.468366	0.005763	-0.490950	0.127482	-0.410424	-0.010402	0.022619	-0.015464
897	4.523610	0.005000	1.073051	-9.671924	-0.085265	-0.488465	0.129402	-0.413577	-0.007923	0.015970	-0.009273
898	4.528610	0.005000	1.067288	-9.653040	-0.078480	-0.485980	0.131322	-0.416730	-0.004881	0.014129	0.001886
899	4.533610	0.005000	1.137960	-9.613800	-0.039240	-0.483495	0.133242	-0.419884	-0.005706	0.015172	-0.009341
900	4.538610	0.005000	1.246308	-9.565188	-0.009372	-0.482090	0.134475	-0.421503	-0.013946	0.007579	-0.008391
901	4.543610	0.005000	1.177200	-9.556110	-0.010395	-0.482090	0.134814	-0.421124	-0.014657	0.014998	-0.013654
902	4.548610	0.005000	1.059480	-9.535320	-0.112670	-0.482090	0.135153	-0.420745	-0.020449	0.011460	-0.007368
903	4.553610	0.005000	1.098720	-9.453478	-0.168919	-0.482090	0.135492	-0.420367	-0.005673	0.014223	-0.007765
904	4.558610	0.005000	1.177200	-9.574854	-0.052222	-0.482090	0.135831	-0.419988	-0.013727	0.010557	-0.019358
905	4.563610	0.005000	1.136581	-9.482540	-0.013540	-0.482090	0.136170	-0.419610	-0.004414	0.011296	-0.014672
906	4.568610	0.005000	1.181646	-9.589122	-0.039240	-0.482090	0.136509	-0.419231	-0.016201	0.012485	-0.026196
907	4.573610	0.005000	1.129303	-9.598509	-0.102429	-0.482090	0.136849	-0.418853	-0.008858	0.009903	-0.005200
908	4.578610	0.005000	1.278793	-9.567573	-0.094607	-0.482090	0.137188	-0.418474	-0.011540	0.022081	-0.017427
909	4.583610	0.005000	1.155109	-9.518171	-0.139811	-0.482090	0.137527	-0.418096	-0.008980	0.013308	-0.021747
910	4.588610	0.005000	1.198529	-9.517409	-0.110882	-0.482090	0.137866	-0.417717	-0.001586	0.018457	-0.014625
911	4.593610	0.005000	1.235154	-9.535320	0.001813	-0.482090	0.138205	-0.417338	-0.013316	0.022169	-0.020405
912	4.598610	0.005000	1.216440	-9.554824	0.000232	-0.482090	0.138544	-0.416960	-0.011040	0.010907	-0.017143
913	4.603610	0.005000	1.352870	-9.535320	-0.097190	-0.482218	0.138704	-0.416724	-0.017175	0.016028	-0.006520
914	4.608610	0.005000	1.237741	-9.514019	-0.121082	-0.482783	0.138252	-0.416976	-0.019143	0.007856	-0.007716
915	4.613610	0.005000	1.154877	-9.596883	-0.039240	-0.483347	0.137800	-0.417229	-0.013675	0.004335	-0.011296
916	4.618610	0.005000	1.200355	-9.567490	-0.016085	-0.483912	0.137348	-0.417481	-0.018553	0.015613	-0.011166
917	4.623610	0.005000	1.177200	-9.519983	-0.141623	-0.484477	0.136897	-0.417733	-0.024445	0.009023	-0.015848
918	4.628610	0.005000	1.245068	-9.521006	-0.074778	-0.485041	0.136445	-0.417985	-0.012358	0.015985	-0.015831
919	4.633610	0.005000	1.189507	-9.613800	-0.182733	-0.485606	0.135993	-0.418237	-0.019136	0.013285	-0.005851
920	4.638610	0.005000	1.085970	-9.587310	-0.170701	-0.486171	0.135541	-0.418490	-0.016184	0.009784	-0.014586
921	4.643610	0.005000	1.083225	-9.613800	-0.066608	-0.486735	0.135089	-0.418742	-0.016453	0.007974	-0.005727
922	4.648610	0.005000	1.160330	-9.541005	-0.022370	-0.487300	0.134638	-0.418994	-0.019962	0.015211	-0.007722
923	4.653610	0.005000	1.294920	-9.398685	-0.059565	-0.487865	0.134186	-0.419246	-0.008478	0.016054	-0.017908
924	4.658610	0.005000	1.207300	-9.475120	-0.096760	-0.488429	0.133734	-0.419499	-0.008012	0.002872	-0.008429
925	4.663610	0.005000	1.059480	-9.504678	-0.218244	-0.488994	0.133282	-0.419751	-0.015931	0.014338	-0.024366
926	4.668610	0.005000	1.106295	-9.503655	-0.158323	-0.489548	0.132837	-0.420005	-0.005160	0.014046	-0.013612
927	4.673610	0.005000	1.255680	-9.528767	0.071927	-0.489209	0.132950	-0.420383	-0.005676	0.020081	-0.011635
928	4.678610	0.005000	1.210843	-9.540917	-0.016790	-0.488870	0.133063	-0.420761	-0.020406	0.021937	-0.018175
929	4.683610	0.005000	1.147906	-9.501053	-0.009946	-0.488531	0.133176	-0.421140	-0.004020	0.008639	-0.009670
930	4.688610	0.005000	1.090788	-9.574560	-0.101857	-0.488193	0.133289	-0.421518	-0.017749	0.019255	-0.020382
931	4.693610	0.005000	1.068416	-9.499059	-0.090395	-0.487854	0.133402	-0.421897	-0.011724	0.014744	-0.020789
932	4.698610	0.005000	1.179586	-9.493694	-0.228283	-0.487515	0.133515	-0.422275	-0.020024	0.015771	-0.014963
933	4.703610	0.005000	1.215077	-9.456840	-0.117720	-0.487176	0.133628	-0.422653	-0.021398	0.018234	-0.020890
934	4.708610	0.005000	1.137270	-9.456840	-0.078825	-0.486837	0.133741	-0.423032	-0.021563	0.012280	-0.007668
935	4.713610	0.005000	1.176596	-9.534917	-0.039643	-0.486499	0.133854	-0.423410	-0.010274	0.017149	-0.017299
936	4.718610	0.005000	1.174752	-9.537768	-0.116496	-0.486160	0.133966	-0.423788	-0.014257	0.005803	-0.010567
937	4.723610	0.005000	1.175412	-9.615588	-0.114144	-0.485821	0.134079	-0.424167	-0.012707	0.018717	-0.018766
938	4.728610	0.005000	1.174412	-9.653040	-0.117720	-0.485482	0.134192	-0.424545	-0.004541	0.013664	-0.012522
939	4.733610	0.005000	1.177200	-9.578371	-0.039240	-0.485143	0.134305	-0.424924	-0.025467	0.020995	-0.013197
940	4.738610	0.005000	1.207598	-9.544162	-0.087322	-0.484895	0.134238	-0.424396	-0.024010	0.011417	-0.024011
941	4.743610	0.005000	1.261071	-9.670716	-0.016173	-0.484669	0.134125	-0.423639	-0.000281	0.003186	-0.010983
942	4.748610	0.005000	1.183598	-9.620198	-0.006398	-0.484443	0.134012	-0.422881	-0.015711	0.015882	-0.019843
943	4.753610	0.005000	1.184620	-9.535320	-0.119858	-0.484217	0.133899	-0.422124	-0.007946	0.003672	-0.012504
944	4.758610	0.005000	1.145938	-9.558604	-0.078480	-0.483991	0.133786	-0.421367	-0.009356	0.018298	-0.011296
945	4.763610	0.005000	1.116721	-9.613800	-0.187199	-0.483765	0.133673	-0.420610	-0.008670	0.011912	-0.022068
946	4.768610	0.005000	1.167177	-9.565389	-0.107697	-0.483539	0.133560	-0.419853	-0.001780	0.014776	-0.006265
947	4.773610	0.005000	1.230026	-9.488536	-0.167525	-0.483313	0.133447	-0.419096	-0.007589	0.022015	-0.015708
948	4.778610	0.005000	1.216440	-9.496080	-0.129308	-0.483087	0.133334	-0.418339	-0.018146	0.016982	-0.009900
949	4.783610	0.005000	1.191880	-9.574560	-0.210880	-0.482861	0.133221	-0.417582	-0.005044	0.016559	-0.010850
950	4.788610	0.005000	1.242528	-9.600865	-0.131089	-0.482635	0.133108	-0.416825	-0.006191	0.013557	-0.013826
951	4.793610	0.005000	1.154217	-9.549194	-0.064606	-0.482409	0.132995	-0.416067	-0.019942	0.021767	-0.016706
952	4.798610	0.005000	1.128185	-9.569603	-0.078480	-0.482183	0.132882	-0.415310	-0.014247	0.017924	-0.027429
953	4.803610	0.005000	1.137960	-9.574560	-0.062734	-0.481957	0.132969	-0.414777	-0.009761	0.010342	-0.010342
954	4.808610	0.005000	1.199678	-9.535320	-0.134482	-0.481731	0.133195	-0.414398	-0.013789	0.018344	-0.022526
955	4.813610	0.005000	1.316840	-9.513400	-0.056560	-0.481505	0.133421	-0.414020	0.002172	0.015121	-0.005144
956	4.818610	0.005000	1.195542	-9.535320	0.036684	-0.481279	0.133647	-0.413642	-0.006414	0.015732	-0.011241
957	4.823610	0.005000	1.216440	-9.495569	-0.078991	-0.481053	0.133873	-0.413263	-0.007077	0.012355	-0.010124
958	4.828610	0.005000	1.216440	-9.573987	-0.059147	-0.480827	0.134099	-0.412885	0.004201	0.010676	-0.015706
959	4.833610	0.005000	1.219058	-9.574560	-0.057551	-0.480601	0.134325	-0.412506	-0.007880	0.017203	-0.021025
960	4.838610	0.005000	1.124692	-9.557057	-0.117720	-0.480375	0.134551	-0.412128	0.000859	0.013589	-0.009815
961	4.843610	0.005000	1.154706	-9.552066	-0.016746	-0.480149	0.134776	-0.411750	0.007095	0.014073	-0.002502
962	4.848610	0.005000	1.122236	-9.613800	-0.086412	-0.479923	0.135002	-0.411371	-0.006082	0.010983	-0.001370
963	4.853610	0.005000	1.182593	-9.535320	-0.166445	-0.479697	0.135228	-0.410993	-0.009749	0.013083	-0.007995
964	4.858610	0.005000	1.152109	-9.481931	-0.078480	-0.479471	0.135454	-0.410614	-0.005687	0.015653	-0.017104
965	4.863610	0.005000	1.242714	-9.482773	-0.104583	-0.479245	0.135680	-0.410236	-0.008518	0.005837	-0.002930
966	4.868610	0.005000	1.255680	-9.481359	-0.066220	-0.479274	0.135609	-0.410190	-0.008551	0.015965	-0.014271
967	4.873610	0.005000	1.137960	-9.535320	-0.027683	-0.479726	0.135044	-0.410694	-0.003229	0.004507	-0.002231
968	4.878610	0.005000	1.109254	-9.613800	-0.099548	-0.480178	0.134479	-0.411199	-0.015488	0.015105	-0.003871
969	4.883610	0.005000	1.197181	-9.564930	-0.166590	-0.480630	0.133914	-0.411703	-0.007506	0.018280	-0.008509
970	4.888610	0.005000	1.164869	-9.478141	-0.060541	-0.481081	0.133350	-0.412208	-0.011613	0.013576	-0.003535
971	4.893610	0.005000	1.208493	-9.543267	-0.078480	-0.481533	0.132785	-0.412712	-0.014232	0.015037	-0.016818
972	4.898610	0.005000	1.158992	-9.606789	-0.018208	-0.481985	0.132220	-0.413217	0.001653	0.013961	-0.011599
973	4.903610	0.005000	1.170817	-9.535320	-0.019148	-0.482437	0.131655	-0.413721	-0.002409	0.023612	-0.018285
974	4.908610	0.005000	1.143320	-9.546040	-0.128440	-0.482889	0.131090	-0.414226	0.000794	0.013593	-0.011994
975	4.913610	0.005000	1.216440	-9.613800	-0.104551	-0.483341	0.130526	-0.414731	0.003626	0.017259	-0.004487
976	4.918610	0.005000	1.180995	-9.527729	0.035445	-0.483793	0.129961	-0.415235	0.003031	0.014290	-0.019749
977	4.923610	0.005000	1.252907	-9.456840	-0.114947	-0.484244	0.129396	-0.415740	-0.002846	0.011232	-0.011398
978	4.928610	0.005000	1.246819	-9.498295	-0.154745	-0.484696	0.128831	-0.416244	-0.003516	0.014688	-0.015304
979	4.933610	0.005000	1.097527	-9.534127	-0.073709	-0.485075	0.128468	-0.416708	-0.002250	0.010867	-0.014372
980	4.938610	0.005000	1.098893	-9.574733	-0.039067	-0.485075	0.129146	-0.416960	-0.009391	0.021761	-0.011990
981	4.943610	0.005000	1.215696	-9.613800	-0.038868	-0.485075	0.129824	-0.417213	0.004574	0.008861	-0.006709
982	4.948610	0.005000	1.216440	-9.496080	-0.037846	-0.485075	0.130502	-0.417465	0.000916	0.012334	-0.000281
983	4.953610	0.005000	1.145210	-9.498497	-0.034407	-0.485075	0.131180	-0.417717	-0.004477	0.011603	-0.012556
984	4.958610	0.005000	1.168213	-9.496080	-0.039240	-0.485075	0.131858	-0.417970	-0.006238	0.007196	-0.010576
985	4.963610	0.005000	1.251699	-9.508024	-0.082461	-0.485075	0.132536	-0.418222	-0.008003	0.015685	-0.019792
986	4.968610	0.005000	1.245672	-9.501084	-0.191196	-0.485075	0.133214	-0.418474	-0.011349	0.011369	-0.014469
987	4.973610	0.005000	1.098720	-9.501641	-0.224317	-0.485075	0.133892	-0.418727	-0.007457	0.010360	-0.011065
988	4.978610	0.005000	1.105288	-9.528752	-0.104754	-0.485075	0.134570	-0.418979	-0.012412	0.020103	-0.017437
989	4.983610	0.005000	1.145172	-9.567348	0.024817	-0.485075	0.135248	-0.419231	-0.006942	0.011720	-0.008451
990	4.988610	0.005000	1.129811	-9.535320	0.031091	-0.485075	0.135926	-0.419484	-0.007043	0.012217	-0.014733
991	4.993610	0.005000	1.137960	-9.604629	0.099378	-0.485075	0.136604	-0.419736	-0.013243	0.022266	-0.026569
992	4.998610	0.005000	1.148153	-9.477227	0.040774	-0.485075	0.137282	-0.419988	-0.013661	0.013944	-0.016998
993	5.003610	0.005000	1.237911	-9.524584	-0.021471	-0.484967	0.137205	-0.420000	-0.009455	0.005662	-0.006045
994	5.008610	0.005000	1.177200	-9.535320	-0.011758	-0.484854	0.137092	-0.420000	-0.018892	0.012613	-0.021776
995	5.013610	0.005000	1.150740	-9.496080	-0.157859	-0.484741	0.136980	-0.420000	-0.014597	0.020615	-0.019822
996	5.018610	0.005000	1.110984	-9.600312	-0.052728	-0.484628	0.136867	-0.420000	-0.004192	0.019532	-0.014050
997	5.023610	0.005000	1.212645	-9.599455	-0.167510	-0.484516	0.136754	-0.420000	-0.011368	0.018321	-0.011688
998	5.028610	0.005000	1.168695	-9.535320	-0.109215	-0.484403	0.136641	-0.420000	-0.006511	0.019747	-0.017293
999	5.033610	0.005000	1.170740	-9.558170	-0.078480	-0.484290	0.136528	-0.420000	-0.005181	0.018869	-0.010885
1000	5.038610	0.005000	1.238748	-9.546877	-0.223883	-0.484177	0.136415	-0.420000	-0.008343	0.016694	-0.013172
1001	5.043610	0.005000	1.134629	-9.574560	-0.135675	-0.484064	0.136302	-0.420000	-0.006148	0.012030	-0.013666
1002	5.048610	0.005000	1.039217	-9.672017	-0.078480	-0.483951	0.136190	-0.420000	-0.013007	0.017325	-0.014430
1003	5.053610	0.005000	1.137960	-9.554855	0.019876	-0.483838	0.136077	-0.420000	-0.006180	0.020337	-0.011585
1004	5.058610	0.005000	1.137960	-9.535320	0.039240	-0.483725	0.135964	-0.420000	-0.010643	0.012363	-0.013053
1005	5.063610	0.005000	1.190987	-9.496080	0.017676	-0.483612	0.135851	-0.420000	-0.015659	0.024635	-0.022133
1006	5.068610	0.005000	1.059480	-9.591678	-0.112716	-0.483665	0.135738	-0.419907	-0.004154	0.014747	-0.007711
1007	5.073610	0.005000	1.128913	-9.542369	-0.156960	-0.483778	0.135625	-0.419781	-0.011606	0.017457	-0.018937
1008	5.078610	0.005000	1.074553	-9.471913	-0.054313	-0.483891	0.135512	-0.419655	-0.015347	0.014928	-0.009390
1009	5.083610	0.005000	1.088542	-9.603622	-0.088658	-0.484004	0.135399	-0.419529	-0.008059	0.021564	-0.013008
1010	5.088610	0.005000	1.229949	-9.509589	-0.144737	-0.484117	0.135286	-0.419403	-0.015716	0.013133	-0.015410
1011	5.093610	0.005000	1.164714	-9.547806	-0.037458	-0.484230	0.135173	-0.419277	-0.020807	0.018690	-0.023882
1012	5.098610	0.005000	1.188806	-9.590588	-0.094508	-0.484343	0.135060	-0.419151	-0.018061	0.026388	-0.016930
1013	5.103610	0.005000	1.205518	-9.574560	-0.078480	-0.484456	0.134947	-0.419024	-0.015663	0.017592	-0.012680
1014	5.108610	0.005000	1.187099	-9.564661	-0.156960	-0.484569	0.134834	-0.418898	-0.017876	0.020866	-0.020838
1015	5.113610	0.005000	1.177200	-9.465823	-0.178234	-0.484682	0.134721	-0.418772	-0.008647	0.014447	-0.011386
1016	5.118610	0.005000	1.154604	-9.588833	-0.101076	-0.484795	0.134608	-0.418646	-0.014362	0.019637	-0.026976
1017	5.123610	0.005000	1.280296	-9.567248	-0.078480	-0.484908	0.134495	-0.418520	-0.014172	0.017444	-0.030874
1018	5.128610	0.005000	1.216440	-9.568195	-0.150595	-0.485021	0.134382	-0.418394	-0.003703	0.012425	-0.004141
1019	5.133610	0.005000	1.182932	-9.563096	-0.106256	-0.485251	0.134328	-0.418464	-0.014328	0.017712	-0.021871
1020	5.138610	0.005000	1.177200	-9.431728	-0.191491	-0.485590	0.134328	-0.418717	-0.016719	0.002903	-0.009447
1021	5.143610	0.005000	1.177200	-9.539053	-0.160693	-0.485929	0.134328	-0.418969	-0.006166	0.006200	-0.009193
1022	5.148610	0.005000	1.134815	-9.610655	-0.039240	-0.486268	0.134328	-0.419221	-0.019652	0.017438	-0.025031
1023	5.153610	0.005000	1.135838	-9.570315	-0.119842	-0.486607	0.134328	-0.419474	-0.016518	0.016329	-0.016766
1024	5.158610	0.005000	1.178300	-9.498280	-0.079580	-0.486946	0.134328	-0.419726	-0.023633	0.022064	-0.026335
1025	5.163610	0.005000	1.176642	-9.575118	0.038125	-0.487285	0.134328	-0.419979	-0.024537	0.013185	-0.013302
1026	5.168610	0.005000	1.099185	-9.575025	0.038311	-0.487624	0.134328	-0.420231	-0.014927	0.016168	-0.019489
1027	5.173610	0.005000	1.140934	-9.499054	-0.076993	-0.487963	0.134328	-0.420484	-0.016581	0.013990	-0.017426
1028	5.178610	0.005000	1.286702	-9.574560	-0.152851	-0.488302	0.134328	-0.420736	-0.018772	0.020629	-0.011136
1029	5.183610	0.005000	1.294920	-9.571508	-0.147805	-0.488641	0.134328	-0.420988	-0.018553	0.011444	-0.022959
1030	5.188610	0.005000	1.228663	-9.508303	0.031091	-0.488980	0.134328	-0.421241	-0.016619	0.014839	-0.016870
1031	5.193610	0.005000	1.334160	-9.496080	0.000000	-0.489319	0.134328	-0.421493	-0.024381	0.021021	-0.026928
1032	5.198610	0.005000	1.137960	-9.468149	-0.117720	-0.489306	0.134328	-0.421667	-0.017019	0.009835	-0.010939
1033	5.203610	0.005000	1.183877	-9.561206	-0.124397	-0.488515	0.134328	-0.421667	-0.020080	0.017449	-0.015698
1034	5.208610	0.005000	1.130276	-9.559192	-0.165465	-0.487724	0.134328	-0.421667	-0.017627	0.004896	-0.019311
1035	5.213610	0.005000	1.137960	-9.630481	-0.227100	-0.486934	0.134328	-0.421667	-0.012217	0.009977	-0.008171
1036	5.218610	0.005000	1.096536	-9.553848	-0.156960	-0.486143	0.134328	-0.421667	-0.013144	0.024663	-0.013175
1037	5.223610	0.005000	1.206154	-9.525034	-0.117720	-0.485352	0.134328	-0.421667	-0.005622	0.006041	-0.008980
1038	5.228610	0.005000	1.198857	-9.467669	-0.078480	-0.484562	0.134328	-0.421667	-0.023535	0.015975	-0.021059
1039	5.233610	0.005000	1.231978	-9.496080	-0.129571	-0.483771	0.134328	-0.421667	-0.023715	0.008041	-0.018858
1040	5.238610	0.005000	1.282373	-9.455240	-0.080080	-0.482980	0.134328	-0.421667	-0.006239	-0.000819	-0.002054
1041	5.243610	0.005000	1.255680	-9.430009	-0.155953	-0.482190	0.134328	-0.421667	-0.008206	0.006781	-0.006949
1042	5.248610	0.005000	1.259754	-9.520882	-0.206564	-0.481399	0.134328	-0.421667	-0.006641	0.010129	-0.001719
1043	5.253610	0.005000	1.153421	-9.598339	-0.203342	-0.480608	0.134328	-0.421667	-0.011949	0.017522	-0.012769
1044	5.258610	0.005000	1.255680	-9.535320	-0.235440	-0.479818	0.134328	-0.421667	-0.011211	0.007004	-0.016070
1045	5.263610	0.005000	1.194232	-9.473872	-0.100688	-0.479148	0.134284	-0.421446	-0.009736	0.022335	-0.011363
1046	5.268610	0.005000	1.198392	-9.435648	-0.175008	-0.479600	0.133832	-0.419176	-0.012755	0.016728	-0.010788
1047	5.273610	0.005000	1.197835	-9.535320	-0.117720	-0.480052	0.133380	-0.416905	-0.002218	0.017806	-0.007650
1048	5.278610	0.005000	1.196843	-9.535335	-0.058868	-0.480504	0.132929	-0.414635	-0.005051	0.021881	-0.017690
1049	5.283610	0.005000	1.194420	-9.533720	-0.020420	-0.480955	0.132477	-0.412365	-0.009080	0.005040	-0.002467
1050	5.288610	0.005000	1.159152	-9.613800	-0.075335	-0.481407	0.132025	-0.410094	-0.013254	0.015045	-0.015392
1051	5.293610	0.005000	1.228276	-9.540510	-0.095505	-0.481859	0.131573	-0.407824	-0.005276	0.010797	-0.018028
1052	5.298610	0.005000	1.246912	-9.480077	-0.172963	-0.482311	0.131121	-0.405554	0.002602	0.013711	-0.009223
1053	5.303610	0.005000	1.263999	-9.456840	-0.196200	-0.482763	0.130670	-0.403283	-0.007430	0.022108	-0.008519
1054	5.308610	0.005000	1.137960	-9.471278	-0.078480	-0.483215	0.130218	-0.401013	-0.003823	0.012251	-0.008676
1055	5.313610	0.005000	1.242264	-9.535320	-0.091896	-0.483667	0.129766	-0.398743	0.006765	0.014424	-0.018157
1056	5.318610	0.005000	1.098720	-9.587423	-0.130583	-0.484119	0.129314	-0.396472	-0.003849	0.014966	-0.007360
1057	5.323610	0.005000	1.137960	-9.586411	-0.145109	-0.484570	0.128862	-0.394202	0.004321	0.019092	-0.014370
1058	5.328610	0.005000	1.148789	-9.524491	-0.185371	-0.485022	0.128411	-0.391932	-0.011169	0.018375	-0.022410
1059	5.333610	0.005000	1.206169	-9.584831	-0.126147	-0.486272	0.127460	-0.392224	-0.009717	0.008772	-0.004662
1060	5.338610	0.005000	1.068728	-9.623048	-0.069232	-0.487628	0.126443	-0.392855	-0.005453	0.013541	-0.007323
1061	5.343610	0.005000	1.146186	-9.653040	0.022788	-0.488983	0.125427	-0.393485	0.001973	0.011965	0.001165
1062	5.348610	0.005000	1.216440	-9.520734	0.031947	-0.490338	0.124410	-0.394116	-0.000407	0.020882	-0.012262
1063	5.353610	0.005000	1.223101	-9.502741	-0.039240	-0.491694	0.123394	-0.394747	-0.004106	0.011032	-0.002921
1064	5.358610	0.005000	1.137960	-9.451201	-0.072841	-0.493049	0.122377	-0.395377	-0.005047	0.018088	-0.005740
1065	5.363610	0.005000	1.064154	-9.500754	-0.043914	-0.494404	0.121361	-0.396008	-0.005363	0.018233	-0.019065
1066	5.368610	0.005000	1.137960	-9.500154	-0.082554	-0.495760	0.120344	-0.396638	0.004876	0.011552	-0.008640
1067	5.373610	0.005000	1.222544	-9.499132	-0.006104	-0.497115	0.119328	-0.397269	-0.013314	0.019600	-0.008717
1068	5.378610	0.005000	1.216440	-9.653040	-0.115210	-0.498471	0.118311	-0.397900	-0.006414	0.007710	-0.003999
1069	5.383610	0.005000	1.217927	-9.687818	-0.116233	-0.499826	0.117294	-0.398530	-0.005896	0.018219	-0.007076
1070	5.388610	0.005000	1.294920	-9.534850	-0.118190	-0.501181	0.116278	-0.399161	-0.021986	0.012830	-0.018632
1071	5.393610	0.005000	1.099185	-9.496080	-0.039519	-0.502537	0.115261	-0.399791	-0.022459	0.014921	-0.010841
1072	5.398610	0.005000	1.100951	-9.573445	-0.270218	-0.502229	0.115530	-0.400591	-0.016346	0.022833	-0.017568
1073	5.403610	0.005000	1.212164	-9.611662	-0.191924	-0.501100	0.116433	-0.401474	-0.012991	0.016831	-0.012192
1074	5.408610	0.005000	1.252967	-9.611087	-0.117720	-0.499970	0.117337	-0.402357	-0.013975	0.015485	-0.010715
1075	5.413610	0.005000	1.255680	-9.570858	-0.110315	-0.498841	0.118241	-0.403240	-0.003536	0.020498	-0.014759
1076	5.418610	0.005000	1.216440	-9.609075	-0.122445	-0.497711	0.119144	-0.404123	-0.010451	0.012007	-0.007693
1077	5.423610	0.005000	1.289653	-9.394161	-0.107186	-0.496582	0.120048	-0.405005	-0.013289	0.014986	-0.010119
1078	5.428610	0.005000	1.216440	-9.436469	-0.039240	-0.495452	0.120952	-0.405888	-0.009439	0.011060	-0.002567
1079	5.433610	0.005000	1.294920	-9.520696	-0.031928	-0.494323	0.121855	-0.406771	-0.012169	0.020827	-0.015605
1080	5.438610	0.005000	1.200732	-9.582414	-0.039240	-0.493193	0.122759	-0.407654	0.004644	0.014633	-0.016061
1081	5.443610	0.005000	1.129083	-9.556807	-0.008877	-0.492064	0.123663	-0.408537	-0.008245	0.014313	-0.010246
