# FOX Logger (IMU file)
# (c) INRIA 2011-2014
# File created from file sensbiotk output
#
# File format:
# id	t	dt	ax	ay	az	mx	my	mz	gx	gy	gz
#
# Units:
#	Time: s
#	Acceleration: m.s^-2
#	Magneto: gauss
#	Gyrometer: rad/s
#
1	0.054688	0.054688	9.015876	1.648080	1.575234	-0.714925	-0.376119	-0.295000	-0.016612	-0.003556	-0.001518
2	0.059688	0.005000	9.076989	1.633939	1.712419	-0.714373	-0.375567	-0.295370	-0.014968	-0.011071	0.004007
3	0.064688	0.005000	9.093074	1.608840	1.697926	-0.713821	-0.375015	-0.295740	-0.013810	-0.003425	0.005547
4	0.069688	0.005000	9.103680	1.656271	1.821422	-0.713268	-0.374462	-0.296110	-0.021905	-0.004494	0.006760
5	0.074688	0.005000	9.109465	1.826925	1.777370	-0.712716	-0.373910	-0.296480	-0.019172	-0.011379	0.012318
6	0.079688	0.005000	9.142920	1.687320	1.616434	-0.712164	-0.373358	-0.296850	-0.010391	-0.003933	-0.000139
7	0.084688	0.005000	9.142920	1.611688	1.688744	-0.711612	-0.372806	-0.297220	-0.015613	-0.017924	-0.000342
8	0.089688	0.005000	9.142920	1.687320	1.765280	-0.711060	-0.372254	-0.297590	-0.014905	0.000549	0.003243
9	0.094688	0.005000	9.142920	1.726560	1.802116	-0.710507	-0.371701	-0.297960	-0.010714	-0.005404	0.010922
10	0.099688	0.005000	9.142920	1.658639	1.669198	-0.709955	-0.371149	-0.298330	-0.015431	-0.003555	0.004196
11	0.104688	0.005000	9.221400	1.584909	1.789731	-0.709403	-0.370597	-0.298700	-0.010663	-0.004025	-0.001736
12	0.109688	0.005000	9.142920	1.628697	1.745943	-0.708851	-0.370045	-0.299070	-0.009644	-0.019216	0.004496
13	0.114688	0.005000	9.142920	1.672291	1.635974	-0.708298	-0.369492	-0.299440	-0.017096	0.000607	-0.005500
14	0.119688	0.005000	9.064440	1.651862	1.790699	-0.707746	-0.368940	-0.299810	-0.010904	-0.009804	0.009386
15	0.124688	0.005000	9.142920	1.703772	1.798704	-0.708162	-0.369141	-0.299219	-0.005704	0.005549	0.014351
16	0.129688	0.005000	9.103680	1.666942	1.725044	-0.709598	-0.370135	-0.297616	-0.003951	-0.007495	0.012127
17	0.134688	0.005000	9.121893	1.684506	1.723746	-0.711034	-0.371129	-0.296012	-0.005017	-0.013076	0.005337
18	0.139688	0.005000	9.096487	1.735391	1.851473	-0.712470	-0.372123	-0.294409	-0.018243	0.001598	-0.001833
19	0.144688	0.005000	9.168549	1.765800	1.740171	-0.713906	-0.373117	-0.292806	-0.010510	-0.011323	0.007235
20	0.149688	0.005000	9.036403	1.715357	1.648080	-0.715342	-0.374111	-0.291202	-0.022261	0.007087	0.002793
21	0.154688	0.005000	9.064440	1.678061	1.717301	-0.716777	-0.375106	-0.289599	-0.003512	-0.008519	-0.000883
22	0.159688	0.005000	9.136076	1.701007	1.661767	-0.718213	-0.376100	-0.287995	-0.011225	0.001513	0.006602
23	0.164688	0.005000	9.118202	1.721719	1.682479	-0.719649	-0.377094	-0.286392	-0.018495	0.001962	0.001210
24	0.169688	0.005000	9.140425	1.726560	1.697298	-0.721085	-0.378088	-0.284789	-0.012365	-0.005322	0.002642
25	0.174688	0.005000	9.064440	1.726637	1.844357	-0.722521	-0.379082	-0.283185	-0.015022	-0.000406	-0.004213
26	0.179688	0.005000	9.027067	1.728427	1.808774	-0.723957	-0.380076	-0.281582	-0.013681	-0.019916	-0.003327
27	0.184688	0.005000	9.177888	1.761528	1.835737	-0.725393	-0.381070	-0.279978	-0.017747	-0.001070	0.016250
28	0.189688	0.005000	9.084272	1.733171	1.779021	-0.726828	-0.382064	-0.278375	-0.014050	-0.009020	0.005120
29	0.194688	0.005000	9.073060	1.726560	1.765800	-0.726436	-0.381767	-0.279054	-0.013305	-0.013084	0.012864
30	0.199688	0.005000	9.142920	1.726560	1.877383	-0.725994	-0.381436	-0.279794	-0.015712	0.001298	-0.000718
31	0.204688	0.005000	9.116962	1.700602	1.779082	-0.725552	-0.381105	-0.280534	-0.008036	-0.013116	0.008358
32	0.209688	0.005000	9.016733	1.678853	1.719640	-0.725110	-0.380773	-0.281274	-0.010508	-0.002289	0.002481
33	0.214688	0.005000	9.046641	1.669521	1.844280	-0.724669	-0.380442	-0.282014	-0.004453	-0.003455	0.007264
34	0.219688	0.005000	9.123889	1.764621	1.650438	-0.724227	-0.380110	-0.282754	-0.010741	0.004538	0.013409
35	0.224688	0.005000	9.019724	1.704202	1.575076	-0.723785	-0.379779	-0.283494	-0.020013	0.002275	-0.002532
36	0.229688	0.005000	9.093793	1.643290	1.623517	-0.723343	-0.379448	-0.284234	-0.012668	-0.005103	0.005352
37	0.234688	0.005000	9.130334	1.621426	1.660666	-0.722901	-0.379116	-0.284974	-0.014457	0.000000	0.008418
38	0.239688	0.005000	9.113999	1.687320	1.677001	-0.722460	-0.378785	-0.285714	-0.005258	-0.011916	0.003470
39	0.244688	0.005000	9.166335	1.734472	1.608840	-0.722018	-0.378454	-0.286454	-0.012445	-0.002138	0.007271
40	0.249688	0.005000	9.058540	1.626539	1.653980	-0.721576	-0.378122	-0.287194	-0.005840	-0.001718	0.002406
41	0.254688	0.005000	9.132264	1.690872	1.730112	-0.721134	-0.377791	-0.287934	-0.006638	0.000804	0.010207
42	0.259688	0.005000	9.025200	1.725412	1.725412	-0.720642	-0.377510	-0.288674	-0.006990	-0.001697	-0.005700
43	0.264688	0.005000	8.986756	1.687320	1.687320	-0.720089	-0.377289	-0.289414	-0.003363	-0.005350	0.006318
44	0.269688	0.005000	9.139720	1.693720	1.612040	-0.719537	-0.377068	-0.290154	-0.008687	-0.002274	0.010418
45	0.274688	0.005000	9.098128	1.659183	1.619943	-0.718985	-0.376848	-0.290894	0.006201	-0.007796	0.005300
46	0.279688	0.005000	9.167039	1.640520	1.608840	-0.718433	-0.376627	-0.291634	-0.000183	-0.005418	0.012307
47	0.284688	0.005000	9.142920	1.608840	1.608840	-0.717880	-0.376406	-0.292374	-0.005164	-0.002063	0.005867
48	0.289688	0.005000	9.142920	1.620751	1.730066	-0.717328	-0.376185	-0.293114	0.008423	-0.003503	0.012237
49	0.294688	0.005000	9.053849	1.776391	1.697911	-0.716776	-0.375964	-0.293854	-0.005877	-0.000196	-0.005959
50	0.299688	0.005000	9.047906	1.736922	1.670786	-0.716223	-0.375743	-0.294594	-0.005757	-0.009714	-0.000936
51	0.304688	0.005000	9.141037	1.726560	1.745238	-0.715671	-0.375522	-0.295334	-0.008858	0.001527	0.001527
52	0.309688	0.005000	9.082591	1.744711	1.747649	-0.715119	-0.375301	-0.296074	-0.012934	0.003013	-0.000832
53	0.314688	0.005000	9.064440	1.749780	1.821060	-0.714567	-0.375080	-0.296814	-0.011067	-0.012476	0.013057
54	0.319688	0.005000	9.078070	1.649729	1.803391	-0.714014	-0.374860	-0.297554	-0.008483	0.004531	0.000489
55	0.324688	0.005000	9.103680	1.670853	1.703787	-0.713462	-0.374639	-0.298294	-0.006916	-0.000774	0.005955
56	0.329688	0.005000	9.064440	1.687320	1.605487	-0.713224	-0.375150	-0.298450	-0.007578	-0.000440	0.010605
57	0.334688	0.005000	9.142920	1.733503	1.687320	-0.713003	-0.375702	-0.298573	-0.007872	-0.009545	0.002092
58	0.339688	0.005000	9.103680	1.770424	1.756553	-0.712782	-0.376254	-0.298696	-0.010453	-0.010181	0.010895
59	0.344688	0.005000	9.142920	1.763581	1.650299	-0.712561	-0.376806	-0.298820	-0.008338	-0.006165	0.003971
60	0.349688	0.005000	9.142648	1.688137	1.766345	-0.712341	-0.377358	-0.298943	-0.001135	-0.011083	0.017696
61	0.354688	0.005000	9.103680	1.730845	1.770085	-0.712120	-0.377910	-0.299066	-0.012270	-0.004020	0.006199
62	0.359688	0.005000	9.094694	1.731053	1.735546	-0.711899	-0.378462	-0.299190	-0.011440	-0.007205	0.000291
63	0.364688	0.005000	9.096797	1.712794	1.712794	-0.711678	-0.379014	-0.299313	-0.001667	-0.008843	0.005207
64	0.369688	0.005000	9.012681	1.665894	1.687320	-0.711457	-0.379566	-0.299436	-0.002264	-0.009185	0.000269
65	0.374688	0.005000	9.013886	1.676006	1.720543	-0.711237	-0.380118	-0.299560	-0.000510	-0.002613	0.015101
66	0.379688	0.005000	9.141453	1.752231	1.714458	-0.711016	-0.380670	-0.299683	-0.006403	-0.002091	0.000442
67	0.384688	0.005000	9.095783	1.687320	1.640183	-0.710795	-0.381222	-0.299806	0.007271	-0.011016	-0.000587
68	0.389688	0.005000	9.046359	1.626921	1.551519	-0.710574	-0.381774	-0.299929	-0.000856	-0.003820	-0.001837
69	0.394688	0.005000	9.084695	1.707575	1.588585	-0.710732	-0.381523	-0.300317	-0.010325	-0.001832	0.006739
70	0.399688	0.005000	9.008396	1.709756	1.681688	-0.711394	-0.380197	-0.301057	-0.019735	-0.009615	0.004117
71	0.404688	0.005000	9.118072	1.687320	1.662472	-0.712057	-0.378872	-0.301797	-0.018418	-0.004648	-0.004746
72	0.409688	0.005000	9.115978	1.660378	1.738858	-0.712720	-0.377546	-0.302537	-0.013039	-0.010797	0.004425
73	0.414688	0.005000	9.141986	1.755757	1.716517	-0.713382	-0.376221	-0.303277	-0.014649	0.002578	0.004581
74	0.419688	0.005000	9.080770	1.694957	1.734197	-0.714045	-0.374895	-0.304017	-0.004665	-0.000756	0.007589
75	0.424688	0.005000	9.109307	1.765800	1.648080	-0.714708	-0.373570	-0.304757	-0.012858	-0.006687	0.010506
76	0.429688	0.005000	9.146196	1.687320	1.690596	-0.715370	-0.372245	-0.305497	-0.017715	-0.013339	-0.008397
77	0.434688	0.005000	9.066185	1.840791	1.799806	-0.716033	-0.370919	-0.306237	-0.010947	-0.019597	0.008689
78	0.439688	0.005000	9.142920	1.687320	1.645937	-0.716696	-0.369594	-0.306977	-0.017713	-0.001255	0.003218
79	0.444688	0.005000	9.185649	1.644591	1.651569	-0.717358	-0.368268	-0.307717	-0.008728	-0.007293	0.005747
80	0.449688	0.005000	9.142920	1.681496	1.687320	-0.718021	-0.366943	-0.308457	-0.011198	-0.004997	0.007998
81	0.454688	0.005000	9.103680	1.655919	1.726560	-0.718684	-0.365617	-0.309197	-0.010598	-0.005122	0.001900
82	0.459688	0.005000	9.171906	1.511628	1.658334	-0.719347	-0.364292	-0.309937	-0.015191	-0.011713	0.006826
83	0.464688	0.005000	9.196380	1.594620	1.845989	-0.718999	-0.365493	-0.309774	-0.010815	-0.000399	-0.000005
84	0.469688	0.005000	9.137470	1.604262	1.755772	-0.718557	-0.366928	-0.309528	-0.005542	-0.016278	0.012160
85	0.474688	0.005000	9.120698	1.709542	1.849483	-0.718115	-0.368364	-0.309281	-0.009935	-0.002881	0.001927
86	0.479688	0.005000	9.142920	1.646386	1.825084	-0.717673	-0.369800	-0.309034	-0.011048	-0.007619	0.004654
87	0.484688	0.005000	9.146426	1.590973	1.783667	-0.717232	-0.371236	-0.308788	-0.012261	-0.020037	-0.000165
88	0.489688	0.005000	9.072753	1.742023	1.781263	-0.716790	-0.372672	-0.308541	-0.016439	-0.011429	-0.002717
89	0.494688	0.005000	9.025200	1.687320	1.739917	-0.716348	-0.374108	-0.308294	-0.017712	-0.008551	0.019843
90	0.499688	0.005000	9.058533	1.709542	1.687320	-0.715906	-0.375544	-0.308048	-0.019863	0.001143	-0.009802
91	0.504688	0.005000	9.125528	1.709168	1.765800	-0.715464	-0.376980	-0.307801	-0.017700	-0.009089	-0.008578
92	0.509688	0.005000	9.116236	1.700662	1.700662	-0.715023	-0.378415	-0.307555	-0.025878	-0.006586	-0.004192
93	0.514688	0.005000	9.029546	1.717867	1.730906	-0.714581	-0.379851	-0.307308	-0.022564	-0.006927	-0.006582
94	0.519688	0.005000	9.106055	1.689695	1.726560	-0.714139	-0.381287	-0.307061	-0.011483	-0.004218	0.002633
95	0.524688	0.005000	9.142920	1.687335	1.726560	-0.713697	-0.382723	-0.306815	-0.013668	-0.002919	-0.014579
96	0.529688	0.005000	9.140530	1.687320	1.579160	-0.713344	-0.383183	-0.306717	-0.011365	-0.015169	0.003688
97	0.534688	0.005000	9.151647	1.726560	1.704743	-0.713123	-0.382189	-0.306840	-0.012915	-0.007142	-0.000693
98	0.539688	0.005000	9.071141	1.687320	1.700723	-0.712903	-0.381196	-0.306963	-0.021778	-0.016451	0.000484
99	0.544688	0.005000	9.081887	1.665527	1.687320	-0.712682	-0.380202	-0.307086	-0.019793	-0.009347	0.003241
100	0.549688	0.005000	9.092549	1.793909	1.665059	-0.712461	-0.379208	-0.307209	-0.020920	-0.012179	0.001147
101	0.554688	0.005000	9.064440	1.765800	1.805055	-0.712240	-0.378215	-0.307333	-0.018659	-0.008096	0.016872
102	0.559688	0.005000	9.079919	1.631514	1.709994	-0.712020	-0.377221	-0.307456	-0.011172	-0.007510	-0.006904
103	0.564688	0.005000	9.064440	1.665764	1.669636	-0.711799	-0.376228	-0.307579	-0.015825	-0.023634	0.005449
104	0.569688	0.005000	9.064440	1.705869	1.667486	-0.711578	-0.375234	-0.307702	-0.012756	-0.007071	0.007511
105	0.574688	0.005000	9.103680	1.849000	1.665340	-0.711357	-0.374240	-0.307826	-0.007306	-0.010542	-0.003613
106	0.579688	0.005000	9.079490	1.657220	1.663130	-0.711136	-0.373247	-0.307949	-0.005182	-0.014576	0.005846
107	0.584688	0.005000	9.117637	1.725244	1.726560	-0.710916	-0.372253	-0.308072	-0.010032	-0.009374	-0.001527
108	0.589688	0.005000	9.153147	1.745346	1.648080	-0.710695	-0.371259	-0.308195	-0.002447	-0.010347	0.007793
109	0.594688	0.005000	9.103680	1.749234	1.617123	-0.710474	-0.370266	-0.308319	-0.010933	-0.004150	-0.007805
110	0.599688	0.005000	9.176283	1.720683	1.659834	-0.710545	-0.370246	-0.308115	-0.010391	-0.009864	0.005074
111	0.604688	0.005000	9.170497	1.801152	1.730448	-0.710656	-0.370357	-0.307869	-0.013057	-0.006742	0.018180
112	0.609688	0.005000	9.100649	1.803524	1.687320	-0.710766	-0.370467	-0.307622	-0.015378	-0.008818	0.009775
113	0.614688	0.005000	8.910112	1.804163	1.687320	-0.710877	-0.370578	-0.307375	-0.013867	-0.012584	0.008736
114	0.619688	0.005000	8.985960	1.841448	1.687320	-0.710987	-0.370688	-0.307129	-0.004387	-0.002583	-0.000525
115	0.624688	0.005000	9.025200	1.810289	1.593092	-0.711097	-0.370799	-0.306882	-0.014578	-0.018604	0.008829
116	0.629688	0.005000	9.142920	1.819401	1.701681	-0.711208	-0.370909	-0.306635	-0.001708	0.000640	0.005469
117	0.634688	0.005000	9.074036	1.726560	1.716964	-0.711318	-0.371020	-0.306389	-0.004373	-0.013577	0.013057
118	0.639688	0.005000	9.076300	1.659940	1.722899	-0.711429	-0.371130	-0.306142	-0.010205	-0.006151	0.006566
119	0.644688	0.005000	9.078388	1.594892	1.791092	-0.711539	-0.371241	-0.305896	-0.013772	0.000478	-0.003693
120	0.649688	0.005000	9.097160	1.703680	1.759280	-0.711650	-0.371351	-0.305649	-0.016892	-0.009961	0.016426
121	0.654688	0.005000	9.105828	1.606692	1.705866	-0.711760	-0.371462	-0.305402	-0.019752	-0.001518	0.010350
122	0.659688	0.005000	9.126584	1.645891	1.687320	-0.711870	-0.371572	-0.305156	-0.005943	-0.017204	0.018917
123	0.664688	0.005000	9.064440	1.671205	1.726560	-0.711818	-0.371601	-0.305000	-0.004161	-0.011574	0.008172
124	0.669688	0.005000	9.128748	1.619737	1.715663	-0.711486	-0.371491	-0.305000	-0.012084	-0.000169	-0.007992
125	0.674688	0.005000	9.076198	1.593116	1.820764	-0.711155	-0.371380	-0.305000	-0.008476	-0.007590	0.002738
126	0.679688	0.005000	9.025200	1.628233	1.785193	-0.710824	-0.371270	-0.305000	-0.014754	-0.010996	0.004036
127	0.684688	0.005000	8.993367	1.679913	1.861298	-0.710492	-0.371159	-0.305000	-0.004677	-0.019678	0.004630
128	0.689688	0.005000	9.142920	1.692311	1.658062	-0.710161	-0.371049	-0.305000	-0.016037	0.001868	0.002873
129	0.694688	0.005000	9.139910	1.805040	1.687320	-0.709830	-0.370938	-0.305000	-0.015909	0.009879	0.002443
130	0.699688	0.005000	9.104323	1.725274	1.725917	-0.709499	-0.370828	-0.305000	-0.011520	-0.005908	0.006581
131	0.704688	0.005000	9.105420	1.760581	1.724820	-0.709167	-0.370717	-0.305000	-0.016861	-0.003387	-0.006926
132	0.709688	0.005000	9.043725	1.616250	1.758390	-0.708836	-0.370607	-0.305000	-0.014554	-0.010238	0.001974
133	0.714688	0.005000	9.064440	1.621083	1.693442	-0.708505	-0.370496	-0.305000	-0.015822	-0.007636	0.006573
134	0.719688	0.005000	9.064440	1.726560	1.648080	-0.708173	-0.370386	-0.305000	-0.001821	-0.020286	0.002605
135	0.724688	0.005000	9.135096	1.744856	1.755328	-0.707842	-0.370275	-0.305000	-0.007321	-0.000816	0.013096
136	0.729688	0.005000	9.037937	1.739297	1.686291	-0.707511	-0.370165	-0.305000	-0.011099	-0.008149	0.000586
137	0.734688	0.005000	9.088850	1.687320	1.653329	-0.707652	-0.370622	-0.305317	-0.015522	-0.010202	0.013936
138	0.739688	0.005000	9.059679	1.704559	1.805040	-0.707873	-0.371174	-0.305686	-0.015883	-0.003971	0.002446
139	0.744688	0.005000	9.083863	1.726560	1.746770	-0.708094	-0.371726	-0.306056	-0.007237	-0.007212	0.010712
140	0.749688	0.005000	9.086034	1.691268	1.730508	-0.708314	-0.372278	-0.306426	-0.010579	-0.006602	0.004018
141	0.754688	0.005000	9.064440	1.781034	1.687320	-0.708535	-0.372830	-0.306796	-0.012246	-0.009166	-0.003228
142	0.759688	0.005000	9.064440	1.674190	1.713430	-0.708756	-0.373382	-0.307166	-0.012583	-0.007827	0.001811
143	0.764688	0.005000	9.075321	1.608840	1.726560	-0.708977	-0.373934	-0.307536	-0.013160	0.003411	-0.007466
144	0.769688	0.005000	9.086747	1.634240	1.796573	-0.709198	-0.374486	-0.307905	-0.008917	-0.004627	0.009707
145	0.774688	0.005000	9.025200	1.706955	1.752730	-0.709418	-0.375038	-0.308275	-0.011429	-0.005366	0.002916
146	0.779688	0.005000	9.068558	1.726560	1.683202	-0.709639	-0.375590	-0.308645	-0.007029	-0.014718	0.003376
147	0.784688	0.005000	9.064440	1.720116	1.610988	-0.709860	-0.376142	-0.309015	-0.020575	-0.011694	0.007511
148	0.789688	0.005000	9.142461	1.725871	1.648080	-0.710081	-0.376694	-0.309385	-0.021591	-0.004069	0.000508
149	0.794688	0.005000	9.103680	1.802392	1.653375	-0.710302	-0.377246	-0.309755	-0.019774	-0.011842	0.010690
150	0.799688	0.005000	9.099089	1.800449	1.691911	-0.710634	-0.377575	-0.309958	-0.021205	-0.009224	-0.002398
151	0.804688	0.005000	9.039194	1.733557	1.798043	-0.711186	-0.377464	-0.309835	-0.008324	-0.010549	0.010704
152	0.809688	0.005000	9.094268	1.746976	1.765800	-0.711738	-0.377354	-0.309712	-0.011810	-0.009512	0.003537
153	0.814688	0.005000	9.047911	1.726560	1.821569	-0.712291	-0.377243	-0.309588	-0.008497	-0.003825	0.003940
154	0.819688	0.005000	9.168396	1.726560	1.687320	-0.712843	-0.377133	-0.309465	-0.007553	-0.012864	0.007094
155	0.824688	0.005000	9.151648	1.821029	1.655341	-0.713395	-0.377022	-0.309342	-0.008962	0.003715	0.004374
156	0.829688	0.005000	9.121800	1.726560	1.723560	-0.713947	-0.376912	-0.309218	-0.006296	-0.008133	0.008449
157	0.834688	0.005000	9.120567	1.629371	1.707851	-0.714499	-0.376801	-0.309095	-0.008092	0.003837	0.007562
158	0.839688	0.005000	9.149031	1.743124	1.720449	-0.715052	-0.376691	-0.308972	-0.012321	-0.010545	0.001833
159	0.844688	0.005000	9.103680	1.844280	1.765800	-0.715604	-0.376580	-0.308848	-0.008240	-0.018123	0.014910
160	0.849688	0.005000	9.115633	1.828945	1.753847	-0.716156	-0.376470	-0.308725	-0.006626	-0.003451	0.001952
161	0.854688	0.005000	9.172267	1.834387	1.785254	-0.716708	-0.376359	-0.308601	-0.008370	-0.011726	0.016173
162	0.859688	0.005000	9.142920	1.718966	1.741748	-0.717260	-0.376249	-0.308478	-0.013289	0.007156	0.006495
163	0.864688	0.005000	9.193324	1.771382	1.805040	-0.717813	-0.376138	-0.308355	-0.004647	-0.016305	-0.000745
164	0.869688	0.005000	9.142920	1.801796	1.798551	-0.717455	-0.375937	-0.308333	-0.011085	-0.006305	0.001497
165	0.874688	0.005000	9.103680	1.764147	1.686493	-0.716903	-0.375716	-0.308333	-0.016206	0.005183	0.004924
166	0.879688	0.005000	9.179926	1.763566	1.609957	-0.716351	-0.375495	-0.308333	-0.016251	-0.004358	0.011341
167	0.884688	0.005000	9.107201	1.694363	1.651601	-0.715799	-0.375274	-0.308333	-0.004529	0.007823	0.000722
168	0.889688	0.005000	9.209661	1.687320	1.636341	-0.715246	-0.375053	-0.308333	0.000524	-0.009163	0.008412
169	0.894688	0.005000	9.088085	1.655962	1.820635	-0.714694	-0.374833	-0.308333	-0.009260	-0.001850	0.006049
170	0.899688	0.005000	9.171872	1.705983	1.776088	-0.714142	-0.374612	-0.308333	-0.012260	-0.011600	0.001701
171	0.904688	0.005000	9.142920	1.673191	1.765800	-0.713590	-0.374391	-0.308333	-0.011151	-0.011509	0.008449
172	0.909688	0.005000	9.132972	1.554954	1.716612	-0.713038	-0.374170	-0.308333	-0.006959	-0.001978	0.006348
173	0.914688	0.005000	9.042052	1.608840	1.664932	-0.712485	-0.373949	-0.308333	-0.000196	-0.002030	0.010350
174	0.919688	0.005000	9.084453	1.785813	1.707333	-0.711933	-0.373728	-0.308333	-0.012769	0.010927	0.007197
175	0.924688	0.005000	9.146487	1.687320	1.783636	-0.711381	-0.373507	-0.308333	-0.006412	-0.008365	0.011300
176	0.929688	0.005000	9.119107	1.702747	1.765800	-0.710829	-0.373286	-0.308333	-0.008496	-0.007789	0.007914
177	0.934688	0.005000	9.103680	1.622167	1.634753	-0.710551	-0.373271	-0.308295	-0.019391	0.002455	-0.008542
178	0.939688	0.005000	9.064440	1.630979	1.787939	-0.710882	-0.373713	-0.308171	-0.006886	-0.011988	-0.002157
179	0.944688	0.005000	9.142920	1.709236	1.844280	-0.711213	-0.374155	-0.308048	-0.009627	0.004666	-0.003128
180	0.949688	0.005000	9.136279	1.693961	1.805040	-0.711545	-0.374597	-0.307925	-0.016645	-0.020533	0.003841
181	0.954688	0.005000	9.029502	1.687320	1.691622	-0.711876	-0.375038	-0.307802	-0.016550	-0.006090	0.000325
182	0.959688	0.005000	9.070133	1.720867	1.689218	-0.712207	-0.375480	-0.307678	-0.015181	-0.012060	-0.004855
183	0.964688	0.005000	9.064578	1.687228	1.648172	-0.712539	-0.375922	-0.307555	-0.016847	-0.012026	0.011293
184	0.969688	0.005000	9.061976	1.650544	1.839352	-0.712870	-0.376364	-0.307432	-0.016713	0.000315	0.001164
185	0.974688	0.005000	9.103680	1.661303	1.844280	-0.713201	-0.376805	-0.307308	-0.004883	-0.011022	0.003757
186	0.979688	0.005000	9.057627	1.758987	1.746999	-0.713533	-0.377247	-0.307185	-0.018262	-0.000190	-0.004711
187	0.984688	0.005000	9.133798	1.648080	1.696442	-0.713864	-0.377689	-0.307062	-0.013745	-0.008399	-0.002214
188	0.989688	0.005000	9.114841	1.793879	1.833119	-0.714195	-0.378131	-0.306939	-0.006388	-0.004126	0.006438
189	0.994688	0.005000	9.089249	1.727574	1.727574	-0.714527	-0.378573	-0.306815	-0.006510	-0.009227	0.002826
190	0.999688	0.005000	9.103680	1.718357	1.702838	-0.714858	-0.379014	-0.306692	-0.007001	-0.015286	0.009459
191	1.004688	0.005000	9.085752	1.666008	1.644696	-0.715277	-0.378928	-0.304995	-0.006652	-0.000432	0.001293
192	1.009688	0.005000	9.084544	1.627976	1.648080	-0.715719	-0.378707	-0.302899	-0.008296	-0.016281	0.008232
193	1.014688	0.005000	9.086723	1.648080	1.698951	-0.716161	-0.378486	-0.300802	-0.020885	-0.007187	0.009927
194	1.019688	0.005000	9.054289	1.712015	1.775951	-0.716603	-0.378265	-0.298705	-0.003707	-0.007111	-0.013455
195	1.024688	0.005000	9.142920	1.763909	1.674870	-0.717045	-0.378044	-0.296608	-0.003617	-0.002001	-0.003758
196	1.029688	0.005000	9.132727	1.784655	1.725030	-0.717487	-0.377823	-0.294512	-0.012968	0.007723	-0.002117
197	1.034688	0.005000	9.142920	1.710653	1.608840	-0.717928	-0.377603	-0.292415	-0.008839	-0.014001	0.005510
198	1.039688	0.005000	9.064440	1.765800	1.585786	-0.718370	-0.377382	-0.290318	-0.016534	0.001495	0.005420
199	1.044688	0.005000	9.139492	1.648080	1.608840	-0.718812	-0.377161	-0.288221	-0.008208	-0.006390	0.003548
200	1.049688	0.005000	9.103680	1.690351	1.647070	-0.719254	-0.376940	-0.286125	-0.015787	0.004104	0.004300
201	1.054688	0.005000	9.103680	1.805040	1.647146	-0.719696	-0.376719	-0.284028	-0.015246	-0.001247	-0.001799
202	1.059688	0.005000	9.071035	1.693915	1.615435	-0.720138	-0.376498	-0.281931	-0.010392	-0.006919	0.009967
203	1.064688	0.005000	9.041749	1.726560	1.603167	-0.720580	-0.376277	-0.279834	-0.015465	-0.000059	0.001455
204	1.069688	0.005000	9.095994	1.687320	1.538046	-0.720802	-0.376276	-0.278788	-0.014209	-0.011576	0.005688
205	1.074688	0.005000	9.103680	1.765800	1.667118	-0.720471	-0.376828	-0.280392	-0.006219	-0.003830	0.008299
206	1.079688	0.005000	9.182160	1.660439	1.685157	-0.720139	-0.377380	-0.281995	-0.005562	-0.000803	0.003958
207	1.084688	0.005000	9.182160	1.726560	1.637746	-0.719808	-0.377933	-0.283599	-0.006016	-0.003358	0.017202
208	1.089688	0.005000	9.115036	1.676301	1.670455	-0.719476	-0.378485	-0.285202	-0.012245	0.000794	0.002548
209	1.094688	0.005000	9.103680	1.727710	1.745605	-0.719145	-0.379037	-0.286805	-0.003683	-0.014840	0.008631
210	1.099688	0.005000	9.100480	1.690520	1.741380	-0.718814	-0.379589	-0.288409	-0.010232	-0.003113	-0.006825
211	1.104688	0.005000	9.166550	1.695339	1.742170	-0.718482	-0.380142	-0.290012	-0.023349	-0.009579	0.002831
212	1.109688	0.005000	9.142920	1.687320	1.700829	-0.718151	-0.380694	-0.291616	-0.014988	-0.007569	0.007539
213	1.114688	0.005000	9.092427	1.732041	1.715307	-0.717819	-0.381246	-0.293219	-0.007601	0.000939	-0.003245
214	1.119688	0.005000	9.012498	1.626532	1.708868	-0.717488	-0.381799	-0.294822	-0.017565	-0.001387	0.015732
215	1.124688	0.005000	9.156565	1.791395	1.726560	-0.717157	-0.382351	-0.296426	-0.013291	0.005690	0.013430
216	1.129688	0.005000	9.138434	1.682834	1.708616	-0.716825	-0.382903	-0.298029	-0.005026	-0.008454	0.007302
217	1.134688	0.005000	9.066522	1.759553	1.650162	-0.716494	-0.383455	-0.299633	-0.012560	0.003441	-0.002888
218	1.139688	0.005000	9.181888	1.609112	1.687320	-0.715907	-0.382901	-0.300475	-0.009286	-0.025045	-0.006824
219	1.144688	0.005000	9.103680	1.687320	1.613372	-0.715245	-0.382017	-0.301092	-0.006806	-0.017370	0.008635
220	1.149688	0.005000	9.108309	1.712673	1.756542	-0.714582	-0.381134	-0.301709	-0.007504	-0.002606	-0.000224
221	1.154688	0.005000	9.071067	1.582853	1.733187	-0.713919	-0.380250	-0.302325	-0.006296	-0.012441	0.007751
222	1.159688	0.005000	9.125070	1.639155	1.744410	-0.713256	-0.379367	-0.302942	-0.009081	0.000250	0.006525
223	1.164688	0.005000	9.064440	1.698297	1.698297	-0.712594	-0.378483	-0.303559	-0.012884	-0.003555	0.000307
224	1.169688	0.005000	9.168769	1.700711	1.817498	-0.711931	-0.377599	-0.304175	-0.015418	-0.009215	0.005315
225	1.174688	0.005000	9.142920	1.702931	1.852297	-0.711268	-0.376716	-0.304792	-0.015272	-0.006442	-0.002792
226	1.179688	0.005000	9.082185	1.651831	1.722809	-0.710606	-0.375832	-0.305409	-0.017888	-0.012928	0.006126
227	1.184688	0.005000	9.062297	1.687320	1.707476	-0.709943	-0.374949	-0.306025	-0.018919	0.007191	0.000229
228	1.189688	0.005000	9.204458	1.681965	1.665022	-0.709280	-0.374065	-0.306642	-0.011614	-0.009443	0.000898
229	1.194688	0.005000	9.133137	1.716777	1.638297	-0.708618	-0.373182	-0.307259	-0.014814	-0.002183	0.007901
230	1.199688	0.005000	9.157520	1.805040	1.672720	-0.707955	-0.372298	-0.307875	-0.002683	-0.002856	-0.008679
231	1.204688	0.005000	9.035456	1.697576	1.637824	-0.707548	-0.371585	-0.308333	-0.001362	-0.009023	0.022463
232	1.209688	0.005000	9.095707	1.726560	1.656053	-0.707880	-0.371364	-0.308333	-0.013445	-0.007727	-0.004314
233	1.214688	0.005000	9.064440	1.726560	1.721002	-0.708211	-0.371143	-0.308333	0.000452	-0.018153	-0.005525
234	1.219688	0.005000	9.103680	1.722990	1.722990	-0.708542	-0.370922	-0.308333	-0.015569	-0.007153	-0.001790
235	1.224688	0.005000	9.103680	1.724142	1.572018	-0.708874	-0.370702	-0.308333	-0.006920	-0.011311	0.005708
236	1.229688	0.005000	9.179770	1.724170	1.610035	-0.709205	-0.370481	-0.308333	-0.016883	-0.002131	-0.004361
237	1.234688	0.005000	9.103680	1.726560	1.611993	-0.709536	-0.370260	-0.308333	-0.016671	-0.003704	-0.000687
238	1.239688	0.005000	9.064440	1.760309	1.743835	-0.709867	-0.370039	-0.308333	-0.009340	-0.005517	0.012743
239	1.244688	0.005000	9.055208	1.758298	1.797538	-0.710199	-0.369818	-0.308333	-0.008729	-0.003123	0.003471
240	1.249688	0.005000	9.064440	1.717071	1.765800	-0.710530	-0.369597	-0.308333	-0.009872	-0.009927	0.003720
241	1.254688	0.005000	9.115857	1.672435	1.711675	-0.710861	-0.369376	-0.308333	-0.014106	-0.003160	0.007026
242	1.259688	0.005000	9.039469	1.762233	1.598138	-0.711193	-0.369155	-0.308333	-0.015490	-0.006883	-0.006372
243	1.264688	0.005000	9.087191	1.687320	1.648080	-0.711524	-0.368934	-0.308333	-0.011217	-0.009059	0.006856
244	1.269688	0.005000	9.159556	1.687320	1.650070	-0.711855	-0.368713	-0.308333	-0.012785	0.003762	-0.006106
245	1.274688	0.005000	9.106512	1.705524	1.805040	-0.712022	-0.368821	-0.308241	-0.009885	-0.009000	0.008730
246	1.279688	0.005000	9.057360	1.788960	1.687320	-0.712133	-0.369042	-0.308118	-0.014172	-0.001471	0.012325
247	1.284688	0.005000	9.089824	1.661936	1.763473	-0.712243	-0.369263	-0.307995	-0.011286	-0.010692	0.009171
248	1.289688	0.005000	9.080785	1.703665	1.749455	-0.712354	-0.369484	-0.307872	-0.005175	-0.009117	0.013464
249	1.294688	0.005000	9.015696	1.667088	1.696824	-0.712464	-0.369705	-0.307748	-0.013559	-0.007074	0.001029
250	1.299688	0.005000	9.057351	1.740737	1.648080	-0.712574	-0.369925	-0.307625	-0.014320	-0.006771	0.008806
251	1.304688	0.005000	9.035365	1.706229	1.658245	-0.712685	-0.370146	-0.307502	-0.011616	0.001321	-0.002248
252	1.309688	0.005000	9.025200	1.695538	1.763061	-0.712795	-0.370367	-0.307379	-0.011080	-0.004360	0.004025
253	1.314688	0.005000	9.064440	1.765478	1.686998	-0.712906	-0.370588	-0.307255	-0.009243	-0.000399	0.008012
254	1.319688	0.005000	9.026822	1.726560	1.685698	-0.713016	-0.370809	-0.307132	-0.010375	-0.007480	0.001073
255	1.324688	0.005000	9.138893	1.726560	1.722533	-0.713127	-0.371029	-0.307009	-0.004373	-0.012845	0.009758
256	1.329688	0.005000	9.109651	1.620782	1.726560	-0.713237	-0.371250	-0.306886	0.000470	-0.000837	0.001464
257	1.334688	0.005000	9.064440	1.709787	1.634000	-0.713347	-0.371471	-0.306762	-0.008860	-0.004820	0.006679
258	1.339688	0.005000	9.132590	1.726560	1.747221	-0.713433	-0.371717	-0.306639	-0.010437	0.009714	0.002555
259	1.344688	0.005000	9.142920	1.726560	1.687320	-0.713433	-0.372048	-0.306516	-0.006917	-0.003598	-0.000772
260	1.349688	0.005000	9.055122	1.711599	1.702281	-0.713433	-0.372379	-0.306393	-0.008166	-0.010947	0.008182
261	1.354688	0.005000	9.103680	1.586686	1.653148	-0.713433	-0.372710	-0.306269	-0.009835	-0.012949	0.011791
262	1.359688	0.005000	9.122952	1.608144	1.628112	-0.713433	-0.373041	-0.306146	-0.012883	-0.005615	0.006855
263	1.364688	0.005000	9.085881	1.630281	1.687320	-0.713433	-0.373372	-0.306023	-0.016028	0.000000	0.000950
264	1.369688	0.005000	9.134453	1.584987	1.741947	-0.713433	-0.373704	-0.305899	-0.014097	-0.005923	0.007111
265	1.374688	0.005000	9.156362	1.569600	1.686233	-0.713433	-0.374035	-0.305776	-0.017547	0.000500	0.009452
266	1.379688	0.005000	9.171126	1.619874	1.698354	-0.713433	-0.374366	-0.305653	-0.000322	-0.003031	-0.009742
267	1.384688	0.005000	9.173069	1.687320	1.687320	-0.713433	-0.374697	-0.305529	-0.012105	-0.008290	0.009038
268	1.389688	0.005000	9.149595	1.641405	1.720696	-0.713433	-0.375028	-0.305406	-0.029219	0.000842	0.002138
269	1.394688	0.005000	9.133571	1.687320	1.775149	-0.713433	-0.375359	-0.305283	-0.016818	-0.006608	0.009857
270	1.399688	0.005000	9.066766	1.728886	1.841954	-0.713433	-0.375690	-0.305160	-0.012974	-0.005609	-0.005469
271	1.404688	0.005000	9.142829	1.844098	1.726742	-0.713433	-0.376022	-0.305036	-0.011693	-0.007952	-0.007939
272	1.409688	0.005000	9.299880	1.652151	1.644009	-0.713277	-0.375651	-0.305261	-0.006834	-0.011298	0.011446
273	1.414688	0.005000	9.112454	1.722173	1.757026	-0.713056	-0.374988	-0.305631	-0.005546	-0.008082	-0.005521
274	1.419688	0.005000	9.064440	1.785887	1.739329	-0.712835	-0.374326	-0.306001	-0.012244	-0.012691	0.011414
275	1.424688	0.005000	9.190948	1.708984	1.665656	-0.712614	-0.373663	-0.306371	-0.012537	-0.006326	0.009877
276	1.429688	0.005000	9.164385	1.630305	1.705095	-0.712393	-0.373000	-0.306741	-0.006908	-0.003149	-0.001520
277	1.434688	0.005000	9.129774	1.739507	1.661226	-0.712173	-0.372338	-0.307111	-0.010564	-0.003988	0.004481
278	1.439688	0.005000	9.055939	1.765800	1.726560	-0.711952	-0.371675	-0.307481	-0.018754	-0.002609	-0.004581
279	1.444688	0.005000	9.125420	1.704820	1.765800	-0.711731	-0.371012	-0.307851	-0.002223	-0.012594	0.009618
280	1.449688	0.005000	9.103098	1.706649	1.745308	-0.711510	-0.370350	-0.308221	-0.008285	-0.001908	-0.004863
281	1.454688	0.005000	9.125534	1.783186	1.704706	-0.711289	-0.369687	-0.308591	-0.010359	-0.016191	0.010496
282	1.459688	0.005000	9.088707	1.829307	1.672347	-0.711068	-0.369024	-0.308961	-0.013663	-0.013378	0.007676
283	1.464688	0.005000	9.129427	1.752307	1.727180	-0.710847	-0.368362	-0.309331	-0.009234	0.000136	0.004075
284	1.469688	0.005000	9.142920	1.755179	1.648080	-0.710626	-0.367699	-0.309701	-0.000391	-0.013534	0.007905
285	1.474688	0.005000	9.212823	1.695897	1.648080	-0.710469	-0.367164	-0.310024	-0.013130	-0.000764	-0.001531
286	1.479688	0.005000	9.136658	1.759538	1.654342	-0.710580	-0.367164	-0.310147	0.004334	-0.014804	0.003635
287	1.484688	0.005000	9.131350	1.754230	1.718847	-0.710690	-0.367164	-0.310271	-0.009605	-0.000263	0.002547
288	1.489688	0.005000	9.103680	1.687320	1.689234	-0.710801	-0.367164	-0.310394	-0.011076	-0.015182	0.004457
289	1.494688	0.005000	9.103680	1.648564	1.765316	-0.710911	-0.367164	-0.310517	-0.016173	-0.004454	0.013087
290	1.499688	0.005000	9.140486	1.574469	1.692189	-0.711021	-0.367164	-0.310641	-0.017288	-0.006001	0.004696
291	1.504688	0.005000	9.152623	1.648080	1.652931	-0.711132	-0.367164	-0.310764	-0.006742	-0.005911	-0.000305
292	1.509688	0.005000	9.000301	1.569600	1.726560	-0.711242	-0.367164	-0.310887	0.004697	0.000838	0.002391
293	1.514688	0.005000	9.064440	1.678119	1.696521	-0.711353	-0.367164	-0.311011	-0.005797	-0.012691	0.008633
294	1.519688	0.005000	9.170544	1.643688	1.698936	-0.711463	-0.367164	-0.311134	-0.012765	-0.008328	0.004386
295	1.524688	0.005000	9.154447	1.687320	1.816567	-0.711573	-0.367164	-0.311257	-0.014078	-0.011983	-0.001729
296	1.529688	0.005000	9.142920	1.624809	1.648080	-0.711684	-0.367164	-0.311381	-0.016695	-0.012464	0.005429
297	1.534688	0.005000	9.061536	1.669152	1.611744	-0.711794	-0.367164	-0.311504	-0.018475	-0.009949	0.003520
298	1.539688	0.005000	9.044116	1.629164	1.669812	-0.711905	-0.367164	-0.311627	-0.020724	-0.013380	0.016234
299	1.544688	0.005000	9.074713	1.697593	1.703824	-0.712015	-0.367464	-0.311583	-0.013740	0.000737	0.000359
300	1.549688	0.005000	9.186078	1.697788	1.765800	-0.712126	-0.367906	-0.311460	-0.010420	-0.009441	-0.000158
301	1.554688	0.005000	9.079377	1.711623	1.802255	-0.712236	-0.368348	-0.311336	-0.007024	-0.001150	0.013580
302	1.559688	0.005000	9.054703	1.854017	1.756063	-0.712347	-0.368790	-0.311213	-0.010925	0.002068	0.001762
303	1.564688	0.005000	9.072155	1.773515	1.726560	-0.712457	-0.369231	-0.311090	-0.015510	-0.006049	0.009933
304	1.569688	0.005000	9.069829	1.799651	1.715782	-0.712568	-0.369673	-0.310966	-0.021331	-0.004325	-0.001234
305	1.574688	0.005000	9.103680	1.684336	1.717607	-0.712678	-0.370115	-0.310843	-0.017453	-0.006861	0.002897
306	1.579688	0.005000	9.104709	1.646023	1.608840	-0.712788	-0.370557	-0.310720	-0.009420	-0.000863	-0.002854
307	1.584688	0.005000	9.105057	1.607463	1.684565	-0.712899	-0.370999	-0.310596	-0.009131	0.005361	-0.002390
308	1.589688	0.005000	9.064440	1.680678	1.733202	-0.713009	-0.371440	-0.310473	-0.007512	-0.007006	0.001813
309	1.594688	0.005000	9.064440	1.738012	1.648080	-0.713120	-0.371882	-0.310350	-0.009391	-0.012717	0.000177
310	1.599688	0.005000	9.103680	1.687320	1.772849	-0.713230	-0.372324	-0.310226	-0.001776	-0.021742	0.001172
311	1.604688	0.005000	9.064440	1.639096	1.805040	-0.713341	-0.372766	-0.310103	-0.014488	-0.007388	-0.003512
312	1.609688	0.005000	9.091187	1.712306	1.726560	-0.713451	-0.373097	-0.310000	-0.012023	-0.016826	-0.002167
313	1.614688	0.005000	9.182160	1.697685	1.800967	-0.713562	-0.372876	-0.310000	-0.016124	0.001040	-0.002256
314	1.619688	0.005000	9.165310	1.760260	1.788190	-0.713672	-0.372656	-0.310000	-0.018196	0.009588	-0.006963
315	1.624688	0.005000	9.121530	1.726560	1.686140	-0.713782	-0.372435	-0.310000	-0.014236	-0.007585	0.002461
316	1.629688	0.005000	9.028369	1.651249	1.666115	-0.713893	-0.372214	-0.310000	-0.015115	-0.007719	-0.013611
317	1.634688	0.005000	9.103680	1.648080	1.624472	-0.714003	-0.371993	-0.310000	-0.009677	-0.010872	0.017610
318	1.639688	0.005000	9.025200	1.688651	1.700844	-0.714114	-0.371772	-0.310000	-0.013924	-0.004492	0.009522
319	1.644688	0.005000	9.086998	1.698599	1.620119	-0.714224	-0.371552	-0.310000	-0.012177	-0.010781	0.001618
320	1.649688	0.005000	9.103680	1.644298	1.726560	-0.714334	-0.371331	-0.310000	-0.010068	-0.003414	0.005504
321	1.654688	0.005000	9.096842	1.837442	1.765800	-0.714445	-0.371110	-0.310000	-0.019514	0.004220	-0.004474
322	1.659688	0.005000	9.103680	1.622384	1.761285	-0.714555	-0.370889	-0.310000	-0.013224	-0.008179	0.005922
323	1.664688	0.005000	9.062343	1.767897	1.730755	-0.714665	-0.370669	-0.310000	-0.009151	0.000344	0.001149
324	1.669688	0.005000	9.103680	1.687623	1.687320	-0.714776	-0.370448	-0.310000	-0.005222	-0.003498	0.003748
325	1.674688	0.005000	9.066691	1.691821	1.613341	-0.714886	-0.370227	-0.310000	-0.006396	-0.003365	0.010598
326	1.679688	0.005000	9.094452	1.622681	1.717332	-0.714711	-0.370220	-0.310000	-0.006712	-0.007493	0.001513
327	1.684688	0.005000	9.057829	1.739354	1.648080	-0.714379	-0.370331	-0.310000	-0.003118	-0.011843	0.010967
328	1.689688	0.005000	9.191178	1.666115	1.787005	-0.714048	-0.370441	-0.310000	-0.015959	-0.000687	0.005488
329	1.694688	0.005000	9.154352	1.636648	1.737992	-0.713717	-0.370552	-0.310000	-0.003830	-0.009286	0.004000
330	1.699688	0.005000	9.052550	1.648080	1.659970	-0.713385	-0.370662	-0.310000	-0.010406	0.003412	0.002861
331	1.704688	0.005000	9.134806	1.718446	1.703105	-0.713054	-0.370773	-0.310000	-0.011823	-0.000868	-0.003278
332	1.709688	0.005000	9.142920	1.762937	1.627028	-0.712723	-0.370883	-0.310000	-0.014297	-0.002288	0.010336
333	1.714688	0.005000	9.142920	1.706427	1.706427	-0.712392	-0.370994	-0.310000	-0.013709	0.001910	0.001960
334	1.719688	0.005000	9.103680	1.670623	1.709863	-0.712060	-0.371104	-0.310000	-0.008259	-0.003577	0.007304
335	1.724688	0.005000	9.128337	1.662663	1.751217	-0.711729	-0.371215	-0.310000	-0.008354	-0.006269	-0.001511
336	1.729688	0.005000	9.052100	1.741120	1.685100	-0.711398	-0.371325	-0.310000	-0.013265	-0.008739	-0.002597
337	1.734688	0.005000	8.985960	1.648080	1.765800	-0.711066	-0.371436	-0.310000	-0.008636	-0.006941	0.010861
338	1.739688	0.005000	9.064440	1.726560	1.710582	-0.710735	-0.371546	-0.310000	-0.008524	-0.011214	-0.000909
339	1.744688	0.005000	8.997106	1.754654	1.732133	-0.710433	-0.371657	-0.309901	-0.005916	-0.017410	0.005977
340	1.749688	0.005000	9.146505	1.758630	1.719390	-0.710323	-0.371767	-0.309161	-0.011371	-0.001457	-0.005759
341	1.754688	0.005000	9.256967	1.765800	1.689769	-0.710212	-0.371878	-0.308421	-0.012641	-0.010906	0.010150
342	1.759688	0.005000	9.142920	1.765800	1.727740	-0.710102	-0.371988	-0.307681	0.002111	-0.009140	0.014587
343	1.764688	0.005000	9.025200	1.618252	1.684183	-0.709991	-0.372098	-0.306941	-0.004502	-0.001843	-0.000872
344	1.769688	0.005000	9.036285	1.608840	1.687320	-0.709881	-0.372209	-0.306201	-0.011809	-0.007739	0.016649
345	1.774688	0.005000	9.142920	1.703052	1.648080	-0.709770	-0.372319	-0.305461	-0.013381	0.000966	-0.006720
346	1.779688	0.005000	9.182160	1.716991	1.677430	-0.709660	-0.372430	-0.304721	-0.005675	-0.015713	0.004751
347	1.784688	0.005000	9.115985	1.741191	1.621145	-0.709549	-0.372540	-0.303981	-0.011853	-0.003481	-0.003180
348	1.789688	0.005000	9.089143	1.712023	1.648080	-0.709439	-0.372650	-0.303241	-0.010079	-0.021993	0.003457
349	1.794688	0.005000	9.120337	1.732485	1.703977	-0.709328	-0.372761	-0.302501	-0.014654	-0.011127	0.017662
350	1.799688	0.005000	9.046473	1.687320	1.826313	-0.709218	-0.372871	-0.301761	-0.016209	-0.006764	-0.004344
351	1.804688	0.005000	9.064440	1.662890	1.708543	-0.709107	-0.372982	-0.301021	-0.006077	-0.010117	0.011619
352	1.809688	0.005000	9.142920	1.679114	1.718951	-0.708997	-0.373092	-0.300281	-0.006914	-0.003041	0.001561
353	1.814688	0.005000	9.077846	1.661486	1.791634	-0.710120	-0.374162	-0.298546	-0.006055	-0.010852	0.007868
354	1.819688	0.005000	9.036193	1.687320	1.772062	-0.711997	-0.375818	-0.296204	-0.013381	-0.001238	0.011251
355	1.824688	0.005000	9.073380	1.717620	1.753381	-0.713874	-0.377474	-0.293861	-0.013439	-0.003921	0.004096
356	1.829688	0.005000	9.090396	1.745874	1.700604	-0.715750	-0.379130	-0.291519	-0.013471	-0.015735	0.016529
357	1.834688	0.005000	9.033651	1.656531	1.726560	-0.717627	-0.380786	-0.289177	-0.008037	-0.018712	0.013505
358	1.839688	0.005000	9.025200	1.643572	1.724306	-0.719504	-0.382442	-0.286834	0.001067	-0.019923	0.004496
359	1.844688	0.005000	9.025200	1.569600	1.726438	-0.721381	-0.384098	-0.284492	-0.012217	-0.008107	-0.002863
360	1.849688	0.005000	9.138786	1.648080	1.648080	-0.723258	-0.385754	-0.282150	-0.012237	-0.008247	0.005231
361	1.854688	0.005000	9.151861	1.717619	1.604369	-0.725134	-0.387410	-0.279807	-0.008694	-0.007870	0.011947
362	1.859688	0.005000	9.110487	1.752186	1.726560	-0.727011	-0.389066	-0.277465	-0.007650	-0.006890	0.000870
363	1.864688	0.005000	9.094849	1.626501	1.696151	-0.728888	-0.390722	-0.275122	-0.000171	-0.009760	0.010027
364	1.869688	0.005000	9.131682	1.670555	1.709795	-0.730765	-0.392378	-0.272780	-0.007681	-0.009318	0.001318
365	1.874688	0.005000	9.090187	1.673827	1.714307	-0.732642	-0.394034	-0.270438	-0.005664	-0.015312	0.000104
366	1.879688	0.005000	9.158515	1.718510	1.765800	-0.734194	-0.395365	-0.268596	-0.011554	-0.001026	0.008801
367	1.884688	0.005000	9.082445	1.726560	1.744565	-0.732868	-0.393819	-0.271186	-0.006916	-0.000498	0.004181
368	1.889688	0.005000	9.065559	1.688439	1.746740	-0.731543	-0.392273	-0.273776	-0.011953	-0.009710	0.014882
369	1.894688	0.005000	9.002645	1.726560	1.653949	-0.730217	-0.390726	-0.276366	-0.015534	-0.005835	-0.004883
370	1.899688	0.005000	9.039668	1.687320	1.623308	-0.728892	-0.389180	-0.278956	-0.013303	-0.016756	-0.004107
371	1.904688	0.005000	9.142920	1.741681	1.753740	-0.727567	-0.387634	-0.281546	-0.008532	-0.005469	-0.001246
372	1.909688	0.005000	9.240642	1.775799	1.726560	-0.726241	-0.386088	-0.284136	-0.010488	-0.015573	0.006315
373	1.914688	0.005000	9.150621	1.805040	1.773501	-0.724916	-0.384541	-0.286726	-0.011535	-0.013953	0.001173
374	1.919688	0.005000	9.125856	1.805040	1.748736	-0.723591	-0.382995	-0.289316	-0.012622	-0.006436	-0.008061
375	1.924688	0.005000	8.989313	1.726560	1.579659	-0.722265	-0.381449	-0.291906	-0.010506	-0.009699	0.005480
376	1.929688	0.005000	9.027098	1.648080	1.762953	-0.720940	-0.379903	-0.294496	-0.008007	-0.006796	-0.004046
377	1.934688	0.005000	9.141925	1.571590	1.648080	-0.719615	-0.378356	-0.297086	-0.014355	-0.014174	-0.002712
378	1.939688	0.005000	9.064440	1.716321	1.680494	-0.718289	-0.376810	-0.299676	-0.014180	-0.008509	0.006021
379	1.944688	0.005000	9.036697	1.732308	1.698817	-0.716964	-0.375264	-0.302266	-0.006365	0.008970	-0.004557
380	1.949688	0.005000	9.064440	1.687320	1.663605	-0.716288	-0.374692	-0.303478	0.006528	-0.008098	0.006998
381	1.954688	0.005000	9.132743	1.745445	1.658257	-0.716067	-0.374802	-0.303725	0.000056	0.002357	-0.000944
382	1.959688	0.005000	9.182160	1.685384	1.687320	-0.715846	-0.374913	-0.303972	-0.003776	-0.011273	0.007468
383	1.964688	0.005000	9.153101	1.633551	1.687320	-0.715625	-0.375023	-0.304218	-0.014190	-0.008770	0.005333
384	1.969688	0.005000	9.103680	1.692676	1.619553	-0.715404	-0.375134	-0.304465	-0.009956	-0.005079	-0.003889
385	1.974688	0.005000	9.183158	1.608840	1.746679	-0.715184	-0.375244	-0.304712	-0.018144	-0.003515	0.010487
386	1.979688	0.005000	9.124976	1.705264	1.787096	-0.714963	-0.375354	-0.304958	-0.012573	-0.004934	-0.003211
387	1.984688	0.005000	9.119214	1.632546	1.765800	-0.714742	-0.375465	-0.305205	0.000429	-0.006109	0.004926
388	1.989688	0.005000	9.129487	1.662572	1.752367	-0.714521	-0.375575	-0.305452	-0.008658	0.005998	0.003991
389	1.994688	0.005000	9.131744	1.676144	1.709673	-0.714300	-0.375686	-0.305699	-0.007658	-0.007927	0.004240
390	1.999688	0.005000	9.064440	1.757027	1.735333	-0.714079	-0.375796	-0.305945	-0.014002	-0.008814	0.002464
391	2.004688	0.005000	9.025200	1.752307	1.759053	-0.713858	-0.375906	-0.306192	-0.016524	-0.005368	-0.004820
392	2.009688	0.005000	9.003652	1.691743	1.722137	-0.713637	-0.376017	-0.306439	-0.013194	-0.010295	0.017260
393	2.014688	0.005000	9.105686	1.759783	1.687320	-0.713433	-0.376119	-0.306686	-0.010780	-0.002480	0.008132
394	2.019688	0.005000	9.182039	1.687199	1.648019	-0.713433	-0.376119	-0.306932	-0.012669	-0.001954	0.009991
395	2.024688	0.005000	9.066782	1.682635	1.719533	-0.713433	-0.376119	-0.307179	-0.008374	0.001346	0.002145
396	2.029688	0.005000	9.236842	1.721800	1.825242	-0.713433	-0.376119	-0.307426	-0.009678	-0.005329	0.005099
397	2.034688	0.005000	9.150000	1.719480	1.844280	-0.713433	-0.376119	-0.307673	-0.003668	-0.001081	0.015330
398	2.039688	0.005000	9.152030	1.705539	1.666299	-0.713433	-0.376119	-0.307919	-0.003988	-0.000986	0.007524
399	2.044688	0.005000	9.036724	1.659604	1.541884	-0.713433	-0.376119	-0.308166	-0.010647	-0.014524	0.009258
400	2.049688	0.005000	9.050674	1.648080	1.659788	-0.713433	-0.376119	-0.308413	-0.022934	0.000777	0.003122
401	2.054688	0.005000	8.985960	1.640593	1.632203	-0.713433	-0.376119	-0.308660	-0.009621	-0.000840	0.012133
402	2.059688	0.005000	9.161209	1.645417	1.689983	-0.713433	-0.376119	-0.308906	-0.015496	0.000993	0.005617
403	2.064688	0.005000	9.165036	1.685656	1.805040	-0.713433	-0.376119	-0.309153	-0.019554	0.001141	-0.000829
404	2.069688	0.005000	9.103680	1.753705	1.693368	-0.713433	-0.376119	-0.309400	-0.013894	-0.006337	0.017841
405	2.074688	0.005000	9.103680	1.765800	1.740753	-0.713433	-0.376119	-0.309647	-0.022804	-0.001510	-0.004487
406	2.079688	0.005000	9.064440	1.651015	1.605905	-0.713433	-0.376119	-0.309893	-0.002178	-0.015658	0.009998
407	2.084688	0.005000	9.123239	1.657921	1.746119	-0.713308	-0.375868	-0.309790	-0.015934	-0.007242	0.006295
408	2.089688	0.005000	9.079291	1.702171	1.719135	-0.713087	-0.375427	-0.309420	-0.009653	-0.001084	0.009411
409	2.094688	0.005000	9.142920	1.838864	1.658911	-0.712866	-0.374985	-0.309050	-0.000784	0.000279	0.010358
410	2.099688	0.005000	9.142920	1.687320	1.693401	-0.712645	-0.374543	-0.308680	-0.007330	-0.001547	0.008532
411	2.104688	0.005000	9.180843	1.726560	1.765800	-0.712424	-0.374102	-0.308311	-0.004887	-0.011094	0.014892
412	2.109688	0.005000	9.103680	1.651529	1.690769	-0.712204	-0.373660	-0.307941	-0.006334	0.006122	0.008182
413	2.114688	0.005000	9.099990	1.683630	1.687320	-0.711983	-0.373219	-0.307571	-0.008534	-0.005883	0.008733
414	2.119688	0.005000	9.103680	1.732666	1.720454	-0.711762	-0.372777	-0.307201	-0.003450	-0.003604	-0.000311
415	2.124688	0.005000	9.204579	1.718149	1.617251	-0.711541	-0.372335	-0.306831	-0.009346	-0.001272	-0.002749
416	2.129688	0.005000	9.171703	1.590514	1.755343	-0.711320	-0.371894	-0.306461	-0.012782	-0.016049	0.012559
417	2.134688	0.005000	9.169289	1.648080	1.700191	-0.711100	-0.371452	-0.306092	-0.011835	0.001164	-0.002367
418	2.139688	0.005000	9.133874	1.654131	1.756754	-0.710879	-0.371011	-0.305722	-0.010920	-0.009509	0.006847
419	2.144688	0.005000	9.069232	1.694960	1.709336	-0.710658	-0.370569	-0.305352	-0.017019	-0.006078	0.006994
420	2.149688	0.005000	9.123292	1.628437	1.687305	-0.710453	-0.370138	-0.305012	-0.015431	-0.007696	0.015565
421	2.154688	0.005000	9.103680	1.783257	1.700450	-0.710564	-0.369917	-0.305259	-0.020516	-0.013332	0.014242
422	2.159688	0.005000	9.151643	1.829022	1.820298	-0.710674	-0.369696	-0.305505	-0.013914	-0.006528	-0.000916
423	2.164688	0.005000	9.038045	1.700165	1.909915	-0.710785	-0.369476	-0.305752	-0.004958	-0.011137	0.001903
424	2.169688	0.005000	9.014429	1.737331	1.811968	-0.710895	-0.369255	-0.305999	-0.010517	-0.000028	0.006578
425	2.174688	0.005000	9.112076	1.664871	1.726560	-0.711005	-0.369034	-0.306245	-0.012915	-0.010129	0.004713
426	2.179688	0.005000	9.103680	1.693398	1.693398	-0.711116	-0.368813	-0.306492	-0.008929	-0.009006	0.006263
427	2.184688	0.005000	9.178076	1.726560	1.800956	-0.711226	-0.368592	-0.306739	-0.012527	-0.004943	-0.000994
428	2.189688	0.005000	9.066169	1.724831	1.726560	-0.711337	-0.368371	-0.306985	-0.004828	-0.018217	0.008484
429	2.194688	0.005000	9.065121	1.764439	1.726560	-0.711447	-0.368150	-0.307232	-0.006521	-0.003393	-0.002945
430	2.199688	0.005000	9.182160	1.765800	1.681209	-0.711557	-0.367929	-0.307479	-0.012106	-0.006485	0.000325
431	2.204688	0.005000	9.137883	1.770837	1.648080	-0.711668	-0.367708	-0.307725	-0.012531	0.007737	-0.000481
432	2.209688	0.005000	8.993413	1.758347	1.750894	-0.711778	-0.367487	-0.307972	-0.014728	0.001182	0.001410
433	2.214688	0.005000	9.103680	1.677578	1.638066	-0.711889	-0.367267	-0.308218	-0.003914	-0.010007	0.002561
434	2.219688	0.005000	9.025200	1.675516	1.636276	-0.711881	-0.367282	-0.308399	-0.018868	-0.001184	-0.003614
435	2.224688	0.005000	9.000168	1.648080	1.676496	-0.711770	-0.367503	-0.308522	-0.004652	-0.012094	0.010528
436	2.229688	0.005000	9.021539	1.625268	1.687320	-0.711660	-0.367724	-0.308646	-0.025818	-0.002336	-0.004707
437	2.234688	0.005000	9.105792	1.670868	1.745124	-0.711550	-0.367945	-0.308769	-0.014990	-0.005060	-0.003913
438	2.239688	0.005000	9.182160	1.723850	1.692740	-0.711439	-0.368166	-0.308893	-0.010249	0.000833	0.002955
439	2.244688	0.005000	9.156898	1.710434	1.664206	-0.711329	-0.368387	-0.309016	-0.015063	0.001565	-0.009648
440	2.249688	0.005000	9.039112	1.726560	1.726560	-0.711218	-0.368608	-0.309139	-0.009891	-0.015848	0.010374
441	2.254688	0.005000	9.064440	1.726560	1.749556	-0.711108	-0.368829	-0.309263	-0.021512	-0.009634	0.001906
442	2.259688	0.005000	9.103680	1.698242	1.786161	-0.710998	-0.369049	-0.309386	-0.007300	-0.005596	0.013215
443	2.264688	0.005000	9.071504	1.694384	1.648080	-0.710887	-0.369270	-0.309509	-0.013450	0.002693	0.013752
444	2.269688	0.005000	9.138189	1.731291	1.701513	-0.710777	-0.369491	-0.309633	-0.006930	-0.005593	-0.002863
445	2.274688	0.005000	9.064440	1.795735	1.726560	-0.710666	-0.369712	-0.309756	0.000908	-0.003545	0.008719
446	2.279688	0.005000	9.143298	1.765800	1.725804	-0.710556	-0.369933	-0.309879	-0.005192	-0.001047	-0.000232
447	2.284688	0.005000	9.107751	1.765800	1.610875	-0.710446	-0.370149	-0.309994	-0.010978	-0.020880	0.001869
448	2.289688	0.005000	9.147360	1.731000	1.761360	-0.710335	-0.370149	-0.309748	-0.014966	-0.001662	0.006308
449	2.294688	0.005000	9.207871	1.583129	1.694084	-0.710225	-0.370149	-0.309501	-0.017527	-0.002831	0.002693
450	2.299688	0.005000	9.099592	1.730648	1.678532	-0.710114	-0.370149	-0.309255	-0.014774	-0.005991	0.008198
451	2.304688	0.005000	9.075513	1.737633	1.737633	-0.710004	-0.370149	-0.309008	-0.009663	-0.001387	-0.001022
452	2.309688	0.005000	8.946720	1.674373	1.700466	-0.709893	-0.370149	-0.308761	-0.015507	-0.004954	0.004535
453	2.314688	0.005000	9.025200	1.648080	1.624395	-0.709783	-0.370149	-0.308515	-0.021820	0.003045	0.004640
454	2.319688	0.005000	9.064440	1.705079	1.694763	-0.709672	-0.370149	-0.308268	-0.014418	-0.009056	0.006459
455	2.324688	0.005000	9.103680	1.707231	1.746471	-0.709562	-0.370149	-0.308021	-0.011874	0.003958	0.006789
456	2.329688	0.005000	9.165242	1.704238	1.681916	-0.709451	-0.370149	-0.307775	-0.018116	-0.005459	0.000740
457	2.334688	0.005000	9.148063	1.829486	1.696971	-0.709341	-0.370149	-0.307528	-0.022228	-0.013514	0.010148
458	2.339688	0.005000	9.130355	1.765800	1.699885	-0.709230	-0.370149	-0.307281	-0.014343	0.003837	-0.001213
459	2.344688	0.005000	9.093182	1.765800	1.705563	-0.709120	-0.370149	-0.307035	-0.015176	-0.001924	0.009922
460	2.349688	0.005000	9.070855	1.734766	1.687320	-0.709009	-0.370149	-0.306788	-0.013128	0.001430	-0.001433
461	2.354688	0.005000	9.031000	1.771600	1.765800	-0.709124	-0.370205	-0.306604	-0.008423	-0.001668	-0.001610
462	2.359688	0.005000	9.032824	1.754364	1.769612	-0.709455	-0.370316	-0.306481	-0.009626	0.001493	0.012524
463	2.364688	0.005000	9.103680	1.652397	1.687320	-0.709786	-0.370426	-0.306357	-0.009015	0.000057	0.002692
464	2.369688	0.005000	9.065393	1.804087	1.687320	-0.710118	-0.370537	-0.306234	-0.010795	-0.014313	0.019644
465	2.374688	0.005000	9.137104	1.653896	1.611748	-0.710449	-0.370647	-0.306111	-0.013722	-0.000502	0.002979
466	2.379688	0.005000	9.080378	1.564287	1.687320	-0.710781	-0.370758	-0.305987	-0.005528	-0.011881	0.001608
467	2.384688	0.005000	9.118958	1.648080	1.694959	-0.711112	-0.370868	-0.305864	-0.005159	-0.007307	0.007249
468	2.389688	0.005000	9.123575	1.756128	1.795368	-0.711443	-0.370979	-0.305741	-0.007888	-0.005371	-0.000020
469	2.394688	0.005000	9.142920	1.750719	1.738640	-0.711775	-0.371089	-0.305617	-0.002056	-0.007624	0.013619
470	2.399688	0.005000	9.142920	1.762968	1.737752	-0.712106	-0.371200	-0.305494	-0.011457	0.014628	0.004919
471	2.404688	0.005000	9.080877	1.687320	1.759433	-0.712438	-0.371310	-0.305371	-0.014882	-0.011730	0.005420
472	2.409688	0.005000	9.124298	1.646083	1.747178	-0.712769	-0.371421	-0.305247	-0.016100	-0.001965	0.003918
473	2.414688	0.005000	9.145262	1.645738	1.825831	-0.713100	-0.371531	-0.305124	-0.016235	-0.007154	-0.000922
474	2.419688	0.005000	9.096518	1.733722	1.821079	-0.713432	-0.371642	-0.305000	-0.004984	-0.009392	0.004614
475	2.424688	0.005000	9.168534	1.685682	1.844280	-0.713433	-0.371642	-0.304877	-0.010745	0.003892	-0.003334
476	2.429688	0.005000	9.103680	1.721946	1.781956	-0.713433	-0.371642	-0.304754	-0.016455	-0.014402	0.007323
477	2.434688	0.005000	9.034474	1.717286	1.705869	-0.713433	-0.371642	-0.304631	-0.018728	-0.002485	0.004068
478	2.439688	0.005000	9.129202	1.758941	1.811899	-0.713433	-0.371642	-0.304507	-0.016312	-0.011195	0.005030
479	2.444688	0.005000	9.177232	1.618696	1.824568	-0.713433	-0.371642	-0.304384	-0.020560	-0.009515	0.001942
480	2.449688	0.005000	9.179649	1.645569	1.653102	-0.713433	-0.371642	-0.304261	-0.019187	-0.015113	-0.002365
481	2.454688	0.005000	9.142360	1.765800	1.687320	-0.713433	-0.371642	-0.304137	-0.001834	0.003958	0.007940
482	2.459688	0.005000	9.028874	1.765800	1.687320	-0.713433	-0.371642	-0.304014	-0.006391	-0.009493	-0.002090
483	2.464688	0.005000	9.029405	1.730765	1.691525	-0.713433	-0.371642	-0.303891	0.000367	-0.006458	-0.001427
484	2.469688	0.005000	8.992158	1.693518	1.732758	-0.713433	-0.371642	-0.303767	-0.013842	-0.000865	-0.000812
485	2.474688	0.005000	9.055836	1.665289	1.726560	-0.713433	-0.371642	-0.303644	-0.011627	-0.004022	-0.000627
486	2.479688	0.005000	9.132371	1.562006	1.637531	-0.713433	-0.371642	-0.303521	-0.016858	-0.013036	0.007435
487	2.484688	0.005000	9.038163	1.739875	1.700283	-0.713433	-0.371642	-0.303398	-0.013888	0.003119	-0.003734
488	2.489688	0.005000	9.151785	1.678455	1.741748	-0.713538	-0.371642	-0.303509	-0.014908	-0.013937	0.011998
489	2.494688	0.005000	9.130213	1.643472	1.691928	-0.713759	-0.371642	-0.303879	-0.015805	-0.010336	0.007114
490	2.499688	0.005000	9.103466	1.667593	1.804826	-0.713980	-0.371642	-0.304249	-0.003874	-0.020379	0.007603
491	2.504688	0.005000	9.142920	1.626206	1.674462	-0.714201	-0.371642	-0.304619	-0.009476	0.000048	0.012430
492	2.509688	0.005000	9.151846	1.687320	1.654311	-0.714422	-0.371642	-0.304989	-0.008127	-0.013374	0.001119
493	2.514688	0.005000	9.012100	1.818110	1.648050	-0.714643	-0.371642	-0.305359	-0.007445	-0.011778	0.006548
494	2.519688	0.005000	8.996769	1.744182	1.698129	-0.714864	-0.371642	-0.305729	-0.023048	0.002229	0.001412
495	2.524688	0.005000	9.016798	1.656482	1.751766	-0.715085	-0.371642	-0.306099	-0.016025	0.000542	-0.000112
496	2.529688	0.005000	9.103680	1.720176	1.740265	-0.715305	-0.371642	-0.306469	-0.011034	-0.005250	0.008094
497	2.534688	0.005000	9.107722	1.652122	1.687320	-0.715526	-0.371642	-0.306839	-0.013345	-0.007705	-0.004936
498	2.539688	0.005000	9.144558	1.767438	1.726560	-0.715747	-0.371642	-0.307209	-0.013294	-0.001578	0.008764
499	2.544688	0.005000	9.182160	1.688239	1.687626	-0.715968	-0.371642	-0.307579	-0.017668	-0.002243	0.000124
500	2.549688	0.005000	9.067164	1.690044	1.721112	-0.716189	-0.371642	-0.307949	-0.008716	-0.003956	0.008400
501	2.554688	0.005000	8.991028	1.687320	1.731628	-0.716410	-0.371642	-0.308319	-0.014970	-0.001550	-0.000943
502	2.559688	0.005000	9.103680	1.694393	1.765800	-0.716418	-0.371748	-0.308571	-0.010878	-0.016487	0.006970
503	2.564688	0.005000	9.025200	1.726560	1.717071	-0.716418	-0.371859	-0.308817	-0.003368	-0.005778	0.005768
504	2.569688	0.005000	9.131166	1.648080	1.699074	-0.716418	-0.371969	-0.309064	0.001255	-0.008213	-0.005356
505	2.574688	0.005000	9.078280	1.687320	1.712720	-0.716418	-0.372080	-0.309311	0.002301	-0.007623	0.008014
506	2.579688	0.005000	9.087615	1.687320	1.680210	-0.716418	-0.372190	-0.309558	-0.009324	-0.007704	-0.007355
507	2.584688	0.005000	9.085240	1.648080	1.590400	-0.716418	-0.372300	-0.309804	-0.006109	-0.008985	0.009208
508	2.589688	0.005000	9.064440	1.702043	1.666721	-0.716418	-0.372411	-0.310051	-0.005676	-0.002063	0.004126
509	2.594688	0.005000	9.142920	1.732792	1.641848	-0.716418	-0.372521	-0.310298	-0.000194	-0.007968	-0.000649
510	2.599688	0.005000	9.114351	1.765800	1.687320	-0.716418	-0.372632	-0.310544	-0.003628	-0.013562	0.021604
511	2.604688	0.005000	9.100068	1.844280	1.726560	-0.716418	-0.372742	-0.310791	-0.005036	-0.010086	0.016841
512	2.609688	0.005000	9.064440	1.814858	1.677533	-0.716418	-0.372852	-0.311038	-0.009222	-0.006844	0.012677
513	2.614688	0.005000	9.064440	1.829245	1.812557	-0.716418	-0.372963	-0.311285	-0.002912	0.000223	-0.006065
514	2.619688	0.005000	9.025200	1.794817	1.770912	-0.716418	-0.373073	-0.311531	-0.012444	-0.003847	0.004404
515	2.624688	0.005000	8.989091	1.765800	1.874126	-0.716567	-0.373482	-0.310390	-0.018357	-0.004560	-0.000683
516	2.629688	0.005000	9.141420	1.842780	1.805790	-0.716898	-0.374255	-0.307555	-0.012757	-0.001635	-0.000802
517	2.634688	0.005000	9.139653	1.841013	1.731461	-0.717230	-0.375028	-0.304719	-0.005750	-0.009711	0.013579
518	2.639688	0.005000	9.103680	1.765800	1.576796	-0.717561	-0.375800	-0.301884	-0.005233	-0.012850	0.008338
519	2.644688	0.005000	9.082275	1.687320	1.614785	-0.717892	-0.376573	-0.299048	-0.001524	-0.018316	0.005522
520	2.649688	0.005000	9.033158	1.577558	1.656038	-0.718223	-0.377346	-0.296213	-0.005849	-0.000638	0.008192
521	2.654688	0.005000	9.161430	1.685100	1.745070	-0.718555	-0.378119	-0.293377	-0.007669	-0.008296	0.002286
522	2.659688	0.005000	9.039208	1.713944	1.779808	-0.718886	-0.378892	-0.290542	-0.013651	-0.013499	0.004887
523	2.664688	0.005000	9.093866	1.672607	1.706948	-0.719217	-0.379665	-0.287706	-0.021438	-0.006768	0.001795
524	2.669688	0.005000	9.042325	1.709435	1.709435	-0.719548	-0.380437	-0.284871	-0.007451	-0.007394	0.017468
525	2.674688	0.005000	9.064440	1.726560	1.686049	-0.719879	-0.381210	-0.282035	-0.010996	-0.003024	0.006709
526	2.679688	0.005000	9.007440	1.691040	1.683600	-0.720211	-0.381983	-0.279200	-0.001558	-0.003696	0.010171
527	2.684688	0.005000	9.079790	1.687320	1.702670	-0.720542	-0.382756	-0.276364	-0.012006	-0.001146	0.003996
528	2.689688	0.005000	9.129514	1.738987	1.725581	-0.720873	-0.383529	-0.273529	-0.007410	-0.009909	0.007051
529	2.694688	0.005000	9.025200	1.726560	1.698313	-0.720999	-0.383171	-0.273792	-0.008196	-0.025835	0.006809
530	2.699688	0.005000	9.100201	1.765800	1.735500	-0.721109	-0.382729	-0.274286	-0.010340	-0.002876	0.004217
531	2.704688	0.005000	9.175518	1.805040	1.726560	-0.721220	-0.382287	-0.274779	-0.004843	-0.010734	0.015256
532	2.709688	0.005000	9.099454	1.687320	1.691546	-0.721330	-0.381845	-0.275272	-0.014262	-0.004581	0.016175
533	2.714688	0.005000	9.105961	1.721998	1.689601	-0.721440	-0.381404	-0.275766	-0.021370	-0.001603	0.012592
534	2.719688	0.005000	9.142920	1.569842	1.648322	-0.721551	-0.380962	-0.276259	-0.011317	-0.004855	0.013547
535	2.724688	0.005000	9.219333	1.648080	1.654281	-0.721661	-0.380520	-0.276753	-0.011328	0.003107	0.003663
536	2.729688	0.005000	9.186631	1.608840	1.800569	-0.721772	-0.380078	-0.277246	-0.005909	-0.011573	0.010736
537	2.734688	0.005000	9.175353	1.615647	1.700934	-0.721882	-0.379636	-0.277739	-0.007892	0.001447	0.010776
538	2.739688	0.005000	9.182160	1.700068	1.748139	-0.721992	-0.379195	-0.278233	-0.010248	-0.005009	0.006391
539	2.744688	0.005000	9.098153	1.771327	1.709795	-0.722103	-0.378753	-0.278726	-0.007934	-0.005362	0.001719
540	2.749688	0.005000	9.102440	1.699573	1.596587	-0.722213	-0.378311	-0.279219	-0.004673	-0.009074	0.004302
541	2.754688	0.005000	9.142920	1.726560	1.601295	-0.722324	-0.377869	-0.279713	-0.012573	-0.008503	0.022691
542	2.759688	0.005000	9.142920	1.648080	1.705325	-0.722342	-0.377935	-0.280258	-0.026108	0.005049	0.008749
543	2.764688	0.005000	9.104799	1.667140	1.745620	-0.722231	-0.378708	-0.280874	-0.002979	-0.007107	0.006682
544	2.769688	0.005000	9.030679	1.670439	1.709679	-0.722121	-0.379481	-0.281491	-0.016072	-0.000486	0.003744
545	2.774688	0.005000	9.029364	1.658384	1.701788	-0.722011	-0.380255	-0.282108	-0.014567	0.000372	-0.002956
546	2.779688	0.005000	9.169786	1.621214	1.701812	-0.721900	-0.381028	-0.282724	-0.013861	-0.011783	0.007481
547	2.784688	0.005000	9.093564	1.687320	1.668312	-0.721790	-0.381801	-0.283341	-0.016561	-0.003130	0.003011
548	2.789688	0.005000	9.111381	1.702722	1.726560	-0.721679	-0.382574	-0.283958	-0.014264	-0.001626	0.006068
549	2.794688	0.005000	9.165671	1.693008	1.765800	-0.721569	-0.383347	-0.284574	-0.017143	0.003932	0.007482
550	2.799688	0.005000	9.254014	1.690633	1.798414	-0.721459	-0.384120	-0.285191	-0.007154	-0.005535	-0.001030
551	2.804688	0.005000	9.220451	1.726560	1.765800	-0.721348	-0.384894	-0.285808	-0.013405	-0.008157	0.001476
552	2.809688	0.005000	9.105670	1.688315	1.765800	-0.721238	-0.385667	-0.286424	-0.013262	-0.005771	-0.007113
553	2.814688	0.005000	9.074679	1.716321	1.694146	-0.721127	-0.386440	-0.287041	-0.002255	-0.012218	0.008552
554	2.819688	0.005000	9.103680	1.720812	1.720812	-0.721017	-0.387213	-0.287658	-0.002279	-0.005251	0.004454
555	2.824688	0.005000	9.064440	1.671043	1.718422	-0.720907	-0.387986	-0.288274	-0.020126	-0.013576	0.008585
556	2.829688	0.005000	9.171983	1.687320	1.726560	-0.720296	-0.386861	-0.289560	-0.014019	0.003217	0.002631
557	2.834688	0.005000	9.182160	1.687320	1.725075	-0.719634	-0.385536	-0.290917	-0.013675	-0.002015	-0.005046
558	2.839688	0.005000	9.118505	1.736151	1.628899	-0.718971	-0.384210	-0.292274	-0.014130	-0.011804	0.014553
559	2.844688	0.005000	9.103680	1.748858	1.687320	-0.718308	-0.382885	-0.293631	-0.013701	-0.004775	-0.002188
560	2.849688	0.005000	9.103680	1.785152	1.627120	-0.717645	-0.381559	-0.294987	-0.003772	-0.010001	0.007849
561	2.854688	0.005000	9.078387	1.744289	1.644298	-0.716983	-0.380234	-0.296344	-0.012523	-0.000709	0.005385
562	2.859688	0.005000	9.142920	1.750266	1.648080	-0.716320	-0.378908	-0.297701	-0.008340	0.000792	0.001913
563	2.864688	0.005000	9.156041	1.582721	1.635082	-0.715657	-0.377583	-0.299058	-0.011574	-0.008236	-0.001671
564	2.869688	0.005000	9.193203	1.659123	1.776843	-0.714994	-0.376257	-0.300414	-0.013569	-0.005557	-0.006699
565	2.874688	0.005000	9.195082	1.687320	1.700242	-0.714332	-0.374932	-0.301771	-0.008422	-0.011039	0.000545
566	2.879688	0.005000	9.110427	1.687320	1.608840	-0.713669	-0.373607	-0.303128	-0.015588	-0.004775	0.004495
567	2.884688	0.005000	9.129805	1.613212	1.621955	-0.713006	-0.372281	-0.304485	-0.009408	-0.003255	0.006910
568	2.889688	0.005000	8.991977	1.687320	1.724554	-0.712343	-0.370956	-0.305841	-0.008713	0.001448	0.010717
569	2.894688	0.005000	9.103680	1.687320	1.648473	-0.711940	-0.370279	-0.306570	-0.024539	0.001811	0.009990
570	2.899688	0.005000	8.995330	1.724218	1.645738	-0.711940	-0.370610	-0.306324	-0.000980	-0.003411	0.004979
571	2.904688	0.005000	9.020440	1.761040	1.751521	-0.711940	-0.370941	-0.306077	-0.012257	0.005965	-0.007035
572	2.909688	0.005000	9.082185	1.758635	1.726560	-0.711940	-0.371272	-0.305831	-0.017473	-0.005996	-0.000990
573	2.914688	0.005000	9.142920	1.667019	1.687320	-0.711940	-0.371604	-0.305584	-0.021021	0.006019	0.001972
574	2.919688	0.005000	9.103680	1.664272	1.627220	-0.711940	-0.371935	-0.305337	-0.015650	-0.002432	0.004064
575	2.924688	0.005000	9.128988	1.726560	1.569600	-0.711940	-0.372266	-0.305091	-0.009429	-0.006744	0.003656
576	2.929688	0.005000	9.221400	1.694248	1.592684	-0.711940	-0.372597	-0.304844	-0.011975	0.006177	-0.000956
577	2.934688	0.005000	9.163871	1.747511	1.750174	-0.711940	-0.372929	-0.304598	-0.001616	-0.003619	0.004959
578	2.939688	0.005000	9.239941	1.710178	1.689479	-0.711940	-0.373260	-0.304351	-0.011711	0.004684	-0.005196
579	2.944688	0.005000	9.172206	1.664478	1.585998	-0.711940	-0.373591	-0.304104	-0.006538	0.002059	-0.000505
580	2.949688	0.005000	9.107018	1.726560	1.648080	-0.711940	-0.373922	-0.303858	-0.005698	0.004202	0.011680
581	2.954688	0.005000	9.131136	1.714776	1.750128	-0.711940	-0.374253	-0.303611	-0.005679	-0.004068	0.004758
582	2.959688	0.005000	9.231460	1.618567	1.687320	-0.711940	-0.374585	-0.303365	-0.018411	-0.009450	0.012147
583	2.964688	0.005000	9.128069	1.648080	1.694745	-0.711940	-0.374531	-0.303656	-0.017624	0.010275	0.006474
584	2.969688	0.005000	9.041447	1.692736	1.715729	-0.711940	-0.374420	-0.304025	-0.013112	0.005214	-0.003140
585	2.974688	0.005000	9.182160	1.575752	1.768876	-0.711940	-0.374310	-0.304395	-0.017444	-0.003698	0.011945
586	2.979688	0.005000	9.142920	1.686662	1.688637	-0.711940	-0.374199	-0.304765	-0.013926	-0.005530	0.005009
587	2.984688	0.005000	9.142920	1.686034	1.727846	-0.711940	-0.374089	-0.305135	-0.010378	-0.003197	0.011041
588	2.989688	0.005000	9.178470	1.733940	1.722870	-0.711940	-0.373979	-0.305505	-0.019217	-0.003613	-0.003255
589	2.994688	0.005000	9.025200	1.726560	1.660152	-0.711940	-0.373868	-0.305875	-0.010890	-0.009543	0.005072
590	2.999688	0.005000	9.095630	1.710460	1.679270	-0.711940	-0.373758	-0.306244	-0.014787	0.007159	0.006746
591	3.004688	0.005000	9.074897	1.726560	1.697777	-0.711940	-0.373647	-0.306614	-0.017775	0.008245	0.001465
592	3.009688	0.005000	9.155642	1.726560	1.673524	-0.711940	-0.373537	-0.306984	-0.021824	-0.003359	0.007094
593	3.014688	0.005000	9.079254	1.702134	1.672506	-0.711940	-0.373426	-0.307354	-0.013631	-0.008496	0.001210
594	3.019688	0.005000	9.091248	1.704544	1.709336	-0.711940	-0.373316	-0.307724	-0.008670	-0.008402	0.006945
595	3.024688	0.005000	9.084287	1.687320	1.648080	-0.711940	-0.373205	-0.308094	-0.016177	-0.000577	0.011214
596	3.029688	0.005000	9.064440	1.704988	1.722656	-0.711901	-0.373095	-0.308202	-0.004793	-0.009012	0.008126
597	3.034688	0.005000	9.031735	1.750542	1.781058	-0.711791	-0.372985	-0.307832	-0.014532	-0.000682	0.002473
598	3.039688	0.005000	8.999121	1.661241	1.831361	-0.711680	-0.372874	-0.307462	-0.005727	-0.003970	-0.001451
599	3.044688	0.005000	9.142920	1.715659	1.754899	-0.711570	-0.372764	-0.307092	-0.004276	-0.006719	-0.004174
600	3.049688	0.005000	9.085981	1.639231	1.805040	-0.711459	-0.372653	-0.306722	0.002376	-0.001232	-0.002262
601	3.054688	0.005000	9.005611	1.582700	1.765800	-0.711349	-0.372543	-0.306352	0.005410	-0.020174	0.011686
602	3.059688	0.005000	9.107814	1.648080	1.757533	-0.711239	-0.372433	-0.305982	-0.007677	-0.004687	0.010004
603	3.064688	0.005000	9.138594	1.645917	1.682994	-0.711128	-0.372322	-0.305612	0.005406	-0.016593	0.008305
604	3.069688	0.005000	9.142491	1.647866	1.764943	-0.711018	-0.372212	-0.305242	0.002188	-0.009439	0.008854
605	3.074688	0.005000	9.137655	1.723928	1.768432	-0.710907	-0.372101	-0.304872	-0.005373	-0.007827	0.008266
606	3.079688	0.005000	9.113634	1.765800	1.824373	-0.710797	-0.371991	-0.304502	-0.008827	-0.015474	0.006384
607	3.084688	0.005000	9.057459	1.629784	1.740523	-0.710687	-0.371881	-0.304132	-0.010102	-0.009231	0.000026
608	3.089688	0.005000	9.103680	1.608840	1.687320	-0.710576	-0.371770	-0.303762	-0.009412	-0.017500	-0.000182
609	3.094688	0.005000	9.076103	1.648080	1.659743	-0.710466	-0.371660	-0.303392	-0.007081	-0.019260	0.006583
610	3.099688	0.005000	9.131756	1.569600	1.737724	-0.710541	-0.371642	-0.303437	0.002142	-0.016295	0.000963
611	3.104688	0.005000	9.135984	1.601904	1.765800	-0.710651	-0.371642	-0.303560	-0.004906	-0.009568	0.014513
612	3.109688	0.005000	9.200724	1.650192	1.745124	-0.710761	-0.371642	-0.303683	-0.014746	-0.001116	-0.008094
613	3.114688	0.005000	9.122196	1.726560	1.784316	-0.710872	-0.371642	-0.303806	-0.008591	-0.018593	0.012044
614	3.119688	0.005000	9.159241	1.765800	1.710239	-0.710982	-0.371642	-0.303930	-0.012589	-0.005447	0.004401
615	3.124688	0.005000	9.196072	1.791128	1.740472	-0.711092	-0.371642	-0.304053	-0.010772	-0.001107	0.010892
616	3.129688	0.005000	9.115178	1.749556	1.698818	-0.711203	-0.371642	-0.304176	-0.006272	-0.007843	0.001789
617	3.134688	0.005000	9.044079	1.687320	1.687320	-0.711313	-0.371642	-0.304300	-0.021939	-0.004539	-0.011226
618	3.139688	0.005000	9.160719	1.694467	1.687320	-0.711424	-0.371642	-0.304423	-0.014982	-0.015371	0.007962
619	3.144688	0.005000	9.108411	1.736022	1.648080	-0.711534	-0.371642	-0.304546	-0.018127	-0.005125	-0.001423
620	3.149688	0.005000	9.100927	1.794027	1.642574	-0.711644	-0.371642	-0.304670	-0.012307	-0.018251	0.011484
621	3.154688	0.005000	9.142920	1.688085	1.726177	-0.711755	-0.371642	-0.304793	-0.005951	-0.004016	0.003485
622	3.159688	0.005000	9.105692	1.728572	1.799004	-0.711865	-0.371642	-0.304916	-0.012517	-0.011703	0.002880
623	3.164688	0.005000	9.130983	1.714623	1.652059	-0.711975	-0.371819	-0.304881	-0.007428	-0.018071	0.011632
624	3.169688	0.005000	9.208631	1.687320	1.687320	-0.712086	-0.372371	-0.304511	-0.007330	-0.008600	0.004391
625	3.174688	0.005000	9.121046	1.617523	1.678637	-0.712196	-0.372923	-0.304141	-0.010415	-0.013738	0.002450
626	3.179688	0.005000	9.142920	1.715828	1.648080	-0.712307	-0.373476	-0.303771	-0.007732	-0.004191	0.006519
627	3.184688	0.005000	9.051493	1.739507	1.713414	-0.712417	-0.374028	-0.303401	-0.002242	-0.007824	0.002076
628	3.189688	0.005000	9.182160	1.828911	1.750431	-0.712528	-0.374580	-0.303031	-0.006681	-0.006875	0.006873
629	3.194688	0.005000	9.077699	1.722319	1.783300	-0.712638	-0.375132	-0.302661	-0.005948	-0.004291	0.005822
630	3.199688	0.005000	9.065022	1.667991	1.668572	-0.712749	-0.375684	-0.302291	-0.011260	0.002651	0.016120
631	3.204688	0.005000	9.064440	1.726560	1.726560	-0.712859	-0.376237	-0.301921	-0.015493	-0.000028	0.003777
632	3.209688	0.005000	9.127947	1.702293	1.702293	-0.712970	-0.376789	-0.301551	-0.017353	-0.019967	0.004465
633	3.214688	0.005000	9.091115	1.713995	1.635515	-0.713080	-0.377341	-0.301181	-0.026360	0.003639	0.015828
634	3.219688	0.005000	9.123981	1.697471	1.618991	-0.713191	-0.377893	-0.300811	-0.012805	0.004504	0.001351
635	3.224688	0.005000	9.134714	1.631667	1.695526	-0.713301	-0.378445	-0.300441	-0.010226	-0.008645	0.018976
636	3.229688	0.005000	9.036801	1.653880	1.648080	-0.713412	-0.378998	-0.300071	-0.019980	0.002766	-0.002787
637	3.234688	0.005000	9.107064	1.844280	1.637929	-0.713611	-0.378748	-0.300597	-0.006105	-0.016906	0.005789
638	3.239688	0.005000	9.142920	1.725138	1.648080	-0.713832	-0.378306	-0.301337	-0.007685	0.002303	0.009473
639	3.244688	0.005000	9.104645	1.763871	1.571529	-0.714053	-0.377864	-0.302076	-0.010699	-0.002744	0.010004
640	3.249688	0.005000	9.025200	1.648080	1.651408	-0.714274	-0.377423	-0.302816	-0.005641	0.001447	0.014630
641	3.254688	0.005000	9.059127	1.653393	1.648080	-0.714494	-0.376981	-0.303556	-0.012461	0.002138	-0.001079
642	3.259688	0.005000	9.119137	1.648080	1.734885	-0.714715	-0.376540	-0.304296	-0.003804	-0.005610	0.005304
643	3.264688	0.005000	9.045228	1.745772	1.805040	-0.714936	-0.376098	-0.305035	0.000270	-0.002416	0.012409
644	3.269688	0.005000	9.052036	1.660484	1.633649	-0.715157	-0.375656	-0.305775	0.003760	0.001559	0.015101
645	3.274688	0.005000	9.153174	1.707828	1.712067	-0.715378	-0.375215	-0.306515	-0.003901	0.004864	0.003159
646	3.279688	0.005000	9.126018	1.625742	1.704222	-0.715598	-0.374773	-0.307254	-0.010845	0.001583	-0.001668
647	3.284688	0.005000	9.102621	1.589749	1.706411	-0.715819	-0.374332	-0.307994	-0.006526	-0.006820	0.012635
648	3.289688	0.005000	9.100405	1.669338	1.708578	-0.716040	-0.373890	-0.308734	-0.009636	0.001703	0.005638
649	3.294688	0.005000	9.025200	1.679849	1.726560	-0.716261	-0.373448	-0.309473	-0.008725	-0.000478	0.011625
650	3.299688	0.005000	9.038663	1.673857	1.596526	-0.716259	-0.373039	-0.309893	-0.009702	-0.008221	0.002110
651	3.304688	0.005000	9.086876	1.586404	1.760168	-0.715707	-0.372707	-0.309523	-0.015450	0.007224	0.001109
652	3.309688	0.005000	9.173357	1.648080	1.748193	-0.715154	-0.372376	-0.309153	-0.013228	0.011522	0.010943
653	3.314688	0.005000	9.103680	1.629179	1.726560	-0.714602	-0.372045	-0.308783	-0.014332	0.011939	0.005757
654	3.319688	0.005000	9.094769	1.682865	1.774711	-0.714050	-0.371713	-0.308413	-0.010731	0.004443	0.006866
655	3.324688	0.005000	9.031352	1.610891	1.883520	-0.713498	-0.371382	-0.308043	-0.013307	0.005189	0.002676
656	3.329688	0.005000	9.064440	1.647974	1.804934	-0.712945	-0.371051	-0.307673	-0.010344	0.001586	0.001482
657	3.334688	0.005000	9.138298	1.682698	1.802729	-0.712393	-0.370719	-0.307303	-0.011445	0.014234	-0.003121
658	3.339688	0.005000	9.255981	1.638762	1.765800	-0.711841	-0.370388	-0.306933	-0.019233	-0.004571	0.009459
659	3.344688	0.005000	9.168840	1.680660	1.706580	-0.711288	-0.370057	-0.306563	-0.013838	0.001143	0.003532
660	3.349688	0.005000	9.124769	1.696395	1.678245	-0.710736	-0.369726	-0.306193	-0.033138	0.015152	0.002868
661	3.354688	0.005000	9.075785	1.659425	1.782349	-0.710184	-0.369394	-0.305823	-0.017400	0.000094	0.011046
662	3.359688	0.005000	9.038627	1.595413	1.752373	-0.709632	-0.369063	-0.305453	-0.011668	-0.002620	-0.006860
663	3.364688	0.005000	9.001800	1.687320	1.891080	-0.709079	-0.368732	-0.305083	-0.011688	-0.004884	-0.010482
664	3.369688	0.005000	9.121712	1.662935	1.877167	-0.709126	-0.369085	-0.305191	-0.008841	0.006212	0.000999
665	3.374688	0.005000	9.084634	1.649228	1.784846	-0.709347	-0.369637	-0.305438	-0.020299	-0.000203	0.010649
666	3.379688	0.005000	9.058471	1.648080	1.805040	-0.709568	-0.370189	-0.305684	-0.009426	-0.007600	0.011166
667	3.384688	0.005000	9.010678	1.730886	1.775996	-0.709789	-0.370741	-0.305931	-0.020717	0.000325	-0.004230
668	3.389688	0.005000	9.076729	1.726560	1.751139	-0.710010	-0.371294	-0.306178	-0.005679	-0.009516	0.003331
669	3.394688	0.005000	9.211525	1.687320	1.755925	-0.710231	-0.371846	-0.306424	-0.018000	0.003468	0.010710
670	3.399688	0.005000	9.159530	1.805040	1.765800	-0.710452	-0.372398	-0.306671	-0.021877	-0.001761	0.005144
671	3.404688	0.005000	9.091851	1.793211	1.744304	-0.710672	-0.372950	-0.306918	-0.002793	-0.014443	0.010853
672	3.409688	0.005000	9.028781	1.733722	1.872776	-0.710893	-0.373502	-0.307164	-0.007499	0.004856	0.001257
673	3.414688	0.005000	8.949047	1.725396	1.800386	-0.711114	-0.374055	-0.307411	-0.007828	-0.016128	0.006858
674	3.419688	0.005000	9.140578	1.725779	1.763458	-0.711335	-0.374607	-0.307658	-0.001692	-0.004136	0.004181
675	3.424688	0.005000	9.110049	1.618394	1.768985	-0.711556	-0.375159	-0.307904	-0.005475	-0.014789	0.002111
676	3.429688	0.005000	9.030737	1.681783	1.799503	-0.711777	-0.375711	-0.308151	-0.005744	-0.018280	0.011432
677	3.434688	0.005000	9.064440	1.679775	1.678260	-0.711882	-0.376119	-0.308398	-0.003476	-0.017842	0.002388
678	3.439688	0.005000	9.054607	1.697153	1.765709	-0.711661	-0.376119	-0.308644	-0.005705	-0.017644	0.011329
679	3.444688	0.005000	9.103680	1.683768	1.816936	-0.711440	-0.376119	-0.308891	-0.005009	-0.014349	0.014355
680	3.449688	0.005000	9.114301	1.662389	1.751491	-0.711220	-0.376119	-0.309138	-0.009559	-0.024989	0.018941
681	3.454688	0.005000	9.171244	1.726560	1.821759	-0.710999	-0.376119	-0.309384	-0.006816	-0.016557	0.012116
682	3.459688	0.005000	9.103680	1.629171	1.746891	-0.710778	-0.376119	-0.309631	-0.000795	-0.020470	0.004276
683	3.464688	0.005000	9.103680	1.648080	1.904587	-0.710557	-0.376119	-0.309878	-0.004194	-0.021690	0.017268
684	3.469688	0.005000	9.056727	1.648080	1.781563	-0.710336	-0.376119	-0.310125	-0.010441	-0.013256	0.000165
685	3.474688	0.005000	9.115600	1.661740	1.753880	-0.710115	-0.376119	-0.310371	0.001878	-0.022930	0.004544
686	3.479688	0.005000	9.075846	1.754394	1.788612	-0.709894	-0.376119	-0.310618	-0.005664	-0.022467	0.004546
687	3.484688	0.005000	9.025200	1.678321	1.844280	-0.709673	-0.376119	-0.310865	-0.011773	-0.027700	0.009323
688	3.489688	0.005000	9.128973	1.694294	1.812014	-0.709452	-0.376119	-0.311111	-0.004436	-0.021410	0.017934
689	3.494688	0.005000	9.103680	1.682681	1.800401	-0.709231	-0.376119	-0.311358	-0.006107	-0.017190	-0.002915
690	3.499688	0.005000	9.066674	1.687320	1.765800	-0.709011	-0.376119	-0.311605	0.001656	-0.031840	0.004377
691	3.504688	0.005000	9.181873	1.647793	1.687607	-0.709947	-0.376615	-0.310375	-0.006179	-0.024293	0.006907
692	3.509688	0.005000	9.217145	1.645953	1.689447	-0.711272	-0.377278	-0.308648	-0.005071	-0.029956	0.001061
693	3.514688	0.005000	9.064440	1.617795	1.791607	-0.712598	-0.377941	-0.306921	-0.013134	-0.021024	-0.002798
694	3.519688	0.005000	9.136444	1.785611	1.733036	-0.713923	-0.378603	-0.305194	-0.012415	-0.012600	-0.011088
695	3.524688	0.005000	9.082223	1.596275	1.687320	-0.715249	-0.379266	-0.303468	-0.013289	-0.024987	0.006031
696	3.529688	0.005000	9.064440	1.665649	1.676485	-0.716574	-0.379929	-0.301741	-0.011628	-0.028459	-0.008890
697	3.534688	0.005000	9.116923	1.674567	1.739313	-0.717900	-0.380592	-0.300014	-0.013418	-0.035753	-0.004291
698	3.539688	0.005000	9.127460	1.600520	1.734880	-0.719225	-0.381254	-0.298287	-0.014796	-0.020456	-0.000516
699	3.544688	0.005000	9.125329	1.569600	1.648080	-0.720551	-0.381917	-0.296561	-0.011818	-0.018234	-0.006886
700	3.549688	0.005000	9.123683	1.628843	1.550363	-0.721876	-0.382580	-0.294834	-0.019844	-0.014263	-0.001722
701	3.554688	0.005000	9.064440	1.630986	1.660121	-0.723201	-0.383243	-0.293107	-0.016493	-0.013010	-0.008660
702	3.559688	0.005000	9.088976	1.702024	1.569600	-0.724527	-0.383905	-0.291380	-0.016483	-0.017255	0.006335
703	3.564688	0.005000	9.130447	1.674847	1.542833	-0.725852	-0.384568	-0.289654	-0.021818	-0.010996	-0.001506
704	3.569688	0.005000	9.114088	1.697728	1.501528	-0.726632	-0.384867	-0.288594	-0.012256	-0.012256	0.000688
705	3.574688	0.005000	9.095566	1.726560	1.553371	-0.725638	-0.383983	-0.289705	-0.024007	-0.006504	0.004832
706	3.579688	0.005000	9.058732	1.765800	1.524652	-0.724643	-0.383099	-0.290815	-0.015882	-0.008125	-0.001528
707	3.584688	0.005000	9.025200	1.765800	1.562157	-0.723649	-0.382215	-0.291926	-0.013848	-0.007676	0.005175
708	3.589688	0.005000	9.065787	1.845627	1.529013	-0.722654	-0.381331	-0.293036	-0.022984	-0.006648	-0.001970
709	3.594688	0.005000	9.027288	1.921716	1.414728	-0.721659	-0.380447	-0.294147	-0.005196	0.002421	0.000848
710	3.599688	0.005000	9.028201	1.850282	1.491120	-0.720665	-0.379563	-0.295257	-0.003563	0.005969	0.005562
711	3.604688	0.005000	9.109098	1.878102	1.637245	-0.719670	-0.378679	-0.296368	-0.005767	0.004352	0.004671
712	3.609688	0.005000	9.127460	1.742020	1.718830	-0.718676	-0.377795	-0.297478	-0.008431	0.001054	0.009231
713	3.614688	0.005000	9.142920	1.824752	1.608840	-0.717681	-0.376911	-0.298589	-0.008864	0.015801	0.005654
714	3.619688	0.005000	9.064440	1.765800	1.542532	-0.716687	-0.376026	-0.299700	0.004952	0.005791	0.010667
715	3.624688	0.005000	9.064440	1.819625	1.476535	-0.715692	-0.375142	-0.300810	-0.009893	0.021204	0.016080
716	3.629688	0.005000	9.041991	1.782591	1.451880	-0.714698	-0.374258	-0.301921	-0.012718	0.017064	0.020659
717	3.634688	0.005000	8.985960	1.844280	1.492483	-0.713703	-0.373374	-0.303031	-0.004788	0.027812	0.011804
718	3.639688	0.005000	9.082331	1.747909	1.569600	-0.713272	-0.373134	-0.303692	-0.006873	0.008469	-0.001304
719	3.644688	0.005000	9.056725	1.710797	1.624603	-0.713051	-0.373134	-0.304185	0.000815	0.019307	0.020686
720	3.649688	0.005000	9.065803	1.634546	1.699492	-0.712831	-0.373134	-0.304678	-0.015742	0.032057	0.011280
721	3.654688	0.005000	9.109542	1.659206	1.687320	-0.712610	-0.373134	-0.305172	-0.002133	0.021334	0.020004
722	3.659688	0.005000	9.085527	1.835204	1.726560	-0.712389	-0.373134	-0.305665	-0.004539	0.033009	0.012784
723	3.664688	0.005000	9.064440	1.713188	1.694006	-0.712168	-0.373134	-0.306158	-0.007063	0.024035	0.011828
724	3.669688	0.005000	8.994683	1.608840	1.757077	-0.711947	-0.373134	-0.306651	0.001821	0.030478	0.016984
725	3.674688	0.005000	9.068329	1.685376	1.651969	-0.711727	-0.373134	-0.307144	0.003609	0.032239	0.012242
726	3.679688	0.005000	9.103680	1.648080	1.687320	-0.711506	-0.373134	-0.307637	0.002139	0.022088	0.030167
727	3.684688	0.005000	9.059634	1.726560	1.768203	-0.711285	-0.373134	-0.308130	-0.003767	0.035145	0.021788
728	3.689688	0.005000	9.177353	1.613647	1.878713	-0.711064	-0.373134	-0.308624	-0.005712	0.029554	0.014949
729	3.694688	0.005000	9.103680	1.608840	1.858560	-0.710843	-0.373134	-0.309117	-0.009619	0.025869	0.018103
730	3.699688	0.005000	9.073607	1.608840	1.793302	-0.710623	-0.373134	-0.309610	-0.008486	0.030235	0.012643
731	3.704688	0.005000	9.131346	1.592749	1.770317	-0.710494	-0.373226	-0.309768	0.000391	0.023587	0.019746
732	3.709688	0.005000	9.103680	1.530360	1.869532	-0.710715	-0.373668	-0.308658	0.002546	0.023382	-0.002006
733	3.714688	0.005000	9.087479	1.546561	1.805040	-0.710936	-0.374110	-0.307548	-0.002807	0.021431	0.005083
734	3.719688	0.005000	9.082782	1.650637	1.865178	-0.711157	-0.374552	-0.306438	-0.014966	0.019474	0.003074
735	3.724688	0.005000	9.122167	1.786553	1.964265	-0.711378	-0.374993	-0.305328	-0.005686	0.011921	0.003350
736	3.729688	0.005000	9.142920	1.599022	1.939113	-0.711599	-0.375435	-0.304218	-0.007101	0.008085	0.025905
737	3.734688	0.005000	9.171183	1.544491	1.962000	-0.711819	-0.375877	-0.303108	-0.011895	0.014019	-0.002906
738	3.739688	0.005000	9.182160	1.569600	1.946843	-0.712040	-0.376319	-0.301998	-0.014702	0.006319	0.002334
739	3.744688	0.005000	9.034866	1.618506	1.893761	-0.712261	-0.376761	-0.300888	-0.012678	0.006542	0.006872
740	3.749688	0.005000	9.096316	1.584328	1.866373	-0.712482	-0.377202	-0.299778	-0.014268	-0.004566	0.002743
741	3.754688	0.005000	9.035121	1.692280	1.966960	-0.712703	-0.377644	-0.298668	-0.012481	-0.007585	0.001218
742	3.759688	0.005000	8.988516	1.613952	2.040480	-0.712924	-0.378086	-0.297558	-0.011230	-0.006265	-0.004291
743	3.764688	0.005000	9.025200	1.726560	1.960790	-0.713145	-0.378528	-0.296448	-0.011876	-0.015865	0.000359
744	3.769688	0.005000	9.137502	1.651692	1.771218	-0.713366	-0.378970	-0.295338	-0.020517	-0.008431	-0.011200
745	3.774688	0.005000	9.208920	1.643920	1.765800	-0.713356	-0.379335	-0.295429	-0.013554	-0.020368	-0.001524
746	3.779688	0.005000	9.209091	1.753491	1.883520	-0.713246	-0.379666	-0.296046	-0.015427	-0.021346	-0.004383
747	3.784688	0.005000	9.199301	1.765800	1.800081	-0.713135	-0.379997	-0.296662	-0.019307	-0.030067	-0.012097
748	3.789688	0.005000	9.064440	1.669772	1.855126	-0.713025	-0.380329	-0.297279	-0.005259	-0.033935	-0.000431
749	3.794688	0.005000	9.064440	1.713638	1.949078	-0.712914	-0.380660	-0.297896	-0.013006	-0.024888	-0.015882
750	3.799688	0.005000	9.134350	1.656650	1.946665	-0.712804	-0.380991	-0.298512	-0.007201	-0.037677	-0.007523
751	3.804688	0.005000	9.042732	1.744092	1.844280	-0.712693	-0.381323	-0.299129	-0.012805	-0.029857	-0.008839
752	3.809688	0.005000	9.044517	1.668003	1.805040	-0.712583	-0.381654	-0.299746	-0.012558	-0.035620	-0.007896
753	3.814688	0.005000	9.098721	1.692279	1.839321	-0.712472	-0.381986	-0.300362	-0.017419	-0.034135	-0.006654
754	3.819688	0.005000	9.187105	1.599057	1.726560	-0.712362	-0.382317	-0.300979	-0.012885	-0.030181	-0.013923
755	3.824688	0.005000	9.091049	1.594862	1.649426	-0.712251	-0.382648	-0.301596	-0.009163	-0.041060	-0.001989
756	3.829688	0.005000	9.035580	1.648080	1.687320	-0.712141	-0.382980	-0.302212	-0.008139	-0.030713	-0.003184
757	3.834688	0.005000	9.033173	1.711240	1.695293	-0.712030	-0.383311	-0.302829	-0.009213	-0.039927	-0.006388
758	3.839688	0.005000	9.025200	1.759840	1.765800	-0.712041	-0.383401	-0.303378	-0.013057	-0.028616	-0.003390
759	3.844688	0.005000	8.950333	1.612453	1.680094	-0.712593	-0.382407	-0.303625	-0.022297	-0.036339	-0.004578
760	3.849688	0.005000	8.987169	1.573227	1.569600	-0.713145	-0.381413	-0.303871	-0.004753	-0.030181	-0.012677
761	3.854688	0.005000	9.102210	1.687320	1.685115	-0.713698	-0.380418	-0.304118	-0.008910	-0.020106	-0.010228
762	3.859688	0.005000	9.179007	1.729713	1.572753	-0.714250	-0.379424	-0.304365	-0.007098	-0.037356	0.006204
763	3.864688	0.005000	9.142920	1.687320	1.502235	-0.714802	-0.378430	-0.304612	-0.024681	-0.023887	0.003710
764	3.869688	0.005000	9.103680	1.687320	1.593077	-0.715354	-0.377436	-0.304858	-0.007502	-0.030558	-0.000186
765	3.874688	0.005000	9.074357	1.736477	1.687320	-0.715907	-0.376442	-0.305105	-0.015290	-0.021534	-0.004672
766	3.879688	0.005000	9.116005	1.768066	1.515769	-0.716459	-0.375448	-0.305352	-0.013722	-0.016381	-0.006971
767	3.884688	0.005000	9.064440	1.740829	1.437611	-0.717011	-0.374454	-0.305598	-0.011987	-0.029097	0.005612
768	3.889688	0.005000	9.204718	1.715755	1.642203	-0.717563	-0.373460	-0.305845	-0.007957	-0.019411	-0.007412
769	3.894688	0.005000	9.122772	1.764744	1.645967	-0.718116	-0.372466	-0.306092	-0.009887	-0.015387	-0.000807
770	3.899688	0.005000	9.046454	1.744546	1.559798	-0.718668	-0.371472	-0.306339	-0.007053	-0.006853	0.003722
771	3.904688	0.005000	9.025200	1.805040	1.530360	-0.719220	-0.370478	-0.306585	-0.013280	-0.008260	-0.001930
772	3.909688	0.005000	9.078765	1.713169	1.648080	-0.718960	-0.370223	-0.306667	-0.005431	-0.005240	0.006317
773	3.914688	0.005000	9.064440	1.721265	1.569600	-0.718297	-0.370333	-0.306667	-0.019164	-0.004365	-0.001734
774	3.919688	0.005000	8.994993	1.805040	1.620981	-0.717634	-0.370444	-0.306667	-0.006748	-0.009664	0.005359
775	3.924688	0.005000	8.985960	1.811667	1.536987	-0.716971	-0.370554	-0.306667	-0.006733	-0.001188	0.009384
776	3.929688	0.005000	9.069069	1.721931	1.578858	-0.716309	-0.370665	-0.306667	-0.012580	-0.000136	0.006198
777	3.934688	0.005000	9.066706	1.761268	1.613372	-0.715646	-0.370775	-0.306667	-0.009415	0.001220	0.012217
778	3.939688	0.005000	9.181888	1.804632	1.726424	-0.714983	-0.370886	-0.306667	-0.015265	0.008417	0.006258
779	3.944688	0.005000	9.106206	1.689846	1.645554	-0.714321	-0.370996	-0.306667	-0.008354	0.010266	0.011243
780	3.949688	0.005000	9.103680	1.687320	1.687320	-0.713658	-0.371107	-0.306667	-0.014155	0.019674	0.001450
781	3.954688	0.005000	9.129110	1.654985	1.675700	-0.712995	-0.371217	-0.306667	-0.010095	0.011815	0.007526
782	3.959688	0.005000	9.064440	1.666505	1.599628	-0.712333	-0.371328	-0.306667	-0.011483	0.002757	0.007850
783	3.964688	0.005000	9.064440	1.782512	1.642264	-0.711670	-0.371438	-0.306667	-0.006458	0.009235	0.003308
784	3.969688	0.005000	9.103680	1.726560	1.570886	-0.711007	-0.371549	-0.306667	-0.011030	0.007339	0.014198
785	3.974688	0.005000	9.064440	1.663696	1.679313	-0.710448	-0.371625	-0.306725	-0.019366	0.020117	0.000790
786	3.979688	0.005000	9.103680	1.630275	1.651711	-0.710448	-0.371514	-0.307095	-0.006763	0.005682	0.009808
787	3.984688	0.005000	9.162196	1.648080	1.627427	-0.710448	-0.371404	-0.307465	-0.003574	0.020419	0.011796
788	3.989688	0.005000	9.215890	1.704185	1.827415	-0.710448	-0.371293	-0.307835	-0.009512	0.014134	0.007039
789	3.994688	0.005000	9.206651	1.711811	1.805040	-0.710448	-0.371183	-0.308205	-0.003941	0.004182	0.012312
790	3.999688	0.005000	9.130412	1.633857	1.831772	-0.710448	-0.371072	-0.308575	-0.016122	0.013704	-0.001700
791	4.004688	0.005000	9.123882	1.735498	1.844280	-0.710448	-0.370962	-0.308945	-0.008391	0.006109	0.007380
792	4.009688	0.005000	9.150983	1.687320	1.813103	-0.710448	-0.370851	-0.309315	-0.005254	0.018637	0.005866
793	4.014688	0.005000	9.131437	1.793557	1.771541	-0.710448	-0.370741	-0.309685	-0.004525	0.007102	0.007444
794	4.019688	0.005000	9.107016	1.719887	1.805040	-0.710448	-0.370630	-0.310055	-0.009217	0.012066	0.001519
795	4.024688	0.005000	9.141543	1.687320	1.768553	-0.710448	-0.370520	-0.310425	-0.006094	0.015976	0.003723
796	4.029688	0.005000	9.065465	1.649105	1.806065	-0.710448	-0.370409	-0.310795	0.000653	-0.001443	0.002384
797	4.034688	0.005000	9.107068	1.641303	1.808428	-0.710448	-0.370299	-0.311165	-0.017676	-0.004867	0.005781
798	4.039688	0.005000	9.126798	1.642706	1.888894	-0.710448	-0.370188	-0.311535	-0.008778	-0.015104	0.003154
799	4.044688	0.005000	9.103680	1.726560	1.852070	-0.710448	-0.370291	-0.311429	-0.014748	0.004686	0.000115
800	4.049688	0.005000	9.054365	1.678304	1.815115	-0.710448	-0.370512	-0.311059	-0.012422	0.002680	0.003206
801	4.054688	0.005000	9.091230	1.699770	1.831830	-0.710448	-0.370733	-0.310689	-0.011820	-0.001843	0.017151
802	4.059688	0.005000	9.103680	1.741105	1.844280	-0.710448	-0.370954	-0.310319	-0.016293	-0.004086	0.000955
803	4.064688	0.005000	9.086723	1.659711	1.726560	-0.710448	-0.371175	-0.309949	-0.013084	-0.014669	0.007398
804	4.069688	0.005000	9.142920	1.706687	1.706687	-0.710448	-0.371396	-0.309579	-0.006176	-0.009528	0.006473
805	4.074688	0.005000	9.178776	1.726560	1.666008	-0.710448	-0.371616	-0.309209	-0.009020	-0.010269	0.001605
806	4.079688	0.005000	9.229603	1.702838	1.781318	-0.710448	-0.371837	-0.308839	-0.014179	-0.006637	0.006731
807	4.084688	0.005000	9.130516	1.700738	1.752382	-0.710448	-0.372058	-0.308469	-0.013440	-0.006675	-0.003359
808	4.089688	0.005000	9.159838	1.687320	1.765800	-0.710448	-0.372279	-0.308099	-0.014154	-0.019614	0.008786
809	4.094688	0.005000	9.142920	1.661058	1.744068	-0.710448	-0.372500	-0.307729	-0.009609	-0.007198	-0.000437
810	4.099688	0.005000	9.064440	1.622303	1.863325	-0.710448	-0.372721	-0.307359	-0.015998	-0.021035	0.009113
811	4.104688	0.005000	9.029542	1.682978	1.800698	-0.710448	-0.372942	-0.306989	-0.011647	-0.015031	0.002663
812	4.109688	0.005000	9.105670	1.687320	1.765800	-0.710434	-0.373120	-0.306683	-0.013847	-0.022142	0.002670
813	4.114688	0.005000	9.104104	1.726136	1.765800	-0.710323	-0.373009	-0.306806	-0.011426	-0.025857	0.004849
814	4.119688	0.005000	9.106052	1.689692	1.768172	-0.710213	-0.372899	-0.306930	-0.016236	-0.014022	0.003207
815	4.124688	0.005000	9.103680	1.583930	1.736114	-0.710102	-0.372788	-0.307053	-0.012394	-0.019112	0.008978
816	4.129688	0.005000	9.057260	1.648080	1.726560	-0.709992	-0.372678	-0.307176	-0.017727	-0.013577	0.000897
817	4.134688	0.005000	9.014414	1.737346	1.737346	-0.709881	-0.372568	-0.307299	-0.015439	-0.017410	0.003744
818	4.139688	0.005000	9.142920	1.671159	1.675781	-0.709771	-0.372457	-0.307423	-0.012320	-0.017745	0.009202
819	4.144688	0.005000	9.182160	1.710010	1.662028	-0.709660	-0.372347	-0.307546	-0.009163	-0.016441	0.000669
820	4.149688	0.005000	9.142920	1.710389	1.625011	-0.709550	-0.372236	-0.307669	-0.009207	-0.020787	0.002676
821	4.154688	0.005000	9.085376	1.645448	1.648080	-0.709439	-0.372126	-0.307793	-0.015557	-0.007563	-0.001138
822	4.159688	0.005000	9.101491	1.629555	1.705845	-0.709329	-0.372016	-0.307916	-0.012746	-0.020993	0.007248
823	4.164688	0.005000	9.172252	1.618748	1.654554	-0.709218	-0.371905	-0.308039	-0.019010	-0.009662	0.004217
824	4.169688	0.005000	9.171263	1.715663	1.712388	-0.709108	-0.371795	-0.308162	-0.016544	-0.012379	-0.003222
825	4.174688	0.005000	9.303845	1.730525	1.687320	-0.708997	-0.371684	-0.308286	-0.018777	-0.016374	0.016919
826	4.179688	0.005000	9.143374	1.648080	1.716863	-0.709364	-0.371506	-0.308409	-0.018685	-0.004594	-0.004745
827	4.184688	0.005000	9.167346	1.679913	1.608840	-0.710026	-0.371285	-0.308532	-0.016038	-0.024526	0.008393
828	4.189688	0.005000	9.142920	1.638098	1.653071	-0.710689	-0.371064	-0.308656	-0.022759	-0.006798	0.000177
829	4.194688	0.005000	9.097659	1.645070	1.726560	-0.711352	-0.370843	-0.308779	-0.010916	-0.009627	0.009882
830	4.199688	0.005000	9.103680	1.609483	1.804397	-0.712014	-0.370622	-0.308903	-0.013589	-0.012909	0.006844
831	4.204688	0.005000	9.141180	1.610580	1.615799	-0.712677	-0.370401	-0.309026	-0.012535	-0.008637	0.003665
832	4.209688	0.005000	9.217695	1.683615	1.687320	-0.713340	-0.370180	-0.309149	-0.007037	-0.010224	0.015382
833	4.214688	0.005000	9.194403	1.726560	1.648080	-0.714002	-0.369960	-0.309273	-0.010503	-0.019339	0.002110
834	4.219688	0.005000	9.151346	1.774226	1.779762	-0.714665	-0.369739	-0.309396	-0.023703	-0.008939	0.005794
835	4.224688	0.005000	9.153392	1.679496	1.812864	-0.715328	-0.369518	-0.309519	-0.020428	-0.001254	0.004508
836	4.229688	0.005000	9.169274	1.621726	1.752332	-0.715990	-0.369297	-0.309643	-0.005400	-0.007578	0.002058
837	4.234688	0.005000	9.079552	1.648080	1.711448	-0.716653	-0.369076	-0.309766	-0.014353	-0.010072	0.011592
838	4.239688	0.005000	9.029436	1.608840	1.726560	-0.717316	-0.368855	-0.309889	-0.012425	0.002396	-0.003753
839	4.244688	0.005000	9.044851	1.706971	1.687381	-0.717842	-0.368623	-0.310000	-0.006319	-0.018069	0.005352
840	4.249688	0.005000	9.103680	1.648080	1.608840	-0.717179	-0.368292	-0.310000	-0.009472	0.005937	0.007070
841	4.254688	0.005000	9.094543	1.732475	1.648080	-0.716517	-0.367960	-0.310000	-0.016639	-0.009497	0.004509
842	4.259688	0.005000	9.155745	1.608840	1.674495	-0.715854	-0.367629	-0.310000	-0.013718	-0.010812	0.013609
843	4.264688	0.005000	9.279058	1.687320	1.744978	-0.715192	-0.367298	-0.310000	-0.006801	-0.005473	0.005413
844	4.269688	0.005000	9.243909	1.774165	1.844280	-0.714530	-0.366967	-0.310000	-0.007516	-0.014403	0.016308
845	4.274688	0.005000	9.148983	1.720497	1.747612	-0.713867	-0.366635	-0.310000	-0.017174	0.003541	0.000335
846	4.279688	0.005000	9.139262	1.687320	1.758485	-0.713205	-0.366304	-0.310000	-0.003320	-0.011991	-0.005271
847	4.284688	0.005000	9.141226	1.687320	1.801652	-0.712542	-0.365973	-0.310000	-0.010507	0.000549	0.005550
848	4.289688	0.005000	9.142216	1.725856	1.688024	-0.711880	-0.365642	-0.310000	-0.011710	-0.004571	0.005784
849	4.294688	0.005000	9.103680	1.654222	1.651151	-0.711218	-0.365310	-0.310000	-0.006520	0.004667	0.011257
850	4.299688	0.005000	9.172055	1.648080	1.687320	-0.710555	-0.364979	-0.310000	-0.015306	0.007920	0.011242
851	4.304688	0.005000	9.118617	1.655548	1.694788	-0.709893	-0.364648	-0.310000	-0.020897	-0.008331	0.016130
852	4.309688	0.005000	9.005474	1.589326	1.756043	-0.709231	-0.364317	-0.310000	-0.011804	-0.002406	0.001314
853	4.314688	0.005000	9.025200	1.620659	1.742161	-0.709536	-0.365147	-0.308848	-0.022396	-0.003197	0.000242
854	4.319688	0.005000	9.078673	1.708868	1.698094	-0.710530	-0.366803	-0.306874	-0.008711	-0.009263	0.001849
855	4.324688	0.005000	9.126477	1.743003	1.680967	-0.711524	-0.368460	-0.304901	-0.018014	0.000578	0.010032
856	4.329688	0.005000	9.242053	1.685253	1.685253	-0.712518	-0.370117	-0.302927	-0.003458	-0.001636	0.010074
857	4.334688	0.005000	9.142920	1.666565	1.703536	-0.713512	-0.371774	-0.300954	-0.007247	0.003424	-0.000833
858	4.339688	0.005000	9.048141	1.805040	1.811682	-0.714506	-0.373430	-0.298980	-0.007297	-0.002728	0.006000
859	4.344688	0.005000	9.052973	1.715093	1.830394	-0.715500	-0.375087	-0.297007	-0.013602	0.000958	0.005684
860	4.349688	0.005000	9.076254	1.699134	1.753986	-0.716494	-0.376744	-0.295033	-0.009234	-0.008372	-0.002465
861	4.354688	0.005000	9.084604	1.765800	1.696858	-0.717488	-0.378401	-0.293060	-0.009896	-0.014927	0.001405
862	4.359688	0.005000	9.007355	1.815753	1.687320	-0.718482	-0.380058	-0.291087	-0.017454	0.001789	-0.000219
863	4.364688	0.005000	9.093424	1.682192	1.692448	-0.719476	-0.381714	-0.289113	-0.005199	-0.000116	0.012523
864	4.369688	0.005000	9.103680	1.690091	1.687320	-0.720470	-0.383371	-0.287140	-0.009936	-0.001078	0.004383
865	4.374688	0.005000	9.064807	1.687687	1.648815	-0.721464	-0.385028	-0.285166	0.004101	-0.009293	0.008337
866	4.379688	0.005000	9.141343	1.688897	1.575908	-0.722372	-0.386536	-0.283394	0.000971	-0.012637	0.018081
867	4.384688	0.005000	9.142920	1.648080	1.640091	-0.722151	-0.386094	-0.284258	0.002466	-0.003948	0.005620
868	4.389688	0.005000	9.037846	1.549330	1.654403	-0.721931	-0.385652	-0.285121	0.000727	-0.010587	0.014592
869	4.394688	0.005000	9.164733	1.648080	1.669893	-0.721710	-0.385210	-0.285984	-0.010970	0.003230	0.003726
870	4.399688	0.005000	9.121402	1.687320	1.748078	-0.721489	-0.384768	-0.286848	-0.008707	0.006012	0.004260
871	4.404688	0.005000	9.143180	1.622007	1.674414	-0.721268	-0.384327	-0.287711	-0.000820	0.005683	0.008999
872	4.409688	0.005000	9.197560	1.632680	1.695761	-0.721047	-0.383885	-0.288575	-0.008796	0.000314	0.001506
873	4.414688	0.005000	9.042723	1.669797	1.669797	-0.720826	-0.383443	-0.289438	-0.015242	0.000598	0.005169
874	4.419688	0.005000	9.122986	1.725932	1.610095	-0.720605	-0.383001	-0.290301	-0.006030	0.003360	0.001641
875	4.424688	0.005000	9.142920	1.748631	1.648080	-0.720384	-0.382560	-0.291165	-0.011148	-0.006617	0.002342
876	4.429688	0.005000	9.221400	1.702278	1.663038	-0.720163	-0.382118	-0.292028	-0.011085	0.002526	0.007415
877	4.434688	0.005000	9.078629	1.752276	1.635222	-0.719942	-0.381676	-0.292891	-0.008991	-0.004881	0.009297
878	4.439688	0.005000	9.017777	1.783828	1.669292	-0.719722	-0.381234	-0.293755	-0.007575	-0.000972	0.001951
879	4.444688	0.005000	9.089013	1.741227	1.788658	-0.719501	-0.380792	-0.294618	-0.008589	0.003404	0.009238
880	4.449688	0.005000	9.169816	1.844280	1.805040	-0.719095	-0.380351	-0.295481	-0.010899	-0.008686	0.009330
881	4.454688	0.005000	8.985960	1.828915	1.765800	-0.718543	-0.379909	-0.296344	-0.009937	-0.005889	0.004167
882	4.459688	0.005000	9.028048	1.684472	1.611688	-0.717991	-0.379468	-0.297207	-0.011928	-0.003614	0.008128
883	4.464688	0.005000	9.142400	1.570120	1.764759	-0.717439	-0.379026	-0.298070	-0.012421	-0.001889	0.008112
884	4.469688	0.005000	9.103680	1.608840	1.651004	-0.716887	-0.378584	-0.298933	-0.014582	0.003901	0.005391
885	4.474688	0.005000	9.069719	1.598281	1.716001	-0.716335	-0.378143	-0.299796	-0.005403	-0.009950	0.009043
886	4.479688	0.005000	9.064440	1.662650	1.687320	-0.715783	-0.377701	-0.300659	-0.015854	-0.004094	0.002692
887	4.484688	0.005000	9.093989	1.648080	1.745943	-0.715231	-0.377260	-0.301522	-0.008569	-0.007422	0.001014
888	4.489688	0.005000	9.040509	1.714594	1.699286	-0.714679	-0.376818	-0.302385	-0.017567	0.004685	0.003517
889	4.494688	0.005000	9.165242	1.673281	1.608840	-0.714127	-0.376376	-0.303248	-0.014492	-0.005224	0.004834
890	4.499688	0.005000	9.159372	1.749348	1.602504	-0.713575	-0.375935	-0.304111	-0.010757	-0.010650	0.010159
891	4.504688	0.005000	9.083077	1.786403	1.767767	-0.713023	-0.375493	-0.304974	-0.013860	-0.002838	0.007583
892	4.509688	0.005000	9.046227	1.786827	1.784013	-0.712471	-0.375052	-0.305837	-0.007181	-0.005833	0.004612
893	4.514688	0.005000	9.009176	1.772993	1.687320	-0.711944	-0.374610	-0.306667	-0.001580	-0.009721	0.008880
894	4.519688	0.005000	9.103680	1.673709	1.700931	-0.712055	-0.374168	-0.306667	0.000927	-0.009258	0.003899
895	4.524688	0.005000	9.115207	1.698847	1.631894	-0.712165	-0.373726	-0.306667	-0.010075	-0.002839	0.007127
896	4.529688	0.005000	9.133661	1.696579	1.657339	-0.712276	-0.373285	-0.306667	-0.007747	-0.010179	-0.010171
897	4.534688	0.005000	9.057596	1.701007	1.641236	-0.712386	-0.372843	-0.306667	-0.009241	-0.010911	0.000021
898	4.539688	0.005000	9.064440	1.760959	1.618521	-0.712497	-0.372401	-0.306667	-0.006379	-0.001408	0.000328
899	4.544688	0.005000	9.145415	1.721571	1.726560	-0.712607	-0.371959	-0.306667	-0.014764	-0.008206	0.004639
900	4.549688	0.005000	9.025430	1.648003	1.804963	-0.712718	-0.371518	-0.306667	-0.013405	-0.005248	0.001700
901	4.554688	0.005000	9.255039	1.758332	1.691054	-0.712828	-0.371076	-0.306667	-0.006334	-0.002080	0.007015
902	4.559688	0.005000	9.072983	1.678777	1.656623	-0.712939	-0.370634	-0.306667	-0.010812	-0.015081	0.006541
903	4.564688	0.005000	9.004608	1.747152	1.720344	-0.713049	-0.370192	-0.306667	-0.015805	-0.006721	0.001375
904	4.569688	0.005000	9.073060	1.634699	1.608840	-0.713160	-0.369750	-0.306667	-0.008526	-0.008972	0.006635
905	4.574688	0.005000	9.092646	1.665251	1.698354	-0.713270	-0.369309	-0.306667	-0.013355	0.005236	0.001779
906	4.579688	0.005000	9.091003	1.713278	1.713278	-0.713381	-0.368867	-0.306667	-0.012073	-0.008518	0.002620
907	4.584688	0.005000	9.079827	1.671933	1.702707	-0.713259	-0.368599	-0.306797	-0.016568	-0.002435	-0.008430
908	4.589688	0.005000	9.042999	1.712404	1.730202	-0.712928	-0.368488	-0.307043	-0.012255	-0.009577	-0.000814
909	4.594688	0.005000	9.044472	1.804344	1.765800	-0.712596	-0.368378	-0.307290	-0.007374	-0.012959	0.015054
910	4.599688	0.005000	9.037218	1.721492	1.770868	-0.712265	-0.368268	-0.307536	-0.018526	0.002739	0.002758
911	4.604688	0.005000	9.079117	1.726560	1.726560	-0.711933	-0.368157	-0.307783	-0.012195	-0.008459	0.013134
912	4.609688	0.005000	9.116266	1.687320	1.687320	-0.711602	-0.368047	-0.308030	-0.010502	0.003138	0.006050
913	4.614688	0.005000	9.132601	1.639797	1.697639	-0.711271	-0.367936	-0.308276	-0.016491	-0.000320	-0.001012
914	4.619688	0.005000	9.158745	1.734472	1.663905	-0.710939	-0.367826	-0.308523	-0.013145	-0.012819	0.004270
915	4.624688	0.005000	9.176260	1.681420	1.653980	-0.710608	-0.367715	-0.308770	-0.014599	-0.005672	-0.002954
916	4.629688	0.005000	9.142920	1.762248	1.697976	-0.710277	-0.367605	-0.309016	-0.009846	-0.016236	0.001905
917	4.634688	0.005000	9.181012	1.687320	1.688468	-0.709945	-0.367494	-0.309263	-0.011205	-0.010916	0.006112
918	4.639688	0.005000	9.066032	1.648876	1.688116	-0.709614	-0.367384	-0.309510	-0.005151	-0.014001	0.001595
919	4.644688	0.005000	9.106880	1.651280	1.723360	-0.709282	-0.367273	-0.309756	-0.012002	-0.006122	0.011319
920	4.649688	0.005000	9.199193	1.631425	1.687320	-0.708958	-0.367169	-0.309991	-0.002524	0.001357	0.006314
921	4.654688	0.005000	9.142920	1.672199	1.797480	-0.709179	-0.367611	-0.309251	-0.000479	-0.013063	-0.001881
922	4.659688	0.005000	9.142920	1.717221	1.668014	-0.709399	-0.368053	-0.308511	-0.013506	-0.001116	-0.010040
923	4.664688	0.005000	9.142920	1.594362	1.674939	-0.709620	-0.368495	-0.307771	-0.011045	-0.010840	0.006862
924	4.669688	0.005000	9.132906	1.554987	1.623453	-0.709841	-0.368936	-0.307031	-0.015693	-0.002236	0.009381
925	4.674688	0.005000	9.097908	1.670586	1.648080	-0.710062	-0.369378	-0.306291	-0.016267	-0.007876	-0.004049
926	4.679688	0.005000	9.103680	1.568651	1.727509	-0.710283	-0.369820	-0.305551	-0.006439	-0.004432	0.013759
927	4.684688	0.005000	9.160861	1.587541	1.765800	-0.710504	-0.370262	-0.304811	-0.018963	0.002040	0.004867
928	4.689688	0.005000	9.166421	1.608840	1.797063	-0.710725	-0.370704	-0.304071	-0.010233	-0.016191	0.005936
929	4.694688	0.005000	9.208070	1.739140	1.792460	-0.710946	-0.371145	-0.303331	-0.019146	-0.007277	0.000611
930	4.699688	0.005000	9.182160	1.765800	1.782531	-0.711167	-0.371587	-0.302591	-0.014166	-0.012271	0.000847
931	4.704688	0.005000	9.112652	1.765800	1.756828	-0.711387	-0.372029	-0.301851	-0.009465	-0.003627	0.005035
932	4.709688	0.005000	9.149486	1.654646	1.687320	-0.711608	-0.372471	-0.301111	-0.021416	-0.002160	-0.004677
933	4.714688	0.005000	9.103680	1.769949	1.683171	-0.711829	-0.372913	-0.300371	-0.021100	-0.011002	0.009113
934	4.719688	0.005000	9.062247	1.724367	1.687320	-0.711830	-0.373024	-0.300307	-0.016154	0.003345	0.003822
935	4.724688	0.005000	8.986159	1.726361	1.687320	-0.711609	-0.372803	-0.300923	-0.006691	-0.019551	0.001412
936	4.729688	0.005000	9.216257	1.655795	1.763228	-0.711389	-0.372583	-0.301540	-0.008274	-0.009731	0.003070
937	4.734688	0.005000	9.177198	1.653042	1.687320	-0.711168	-0.372362	-0.302156	-0.010223	-0.009528	-0.009614
938	4.739688	0.005000	9.182160	1.719597	1.733523	-0.710947	-0.372141	-0.302772	-0.012703	-0.012480	0.002920
939	4.744688	0.005000	9.034570	1.668580	1.599470	-0.710726	-0.371920	-0.303388	-0.014163	-0.001886	0.000570
940	4.749688	0.005000	9.001904	1.777448	1.652376	-0.710506	-0.371700	-0.304004	-0.007137	-0.015127	0.011565
941	4.754688	0.005000	8.921503	1.712537	1.636886	-0.710285	-0.371479	-0.304620	-0.011609	-0.003762	0.006056
942	4.759688	0.005000	8.946720	1.788903	1.749663	-0.710064	-0.371258	-0.305236	-0.010619	-0.006721	0.001246
943	4.764688	0.005000	9.066583	1.745109	1.648080	-0.709844	-0.371038	-0.305852	-0.006268	-0.014246	0.011134
944	4.769688	0.005000	9.048087	1.726560	1.648080	-0.709623	-0.370817	-0.306468	-0.011328	-0.010337	0.005111
945	4.774688	0.005000	9.097112	1.726560	1.697088	-0.709402	-0.370596	-0.307084	-0.009934	-0.008003	0.011786
946	4.779688	0.005000	9.142920	1.701247	1.816426	-0.709182	-0.370376	-0.307701	-0.008207	0.004648	-0.001128
947	4.784688	0.005000	9.175347	1.675807	1.742773	-0.708961	-0.370155	-0.308317	-0.005106	-0.004929	0.001742
948	4.789688	0.005000	9.103680	1.628001	1.657660	-0.709493	-0.370687	-0.308453	-0.011020	0.000670	-0.000670
949	4.794688	0.005000	9.025200	1.765800	1.694485	-0.710045	-0.371239	-0.308576	-0.005933	-0.009194	-0.003235
950	4.799688	0.005000	9.074757	1.721402	1.663555	-0.710597	-0.371791	-0.308700	-0.005248	-0.010908	0.006056
951	4.804688	0.005000	9.098048	1.648080	1.726560	-0.711149	-0.372343	-0.308823	-0.013759	-0.001710	-0.000129
952	4.809688	0.005000	9.065236	1.726560	1.725764	-0.711702	-0.372896	-0.308947	-0.007105	-0.007172	0.008942
953	4.814688	0.005000	9.105226	1.688866	1.610386	-0.712254	-0.373448	-0.309070	-0.011998	0.006707	0.002917
954	4.819688	0.005000	9.068390	1.612790	1.648080	-0.712806	-0.374000	-0.309193	-0.009865	-0.008895	0.003595
955	4.824688	0.005000	9.037933	1.648080	1.628980	-0.713359	-0.374553	-0.309317	-0.016832	-0.003598	0.005726
956	4.829688	0.005000	9.025200	1.748464	1.656748	-0.713911	-0.375105	-0.309440	-0.019809	-0.001620	-0.004063
957	4.834688	0.005000	9.103680	1.737277	1.591034	-0.714463	-0.375657	-0.309563	-0.010704	-0.004783	-0.002283
958	4.839688	0.005000	9.051462	1.687320	1.648080	-0.715015	-0.376209	-0.309687	-0.016230	-0.002768	-0.004213
959	4.844688	0.005000	9.166806	1.687320	1.687320	-0.715568	-0.376762	-0.309810	-0.005613	-0.008799	0.008713
960	4.849688	0.005000	9.131665	1.744304	1.751807	-0.716120	-0.377314	-0.309933	-0.012153	-0.001040	0.008940
961	4.854688	0.005000	9.064440	1.628735	1.765249	-0.716164	-0.377358	-0.309886	-0.015597	-0.000190	-0.003741
962	4.859688	0.005000	9.142920	1.765800	1.765800	-0.715611	-0.376805	-0.309640	-0.010181	-0.008985	0.008845
963	4.864688	0.005000	9.187394	1.775391	1.726560	-0.715059	-0.376253	-0.309393	-0.019632	0.000039	-0.002326
964	4.869688	0.005000	9.169575	1.713975	1.674735	-0.714507	-0.375701	-0.309147	-0.014358	-0.011166	0.004087
965	4.874688	0.005000	9.122565	1.639372	1.608840	-0.713955	-0.375149	-0.308900	-0.014397	-0.009447	0.004287
966	4.879688	0.005000	9.126643	1.687320	1.687320	-0.713402	-0.374596	-0.308653	-0.008505	-0.009790	0.001907
967	4.884688	0.005000	9.137102	1.714924	1.681502	-0.712850	-0.374044	-0.308407	-0.015088	-0.005376	0.007630
968	4.889688	0.005000	9.025200	1.654906	1.615666	-0.712298	-0.373492	-0.308160	-0.014522	0.001314	0.004089
969	4.894688	0.005000	9.061536	1.723656	1.690224	-0.711746	-0.372940	-0.307913	-0.009345	-0.014296	0.012389
970	4.899688	0.005000	8.985960	1.724662	1.650927	-0.711193	-0.372387	-0.307667	-0.008972	-0.003343	0.009919
971	4.904688	0.005000	9.064440	1.723247	1.654706	-0.710641	-0.371835	-0.307420	-0.013798	-0.010197	0.003286
972	4.909688	0.005000	9.103680	1.697915	1.682023	-0.710089	-0.371283	-0.307173	-0.009064	-0.011872	0.010119
973	4.914688	0.005000	9.205973	1.648080	1.600453	-0.709536	-0.370730	-0.306927	0.001987	-0.000765	0.008548
974	4.919688	0.005000	9.045198	1.765044	1.628082	-0.708984	-0.370178	-0.306680	-0.009998	-0.018540	0.021040
975	4.924688	0.005000	9.001071	1.777864	1.714496	-0.709164	-0.369940	-0.306901	-0.013138	-0.001675	0.004094
976	4.929688	0.005000	9.177967	1.697604	1.623318	-0.709385	-0.369719	-0.307147	-0.007536	-0.012350	0.001680
977	4.934688	0.005000	9.198845	1.625525	1.709875	-0.709606	-0.369498	-0.307394	-0.008673	-0.003831	0.008368
978	4.939688	0.005000	9.103680	1.687320	1.648080	-0.709827	-0.369277	-0.307641	0.005938	-0.009431	0.004888
979	4.944688	0.005000	9.146150	1.648080	1.651310	-0.710048	-0.369056	-0.307887	-0.001653	-0.013334	0.012335
980	4.949688	0.005000	9.040795	1.695370	1.624940	-0.710269	-0.368835	-0.308134	-0.000243	-0.011075	0.008004
981	4.954688	0.005000	9.064440	1.648080	1.582782	-0.710490	-0.368614	-0.308381	-0.001815	-0.009314	0.013826
982	4.959688	0.005000	9.092577	1.631047	1.693250	-0.710710	-0.368394	-0.308627	-0.009921	-0.000906	0.004764
983	4.964688	0.005000	9.090932	1.639249	1.691238	-0.710931	-0.368173	-0.308874	-0.007792	-0.001559	0.004962
984	4.969688	0.005000	9.097265	1.621670	1.700150	-0.711152	-0.367952	-0.309120	-0.007456	-0.003340	0.012189
985	4.974688	0.005000	8.985960	1.717726	1.835446	-0.711373	-0.367731	-0.309367	-0.014345	0.001215	0.002454
986	4.979688	0.005000	9.025200	1.687320	1.763734	-0.711594	-0.367510	-0.309614	-0.006074	-0.000514	0.019414
987	4.984688	0.005000	9.025200	1.726212	1.687668	-0.711815	-0.367289	-0.309860	-0.009809	0.000986	-0.000733
988	4.989688	0.005000	9.059849	1.652671	1.763504	-0.712036	-0.367308	-0.310107	-0.018334	-0.015091	0.006437
989	4.994688	0.005000	9.025200	1.613540	1.756400	-0.712257	-0.367639	-0.310354	-0.020969	-0.000593	0.004691
990	4.999688	0.005000	9.168092	1.687320	1.694354	-0.712478	-0.367971	-0.310600	-0.014372	-0.005914	-0.000920
991	5.004688	0.005000	9.121800	1.726560	1.774860	-0.712699	-0.368302	-0.310847	-0.019351	-0.007910	0.013230
992	5.009688	0.005000	9.080745	1.715093	1.793573	-0.712919	-0.368633	-0.311094	-0.013261	-0.007858	0.002052
993	5.014688	0.005000	9.103680	1.687320	1.713154	-0.713140	-0.368965	-0.311340	-0.002909	-0.007814	0.012666
994	5.019688	0.005000	9.033406	1.726560	1.710745	-0.713361	-0.369296	-0.311587	-0.011039	-0.003621	0.009164
995	5.024688	0.005000	9.082667	1.690105	1.784027	-0.713582	-0.369627	-0.311834	-0.016108	-0.013784	0.008206
996	5.029688	0.005000	9.105223	1.709254	1.786191	-0.713803	-0.369959	-0.312080	-0.010914	-0.011821	0.004855
997	5.034688	0.005000	9.126263	1.709903	1.714710	-0.714024	-0.370290	-0.312327	-0.009893	-0.009332	-0.003704
998	5.039688	0.005000	9.153664	1.673072	1.776544	-0.714245	-0.370622	-0.312574	-0.004540	-0.010813	0.009124
999	5.044688	0.005000	9.091845	1.687320	1.726560	-0.714466	-0.370953	-0.312820	-0.009579	-0.004661	-0.006717
1000	5.049688	0.005000	9.093790	1.569600	1.726560	-0.714687	-0.371284	-0.313067	-0.016026	-0.009597	0.005691
1001	5.054688	0.005000	9.025200	1.623808	1.655564	-0.714908	-0.371616	-0.313313	-0.009575	-0.001410	0.004538
1002	5.059688	0.005000	9.030676	1.687320	1.692796	-0.714620	-0.371947	-0.313220	-0.011887	-0.015696	0.005933
1003	5.064688	0.005000	9.067526	1.648080	1.805040	-0.714289	-0.372278	-0.313096	-0.010606	-0.008358	0.007056
1004	5.069688	0.005000	9.065159	1.647361	1.803601	-0.713958	-0.372609	-0.312973	-0.015034	-0.002458	-0.007807
1005	5.074688	0.005000	9.028558	1.646401	1.651438	-0.713627	-0.372940	-0.312850	-0.001642	-0.015854	0.007770
1006	5.079688	0.005000	9.171233	1.690962	1.765800	-0.713295	-0.373272	-0.312727	-0.013253	0.004303	0.001554
1007	5.084688	0.005000	9.136872	1.693368	1.805040	-0.712964	-0.373603	-0.312603	-0.009640	-0.006849	0.002893
1008	5.089688	0.005000	9.221400	1.704020	1.765800	-0.712633	-0.373934	-0.312480	-0.024883	0.000592	0.001890
1009	5.094688	0.005000	9.171764	1.697716	1.697716	-0.712302	-0.374265	-0.312357	-0.017669	-0.005329	0.004016
1010	5.099688	0.005000	9.195781	1.739370	1.752990	-0.711971	-0.374596	-0.312234	-0.013164	-0.006021	0.010420
1011	5.104688	0.005000	9.269807	1.711524	1.687320	-0.711640	-0.374927	-0.312110	-0.012039	0.000891	-0.009010
1012	5.109688	0.005000	9.277803	1.687320	1.748637	-0.711309	-0.375258	-0.311987	-0.008266	-0.003983	0.003075
1013	5.114688	0.005000	9.240974	1.628506	1.648172	-0.710977	-0.375590	-0.311864	-0.011442	0.001340	0.001948
1014	5.119688	0.005000	9.107885	1.608840	1.709043	-0.710646	-0.375921	-0.311741	-0.010105	-0.000176	-0.000920
1015	5.124688	0.005000	9.073060	1.648080	1.765800	-0.710714	-0.376518	-0.310479	-0.015664	-0.013236	-0.002927
1016	5.129688	0.005000	9.077341	1.621741	1.660981	-0.711377	-0.377512	-0.307519	-0.003094	-0.006795	0.001967
1017	5.134688	0.005000	9.132433	1.716073	1.744825	-0.712039	-0.378506	-0.304559	-0.006587	-0.011490	0.019616
1018	5.139688	0.005000	9.055999	1.648080	1.726560	-0.712702	-0.379500	-0.301599	-0.019352	0.000560	0.001444
1019	5.144688	0.005000	9.043611	1.648080	1.720423	-0.713365	-0.380494	-0.298639	-0.013493	-0.012116	0.001409
1020	5.149688	0.005000	9.146640	1.683600	1.773241	-0.714027	-0.381488	-0.295678	-0.018125	-0.011222	0.004869
1021	5.154688	0.005000	9.217890	1.764045	1.689075	-0.714690	-0.382482	-0.292718	-0.020518	-0.004785	-0.004564
1022	5.159688	0.005000	9.104308	1.649335	1.765172	-0.715353	-0.383476	-0.289758	-0.015261	-0.013186	0.009046
1023	5.164688	0.005000	9.031190	1.684325	1.796054	-0.716015	-0.384471	-0.286798	-0.013092	0.002158	-0.002303
1024	5.169688	0.005000	9.059464	1.736512	1.731536	-0.716678	-0.385465	-0.283838	-0.016831	-0.005731	0.009199
1025	5.174688	0.005000	9.223680	1.751016	1.797648	-0.717341	-0.386459	-0.280878	-0.012434	0.003101	0.008644
1026	5.179688	0.005000	9.162283	1.736241	1.667443	-0.718004	-0.387453	-0.277918	-0.022647	-0.012366	-0.014194
1027	5.184688	0.005000	9.139895	1.648080	1.714488	-0.718666	-0.388447	-0.274958	-0.012279	-0.008319	0.009126
1028	5.189688	0.005000	9.050284	1.651309	1.765800	-0.719329	-0.389441	-0.271998	-0.018294	-0.002343	-0.002138
1029	5.194688	0.005000	9.087312	1.710192	1.788672	-0.719501	-0.389062	-0.273091	-0.014720	-0.008473	0.004776
1030	5.199688	0.005000	9.085170	1.687320	1.648080	-0.719612	-0.388509	-0.274694	-0.016024	-0.004383	-0.004676
1031	5.204688	0.005000	9.064440	1.687320	1.684718	-0.719722	-0.387957	-0.276298	-0.014209	-0.006892	-0.005039
1032	5.209688	0.005000	9.087494	1.742746	1.694188	-0.719833	-0.387405	-0.277901	-0.015119	-0.006008	0.011708
1033	5.214688	0.005000	9.129124	1.740356	1.728708	-0.719943	-0.386853	-0.279504	-0.018797	-0.012122	0.003422
1034	5.219688	0.005000	9.193715	1.738115	1.805040	-0.720054	-0.386300	-0.281108	-0.015125	-0.012661	0.005657
1035	5.224688	0.005000	9.154739	1.735700	1.708280	-0.720164	-0.385748	-0.282711	-0.014387	-0.002720	0.007112
1036	5.229688	0.005000	9.089460	1.712340	1.712340	-0.720275	-0.385196	-0.284315	-0.002669	-0.014163	0.012310
1037	5.234688	0.005000	9.108472	1.696904	1.692112	-0.720385	-0.384644	-0.285918	-0.015799	-0.001390	0.005017
1038	5.239688	0.005000	9.177385	1.805040	1.689707	-0.720496	-0.384092	-0.287521	-0.008710	-0.006926	-0.002943
1039	5.244688	0.005000	8.987276	1.764923	1.647641	-0.720606	-0.383539	-0.289125	-0.017132	-0.010742	0.004173
1040	5.249688	0.005000	9.103680	1.761852	1.795169	-0.720716	-0.382987	-0.290728	-0.014828	-0.006147	0.001730
1041	5.254688	0.005000	9.068766	1.757147	1.656733	-0.720827	-0.382435	-0.292331	-0.018760	-0.007224	0.006552
1042	5.259688	0.005000	9.064440	1.654403	1.621486	-0.720565	-0.381841	-0.293842	-0.022623	-0.008428	0.008128
1043	5.264688	0.005000	9.064440	1.765800	1.696059	-0.719681	-0.381179	-0.295198	0.001236	-0.006166	0.003482
1044	5.269688	0.005000	9.153602	1.726560	1.612329	-0.718798	-0.380517	-0.296554	-0.014030	-0.004601	0.011586
1045	5.274688	0.005000	9.116770	1.739650	1.595780	-0.717915	-0.379854	-0.297910	-0.013635	-0.001483	0.001701
1046	5.279688	0.005000	9.134328	1.695912	1.671996	-0.717032	-0.379192	-0.299266	-0.007835	-0.003885	0.008744
1047	5.284688	0.005000	9.108026	1.726560	1.665527	-0.716148	-0.378529	-0.300622	-0.013318	-0.001685	0.002739
1048	5.289688	0.005000	9.103680	1.647605	1.687795	-0.715265	-0.377867	-0.301979	-0.005416	-0.015880	0.014237
1049	5.294688	0.005000	9.059660	1.569600	1.613620	-0.714382	-0.377204	-0.303335	-0.002944	-0.002097	0.000178
1050	5.299688	0.005000	9.064440	1.726560	1.687320	-0.713499	-0.376542	-0.304691	-0.010370	-0.007353	-0.006681
1051	5.304688	0.005000	9.117689	1.739176	1.726560	-0.712615	-0.375879	-0.306047	-0.007486	-0.018593	0.023249
1052	5.309688	0.005000	9.103680	1.823162	1.765800	-0.711732	-0.375217	-0.307403	-0.018291	0.010174	-0.001100
1053	5.314688	0.005000	9.080975	1.757533	1.703855	-0.710849	-0.374554	-0.308759	-0.008809	0.001117	0.005369
1054	5.319688	0.005000	9.131197	1.699043	1.781594	-0.709966	-0.373892	-0.310115	-0.006959	0.006386	0.009336
1055	5.324688	0.005000	9.095935	1.695065	1.793422	-0.709082	-0.373230	-0.311471	-0.011619	-0.000453	0.009821
1056	5.329688	0.005000	9.141420	1.687320	1.571100	-0.709144	-0.373040	-0.311456	-0.002338	-0.001827	0.016584
1057	5.334688	0.005000	9.026985	1.648973	1.723882	-0.709365	-0.372929	-0.311209	-0.017574	0.002432	0.004664
1058	5.339688	0.005000	9.028048	1.693015	1.726560	-0.709586	-0.372819	-0.310962	-0.013150	-0.008585	0.005868
1059	5.344688	0.005000	9.048646	1.726560	1.857197	-0.709807	-0.372708	-0.310716	-0.015138	-0.006715	0.002646
1060	5.349688	0.005000	8.993168	1.662497	1.726560	-0.710028	-0.372598	-0.310469	-0.010702	-0.005077	0.006807
1061	5.354688	0.005000	9.103680	1.668090	1.687320	-0.710249	-0.372487	-0.310222	-0.005267	-0.009163	0.008590
1062	5.359688	0.005000	9.037229	1.672138	1.687320	-0.710469	-0.372377	-0.309976	-0.005161	-0.004844	-0.002823
1063	5.364688	0.005000	9.089415	1.687320	1.608840	-0.710690	-0.372267	-0.309729	-0.001056	-0.012541	0.018615
1064	5.369688	0.005000	9.074346	1.703702	1.563124	-0.710911	-0.372156	-0.309482	-0.011790	0.005141	0.006121
1065	5.374688	0.005000	9.125779	1.827139	1.687320	-0.711132	-0.372046	-0.309235	-0.007007	-0.004957	0.020354
1066	5.379688	0.005000	9.085170	1.747290	1.685100	-0.711353	-0.371935	-0.308989	-0.009301	0.001829	0.008938
1067	5.384688	0.005000	9.080540	1.678260	1.814100	-0.711574	-0.371825	-0.308742	-0.005766	-0.014130	0.008046
1068	5.389688	0.005000	9.131665	1.648080	1.740553	-0.711795	-0.371715	-0.308495	-0.006746	-0.005494	0.004376
1069	5.394688	0.005000	9.170417	1.675577	1.765800	-0.711940	-0.371604	-0.308375	-0.015843	-0.005853	-0.001236
1070	5.399688	0.005000	9.172824	1.696656	1.735896	-0.711940	-0.371494	-0.308499	-0.005037	-0.011434	0.010234
1071	5.404688	0.005000	9.167547	1.751187	1.694626	-0.711940	-0.371383	-0.308622	-0.016912	-0.003049	0.000007
1072	5.409688	0.005000	9.182160	1.692296	1.697272	-0.711940	-0.371273	-0.308745	-0.003934	-0.010607	0.011523
1073	5.414688	0.005000	9.098538	1.760658	1.689891	-0.711940	-0.371162	-0.308868	-0.012810	-0.004735	0.008129
1074	5.419688	0.005000	9.104300	1.687320	1.727180	-0.711940	-0.371052	-0.308992	-0.005421	-0.006206	0.004267
1075	5.424688	0.005000	9.142920	1.687320	1.765800	-0.711940	-0.370942	-0.309115	-0.010222	-0.003906	0.002613
1076	5.429688	0.005000	9.142920	1.765800	1.883520	-0.711940	-0.370831	-0.309238	-0.013284	0.003646	-0.006225
1077	5.434688	0.005000	9.214865	1.608840	1.785435	-0.711940	-0.370721	-0.309362	-0.009013	-0.008181	0.001671
1078	5.439688	0.005000	9.238510	1.648080	1.757245	-0.711940	-0.370610	-0.309485	-0.011737	-0.004691	-0.003119
1079	5.444688	0.005000	9.036031	1.648080	1.687320	-0.711940	-0.370500	-0.309608	-0.011652	-0.010670	-0.001170
1080	5.449688	0.005000	9.117107	1.635174	1.660986	-0.711940	-0.370389	-0.309732	-0.005963	-0.011145	0.006904
1081	5.454688	0.005000	9.158230	1.750490	1.656700	-0.711940	-0.370279	-0.309855	-0.023442	0.004467	0.001069
1082	5.459688	0.005000	9.217195	1.704837	1.744077	-0.711940	-0.370169	-0.309978	-0.009576	-0.010873	0.002833
1083	5.464688	0.005000	9.143465	1.706668	1.805040	-0.711940	-0.370149	-0.309898	-0.002968	-0.002599	-0.005256
1084	5.469688	0.005000	9.086517	1.665243	1.716731	-0.711940	-0.370149	-0.309775	-0.017080	-0.020115	-0.002133
1085	5.474688	0.005000	9.187180	1.716827	1.814773	-0.711940	-0.370149	-0.309652	-0.010486	-0.005037	0.009246
1086	5.479688	0.005000	9.117597	1.726560	1.753139	-0.711940	-0.370149	-0.309529	-0.002117	-0.001241	0.005066
1087	5.484688	0.005000	9.132524	1.757747	1.640027	-0.711940	-0.370149	-0.309405	-0.004042	-0.006214	0.005971
1088	5.489688	0.005000	9.103680	1.757811	1.608840	-0.711940	-0.370149	-0.309282	-0.010757	0.006682	-0.005255
