# FOX Logger (IMU file)
# (c) INRIA 2011-2014
# File created from file sensbiotk output
#
# File format:
# id	t	dt	ax	ay	az	mx	my	mz	gx	gy	gz
#
# Units:
#	Time: s
#	Acceleration: m.s^-2
#	Magneto: gauss
#	Gyrometer: rad/s
#
1	0.030609	0.030609	8.672040	-0.510120	-4.002480	-0.040299	-0.141791	-0.781667	0.043175	0.005552	0.005749
2	0.035609	0.005000	8.672040	-0.395244	-3.786947	-0.040413	-0.142246	-0.781921	0.037437	0.014986	0.007574
3	0.040609	0.005000	8.756208	-0.386712	-3.851208	-0.040527	-0.142702	-0.782175	0.048362	0.013363	0.010649
4	0.045609	0.005000	8.774754	-0.400478	-3.924000	-0.040640	-0.143157	-0.782430	0.045250	0.014559	0.015421
5	0.050609	0.005000	8.800682	-0.431640	-3.930474	-0.040754	-0.143612	-0.782684	0.043679	0.010939	0.017593
6	0.055609	0.005000	8.764286	-0.455057	-3.937766	-0.040868	-0.144068	-0.782938	0.042988	0.018879	0.011553
7	0.060609	0.005000	8.789760	-0.464859	-4.047741	-0.040982	-0.144523	-0.783192	0.045301	0.024004	0.010606
8	0.065609	0.005000	8.810597	-0.412426	-3.963240	-0.041096	-0.144979	-0.783447	0.032766	0.017497	0.008287
9	0.070609	0.005000	8.798337	-0.318337	-3.862931	-0.041209	-0.145434	-0.783701	0.042274	0.025435	0.007754
10	0.075609	0.005000	8.853672	-0.367728	-3.870192	-0.041323	-0.145889	-0.783955	0.035736	0.015725	0.013684
11	0.080609	0.005000	8.844793	-0.364884	-3.806280	-0.041437	-0.146345	-0.784209	0.043902	0.020719	0.000305
12	0.085609	0.005000	8.720267	-0.461893	-3.866786	-0.041551	-0.146800	-0.784463	0.053820	0.018034	0.000895
13	0.090609	0.005000	8.639305	-0.431640	-3.793271	-0.041665	-0.147255	-0.784718	0.028440	0.026078	0.003106
14	0.095609	0.005000	8.750520	-0.427979	-3.795298	-0.041778	-0.147711	-0.784972	0.041931	0.032906	0.004480
15	0.100609	0.005000	8.827366	-0.393217	-3.651771	-0.041589	-0.147255	-0.785113	0.021332	0.037831	0.002094
16	0.105609	0.005000	8.750520	-0.431640	-3.729827	-0.041361	-0.146687	-0.785240	0.038694	0.034065	-0.003761
17	0.110609	0.005000	8.706863	-0.396817	-3.906331	-0.041134	-0.146118	-0.785367	0.042187	0.033602	0.009168
18	0.115609	0.005000	8.860979	-0.399661	-3.884760	-0.040906	-0.145549	-0.785494	0.033380	0.033247	-0.003176
19	0.120609	0.005000	8.839105	-0.402505	-3.815205	-0.040679	-0.144981	-0.785621	0.045256	0.025111	0.007750
20	0.125609	0.005000	8.829000	-0.392400	-3.884760	-0.040451	-0.144412	-0.785748	0.035846	0.030203	0.002939
21	0.130609	0.005000	8.774436	-0.392400	-3.884760	-0.040224	-0.143843	-0.785875	0.041023	0.016794	-0.006311
22	0.135609	0.005000	8.789760	-0.392400	-3.866592	-0.039996	-0.143275	-0.786002	0.057724	0.022402	0.006203
23	0.140609	0.005000	8.651028	-0.334932	-3.848303	-0.039769	-0.142706	-0.786129	0.055479	0.026786	-0.009728
24	0.145609	0.005000	8.703169	-0.274680	-3.876649	-0.039541	-0.142137	-0.786256	0.044016	0.018594	0.005972
25	0.150609	0.005000	8.606811	-0.313920	-3.832526	-0.039314	-0.141569	-0.786383	0.053990	0.023467	0.010872
26	0.155609	0.005000	8.634161	-0.303770	-3.787341	-0.039086	-0.141000	-0.786510	0.058619	0.024917	0.008129
27	0.160609	0.005000	8.782454	-0.360466	-3.884760	-0.038859	-0.140431	-0.786637	0.036888	0.030333	0.004104
28	0.165609	0.005000	8.785243	-0.357677	-3.880243	-0.039155	-0.140299	-0.786667	0.060280	0.027116	-0.003906
29	0.170609	0.005000	8.826912	-0.392400	-3.841345	-0.039610	-0.140299	-0.786667	0.056466	0.029016	0.000530
30	0.175609	0.005000	8.751276	-0.353916	-3.844007	-0.040065	-0.140299	-0.786667	0.055102	0.029162	-0.014151
31	0.180609	0.005000	8.754120	-0.313920	-3.809880	-0.040521	-0.140299	-0.786667	0.065591	0.026683	-0.001475
32	0.185609	0.005000	8.769853	-0.254773	-3.786373	-0.040976	-0.140299	-0.786667	0.069165	0.030548	-0.002224
33	0.190609	0.005000	8.829000	-0.344222	-3.749165	-0.041431	-0.140299	-0.786667	0.076034	0.029930	-0.007336
34	0.195609	0.005000	8.856562	-0.274680	-3.857198	-0.041886	-0.140299	-0.786667	0.083883	0.028431	-0.005178
35	0.200609	0.005000	8.779564	-0.324116	-3.884760	-0.042341	-0.140299	-0.786667	0.082625	0.026457	-0.015341
36	0.205609	0.005000	8.807126	-0.353160	-3.897618	-0.042796	-0.140299	-0.786667	0.071175	0.016886	-0.008862
37	0.210609	0.005000	8.965750	-0.274680	-3.924000	-0.043252	-0.140299	-0.786667	0.067728	0.015977	-0.006828
38	0.215609	0.005000	8.914348	-0.307052	-3.796962	-0.043707	-0.140299	-0.786667	0.071393	0.016203	-0.003083
39	0.220609	0.005000	8.752713	-0.364778	-3.700178	-0.044162	-0.140299	-0.786667	0.077007	0.020458	-0.009333
40	0.225609	0.005000	8.839967	-0.353160	-3.828214	-0.044617	-0.140299	-0.786667	0.093924	0.014617	-0.014698
41	0.230609	0.005000	8.806007	-0.336913	-3.861767	-0.044702	-0.140299	-0.786667	0.080515	0.007177	-0.002443
42	0.235609	0.005000	8.795039	-0.319199	-3.811559	-0.044588	-0.140299	-0.786667	0.084247	0.001257	-0.003449
43	0.240609	0.005000	8.824070	-0.358090	-4.007410	-0.044475	-0.140299	-0.786667	0.086270	0.008368	0.002887
44	0.245609	0.005000	8.750641	-0.509938	-4.159379	-0.044361	-0.140299	-0.786667	0.087716	0.021303	-0.008839
45	0.250609	0.005000	8.829000	-0.501770	-4.047287	-0.044247	-0.140299	-0.786667	0.074960	0.017983	-0.004459
46	0.255609	0.005000	8.683295	-0.442895	-3.951985	-0.044134	-0.140299	-0.786667	0.074282	0.016524	0.001191
47	0.260609	0.005000	8.702809	-0.392400	-3.994009	-0.044020	-0.140299	-0.786667	0.070229	0.023556	-0.004466
48	0.265609	0.005000	8.587285	-0.420652	-4.063697	-0.043906	-0.140299	-0.786667	0.061369	0.024292	-0.001376
49	0.270609	0.005000	8.658335	-0.392400	-4.014309	-0.043792	-0.140299	-0.786667	0.052505	0.044650	-0.009575
50	0.275609	0.005000	8.655491	-0.415091	-3.924000	-0.043679	-0.140299	-0.786667	0.075650	0.037497	-0.004135
51	0.280609	0.005000	8.632800	-0.333313	-4.002480	-0.043565	-0.140299	-0.786667	0.077696	0.039537	-0.001319
52	0.285609	0.005000	8.610563	-0.336157	-3.968474	-0.043451	-0.140299	-0.786667	0.075693	0.034933	-0.000267
53	0.290609	0.005000	8.843330	-0.313920	-3.795701	-0.043338	-0.140299	-0.786667	0.077586	0.032599	0.004242
54	0.295609	0.005000	8.817216	-0.380616	-3.716016	-0.043224	-0.140239	-0.786600	0.077528	0.045827	-0.003020
55	0.300609	0.005000	8.707801	-0.322860	-3.797340	-0.043110	-0.140125	-0.786473	0.087151	0.027056	0.002907
56	0.305609	0.005000	8.874336	-0.347064	-3.845520	-0.042996	-0.140011	-0.786346	0.063404	0.030551	0.001299
57	0.310609	0.005000	8.861735	-0.251702	-3.799775	-0.042882	-0.139897	-0.786219	0.082984	0.019900	0.006760
58	0.315609	0.005000	8.907480	-0.352752	-3.687743	-0.042769	-0.139784	-0.786092	0.081497	0.018446	0.005916
59	0.320609	0.005000	8.723457	-0.313920	-3.646885	-0.042655	-0.139670	-0.785964	0.075835	0.015424	0.000982
60	0.325609	0.005000	8.858476	-0.318802	-3.570840	-0.042541	-0.139556	-0.785837	0.071920	0.003446	0.010108
61	0.330609	0.005000	8.860571	-0.423971	-3.727800	-0.042427	-0.139442	-0.785710	0.087123	-0.002396	0.009726
62	0.335609	0.005000	8.886453	-0.392400	-3.727800	-0.042313	-0.139328	-0.785583	0.085673	-0.012006	-0.001692
63	0.340609	0.005000	8.959245	-0.379875	-3.662677	-0.042199	-0.139214	-0.785456	0.067929	-0.008588	0.002244
64	0.345609	0.005000	8.930797	-0.344632	-3.727800	-0.042086	-0.139101	-0.785329	0.071662	-0.016894	0.012734
65	0.350609	0.005000	8.847576	-0.468792	-3.810455	-0.041972	-0.138987	-0.785202	0.079983	-0.013366	0.014059
66	0.355609	0.005000	8.886060	-0.445860	-3.824100	-0.041858	-0.138873	-0.785075	0.068699	-0.012988	0.006879
67	0.360609	0.005000	8.946720	-0.455904	-3.776328	-0.041744	-0.138853	-0.784895	0.063541	-0.012947	0.015221
68	0.365609	0.005000	8.777486	-0.419366	-3.713108	-0.041631	-0.138967	-0.784641	0.067846	-0.012517	0.006994
69	0.370609	0.005000	8.809244	-0.411884	-3.786796	-0.041517	-0.139080	-0.784387	0.084145	-0.022382	0.007310
70	0.375609	0.005000	8.829000	-0.431640	-3.767040	-0.041403	-0.139194	-0.784133	0.060027	-0.012121	0.006227
71	0.380609	0.005000	8.789760	-0.427586	-3.833358	-0.041289	-0.139308	-0.783880	0.074021	-0.013913	0.002446
72	0.385609	0.005000	8.752940	-0.394820	-3.805070	-0.041176	-0.139422	-0.783626	0.074022	-0.009906	0.008082
73	0.390609	0.005000	8.829000	-0.433274	-3.804646	-0.041062	-0.139535	-0.783372	0.062250	-0.010313	0.012067
74	0.395609	0.005000	8.797874	-0.431640	-3.849577	-0.040948	-0.139649	-0.783118	0.073160	-0.019086	0.022906
75	0.400609	0.005000	8.796613	-0.470880	-3.917147	-0.040835	-0.139763	-0.782864	0.071166	-0.013943	0.014399
76	0.405609	0.005000	8.769913	-0.392400	-4.012630	-0.040721	-0.139877	-0.782610	0.062926	-0.017748	0.010597
77	0.410609	0.005000	8.698740	-0.470880	-3.829742	-0.040607	-0.139991	-0.782356	0.067576	-0.017003	0.015603
78	0.415609	0.005000	8.743607	-0.431640	-3.821664	-0.040494	-0.140104	-0.782102	0.063031	-0.007893	0.012684
79	0.420609	0.005000	8.829000	-0.515687	-3.860965	-0.040380	-0.140218	-0.781848	0.062383	-0.013868	0.025763
80	0.425609	0.005000	8.787295	-0.452492	-3.790357	-0.040431	-0.140398	-0.781777	0.079391	-0.011636	0.015878
81	0.430609	0.005000	8.789760	-0.423986	-3.790487	-0.040886	-0.140739	-0.782158	0.082236	-0.016709	0.016470
82	0.435609	0.005000	8.868240	-0.457931	-3.806280	-0.041341	-0.141080	-0.782540	0.062054	-0.011565	0.014564
83	0.440609	0.005000	8.868240	-0.431640	-3.815205	-0.041796	-0.141422	-0.782921	0.053498	-0.004319	0.019187
84	0.445609	0.005000	8.843522	-0.399661	-3.838259	-0.042251	-0.141763	-0.783302	0.060765	-0.009768	0.023732
85	0.450609	0.005000	8.824583	-0.392400	-3.810697	-0.042706	-0.142104	-0.783683	0.051466	-0.004066	0.018993
86	0.455609	0.005000	8.750520	-0.396454	-3.845520	-0.043161	-0.142446	-0.784064	0.045320	-0.006734	0.006705
87	0.460609	0.005000	8.788943	-0.509303	-3.845520	-0.043617	-0.142787	-0.784446	0.035749	0.000235	0.005173
88	0.465609	0.005000	8.711280	-0.431640	-3.778022	-0.044072	-0.143128	-0.784827	0.046605	-0.009247	0.009868
89	0.470609	0.005000	8.796265	-0.503615	-3.799775	-0.044527	-0.143470	-0.785208	0.053059	-0.013316	0.015452
90	0.475609	0.005000	8.778566	-0.461531	-3.854869	-0.044982	-0.143811	-0.785589	0.056047	-0.010610	0.014837
91	0.480609	0.005000	8.750520	-0.470880	-3.872567	-0.045437	-0.144152	-0.785970	0.057474	-0.004596	0.010517
92	0.485609	0.005000	8.789760	-0.524864	-3.840529	-0.045892	-0.144494	-0.786352	0.051789	0.001023	0.008169
93	0.490609	0.005000	8.811589	-0.427223	-3.749629	-0.046190	-0.144855	-0.786557	0.048085	-0.010960	0.022006
94	0.495609	0.005000	8.751791	-0.510120	-3.864505	-0.045736	-0.145309	-0.785922	0.033358	-0.008342	0.006942
95	0.500609	0.005000	8.861281	-0.431640	-3.799321	-0.045281	-0.145764	-0.785287	0.044377	-0.006325	0.011667
96	0.505609	0.005000	8.816354	-0.379103	-3.780337	-0.044826	-0.146219	-0.784652	0.039085	-0.004206	0.014581
97	0.510609	0.005000	8.768610	-0.449730	-3.777615	-0.044371	-0.146674	-0.784017	0.057845	-0.000514	0.006458
98	0.515609	0.005000	8.742457	-0.353160	-3.900886	-0.043916	-0.147129	-0.783382	0.065696	-0.008706	0.007681
99	0.520609	0.005000	8.779322	-0.397619	-3.855958	-0.043461	-0.147584	-0.782747	0.045509	-0.008471	0.005692
100	0.525609	0.005000	8.711280	-0.431640	-3.965615	-0.043006	-0.148039	-0.782112	0.063675	-0.013976	0.007037
101	0.530609	0.005000	8.711280	-0.431640	-3.924938	-0.042551	-0.148494	-0.781477	0.043960	-0.002092	0.004570
102	0.535609	0.005000	8.753833	-0.470880	-3.884760	-0.042096	-0.148949	-0.780842	0.041908	-0.003971	0.005626
103	0.540609	0.005000	8.849770	-0.503963	-3.818594	-0.041641	-0.149404	-0.780207	0.044944	0.006926	0.015478
104	0.545609	0.005000	8.767584	-0.353160	-3.780685	-0.041186	-0.149859	-0.779571	0.037860	0.000381	0.017331
105	0.550609	0.005000	8.773271	-0.353160	-3.940489	-0.040731	-0.150314	-0.778936	0.049499	-0.002933	0.004996
106	0.555609	0.005000	8.786341	-0.378180	-3.924000	-0.040282	-0.150695	-0.778365	0.051620	-0.006048	0.006139
107	0.560609	0.005000	8.811936	-0.431640	-3.963240	-0.039941	-0.149671	-0.779000	0.055341	-0.009281	0.003015
108	0.565609	0.005000	8.829000	-0.391825	-3.943333	-0.039599	-0.148647	-0.779636	0.062399	-0.000900	0.010604
109	0.570609	0.005000	8.845942	-0.409342	-3.907058	-0.039258	-0.147622	-0.780271	0.051630	0.004443	0.006264
110	0.575609	0.005000	8.764619	-0.456781	-3.974283	-0.038916	-0.146598	-0.780906	0.054543	-0.006953	0.014927
111	0.580609	0.005000	8.912943	-0.392400	-3.896019	-0.038575	-0.145574	-0.781542	0.043591	-0.011100	0.013072
112	0.585609	0.005000	8.837426	-0.406362	-3.994054	-0.038234	-0.144550	-0.782177	0.055702	-0.012644	0.018615
113	0.590609	0.005000	8.812254	-0.397982	-3.935164	-0.037892	-0.143526	-0.782812	0.044733	-0.019398	0.019851
114	0.595609	0.005000	8.672040	-0.389630	-3.996940	-0.037551	-0.142502	-0.783448	0.051580	-0.023729	0.027599
115	0.600609	0.005000	8.672736	-0.353160	-3.924696	-0.037209	-0.141478	-0.784083	0.050696	-0.021393	0.017430
116	0.605609	0.005000	8.860752	-0.353160	-3.965736	-0.036868	-0.140453	-0.784719	0.037650	-0.002770	0.007783
117	0.610609	0.005000	8.732640	-0.387060	-3.890100	-0.036526	-0.139429	-0.785354	0.052704	-0.003708	0.003443
118	0.615609	0.005000	8.773392	-0.400584	-3.837336	-0.036185	-0.138405	-0.785989	0.037540	-0.005168	0.010447
119	0.620609	0.005000	8.789760	-0.460321	-3.863642	-0.035844	-0.137381	-0.786625	0.056826	-0.004140	0.009459
120	0.625609	0.005000	8.750520	-0.418237	-3.989077	-0.036140	-0.137419	-0.786667	0.068312	-0.008025	0.007674
121	0.630609	0.005000	8.806007	-0.369407	-3.979487	-0.036481	-0.137533	-0.786667	0.051873	0.000118	-0.001262
122	0.635609	0.005000	8.769611	-0.452848	-3.905968	-0.036822	-0.137647	-0.786667	0.054493	-0.004267	0.020259
123	0.640609	0.005000	8.772252	-0.453372	-3.959016	-0.037163	-0.137761	-0.786667	0.044768	0.004040	0.005515
124	0.645609	0.005000	8.829000	-0.480289	-4.056635	-0.037505	-0.137874	-0.786667	0.044108	-0.007545	0.005457
125	0.650609	0.005000	8.829000	-0.404472	-3.899857	-0.037846	-0.137988	-0.786667	0.039538	-0.007221	-0.000279
126	0.655609	0.005000	8.798988	-0.470880	-3.963240	-0.038187	-0.138102	-0.786667	0.038862	-0.005149	0.003108
127	0.660609	0.005000	8.731369	-0.438024	-3.950473	-0.038528	-0.138216	-0.786667	0.054230	-0.016270	0.017654
128	0.665609	0.005000	8.636383	-0.428057	-3.813445	-0.038870	-0.138329	-0.786667	0.047343	-0.002410	0.000747
129	0.670609	0.005000	8.592395	-0.432805	-3.808610	-0.039211	-0.138443	-0.786667	0.051505	-0.009777	0.010501
130	0.675609	0.005000	8.667003	-0.470880	-3.922321	-0.039552	-0.138557	-0.786667	0.045314	-0.004587	0.016966
131	0.680609	0.005000	8.632800	-0.353160	-3.928523	-0.039893	-0.138671	-0.786667	0.046612	-0.006109	0.006620
132	0.685609	0.005000	8.610699	-0.392400	-3.916633	-0.040235	-0.138784	-0.786667	0.052448	-0.008339	0.004694
133	0.690609	0.005000	8.701069	-0.460669	-4.021298	-0.040391	-0.139821	-0.786049	0.064673	-0.003559	0.003386
134	0.695609	0.005000	8.632800	-0.483481	-3.963240	-0.040505	-0.141073	-0.785286	0.062840	-0.015235	0.011373
135	0.700609	0.005000	8.648245	-0.431640	-3.860965	-0.040619	-0.142325	-0.784524	0.056894	-0.008941	0.013143
136	0.705609	0.005000	8.672040	-0.371449	-3.691222	-0.040733	-0.143576	-0.783761	0.062125	-0.006842	0.015638
137	0.710609	0.005000	8.611667	-0.353160	-3.845520	-0.040846	-0.144828	-0.782999	0.053379	-0.000754	0.013243
138	0.715609	0.005000	8.727012	-0.392400	-3.924000	-0.040960	-0.146080	-0.782237	0.058451	0.001142	0.011799
139	0.720609	0.005000	8.685503	-0.340272	-3.936888	-0.041074	-0.147331	-0.781474	0.058811	-0.008323	0.012645
140	0.725609	0.005000	8.701236	-0.402444	-3.944089	-0.041188	-0.148583	-0.780712	0.052027	0.006246	0.006151
141	0.730609	0.005000	8.661602	-0.360361	-3.899161	-0.041301	-0.149835	-0.779949	0.068793	0.010622	0.019311
142	0.735609	0.005000	8.667683	-0.405470	-3.928357	-0.041415	-0.151087	-0.779187	0.065036	0.009359	0.015759
143	0.740609	0.005000	8.554320	-0.469350	-3.994828	-0.041529	-0.152338	-0.778425	0.062595	0.008813	0.010925
144	0.745609	0.005000	8.669408	-0.431640	-3.883005	-0.041643	-0.153590	-0.777662	0.046903	0.013450	0.016386
145	0.750609	0.005000	8.750520	-0.427934	-3.927706	-0.041756	-0.154842	-0.776900	0.040918	0.014266	0.016161
146	0.755609	0.005000	8.770110	-0.366260	-3.858620	-0.042739	-0.155066	-0.775431	0.039495	0.013779	0.014207
147	0.760609	0.005000	8.780715	-0.283725	-3.875715	-0.044105	-0.154838	-0.773652	0.059095	0.020942	0.012948
148	0.765609	0.005000	8.723064	-0.341376	-3.900432	-0.045470	-0.154611	-0.771873	0.068270	0.022004	0.007383
149	0.770609	0.005000	8.696652	-0.367788	-4.002480	-0.046836	-0.154383	-0.770094	0.054203	0.014817	0.017753
150	0.775609	0.005000	8.715576	-0.414168	-3.919704	-0.048201	-0.154156	-0.768315	0.051362	0.018342	0.008283
151	0.780609	0.005000	8.730204	-0.392400	-3.884760	-0.049567	-0.153928	-0.766536	0.062238	0.007565	0.017386
152	0.785609	0.005000	8.806309	-0.392400	-3.996338	-0.050932	-0.153700	-0.764758	0.057669	0.022937	0.003944
153	0.790609	0.005000	8.827124	-0.457175	-4.014309	-0.052298	-0.153473	-0.762979	0.068876	0.014202	0.009233
154	0.795609	0.005000	8.800621	-0.392400	-3.963240	-0.053663	-0.153245	-0.761200	0.051692	0.012008	0.006273
155	0.800609	0.005000	8.719297	-0.486915	-3.884760	-0.055028	-0.153018	-0.759421	0.047131	0.007541	0.000244
156	0.805609	0.005000	8.755694	-0.465706	-3.924000	-0.056394	-0.152790	-0.757642	0.040590	0.009051	0.009308
157	0.810609	0.005000	8.829000	-0.431640	-4.000150	-0.057759	-0.152563	-0.755863	0.058098	0.015500	0.007750
158	0.815609	0.005000	8.789821	-0.392461	-3.845704	-0.059125	-0.152335	-0.754084	0.063059	0.014940	0.006750
159	0.820609	0.005000	8.781047	-0.434544	-3.887664	-0.059438	-0.151647	-0.754361	0.042283	0.010829	-0.001460
160	0.825609	0.005000	8.784012	-0.465132	-3.879012	-0.058983	-0.150624	-0.756139	0.057211	0.008374	0.002991
161	0.830609	0.005000	8.859648	-0.361752	-3.893352	-0.058528	-0.149600	-0.757917	0.057554	0.006522	0.013462
162	0.835609	0.005000	8.801196	-0.420204	-3.889691	-0.058073	-0.148576	-0.759695	0.069313	0.006109	0.010753
163	0.840609	0.005000	8.871840	-0.431640	-3.888360	-0.057618	-0.147553	-0.761474	0.053208	0.011321	0.018484
164	0.845609	0.005000	8.941193	-0.375543	-3.918473	-0.057163	-0.146529	-0.763252	0.050869	0.018631	0.013358
165	0.850609	0.005000	8.730779	-0.431640	-3.943499	-0.056708	-0.145505	-0.765030	0.041574	0.007963	0.020208
166	0.855609	0.005000	8.733623	-0.431640	-4.024823	-0.056253	-0.144482	-0.766808	0.044488	0.005808	0.010601
167	0.860609	0.005000	8.761654	-0.392400	-4.095013	-0.055798	-0.143458	-0.768586	0.046226	0.007330	0.022539
168	0.865609	0.005000	8.672040	-0.392400	-4.030511	-0.055344	-0.142434	-0.770364	0.047037	-0.000935	0.031048
169	0.870609	0.005000	8.680859	-0.344341	-3.915181	-0.054889	-0.141411	-0.772143	0.048564	0.013907	0.012115
170	0.875609	0.005000	8.678015	-0.425665	-3.845520	-0.054434	-0.140387	-0.773921	0.054915	0.009968	0.015946
171	0.880609	0.005000	8.789760	-0.425377	-3.960109	-0.053979	-0.139363	-0.775699	0.042349	0.018338	0.017461
172	0.885609	0.005000	8.711567	-0.314782	-3.884760	-0.053368	-0.139065	-0.776899	0.064772	0.005669	0.014221
173	0.890609	0.005000	8.676266	-0.431640	-3.921887	-0.052572	-0.139634	-0.777407	0.057850	0.018217	0.014228
174	0.895609	0.005000	8.676971	-0.431640	-3.924000	-0.051775	-0.140203	-0.777915	0.044280	0.019574	0.000428
175	0.900609	0.005000	8.719055	-0.431640	-3.861071	-0.050979	-0.140772	-0.778423	0.059284	0.021765	0.015411
176	0.905609	0.005000	8.693279	-0.431640	-3.924000	-0.050182	-0.141341	-0.778931	0.052237	0.021465	0.007349
177	0.910609	0.005000	8.749370	-0.418177	-3.924000	-0.049386	-0.141910	-0.779440	0.058206	0.015722	0.009939
178	0.915609	0.005000	8.915044	-0.494282	-3.963240	-0.048589	-0.142479	-0.779948	0.055143	0.009838	0.012900
179	0.920609	0.005000	8.690722	-0.469004	-3.903442	-0.047793	-0.143048	-0.780456	0.055986	0.011103	0.008140
180	0.925609	0.005000	8.785948	-0.449354	-3.888572	-0.046996	-0.143617	-0.780964	0.061733	0.014901	0.009129
181	0.930609	0.005000	8.862870	-0.401900	-3.826520	-0.046200	-0.144186	-0.781472	0.062074	0.021858	0.005410
182	0.935609	0.005000	8.629638	-0.416452	-3.833494	-0.045403	-0.144755	-0.781981	0.062952	0.018937	0.008926
183	0.940609	0.005000	8.732156	-0.510120	-3.806280	-0.044607	-0.145324	-0.782489	0.044015	0.015401	0.006941
184	0.945609	0.005000	8.699208	-0.510120	-3.773832	-0.043810	-0.145893	-0.782997	0.060675	0.003535	-0.000741
185	0.950609	0.005000	8.793708	-0.435588	-3.802332	-0.043361	-0.146038	-0.783462	0.051592	0.017581	0.009107
186	0.955609	0.005000	8.824583	-0.470880	-3.805176	-0.043589	-0.145355	-0.783843	0.046501	0.010700	0.013965
187	0.960609	0.005000	8.709540	-0.508380	-3.804540	-0.043816	-0.144673	-0.784224	0.039568	0.014780	0.011865
188	0.965609	0.005000	8.750520	-0.510120	-3.723216	-0.044044	-0.143990	-0.784605	0.047332	0.013703	0.011470
189	0.970609	0.005000	8.847112	-0.510120	-3.792195	-0.044271	-0.143308	-0.784986	0.042870	0.016933	0.015147
190	0.975609	0.005000	8.701447	-0.412005	-3.884790	-0.044498	-0.142625	-0.785367	0.035699	0.019771	0.015211
191	0.980609	0.005000	8.632800	-0.405046	-3.726499	-0.044726	-0.141943	-0.785748	0.049410	0.017110	0.007179
192	0.985609	0.005000	8.663781	-0.423381	-3.727800	-0.044953	-0.141260	-0.786129	0.062732	0.019646	0.012798
193	0.990609	0.005000	8.773997	-0.413306	-3.785374	-0.045181	-0.140578	-0.786510	0.059095	0.023619	0.012003
194	0.995609	0.005000	8.768582	-0.413578	-3.866698	-0.045408	-0.139895	-0.786891	0.051367	0.014651	0.016745
195	1.000609	0.005000	8.703384	-0.415968	-3.869088	-0.045636	-0.139213	-0.787272	0.039244	0.011651	0.010990
196	1.005609	0.005000	8.841828	-0.483708	-3.924000	-0.045863	-0.138530	-0.787653	0.041731	0.006157	0.010517
197	1.010609	0.005000	8.926752	-0.431640	-3.953256	-0.046091	-0.137848	-0.788035	0.056810	0.014067	0.010099
198	1.015609	0.005000	8.832540	-0.431640	-3.924000	-0.046269	-0.137338	-0.788223	0.053133	0.008890	0.007301
199	1.020609	0.005000	8.637148	-0.331312	-3.910956	-0.046269	-0.137451	-0.787715	0.035348	0.009470	0.003137
200	1.025609	0.005000	8.754362	-0.508199	-3.845520	-0.046269	-0.137565	-0.787207	0.040503	0.012649	0.008307
201	1.030609	0.005000	8.790683	-0.432563	-3.807203	-0.046269	-0.137679	-0.786699	0.055411	0.012936	0.007662
202	1.035609	0.005000	8.782227	-0.463347	-3.908933	-0.046269	-0.137793	-0.786191	0.043106	0.013646	0.007744
203	1.040609	0.005000	8.711280	-0.470880	-3.858741	-0.046269	-0.137907	-0.785683	0.060327	0.007928	0.005192
204	1.045609	0.005000	8.759626	-0.431640	-3.866548	-0.046269	-0.138020	-0.785175	0.031915	0.009605	0.014560
205	1.050609	0.005000	8.801605	-0.443485	-3.849226	-0.046269	-0.138134	-0.784667	0.035088	0.009182	0.007888
206	1.055609	0.005000	8.716106	-0.485569	-3.904486	-0.046269	-0.138248	-0.784159	0.052763	0.000658	0.006351
207	1.060609	0.005000	8.711280	-0.488412	-3.845520	-0.046269	-0.138362	-0.783651	0.053051	0.009451	0.007908
208	1.065609	0.005000	8.709767	-0.431640	-3.847033	-0.046269	-0.138475	-0.783143	0.057387	0.010545	0.007218
209	1.070609	0.005000	8.773547	-0.424827	-3.861733	-0.046269	-0.138589	-0.782635	0.037121	0.011166	0.018269
210	1.075609	0.005000	8.818744	-0.431640	-3.884760	-0.046269	-0.138703	-0.782127	0.054756	0.011773	0.007682
211	1.080609	0.005000	8.804524	-0.353160	-3.834719	-0.046237	-0.138817	-0.781619	0.046975	0.005826	0.009262
212	1.085609	0.005000	8.836957	-0.353160	-3.884760	-0.045896	-0.138930	-0.781111	0.056578	0.002103	0.003468
213	1.090609	0.005000	8.881606	-0.358335	-3.874410	-0.045554	-0.139044	-0.780603	0.052810	0.000173	0.005250
214	1.095609	0.005000	8.638276	-0.395138	-3.806280	-0.045213	-0.139158	-0.780095	0.042178	0.007025	0.011490
215	1.100609	0.005000	8.789548	-0.392506	-3.767146	-0.044872	-0.139272	-0.779587	0.049970	0.001627	0.011489
216	1.105609	0.005000	8.753470	-0.431640	-3.803330	-0.044531	-0.139386	-0.779079	0.042151	0.006634	0.010664
217	1.110609	0.005000	8.834794	-0.392400	-3.900825	-0.044189	-0.139499	-0.778571	0.038941	0.006278	0.006342
218	1.115609	0.005000	8.820362	-0.423002	-3.915362	-0.043848	-0.139613	-0.778063	0.040310	0.007086	0.001772
219	1.120609	0.005000	8.789760	-0.459723	-3.912843	-0.043507	-0.139727	-0.777555	0.037531	0.009774	-0.000810
220	1.125609	0.005000	8.792135	-0.533113	-3.921625	-0.043166	-0.139841	-0.777047	0.048211	0.004268	0.001339
221	1.130609	0.005000	8.739613	-0.526836	-4.086769	-0.042824	-0.139954	-0.776539	0.043038	-0.002129	0.013143
222	1.135609	0.005000	8.809319	-0.470880	-3.904319	-0.042483	-0.140068	-0.776031	0.055922	0.004106	0.006388
223	1.140609	0.005000	8.789760	-0.427011	-3.845520	-0.042142	-0.140182	-0.775523	0.048103	0.004633	0.021102
224	1.145609	0.005000	8.711280	-0.510120	-3.934317	-0.041801	-0.140296	-0.775015	0.032303	0.001516	0.000916
225	1.150609	0.005000	8.660422	-0.470880	-3.884760	-0.041460	-0.140188	-0.775740	0.038337	-0.001041	0.005586
226	1.155609	0.005000	8.829000	-0.422866	-3.915226	-0.041118	-0.140075	-0.776502	0.040701	0.006265	0.008035
227	1.160609	0.005000	8.738660	-0.431640	-3.935860	-0.040777	-0.139961	-0.777264	0.054877	-0.002282	0.002727
228	1.165609	0.005000	8.829000	-0.470880	-3.991861	-0.040436	-0.139847	-0.778026	0.050036	0.015323	0.001328
229	1.170609	0.005000	8.867544	-0.432336	-3.885456	-0.040095	-0.139733	-0.778788	0.054877	0.010758	-0.000509
230	1.175609	0.005000	8.829000	-0.396696	-3.849816	-0.039753	-0.139620	-0.779550	0.050840	0.014701	0.006582
231	1.180609	0.005000	8.716272	-0.421656	-3.889752	-0.039412	-0.139506	-0.780313	0.065251	0.011191	-0.006577
232	1.185609	0.005000	8.601016	-0.368072	-3.830608	-0.039071	-0.139392	-0.781075	0.049178	0.004276	-0.001830
233	1.190609	0.005000	8.818789	-0.450458	-3.847123	-0.038730	-0.139278	-0.781837	0.050728	0.011526	0.005484
234	1.195609	0.005000	8.789684	-0.444695	-3.649320	-0.038388	-0.139165	-0.782599	0.036624	0.011315	0.007344
235	1.200609	0.005000	8.789760	-0.353160	-3.892203	-0.038047	-0.139051	-0.783361	0.039529	0.001326	0.011288
236	1.205609	0.005000	8.869995	-0.392400	-3.864263	-0.037706	-0.138937	-0.784123	0.054323	0.008203	0.006870
237	1.210609	0.005000	8.993000	-0.374540	-3.902620	-0.037365	-0.138823	-0.784885	0.062145	0.005413	0.006584
238	1.215609	0.005000	8.852977	-0.353160	-3.947977	-0.037603	-0.138903	-0.785000	0.065478	0.005600	0.000756
239	1.220609	0.005000	8.764921	-0.340741	-3.859921	-0.037944	-0.139016	-0.785000	0.058707	0.007505	0.001786
240	1.225609	0.005000	8.711280	-0.422064	-3.835944	-0.038286	-0.139130	-0.785000	0.050481	0.001701	0.005069
241	1.230609	0.005000	8.763983	-0.399132	-3.780503	-0.038627	-0.139244	-0.785000	0.043006	0.012167	0.004591
242	1.235609	0.005000	8.824643	-0.392400	-3.884760	-0.038968	-0.139358	-0.785000	0.049578	0.004052	0.004574
243	1.240609	0.005000	8.715818	-0.431640	-3.881735	-0.039310	-0.139472	-0.785000	0.037367	-0.000031	0.010134
244	1.245609	0.005000	8.904818	-0.355822	-3.882098	-0.039651	-0.139586	-0.785000	0.052542	0.001667	0.004053
245	1.250609	0.005000	8.719630	-0.392400	-3.954890	-0.039993	-0.139699	-0.785000	0.058487	0.007941	0.011428
246	1.255609	0.005000	8.743501	-0.399419	-3.884760	-0.040334	-0.139813	-0.785000	0.054183	0.004581	0.006475
247	1.260609	0.005000	8.741012	-0.422132	-3.914492	-0.040675	-0.139927	-0.785000	0.043502	0.004148	0.007941
248	1.265609	0.005000	8.657276	-0.443878	-3.924000	-0.041017	-0.140041	-0.785000	0.048754	0.005168	-0.001795
249	1.270609	0.005000	8.750520	-0.431640	-3.930006	-0.041358	-0.140155	-0.785000	0.067856	0.007295	-0.000728
250	1.275609	0.005000	8.729206	-0.477657	-3.866834	-0.041700	-0.140269	-0.785000	0.060830	0.016178	0.010739
251	1.280609	0.005000	8.651486	-0.454061	-3.942686	-0.041791	-0.140216	-0.784628	0.059693	0.015268	0.002138
252	1.285609	0.005000	8.750520	-0.486960	-3.900840	-0.041791	-0.140102	-0.784119	0.044637	0.009199	0.006772
253	1.290609	0.005000	8.855473	-0.509651	-3.976476	-0.041791	-0.139988	-0.783611	0.064907	0.011016	0.010441
254	1.295609	0.005000	8.789760	-0.392400	-3.932063	-0.041791	-0.139874	-0.783103	0.072668	0.010214	0.004935
255	1.300609	0.005000	8.765617	-0.431640	-3.931548	-0.041791	-0.139760	-0.782595	0.052406	0.007066	0.008155
256	1.305609	0.005000	8.823826	-0.402747	-3.963240	-0.041791	-0.139646	-0.782086	0.070360	0.003151	0.006996
257	1.310609	0.005000	8.787430	-0.473210	-3.877771	-0.041791	-0.139533	-0.781578	0.055155	0.006336	0.011547
258	1.315609	0.005000	8.750520	-0.510120	-3.844491	-0.041791	-0.139419	-0.781070	0.062084	0.003584	-0.004978
259	1.320609	0.005000	8.672040	-0.431640	-3.881402	-0.041791	-0.139305	-0.780561	0.050715	0.002370	0.007157
260	1.325609	0.005000	8.849634	-0.398602	-3.917798	-0.041791	-0.139191	-0.780053	0.032991	0.010210	0.001474
261	1.330609	0.005000	8.868240	-0.422947	-3.924000	-0.041791	-0.139077	-0.779545	0.050957	0.002661	0.008343
262	1.335609	0.005000	8.806128	-0.431640	-3.884760	-0.041791	-0.138964	-0.779036	0.057051	0.002001	0.006793
263	1.340609	0.005000	8.725560	-0.367440	-3.859800	-0.041791	-0.138850	-0.778528	0.064805	0.004761	0.006090
264	1.345609	0.005000	8.723412	-0.375276	-3.840528	-0.041511	-0.138876	-0.778803	0.044168	0.018772	0.013561
265	1.350609	0.005000	8.690616	-0.510120	-3.864792	-0.041055	-0.138990	-0.779565	0.045629	0.011076	0.006685
266	1.355609	0.005000	8.704896	-0.408828	-3.878376	-0.040600	-0.139104	-0.780327	0.057832	0.002672	0.013296
267	1.360609	0.005000	8.764573	-0.381266	-3.859573	-0.040145	-0.139218	-0.781090	0.049527	0.006408	0.001837
268	1.365609	0.005000	8.857031	-0.364369	-3.834311	-0.039690	-0.139331	-0.781852	0.071453	-0.003057	0.007487
269	1.370609	0.005000	8.845731	-0.409131	-3.808867	-0.039235	-0.139445	-0.782615	0.054214	0.005810	0.010084
270	1.375609	0.005000	8.789760	-0.465359	-3.862084	-0.038780	-0.139559	-0.783377	0.067082	0.001610	0.003967
271	1.380609	0.005000	8.713989	-0.392400	-3.929418	-0.038325	-0.139673	-0.784139	0.066094	0.003872	0.010281
272	1.385609	0.005000	8.789760	-0.431640	-3.962953	-0.037869	-0.139787	-0.784902	0.056405	0.003416	0.012707
273	1.390609	0.005000	8.679709	-0.394956	-4.070734	-0.037414	-0.139901	-0.785664	0.061679	0.001354	0.010709
274	1.395609	0.005000	8.565121	-0.454679	-4.007880	-0.036959	-0.140014	-0.786427	0.051332	-0.001260	0.009765
275	1.400609	0.005000	8.703036	-0.439884	-3.924000	-0.036504	-0.140128	-0.787189	0.050129	-0.006042	-0.000627
276	1.405609	0.005000	8.750520	-0.431640	-3.963240	-0.036049	-0.140242	-0.787951	0.042625	-0.005819	0.017378
277	1.410609	0.005000	8.764452	-0.392400	-3.988548	-0.035878	-0.140470	-0.788143	0.022837	0.011254	-0.002490
278	1.415609	0.005000	8.829000	-0.438266	-3.871509	-0.035992	-0.140811	-0.787761	0.055160	-0.002032	0.001058
279	1.420609	0.005000	8.769671	-0.431640	-3.827307	-0.036105	-0.141153	-0.787380	0.051478	0.002344	0.000547
280	1.425609	0.005000	8.789760	-0.414395	-3.867515	-0.036219	-0.141494	-0.786998	0.041366	0.000406	0.005272
281	1.430609	0.005000	8.764921	-0.510120	-3.870359	-0.036333	-0.141835	-0.786617	0.043089	0.003360	0.007071
282	1.435609	0.005000	8.801317	-0.498563	-3.845520	-0.036447	-0.142177	-0.786236	0.047013	0.004332	0.001339
283	1.440609	0.005000	8.889843	-0.470880	-3.815099	-0.036561	-0.142518	-0.785854	0.053447	-0.000065	0.012891
284	1.445609	0.005000	8.849225	-0.503782	-3.851858	-0.036674	-0.142860	-0.785473	0.029767	0.007671	0.001662
285	1.450609	0.005000	8.754014	-0.460397	-3.881266	-0.036788	-0.143201	-0.785091	0.037546	0.011684	0.006317
286	1.455609	0.005000	8.711280	-0.353160	-3.846821	-0.036902	-0.143543	-0.784710	0.039324	0.022021	-0.002207
287	1.460609	0.005000	8.785373	-0.353160	-3.849907	-0.037016	-0.143884	-0.784329	0.060926	0.001198	-0.007183
288	1.465609	0.005000	8.779685	-0.397437	-3.918963	-0.037130	-0.144226	-0.783947	0.055280	0.005018	-0.001702
289	1.470609	0.005000	8.836514	-0.399914	-3.955726	-0.037243	-0.144567	-0.783566	0.057785	-0.000598	0.012172
290	1.475609	0.005000	8.711280	-0.499849	-4.010906	-0.037623	-0.144599	-0.783284	0.042459	-0.000661	0.018661
291	1.480609	0.005000	8.842009	-0.470880	-3.806386	-0.038419	-0.144144	-0.783157	0.040484	0.007455	0.009481
292	1.485609	0.005000	8.805719	-0.353160	-3.892082	-0.039215	-0.143689	-0.783030	0.046655	0.004034	0.004944
293	1.490609	0.005000	8.789760	-0.334357	-3.825083	-0.040011	-0.143234	-0.782903	0.056707	0.007846	0.010796
294	1.495609	0.005000	8.772167	-0.405939	-3.902353	-0.040808	-0.142779	-0.782776	0.047319	-0.000238	0.014593
295	1.500609	0.005000	8.794767	-0.416891	-3.933742	-0.041604	-0.142324	-0.782649	0.053402	-0.005781	0.008928
296	1.505609	0.005000	8.844142	-0.404449	-3.818329	-0.042400	-0.141869	-0.782522	0.051134	-0.003971	0.004108
297	1.510609	0.005000	8.779110	-0.461350	-3.864580	-0.043196	-0.141414	-0.782395	0.057037	0.007238	0.013719
298	1.515609	0.005000	8.803132	-0.399086	-3.956554	-0.043992	-0.140959	-0.782268	0.034411	0.014254	0.014532
299	1.520609	0.005000	8.872082	-0.392400	-3.967082	-0.044789	-0.140504	-0.782141	0.042375	-0.004647	0.017666
300	1.525609	0.005000	8.982965	-0.470880	-3.923002	-0.045585	-0.140050	-0.782014	0.039540	-0.000080	0.024570
301	1.530609	0.005000	8.754744	-0.470880	-3.998256	-0.046381	-0.139595	-0.781887	0.042842	-0.008027	0.016806
302	1.535609	0.005000	8.793996	-0.470880	-3.893231	-0.047177	-0.139140	-0.781760	0.041839	-0.012138	0.020436
303	1.540609	0.005000	8.750520	-0.470880	-3.859679	-0.047670	-0.138897	-0.781735	0.041739	-0.015424	0.025174
304	1.545609	0.005000	8.672494	-0.431640	-3.786433	-0.047329	-0.139238	-0.781989	0.043014	-0.001010	0.015543
305	1.550609	0.005000	8.645247	-0.419193	-3.925898	-0.046987	-0.139580	-0.782243	0.036224	0.008738	0.010720
306	1.555609	0.005000	8.744333	-0.353160	-3.845520	-0.046646	-0.139921	-0.782497	0.055692	-0.002392	0.003280
307	1.560609	0.005000	8.747253	-0.413654	-3.856971	-0.046305	-0.140263	-0.782751	0.057819	0.006300	0.007549
308	1.565609	0.005000	8.692870	-0.353160	-3.767040	-0.045963	-0.140604	-0.783005	0.058644	0.011302	0.002904
309	1.570609	0.005000	8.726846	-0.392400	-3.876652	-0.045622	-0.140945	-0.783259	0.056893	0.008391	-0.003892
310	1.575609	0.005000	8.750520	-0.392400	-3.911129	-0.045281	-0.141287	-0.783514	0.045500	0.012528	-0.005180
311	1.580609	0.005000	8.907480	-0.392400	-3.777372	-0.044939	-0.141628	-0.783768	0.054453	0.006030	0.002077
312	1.585609	0.005000	8.765496	-0.345672	-3.813768	-0.044598	-0.141970	-0.784022	0.062299	0.015042	-0.003337
313	1.590609	0.005000	8.868240	-0.318564	-3.880116	-0.044257	-0.142311	-0.784276	0.047933	0.020537	-0.013323
314	1.595609	0.005000	8.870041	-0.394201	-3.927602	-0.043915	-0.142652	-0.784530	0.060064	0.010669	-0.003406
315	1.600609	0.005000	8.869269	-0.431640	-3.887846	-0.043574	-0.142994	-0.784784	0.057217	0.007030	-0.006665
316	1.605609	0.005000	8.943301	-0.320758	-3.770459	-0.043301	-0.143284	-0.784981	0.045923	0.004619	-0.000667
317	1.610609	0.005000	8.775571	-0.353160	-3.851783	-0.043415	-0.143284	-0.784854	0.049372	0.015628	0.006275
318	1.615609	0.005000	8.711280	-0.383293	-3.854627	-0.043529	-0.143284	-0.784727	0.057223	0.004599	-0.004967
319	1.620609	0.005000	8.687379	-0.404351	-3.806280	-0.043642	-0.143284	-0.784600	0.047667	0.005841	0.002729
320	1.625609	0.005000	8.711280	-0.441291	-3.869966	-0.043756	-0.143284	-0.784473	0.045260	0.008314	0.004536
321	1.630609	0.005000	8.811623	-0.505634	-3.784417	-0.043870	-0.143284	-0.784345	0.050365	0.015433	-0.003094
322	1.635609	0.005000	8.808200	-0.431640	-3.924787	-0.043984	-0.143284	-0.784218	0.045936	0.015886	0.007067
323	1.640609	0.005000	8.740612	-0.438114	-3.891234	-0.044097	-0.143284	-0.784091	0.069910	0.006582	0.015172
324	1.645609	0.005000	8.593560	-0.419478	-3.819819	-0.044211	-0.143284	-0.783964	0.049233	0.001444	0.017938
325	1.650609	0.005000	8.768120	-0.449240	-3.924000	-0.044325	-0.143284	-0.783837	0.045369	0.001462	0.007896
326	1.655609	0.005000	8.727890	-0.431640	-3.884760	-0.044439	-0.143284	-0.783710	0.059421	-0.007843	0.013404
327	1.660609	0.005000	8.716741	-0.397861	-3.840059	-0.044552	-0.143284	-0.783583	0.045968	0.011226	0.014890
328	1.665609	0.005000	8.677274	-0.426406	-3.808897	-0.044666	-0.143284	-0.783456	0.054365	0.005926	0.016621
329	1.670609	0.005000	8.711507	-0.392173	-3.884533	-0.044772	-0.143276	-0.783337	0.040896	0.007960	0.016843
330	1.675609	0.005000	8.716484	-0.353160	-3.921398	-0.044658	-0.143049	-0.783464	0.044261	0.006631	0.010401
331	1.680609	0.005000	8.818108	-0.353160	-3.845520	-0.044545	-0.142821	-0.783591	0.051270	-0.001397	0.011464
332	1.685609	0.005000	8.812421	-0.305630	-3.954950	-0.044431	-0.142594	-0.783718	0.049562	0.012744	0.008746
333	1.690609	0.005000	8.733547	-0.325054	-3.834386	-0.044317	-0.142366	-0.783845	0.051891	0.006349	0.007718
334	1.695609	0.005000	8.854262	-0.353160	-3.806280	-0.044204	-0.142139	-0.783972	0.064360	0.003360	0.005051
335	1.700609	0.005000	8.767341	-0.414819	-3.968837	-0.044090	-0.141912	-0.784099	0.076983	0.004076	0.004118
336	1.705609	0.005000	8.730492	-0.392400	-4.061748	-0.043976	-0.141684	-0.784227	0.054836	0.007506	0.007602
337	1.710609	0.005000	8.728465	-0.353160	-3.928871	-0.043863	-0.141457	-0.784354	0.064099	0.003810	0.007955
338	1.715609	0.005000	8.818441	-0.431640	-3.899101	-0.043749	-0.141229	-0.784481	0.064536	0.001202	0.006956
339	1.720609	0.005000	8.773513	-0.510120	-3.896257	-0.043635	-0.141002	-0.784608	0.057744	0.008028	0.009745
340	1.725609	0.005000	8.890174	-0.462227	-4.015762	-0.043521	-0.140774	-0.784735	0.065641	-0.002193	0.015090
341	1.730609	0.005000	8.849407	-0.437918	-3.818836	-0.043408	-0.140547	-0.784862	0.057795	0.000270	0.008233
342	1.735609	0.005000	8.851071	-0.506686	-3.924000	-0.043294	-0.140319	-0.784989	0.054695	0.002968	-0.000073
343	1.740609	0.005000	8.713050	-0.508350	-3.886530	-0.043077	-0.140299	-0.785116	0.062379	-0.004008	0.005393
344	1.745609	0.005000	8.792014	-0.429386	-3.854536	-0.042849	-0.140299	-0.785243	0.064489	0.000132	0.011128
345	1.750609	0.005000	8.720677	-0.461483	-3.850218	-0.042621	-0.140299	-0.785370	0.064422	0.003930	0.001977
346	1.755609	0.005000	8.750520	-0.446616	-3.940776	-0.042394	-0.140299	-0.785497	0.050595	0.008686	0.002344
347	1.760609	0.005000	8.789760	-0.489456	-4.010724	-0.042166	-0.140299	-0.785624	0.069098	0.003078	0.007828
348	1.765609	0.005000	8.737601	-0.457961	-3.963240	-0.041939	-0.140299	-0.785751	0.060224	0.003767	0.009393
349	1.770609	0.005000	8.804222	-0.454875	-4.016942	-0.041711	-0.140299	-0.785878	0.052211	0.001800	0.012847
350	1.775609	0.005000	8.750520	-0.448946	-3.942849	-0.041484	-0.140299	-0.786005	0.045732	-0.004584	0.020300
351	1.780609	0.005000	8.846548	-0.370708	-3.888905	-0.041256	-0.140299	-0.786133	0.041794	0.002444	0.016188
352	1.785609	0.005000	8.774603	-0.353160	-3.939157	-0.041028	-0.140299	-0.786260	0.050210	-0.003060	0.013921
353	1.790609	0.005000	8.816686	-0.392400	-3.823192	-0.040801	-0.140299	-0.786387	0.051095	0.002917	0.020239
354	1.795609	0.005000	8.789760	-0.441110	-3.815750	-0.040573	-0.140299	-0.786514	0.065675	-0.001009	0.017235
355	1.800609	0.005000	8.704654	-0.431640	-3.943877	-0.040346	-0.140299	-0.786641	0.052677	-0.006903	0.015936
356	1.805609	0.005000	8.629018	-0.392400	-4.034156	-0.040118	-0.140118	-0.786566	0.050752	-0.010622	0.013333
357	1.810609	0.005000	8.672978	-0.469942	-4.001542	-0.039890	-0.139890	-0.786439	0.050396	-0.010240	0.016479
358	1.815609	0.005000	8.711280	-0.507211	-3.849883	-0.039663	-0.139663	-0.786312	0.039947	0.006095	0.003214
359	1.820609	0.005000	8.759082	-0.361722	-3.819123	-0.039435	-0.139435	-0.786185	0.060175	0.010606	0.006065
360	1.825609	0.005000	8.796885	-0.431640	-3.813405	-0.039207	-0.139207	-0.786058	0.052316	0.002809	0.010376
361	1.830609	0.005000	8.731218	-0.402369	-3.894093	-0.038980	-0.138980	-0.785931	0.056070	0.002110	0.007127
362	1.835609	0.005000	8.696758	-0.431640	-3.936359	-0.038752	-0.138752	-0.785803	0.058282	0.000445	0.012559
363	1.840609	0.005000	8.726483	-0.392400	-3.860723	-0.038525	-0.138525	-0.785676	0.059597	0.010177	0.013911
364	1.845609	0.005000	8.771713	-0.431640	-3.845520	-0.038297	-0.138297	-0.785549	0.061710	0.007732	0.016751
365	1.850609	0.005000	8.773952	-0.429099	-3.866411	-0.038069	-0.138069	-0.785422	0.049337	-0.001124	0.012038
366	1.855609	0.005000	8.789760	-0.479109	-3.939505	-0.037842	-0.137842	-0.785295	0.062352	-0.001480	0.003808
367	1.860609	0.005000	8.737390	-0.353160	-3.937130	-0.037614	-0.137614	-0.785168	0.050922	0.007615	0.016097
368	1.865609	0.005000	8.729947	-0.402687	-3.855807	-0.037386	-0.137386	-0.785041	0.048141	0.009668	0.014010
369	1.870609	0.005000	8.782317	-0.431640	-3.813723	-0.037853	-0.137699	-0.785086	0.058691	0.014017	0.002138
370	1.875609	0.005000	8.740415	-0.421535	-3.924000	-0.038650	-0.138268	-0.785213	0.047895	0.013558	0.004586
371	1.880609	0.005000	8.706863	-0.361994	-3.961031	-0.039446	-0.138837	-0.785340	0.051907	0.006811	0.010955
372	1.885609	0.005000	8.671405	-0.471515	-3.885395	-0.040243	-0.139406	-0.785467	0.064372	0.011857	0.011495
373	1.890609	0.005000	8.861281	-0.435119	-3.952802	-0.041039	-0.139975	-0.785595	0.057997	0.011652	0.006633
374	1.895609	0.005000	8.861917	-0.398723	-3.975886	-0.041836	-0.140544	-0.785722	0.054278	0.004594	0.019121
375	1.900609	0.005000	8.768127	-0.431640	-3.815083	-0.042633	-0.141113	-0.785849	0.038822	0.016346	0.013647
376	1.905609	0.005000	8.750520	-0.364702	-3.900916	-0.043429	-0.141682	-0.785976	0.051523	-0.003595	0.001456
377	1.910609	0.005000	8.700812	-0.353160	-4.002480	-0.044226	-0.142251	-0.786103	0.052371	0.001655	0.004276
378	1.915609	0.005000	8.620350	-0.318700	-3.862750	-0.045022	-0.142820	-0.786230	0.060161	0.005888	0.003463
379	1.920609	0.005000	8.710372	-0.392400	-3.806280	-0.045819	-0.143389	-0.786357	0.055772	0.002871	0.005159
380	1.925609	0.005000	8.851464	-0.448416	-3.828744	-0.046615	-0.143958	-0.786484	0.044944	0.005055	0.012508
381	1.930609	0.005000	8.815062	-0.417702	-3.856885	-0.047412	-0.144527	-0.786611	0.052775	0.006750	0.010753
382	1.935609	0.005000	8.761623	-0.353160	-3.906967	-0.047441	-0.144968	-0.786310	0.031755	0.014999	0.011867
383	1.940609	0.005000	8.789760	-0.361419	-3.954981	-0.046872	-0.145309	-0.785675	0.048866	-0.006135	0.023600
384	1.945609	0.005000	8.840739	-0.364899	-3.890629	-0.046304	-0.145651	-0.785039	0.034241	0.004550	0.020484
385	1.950609	0.005000	8.865215	-0.392400	-3.887785	-0.045735	-0.145992	-0.784404	0.044724	0.005062	0.012261
386	1.955609	0.005000	8.867695	-0.392400	-3.923818	-0.045166	-0.146333	-0.783769	0.055409	0.001663	0.017972
387	1.960609	0.005000	8.750520	-0.428978	-3.775027	-0.044597	-0.146675	-0.783133	0.055719	0.008489	0.019389
388	1.965609	0.005000	8.800773	-0.392400	-3.957734	-0.044028	-0.147016	-0.782498	0.056397	0.000101	0.024750
389	1.970609	0.005000	8.697091	-0.353160	-3.907300	-0.043459	-0.147358	-0.781862	0.036575	0.000610	0.024051
390	1.975609	0.005000	8.789760	-0.399075	-3.934855	-0.042890	-0.147699	-0.781227	0.053735	-0.011311	0.010836
391	1.980609	0.005000	8.776191	-0.496551	-3.911898	-0.042321	-0.148040	-0.780592	0.046559	-0.009500	0.011897
392	1.985609	0.005000	8.783346	-0.470880	-3.976068	-0.041752	-0.148382	-0.779956	0.040047	-0.007016	0.016889
393	1.990609	0.005000	8.789760	-0.430914	-4.041720	-0.041184	-0.148723	-0.779321	0.043347	-0.009896	0.023335
394	1.995609	0.005000	8.816823	-0.436602	-4.051643	-0.040615	-0.149065	-0.778686	0.038790	-0.004291	0.028277
395	2.000609	0.005000	8.789760	-0.431640	-3.952925	-0.040400	-0.149001	-0.778559	0.038860	-0.010649	0.020396
396	2.005609	0.005000	8.672040	-0.392400	-4.033340	-0.040628	-0.148432	-0.779068	0.044711	-0.004824	0.025212
397	2.010609	0.005000	8.572442	-0.470880	-3.914939	-0.040855	-0.147863	-0.779576	0.042240	0.000534	0.009456
398	2.015609	0.005000	8.626583	-0.419205	-3.957023	-0.041083	-0.147294	-0.780084	0.043097	-0.004647	0.017497
399	2.020609	0.005000	8.757267	-0.435013	-4.009227	-0.041311	-0.146725	-0.780592	0.047850	0.002636	0.008607
400	2.025609	0.005000	8.866652	-0.509061	-4.118082	-0.041538	-0.146156	-0.781101	0.044551	-0.001878	0.008503
401	2.030609	0.005000	8.787446	-0.505491	-4.000166	-0.041766	-0.145587	-0.781609	0.027223	0.008417	0.010864
402	2.035609	0.005000	8.715969	-0.461501	-3.963240	-0.041993	-0.145018	-0.782117	0.045173	-0.001276	0.013873
403	2.040609	0.005000	8.711280	-0.478413	-3.907360	-0.042221	-0.144449	-0.782626	0.040706	0.000639	0.011489
404	2.045609	0.005000	8.632800	-0.481257	-3.963240	-0.042449	-0.143880	-0.783134	0.042248	0.004293	0.011532
405	2.050609	0.005000	8.724501	-0.432064	-3.962816	-0.042676	-0.143311	-0.783642	0.049528	0.003490	0.015951
406	2.055609	0.005000	8.787914	-0.438750	-3.986415	-0.042904	-0.142742	-0.784151	0.046125	0.007100	0.016496
407	2.060609	0.005000	8.829000	-0.470880	-3.982149	-0.043131	-0.142173	-0.784659	0.045188	0.002161	0.008068
408	2.065609	0.005000	8.815779	-0.431640	-3.897981	-0.043546	-0.142315	-0.784165	0.055396	-0.005272	0.011346
409	2.070609	0.005000	8.667351	-0.402354	-3.938643	-0.044342	-0.143907	-0.781625	0.054364	0.004660	0.012373
410	2.075609	0.005000	8.657306	-0.443893	-4.068707	-0.045138	-0.145499	-0.779085	0.053738	-0.002239	0.016882
411	2.080609	0.005000	8.642209	-0.441049	-4.032311	-0.045934	-0.147092	-0.776544	0.056230	0.000397	0.011240
412	2.085609	0.005000	8.704715	-0.438205	-4.009045	-0.046730	-0.148684	-0.774004	0.051208	-0.004419	0.014809
413	2.090609	0.005000	8.782317	-0.541917	-3.963240	-0.047526	-0.150276	-0.771464	0.041471	0.004800	0.013227
414	2.095609	0.005000	8.597070	-0.470003	-3.884760	-0.048322	-0.151869	-0.768924	0.041371	-0.000442	0.010689
415	2.100609	0.005000	8.712796	-0.507089	-3.809311	-0.049119	-0.153461	-0.766384	0.037940	-0.002991	0.008399
416	2.105609	0.005000	8.706938	-0.575575	-3.906634	-0.049915	-0.155054	-0.763844	0.041617	-0.000162	0.005905
417	2.110609	0.005000	8.775389	-0.453196	-3.859891	-0.050711	-0.156646	-0.761304	0.045660	-0.006544	0.007697
418	2.115609	0.005000	8.839029	-0.392400	-3.933152	-0.051507	-0.158238	-0.758764	0.024606	0.006846	0.009589
419	2.120609	0.005000	8.711280	-0.419086	-3.950686	-0.052303	-0.159831	-0.756223	0.048723	0.007931	0.006793
420	2.125609	0.005000	8.687288	-0.431640	-3.963240	-0.053099	-0.161423	-0.753683	0.037583	0.004775	0.008092
421	2.130609	0.005000	8.629744	-0.452788	-3.881704	-0.053895	-0.162593	-0.751903	0.049072	0.005759	0.006471
422	2.135609	0.005000	8.690344	-0.455208	-3.824584	-0.054691	-0.162138	-0.753046	0.039946	0.006572	0.012436
423	2.140609	0.005000	8.672040	-0.416180	-3.884760	-0.055488	-0.161683	-0.754189	0.029922	0.016355	0.020297
424	2.145609	0.005000	8.685140	-0.392400	-3.884730	-0.056284	-0.161228	-0.755332	0.033611	0.019687	0.017521
425	2.150609	0.005000	8.789760	-0.431640	-3.855746	-0.057080	-0.160773	-0.756475	0.042150	0.007816	0.010863
426	2.155609	0.005000	8.853476	-0.385018	-3.830756	-0.057876	-0.160318	-0.757618	0.043788	0.008293	0.004655
427	2.160609	0.005000	8.676578	-0.431640	-4.002480	-0.058672	-0.159863	-0.758761	0.034928	0.010274	0.013030
428	2.165609	0.005000	8.600419	-0.469165	-3.922285	-0.059469	-0.159408	-0.759904	0.055370	0.011609	0.001046
429	2.170609	0.005000	8.789079	-0.354521	-3.846201	-0.060265	-0.158953	-0.761047	0.055527	0.008478	0.012179
430	2.175609	0.005000	8.818426	-0.353160	-3.845520	-0.061061	-0.158498	-0.762190	0.045403	0.012217	0.009693
431	2.180609	0.005000	8.783391	-0.464511	-3.865654	-0.061857	-0.158043	-0.763334	0.056201	0.004298	0.003387
432	2.185609	0.005000	8.780548	-0.450065	-3.924000	-0.062653	-0.157588	-0.764477	0.048648	0.015051	0.017885
433	2.190609	0.005000	8.778022	-0.337397	-3.974978	-0.063450	-0.157133	-0.765620	0.050586	0.007758	0.015163
434	2.195609	0.005000	8.785661	-0.417194	-4.012827	-0.064074	-0.156649	-0.766742	0.047045	0.009058	0.016450
435	2.200609	0.005000	8.846290	-0.370450	-3.980530	-0.062822	-0.155853	-0.767631	0.035408	0.008296	0.010860
436	2.205609	0.005000	8.712309	-0.411506	-3.905923	-0.061571	-0.155056	-0.768520	0.047647	-0.001261	0.012483
437	2.210609	0.005000	8.812738	-0.431640	-3.924000	-0.060319	-0.154260	-0.769410	0.046439	0.007119	0.017262
438	2.215609	0.005000	8.685620	-0.378820	-3.976820	-0.059067	-0.153463	-0.770299	0.058189	0.007610	0.007450
439	2.220609	0.005000	8.637731	-0.420597	-4.041720	-0.057816	-0.152667	-0.771189	0.053078	0.016718	0.013556
440	2.225609	0.005000	8.663841	-0.524763	-3.963240	-0.056564	-0.151870	-0.772078	0.036951	0.020663	0.014735
441	2.230609	0.005000	8.750520	-0.465525	-3.997125	-0.055312	-0.151074	-0.772967	0.033864	0.013583	0.022335
442	2.235609	0.005000	8.713791	-0.353160	-3.960729	-0.054061	-0.150277	-0.773857	0.037944	0.017216	0.007829
443	2.240609	0.005000	8.711401	-0.392521	-3.963361	-0.052809	-0.149481	-0.774746	0.050489	0.008398	0.010509
444	2.245609	0.005000	8.787037	-0.395123	-3.929446	-0.051557	-0.148685	-0.775636	0.054859	0.021401	0.007244
445	2.250609	0.005000	8.851540	-0.397967	-3.918433	-0.050305	-0.147888	-0.776525	0.052327	0.019111	0.011488
446	2.255609	0.005000	8.798171	-0.431640	-3.893171	-0.049054	-0.147092	-0.777414	0.061584	0.014214	0.010901
447	2.260609	0.005000	8.746095	-0.374992	-3.884760	-0.047802	-0.146295	-0.778304	0.042418	0.012598	0.006491
448	2.265609	0.005000	8.699299	-0.392400	-3.859150	-0.047541	-0.146049	-0.778333	0.060594	0.010526	0.010219
449	2.270609	0.005000	8.672040	-0.454406	-3.839227	-0.047313	-0.145821	-0.778333	0.051903	0.020060	0.016306
450	2.275609	0.005000	8.710675	-0.431640	-3.806280	-0.047086	-0.145594	-0.778333	0.069464	0.016783	0.010739
451	2.280609	0.005000	8.784677	-0.392400	-3.889843	-0.046858	-0.145366	-0.778333	0.056153	0.008207	0.016557
452	2.285609	0.005000	8.843407	-0.460454	-3.835094	-0.046631	-0.145139	-0.778333	0.064514	0.006125	0.008790
453	2.290609	0.005000	8.723140	-0.459020	-3.963240	-0.046403	-0.144911	-0.778333	0.050494	0.008425	0.014412
454	2.295609	0.005000	8.759536	-0.410432	-3.945208	-0.046175	-0.144683	-0.778333	0.057772	0.017628	0.005986
455	2.300609	0.005000	8.822828	-0.477052	-3.864036	-0.045948	-0.144456	-0.778333	0.046277	0.007636	0.020415
456	2.305609	0.005000	8.743864	-0.428312	-3.845520	-0.045720	-0.144228	-0.778333	0.056152	0.009423	0.022337
457	2.310609	0.005000	8.712218	-0.394276	-3.962302	-0.045493	-0.144001	-0.778333	0.058808	0.004041	0.012197
458	2.315609	0.005000	8.750520	-0.470880	-3.961334	-0.045265	-0.143773	-0.778333	0.061183	0.009129	0.024944
459	2.320609	0.005000	8.725530	-0.549360	-3.875260	-0.045038	-0.143546	-0.778333	0.052779	0.008732	0.009334
460	2.325609	0.005000	8.829000	-0.446828	-3.908812	-0.044810	-0.143318	-0.778333	0.064124	0.001222	0.016599
461	2.330609	0.005000	8.789760	-0.510120	-4.012449	-0.044389	-0.143090	-0.778117	0.071439	-0.002047	0.017455
462	2.335609	0.005000	8.764134	-0.418026	-3.897573	-0.043934	-0.142863	-0.777863	0.060186	0.000251	0.014346
463	2.340609	0.005000	8.797687	-0.439567	-3.947583	-0.043478	-0.142635	-0.777609	0.064466	0.004517	0.019379
464	2.345609	0.005000	8.847501	-0.373899	-3.868498	-0.043023	-0.142408	-0.777354	0.061438	0.007639	0.012219
465	2.350609	0.005000	8.811105	-0.446086	-3.988034	-0.042568	-0.142180	-0.777100	0.067585	0.002273	0.005612
466	2.355609	0.005000	8.765572	-0.455828	-3.987428	-0.042113	-0.141952	-0.776846	0.053463	0.007304	0.007001
467	2.360609	0.005000	8.684701	-0.458219	-3.936661	-0.041658	-0.141725	-0.776592	0.053246	0.001602	0.009314
468	2.365609	0.005000	8.721098	-0.392400	-3.865125	-0.041203	-0.141497	-0.776338	0.051383	0.011977	0.007480
469	2.370609	0.005000	8.789760	-0.399374	-3.820227	-0.040748	-0.141270	-0.776084	0.072615	0.016548	0.004725
470	2.375609	0.005000	8.829000	-0.439899	-3.853779	-0.040292	-0.141042	-0.775830	0.086512	0.006555	0.009297
471	2.380609	0.005000	8.826428	-0.511406	-4.045577	-0.039837	-0.140815	-0.775576	0.066241	0.008112	0.011825
472	2.385609	0.005000	8.825884	-0.473996	-4.084076	-0.039382	-0.140587	-0.775322	0.063015	0.006345	0.016712
473	2.390609	0.005000	8.723079	-0.537561	-3.975039	-0.038927	-0.140359	-0.775067	0.043150	0.009768	0.010482
474	2.395609	0.005000	8.718057	-0.549360	-3.865851	-0.038722	-0.140132	-0.775187	0.047962	0.016412	0.012922
475	2.400609	0.005000	8.819379	-0.450882	-3.845520	-0.038609	-0.139904	-0.775441	0.049996	0.007364	0.019147
476	2.405609	0.005000	8.791606	-0.433486	-3.938310	-0.038495	-0.139677	-0.775695	0.041966	0.006406	0.014664
477	2.410609	0.005000	8.829000	-0.518743	-4.026411	-0.038381	-0.139449	-0.775948	0.047962	-0.006420	0.016999
478	2.415609	0.005000	8.765738	-0.507185	-3.987262	-0.038267	-0.139222	-0.776202	0.036731	-0.004568	0.013426
479	2.420609	0.005000	8.787434	-0.530903	-4.000154	-0.038154	-0.138994	-0.776456	0.047943	0.000372	0.012651
480	2.425609	0.005000	8.718813	-0.384867	-3.947387	-0.038040	-0.138767	-0.776710	0.035779	0.000535	0.020455
481	2.430609	0.005000	8.698059	-0.457659	-4.067739	-0.037926	-0.138539	-0.776964	0.037729	0.007004	0.006264
482	2.435609	0.005000	8.682328	-0.510120	-3.971615	-0.037812	-0.138312	-0.777218	0.045491	0.008440	0.004981
483	2.440609	0.005000	8.711280	-0.455299	-3.861101	-0.037698	-0.138084	-0.777472	0.040063	0.005803	0.010967
484	2.445609	0.005000	8.716227	-0.392400	-4.002480	-0.037585	-0.137856	-0.777726	0.055910	0.004953	0.009668
485	2.450609	0.005000	8.826897	-0.392400	-4.000377	-0.037471	-0.137629	-0.777980	0.065702	0.006651	-0.000925
486	2.455609	0.005000	8.905256	-0.430899	-3.963240	-0.037357	-0.137401	-0.778234	0.072047	0.009212	0.000265
487	2.460609	0.005000	8.825415	-0.392400	-3.998895	-0.037383	-0.137383	-0.778566	0.064708	0.010698	-0.003238
488	2.465609	0.005000	8.783800	-0.537440	-3.896680	-0.037496	-0.137496	-0.778947	0.045549	0.011872	0.002168
489	2.470609	0.005000	8.759324	-0.449248	-3.854324	-0.037610	-0.137610	-0.779329	0.056524	0.006276	-0.002792
490	2.475609	0.005000	8.794056	-0.498472	-4.006776	-0.037724	-0.137724	-0.779710	0.050253	0.015341	-0.010129
491	2.480609	0.005000	8.765012	-0.485372	-3.919764	-0.037838	-0.137838	-0.780091	0.058285	0.001263	-0.002319
492	2.485609	0.005000	8.772424	-0.431640	-3.902096	-0.037952	-0.137952	-0.780472	0.042424	0.005731	-0.008243
493	2.490609	0.005000	8.711280	-0.412126	-3.884760	-0.038066	-0.138066	-0.780853	0.046332	0.007638	0.000493
494	2.495609	0.005000	8.767190	-0.414970	-3.895531	-0.038179	-0.138179	-0.781235	0.046787	0.000675	0.005211
495	2.500609	0.005000	8.748281	-0.366986	-3.859346	-0.038293	-0.138293	-0.781616	0.045435	-0.000122	0.001796
496	2.505609	0.005000	8.750520	-0.459898	-3.856502	-0.038407	-0.138407	-0.781997	0.046924	0.002979	0.004598
497	2.510609	0.005000	8.649077	-0.447917	-3.853658	-0.038521	-0.138521	-0.782378	0.049753	0.006473	0.005133
498	2.515609	0.005000	8.677335	-0.421051	-3.952651	-0.038635	-0.138635	-0.782759	0.061264	0.008954	0.006625
499	2.520609	0.005000	8.674960	-0.319759	-3.957401	-0.038749	-0.138749	-0.783141	0.058435	0.007384	0.012308
500	2.525609	0.005000	8.593711	-0.353236	-3.767040	-0.039031	-0.139144	-0.783396	0.071734	-0.004859	-0.006636
501	2.530609	0.005000	8.672040	-0.392400	-3.803512	-0.039487	-0.139827	-0.783523	0.056987	0.002702	0.006598
502	2.535609	0.005000	8.756132	-0.364384	-3.851132	-0.039942	-0.140510	-0.783650	0.045707	0.019588	0.015813
503	2.540609	0.005000	8.772848	-0.383944	-3.915544	-0.040397	-0.141192	-0.783777	0.062154	0.008028	0.008884
504	2.545609	0.005000	8.727920	-0.375760	-3.951940	-0.040852	-0.141875	-0.783904	0.057081	0.018940	0.011843
505	2.550609	0.005000	8.725130	-0.403939	-4.053259	-0.041307	-0.142558	-0.784031	0.052637	0.008958	0.012116
506	2.555609	0.005000	8.806294	-0.442002	-3.985946	-0.041762	-0.143241	-0.784159	0.055496	0.010092	0.015290
507	2.560609	0.005000	8.672040	-0.411778	-4.042204	-0.042218	-0.143923	-0.784286	0.041413	0.011138	0.017234
508	2.565609	0.005000	8.706076	-0.397604	-3.946222	-0.042673	-0.144606	-0.784413	0.068722	0.012307	0.010528
509	2.570609	0.005000	8.672040	-0.338517	-3.968504	-0.043128	-0.145289	-0.784540	0.059707	0.011392	0.010772
510	2.575609	0.005000	8.675882	-0.392400	-3.869118	-0.043583	-0.145971	-0.784667	0.076000	0.008920	0.003488
511	2.580609	0.005000	8.672040	-0.344205	-3.959821	-0.044038	-0.146654	-0.784794	0.059924	0.007587	-0.001332
512	2.585609	0.005000	8.657246	-0.365383	-4.041720	-0.044493	-0.147337	-0.784921	0.051275	0.008425	0.004075
513	2.590609	0.005000	8.786493	-0.353160	-4.035185	-0.044690	-0.147632	-0.784904	0.081750	0.005617	0.019119
514	2.595609	0.005000	8.830755	-0.393277	-3.883883	-0.044462	-0.147291	-0.784650	0.056889	0.016582	0.005384
515	2.600609	0.005000	8.907480	-0.431640	-3.882793	-0.044235	-0.146949	-0.784396	0.056920	0.009656	0.013895
516	2.605609	0.005000	8.833810	-0.470880	-3.919190	-0.044007	-0.146608	-0.784142	0.058425	0.016102	0.012741
517	2.610609	0.005000	8.663417	-0.360814	-3.947931	-0.043780	-0.146267	-0.783888	0.070543	0.003714	0.007404
518	2.615609	0.005000	8.711280	-0.373219	-3.954088	-0.043552	-0.145926	-0.783634	0.071616	0.013360	0.019106
519	2.620609	0.005000	8.698407	-0.418767	-3.898253	-0.043325	-0.145585	-0.783380	0.053013	0.012725	0.015111
520	2.625609	0.005000	8.632800	-0.360966	-3.971046	-0.043098	-0.145244	-0.783126	0.055633	0.014939	0.013249
521	2.630609	0.005000	8.672040	-0.431640	-3.965358	-0.042870	-0.144902	-0.782872	0.051073	0.017063	0.010501
522	2.635609	0.005000	8.653989	-0.410451	-4.002480	-0.042643	-0.144561	-0.782618	0.069018	0.020341	0.010577
523	2.640609	0.005000	8.663720	-0.368620	-3.994160	-0.042415	-0.144220	-0.782364	0.061675	0.027550	0.010305
524	2.645609	0.005000	8.697272	-0.419024	-3.938008	-0.042188	-0.143879	-0.782110	0.080756	0.020187	0.008481
525	2.650609	0.005000	8.691736	-0.382477	-3.894683	-0.041960	-0.143538	-0.781856	0.068560	0.019557	0.014003
526	2.655609	0.005000	8.718208	-0.477808	-3.852448	-0.041762	-0.143196	-0.781732	0.040082	0.017993	0.002742
527	2.660609	0.005000	8.797929	-0.506036	-3.924000	-0.041648	-0.142855	-0.781986	0.048779	0.015472	0.005163
528	2.665609	0.005000	8.751760	-0.510120	-3.848001	-0.041534	-0.142514	-0.782240	0.058735	0.021961	0.006658
529	2.670609	0.005000	8.940306	-0.472483	-3.961637	-0.041421	-0.142172	-0.782494	0.066769	0.022553	0.005156
530	2.675609	0.005000	8.981513	-0.510120	-4.028378	-0.041307	-0.141831	-0.782749	0.063062	0.015660	0.022536
531	2.680609	0.005000	8.907480	-0.399691	-3.963240	-0.041193	-0.141489	-0.783003	0.062929	0.014468	0.012381
532	2.685609	0.005000	8.760315	-0.431640	-4.031925	-0.041079	-0.141148	-0.783257	0.057634	0.003423	0.028227
533	2.690609	0.005000	8.777235	-0.431640	-3.936525	-0.040966	-0.140807	-0.783511	0.046776	0.005479	0.025402
534	2.695609	0.005000	8.820499	-0.377031	-3.908631	-0.040852	-0.140465	-0.783765	0.066252	0.017174	0.021016
535	2.700609	0.005000	8.795387	-0.371373	-3.860920	-0.040738	-0.140124	-0.784019	0.070708	0.027304	0.011703
536	2.705609	0.005000	8.752954	-0.332323	-3.843086	-0.040624	-0.139782	-0.784273	0.066155	0.021261	0.009774
537	2.710609	0.005000	8.727088	-0.408208	-3.979048	-0.040511	-0.139441	-0.784527	0.075024	0.013826	0.010713
538	2.715609	0.005000	8.803072	-0.444952	-3.911384	-0.040397	-0.139100	-0.784781	0.060828	0.017902	0.003360
539	2.720609	0.005000	8.701160	-0.353160	-3.924000	-0.040347	-0.138901	-0.785000	0.064880	0.014261	0.008719
540	2.725609	0.005000	8.718556	-0.456328	-3.870208	-0.040688	-0.139584	-0.785000	0.057409	0.013186	0.014103
541	2.730609	0.005000	8.829000	-0.396884	-3.910548	-0.041029	-0.140266	-0.785000	0.053790	0.025244	0.010045
542	2.735609	0.005000	8.905438	-0.390358	-3.764998	-0.041370	-0.140949	-0.785000	0.050608	0.025364	0.007774
543	2.740609	0.005000	8.714487	-0.468475	-3.804677	-0.041711	-0.141631	-0.785000	0.061499	0.027282	0.000011
544	2.745609	0.005000	8.707634	-0.403337	-3.881114	-0.042053	-0.142314	-0.785000	0.065066	0.018613	0.007026
545	2.750609	0.005000	8.659061	-0.431640	-3.936979	-0.042394	-0.142996	-0.785000	0.060544	0.031286	-0.004316
546	2.755609	0.005000	8.780788	-0.461908	-4.002480	-0.042735	-0.143678	-0.785000	0.058182	0.017871	-0.001069
547	2.760609	0.005000	8.778052	-0.470880	-3.979063	-0.043076	-0.144361	-0.785000	0.045004	0.025435	0.006094
548	2.765609	0.005000	8.843552	-0.574048	-3.913865	-0.043417	-0.145043	-0.785000	0.044849	0.027451	0.001879
549	2.770609	0.005000	8.850844	-0.488276	-3.745196	-0.043758	-0.145726	-0.785000	0.028419	0.020294	0.004520
550	2.775609	0.005000	8.868240	-0.491120	-3.903760	-0.044100	-0.146408	-0.785000	0.006252	0.020190	0.006173
551	2.780609	0.005000	8.829000	-0.510120	-3.890750	-0.044441	-0.147090	-0.785000	0.033180	0.022459	0.007814
552	2.785609	0.005000	8.826897	-0.482558	-3.884760	-0.044770	-0.147745	-0.784998	0.044267	0.033958	0.016931
553	2.790609	0.005000	8.761457	-0.442577	-3.884760	-0.044429	-0.146835	-0.784871	0.032675	0.028649	0.005372
554	2.795609	0.005000	8.789760	-0.470880	-3.829334	-0.044087	-0.145925	-0.784744	0.029339	0.023237	0.010332
555	2.800609	0.005000	8.823751	-0.504871	-3.840271	-0.043746	-0.145014	-0.784617	0.025995	0.024871	0.007658
556	2.805609	0.005000	8.753379	-0.470880	-3.767040	-0.043405	-0.144104	-0.784489	0.024486	0.025905	0.017819
557	2.810609	0.005000	8.750565	-0.510090	-3.767085	-0.043063	-0.143194	-0.784362	0.007803	0.031876	0.020256
558	2.815609	0.005000	8.795418	-0.395229	-3.775526	-0.042722	-0.142283	-0.784235	0.016541	0.028048	0.011530
559	2.820609	0.005000	8.716953	-0.425967	-3.727800	-0.042381	-0.141373	-0.784108	0.003905	0.027645	0.016683
560	2.825609	0.005000	8.694247	-0.400917	-3.828487	-0.042039	-0.140463	-0.783981	0.009881	0.026927	0.019380
561	2.830609	0.005000	8.672040	-0.442532	-3.952348	-0.041698	-0.139552	-0.783854	0.000334	0.026703	0.018290
562	2.835609	0.005000	8.776024	-0.404169	-3.935769	-0.041357	-0.138642	-0.783727	-0.004121	0.032837	0.017715
563	2.840609	0.005000	8.773181	-0.386319	-3.890841	-0.041016	-0.137732	-0.783600	-0.002555	0.023172	0.030419
564	2.845609	0.005000	8.770337	-0.353160	-3.904183	-0.040674	-0.136822	-0.783473	-0.010616	0.023685	0.037269
565	2.850609	0.005000	8.829000	-0.414667	-3.806280	-0.040333	-0.135911	-0.783346	-0.012599	0.013350	0.035189
566	2.855609	0.005000	8.747374	-0.395546	-3.902035	-0.040401	-0.136129	-0.782990	-0.007179	0.017127	0.044457
567	2.860609	0.005000	8.644539	-0.380661	-4.014219	-0.040515	-0.136470	-0.782608	0.006229	0.008500	0.038433
568	2.865609	0.005000	8.759415	-0.353160	-4.084621	-0.040629	-0.136811	-0.782227	0.004475	0.013862	0.054828
569	2.870609	0.005000	8.822949	-0.313920	-3.924000	-0.040743	-0.137153	-0.781846	0.000056	0.015335	0.039346
570	2.875609	0.005000	8.672040	-0.349953	-3.989652	-0.040856	-0.137494	-0.781465	0.009809	0.013492	0.027116
571	2.880609	0.005000	8.789034	-0.353523	-3.846609	-0.040970	-0.137836	-0.781084	0.010054	0.009757	0.031426
572	2.885609	0.005000	8.748039	-0.429159	-3.999999	-0.041084	-0.138177	-0.780702	0.032984	0.010153	0.032233
573	2.890609	0.005000	8.784904	-0.392400	-3.924000	-0.041198	-0.138518	-0.780321	0.028203	0.015321	0.040066
574	2.895609	0.005000	8.679740	-0.392400	-3.884760	-0.041311	-0.138860	-0.779940	0.017272	0.011983	0.028043
575	2.900609	0.005000	8.789760	-0.442184	-3.963240	-0.041425	-0.139201	-0.779559	0.024656	0.007065	0.032873
576	2.905609	0.005000	8.685428	-0.444105	-3.858908	-0.041539	-0.139543	-0.779178	0.010937	0.013482	0.028362
577	2.910609	0.005000	8.750520	-0.454648	-3.917223	-0.041653	-0.139884	-0.778796	0.016302	0.013865	0.034737
578	2.915609	0.005000	8.908569	-0.431640	-3.844431	-0.041766	-0.140225	-0.778415	0.007139	0.010946	0.037913
579	2.920609	0.005000	8.816278	-0.448961	-3.762441	-0.041434	-0.140031	-0.778831	-0.024082	0.009480	0.035337
580	2.925609	0.005000	8.775114	-0.470880	-3.830874	-0.040979	-0.139690	-0.779466	-0.008816	0.000982	0.051997
581	2.930609	0.005000	8.735453	-0.482967	-3.794193	-0.040524	-0.139349	-0.780101	-0.014903	0.006598	0.043691
582	2.935609	0.005000	8.789760	-0.489365	-3.924000	-0.040069	-0.139008	-0.780736	-0.017437	0.003343	0.050692
583	2.940609	0.005000	8.776962	-0.549360	-3.930399	-0.039614	-0.138666	-0.781372	-0.001231	0.007619	0.054059
584	2.945609	0.005000	8.786205	-0.577935	-3.934665	-0.039159	-0.138325	-0.782007	0.004055	0.010989	0.054822
585	2.950609	0.005000	8.828289	-0.431640	-4.044564	-0.038705	-0.137984	-0.782642	-0.007237	-0.002758	0.059047
586	2.955609	0.005000	8.678439	-0.357426	-4.050252	-0.038250	-0.137643	-0.783277	-0.012956	-0.006740	0.061658
587	2.960609	0.005000	8.697593	-0.387838	-4.046282	-0.037795	-0.137301	-0.783912	-0.000991	-0.005098	0.055474
588	2.965609	0.005000	8.767705	-0.392400	-4.073608	-0.037340	-0.136960	-0.784547	0.007357	0.009226	0.052654
589	2.970609	0.005000	8.740324	-0.431640	-3.954587	-0.036885	-0.136619	-0.785182	0.021132	0.013780	0.046269
590	2.975609	0.005000	8.763681	-0.366200	-3.963240	-0.036430	-0.136278	-0.785817	0.025042	0.013621	0.051861
591	2.980609	0.005000	8.750520	-0.408284	-4.049193	-0.035975	-0.135936	-0.786452	0.044691	0.010549	0.044801
592	2.985609	0.005000	8.789760	-0.392400	-4.002480	-0.036273	-0.136047	-0.786667	0.067410	0.005966	0.047109
593	2.990609	0.005000	8.789760	-0.431640	-3.942138	-0.036956	-0.136388	-0.786667	0.055522	0.015011	0.038306
594	2.995609	0.005000	8.750520	-0.431640	-3.939294	-0.037638	-0.136730	-0.786667	0.061852	0.011301	0.031554
595	3.000609	0.005000	8.686089	-0.431640	-3.884760	-0.038321	-0.137071	-0.786667	0.066844	0.018983	0.024342
596	3.005609	0.005000	8.672040	-0.460820	-3.874700	-0.039004	-0.137413	-0.786667	0.060205	0.018427	0.037161
597	3.010609	0.005000	8.743304	-0.478096	-3.934377	-0.039686	-0.137754	-0.786667	0.057995	0.013009	0.030181
598	3.015609	0.005000	8.746148	-0.497005	-3.849892	-0.040369	-0.138095	-0.786667	0.051221	0.013183	0.024966
599	3.020609	0.005000	8.672040	-0.393928	-3.960184	-0.041052	-0.138437	-0.786667	0.050704	0.006387	0.023880
600	3.025609	0.005000	8.709964	-0.431640	-3.846836	-0.041735	-0.138778	-0.786667	0.043234	0.012432	0.023213
601	3.030609	0.005000	8.664658	-0.467189	-3.920309	-0.042417	-0.139120	-0.786667	0.051641	0.012546	0.018467
602	3.035609	0.005000	8.600095	-0.359695	-3.871660	-0.043100	-0.139461	-0.786667	0.051886	0.011994	0.023558
603	3.040609	0.005000	8.660937	-0.373642	-3.884760	-0.043783	-0.139802	-0.786667	0.051257	0.025601	0.011961
604	3.045609	0.005000	8.632800	-0.431640	-3.869966	-0.044466	-0.140144	-0.786667	0.056465	0.016302	0.015808
605	3.050609	0.005000	8.641907	-0.422533	-3.948173	-0.044404	-0.140113	-0.786598	0.066875	0.022848	0.015584
606	3.055609	0.005000	8.711280	-0.449301	-3.906339	-0.043721	-0.139772	-0.786471	0.061872	0.017769	0.013090
607	3.060609	0.005000	8.827639	-0.433001	-3.964601	-0.043039	-0.139430	-0.786344	0.058144	0.015241	0.010316
608	3.065609	0.005000	8.812905	-0.415545	-3.916951	-0.042357	-0.139089	-0.786217	0.050383	0.004771	0.017954
609	3.070609	0.005000	8.855503	-0.431640	-3.780291	-0.041674	-0.138748	-0.786090	0.059168	0.002861	0.030868
610	3.075609	0.005000	8.818592	-0.402808	-3.835112	-0.040992	-0.138407	-0.785963	0.060982	0.001557	0.023097
611	3.080609	0.005000	8.718844	-0.368287	-3.860647	-0.040309	-0.138065	-0.785836	0.064235	-0.004903	0.019702
612	3.085609	0.005000	8.711280	-0.397589	-3.981725	-0.039627	-0.137724	-0.785708	0.055367	0.004276	0.013751
613	3.090609	0.005000	8.630455	-0.394745	-3.958551	-0.038945	-0.137383	-0.785581	0.078787	0.007277	0.009043
614	3.095609	0.005000	8.671042	-0.392899	-3.884760	-0.038262	-0.137042	-0.785454	0.080714	0.019466	0.019800
615	3.100609	0.005000	8.786417	-0.428297	-3.888103	-0.037580	-0.136700	-0.785327	0.083055	0.023600	0.021508
616	3.105609	0.005000	8.783960	-0.364761	-3.896361	-0.036897	-0.136359	-0.785200	0.094674	0.024717	0.013698
617	3.110609	0.005000	8.811846	-0.400977	-3.836943	-0.036215	-0.136018	-0.785073	0.105630	0.024275	0.010824
618	3.115609	0.005000	8.812602	-0.498699	-3.912579	-0.035965	-0.136013	-0.785000	0.073832	0.019565	0.017385
619	3.120609	0.005000	8.661330	-0.431640	-3.738510	-0.036307	-0.136468	-0.785000	0.082238	0.020769	0.019098
620	3.125609	0.005000	8.834558	-0.510120	-3.946399	-0.036648	-0.136923	-0.785000	0.093444	0.019424	0.024479
621	3.130609	0.005000	8.848756	-0.490636	-3.806280	-0.036989	-0.137378	-0.785000	0.067269	0.010310	0.023897
622	3.135609	0.005000	8.829000	-0.426224	-3.789368	-0.037330	-0.137833	-0.785000	0.052006	0.011436	0.023064
623	3.140609	0.005000	8.814932	-0.510120	-3.781108	-0.037671	-0.138288	-0.785000	0.055842	0.001602	0.032247
624	3.145609	0.005000	8.840360	-0.482240	-3.778400	-0.038013	-0.138743	-0.785000	0.051936	0.007140	0.035709
625	3.150609	0.005000	8.772061	-0.422791	-3.941699	-0.038354	-0.139198	-0.785000	0.070829	-0.005426	0.037370
626	3.155609	0.005000	8.750520	-0.392400	-4.114194	-0.038695	-0.139653	-0.785000	0.067762	-0.006213	0.040597
627	3.160609	0.005000	8.741035	-0.349998	-4.035397	-0.039036	-0.140108	-0.785000	0.071060	-0.013579	0.031379
628	3.165609	0.005000	8.515851	-0.314691	-3.925543	-0.039378	-0.140563	-0.785000	0.088912	-0.013935	0.035382
629	3.170609	0.005000	8.591488	-0.353160	-4.002480	-0.039719	-0.141018	-0.785000	0.102931	0.000641	0.027783
630	3.175609	0.005000	8.564153	-0.382567	-4.007396	-0.040060	-0.141473	-0.785000	0.122112	0.004323	0.023482
631	3.180609	0.005000	8.687999	-0.423880	-3.939521	-0.040197	-0.141552	-0.784924	0.142499	0.009049	0.016641
632	3.185609	0.005000	8.700676	-0.431640	-3.870979	-0.039855	-0.140755	-0.784670	0.135830	0.017265	0.008087
633	3.190609	0.005000	8.685019	-0.445224	-3.963240	-0.039514	-0.139959	-0.784415	0.158433	0.009456	0.010815
634	3.195609	0.005000	8.695457	-0.494297	-3.994886	-0.039172	-0.139162	-0.784161	0.141302	0.014391	0.003705
635	3.200609	0.005000	8.612227	-0.448401	-3.944573	-0.038831	-0.138366	-0.783907	0.152636	0.010342	0.008997
636	3.205609	0.005000	8.629018	-0.410129	-3.884760	-0.038489	-0.137569	-0.783653	0.157990	0.026236	-0.006676
637	3.210609	0.005000	8.741050	-0.480350	-4.002480	-0.038148	-0.136773	-0.783399	0.162998	0.029405	-0.006080
638	3.215609	0.005000	8.668924	-0.416483	-3.978397	-0.037807	-0.135976	-0.783145	0.167803	0.033830	-0.001732
639	3.220609	0.005000	8.809698	-0.470880	-3.825582	-0.037465	-0.135179	-0.782891	0.176822	0.046880	-0.016544
640	3.225609	0.005000	8.782953	-0.503313	-3.891567	-0.037124	-0.134383	-0.782637	0.198960	0.039476	-0.015227
641	3.230609	0.005000	8.754483	-0.490697	-3.880797	-0.036782	-0.133586	-0.782383	0.188904	0.048896	-0.001369
642	3.235609	0.005000	8.712399	-0.589719	-3.884760	-0.036441	-0.132790	-0.782129	0.196141	0.051313	-0.012430
643	3.240609	0.005000	8.713005	-0.590325	-4.034822	-0.036100	-0.131993	-0.781874	0.198240	0.056651	-0.004609
644	3.245609	0.005000	8.741383	-0.593168	-3.898465	-0.035842	-0.131322	-0.781807	0.210991	0.058703	-0.004566
645	3.250609	0.005000	8.782348	-0.620428	-3.869935	-0.035956	-0.131208	-0.782569	0.204370	0.066316	-0.007436
646	3.255609	0.005000	8.809189	-0.715843	-3.894283	-0.036069	-0.131095	-0.783331	0.198219	0.080428	-0.000512
647	3.260609	0.005000	8.829000	-0.784800	-3.975871	-0.036183	-0.130981	-0.784093	0.183459	0.083165	0.008423
648	3.265609	0.005000	8.813525	-0.808565	-3.821755	-0.036297	-0.130867	-0.784855	0.172996	0.083885	0.012783
649	3.270609	0.005000	8.904878	-0.724639	-3.981559	-0.036410	-0.130754	-0.785617	0.173981	0.077799	0.029858
650	3.275609	0.005000	8.883231	-0.802877	-3.884760	-0.036524	-0.130640	-0.786379	0.162263	0.066468	0.033208
651	3.280609	0.005000	9.001193	-0.893746	-4.002480	-0.036638	-0.130526	-0.787141	0.147683	0.082219	0.020067
652	3.285609	0.005000	8.985960	-0.955932	-3.859692	-0.036751	-0.130413	-0.787903	0.151621	0.067816	0.039623
653	3.290609	0.005000	8.926722	-0.863280	-3.767040	-0.036865	-0.130299	-0.788665	0.113701	0.072113	0.039991
654	3.295609	0.005000	8.836170	-0.824040	-3.745529	-0.036979	-0.130185	-0.789428	0.112998	0.059312	0.056519
655	3.300609	0.005000	8.785434	-0.863280	-3.767040	-0.037093	-0.130071	-0.790190	0.089911	0.051417	0.050407
656	3.305609	0.005000	8.866758	-0.824040	-3.691525	-0.037206	-0.129958	-0.790952	0.080511	0.040124	0.060056
657	3.310609	0.005000	8.943965	-0.785718	-3.767040	-0.037313	-0.129879	-0.791636	0.071018	0.041309	0.065200
658	3.315609	0.005000	8.793512	-0.777297	-3.802528	-0.037313	-0.130334	-0.791128	0.065803	0.038110	0.067110
659	3.320609	0.005000	8.757115	-0.673675	-3.832329	-0.037313	-0.130789	-0.790619	0.070447	0.040460	0.059744
660	3.325609	0.005000	8.808639	-0.696881	-3.716878	-0.037313	-0.131244	-0.790111	0.051345	0.042983	0.052473
661	3.330609	0.005000	8.787370	-0.718603	-3.845520	-0.037313	-0.131699	-0.789603	0.071060	0.039314	0.056178
662	3.335609	0.005000	8.711280	-0.760218	-3.771775	-0.037313	-0.132155	-0.789094	0.043296	0.039935	0.072311
663	3.340609	0.005000	8.754756	-0.667080	-3.727800	-0.037313	-0.132610	-0.788586	0.016203	0.032608	0.059447
664	3.345609	0.005000	8.770866	-0.531918	-3.688560	-0.037313	-0.133065	-0.788078	0.017553	0.022721	0.072425
665	3.350609	0.005000	8.680950	-0.588600	-3.665370	-0.037313	-0.133520	-0.787570	0.011696	0.029850	0.060182
666	3.355609	0.005000	8.620880	-0.641500	-3.819940	-0.037313	-0.133975	-0.787061	0.028083	0.012405	0.068587
667	3.360609	0.005000	8.661224	-0.649472	-3.738616	-0.037313	-0.134430	-0.786553	0.032417	0.027407	0.064160
668	3.365609	0.005000	8.632800	-0.611896	-3.908056	-0.037313	-0.134886	-0.786045	0.017208	0.021515	0.056945
669	3.370609	0.005000	8.672040	-0.564744	-3.772168	-0.037313	-0.135341	-0.785536	0.020624	0.023916	0.056266
670	3.375609	0.005000	8.632800	-0.662456	-3.852456	-0.037313	-0.135796	-0.785028	0.044966	0.026727	0.036702
671	3.380609	0.005000	8.593651	-0.627749	-3.924091	-0.037850	-0.136251	-0.784760	0.051142	0.022860	0.030533
672	3.385609	0.005000	8.672040	-0.588600	-3.812149	-0.038419	-0.136706	-0.784506	0.033875	0.036002	0.029357
673	3.390609	0.005000	8.789760	-0.577043	-3.884760	-0.038988	-0.137161	-0.784252	0.040517	0.042160	0.023624
674	3.395609	0.005000	8.711280	-0.565889	-3.907471	-0.039556	-0.137616	-0.783998	0.033991	0.034755	0.022006
675	3.400609	0.005000	8.626598	-0.492905	-3.749825	-0.040125	-0.138071	-0.783744	0.031178	0.050750	0.012025
676	3.405609	0.005000	8.734334	-0.547030	-3.727800	-0.040694	-0.138526	-0.783490	0.032524	0.043857	0.026330
677	3.410609	0.005000	8.705441	-0.510120	-3.750340	-0.041263	-0.138980	-0.783236	0.046869	0.048148	0.016144
678	3.415609	0.005000	8.769198	-0.667708	-3.963868	-0.041831	-0.139435	-0.782982	0.066193	0.035400	0.015502
679	3.420609	0.005000	8.767841	-0.684401	-3.945919	-0.042400	-0.139890	-0.782728	0.039486	0.034143	0.010515
680	3.425609	0.005000	8.754710	-0.598887	-3.909523	-0.042969	-0.140345	-0.782474	0.015801	0.041583	0.005065
681	3.430609	0.005000	8.840633	-0.576967	-3.924000	-0.043537	-0.140800	-0.782220	0.014778	0.048867	0.004011
682	3.435609	0.005000	8.808245	-0.540117	-3.748555	-0.044106	-0.141255	-0.781966	0.020373	0.051193	0.002634
683	3.440609	0.005000	8.855442	-0.634239	-3.616479	-0.044675	-0.141710	-0.781712	0.030552	0.031949	0.011379
684	3.445609	0.005000	8.800425	-0.617175	-3.838410	-0.046273	-0.142914	-0.780936	0.016847	0.026281	0.008236
685	3.450609	0.005000	8.906769	-0.470880	-3.962529	-0.048094	-0.144279	-0.780046	0.015098	0.026461	0.008077
686	3.455609	0.005000	8.830684	-0.545992	-3.961556	-0.049914	-0.145645	-0.779157	0.004795	0.031705	0.003420
687	3.460609	0.005000	8.741504	-0.440656	-3.924000	-0.051735	-0.147010	-0.778267	0.021979	0.032378	-0.005801
688	3.465609	0.005000	8.829000	-0.463528	-3.995128	-0.053556	-0.148376	-0.777378	0.025159	0.030046	-0.005833
689	3.470609	0.005000	8.692431	-0.412791	-4.002480	-0.055376	-0.149741	-0.776488	0.031857	0.040718	-0.020520
690	3.475609	0.005000	8.711401	-0.510120	-3.858439	-0.057197	-0.151106	-0.775599	0.056082	0.036061	-0.013823
691	3.480609	0.005000	8.805644	-0.440051	-3.924000	-0.059018	-0.152472	-0.774709	0.048763	0.040325	-0.016148
692	3.485609	0.005000	8.690767	-0.392400	-3.845520	-0.060839	-0.153837	-0.773820	0.043648	0.044052	-0.018918
693	3.490609	0.005000	8.768658	-0.313920	-3.806280	-0.062659	-0.155203	-0.772930	0.051121	0.040199	-0.017903
694	3.495609	0.005000	8.632800	-0.407694	-3.908706	-0.064480	-0.156568	-0.772041	0.056293	0.048406	-0.030816
695	3.500609	0.005000	8.750520	-0.404850	-3.781381	-0.066301	-0.157934	-0.771151	0.078825	0.049822	-0.027752
696	3.505609	0.005000	8.711280	-0.461274	-3.698166	-0.068121	-0.159299	-0.770262	0.073880	0.059880	-0.035495
697	3.510609	0.005000	8.750520	-0.470880	-3.773802	-0.067613	-0.159059	-0.769821	0.084936	0.063118	-0.039669
698	3.515609	0.005000	8.746148	-0.510120	-3.762668	-0.066135	-0.158149	-0.769567	0.090085	0.063887	-0.034445
699	3.520609	0.005000	8.748992	-0.390872	-3.650848	-0.064656	-0.157239	-0.769313	0.115811	0.072379	-0.042368
700	3.525609	0.005000	8.673356	-0.429008	-3.764408	-0.063178	-0.156329	-0.769059	0.115762	0.065374	-0.028099
701	3.530609	0.005000	8.711280	-0.388240	-3.727800	-0.061699	-0.155419	-0.768805	0.120685	0.076923	-0.034389
702	3.535609	0.005000	8.775752	-0.392400	-3.753032	-0.060220	-0.154509	-0.768551	0.154912	0.076300	-0.038047
703	3.540609	0.005000	8.848544	-0.500272	-3.786736	-0.058742	-0.153600	-0.768297	0.157003	0.081189	-0.025826
704	3.545609	0.005000	8.697423	-0.522812	-3.713943	-0.057263	-0.152690	-0.768043	0.154469	0.081349	-0.037147
705	3.550609	0.005000	8.696213	-0.470880	-3.561733	-0.055785	-0.151780	-0.767789	0.167872	0.078462	-0.030299
706	3.555609	0.005000	8.892988	-0.531449	-3.616918	-0.054306	-0.150870	-0.767535	0.145258	0.085349	-0.028861
707	3.560609	0.005000	8.831269	-0.528605	-3.628565	-0.052827	-0.149960	-0.767281	0.170022	0.074962	-0.026755
708	3.565609	0.005000	8.766162	-0.510120	-3.617765	-0.051349	-0.149050	-0.767027	0.169223	0.099127	-0.026309
709	3.570609	0.005000	8.802558	-0.535715	-3.689407	-0.049870	-0.148140	-0.766773	0.169977	0.097744	-0.033196
710	3.575609	0.005000	8.888380	-0.520190	-3.580910	-0.049188	-0.147098	-0.767852	0.180332	0.084397	-0.018252
711	3.580609	0.005000	8.931593	-0.573473	-3.585967	-0.049074	-0.145960	-0.769884	0.173893	0.083043	-0.028779
712	3.585609	0.005000	8.877679	-0.549360	-3.619519	-0.048960	-0.144823	-0.771916	0.160791	0.071970	-0.017078
713	3.590609	0.005000	8.834627	-0.545608	-3.690436	-0.048846	-0.143686	-0.773948	0.159531	0.072102	-0.017683
714	3.595609	0.005000	8.870176	-0.547424	-3.651256	-0.048733	-0.142548	-0.775980	0.161740	0.089801	-0.024206
715	3.600609	0.005000	9.015171	-0.552703	-3.652663	-0.048619	-0.141411	-0.778012	0.165232	0.096537	-0.028249
716	3.605609	0.005000	9.012826	-0.615466	-3.610080	-0.048505	-0.140274	-0.780045	0.150914	0.092821	-0.033139
717	3.610609	0.005000	9.085618	-0.766738	-3.459035	-0.048391	-0.139136	-0.782077	0.148081	0.083509	-0.027783
718	3.615609	0.005000	8.997515	-0.745560	-3.614656	-0.048277	-0.137999	-0.784109	0.135939	0.079916	-0.023822
719	3.620609	0.005000	8.975250	-0.820485	-3.649320	-0.048164	-0.136862	-0.786141	0.135868	0.060112	-0.007603
720	3.625609	0.005000	9.069462	-0.784800	-3.592971	-0.048050	-0.135724	-0.788173	0.126537	0.062703	-0.004836
721	3.630609	0.005000	8.965387	-0.726258	-3.590778	-0.047936	-0.134587	-0.790205	0.120083	0.059635	-0.005951
722	3.635609	0.005000	9.080898	-0.722778	-3.560705	-0.047822	-0.133449	-0.792237	0.102529	0.063883	-0.008991
723	3.640609	0.005000	9.011132	-0.692252	-3.584908	-0.047656	-0.132784	-0.793684	0.066960	0.059934	-0.003942
724	3.645609	0.005000	9.086889	-0.627840	-3.570840	-0.047429	-0.132670	-0.794446	0.087270	0.049103	-0.004581
725	3.650609	0.005000	9.095300	-0.723081	-3.618460	-0.047201	-0.132556	-0.795208	0.080035	0.053716	0.002562
726	3.655609	0.005000	9.087070	-0.667080	-3.711190	-0.046974	-0.132442	-0.795970	0.090541	0.042795	0.001860
727	3.660609	0.005000	8.949413	-0.675158	-3.536985	-0.046746	-0.132328	-0.796732	0.087422	0.038527	0.006788
728	3.665609	0.005000	9.025049	-0.706623	-3.649169	-0.046519	-0.132215	-0.797494	0.072524	0.024489	0.010809
729	3.670609	0.005000	8.915059	-0.588600	-3.539179	-0.046291	-0.132101	-0.798256	0.063217	0.013889	0.014782
730	3.675609	0.005000	8.946720	-0.700950	-3.604710	-0.046064	-0.131987	-0.799018	0.059271	0.010925	0.005310
731	3.680609	0.005000	8.884668	-0.574002	-3.789852	-0.045836	-0.131873	-0.799780	0.059538	0.013744	0.011757
732	3.685609	0.005000	8.868240	-0.662088	-3.755982	-0.045609	-0.131760	-0.800543	0.045155	0.014087	0.006279
733	3.690609	0.005000	8.854792	-0.576256	-3.648216	-0.045381	-0.131646	-0.801305	0.053482	0.011190	-0.001686
734	3.695609	0.005000	8.907480	-0.487172	-3.711508	-0.045154	-0.131532	-0.802067	0.058488	0.012258	0.001644
735	3.700609	0.005000	8.807928	-0.550328	-3.728768	-0.044927	-0.131418	-0.802829	0.055270	0.011041	-0.006747
736	3.705609	0.005000	8.924740	-0.505400	-3.632060	-0.045391	-0.131997	-0.802302	0.052396	-0.003399	0.014008
737	3.710609	0.005000	8.907480	-0.549360	-3.688560	-0.047211	-0.133930	-0.799254	0.044395	0.012393	0.001413
738	3.715609	0.005000	8.935148	-0.560932	-3.626175	-0.049031	-0.135864	-0.796206	0.054433	-0.007283	-0.000279
739	3.720609	0.005000	8.958368	-0.540163	-3.580037	-0.050851	-0.137798	-0.793158	0.051614	0.001216	0.000301
740	3.725609	0.005000	8.848060	-0.503767	-3.544307	-0.052671	-0.139731	-0.790109	0.064968	-0.005134	0.002615
741	3.730609	0.005000	8.878769	-0.513630	-3.613590	-0.054491	-0.141665	-0.787061	0.049006	0.000164	-0.002298
742	3.735609	0.005000	8.907480	-0.587269	-3.609414	-0.056310	-0.143598	-0.784013	0.054110	-0.006071	-0.005318
743	3.740609	0.005000	8.870418	-0.473058	-3.644963	-0.058130	-0.145532	-0.780965	0.059943	-0.008865	-0.004937
744	3.745609	0.005000	8.799004	-0.466258	-3.732422	-0.059950	-0.147465	-0.777917	0.049490	-0.006247	-0.003788
745	3.750609	0.005000	8.836412	-0.517532	-3.632317	-0.061770	-0.149399	-0.774869	0.050116	-0.005495	-0.009488
746	3.755609	0.005000	8.878496	-0.470880	-3.688560	-0.063590	-0.151332	-0.771820	0.046853	-0.003360	-0.001425
747	3.760609	0.005000	8.842100	-0.653980	-3.649320	-0.065410	-0.153266	-0.768772	0.046063	-0.003798	-0.004066
748	3.765609	0.005000	8.898888	-0.581248	-3.579432	-0.067230	-0.155199	-0.765724	0.052969	-0.001962	-0.004870
749	3.770609	0.005000	8.869904	-0.489668	-3.591292	-0.068215	-0.156348	-0.763826	0.036845	0.003889	-0.008508
750	3.775609	0.005000	8.925557	-0.470880	-3.667397	-0.066167	-0.154641	-0.766113	0.040158	-0.006248	-0.007719
751	3.780609	0.005000	8.901021	-0.549360	-3.664553	-0.064119	-0.152934	-0.768400	0.047673	-0.011753	-0.014578
752	3.785609	0.005000	8.831072	-0.561749	-3.700949	-0.062071	-0.151227	-0.770688	0.039119	-0.023292	-0.004493
753	3.790609	0.005000	8.760065	-0.530269	-3.580385	-0.060022	-0.149521	-0.772975	0.032159	-0.016308	0.002843
754	3.795609	0.005000	8.940019	-0.581899	-3.616781	-0.057974	-0.147814	-0.775262	0.021267	-0.014844	0.001222
755	3.800609	0.005000	8.872097	-0.580885	-3.645463	-0.055926	-0.146107	-0.777549	0.029656	-0.017345	0.004490
756	3.805609	0.005000	8.718692	-0.510120	-3.646355	-0.053878	-0.144400	-0.779836	0.024749	-0.007857	0.000179
757	3.810609	0.005000	8.945359	-0.547999	-3.608719	-0.051829	-0.142693	-0.782124	0.032428	-0.009156	0.000650
758	3.815609	0.005000	8.868240	-0.549360	-3.614285	-0.049781	-0.140986	-0.784411	0.014806	-0.014111	0.007208
759	3.820609	0.005000	8.789760	-0.549360	-3.713701	-0.047733	-0.139280	-0.786698	0.016997	-0.012114	0.009987
760	3.825609	0.005000	8.907480	-0.510120	-3.757147	-0.045685	-0.137573	-0.788985	0.020309	-0.017865	0.007936
761	3.830609	0.005000	8.880667	-0.458453	-3.702946	-0.043636	-0.135866	-0.791272	0.026010	-0.019933	0.012250
762	3.835609	0.005000	8.946720	-0.486007	-3.727800	-0.041768	-0.134328	-0.793346	0.034546	-0.025949	0.016058
763	3.840609	0.005000	8.861645	-0.470880	-3.749069	-0.041541	-0.134328	-0.793473	0.027266	-0.017017	0.012044
764	3.845609	0.005000	8.886665	-0.514900	-3.748615	-0.041314	-0.134328	-0.793600	0.050805	-0.016108	0.010594
765	3.850609	0.005000	8.867665	-0.392400	-3.813783	-0.041086	-0.134328	-0.793727	0.035680	-0.017640	0.027484
766	3.855609	0.005000	8.920308	-0.484086	-3.858726	-0.040859	-0.134328	-0.793854	0.040615	-0.020413	0.011737
767	3.860609	0.005000	8.779398	-0.442002	-3.795918	-0.040631	-0.134328	-0.793981	0.051800	-0.020355	0.013270
768	3.865609	0.005000	8.789760	-0.392400	-3.664356	-0.040404	-0.134328	-0.794108	0.038282	-0.017853	0.016165
769	3.870609	0.005000	8.863566	-0.397074	-3.649320	-0.040176	-0.134328	-0.794235	0.054874	-0.026751	0.025532
770	3.875609	0.005000	8.864579	-0.470880	-3.645659	-0.039949	-0.134328	-0.794362	0.051297	-0.020859	0.016844
771	3.880609	0.005000	8.867107	-0.432206	-3.648187	-0.039721	-0.134328	-0.794489	0.064914	-0.022653	0.027789
772	3.885609	0.005000	8.757327	-0.510120	-3.727800	-0.039494	-0.134328	-0.794616	0.063717	-0.025488	0.024498
773	3.890609	0.005000	8.763015	-0.510120	-3.694808	-0.039266	-0.134328	-0.794743	0.060058	-0.029088	0.022450
774	3.895609	0.005000	8.759611	-0.371343	-3.767040	-0.039039	-0.134328	-0.794870	0.054120	-0.016274	0.025029
775	3.900609	0.005000	8.856305	-0.603969	-3.743169	-0.038811	-0.134328	-0.794997	0.053878	-0.017633	0.027400
776	3.905609	0.005000	8.740247	-0.549360	-3.663803	-0.039028	-0.134106	-0.795372	0.068963	-0.016084	0.013292
777	3.910609	0.005000	8.689194	-0.532206	-3.676337	-0.039256	-0.133878	-0.795753	0.068394	-0.011263	0.019872
778	3.915609	0.005000	8.749764	-0.530875	-3.688560	-0.039483	-0.133651	-0.796134	0.072270	-0.010388	0.015169
779	3.920609	0.005000	8.806158	-0.500166	-3.727800	-0.039711	-0.133423	-0.796515	0.076052	-0.006032	0.026878
780	3.925609	0.005000	8.881794	-0.510120	-3.702114	-0.039938	-0.133196	-0.796896	0.053897	-0.007495	0.011813
781	3.930609	0.005000	8.807580	-0.538650	-3.699270	-0.040165	-0.132969	-0.797277	0.066491	-0.015350	0.025924
782	3.935609	0.005000	8.845640	-0.549360	-3.665960	-0.040393	-0.132741	-0.797658	0.055287	-0.012521	0.020462
783	3.940609	0.005000	8.795236	-0.549360	-3.761564	-0.040620	-0.132514	-0.798039	0.076115	-0.006935	0.012838
784	3.945609	0.005000	8.831632	-0.546728	-3.691192	-0.040848	-0.132286	-0.798420	0.085150	-0.008753	0.018331
785	3.950609	0.005000	8.829212	-0.510120	-3.688772	-0.041075	-0.132059	-0.798801	0.080696	-0.001820	0.003886
786	3.955609	0.005000	8.865184	-0.591656	-3.691616	-0.041303	-0.131831	-0.799182	0.083814	-0.001939	0.014286
787	3.960609	0.005000	8.762319	-0.555260	-3.721900	-0.041530	-0.131604	-0.799563	0.079157	-0.000367	0.012716
788	3.965609	0.005000	8.859865	-0.518495	-3.702676	-0.041758	-0.131376	-0.799944	0.089614	-0.002761	0.007074
789	3.970609	0.005000	8.907480	-0.655961	-3.767040	-0.041791	-0.131343	-0.800109	0.084215	0.008231	0.006931
790	3.975609	0.005000	8.918795	-0.588600	-3.884760	-0.041791	-0.131343	-0.800236	0.093953	0.003529	0.002043
791	3.980609	0.005000	8.800939	-0.571794	-3.744606	-0.041791	-0.131343	-0.800363	0.099813	-0.000743	0.000578
792	3.985609	0.005000	8.691690	-0.608190	-3.747329	-0.041791	-0.131343	-0.800490	0.087280	0.009848	-0.005481
793	3.990609	0.005000	8.744772	-0.627840	-3.632574	-0.041791	-0.131343	-0.800617	0.084030	0.006529	0.001614
794	3.995609	0.005000	8.814930	-0.745560	-3.795180	-0.041791	-0.131343	-0.800744	0.078663	0.010598	0.000436
795	4.000609	0.005000	8.711280	-0.644026	-3.771699	-0.041791	-0.131343	-0.800871	0.085411	0.006885	-0.006725
796	4.005609	0.005000	8.785252	-0.645206	-3.736483	-0.041791	-0.131343	-0.800998	0.093014	-0.005966	-0.004783
797	4.010609	0.005000	8.901641	-0.661241	-3.800441	-0.041791	-0.131343	-0.801125	0.065277	0.000653	-0.010471
798	4.015609	0.005000	8.823010	-0.742565	-3.613075	-0.041791	-0.131343	-0.801252	0.084149	-0.003893	0.002472
799	4.020609	0.005000	8.711431	-0.627991	-3.649169	-0.041791	-0.131343	-0.801379	0.070976	0.004425	0.005481
800	4.025609	0.005000	8.861445	-0.704055	-3.684030	-0.041791	-0.131343	-0.801507	0.080527	-0.000814	-0.007718
801	4.030609	0.005000	8.863157	-0.667080	-3.791032	-0.041791	-0.131343	-0.801634	0.069565	-0.002228	-0.012162
802	4.035609	0.005000	8.836927	-0.706320	-3.790820	-0.042043	-0.131343	-0.801480	0.040245	0.007976	-0.005872
803	4.040609	0.005000	8.750520	-0.695549	-3.749341	-0.042384	-0.131343	-0.801225	0.062439	-0.010591	-0.002780
804	4.045609	0.005000	8.856229	-0.745560	-3.753426	-0.042726	-0.131343	-0.800971	0.071324	-0.007291	-0.000704
805	4.050609	0.005000	8.923663	-0.690137	-3.884760	-0.043067	-0.131343	-0.800717	0.069548	-0.008439	-0.000916
806	4.055609	0.005000	8.868240	-0.747133	-3.748207	-0.043408	-0.131343	-0.800463	0.063382	-0.003550	-0.001436
807	4.060609	0.005000	8.889917	-0.631955	-3.741248	-0.043750	-0.131343	-0.800209	0.065757	-0.000170	-0.006031
808	4.065609	0.005000	8.804479	-0.588600	-3.742519	-0.044091	-0.131343	-0.799954	0.069932	-0.002973	0.010367
809	4.070609	0.005000	8.766010	-0.498245	-3.794405	-0.044433	-0.131343	-0.799700	0.058512	-0.003323	0.004543
810	4.075609	0.005000	8.808033	-0.558497	-3.769734	-0.044774	-0.131343	-0.799446	0.074407	-0.002381	-0.002199
811	4.080609	0.005000	8.711280	-0.549360	-3.701842	-0.045115	-0.131343	-0.799192	0.067352	0.000042	-0.004654
812	4.085609	0.005000	8.856849	-0.474677	-3.830332	-0.045457	-0.131343	-0.798938	0.072737	-0.011264	-0.004146
813	4.090609	0.005000	8.867287	-0.472786	-3.726847	-0.045798	-0.131343	-0.798684	0.069581	-0.002993	0.000803
814	4.095609	0.005000	8.829000	-0.437313	-3.763258	-0.046140	-0.131343	-0.798429	0.061947	0.009223	-0.007085
815	4.100609	0.005000	8.829000	-0.571536	-3.688560	-0.045986	-0.131202	-0.798175	0.079730	-0.001677	-0.001648
816	4.105609	0.005000	8.782650	-0.620730	-3.792060	-0.045531	-0.130974	-0.797921	0.066785	-0.001327	-0.004954
817	4.110609	0.005000	8.877619	-0.598554	-3.649320	-0.045076	-0.130747	-0.797667	0.060127	-0.009755	-0.007636
818	4.115609	0.005000	8.959518	-0.680725	-3.793482	-0.044621	-0.130519	-0.797413	0.055377	0.000291	0.009542
819	4.120609	0.005000	8.962085	-0.682445	-3.727800	-0.044166	-0.130291	-0.797159	0.051810	0.000508	0.010334
820	4.125609	0.005000	8.807792	-0.670257	-3.624935	-0.043711	-0.130064	-0.796905	0.049101	-0.007961	0.011995
821	4.130609	0.005000	8.787249	-0.664569	-3.607569	-0.043255	-0.129836	-0.796651	0.050767	-0.011012	0.004058
822	4.135609	0.005000	8.805281	-0.784800	-3.735122	-0.042800	-0.129609	-0.796396	0.028678	-0.015344	0.006786
823	4.140609	0.005000	8.880917	-0.693643	-3.740477	-0.042345	-0.129381	-0.796142	0.023407	-0.015666	0.010757
824	4.145609	0.005000	8.907480	-0.667080	-3.777003	-0.041890	-0.129153	-0.795888	0.036490	-0.015138	0.008676
825	4.150609	0.005000	8.860782	-0.713778	-3.806280	-0.041435	-0.128926	-0.795634	0.012334	-0.016966	0.020701
826	4.155609	0.005000	8.789760	-0.637068	-3.737028	-0.040980	-0.128698	-0.795380	0.003267	-0.022227	0.010667
827	4.160609	0.005000	8.866470	-0.663540	-3.806280	-0.040524	-0.128471	-0.795126	0.016017	-0.021553	0.014140
828	4.165609	0.005000	8.829000	-0.588600	-3.806280	-0.040356	-0.128588	-0.795000	0.033608	-0.010243	0.019709
829	4.170609	0.005000	8.943271	-0.620942	-3.767040	-0.040470	-0.129043	-0.795000	0.023213	-0.016629	0.020981
830	4.175609	0.005000	8.796053	-0.601186	-3.740386	-0.040584	-0.129497	-0.795000	0.017825	-0.017028	0.010046
831	4.180609	0.005000	8.729554	-0.618703	-3.764347	-0.040697	-0.129952	-0.795000	0.013709	-0.007424	0.010572
832	4.185609	0.005000	8.794015	-0.545105	-3.794618	-0.040811	-0.130407	-0.795000	0.007025	-0.005116	0.006720
833	4.190609	0.005000	8.893109	-0.534989	-3.727800	-0.040925	-0.130862	-0.795000	0.008899	-0.006890	0.006350
834	4.195609	0.005000	8.924695	-0.610625	-3.749825	-0.041039	-0.131317	-0.795000	0.017418	-0.012322	0.012217
835	4.200609	0.005000	8.848181	-0.549360	-3.827216	-0.041152	-0.131772	-0.795000	0.018609	-0.006225	0.010713
836	4.205609	0.005000	8.783195	-0.565697	-3.704897	-0.041266	-0.132227	-0.795000	0.034102	-0.005782	0.007257
837	4.210609	0.005000	8.764013	-0.602093	-3.754787	-0.041380	-0.132682	-0.795000	0.027426	-0.004226	0.007623
838	4.215609	0.005000	8.840119	-0.549360	-3.710797	-0.041493	-0.133137	-0.795000	0.029128	-0.001277	0.002020
839	4.220609	0.005000	8.829000	-0.611291	-3.744349	-0.041607	-0.133592	-0.795000	0.032265	-0.002443	0.013556
840	4.225609	0.005000	8.766812	-0.599461	-3.795419	-0.041721	-0.134047	-0.795000	0.011815	-0.000523	-0.000490
841	4.230609	0.005000	8.787173	-0.557120	-3.730387	-0.041704	-0.134067	-0.795000	-0.002866	0.003721	0.009919
842	4.235609	0.005000	8.750520	-0.550131	-3.806023	-0.041476	-0.133384	-0.795000	0.012381	0.003073	0.000552
843	4.240609	0.005000	8.781725	-0.546682	-3.696595	-0.041249	-0.132702	-0.795000	0.024127	-0.001078	0.003980
844	4.245609	0.005000	8.716771	-0.594091	-3.722309	-0.041021	-0.132019	-0.795000	0.024534	-0.002029	-0.000305
845	4.250609	0.005000	8.773090	-0.549360	-3.626750	-0.040794	-0.131336	-0.795000	0.014632	0.000049	0.007401
846	4.255609	0.005000	8.800939	-0.560539	-3.710918	-0.040566	-0.130654	-0.795000	0.006454	-0.003519	0.014474
847	4.260609	0.005000	8.725303	-0.613817	-3.817474	-0.040339	-0.129971	-0.795000	0.015626	-0.009443	0.004364
848	4.265609	0.005000	8.660679	-0.526987	-3.750173	-0.040111	-0.129288	-0.795000	0.038359	-0.004905	0.012954
849	4.270609	0.005000	8.730522	-0.490122	-3.806280	-0.039883	-0.128605	-0.795000	0.026658	-0.005859	0.005439
850	4.275609	0.005000	8.767674	-0.397331	-3.767040	-0.039656	-0.127923	-0.795000	0.023709	-0.000896	-0.001948
851	4.280609	0.005000	8.657730	-0.463952	-3.820590	-0.039428	-0.127240	-0.795000	0.040279	-0.006071	0.013463
852	4.285609	0.005000	8.672040	-0.533053	-3.861827	-0.039201	-0.126557	-0.795000	0.046877	0.009090	-0.002274
853	4.290609	0.005000	8.641423	-0.579977	-3.814903	-0.038973	-0.125874	-0.795000	0.045576	0.003243	0.003399
854	4.295609	0.005000	8.723745	-0.510120	-3.866063	-0.038927	-0.125645	-0.795067	0.030667	0.003248	-0.001204
855	4.300609	0.005000	8.704503	-0.481045	-3.835355	-0.039382	-0.126669	-0.795322	0.040296	0.005187	-0.005884
856	4.305609	0.005000	8.749975	-0.470335	-3.688560	-0.039837	-0.127693	-0.795576	0.062822	0.002749	0.001125
857	4.310609	0.005000	8.711280	-0.468595	-3.836380	-0.040292	-0.128717	-0.795830	0.052395	0.007864	-0.004276
858	4.315609	0.005000	8.829000	-0.504992	-3.801152	-0.040748	-0.129742	-0.796084	0.058787	0.001076	-0.007177
859	4.320609	0.005000	8.884661	-0.470880	-3.925209	-0.041203	-0.130766	-0.796338	0.049743	0.008605	-0.009089
860	4.325609	0.005000	8.897118	-0.549360	-3.777402	-0.041658	-0.131790	-0.796592	0.058065	-0.003758	-0.008439
861	4.330609	0.005000	8.907858	-0.562566	-3.780246	-0.042113	-0.132814	-0.796846	0.055735	-0.000207	-0.011447
862	4.335609	0.005000	8.821860	-0.604650	-3.915090	-0.042568	-0.133838	-0.797100	0.058355	0.002722	-0.006998
863	4.340609	0.005000	8.750520	-0.590544	-3.824928	-0.043023	-0.134862	-0.797354	0.064896	0.003955	-0.003031
864	4.345609	0.005000	8.793058	-0.606571	-3.806280	-0.043478	-0.135886	-0.797609	0.069125	0.001808	-0.006479
865	4.350609	0.005000	8.853113	-0.519106	-3.703687	-0.043934	-0.136911	-0.797863	0.055913	0.000946	-0.001563
866	4.355609	0.005000	8.843673	-0.546970	-3.779323	-0.044389	-0.137935	-0.798117	0.057985	0.004460	0.001668
867	4.360609	0.005000	8.839922	-0.569721	-3.697999	-0.044776	-0.138721	-0.798295	0.072595	0.007118	-0.011441
868	4.365609	0.005000	8.829000	-0.563459	-3.774089	-0.044776	-0.138152	-0.798041	0.063764	-0.001328	0.000682
869	4.370609	0.005000	8.785555	-0.584395	-3.853931	-0.044776	-0.137584	-0.797787	0.069131	0.011775	-0.005499
870	4.375609	0.005000	8.827639	-0.665719	-3.844159	-0.044776	-0.137015	-0.797533	0.078588	0.001695	-0.002849
871	4.380609	0.005000	8.714245	-0.627840	-3.768522	-0.044776	-0.136446	-0.797279	0.054250	0.011960	-0.004562
872	4.385609	0.005000	8.824674	-0.658427	-3.771366	-0.044776	-0.135878	-0.797025	0.066526	0.009649	-0.003514
873	4.390609	0.005000	8.803163	-0.699619	-3.806280	-0.044776	-0.135309	-0.796771	0.063290	0.010828	-0.008007
874	4.395609	0.005000	8.838545	-0.529211	-3.835975	-0.044776	-0.134740	-0.796517	0.063290	0.002172	0.000297
875	4.400609	0.005000	8.787688	-0.627840	-3.674098	-0.044776	-0.134171	-0.796263	0.068766	0.002980	-0.000463
876	4.405609	0.005000	8.774527	-0.636614	-3.727800	-0.044776	-0.133603	-0.796009	0.068666	0.011656	0.008225
877	4.410609	0.005000	8.768597	-0.570523	-3.706637	-0.044776	-0.133034	-0.795755	0.052423	-0.005341	0.004348
878	4.415609	0.005000	8.750520	-0.549360	-3.840316	-0.044776	-0.132465	-0.795501	0.048838	-0.009672	0.009455
879	4.420609	0.005000	8.766449	-0.526049	-3.781804	-0.044776	-0.131897	-0.795247	0.047239	-0.000091	0.000390
880	4.425609	0.005000	8.789760	-0.497035	-3.780110	-0.044773	-0.131361	-0.794993	0.057413	0.003218	0.005265
881	4.430609	0.005000	8.789760	-0.568118	-3.738041	-0.044659	-0.132044	-0.794739	0.044561	0.004048	0.001384
882	4.435609	0.005000	8.782363	-0.478277	-3.791486	-0.044545	-0.132727	-0.794485	0.054324	-0.003981	0.012123
883	4.440609	0.005000	8.676648	-0.505512	-3.727800	-0.044432	-0.133410	-0.794231	0.049175	-0.005622	0.012232
884	4.445609	0.005000	8.706923	-0.547182	-3.771397	-0.044318	-0.134092	-0.793977	0.037737	-0.005219	0.015048
885	4.450609	0.005000	8.671374	-0.548694	-3.884094	-0.044204	-0.134775	-0.793723	0.042136	0.003023	0.008359
886	4.455609	0.005000	8.864730	-0.510120	-3.774059	-0.044090	-0.135458	-0.793469	0.044204	0.002333	0.007463
887	4.460609	0.005000	8.763227	-0.615133	-3.793573	-0.043977	-0.136141	-0.793214	0.037821	-0.004180	0.008374
888	4.465609	0.005000	8.750520	-0.627840	-3.745492	-0.043863	-0.136824	-0.792960	0.038051	0.007767	0.000751
889	4.470609	0.005000	8.868240	-0.510120	-3.700147	-0.043749	-0.137506	-0.792706	0.047337	-0.001642	-0.006391
890	4.475609	0.005000	8.754545	-0.510120	-3.948818	-0.043635	-0.138189	-0.792452	0.044878	0.009769	-0.003841
891	4.480609	0.005000	8.772500	-0.488140	-3.967960	-0.043522	-0.138872	-0.792198	0.040408	0.012153	0.004091
892	4.485609	0.005000	8.808896	-0.530224	-3.827352	-0.043408	-0.139555	-0.791944	0.048274	0.015822	0.008138
893	4.490609	0.005000	8.907480	-0.565652	-3.845520	-0.043294	-0.140238	-0.791690	0.041623	0.013069	0.006997
894	4.495609	0.005000	8.817564	-0.510120	-3.882294	-0.043077	-0.139781	-0.791551	0.039747	0.009016	0.001718
895	4.500609	0.005000	8.772636	-0.560418	-3.660378	-0.042849	-0.139212	-0.791424	0.042054	0.000309	-0.004678
896	4.505609	0.005000	8.829000	-0.518334	-3.713202	-0.042622	-0.138643	-0.791297	0.057996	-0.001974	-0.006961
897	4.510609	0.005000	8.873610	-0.504750	-3.733170	-0.042394	-0.138074	-0.791170	0.059005	0.012950	-0.001363
898	4.515609	0.005000	8.937734	-0.473875	-3.770035	-0.042167	-0.137505	-0.791043	0.048693	0.007834	-0.007935
899	4.520609	0.005000	8.868240	-0.549209	-3.845520	-0.041939	-0.136936	-0.790916	0.058024	0.005202	-0.004902
900	4.525609	0.005000	8.758598	-0.546667	-3.772425	-0.041711	-0.136367	-0.790789	0.038148	0.004221	-0.003274
901	4.530609	0.005000	8.896407	-0.549360	-3.727800	-0.041484	-0.135798	-0.790662	0.054758	-0.000913	-0.002908
902	4.535609	0.005000	8.837380	-0.535261	-3.797900	-0.041256	-0.135229	-0.790535	0.045959	0.007746	0.000141
903	4.540609	0.005000	8.818229	-0.527819	-3.852448	-0.041029	-0.134660	-0.790408	0.051603	-0.002292	-0.007025
904	4.545609	0.005000	8.868240	-0.588600	-3.792666	-0.040801	-0.134091	-0.790280	0.050527	-0.000217	-0.001923
905	4.550609	0.005000	8.750520	-0.588600	-3.845520	-0.040574	-0.133522	-0.790153	0.048386	0.001790	-0.007774
906	4.555609	0.005000	8.868240	-0.549360	-3.767040	-0.040346	-0.132953	-0.790026	0.044234	0.003601	-0.002133
907	4.560609	0.005000	8.694186	-0.610746	-3.806280	-0.040570	-0.133378	-0.790504	0.029416	0.002583	0.005050
908	4.565609	0.005000	8.882490	-0.577860	-3.870510	-0.040911	-0.134061	-0.791139	0.052907	0.008563	-0.008017
909	4.570609	0.005000	8.766672	-0.577056	-3.873216	-0.041253	-0.134743	-0.791775	0.064055	0.007985	-0.003228
910	4.575609	0.005000	8.629684	-0.579569	-3.845520	-0.041594	-0.135426	-0.792410	0.043595	0.003123	-0.003071
911	4.580609	0.005000	8.750520	-0.516307	-3.694747	-0.041935	-0.136109	-0.793045	0.040262	-0.001240	0.000787
912	4.585609	0.005000	8.707937	-0.470880	-3.695246	-0.042277	-0.136791	-0.793681	0.037139	0.006863	-0.005462
913	4.590609	0.005000	8.750520	-0.549360	-3.845021	-0.042618	-0.137474	-0.794316	0.034202	0.011357	-0.003755
914	4.595609	0.005000	8.787415	-0.438674	-3.732489	-0.042959	-0.138157	-0.794951	0.051689	0.017202	-0.000691
915	4.600609	0.005000	8.726846	-0.465691	-3.835143	-0.043301	-0.138840	-0.795587	0.043439	0.002131	-0.000900
916	4.605609	0.005000	8.679619	-0.517699	-3.798701	-0.043642	-0.139522	-0.796222	0.044952	0.009190	0.001708
917	4.610609	0.005000	8.711280	-0.606995	-3.730251	-0.043983	-0.140205	-0.796857	0.050401	0.013659	-0.011521
918	4.615609	0.005000	8.802467	-0.589160	-3.858227	-0.044324	-0.140888	-0.797493	0.058915	0.012265	-0.006398
919	4.620609	0.005000	8.789760	-0.533250	-3.822390	-0.044666	-0.141571	-0.798128	0.046314	0.008777	-0.009854
920	4.625609	0.005000	8.830331	-0.629171	-3.825234	-0.044699	-0.141406	-0.797903	0.047375	0.012265	-0.006563
921	4.630609	0.005000	8.767962	-0.632197	-3.710358	-0.044585	-0.140837	-0.797267	0.048095	0.012869	-0.000122
922	4.635609	0.005000	8.809143	-0.598291	-3.742574	-0.044471	-0.140268	-0.796632	0.058971	0.008356	-0.004955
923	4.640609	0.005000	8.826428	-0.549360	-3.742594	-0.044358	-0.139699	-0.795997	0.040932	0.009049	-0.000569
924	4.645609	0.005000	8.829000	-0.579221	-3.716697	-0.044244	-0.139130	-0.795362	0.037048	0.014049	0.001702
925	4.650609	0.005000	8.835535	-0.542825	-3.806280	-0.044130	-0.138561	-0.794726	0.043706	0.014752	0.001317
926	4.655609	0.005000	8.757902	-0.470880	-3.849211	-0.044016	-0.137992	-0.794091	0.041311	0.013257	-0.005792
927	4.660609	0.005000	8.788066	-0.510120	-3.883913	-0.043903	-0.137423	-0.793456	0.039593	0.006407	-0.010882
928	4.665609	0.005000	8.786667	-0.547814	-3.883214	-0.043789	-0.136854	-0.792820	0.037018	0.009385	0.005772
929	4.670609	0.005000	8.798504	-0.540616	-3.775784	-0.043675	-0.136285	-0.792185	0.028626	0.014485	-0.005416
930	4.675609	0.005000	8.796976	-0.485311	-3.774256	-0.043561	-0.135716	-0.791550	0.046808	0.013164	0.000718
931	4.680609	0.005000	8.848121	-0.470880	-3.767040	-0.043448	-0.135147	-0.790914	0.039481	0.015866	0.002121
932	4.685609	0.005000	8.763424	-0.523553	-3.832616	-0.043334	-0.134578	-0.790279	0.044288	0.002572	0.003987
933	4.690609	0.005000	8.765814	-0.534066	-3.790986	-0.043284	-0.134328	-0.790356	0.051649	0.008420	0.007886
934	4.695609	0.005000	8.690178	-0.528258	-3.785178	-0.043284	-0.134328	-0.790991	0.035463	0.006734	-0.002419
935	4.700609	0.005000	8.766056	-0.510120	-3.709541	-0.043284	-0.134328	-0.791626	0.032273	0.004834	0.000533
936	4.705609	0.005000	8.852825	-0.470880	-3.727800	-0.043284	-0.134328	-0.792261	0.032559	-0.001129	-0.002681
937	4.710609	0.005000	8.829000	-0.574501	-3.713701	-0.043284	-0.134328	-0.792896	0.040302	-0.000133	-0.000031
938	4.715609	0.005000	8.799154	-0.578873	-3.737527	-0.043284	-0.134328	-0.793531	0.042962	0.005496	-0.001018
939	4.720609	0.005000	8.860888	-0.603304	-3.852872	-0.043284	-0.134328	-0.794166	0.041287	0.006821	-0.002981
940	4.725609	0.005000	8.868240	-0.623332	-3.871236	-0.043284	-0.134328	-0.794801	0.040504	0.003647	0.001169
941	4.730609	0.005000	8.789760	-0.511784	-3.802952	-0.043284	-0.134328	-0.795436	0.033419	0.017469	-0.006697
942	4.735609	0.005000	8.903940	-0.549360	-3.803920	-0.043284	-0.134328	-0.796071	0.044755	0.005956	-0.004572
943	4.740609	0.005000	8.750520	-0.506096	-3.880736	-0.043284	-0.134328	-0.796706	0.036524	0.007716	-0.001391
944	4.745609	0.005000	8.789760	-0.503252	-3.903397	-0.043284	-0.134328	-0.797341	0.045233	0.007468	0.000285
945	4.750609	0.005000	8.780502	-0.579342	-3.933258	-0.043284	-0.134328	-0.797976	0.045991	0.014466	0.006343
946	4.755609	0.005000	8.750520	-0.458778	-3.833418	-0.043483	-0.134627	-0.797888	0.026498	0.017861	-0.000853
947	4.760609	0.005000	8.843946	-0.485826	-3.791334	-0.043939	-0.135310	-0.796871	0.048820	0.009707	0.000238
948	4.765609	0.005000	8.850450	-0.549360	-3.824070	-0.044394	-0.135993	-0.795855	0.040171	0.003592	0.003227
949	4.770609	0.005000	8.812421	-0.547333	-3.824886	-0.044849	-0.136676	-0.794838	0.057874	0.005671	0.008844
950	4.775609	0.005000	8.845040	-0.595760	-3.861560	-0.045304	-0.137358	-0.793822	0.044706	0.007840	0.010555
951	4.780609	0.005000	8.763908	-0.470880	-3.741188	-0.045759	-0.138041	-0.792805	0.047217	0.002643	0.008141
952	4.785609	0.005000	8.721824	-0.470880	-3.717256	-0.046214	-0.138724	-0.791788	0.040295	0.004112	0.005700
953	4.790609	0.005000	8.711280	-0.588600	-3.610080	-0.046670	-0.139407	-0.790772	0.047178	0.001009	-0.007099
954	4.795609	0.005000	8.760232	-0.500408	-3.659032	-0.047125	-0.140090	-0.789755	0.050058	0.007578	-0.000182
955	4.800609	0.005000	8.779897	-0.478277	-3.649320	-0.047580	-0.140772	-0.788739	0.041718	0.001415	0.000805
956	4.805609	0.005000	8.749385	-0.549738	-3.727044	-0.048035	-0.141455	-0.787722	0.041387	-0.001186	-0.003241
957	4.810609	0.005000	8.753742	-0.585378	-3.881538	-0.048490	-0.142138	-0.786706	0.050805	0.004333	0.007850
958	4.815609	0.005000	8.895348	-0.443772	-3.878694	-0.048945	-0.142821	-0.785689	0.045332	0.003465	0.002377
959	4.820609	0.005000	8.777250	-0.540450	-3.745620	-0.049364	-0.143577	-0.784632	0.024206	0.002723	0.005420
960	4.825609	0.005000	8.739099	-0.549360	-3.727800	-0.049705	-0.144487	-0.783489	0.020839	0.001120	-0.012216
961	4.830609	0.005000	8.736391	-0.560342	-3.702689	-0.050046	-0.145397	-0.782346	0.050732	-0.005559	0.006261
962	4.835609	0.005000	8.728253	-0.566333	-3.884760	-0.050387	-0.146306	-0.781203	0.041501	0.004120	-0.000081
963	4.840609	0.005000	8.672040	-0.510513	-3.846307	-0.050728	-0.147216	-0.780060	0.050693	0.005833	-0.000245
964	4.845609	0.005000	8.756601	-0.470880	-3.800199	-0.051070	-0.148126	-0.778917	0.041136	0.002505	0.008347
965	4.850609	0.005000	8.632800	-0.496384	-3.872991	-0.051411	-0.149036	-0.777774	0.049891	0.007856	0.005979
966	4.855609	0.005000	8.778399	-0.504962	-3.856881	-0.051752	-0.149946	-0.776631	0.047718	0.005109	-0.000694
967	4.860609	0.005000	8.759037	-0.462363	-3.932517	-0.052093	-0.150856	-0.775488	0.050991	0.008416	0.004895
968	4.865609	0.005000	8.840345	-0.364505	-3.963240	-0.052434	-0.151766	-0.774345	0.057541	0.001796	0.006726
969	4.870609	0.005000	8.862582	-0.470880	-3.881931	-0.052775	-0.152676	-0.773201	0.045919	0.007563	0.004925
970	4.875609	0.005000	8.750535	-0.510105	-3.767070	-0.053117	-0.153585	-0.772058	0.055843	0.007169	0.004207
971	4.880609	0.005000	8.753379	-0.470880	-3.839802	-0.053458	-0.154495	-0.770915	0.058876	0.007394	0.008813
972	4.885609	0.005000	8.755769	-0.578102	-3.840271	-0.053731	-0.155020	-0.770253	0.069001	0.014354	0.002140
973	4.890609	0.005000	8.829000	-0.549360	-3.758947	-0.053731	-0.153996	-0.771523	0.063200	0.007362	0.010304
974	4.895609	0.005000	8.885606	-0.453514	-3.631954	-0.053731	-0.152973	-0.772793	0.052901	0.008522	0.007475
975	4.900609	0.005000	8.921261	-0.406181	-3.663101	-0.053731	-0.151949	-0.774063	0.058505	0.002424	0.002012
976	4.905609	0.005000	9.018663	-0.454529	-3.734337	-0.053731	-0.150925	-0.775333	0.057147	0.005463	0.004361
977	4.910609	0.005000	8.829000	-0.510120	-3.824039	-0.053731	-0.149902	-0.776603	0.050904	0.009663	0.003370
978	4.915609	0.005000	8.824553	-0.470880	-3.806280	-0.053731	-0.148878	-0.777874	0.051268	0.005586	0.010303
979	4.920609	0.005000	8.779625	-0.520255	-3.777175	-0.053731	-0.147855	-0.779144	0.049190	0.007057	-0.004453
980	4.925609	0.005000	8.789760	-0.486703	-3.727800	-0.053731	-0.146831	-0.780414	0.048411	0.011214	0.001245
981	4.930609	0.005000	8.838318	-0.500802	-3.755755	-0.053731	-0.145807	-0.781684	0.034418	0.000018	0.005366
982	4.935609	0.005000	8.835474	-0.470880	-3.884760	-0.053731	-0.144784	-0.782954	0.056278	0.002940	-0.003195
983	4.940609	0.005000	8.825369	-0.549360	-3.849151	-0.053731	-0.143760	-0.784224	0.045532	0.010730	0.000417
984	4.945609	0.005000	8.828213	-0.549360	-3.769400	-0.053731	-0.142736	-0.785494	0.049437	0.010658	-0.001675
985	4.950609	0.005000	8.752577	-0.512177	-3.810395	-0.053670	-0.141852	-0.786618	0.030734	0.006722	0.005590
986	4.955609	0.005000	8.721082	-0.510120	-3.762139	-0.052874	-0.142649	-0.785983	0.033030	0.005777	0.000531
987	4.960609	0.005000	8.829000	-0.517484	-3.774404	-0.052077	-0.143445	-0.785348	0.054384	0.007422	-0.005917
988	4.965609	0.005000	8.818880	-0.569600	-3.765800	-0.051281	-0.144242	-0.784712	0.036283	0.008313	0.005286
989	4.970609	0.005000	8.881552	-0.562672	-3.701524	-0.050484	-0.145038	-0.784077	0.030510	0.007837	0.004064
990	4.975609	0.005000	8.907480	-0.596224	-3.813904	-0.049688	-0.145835	-0.783441	0.053112	0.000067	0.007436
991	4.980609	0.005000	8.870176	-0.665144	-3.748388	-0.048891	-0.146631	-0.782806	0.032517	0.009226	0.004477
992	4.985609	0.005000	8.864488	-0.588600	-3.767040	-0.048095	-0.147428	-0.782171	0.048254	0.000280	0.001791
993	4.990609	0.005000	8.789760	-0.527184	-3.790926	-0.047298	-0.148224	-0.781535	0.044428	0.014547	-0.002075
994	4.995609	0.005000	8.882429	-0.470880	-3.909811	-0.046502	-0.149021	-0.780900	0.053082	0.012476	0.005239
995	5.000609	0.005000	8.799441	-0.500439	-3.855201	-0.045705	-0.149818	-0.780264	0.047341	0.003927	0.009992
996	5.005609	0.005000	8.847727	-0.438478	-3.773878	-0.044909	-0.150614	-0.779629	0.046816	0.006649	0.005343
997	5.010609	0.005000	8.742533	-0.470880	-3.920006	-0.044112	-0.151411	-0.778994	0.053252	0.011417	0.003677
998	5.015609	0.005000	8.713579	-0.393550	-3.769339	-0.043316	-0.152207	-0.778358	0.044804	0.013601	0.006655
999	5.020609	0.005000	8.714668	-0.431640	-3.883066	-0.043066	-0.151038	-0.779309	0.057076	0.005301	0.003251
1000	5.025609	0.005000	8.676172	-0.501856	-3.845520	-0.042838	-0.149787	-0.780325	0.054632	0.016324	0.000999
1001	5.030609	0.005000	8.833193	-0.503111	-3.799271	-0.042611	-0.148535	-0.781341	0.061998	0.019407	-0.006053
1002	5.035609	0.005000	8.799532	-0.569056	-3.796508	-0.042383	-0.147284	-0.782357	0.061154	0.015552	-0.001417
1003	5.040609	0.005000	8.737904	-0.483496	-3.831512	-0.042156	-0.146033	-0.783373	0.052197	0.023180	-0.002813
1004	5.045609	0.005000	8.758840	-0.596920	-3.790820	-0.041928	-0.144782	-0.784389	0.054695	0.022418	0.001810
1005	5.050609	0.005000	8.786621	-0.606651	-3.785091	-0.041701	-0.143531	-0.785405	0.048803	0.022338	0.009807
1006	5.055609	0.005000	8.866122	-0.549360	-3.905439	-0.041473	-0.142280	-0.786421	0.044099	0.020860	-0.001263
1007	5.060609	0.005000	8.860434	-0.510120	-3.790563	-0.041246	-0.141029	-0.787438	0.045765	0.010739	0.010805
1008	5.065609	0.005000	8.960834	-0.588600	-3.714927	-0.041018	-0.139778	-0.788454	0.038423	0.016710	0.004489
1009	5.070609	0.005000	8.711280	-0.568541	-3.767040	-0.040791	-0.138526	-0.789470	0.046592	0.004716	0.020002
1010	5.075609	0.005000	8.718465	-0.563731	-3.702931	-0.040563	-0.137275	-0.790486	0.025986	0.016825	0.026823
1011	5.080609	0.005000	8.833342	-0.588600	-3.836837	-0.040336	-0.136024	-0.791502	0.031661	0.011892	0.013660
1012	5.085609	0.005000	8.902935	-0.587085	-3.809310	-0.040490	-0.136012	-0.791880	0.048577	0.014403	0.015297
1013	5.090609	0.005000	8.751413	-0.511013	-3.923107	-0.040717	-0.136239	-0.792134	0.027866	0.019627	0.008324
1014	5.095609	0.005000	8.793496	-0.517593	-3.739009	-0.040945	-0.136467	-0.792388	0.039812	0.022297	0.013639
1015	5.100609	0.005000	8.743940	-0.516700	-3.767040	-0.041172	-0.136694	-0.792642	0.041061	0.033315	0.004913
1016	5.105609	0.005000	8.750520	-0.549360	-3.727800	-0.041400	-0.136922	-0.792896	0.039077	0.026889	-0.002393
1017	5.110609	0.005000	8.762319	-0.521919	-3.818079	-0.041628	-0.137150	-0.793150	0.047561	0.031643	0.004128
1018	5.115609	0.005000	8.804403	-0.510120	-3.919311	-0.041855	-0.137377	-0.793404	0.032837	0.036294	-0.009553
1019	5.120609	0.005000	8.646021	-0.492633	-3.771306	-0.042083	-0.137605	-0.793659	0.051934	0.036987	0.003892
1020	5.125609	0.005000	8.651709	-0.547938	-3.746709	-0.042310	-0.137832	-0.793913	0.040146	0.035497	-0.010198
1021	5.130609	0.005000	8.829000	-0.532841	-3.694762	-0.042538	-0.138060	-0.794167	0.055944	0.032191	-0.005386
1022	5.135609	0.005000	8.815325	-0.445315	-3.649320	-0.042765	-0.138287	-0.794421	0.047857	0.041207	-0.005026
1023	5.140609	0.005000	8.850662	-0.538529	-3.749462	-0.042993	-0.138515	-0.794675	0.054731	0.035492	0.002025
1024	5.145609	0.005000	8.821013	-0.518107	-3.791002	-0.043221	-0.138743	-0.794929	0.037870	0.039536	0.008915
1025	5.150609	0.005000	8.868240	-0.539073	-3.767040	-0.043448	-0.138642	-0.795275	0.026435	0.036841	0.006079
1026	5.155609	0.005000	8.910248	-0.504583	-3.767040	-0.043676	-0.138414	-0.795656	0.047342	0.030234	-0.002369
1027	5.160609	0.005000	8.868391	-0.431640	-3.845369	-0.043903	-0.138187	-0.796037	0.040920	0.034257	0.000692
1028	5.165609	0.005000	8.865320	-0.507200	-3.845520	-0.044130	-0.137960	-0.796418	0.047477	0.022136	0.009478
1029	5.170609	0.005000	8.817473	-0.537833	-3.794753	-0.044358	-0.137732	-0.796799	0.046802	0.024019	0.002356
1030	5.175609	0.005000	8.829000	-0.518357	-3.806280	-0.044585	-0.137505	-0.797180	0.048730	0.021107	-0.003235
1031	5.180609	0.005000	8.789760	-0.481862	-3.738782	-0.044813	-0.137277	-0.797561	0.042274	0.013392	0.005674
1032	5.185609	0.005000	8.711280	-0.496294	-3.769279	-0.045040	-0.137050	-0.797942	0.043601	0.020827	-0.005846
1033	5.190609	0.005000	8.649470	-0.543460	-3.711130	-0.045268	-0.136822	-0.798323	0.063057	0.016937	0.003275
1034	5.195609	0.005000	8.731006	-0.451578	-3.747526	-0.045495	-0.136595	-0.798704	0.055130	0.032797	0.000586
1035	5.200609	0.005000	8.750520	-0.470880	-3.789200	-0.045723	-0.136367	-0.799085	0.052648	0.023767	0.005472
1036	5.205609	0.005000	8.878496	-0.549360	-3.845520	-0.045950	-0.136140	-0.799466	0.030763	0.028970	0.008338
1037	5.210609	0.005000	8.840648	-0.565304	-3.817928	-0.046178	-0.135912	-0.799847	0.037755	0.018079	-0.003113
1038	5.215609	0.005000	8.841828	-0.540556	-3.767040	-0.046065	-0.135821	-0.800000	0.065065	0.010061	0.001065
1039	5.220609	0.005000	8.856320	-0.476840	-3.784920	-0.045723	-0.135821	-0.800000	0.048422	0.013175	0.000016
1040	5.225609	0.005000	8.795992	-0.437872	-3.878528	-0.045382	-0.135821	-0.800000	0.056689	0.018168	-0.000478
1041	5.230609	0.005000	8.750792	-0.432457	-3.767040	-0.045041	-0.135821	-0.800000	0.050505	0.023420	-0.002598
1042	5.235609	0.005000	8.753092	-0.512692	-3.657035	-0.044700	-0.135821	-0.800000	0.060810	0.027047	-0.001632
1043	5.240609	0.005000	9.005174	-0.475886	-3.703579	-0.044359	-0.135821	-0.800000	0.048550	0.025031	0.004460
1044	5.245609	0.005000	8.876031	-0.502329	-3.774831	-0.044017	-0.135821	-0.800000	0.039578	0.021687	0.002573
1045	5.250609	0.005000	8.761154	-0.577966	-3.677926	-0.043676	-0.135821	-0.800000	0.041428	0.005729	0.002850
1046	5.255609	0.005000	8.841283	-0.510120	-3.728995	-0.043335	-0.135821	-0.800000	0.044480	0.006679	-0.003076
1047	5.260609	0.005000	8.930398	-0.510120	-3.701751	-0.042994	-0.135821	-0.800000	0.052651	0.012205	-0.000061
1048	5.265609	0.005000	8.966794	-0.529286	-3.807188	-0.042652	-0.135821	-0.800000	0.054640	0.005827	0.008168
1049	5.270609	0.005000	8.989833	-0.506247	-3.845520	-0.042311	-0.135821	-0.800000	0.047123	0.009180	0.002476
1050	5.275609	0.005000	8.858680	-0.549360	-3.909160	-0.041970	-0.135821	-0.800000	0.044234	0.006146	0.012023
1051	5.280609	0.005000	8.922728	-0.498124	-3.794284	-0.041791	-0.135821	-0.799758	0.034514	0.014966	-0.000611
1052	5.285609	0.005000	8.868240	-0.480032	-3.827216	-0.041791	-0.135821	-0.799250	0.045764	-0.005882	0.006573
1053	5.290609	0.005000	8.796537	-0.470880	-3.734577	-0.041791	-0.135821	-0.798742	0.025988	0.000283	-0.007407
1054	5.295609	0.005000	8.832933	-0.541494	-3.841587	-0.041791	-0.135821	-0.798234	0.038257	0.003053	-0.007024
1055	5.300609	0.005000	8.866062	-0.430551	-3.768129	-0.041791	-0.135821	-0.797726	0.051003	0.005737	-0.003570
1056	5.305609	0.005000	8.864730	-0.467370	-3.731310	-0.041791	-0.135821	-0.797218	0.061448	0.012466	-0.003470
1057	5.310609	0.005000	8.755119	-0.505521	-3.688560	-0.041791	-0.135821	-0.796710	0.058480	-0.002469	0.000795
1058	5.315609	0.005000	8.868240	-0.534475	-3.681117	-0.041791	-0.135821	-0.796202	0.039423	0.000219	0.005108
1059	5.320609	0.005000	8.868240	-0.568935	-3.717967	-0.041791	-0.135821	-0.795694	0.034981	-0.004409	0.001453
1060	5.325609	0.005000	8.880917	-0.562037	-3.727800	-0.041791	-0.135821	-0.795186	0.034106	-0.004023	0.003503
1061	5.330609	0.005000	8.844521	-0.651559	-3.790759	-0.041791	-0.135821	-0.794678	0.037952	-0.002145	0.002951
1062	5.335609	0.005000	8.889116	-0.591111	-3.706924	-0.041791	-0.135821	-0.794170	0.038272	-0.010150	0.011513
1063	5.340609	0.005000	8.807799	-0.549360	-3.703436	-0.041791	-0.135821	-0.793662	0.009189	-0.008775	0.009654
1064	5.345609	0.005000	8.892277	-0.455677	-3.751837	-0.041871	-0.135901	-0.793243	-0.004712	-0.031371	0.018916
1065	5.350609	0.005000	8.907480	-0.497616	-3.793776	-0.042099	-0.136129	-0.792989	0.010930	-0.021925	0.022710
1066	5.355609	0.005000	8.848302	-0.461547	-3.786342	-0.042326	-0.136356	-0.792735	0.021493	-0.013876	0.018350
1067	5.360609	0.005000	8.846865	-0.495870	-3.688560	-0.042554	-0.136584	-0.792481	0.014792	-0.014511	0.022777
1068	5.365609	0.005000	8.833281	-0.470880	-3.662163	-0.042781	-0.136811	-0.792227	0.009786	-0.004386	0.023740
1069	5.370609	0.005000	8.868240	-0.431640	-3.806280	-0.043009	-0.137039	-0.791973	0.021951	-0.011970	0.023398
1070	5.375609	0.005000	8.679074	-0.431640	-3.730614	-0.043236	-0.137266	-0.791719	0.013904	-0.011357	0.010617
1071	5.380609	0.005000	8.707498	-0.467098	-3.731582	-0.043464	-0.137494	-0.791465	0.026592	-0.013313	0.014106
1072	5.385609	0.005000	8.809123	-0.549360	-3.793029	-0.043691	-0.137721	-0.791211	0.045229	-0.006010	0.009951
1073	5.390609	0.005000	8.808699	-0.450579	-3.796810	-0.043919	-0.137949	-0.790957	0.057713	-0.002555	0.010490
1074	5.395609	0.005000	8.777446	-0.380086	-3.715486	-0.044146	-0.138176	-0.790703	0.038379	0.000769	0.013386
1075	5.400609	0.005000	8.829000	-0.470880	-3.679071	-0.044374	-0.138404	-0.790449	0.043179	0.000064	-0.005177
1076	5.405609	0.005000	8.877498	-0.488428	-3.710252	-0.044601	-0.138631	-0.790195	0.054250	-0.002632	0.001550
1077	5.410609	0.005000	8.827457	-0.549360	-3.826671	-0.044697	-0.138727	-0.790088	0.063707	0.004571	0.006473
1078	5.415609	0.005000	8.789760	-0.518894	-3.774271	-0.044356	-0.138386	-0.790469	0.052987	0.008138	-0.004740
1079	5.420609	0.005000	8.790002	-0.523281	-3.780201	-0.044015	-0.138045	-0.790850	0.056750	-0.001255	-0.002610
1080	5.425609	0.005000	8.868240	-0.488549	-3.756254	-0.043674	-0.137703	-0.791231	0.050908	0.011185	-0.008891
1081	5.430609	0.005000	8.844415	-0.518062	-3.641378	-0.043333	-0.137362	-0.791612	0.049353	0.001713	-0.006327
1082	5.435609	0.005000	8.687334	-0.573306	-3.722702	-0.042991	-0.137021	-0.791993	0.051402	0.010609	-0.008679
1083	5.440609	0.005000	8.722550	-0.433894	-3.801772	-0.042650	-0.136680	-0.792374	0.049091	0.005682	-0.005160
